SpectraSuite Data File
++++++++++++++++++++++++++++++++++++
Date: Fri Oct 25 10:47:09 EDT 2013
User: price-jones
Dark Spectrum Present: No
Reference Spectrum Present: No
Number of Sampled Component Spectra: 1
Spectrometers: USB2+H05261
Integration Time (usec): 100000 (USB2+H05261)
Spectra Averaged: 1 (USB2+H05261)
Boxcar Smoothing: 0 (USB2+H05261)
Correct for Electrical Dark: No (USB2+H05261)
Strobe/Lamp Enabled: No (USB2+H05261)
Correct for Detector Non-linearity: No (USB2+H05261)
Correct for Stray Light: No (USB2+H05261)
Number of Pixels in Processed Spectrum: 2048
>>>>>Begin Processed Spectral Data<<<<<
365.73	98.30
365.92	98.30
366.12	98.30
366.32	23.41
366.52	49.15
366.72	110.01
366.91	4.68
367.11	65.54
367.31	0.00
367.51	23.41
367.70	23.41
367.90	25.75
368.10	0.00
368.30	56.17
368.49	32.77
368.69	67.88
368.89	46.81
369.09	0.00
369.28	58.51
369.48	32.77
369.68	110.01
369.87	98.30
370.07	37.45
370.27	126.39
370.47	229.37
370.66	416.62
370.86	280.86
371.06	411.93
371.25	470.45
371.45	379.17
371.65	379.17
371.84	411.93
372.04	414.27
372.24	489.17
372.44	496.19
372.63	470.45
372.83	512.58
373.03	435.34
373.22	510.24
373.42	472.79
373.62	547.69
373.81	592.16
374.01	543.00
374.21	587.47
374.40	503.22
374.60	620.24
374.79	514.92
374.99	585.13
375.19	538.32
375.38	547.69
375.58	521.94
375.78	613.22
375.97	641.31
376.17	594.50
376.37	547.69
376.56	568.75
376.76	517.26
376.95	510.24
377.15	526.62
377.35	641.31
377.54	601.52
377.74	545.34
377.93	603.86
378.13	575.77
378.33	552.37
378.52	580.45
378.72	641.31
378.91	716.20
379.11	571.09
379.31	615.56
379.50	662.37
379.70	723.23
379.89	631.94
380.09	620.24
380.28	568.75
380.48	751.31
380.68	631.94
380.87	550.03
381.07	613.22
381.26	613.22
381.46	601.52
381.65	706.84
381.85	629.60
382.04	739.61
382.24	674.07
382.43	669.39
382.63	767.70
382.83	690.46
383.02	716.20
383.22	746.63
383.41	678.76
383.61	653.01
383.80	713.86
384.00	720.88
384.19	711.52
384.39	692.80
384.58	734.93
384.78	713.86
384.97	763.01
385.17	695.14
385.36	777.06
385.56	753.65
385.75	760.67
385.95	800.46
386.14	793.44
386.34	826.21
386.53	788.76
386.72	727.91
386.92	912.81
387.11	767.70
387.31	784.08
387.50	784.08
387.70	868.34
387.89	868.34
388.09	847.27
388.28	788.76
388.48	788.76
388.67	868.34
388.86	814.51
389.06	940.90
389.25	833.23
389.45	926.85
389.64	858.98
389.84	943.24
390.03	924.51
390.22	809.83
390.42	898.77
390.61	966.64
390.81	887.06
391.00	889.40
391.19	992.39
391.39	985.37
391.58	945.58
391.78	973.66
391.97	912.81
392.16	887.06
392.36	1034.52
392.55	968.98
392.75	1053.24
392.94	954.94
393.13	1076.65
393.33	973.66
393.52	889.40
393.71	992.39
393.91	1020.47
394.10	1083.67
394.29	947.92
394.49	1034.52
394.68	1043.88
394.88	1013.45
395.07	1086.01
395.26	1118.78
395.46	1057.92
395.65	1104.73
395.84	1097.71
396.04	1186.65
396.23	1111.75
396.42	1167.93
396.62	1095.37
396.81	1100.05
397.00	1158.57
397.19	1203.04
397.39	1186.65
397.58	1177.29
397.77	1291.98
397.97	1294.32
398.16	1184.31
398.35	1219.42
398.55	1296.66
398.74	1313.04
398.93	1322.40
399.12	1266.23
399.32	1327.08
399.51	1336.45
399.70	1401.98
399.90	1320.06
400.09	1366.87
400.28	1437.09
400.47	1355.17
400.67	1409.00
400.86	1366.87
401.05	1369.21
401.24	1289.64
401.44	1411.34
401.63	1493.26
401.82	1472.20
402.01	1451.13
402.21	1336.45
402.40	1432.41
402.59	1462.83
402.78	1556.46
402.97	1579.86
403.17	1549.43
403.36	1572.84
403.55	1565.82
403.74	1526.03
403.93	1558.80
404.13	1586.88
404.32	1680.50
404.51	1598.59
404.70	1558.80
404.89	1668.80
405.09	1727.32
405.28	1720.29
405.47	1640.72
405.66	1692.21
405.85	1891.15
406.05	1729.66
406.24	1753.06
406.43	1804.55
406.62	1767.10
406.81	1874.77
407.00	1795.19
407.20	1799.87
407.39	1802.21
407.58	1860.73
407.77	1762.42
407.96	1973.07
408.15	1923.92
408.34	1905.20
408.54	1989.46
408.73	2015.20
408.92	1959.03
409.11	2080.74
409.30	1928.60
409.49	1975.41
409.68	1952.01
409.87	2066.69
410.07	2047.97
410.26	2043.29
410.45	2080.74
410.64	2083.08
410.83	2200.10
411.02	2047.97
411.21	2193.08
411.40	2183.72
411.59	2216.49
411.78	2270.32
411.98	2242.23
412.17	2359.26
412.36	2270.32
412.55	2385.01
412.74	2289.04
412.93	2366.28
413.12	2377.98
413.31	2509.05
413.50	2410.75
413.69	2387.35
413.88	2546.50
414.07	2541.82
414.26	2511.39
414.45	2567.57
414.64	2478.63
414.83	2628.42
415.02	2614.38
415.22	2679.91
415.41	2766.51
415.60	2708.00
415.79	2813.32
415.98	2759.49
416.17	2778.22
416.36	2794.60
416.55	2780.56
416.74	2944.39
416.93	2850.77
417.12	2846.09
417.31	2951.42
417.50	2918.65
417.69	2977.16
417.88	3056.74
418.07	3082.49
418.26	2967.80
418.45	3068.44
418.64	3087.17
418.83	3084.83
419.02	3021.63
419.21	3150.36
419.39	2963.12
419.58	3087.17
419.77	3054.40
419.96	3159.72
420.15	3199.51
420.34	3213.56
420.53	3262.71
420.72	3276.75
420.91	3253.34
421.10	3447.61
421.29	3353.99
421.48	3314.20
421.67	3412.50
421.86	3363.35
422.05	3258.03
422.24	3468.67
422.43	3463.99
422.61	3316.54
422.80	3361.01
422.99	3393.78
423.18	3552.93
423.37	3447.61
423.56	3536.55
423.75	3447.61
423.94	3349.31
424.13	3293.13
424.32	3407.82
424.50	3541.23
424.69	3597.40
424.88	3595.06
425.07	3414.84
425.26	3461.65
425.45	3503.78
425.64	3438.25
425.83	3440.59
426.01	3529.53
426.20	3585.70
426.39	3506.12
426.58	3407.82
426.77	3426.54
426.96	3499.10
427.15	3578.68
427.33	3723.79
427.52	3648.90
427.71	3655.92
427.90	3700.39
428.09	3751.88
428.28	3700.39
428.46	3775.28
428.65	3815.07
428.84	3934.44
429.03	3796.35
429.22	3688.68
429.40	3712.09
429.59	3768.26
429.78	3578.68
429.97	3510.80
430.16	3721.45
430.34	3695.71
430.53	3847.84
430.72	3894.65
430.91	3845.50
431.10	3850.18
431.28	3892.31
431.47	4011.68
431.66	4109.98
431.85	4009.34
432.03	3978.91
432.22	4105.30
432.41	4114.66
432.60	4189.56
432.79	4187.22
432.97	4201.26
433.16	4072.53
433.35	4121.68
433.54	4297.22
433.72	4170.83
433.91	4189.56
434.10	4280.84
434.28	4322.97
434.47	4341.69
434.66	4365.10
434.85	4325.31
435.03	4301.90
435.22	4322.97
435.41	4489.15
435.59	4425.95
435.78	4435.32
435.97	4702.14
436.16	4568.73
436.34	4521.92
436.53	4554.68
436.72	4617.88
436.90	4540.64
437.09	4528.94
437.28	4372.12
437.46	4669.37
437.65	4650.64
437.84	4620.22
438.02	4526.60
438.21	4627.24
438.40	4662.35
438.58	4772.35
438.77	4802.78
438.96	4985.34
439.14	4837.89
439.33	4980.66
439.52	5022.79
439.70	5046.20
439.89	5029.81
440.08	5022.79
440.26	5071.94
440.45	5123.43
440.63	5100.03
440.82	5343.44
441.01	5219.39
441.19	5308.34
441.38	5317.70
441.57	5273.23
441.75	5490.90
441.94	5549.41
442.12	5486.22
442.31	5621.97
442.50	5640.69
442.68	5472.17
442.87	5511.96
443.05	5565.79
443.24	5591.54
443.43	5603.24
443.61	5680.48
443.80	5881.77
443.98	5607.92
444.17	5509.62
444.35	5722.61
444.54	5631.33
444.73	5731.97
444.91	5638.35
445.10	5696.86
445.28	5628.99
445.47	5652.39
445.65	5811.55
445.84	5687.50
446.02	5741.33
446.21	5804.53
446.39	5837.30
446.58	5930.92
446.77	5905.17
446.95	5753.04
447.14	5783.46
447.32	5933.26
447.51	5823.25
447.69	5961.34
447.88	5874.74
448.06	5846.66
448.25	5912.19
448.43	5891.13
448.62	5928.58
448.80	5949.64
448.99	5856.02
449.17	5949.64
449.36	5975.39
449.54	6193.06
449.73	6207.10
449.91	6221.14
450.10	6174.33
450.28	6331.15
450.46	6270.30
450.65	6438.81
450.83	6382.64
451.02	6071.35
451.20	6363.92
451.39	6324.13
451.57	6293.70
451.76	6305.40
451.94	6478.60
452.13	6567.54
452.31	6424.77
452.49	6347.53
452.68	6356.90
452.86	6483.28
453.05	6443.49
453.23	6422.43
453.42	6352.21
453.60	6471.58
453.78	6590.95
453.97	6434.13
454.15	6459.88
454.34	6565.20
454.52	6677.55
454.70	6651.80
454.89	6487.96
455.07	6691.59
455.26	6672.87
455.44	6843.73
455.62	6684.57
455.81	6668.19
455.99	6977.14
456.17	6885.86
456.36	6867.13
456.54	6970.12
456.73	6991.18
456.91	7150.34
457.09	7297.79
457.28	7302.47
457.46	7105.87
457.64	7068.42
457.83	7162.04
458.01	7089.48
458.19	7438.22
458.38	7157.36
458.56	7316.51
458.74	7279.07
458.93	7293.11
459.11	7384.39
459.29	7375.03
459.48	7351.62
459.66	7541.21
459.84	7515.46
460.03	7506.10
460.21	7510.78
460.39	7676.96
460.57	7541.21
460.76	7630.15
460.94	7648.87
461.12	7520.14
461.31	7688.66
461.49	7775.26
461.67	7604.40
461.85	7793.98
462.04	7875.90
462.22	8189.53
462.40	7892.29
462.59	7948.46
462.77	7840.79
462.95	7934.42
463.13	7817.39
463.32	7990.59
463.50	7889.95
463.68	7810.37
463.86	7974.21
464.05	7859.52
464.23	8028.04
464.41	8021.02
464.59	8060.80
464.78	8215.28
464.96	8074.85
465.14	8009.31
465.32	8154.43
465.50	8236.35
465.69	8194.22
465.87	8297.20
466.05	8278.47
466.23	8074.85
466.41	8245.71
466.60	8271.45
466.78	8119.32
466.96	8063.15
467.14	8393.16
467.32	8376.78
467.51	8587.43
467.69	8318.26
467.87	8456.36
468.05	8414.23
468.23	8491.46
468.41	8411.89
468.60	8549.98
468.78	8697.43
468.96	8397.84
469.14	8477.42
469.32	8599.13
469.50	8648.28
469.69	8641.26
469.87	8477.42
470.05	8872.97
470.23	8809.78
470.41	8779.35
470.59	8823.82
470.77	8812.12
470.95	8777.01
471.14	8982.98
471.32	9090.64
471.50	9100.00
471.68	8950.21
471.86	9277.88
472.04	9322.35
472.22	9392.57
472.40	9296.61
472.58	9254.48
472.77	9369.16
472.95	9343.42
473.13	9558.75
473.31	9479.17
473.49	9392.57
473.67	9469.81
473.85	9500.23
474.03	9907.49
474.21	9680.46
474.39	9860.68
474.57	9947.28
474.75	9893.44
474.93	9881.74
475.12	9921.53
475.30	10024.51
475.48	9977.70
475.66	10284.31
475.84	9975.36
476.02	10195.37
476.20	10176.65
476.38	10511.35
476.56	10642.42
476.74	10663.48
476.92	10614.33
477.10	10361.55
477.28	10892.85
477.46	10773.49
477.64	10860.09
477.82	10853.06
478.00	11335.21
478.18	11054.35
478.36	11133.93
478.54	11283.72
478.72	11424.15
478.90	11641.82
479.08	11602.04
479.26	11850.13
479.44	11667.57
479.62	11840.77
479.80	11960.14
479.98	11843.11
480.16	12208.23
480.34	12070.14
480.52	12184.83
480.70	12343.99
480.88	12070.14
481.06	12187.17
481.24	12248.02
481.41	12695.07
481.59	12901.03
481.77	12966.57
481.95	13128.06
482.13	13137.43
482.31	13111.68
482.49	13219.35
482.67	13357.44
482.85	13336.37
483.03	13720.22
483.21	13809.16
483.39	13879.38
483.57	13764.69
483.74	14111.09
483.92	13987.04
484.10	14150.88
484.28	14221.10
484.46	14534.73
484.64	14670.48
484.82	14490.26
485.00	14642.39
485.18	14883.47
485.35	15005.17
485.53	14431.74
485.71	14754.74
485.89	15138.58
486.07	15084.75
486.25	15159.65
486.43	15400.72
486.61	15410.09
486.78	15763.51
486.96	15524.77
487.14	15908.62
487.32	16051.39
487.50	16460.99
487.68	16486.73
487.85	16535.88
488.03	16800.37
488.21	16744.19
488.39	16484.39
488.57	16772.28
488.75	17151.45
488.92	17083.57
489.10	17422.95
489.28	17322.30
489.46	17692.11
489.64	17867.65
489.81	18270.22
489.99	18251.50
490.17	18310.01
490.35	18523.00
490.53	18794.50
490.70	18555.77
490.88	18272.56
491.06	18703.22
491.24	18719.60
491.41	18916.21
491.59	18796.84
491.77	19066.00
491.95	19234.52
492.13	19428.79
492.30	19531.77
492.48	19749.44
492.66	19637.09
492.84	19702.63
493.01	19922.64
493.19	20240.95
493.37	20229.25
493.54	20334.57
493.72	20365.00
493.90	20627.14
494.08	20837.79
494.25	20961.84
494.43	20989.92
494.61	21298.88
494.79	21062.48
494.96	21170.15
495.14	21008.65
495.32	21310.58
495.49	21666.34
495.67	21521.23
495.85	21921.46
496.02	21900.39
496.20	22164.87
496.38	22015.08
496.55	22012.74
496.73	22668.09
496.91	22111.04
497.09	22838.95
497.26	23051.94
497.44	22817.88
497.62	23246.20
497.79	23103.43
497.97	22944.27
498.14	23288.33
498.32	23281.31
498.50	23641.75
498.67	23634.73
498.85	23693.24
499.03	23798.57
499.20	23880.49
499.38	23922.62
499.56	24215.18
499.73	24137.94
499.91	24161.35
500.08	24198.80
500.26	24114.54
500.44	24423.49
500.61	24280.72
500.79	24641.16
500.97	24741.80
501.14	24905.64
501.32	24954.79
501.49	25003.94
501.67	25132.67
501.84	25277.79
502.02	25191.19
502.20	25392.47
502.37	25422.90
502.55	25350.34
502.72	25626.53
502.90	25415.88
503.07	25572.69
503.25	25933.14
503.43	25671.00
503.60	25933.14
503.78	25991.65
503.95	26001.01
504.13	26387.20
504.30	26078.25
504.48	26134.42
504.65	26249.11
504.83	26665.72
505.01	26796.79
505.18	26841.26
505.36	26925.52
505.53	26899.78
505.71	26888.07
505.88	26981.70
506.06	26855.31
506.23	27199.37
506.41	26991.06
506.58	27391.29
506.76	27309.37
506.93	27651.09
507.11	27606.62
507.28	27674.49
507.46	27943.66
507.63	27714.28
507.81	27868.76
507.98	27971.74
508.16	27828.97
508.33	27840.67
508.50	28346.23
508.68	28367.29
508.85	28418.78
509.03	28453.89
509.20	28701.99
509.38	28772.21
509.55	28821.36
509.73	28526.45
509.90	28987.53
510.08	28683.27
510.25	28865.83
510.42	29193.50
510.60	29294.14
510.77	29303.51
510.95	29675.65
511.12	29411.17
511.30	29579.69
511.47	29436.92
511.64	29825.45
511.82	29685.01
511.99	29830.13
512.17	29635.86
512.34	29860.55
512.51	30125.04
512.69	30192.91
512.86	30136.74
513.04	30375.47
513.21	30562.72
513.38	30520.59
513.56	30242.06
513.73	30483.14
513.90	30731.23
514.08	30511.22
514.25	30771.02
514.43	31098.70
514.60	30768.68
514.77	30787.41
514.95	31197.00
515.12	31063.59
515.29	31115.08
515.47	31260.20
515.64	31487.23
515.81	31253.17
515.99	31365.52
516.16	31487.23
516.33	31122.10
516.51	31517.65
516.68	31108.06
516.85	31445.10
517.03	31468.50
517.20	32123.85
517.37	31817.24
517.54	31852.35
517.72	31850.01
517.89	31653.40
518.06	32126.19
518.24	32194.07
518.41	32308.76
518.58	32112.15
518.75	31866.39
518.93	32671.54
519.10	32126.19
519.27	32601.32
519.45	32196.41
519.62	32732.39
519.79	33078.79
519.96	32811.97
520.14	32987.51
520.31	32603.66
520.48	33132.62
520.65	33158.37
520.83	33467.32
521.00	33539.88
521.17	33315.19
521.34	33181.77
521.52	33797.34
521.69	33612.43
521.86	33827.76
522.03	33722.44
522.20	33666.27
522.38	33862.87
522.55	33769.25
522.72	33787.97
522.89	33921.38
523.07	34167.14
523.24	33958.83
523.41	34408.22
523.58	34405.88
523.75	34728.87
523.92	34623.54
524.10	34735.89
524.27	34642.27
524.44	34541.63
524.61	34586.10
524.78	35016.75
524.96	34866.96
525.13	34892.71
525.30	35150.17
525.47	35152.51
525.64	35005.05
525.81	35503.59
525.98	34934.84
526.16	35014.41
526.33	35023.78
526.50	35393.58
526.67	35133.78
526.84	35732.96
527.01	35470.82
527.18	35002.71
527.36	35566.78
527.53	35749.34
527.70	36187.02
527.87	35864.03
528.04	35896.80
528.21	36268.94
528.38	35828.92
528.55	36109.78
528.72	36051.27
528.89	35924.88
529.07	35594.87
529.24	35517.63
529.41	35910.84
529.58	35901.48
529.75	36715.98
529.92	36423.42
530.09	36507.68
530.26	36629.38
530.43	36758.11
530.60	36210.43
530.77	36463.21
530.94	37146.64
531.11	36687.90
531.28	36914.93
531.46	36811.95
531.63	37006.21
531.80	37074.09
531.97	36896.20
532.14	37036.64
532.31	37097.49
532.48	36973.44
532.65	37497.72
532.82	37434.53
532.99	37486.02
533.16	37378.36
533.33	37439.21
533.50	37352.61
533.67	37720.07
533.84	37048.34
534.01	37759.86
534.18	37490.70
534.35	37883.91
534.52	37743.48
534.69	38068.81
534.86	38092.22
535.03	37825.40
535.20	37837.10
535.37	38246.69
535.54	38604.80
535.71	37883.91
535.88	38345.00
536.05	38089.88
536.22	38412.87
536.38	38136.69
536.55	38024.34
536.72	38773.31
536.89	38227.97
537.06	38270.10
537.23	38543.94
537.40	38480.75
537.57	38476.07
537.74	38581.39
537.91	39122.05
538.08	38389.47
538.25	38396.49
538.42	38864.60
538.59	38780.34
538.75	38422.23
538.92	38616.50
539.09	39206.31
539.26	38700.76
539.43	38768.63
539.60	38803.74
539.77	38799.06
539.94	39026.09
540.11	38902.04
540.28	39070.56
540.44	38934.81
540.61	38911.41
540.78	38923.11
540.95	39159.50
541.12	39447.39
541.29	38857.57
541.46	39372.49
541.62	39674.42
541.79	39828.90
541.96	39044.82
542.13	39210.99
542.30	39393.56
542.47	39908.47
542.63	39395.90
542.80	39810.17
542.97	39791.45
543.14	40201.04
543.31	40191.68
543.48	40098.06
543.64	40788.52
543.81	40418.71
543.98	40627.02
544.15	40210.40
544.32	40650.42
544.48	40952.35
544.65	40388.28
544.82	40605.95
544.99	39864.00
545.16	40458.50
545.32	40355.52
545.49	40456.16
545.66	40737.02
545.83	40926.61
546.00	41326.84
546.16	41048.32
546.33	40776.81
546.50	40346.15
546.67	41048.32
546.83	40659.79
547.00	40973.42
547.17	40832.99
547.34	40804.90
547.50	41043.63
547.67	41092.79
547.84	41254.28
548.00	41446.21
548.17	41612.38
548.34	41118.53
548.51	41626.43
548.67	41277.69
548.84	41572.60
549.01	41387.69
549.18	41233.22
549.34	41537.49
549.51	41378.33
549.68	41776.22
549.84	41593.66
550.01	41799.63
550.18	41698.98
550.34	41511.74
550.51	41612.38
550.68	41790.27
550.84	41298.75
551.01	41579.62
551.18	41631.11
551.34	41500.04
551.51	41736.43
551.68	41970.49
551.84	42232.63
552.01	41883.89
552.18	42396.46
552.34	41813.67
552.51	42099.22
552.68	42281.78
552.84	41935.38
553.01	42719.46
553.18	42251.35
553.34	42174.11
553.51	41853.46
553.67	41563.23
553.84	42071.13
554.01	42384.76
554.17	42471.36
554.34	42417.53
554.51	42066.45
554.67	42555.62
554.84	42447.96
555.00	42768.61
555.17	42412.85
555.33	42417.53
555.50	42815.42
555.67	42733.50
555.83	42359.02
556.00	42721.80
556.16	42995.64
556.33	42731.16
556.50	42733.50
556.66	42862.23
556.83	42667.97
556.99	43070.54
557.16	43133.73
557.32	43051.81
557.49	43019.05
557.65	42684.35
557.82	43253.10
557.98	43002.66
558.15	43416.94
558.32	42775.63
558.48	43026.07
558.65	43461.41
558.81	42990.96
558.98	42829.46
559.14	43161.82
559.31	43316.29
559.47	43271.82
559.64	43674.40
559.80	43367.79
559.97	43030.75
560.13	42710.10
560.30	43145.44
560.46	43344.38
560.63	43576.09
560.79	43199.27
560.96	43470.77
561.12	43407.58
561.29	43217.99
561.45	43246.08
561.61	43217.99
561.78	43363.11
561.94	42869.25
562.11	43793.76
562.27	43386.51
562.44	43297.57
562.60	43714.19
562.77	43632.27
562.93	43222.67
563.10	43686.10
563.26	43140.75
563.42	43508.22
563.59	43402.89
563.75	43416.94
563.92	43578.43
564.08	44072.29
564.24	44091.01
564.41	43714.19
564.57	43964.62
564.74	43917.81
564.90	43908.45
565.07	44079.31
565.23	44081.65
565.39	43536.30
565.56	43548.01
565.72	43510.56
565.88	43533.96
566.05	43845.26
566.21	44088.67
566.38	43643.97
566.54	44093.35
566.70	43962.28
566.87	44296.98
567.03	43777.38
567.19	44322.72
567.36	43791.42
567.52	44016.11
567.68	44018.46
567.85	44123.78
568.01	44119.10
568.17	43988.03
568.34	44397.62
568.50	44037.18
568.66	43917.81
568.83	43983.35
568.99	43824.19
569.15	44013.77
569.32	43824.19
569.48	43828.87
569.64	43962.28
569.81	43826.53
569.97	44179.95
570.13	44713.59
570.30	43625.25
570.46	43721.21
570.62	43845.26
570.78	43931.86
570.95	44072.29
571.11	44179.95
571.27	43885.04
571.43	44144.84
571.60	44163.57
571.76	44318.04
571.92	44074.63
572.09	43920.15
572.25	43856.96
572.41	44002.07
572.57	44144.84
572.74	44519.33
572.90	44699.55
573.06	44184.63
573.22	44114.42
573.38	44210.38
573.55	44280.60
573.71	43973.98
573.87	44278.25
574.03	44016.11
574.20	44048.88
574.36	44402.30
574.52	44308.68
574.68	44383.58
574.84	44105.06
575.01	44591.89
575.17	44451.45
575.33	44289.96
575.49	44289.96
575.65	44306.34
575.82	44898.50
575.98	44126.12
576.14	44882.11
576.30	44285.28
576.46	44067.61
576.62	44116.76
576.79	44128.46
576.95	44067.61
577.11	44219.74
577.27	44442.09
577.43	44685.51
577.59	44196.34
577.75	44182.29
577.92	44280.60
578.08	43964.62
578.24	44339.11
578.40	44336.77
578.56	44299.32
578.72	44093.35
578.88	44650.40
579.04	44488.90
579.21	44737.00
579.37	44315.70
579.53	44135.48
579.69	43833.55
579.85	44591.89
580.01	44308.68
580.17	44486.56
580.33	44737.00
580.49	44486.56
580.65	44788.49
580.82	44601.25
580.98	44172.93
581.14	44062.93
581.30	44713.59
581.46	44437.41
581.62	44641.04
581.78	44336.77
581.94	44631.68
582.10	44559.12
582.26	44858.71
582.42	44526.35
582.58	44601.25
582.74	44102.71
582.90	44425.71
583.06	44671.46
583.22	45020.20
583.38	44776.79
583.54	44360.17
583.70	44598.91
583.86	44591.89
584.02	44304.00
584.18	44418.69
584.34	44566.14
584.50	44650.40
584.66	44655.08
584.82	44294.64
584.98	45270.64
585.14	44343.79
585.30	44594.23
585.46	44641.04
585.62	44130.80
585.78	44563.80
585.94	44137.82
586.10	44418.69
586.26	44107.40
586.42	44271.23
586.58	44615.29
586.74	44839.98
586.90	44062.93
587.06	44598.91
587.22	44222.08
587.38	44470.18
587.54	44811.90
587.70	44573.16
587.86	44509.97
588.02	44762.75
588.18	45029.57
588.34	44755.72
588.49	44362.51
588.65	44374.22
588.81	44334.43
588.97	44219.74
589.13	44774.45
589.29	44715.93
589.45	44439.75
589.61	44451.45
589.77	44788.49
589.93	44549.76
590.08	44634.02
590.24	45305.75
590.40	44996.80
590.56	44889.13
590.72	44870.41
590.88	44362.51
591.04	44804.88
591.20	45153.62
591.35	44982.76
591.51	44942.97
591.67	44746.36
591.83	44769.77
591.99	44900.84
592.15	44699.55
592.31	44807.22
592.46	44699.55
592.62	44409.32
592.78	44535.71
592.94	44722.96
593.10	44737.00
593.26	45074.04
593.41	44961.69
593.57	44856.37
593.73	44884.45
593.89	44816.58
594.05	44425.71
594.20	44657.42
594.36	45050.63
594.52	44568.48
594.68	44828.28
594.84	45052.97
594.99	45205.11
595.15	44804.88
595.31	45029.57
595.47	45165.32
595.62	44994.46
595.78	45216.81
595.94	45502.35
596.10	45219.15
596.25	45125.53
596.41	44706.57
596.57	44383.58
596.73	44940.63
596.88	44554.44
597.04	44872.75
597.20	44954.67
597.36	44907.86
597.51	45137.23
597.67	44921.90
597.83	45078.72
597.99	45062.33
598.14	44884.45
598.30	44769.77
598.46	44713.59
598.61	45097.44
598.77	44779.13
598.93	44924.24
599.09	44734.66
599.24	45544.48
599.40	45221.49
599.56	45139.57
599.71	45148.93
599.87	45120.85
600.03	44818.92
600.18	44814.24
600.34	45057.65
600.50	44994.46
600.65	44706.57
600.81	45205.11
600.97	45390.01
601.12	45464.91
601.28	45254.26
601.44	44907.86
601.59	45116.17
601.75	44491.24
601.91	45050.63
602.06	45233.19
602.22	44781.47
602.37	45172.34
602.53	44893.82
602.69	45148.93
602.84	45031.91
603.00	44884.45
603.16	45193.40
603.31	44804.88
603.47	44783.81
603.62	44341.45
603.78	44900.84
603.94	44849.35
604.09	45008.50
604.25	45038.93
604.40	44987.44
604.56	45027.23
604.71	44961.69
604.87	44605.93
605.03	45074.04
605.18	45071.70
605.34	44964.03
605.49	44301.66
605.65	44540.39
605.80	45282.34
605.96	45139.57
606.12	44837.64
606.27	45055.31
606.43	44336.77
606.58	45095.10
606.74	44870.41
606.89	44851.69
607.05	44964.03
607.20	45031.91
607.36	44505.29
607.51	45502.35
607.67	45137.23
607.82	45137.23
607.98	44734.66
608.13	44332.09
608.29	44540.39
608.44	44701.89
608.60	44605.93
608.75	44570.82
608.91	44765.09
609.06	44676.15
609.22	44755.72
609.37	44486.56
609.53	44364.85
609.68	44720.62
609.84	44601.25
609.99	44980.42
610.15	44404.64
610.30	44399.96
610.46	44409.32
610.61	44603.59
610.76	44821.26
610.92	44456.14
611.07	44568.48
611.23	44102.71
611.38	44126.12
611.54	44268.89
611.69	44177.61
611.84	44531.03
612.00	44062.93
612.15	44002.07
612.31	44652.74
612.46	44432.73
612.62	43866.32
612.77	44406.98
612.92	44453.79
613.08	44282.94
613.23	44046.54
613.39	44158.89
613.54	44126.12
613.69	43826.53
613.85	44037.18
614.00	44154.21
614.15	44168.25
614.31	44456.14
614.46	44369.54
614.62	44285.28
614.77	44175.27
614.92	43901.43
615.08	43768.02
615.23	43934.20
615.38	43693.12
615.54	43377.15
615.69	44121.44
615.84	43257.78
616.00	43861.64
616.15	43543.33
616.30	44271.23
616.46	43590.14
616.61	43512.90
616.76	43852.28
616.92	43278.85
617.07	43435.66
617.22	43683.76
617.37	42878.61
617.53	43526.94
617.68	43606.52
617.83	43536.30
617.99	43641.63
618.14	43606.52
618.29	43686.10
618.45	43145.44
618.60	43639.29
618.75	43648.65
618.90	43585.46
619.06	43569.07
619.21	43749.29
619.36	43810.15
619.51	43290.55
619.67	43033.09
619.82	43414.60
619.97	43363.11
620.12	43175.86
620.28	43178.20
620.43	43023.73
620.58	42948.83
620.73	43047.13
620.89	43180.54
621.04	43328.00
621.19	42616.47
621.34	42885.64
621.49	42717.12
621.65	42944.15
621.80	43005.00
621.95	42831.80
622.10	42803.72
622.25	43047.13
622.41	42752.23
622.56	42698.39
622.71	43075.22
622.86	43009.68
623.01	42665.63
623.16	42700.73
623.32	42962.87
623.47	42499.45
623.62	42703.07
623.77	42637.54
623.92	42649.24
624.07	42438.59
624.23	42347.31
624.38	42160.07
624.53	42536.90
624.68	42480.72
624.83	42834.14
624.98	42576.69
625.13	42412.85
625.29	42349.65
625.44	42576.69
625.59	42148.37
625.74	41989.21
625.89	42270.08
626.04	42267.73
626.19	42206.88
626.34	42520.51
626.49	42157.73
626.65	41816.01
626.80	42462.00
626.95	41872.18
627.10	42555.62
627.25	41933.04
627.40	42021.98
627.55	41453.23
627.70	41528.13
627.85	41488.34
628.00	41984.53
628.15	42082.83
628.30	42080.49
628.45	42309.86
628.60	41776.22
628.76	42085.17
628.91	42225.60
629.06	41851.12
629.21	41610.04
629.36	41916.65
629.51	41406.42
629.66	41392.37
629.81	41783.24
629.96	41474.29
630.11	41481.31
630.26	41656.85
630.41	41509.40
630.56	41687.28
630.71	41713.03
630.86	41455.57
631.01	41937.72
631.16	41478.97
631.31	41017.89
631.46	41273.01
631.61	41118.53
631.76	41628.77
631.91	41364.29
632.06	41280.03
632.21	41460.25
632.36	41378.33
632.51	41565.57
632.66	41567.91
632.81	40851.71
632.96	40980.44
633.10	40430.41
633.25	41076.40
633.40	41034.27
633.55	41631.11
633.70	41071.72
633.85	40477.22
634.00	40835.33
634.15	41305.77
634.30	40238.49
634.45	40727.66
634.60	40732.34
634.75	40634.04
634.90	40758.09
635.05	40914.90
635.19	40884.48
635.34	41177.04
635.49	40931.29
635.64	40203.38
635.79	40311.05
635.94	40327.43
636.09	40252.53
636.24	40147.21
636.39	40055.93
636.53	40311.05
636.68	40493.61
636.83	40470.20
636.98	40664.47
637.13	40224.45
637.28	40533.40
637.43	40631.70
637.57	40486.59
637.72	40488.93
637.87	40198.70
638.02	40020.82
638.17	39915.50
638.32	39681.44
638.46	39950.60
638.61	39875.71
638.76	39840.60
638.91	39983.37
639.06	39693.15
639.20	40009.12
639.35	40222.11
639.50	40100.40
639.65	39852.30
639.80	39922.52
639.94	39824.22
640.09	39543.35
640.24	39964.65
640.39	39716.55
640.54	39536.33
640.68	39892.09
640.83	39693.15
640.98	39512.92
641.13	39283.55
641.27	39988.05
641.42	39384.19
641.57	39826.56
641.72	39679.10
641.86	39089.29
642.01	39491.86
642.16	39344.41
642.31	38923.11
642.45	39835.92
642.60	39459.09
642.75	39065.88
642.90	39271.85
643.04	39271.85
643.19	39615.91
643.34	38988.64
643.48	39412.28
643.63	39119.71
643.78	38850.55
643.93	38967.58
644.07	38810.76
644.22	39147.80
644.37	38930.13
644.51	38644.59
644.66	39278.87
644.81	39281.21
644.95	39241.42
645.10	39014.39
645.25	39297.59
645.39	39339.72
645.54	39178.23
645.69	38773.31
645.83	38752.25
645.98	38567.35
646.13	38770.97
646.27	39309.30
646.42	39026.09
646.57	38841.19
646.71	38974.60
646.86	39150.14
647.00	39232.06
647.15	38862.26
647.30	38532.24
647.44	38785.02
647.59	38590.75
647.74	38639.90
647.88	38532.24
648.03	38513.52
648.17	38270.10
648.32	38260.74
648.47	38225.63
648.61	38349.68
648.76	38679.69
648.90	38565.01
649.05	38352.02
649.20	38520.54
649.34	38132.01
649.49	38504.15
649.63	38012.64
649.78	38410.53
649.92	38312.23
650.07	38522.88
650.21	37694.33
650.36	38387.13
650.51	38291.16
650.65	38607.14
650.80	38106.26
650.94	38213.93
651.09	38094.56
651.23	38288.82
651.38	37865.19
651.52	37926.04
651.67	37769.22
651.81	38110.94
651.96	37811.35
652.10	37837.10
652.25	37797.31
652.39	37368.99
652.54	37993.92
652.68	37778.59
652.83	37397.08
652.97	38017.32
653.12	37504.74
653.26	37780.93
653.41	37963.49
653.55	37326.86
653.70	37577.30
653.84	37926.04
653.99	37895.61
654.13	37591.34
654.27	37488.36
654.42	37656.88
654.56	37139.62
654.71	37493.04
654.85	37940.08
655.00	37326.86
655.14	37266.01
655.29	37284.73
655.43	36842.37
655.57	36748.75
655.72	36861.10
655.86	36931.31
656.01	36882.16
656.15	36933.65
656.30	36903.23
656.44	36905.57
656.58	36833.01
656.73	36645.77
656.87	37146.64
657.01	36627.04
657.16	36940.68
657.30	36641.09
657.45	36741.73
657.59	36713.64
657.73	36268.94
657.88	36767.48
658.02	36589.59
658.16	36685.56
658.31	36568.53
658.45	37050.68
658.60	36957.06
658.74	36744.07
658.88	36837.69
659.03	36294.69
659.17	36151.91
659.31	36355.54
659.46	36053.61
659.60	36238.51
659.74	35938.93
659.89	35974.03
660.03	36130.85
660.17	36510.02
660.32	36261.92
660.46	36364.90
660.60	36336.82
660.74	35985.74
660.89	35955.31
661.03	36116.81
661.17	36416.40
661.32	35660.40
661.46	35651.04
661.60	35763.39
661.74	35454.44
661.89	35667.42
662.03	35534.01
662.17	35480.18
662.31	35669.76
662.46	35295.28
662.60	35618.27
662.74	35742.32
662.88	35400.60
663.03	35016.75
663.17	35496.56
663.31	35021.44
663.45	35482.52
663.60	35199.32
663.74	34808.45
663.88	35049.52
664.02	35103.35
664.17	34822.49
664.31	34822.49
664.45	34405.88
664.59	34967.60
664.73	34810.79
664.88	34684.40
665.02	34504.18
665.16	34518.22
665.30	34110.97
665.44	34668.02
665.59	34443.32
665.73	34061.82
665.87	34146.08
666.01	34157.78
666.15	33921.38
666.29	33989.26
666.44	34457.37
666.58	33755.21
666.72	34146.08
666.86	34029.05
667.00	34078.20
667.14	34094.58
667.28	33490.73
667.43	33528.17
667.57	33596.05
667.71	33467.32
667.85	33748.18
667.99	33638.18
668.13	33413.49
668.27	33029.64
668.41	33436.89
668.56	33188.80
668.70	33380.72
668.84	33090.49
668.98	33184.12
669.12	33013.26
669.26	33153.69
669.40	33167.73
669.54	33067.09
669.68	33083.47
669.82	32500.68
669.96	32491.32
670.10	32765.16
670.25	33146.67
670.39	32858.78
670.53	32542.81
670.67	33076.45
670.81	32678.56
670.95	32435.14
671.09	32542.81
671.23	32311.10
671.37	32879.85
671.51	32554.51
671.65	31962.36
671.79	31737.66
671.93	32072.36
672.07	32283.01
672.21	31974.06
672.35	31964.70
672.49	31835.97
672.63	32151.94
672.77	31632.34
672.91	31587.87
673.05	31295.30
673.19	31250.83
673.33	31374.88
673.47	31084.65
673.61	31171.25
673.75	31248.49
673.89	31129.12
674.03	30684.42
674.17	30988.69
674.31	30841.24
674.45	30927.84
674.59	31089.34
674.73	30785.07
674.87	30525.27
675.01	31005.08
675.15	30721.87
675.29	30637.61
675.43	30724.21
675.56	30565.06
675.70	30562.72
675.84	30216.32
675.98	29247.33
676.12	29998.65
676.26	29645.23
676.40	29551.60
676.54	29825.45
676.68	29706.08
676.82	29127.97
676.96	29460.32
677.10	29310.53
677.23	29120.95
677.37	29415.85
677.51	29127.97
677.65	29090.52
677.79	28781.57
677.93	28830.72
678.07	28617.73
678.21	28828.38
678.34	28315.80
678.48	28397.72
678.62	28416.44
678.76	28556.88
678.90	28444.53
679.04	28184.73
679.18	28580.28
679.31	27875.78
679.45	28056.00
679.59	27852.38
679.73	27962.38
679.87	27810.25
680.00	27597.26
680.14	27543.42
680.28	27599.60
680.42	27391.29
680.56	27590.24
680.70	27150.21
680.83	27136.17
680.97	27300.01
681.11	27101.06
681.25	26960.63
681.39	26501.89
681.52	26895.10
681.66	27014.46
681.80	26703.17
681.94	26724.24
682.07	26525.29
682.21	26206.98
682.35	26431.67
682.49	26462.10
682.62	26473.80
682.76	26218.68
682.90	25659.29
683.04	25874.62
683.17	25699.08
683.31	25738.87
683.45	25942.50
683.59	25759.94
683.72	25364.39
683.86	25296.51
684.00	25006.28
684.13	25132.67
684.27	25277.79
684.41	25212.25
684.55	24519.45
684.68	24570.94
684.82	24512.43
684.96	24872.87
685.09	24577.97
685.23	24519.45
685.37	24793.29
685.50	24379.02
685.64	24294.76
685.78	24339.23
685.91	24339.23
686.05	24009.22
686.19	23353.87
686.32	23896.87
686.46	23662.82
686.60	23440.47
686.73	23641.75
686.87	23452.17
687.01	23349.18
687.14	22899.80
687.28	23452.17
687.42	23339.82
687.55	22742.99
687.69	22831.93
687.82	22822.56
687.96	22724.26
688.10	22471.48
688.23	22534.68
688.37	22537.02
688.50	22085.30
688.64	22457.44
688.78	22279.56
688.91	22185.94
689.05	22211.68
689.18	22059.55
689.32	21706.13
689.46	21989.33
689.59	22279.56
689.73	21975.29
689.86	21544.63
690.00	21774.00
690.13	21933.16
690.27	21778.68
690.41	21376.11
690.54	21113.97
690.68	21226.32
690.81	21153.76
690.95	20959.50
691.08	20861.19
691.22	20893.96
691.35	20872.90
691.49	20865.88
691.62	20695.02
691.76	20624.80
691.89	20484.37
692.03	20650.55
692.16	20098.18
692.30	20519.48
692.43	20189.46
692.57	19908.60
692.70	19978.81
692.84	19697.95
692.97	19793.91
693.11	19616.03
693.24	19592.62
693.38	19597.31
693.51	19506.02
693.65	19590.28
693.78	19786.89
693.92	19557.52
694.05	19185.37
694.19	19314.10
694.32	19314.10
694.45	18981.74
694.59	19000.47
694.72	18972.38
694.86	18902.17
694.99	18705.56
695.13	18827.27
695.26	18644.71
695.39	18417.68
695.53	18178.94
695.66	18307.67
695.80	18141.49
695.93	18265.54
696.07	18050.21
696.20	18031.49
696.33	17994.04
696.47	17593.81
696.60	17853.61
696.73	17659.34
696.87	17493.16
697.00	17544.66
697.14	17539.97
697.27	17846.58
697.40	17420.61
697.54	17504.87
697.67	17425.29
697.80	17635.94
697.94	17048.46
698.07	17139.74
698.21	17099.95
698.34	17184.21
698.47	16891.65
698.61	16652.91
698.74	16575.67
698.87	16875.26
699.01	16358.00
699.14	16477.37
699.27	16222.25
699.40	16257.36
699.54	16027.99
699.67	16297.15
699.80	15585.63
699.94	15999.90
700.07	16081.82
700.20	16222.25
700.34	15716.70
700.47	15840.75
700.60	15971.82
700.73	15969.48
700.87	15786.91
701.00	15735.42
701.13	15384.34
701.26	15473.28
701.40	15393.70
701.53	15286.04
701.66	15316.47
701.79	15178.37
701.93	15122.20
702.06	15199.44
702.19	15047.30
702.32	14911.55
702.46	14885.81
702.59	14696.22
702.72	14670.48
702.85	14757.08
702.99	14600.26
703.12	14665.80
703.25	14642.39
703.38	14656.43
703.51	14464.51
703.65	14143.86
703.78	13998.74
703.91	14146.20
704.04	14169.60
704.17	14155.56
704.31	13699.16
704.44	13834.91
704.57	13624.26
704.70	13390.20
704.83	13710.86
704.96	13547.02
705.10	13661.71
705.23	13944.91
>>>>>End Processed Spectral Data<<<<<
