SpectraSuite Data File
++++++++++++++++++++++++++++++++++++
Date: Fri Oct 25 10:44:40 EDT 2013
User: price-jones
Dark Spectrum Present: No
Reference Spectrum Present: No
Number of Sampled Component Spectra: 1
Spectrometers: USB2+H05261
Integration Time (usec): 100000 (USB2+H05261)
Spectra Averaged: 1 (USB2+H05261)
Boxcar Smoothing: 0 (USB2+H05261)
Correct for Electrical Dark: No (USB2+H05261)
Strobe/Lamp Enabled: No (USB2+H05261)
Correct for Detector Non-linearity: No (USB2+H05261)
Correct for Stray Light: No (USB2+H05261)
Number of Pixels in Processed Spectrum: 2048
>>>>>Begin Processed Spectral Data<<<<<
365.73	119.37
365.92	119.37
366.12	119.37
366.32	65.54
366.52	44.47
366.72	74.90
366.91	102.98
367.11	49.15
367.31	25.75
367.51	70.22
367.70	21.06
367.90	42.13
368.10	18.72
368.30	81.92
368.49	77.24
368.69	11.70
368.89	11.70
369.09	100.64
369.28	58.51
369.48	114.69
369.68	51.49
369.87	30.43
370.07	58.51
370.27	95.96
370.47	212.99
370.66	344.06
370.86	353.42
371.06	458.74
371.25	447.04
371.45	386.19
371.65	414.27
371.84	400.23
372.04	414.27
372.24	505.56
372.44	491.51
372.63	437.68
372.83	468.11
373.03	463.43
373.22	475.13
373.42	440.02
373.62	468.11
373.81	545.34
374.01	498.53
374.21	559.39
374.40	503.22
374.60	543.00
374.79	500.87
374.99	514.92
375.19	568.75
375.38	503.22
375.58	617.90
375.78	557.05
375.97	472.79
376.17	592.16
376.37	517.26
376.56	538.32
376.76	636.63
376.95	594.50
377.15	521.94
377.35	566.41
377.54	599.18
377.74	585.13
377.93	554.71
378.13	571.09
378.33	594.50
378.52	601.52
378.72	631.94
378.91	571.09
379.11	636.63
379.31	547.69
379.50	554.71
379.70	627.26
379.89	664.71
380.09	559.39
380.28	620.24
380.48	674.07
380.68	613.22
380.87	589.82
381.07	678.76
381.26	674.07
381.46	716.20
381.65	711.52
381.85	643.65
382.04	697.48
382.24	664.71
382.43	669.39
382.63	582.79
382.83	636.63
383.02	753.65
383.22	688.12
383.41	653.01
383.61	671.73
383.80	758.33
384.00	671.73
384.19	692.80
384.39	718.54
384.58	725.57
384.78	681.10
384.97	725.57
385.17	688.12
385.36	683.44
385.56	669.39
385.75	765.36
385.95	856.64
386.14	781.74
386.34	840.25
386.53	772.38
386.72	777.06
386.92	711.52
387.11	674.07
387.31	819.19
387.50	744.29
387.70	816.85
387.89	873.02
388.09	816.85
388.28	830.89
388.48	784.08
388.67	833.23
388.86	837.91
389.06	917.49
389.25	943.24
389.45	847.27
389.64	851.96
389.84	912.81
390.03	863.66
390.22	966.64
390.42	830.89
390.61	936.21
390.81	880.04
391.00	940.90
391.19	931.53
391.39	915.15
391.58	961.96
391.78	961.96
391.97	952.60
392.16	943.24
392.36	1046.22
392.55	950.26
392.75	1011.11
392.94	919.83
393.13	1004.09
393.33	987.71
393.52	922.17
393.71	994.73
393.91	1011.11
394.10	1043.88
394.29	1074.31
394.49	1069.62
394.68	1083.67
394.88	1039.20
395.07	1165.59
395.26	1032.18
395.46	1074.31
395.65	1109.41
395.84	1100.05
396.04	1247.51
396.23	1114.10
396.42	1008.77
396.62	1069.62
396.81	1083.67
397.00	1111.75
397.19	1266.23
397.39	1256.87
397.58	1268.57
397.77	1247.51
397.97	1268.57
398.16	1228.78
398.35	1273.25
398.55	1245.16
398.74	1224.10
398.93	1364.53
399.12	1308.36
399.32	1364.53
399.51	1418.36
399.70	1383.26
399.90	1348.15
400.09	1380.92
400.28	1420.71
400.47	1432.41
400.67	1490.92
400.86	1509.65
401.05	1427.73
401.24	1404.32
401.44	1448.79
401.63	1535.39
401.82	1507.30
402.01	1460.49
402.21	1406.66
402.40	1455.81
402.59	1610.29
402.78	1481.56
402.97	1519.01
403.17	1554.12
403.36	1537.73
403.55	1629.01
403.74	1603.27
403.93	1755.40
404.13	1640.72
404.32	1603.27
404.51	1685.19
404.70	1645.40
404.89	1647.74
405.09	1739.02
405.28	1720.29
405.47	1710.93
405.66	1729.66
405.85	1739.02
406.05	1753.06
406.24	1827.96
406.43	1746.04
406.62	1785.83
406.81	1923.92
407.00	1753.06
407.20	1823.28
407.39	1746.04
407.58	1867.75
407.77	1961.37
407.96	1900.52
408.15	1928.60
408.34	1893.49
408.54	1916.90
408.73	2078.40
408.92	2029.24
409.11	2087.76
409.30	1989.46
409.49	1987.11
409.68	2078.40
409.87	1998.82
410.07	2090.10
410.26	2118.18
410.45	2064.35
410.64	2078.40
410.83	2181.38
411.02	2328.83
411.21	2230.53
411.40	2193.08
411.59	2270.32
411.78	2382.67
411.98	2289.04
412.17	2340.54
412.36	2312.45
412.55	2340.54
412.74	2429.48
412.93	2338.20
413.12	2469.27
413.31	2635.44
413.50	2457.56
413.69	2553.52
413.88	2656.51
414.07	2576.93
414.26	2597.99
414.45	2558.21
414.64	2605.02
414.83	2558.21
415.02	2506.71
415.22	2700.98
415.41	2754.81
415.60	2700.98
415.79	2745.45
415.98	2864.82
416.17	2883.54
416.36	2911.63
416.55	2899.92
416.74	2876.52
416.93	2829.71
417.12	2913.97
417.31	2963.12
417.50	3038.02
417.69	3014.61
417.88	3012.27
418.07	2913.97
418.26	2993.55
418.45	3096.53
418.64	3112.91
418.83	3194.83
419.02	3035.67
419.21	3176.11
419.39	3220.58
419.58	3150.36
419.77	3145.68
419.96	3293.13
420.15	3318.88
420.34	3300.16
420.53	3316.54
420.72	3440.59
420.91	3304.84
421.10	3344.63
421.29	3346.97
421.48	3421.86
421.67	3487.40
421.86	3466.33
422.05	3403.14
422.24	3445.27
422.43	3433.57
422.61	3445.27
422.80	3485.06
422.99	3471.01
423.18	3370.37
423.37	3571.66
423.56	3461.65
423.75	3468.67
423.94	3468.67
424.13	3368.03
424.32	3386.76
424.50	3583.36
424.69	3641.87
424.88	3658.26
425.07	3478.04
425.26	3548.25
425.45	3515.48
425.64	3419.52
425.83	3496.76
426.01	3609.11
426.20	3592.72
426.39	3552.93
426.58	3604.42
426.77	3590.38
426.96	3576.34
427.15	3538.89
427.33	3655.92
427.52	3599.74
427.71	3709.75
427.90	3691.02
428.09	3742.52
428.28	3840.82
428.46	3761.24
428.65	3864.22
428.84	3960.19
429.03	3988.27
429.22	3744.86
429.40	3782.31
429.59	3651.24
429.78	3634.85
429.97	3566.98
430.16	3684.00
430.34	3857.20
430.53	3908.69
430.72	3969.55
430.91	3815.07
431.10	3892.31
431.28	4112.32
431.47	3992.95
431.66	4079.55
431.85	4161.47
432.03	4126.36
432.22	4250.41
432.41	4102.96
432.60	4273.82
432.79	4173.18
432.97	4194.24
433.16	4248.07
433.35	4250.41
433.54	4313.61
433.72	4170.83
433.91	4402.55
434.10	4252.75
434.28	4273.82
434.47	4299.56
434.66	4435.32
434.85	4400.21
435.03	4458.72
435.22	4311.27
435.41	4437.66
435.59	4573.41
435.78	4479.79
435.97	4589.79
436.16	4437.66
436.34	4486.81
436.53	4690.43
436.72	4774.69
436.90	4358.08
437.09	4521.92
437.28	4550.00
437.46	4631.92
437.65	4720.86
437.84	4695.11
438.02	4667.03
438.21	4819.16
438.40	4533.62
438.58	4863.63
438.77	4884.70
438.96	4950.23
439.14	4987.68
439.33	4901.08
439.52	4901.08
439.70	5207.69
439.89	5114.07
440.08	5018.11
440.26	5107.05
440.45	5153.86
440.63	5104.71
440.82	5296.63
441.01	5322.38
441.19	5430.04
441.38	5416.00
441.57	5366.85
441.75	5476.85
441.94	5753.04
442.12	5535.37
442.31	5614.95
442.50	5575.16
442.68	5586.86
442.87	5584.52
443.05	5816.23
443.24	5774.10
443.43	5781.12
443.61	5809.21
443.80	5825.59
443.98	5703.89
444.17	5600.90
444.35	5771.76
444.54	5949.64
444.73	5951.98
444.91	5893.47
445.10	5888.79
445.28	5746.02
445.47	5612.60
445.65	5722.61
445.84	5860.70
446.02	6033.90
446.21	6022.20
446.39	5818.57
446.58	5832.62
446.77	5781.12
446.95	5877.09
447.14	5966.03
447.32	5984.75
447.51	5867.72
447.69	5907.51
447.88	5813.89
448.06	5923.90
448.25	5989.43
448.43	6143.91
448.62	5921.56
448.80	5921.56
448.99	5994.11
449.17	5970.71
449.36	6069.01
449.54	6183.70
449.73	6211.78
449.91	6546.48
450.10	6272.64
450.28	6335.83
450.46	6258.59
450.65	6544.14
450.83	6373.28
451.02	6216.46
451.20	6551.16
451.39	6480.94
451.57	6443.49
451.76	6326.47
451.94	6394.34
452.13	6310.08
452.31	6342.85
452.49	6338.17
452.68	6436.47
452.86	6413.07
453.05	6686.91
453.23	6651.80
453.42	6597.97
453.60	6452.86
453.78	6689.25
453.97	6700.95
454.15	6670.53
454.34	6740.74
454.52	6567.54
454.70	6626.06
454.89	6553.50
455.07	6633.08
455.26	6689.25
455.44	6810.96
455.62	6733.72
455.81	6888.20
455.99	7045.01
456.17	7045.01
456.36	6897.56
456.54	7063.74
456.73	7080.12
456.91	7148.00
457.09	7215.87
457.28	7489.71
457.46	7215.87
457.64	7283.75
457.83	7265.02
458.01	7101.19
458.19	7325.88
458.38	7232.26
458.56	7447.58
458.74	7405.46
458.93	7258.00
459.11	7269.70
459.29	7335.24
459.48	7606.74
459.66	7515.46
459.84	7517.80
460.03	7674.62
460.21	7599.72
460.39	7639.51
460.57	7644.19
460.76	7604.40
460.94	7702.70
461.12	7714.41
461.31	7779.94
461.49	7847.82
461.67	7728.45
461.85	7728.45
462.04	7812.71
462.22	7976.55
462.40	7969.52
462.59	8152.09
462.77	7981.23
462.95	7967.18
463.13	8196.56
463.32	8091.23
463.50	7969.52
463.68	8198.90
463.86	8039.74
464.05	7815.05
464.23	7976.55
464.41	8201.24
464.59	8023.36
464.78	8311.24
464.96	8212.94
465.14	8049.10
465.32	8156.77
465.50	8311.24
465.69	8425.93
465.87	8112.30
466.05	8145.06
466.23	8196.56
466.41	8334.65
466.60	8521.89
466.78	8315.92
466.96	8292.52
467.14	8444.65
467.32	8435.29
467.51	8512.53
467.69	8383.80
467.87	8601.47
468.05	8617.85
468.23	8468.06
468.41	8557.00
468.60	8652.96
468.78	8599.13
468.96	8510.19
469.14	8671.68
469.32	8784.03
469.50	8692.75
469.69	8922.12
469.87	9008.72
470.05	9060.21
470.23	9004.04
470.41	8805.10
470.59	8945.53
470.77	8917.44
470.95	9048.51
471.14	9114.05
471.32	9100.00
471.50	9170.22
471.68	9160.86
471.86	9359.80
472.04	9291.93
472.22	9509.60
472.40	9298.95
472.58	9270.86
472.77	9558.75
472.95	9659.39
473.13	9783.44
473.31	9523.64
473.49	9359.80
473.67	9671.09
473.85	9605.56
474.03	9781.10
474.21	9998.77
474.39	9947.28
474.57	10111.11
474.75	10097.07
474.93	10083.03
475.12	10108.77
475.30	10396.66
475.48	9888.76
475.66	10267.93
475.84	10239.84
476.02	10293.68
476.20	10303.04
476.38	10579.22
476.56	10574.54
476.74	10579.22
476.92	10607.31
477.10	10920.94
477.28	10972.43
477.46	10841.36
477.64	11014.56
477.82	11208.83
478.00	11454.58
478.18	11339.90
478.36	11049.67
478.54	11660.55
478.72	11428.84
478.90	11609.06
479.08	11829.07
479.26	11875.88
479.44	12056.10
479.62	11936.73
479.80	11922.69
479.98	12238.66
480.16	12339.30
480.34	12723.15
480.52	12393.14
480.70	12507.82
480.88	12468.03
481.06	12266.75
481.24	12582.72
481.41	12837.84
481.59	13013.38
481.77	12865.92
481.95	12961.89
482.13	13062.53
482.31	13184.24
482.49	13626.60
482.67	13287.22
482.85	13303.60
483.03	13696.82
483.21	13596.17
483.39	14017.47
483.57	13949.59
483.74	14083.00
483.92	14279.61
484.10	14263.22
484.28	14572.18
484.46	14703.25
484.64	14593.24
484.82	14691.54
485.00	14633.03
485.18	14988.79
485.35	14853.04
485.53	14956.02
485.71	14939.64
485.89	15119.86
486.07	15019.22
486.25	15342.21
486.43	15337.53
486.61	15613.71
486.78	15740.10
486.96	15723.72
487.14	16084.16
487.32	15955.43
487.50	16308.85
487.68	16624.83
487.85	16755.90
488.03	17156.13
488.21	17064.85
488.39	16982.93
488.57	16940.80
488.75	17034.42
488.92	17427.63
489.10	17837.22
489.28	17589.13
489.46	17444.01
489.64	18129.79
489.81	18178.94
489.99	18286.61
490.17	18190.64
490.35	18640.03
490.53	18071.28
490.70	18696.20
490.88	18754.71
491.06	19021.53
491.24	18848.33
491.41	19119.84
491.59	19040.26
491.77	19129.20
491.95	19325.80
492.13	19489.64
492.30	19730.72
492.48	19999.88
492.66	19697.95
492.84	19826.68
493.01	19765.82
493.19	19854.76
493.37	20348.62
493.54	20676.29
493.72	20439.90
493.90	20615.44
494.08	21034.39
494.25	21104.61
494.43	21333.98
494.61	21055.46
494.79	21528.25
494.96	21642.93
495.14	21465.05
495.32	21748.26
495.49	21731.87
495.67	21689.74
495.85	21771.66
496.02	22286.58
496.20	22199.98
496.38	22195.30
496.55	22366.16
496.73	22721.92
496.91	22487.87
497.09	22981.72
497.26	22721.92
497.44	22658.73
497.62	23012.15
497.79	23578.56
497.97	23274.29
498.14	23475.57
498.32	23351.52
498.50	23658.14
498.67	23660.48
498.85	23756.44
499.03	24446.90
499.20	24280.72
499.38	23990.49
499.56	24306.46
499.73	24376.68
499.91	24437.53
500.08	24898.62
500.26	24184.76
500.44	24802.66
500.61	24542.86
500.79	24826.06
500.97	24753.51
501.14	25158.42
501.32	24797.98
501.49	24823.72
501.67	25013.31
501.84	25404.17
502.02	25324.60
502.20	25413.54
502.37	25652.27
502.55	25495.46
502.72	25811.43
502.90	25802.07
503.07	26132.08
503.25	26155.49
503.43	25518.86
503.60	26075.91
503.78	26169.53
503.95	26202.30
504.13	26450.39
504.30	26551.04
504.48	26347.41
504.65	26698.49
504.83	26799.13
505.01	26932.54
505.18	26686.79
505.36	27180.64
505.53	27087.02
505.71	27047.23
505.88	27154.90
506.06	27168.94
506.23	27559.81
506.41	27524.70
506.58	27393.63
506.76	27475.55
506.93	27871.10
507.11	27257.88
507.28	27520.02
507.46	27599.60
507.63	27733.01
507.81	28037.28
507.98	27957.70
508.16	27793.86
508.33	27976.42
508.50	28360.27
508.68	28374.31
508.85	28453.89
509.03	28645.82
509.20	29099.88
509.38	29003.92
509.55	28900.94
509.73	28992.22
509.90	28687.95
510.08	29076.48
510.25	29092.86
510.42	29144.35
510.60	29010.94
510.77	29153.71
510.95	29905.02
511.12	29741.19
511.30	29364.36
511.47	29689.70
511.64	30038.44
511.82	29551.60
511.99	30008.01
512.17	30181.21
512.34	29542.24
512.51	30260.79
512.69	30293.55
512.86	30052.48
513.04	30293.55
513.21	30316.96
513.38	30127.38
513.56	30190.57
513.73	30394.20
513.90	30771.02
514.08	30637.61
514.25	30881.03
514.43	30546.33
514.60	30693.79
514.77	31047.21
514.95	31227.43
515.12	31344.45
515.29	31384.24
515.47	31309.35
515.64	31716.60
515.81	31459.14
515.99	31534.04
516.16	31496.59
516.33	31407.65
516.51	31417.01
516.68	31452.12
516.85	31606.59
517.03	31435.74
517.20	31950.65
517.37	32088.74
517.54	31915.54
517.72	31971.72
517.89	31604.25
518.06	31833.63
518.24	31770.43
518.41	32109.81
518.58	31955.33
518.75	32514.72
518.93	32591.96
519.10	32407.06
519.27	32697.28
519.45	32603.66
519.62	32769.84
519.79	32591.96
519.96	33013.26
520.14	32975.81
520.31	32840.06
520.48	32992.19
520.65	33013.26
520.83	33291.78
521.00	33577.33
521.17	33699.03
521.34	33261.35
521.52	33603.07
521.69	33567.96
521.86	33682.65
522.03	34000.96
522.20	33991.60
522.38	33589.03
522.55	33771.59
522.72	33954.15
522.89	34029.05
523.07	34260.76
523.24	34192.89
523.41	34230.33
523.58	34284.17
523.75	34560.35
523.92	34618.86
524.10	34895.05
524.27	34822.49
524.44	34728.87
524.61	34679.72
524.78	35409.96
524.96	35314.00
525.13	35115.06
525.30	35054.20
525.47	35564.44
525.64	35051.86
525.81	35431.03
525.98	34913.77
526.16	35178.25
526.33	35346.77
526.50	35414.65
526.67	34939.52
526.84	35136.12
527.01	35056.54
527.18	35449.75
527.36	35571.46
527.53	35725.94
527.70	36002.12
527.87	36395.33
528.04	36020.84
528.21	35744.66
528.38	35800.83
528.55	36100.42
528.72	36444.48
528.89	36182.34
529.07	36105.10
529.24	36086.38
529.41	36388.31
529.58	36467.89
529.75	36348.52
529.92	36439.80
530.09	36460.87
530.26	36634.06
530.43	36652.79
530.60	36341.50
530.77	36495.97
530.94	36828.33
531.11	36744.07
531.28	36968.76
531.46	36793.22
531.63	37284.73
531.80	37010.89
531.97	36898.55
532.14	36807.26
532.31	36950.04
532.48	37324.52
532.65	37617.09
532.82	37144.30
532.99	37654.54
533.16	37486.02
533.33	37177.07
533.50	37820.72
533.67	37479.00
533.84	37397.08
534.01	37340.91
534.18	37729.44
534.35	37961.15
534.52	37790.29
534.69	38234.99
534.86	37886.25
535.03	37427.51
535.20	37848.80
535.37	38342.66
535.54	38178.82
535.71	38663.31
535.88	38375.42
536.05	37933.06
536.22	38632.88
536.38	38546.28
536.55	38103.92
536.72	38307.55
536.89	38047.75
537.06	38347.34
537.23	38728.84
537.40	38529.90
537.57	38506.49
537.74	38848.21
537.91	39000.35
538.08	38913.75
538.25	38307.55
538.42	38333.29
538.59	39117.37
538.75	38660.97
538.92	38932.47
539.09	39126.74
539.26	38824.81
539.43	38782.68
539.60	39082.27
539.77	38550.96
539.94	39058.86
540.11	39068.22
540.28	39068.22
540.44	38808.42
540.61	39323.34
540.78	39278.87
540.95	39093.97
541.12	39262.49
541.29	39323.34
541.46	39220.36
541.62	39346.75
541.79	39725.91
541.96	39054.18
542.13	39531.65
542.30	39648.68
542.47	39974.01
542.63	40016.14
542.80	39578.46
542.97	39943.58
543.14	40339.13
543.31	40116.78
543.48	40273.60
543.64	40907.88
543.81	40741.71
543.98	40421.05
544.15	40594.25
544.32	40439.78
544.48	40622.34
544.65	40638.72
544.82	40116.78
544.99	40006.78
545.16	40341.47
545.32	40411.69
545.49	40952.35
545.66	40706.60
545.83	40657.45
546.00	41202.79
546.16	40666.81
546.33	40591.91
546.50	40456.16
546.67	40652.76
546.83	40634.04
547.00	40964.06
547.17	40992.14
547.34	40966.40
547.50	41404.08
547.67	41336.20
547.84	41141.94
548.00	41596.00
548.17	41378.33
548.34	41572.60
548.51	41640.47
548.67	41497.70
548.84	41785.58
549.01	41048.32
549.18	41050.66
549.34	41493.02
549.51	41401.74
549.68	41734.09
549.84	41689.62
550.01	41516.42
550.18	42249.01
550.34	41921.34
550.51	41851.12
550.68	41799.63
550.84	41422.80
551.01	41626.43
551.18	41549.19
551.34	41776.22
551.51	41928.36
551.68	41853.46
551.84	41766.86
552.01	41867.50
552.18	42213.90
552.34	41713.03
552.51	42490.09
552.68	42117.94
552.84	42340.29
553.01	42312.20
553.18	42445.62
553.34	41982.19
553.51	42045.38
553.67	42237.31
553.84	42473.70
554.01	42394.12
554.17	42412.85
554.34	42595.41
554.51	42375.40
554.67	42361.36
554.84	42188.16
555.00	42188.16
555.17	42342.63
555.33	42440.93
555.50	42075.81
555.67	42841.17
555.83	42490.09
556.00	42611.79
556.16	42792.01
556.33	42506.47
556.50	42784.99
556.66	42827.12
556.83	42831.80
556.99	43292.89
557.16	42953.51
557.32	43140.75
557.49	43276.51
557.65	42494.77
557.82	42499.45
557.98	42859.89
558.15	42728.82
558.32	43164.16
558.48	42801.38
558.65	42824.78
558.81	43028.41
558.98	42710.10
559.14	42902.02
559.31	42595.41
559.47	43206.29
559.64	43363.11
559.80	43091.60
559.97	43096.28
560.13	43166.50
560.30	42953.51
560.46	43292.89
560.63	43463.75
560.79	43054.15
560.96	43536.30
561.12	43239.06
561.29	43089.26
561.45	43332.68
561.61	43548.01
561.78	43377.15
561.94	43222.67
562.11	43430.98
562.27	43288.21
562.44	43573.75
562.60	43480.13
562.77	43751.63
562.93	43498.86
563.10	43587.80
563.26	43152.46
563.42	43592.48
563.59	43047.13
563.75	43379.49
563.92	43585.46
564.08	43452.05
564.24	43620.56
564.41	43580.78
564.57	43723.55
564.74	43421.62
564.90	43267.14
565.07	43639.29
565.23	43316.29
565.39	43445.02
565.56	43625.25
565.72	43882.70
565.88	43592.48
566.05	43653.33
566.21	43597.16
566.38	43395.87
566.54	43604.18
566.70	44013.77
566.87	43660.35
567.03	43943.56
567.19	44296.98
567.36	43943.56
567.52	43805.47
567.68	43828.87
567.85	43522.26
568.01	43693.12
568.17	43583.12
568.34	43910.79
568.50	43751.63
568.66	43566.73
568.83	43957.60
568.99	43199.27
569.15	43468.43
569.32	43749.29
569.48	43725.89
569.64	43856.96
569.81	43742.27
569.97	43936.54
570.13	43971.64
570.30	43461.41
570.46	43927.17
570.62	43620.56
570.78	43856.96
570.95	43761.00
571.11	43990.37
571.27	43938.88
571.43	43641.63
571.60	43838.23
571.76	43707.16
571.92	43819.51
572.09	43868.66
572.25	43515.24
572.41	43522.26
572.57	44133.14
572.74	44198.68
572.90	44069.95
573.06	44154.21
573.22	43524.60
573.38	44088.67
573.55	43959.94
573.71	44163.57
573.87	43927.17
574.03	43723.55
574.20	43962.28
574.36	44182.29
574.52	44144.84
574.68	44364.85
574.84	44098.03
575.01	44273.57
575.17	43988.03
575.33	43866.32
575.49	44240.81
575.65	44140.16
575.82	44322.72
575.98	43878.02
576.14	44226.76
576.30	44495.92
576.46	43765.68
576.62	44044.20
576.79	44020.80
576.95	43704.82
577.11	44285.28
577.27	44016.11
577.43	44559.12
577.59	43899.09
577.75	44179.95
577.92	43384.17
578.08	44378.90
578.24	43887.39
578.40	44437.41
578.56	43856.96
578.72	43971.64
578.88	44371.88
579.04	44378.90
579.21	44179.95
579.37	44481.88
579.53	43943.56
579.69	43906.11
579.85	44334.43
580.01	44182.29
580.17	44292.30
580.33	44226.76
580.49	44268.89
580.65	44252.51
580.82	44355.49
580.98	44355.49
581.14	44175.27
581.30	44617.63
581.46	44638.70
581.62	44313.36
581.78	44540.39
581.94	44083.99
582.10	44238.47
582.26	44425.71
582.42	44055.90
582.58	44362.51
582.74	43959.94
582.90	44388.26
583.06	44250.17
583.22	44694.87
583.38	44266.55
583.54	44456.14
583.70	44514.65
583.86	44406.98
584.02	43966.96
584.18	43929.51
584.34	44154.21
584.50	44020.80
584.66	44332.09
584.82	43997.39
584.98	44402.30
585.14	44470.18
585.30	44037.18
585.46	44313.36
585.62	44135.48
585.78	44666.78
585.94	43863.98
586.10	44390.60
586.26	44271.23
586.42	44837.64
586.58	44257.19
586.74	44320.38
586.90	44067.61
587.06	44032.50
587.22	44343.79
587.38	43863.98
587.54	44444.43
587.70	44765.09
587.86	44289.96
588.02	44266.55
588.18	44355.49
588.34	44472.52
588.49	44306.34
588.65	43943.56
588.81	43875.68
588.97	44563.80
589.13	43805.47
589.29	44556.78
589.45	44343.79
589.61	44355.49
589.77	44718.28
589.93	44622.31
590.08	44430.39
590.24	44760.40
590.40	44479.54
590.56	45064.67
590.72	44619.97
590.88	45036.59
591.04	44582.52
591.20	44617.63
591.35	44711.25
591.51	44699.55
591.67	44734.66
591.83	44631.68
591.99	44652.74
592.15	44194.00
592.31	44821.26
592.46	44659.76
592.62	44591.89
592.78	44793.17
592.94	44715.93
593.10	44566.14
593.26	44575.50
593.41	44891.48
593.57	44641.04
593.73	44722.96
593.89	44589.55
594.05	44741.68
594.20	44889.13
594.36	44832.96
594.52	44332.09
594.68	45064.67
594.84	44194.00
594.99	44875.09
595.15	44900.84
595.31	45205.11
595.47	45090.42
595.62	44891.48
595.78	44947.65
595.94	44619.97
596.10	44776.79
596.25	45069.36
596.41	45085.74
596.57	44765.09
596.73	44755.72
596.88	44502.95
597.04	44762.75
597.20	44680.83
597.36	44814.24
597.51	45013.18
597.67	45013.18
597.83	44655.08
597.99	44992.12
598.14	45228.51
598.30	44676.15
598.46	44905.52
598.61	44638.70
598.77	43892.07
598.93	44631.68
599.09	44774.45
599.24	45331.50
599.40	44760.40
599.56	45017.86
599.71	44435.07
599.87	44762.75
600.03	44921.90
600.18	44711.25
600.34	44949.99
600.50	45015.52
600.65	44832.96
600.81	44729.98
600.97	45165.32
601.12	44961.69
601.28	44706.57
601.44	44524.01
601.59	44678.49
601.75	44217.40
601.91	44491.24
602.06	44648.06
602.22	44626.99
602.37	44746.36
602.53	45139.57
602.69	45322.13
602.84	44830.62
603.00	44734.66
603.16	44594.23
603.31	44938.29
603.47	44535.71
603.62	44678.49
603.78	45205.11
603.94	45015.52
604.09	45312.77
604.25	45003.82
604.40	44732.32
604.56	44542.74
604.71	44488.90
604.87	44830.62
605.03	44451.45
605.18	44533.37
605.34	44507.63
605.49	44282.94
605.65	44289.96
605.80	44465.50
605.96	44727.64
606.12	44568.48
606.27	45095.10
606.43	44453.79
606.58	44233.78
606.74	44322.72
606.89	44353.15
607.05	44666.78
607.20	44406.98
607.36	44706.57
607.51	44509.97
607.67	44549.76
607.82	44657.42
607.98	44500.61
608.13	44348.47
608.29	44367.20
608.44	44088.67
608.60	44215.06
608.75	44168.25
608.91	44465.50
609.06	44194.00
609.22	44713.59
609.37	43683.76
609.53	44839.98
609.68	44226.76
609.84	44140.16
609.99	44355.49
610.15	43793.76
610.30	44177.61
610.46	44053.56
610.61	43922.49
610.76	44360.17
610.92	44060.58
611.07	44287.62
611.23	44369.54
611.38	44238.47
611.54	44357.83
611.69	43557.37
611.84	43746.95
612.00	43997.39
612.15	43768.02
612.31	43899.09
612.46	43861.64
612.62	44376.56
612.77	43973.98
612.92	44423.37
613.08	43693.12
613.23	43817.17
613.39	43824.19
613.54	43564.39
613.69	43442.68
613.85	44105.06
614.00	43962.28
614.15	44194.00
614.31	43606.52
614.46	43936.54
614.62	44170.59
614.77	43643.97
614.92	43751.63
615.08	43908.45
615.23	43770.36
615.38	43646.31
615.54	43288.21
615.69	43498.86
615.84	43159.48
616.00	43606.52
616.15	43569.07
616.30	43358.42
616.46	43161.82
616.61	43498.86
616.76	43248.42
616.92	43110.33
617.07	43115.01
617.22	42852.87
617.37	43033.09
617.53	43264.80
617.68	43744.61
617.83	43505.88
617.99	43494.18
618.14	43138.41
618.29	43515.24
618.45	42911.38
618.60	42539.24
618.75	43105.65
618.90	43428.64
619.06	43143.09
619.21	43236.72
619.36	43524.60
619.51	42997.98
619.67	43084.58
619.82	43543.33
619.97	42801.38
620.12	42843.51
620.28	42773.29
620.43	42557.96
620.58	42698.39
620.73	42628.18
620.89	42588.39
621.04	42754.57
621.19	42974.58
621.34	43110.33
621.49	42745.20
621.65	42368.38
621.80	42494.77
621.95	42366.04
622.10	41970.49
622.25	42438.59
622.41	42841.17
622.56	42335.61
622.71	42876.27
622.86	42459.66
623.01	42628.18
623.16	42389.44
623.32	42356.67
623.47	42564.98
623.62	42628.18
623.77	42131.98
623.92	42579.03
624.07	41961.12
624.23	42003.25
624.38	42120.28
624.53	41771.54
624.68	41911.97
624.83	42333.27
624.98	42401.14
625.13	41844.10
625.29	41918.99
625.44	42141.35
625.59	41794.95
625.74	41471.95
625.89	41610.04
626.04	41741.11
626.19	41696.64
626.34	41741.11
626.49	41811.33
626.65	41818.35
626.80	42176.45
626.95	41794.95
627.10	41471.95
627.25	41757.50
627.40	41308.11
627.55	41617.07
627.70	40629.36
627.85	41813.67
628.00	41214.49
628.15	41340.88
628.30	41577.28
628.45	41539.83
628.60	41729.41
628.76	41450.89
628.91	41577.28
629.06	41486.00
629.21	40772.13
629.36	41223.86
629.51	41258.96
629.66	40868.09
629.81	40802.56
629.96	41270.67
630.11	41577.28
630.26	41521.10
630.41	41291.73
630.56	41233.22
630.71	41315.14
630.86	40760.43
631.01	40844.69
631.16	41008.53
631.31	40638.72
631.46	40556.80
631.61	41179.39
631.76	40704.26
631.91	41069.38
632.06	40942.99
632.21	41081.08
632.36	41034.27
632.51	40753.41
632.66	40947.67
632.81	40247.85
632.96	40584.89
633.10	40580.21
633.25	41053.00
633.40	40708.94
633.55	40580.21
633.70	40374.24
633.85	40430.41
634.00	40563.82
634.15	40531.06
634.30	40624.68
634.45	40287.64
634.60	40142.53
634.75	40596.59
634.90	40804.90
635.05	40435.10
635.19	39746.98
635.34	40470.20
635.49	40285.30
635.64	39800.81
635.79	39871.03
635.94	39688.46
636.09	40622.34
636.24	40114.44
636.39	39615.91
636.53	40322.75
636.68	40020.82
636.83	39599.52
636.98	40023.16
637.13	39739.96
637.28	39817.19
637.43	40184.66
637.57	39856.98
637.72	40245.51
637.87	39667.40
638.02	40091.04
638.17	39864.00
638.32	39447.39
638.46	39812.51
638.61	39622.93
638.76	39555.05
638.91	39981.03
639.06	39697.83
639.20	39662.72
639.35	39798.47
639.50	39634.63
639.65	40069.97
639.80	39672.08
639.94	39271.85
640.09	39667.40
640.24	39330.36
640.39	39168.87
640.54	39428.66
640.68	39370.15
640.83	39777.40
640.98	39328.02
641.13	39192.27
641.27	39426.32
641.42	39143.12
641.57	39206.31
641.72	39100.99
641.86	38983.96
642.01	38724.16
642.16	39253.12
642.31	38967.58
642.45	39166.52
642.60	38726.50
642.75	38663.31
642.90	38955.88
643.04	38820.13
643.19	38852.89
643.34	38749.91
643.48	38637.56
643.63	38515.86
643.78	38649.27
643.93	38342.66
644.07	38583.73
644.22	38806.08
644.37	38387.13
644.51	38417.55
644.66	38803.74
644.81	38838.85
644.95	39021.41
645.10	38740.55
645.25	38452.66
645.39	38817.78
645.54	38546.28
645.69	38656.29
645.83	38761.61
645.98	38511.17
646.13	38656.29
646.27	39012.05
646.42	38618.84
646.57	38579.05
646.71	38223.29
646.86	38326.27
647.00	38485.43
647.15	38700.76
647.30	38960.56
647.44	38169.46
647.59	38305.21
647.74	38197.54
647.88	37834.76
648.03	38342.66
648.17	38096.90
648.32	37930.72
648.47	38195.20
648.61	37680.28
648.76	38483.09
648.90	38316.91
649.05	38295.85
649.20	37699.01
649.34	38169.46
649.49	37713.05
649.63	37766.88
649.78	38132.01
649.92	37677.94
650.07	38092.22
650.21	37816.04
650.36	37301.12
650.51	37240.26
650.65	38153.07
650.80	38225.63
650.94	37628.79
651.09	37780.93
651.23	37294.10
651.38	37628.79
651.52	37420.48
651.67	37654.54
651.81	37160.69
651.96	37368.99
652.10	37488.36
652.25	36842.37
652.39	37656.88
652.54	37530.49
652.68	37734.12
652.83	37312.82
652.97	37439.21
653.12	37776.25
653.26	37223.88
653.41	37294.10
653.55	37251.97
653.70	36898.55
653.84	37336.23
653.99	37596.03
654.13	37043.66
654.27	37319.84
654.42	37221.54
654.56	36580.23
654.71	37280.05
654.85	37249.63
655.00	37179.41
655.14	36680.88
655.29	36779.18
655.43	36870.46
655.57	36680.88
655.72	36315.75
655.86	36444.48
656.01	36673.85
656.15	36648.11
656.30	36477.25
656.44	36631.72
656.58	36224.47
656.73	36416.40
656.87	36627.04
657.01	36245.54
657.16	36610.66
657.30	36481.93
657.45	36077.02
657.59	36521.72
657.73	36488.95
657.88	36671.51
658.02	36685.56
658.16	36865.78
658.31	36418.74
658.45	36495.97
658.60	36481.93
658.74	36423.42
658.88	36371.92
659.03	35847.64
659.17	35849.99
659.31	35852.33
659.46	35756.36
659.60	35761.05
659.74	36126.17
659.89	35747.00
660.03	35941.27
660.17	36044.25
660.32	35971.69
660.46	35583.16
660.60	35812.54
660.74	35679.13
660.89	35634.66
661.03	35562.10
661.17	35721.26
661.32	35072.93
661.46	35548.06
661.60	35079.95
661.74	35321.02
661.89	35732.96
662.03	35658.06
662.17	35473.16
662.31	34876.32
662.46	35503.59
662.60	35243.79
662.74	35536.35
662.88	35058.88
663.03	34719.51
663.17	34972.28
663.31	34651.63
663.45	34792.06
663.60	35016.75
663.74	34930.16
663.88	34649.29
664.02	34939.52
664.17	34433.96
664.31	34345.02
664.45	34410.56
664.59	34520.56
664.73	34349.70
664.88	34370.77
665.02	33783.29
665.16	34213.95
665.30	34012.66
665.44	33970.54
665.59	33993.94
665.73	33944.79
665.87	33956.49
666.01	34143.74
666.15	33949.47
666.29	33961.17
666.44	34007.98
666.58	33710.74
666.72	33687.33
666.86	33890.96
667.00	33724.78
667.14	33193.48
667.28	33553.92
667.43	33490.73
667.57	33488.38
667.71	33443.91
667.85	32966.45
667.99	33273.06
668.13	33139.65
668.27	33177.09
668.41	33172.41
668.56	33294.12
668.70	32879.85
668.84	33205.18
668.98	33046.02
669.12	32594.30
669.26	32306.41
669.40	32678.56
669.54	32453.87
669.68	32364.93
669.82	32458.55
669.96	32189.39
670.10	32439.82
670.25	32449.19
670.39	32060.66
670.53	32329.82
670.67	32070.02
670.81	32287.69
670.95	32287.69
671.09	32203.43
671.23	31894.48
671.37	32208.11
671.51	31702.56
671.65	31559.78
671.79	31316.37
671.93	31445.10
672.07	31922.57
672.21	31814.90
672.35	31693.19
672.49	31700.22
672.63	31669.79
672.77	31187.64
672.91	31365.52
673.05	31026.14
673.19	31206.36
673.33	31133.81
673.47	30944.22
673.61	30939.54
673.75	30574.42
673.89	30581.44
674.03	30373.13
674.17	30902.09
674.31	30658.68
674.45	30422.28
674.59	30525.27
674.73	30726.55
674.87	30476.12
675.01	30181.21
675.15	30401.22
675.29	30609.53
675.43	29944.81
675.56	30101.63
675.70	30050.14
675.84	29865.24
675.98	28975.83
676.12	29883.96
676.26	29692.04
676.40	29448.62
676.54	29418.19
676.68	29504.79
676.82	28620.07
676.96	29289.46
677.10	29373.72
677.23	29563.31
677.37	29001.58
677.51	29046.05
677.65	28479.64
677.79	28467.94
677.93	28563.90
678.07	28584.96
678.21	28460.91
678.34	28175.37
678.48	28147.28
678.62	28191.75
678.76	27613.64
678.90	27852.38
679.04	27817.27
679.18	27648.75
679.31	27264.90
679.45	27655.77
679.59	27435.76
679.73	27405.33
679.87	27733.01
680.00	26803.82
680.14	27281.28
680.28	27201.71
680.42	27082.34
680.56	27199.37
680.70	26647.00
680.83	27033.19
680.97	26955.95
681.11	26759.34
681.25	26632.96
681.39	26527.63
681.52	26455.08
681.66	26677.43
681.80	26501.89
681.94	26195.28
682.07	26316.98
682.21	25752.91
682.35	25745.89
682.49	26111.02
682.62	26040.80
682.76	25397.15
682.90	25806.75
683.04	25186.50
683.17	25097.56
683.31	25373.75
683.45	25305.87
683.59	24898.62
683.72	24713.72
683.86	24828.40
684.00	24858.83
684.13	25301.19
684.27	25006.28
684.41	24446.90
684.55	24589.67
684.68	24650.52
684.82	24390.72
684.96	24709.04
685.09	24631.80
685.23	24147.31
685.37	23988.15
685.50	24388.38
685.64	24079.43
685.78	23847.72
685.91	23726.01
686.05	24140.29
686.19	23592.60
686.32	23421.74
686.46	23524.72
686.60	23147.90
686.73	23124.49
686.87	23152.58
687.01	22593.19
687.14	22726.60
687.28	22754.69
687.42	22857.67
687.55	22625.96
687.69	22656.39
687.82	22656.39
687.96	22574.47
688.10	22448.08
688.23	22434.03
688.37	22382.54
688.50	22204.66
688.64	22267.86
688.78	22342.75
688.91	21834.86
689.05	21935.50
689.18	21750.60
689.32	21586.76
689.46	21500.16
689.59	21291.85
689.73	21633.57
689.86	21427.60
690.00	21476.76
690.13	21324.62
690.27	21385.47
690.41	21357.39
690.54	20386.07
690.68	20987.58
690.81	20826.09
690.95	20713.74
691.08	20868.22
691.22	20566.29
691.35	20573.31
691.49	20805.02
691.62	20713.74
691.76	20081.80
691.89	20006.90
692.03	20006.90
692.16	20013.92
692.30	19939.02
692.43	19761.14
692.57	19955.41
692.70	19889.87
692.84	19777.53
692.97	19346.87
693.11	19637.09
693.24	19363.25
693.38	19077.71
693.51	19185.37
693.65	19393.68
693.78	19248.57
693.92	19550.49
694.05	19442.83
694.19	18981.74
694.32	18782.80
694.45	18633.00
694.59	18698.54
694.72	18675.13
694.86	18593.22
694.99	18511.30
695.13	18368.52
695.26	18434.06
695.39	18354.48
695.53	18354.48
695.66	18349.80
695.80	18260.86
695.93	18090.00
696.07	18129.79
696.20	18221.07
696.33	17898.08
696.47	17830.20
696.60	17575.08
696.73	17357.41
696.87	17408.90
697.00	17109.32
697.14	17205.28
697.27	17128.04
697.40	17371.46
697.54	17158.47
697.67	16861.22
697.80	17046.12
697.94	16926.75
698.07	16634.19
698.21	16470.35
698.34	16666.95
698.47	16542.91
698.61	16238.64
698.74	16463.33
698.87	16079.48
699.01	15899.26
699.14	16154.38
699.27	15800.96
699.40	16215.23
699.54	16051.39
699.67	15878.19
699.80	15836.06
699.94	15908.62
700.07	15976.50
700.20	15754.15
700.34	15538.82
700.47	15618.39
700.60	15861.81
700.73	15700.31
700.87	15304.76
701.00	15311.78
701.13	15314.13
701.26	15382.00
701.40	15283.70
701.53	15049.64
701.66	14979.43
701.79	14658.78
701.93	14721.97
702.06	14752.40
702.19	14597.92
702.32	14714.95
702.46	14473.87
702.59	14597.92
702.72	14401.32
702.85	14654.09
702.99	14607.28
703.12	14569.83
703.25	14202.37
703.38	14129.81
703.51	14146.20
703.65	14221.10
703.78	13837.25
703.91	13991.72
704.04	13909.80
704.17	13989.38
704.31	13540.00
704.44	13841.93
704.57	13617.24
704.70	13561.06
704.83	13493.19
704.96	13483.83
705.10	13518.93
705.23	13455.74
>>>>>End Processed Spectral Data<<<<<
