SpectraSuite Data File
++++++++++++++++++++++++++++++++++++
Date: Fri Oct 25 10:43:31 EDT 2013
User: price-jones
Dark Spectrum Present: No
Reference Spectrum Present: No
Number of Sampled Component Spectra: 1
Spectrometers: USB2+H05261
Integration Time (usec): 100000 (USB2+H05261)
Spectra Averaged: 1 (USB2+H05261)
Boxcar Smoothing: 0 (USB2+H05261)
Correct for Electrical Dark: No (USB2+H05261)
Strobe/Lamp Enabled: No (USB2+H05261)
Correct for Detector Non-linearity: No (USB2+H05261)
Correct for Stray Light: No (USB2+H05261)
Number of Pixels in Processed Spectrum: 2048
>>>>>Begin Processed Spectral Data<<<<<
365.73	191.92
365.92	191.92
366.12	191.92
366.32	11.70
366.52	0.00
366.72	98.30
366.91	25.75
367.11	7.02
367.31	0.00
367.51	65.54
367.70	53.83
367.90	0.00
368.10	28.09
368.30	98.30
368.49	0.00
368.69	2.34
368.89	2.34
369.09	25.75
369.28	0.00
369.48	63.19
369.68	91.28
369.87	58.51
370.07	131.07
370.27	126.39
370.47	273.84
370.66	463.43
370.86	461.09
371.06	444.70
371.25	500.87
371.45	449.38
371.65	479.81
371.84	510.24
372.04	435.34
372.24	430.66
372.44	465.77
372.63	543.00
372.83	503.22
373.03	493.85
373.22	468.11
373.42	479.81
373.62	456.40
373.81	512.58
374.01	540.66
374.21	568.75
374.40	528.96
374.60	587.47
374.79	547.69
374.99	606.20
375.19	662.37
375.38	624.92
375.58	512.58
375.78	561.73
375.97	582.79
376.17	573.43
376.37	617.90
376.56	606.20
376.76	559.39
376.95	566.41
377.15	636.63
377.35	624.92
377.54	613.22
377.74	603.86
377.93	566.41
378.13	702.16
378.33	718.54
378.52	660.03
378.72	702.16
378.91	653.01
379.11	589.82
379.31	667.05
379.50	545.34
379.70	737.27
379.89	669.39
380.09	718.54
380.28	674.07
380.48	699.82
380.68	631.94
380.87	655.35
381.07	690.46
381.26	727.91
381.46	760.67
381.65	671.73
381.85	685.78
382.04	643.65
382.24	681.10
382.43	753.65
382.63	739.61
382.83	755.99
383.02	685.78
383.22	774.72
383.41	671.73
383.61	791.10
383.80	767.70
384.00	720.88
384.19	732.59
384.39	671.73
384.58	816.85
384.78	784.08
384.97	683.44
385.17	795.78
385.36	823.87
385.56	809.83
385.75	800.46
385.95	772.38
386.14	854.30
386.34	849.61
386.53	837.91
386.72	833.23
386.92	826.21
387.11	905.79
387.31	851.96
387.50	877.70
387.70	844.93
387.89	898.77
388.09	903.45
388.28	903.45
388.48	854.30
388.67	987.71
388.86	905.79
389.06	805.14
389.25	929.19
389.45	1004.09
389.64	1069.62
389.84	1041.54
390.03	966.64
390.22	1001.75
390.42	992.39
390.61	1029.84
390.81	1069.62
391.00	1064.94
391.19	1046.22
391.39	1069.62
391.58	971.32
391.78	1060.26
391.97	1006.43
392.16	1020.47
392.36	997.07
392.55	959.62
392.75	957.28
392.94	1006.43
393.13	1015.79
393.33	987.71
393.52	997.07
393.71	1053.24
393.91	1067.28
394.10	1121.12
394.29	1167.93
394.49	1013.45
394.68	1191.33
394.88	1207.72
395.07	1261.55
395.26	1196.01
395.46	1249.85
395.65	1306.02
395.84	1217.08
396.04	1268.57
396.23	1128.14
396.42	1100.05
396.62	1219.42
396.81	1228.78
397.00	1336.45
397.19	1301.34
397.39	1327.08
397.58	1369.21
397.77	1357.51
397.97	1364.53
398.16	1430.07
398.35	1493.26
398.55	1460.49
398.74	1439.43
398.93	1488.58
399.12	1554.12
399.32	1458.15
399.51	1511.99
399.70	1540.07
399.90	1444.11
400.09	1565.82
400.28	1570.50
400.47	1666.46
400.67	1650.08
400.86	1629.01
401.05	1607.95
401.24	1659.44
401.44	1593.90
401.63	1678.16
401.82	1701.57
402.01	1617.31
402.21	1724.97
402.40	1692.21
402.59	1818.60
402.78	1722.63
402.97	1750.72
403.17	1764.76
403.36	1818.60
403.55	1825.62
403.74	1900.52
403.93	1818.60
404.13	1956.69
404.32	1837.32
404.51	1790.51
404.70	1860.73
404.89	1823.28
405.09	1926.26
405.28	1907.54
405.47	1898.17
405.66	1891.15
405.85	2033.93
406.05	1987.11
406.24	2038.61
406.43	2071.37
406.62	2106.48
406.81	2026.90
407.00	1968.39
407.20	2125.21
407.39	2031.58
407.58	2073.71
407.77	2120.53
407.96	2066.69
408.15	2256.28
408.34	2242.23
408.54	2317.13
408.73	2267.98
408.92	2258.62
409.11	2282.02
409.30	2221.17
409.49	2244.57
409.68	2338.20
409.87	2307.77
410.07	2282.02
410.26	2366.28
410.45	2251.60
410.64	2305.43
410.83	2487.99
411.02	2567.57
411.21	2628.42
411.40	2574.59
411.59	2609.70
411.78	2572.25
411.98	2605.02
412.17	2630.76
412.36	2579.27
412.55	2729.06
412.74	2710.34
412.93	2747.79
413.12	2621.40
413.31	2935.03
413.50	2867.16
413.69	2860.13
413.88	2878.86
414.07	2874.18
414.26	2944.39
414.45	3005.25
414.64	2965.46
414.83	3070.78
415.02	3023.97
415.22	2986.52
415.41	3035.67
415.60	3105.89
415.79	3185.47
415.98	3173.77
416.17	3314.20
416.36	3159.72
416.55	3227.60
416.74	3279.09
416.93	3318.88
417.12	3279.09
417.31	3290.79
417.50	3239.30
417.69	3375.05
417.88	3321.22
418.07	3396.12
418.26	3335.26
418.45	3419.52
418.64	3489.74
418.83	3552.93
419.02	3613.79
419.21	3623.15
419.39	3674.64
419.58	3473.36
419.77	3517.83
419.96	3679.32
420.15	3569.32
420.34	3709.75
420.53	3775.28
420.72	3740.18
420.91	3754.22
421.10	3833.80
421.29	3859.54
421.48	3810.39
421.67	3822.09
421.86	3796.35
422.05	3698.05
422.24	3801.03
422.43	3651.24
422.61	3644.21
422.80	3829.12
422.99	3775.28
423.18	3948.48
423.37	3936.78
423.56	3918.06
423.75	3817.41
423.94	3831.46
424.13	3599.74
424.32	3770.60
424.50	3908.69
424.69	3878.27
424.88	4014.02
425.07	3913.38
425.26	3833.80
425.45	3901.67
425.64	3918.06
425.83	3943.80
426.01	3943.80
426.20	3941.46
426.39	3971.89
426.58	4042.11
426.77	3840.82
426.96	3831.46
427.15	3908.69
427.33	4107.64
427.52	3981.25
427.71	4042.11
427.90	3985.93
428.09	4105.30
428.28	4063.17
428.46	4189.56
428.65	4168.49
428.84	4222.33
429.03	4191.90
429.22	4112.32
429.40	4187.22
429.59	4074.87
429.78	3953.16
429.97	3880.61
430.16	3950.82
430.34	4124.02
430.53	4140.41
430.72	4156.79
430.91	4245.73
431.10	4327.65
431.28	4465.74
431.47	4552.34
431.66	4622.56
431.85	4402.55
432.03	4580.43
432.22	4760.65
432.41	4571.07
432.60	4615.54
432.79	4599.15
432.97	4629.58
433.16	4713.84
433.35	4662.35
433.54	4568.73
433.72	4547.66
433.91	4667.03
434.10	4683.41
434.28	4669.37
434.47	4713.84
434.66	4837.89
434.85	4908.10
435.03	4842.57
435.22	4994.70
435.41	4978.32
435.59	4947.89
435.78	5022.79
435.97	4994.70
436.16	4931.51
436.34	5149.18
436.53	4983.00
436.72	5289.61
436.90	5078.96
437.09	5240.46
437.28	5055.56
437.46	5181.95
437.65	5186.63
437.84	5252.16
438.02	5228.76
438.21	5102.37
438.40	5048.54
438.58	5170.24
438.77	5268.55
438.96	5205.35
439.14	5481.53
439.33	5521.32
439.52	5432.38
439.70	5523.66
439.89	5640.69
440.08	5488.56
440.26	5657.07
440.45	5605.58
440.63	5633.67
440.82	5905.17
441.01	5795.17
441.19	5912.19
441.38	6085.39
441.57	6054.97
441.75	6078.37
441.94	6263.27
442.12	6083.05
442.31	6274.98
442.50	6101.78
442.68	6415.41
442.87	6260.93
443.05	6122.84
443.24	6347.53
443.43	6197.74
443.61	6314.77
443.80	6349.87
443.98	6326.47
444.17	6162.63
444.35	6457.54
444.54	6523.07
444.73	6466.90
444.91	6429.45
445.10	6544.14
445.28	6326.47
445.47	6249.23
445.65	6237.53
445.84	6375.62
446.02	6576.91
446.21	6499.67
446.39	6452.86
446.58	6544.14
446.77	6715.00
446.95	6546.48
447.14	6548.82
447.32	6672.87
447.51	6628.40
447.69	6558.18
447.88	6715.00
448.06	6609.67
448.25	6724.36
448.43	6597.97
448.62	6626.06
448.80	6553.50
448.99	6836.70
449.17	6932.67
449.36	6808.62
449.54	6883.52
449.73	7033.31
449.91	7063.74
450.10	7026.29
450.28	7159.70
450.46	7171.40
450.65	7138.63
450.83	7281.41
451.02	6946.71
451.20	7164.38
451.39	7279.07
451.57	7297.79
451.76	6897.56
451.94	7208.85
452.13	7222.89
452.31	7061.40
452.49	7007.56
452.68	7236.94
452.86	7260.34
453.05	7281.41
453.23	7218.21
453.42	7150.34
453.60	7229.91
453.78	7478.01
453.97	7290.77
454.15	7215.87
454.34	7466.31
454.52	7534.18
454.70	7482.69
454.89	7424.18
455.07	7688.66
455.26	7426.52
455.44	7719.09
455.62	7494.40
455.81	7698.02
455.99	7674.62
456.17	7702.70
456.36	7808.03
456.54	7894.63
456.73	7812.71
456.91	7906.33
457.09	7985.91
457.28	8107.62
457.46	8175.49
457.64	8067.83
457.83	7943.78
458.01	7847.82
458.19	8238.69
458.38	7960.16
458.56	8280.82
458.74	8180.17
458.93	8039.74
459.11	8259.75
459.29	8229.32
459.48	8208.26
459.66	8437.63
459.84	8334.65
460.03	8304.22
460.21	8358.05
460.39	8554.66
460.57	8496.14
460.76	8472.74
460.94	8414.23
461.12	8547.64
461.31	8542.96
461.49	8585.08
461.67	8718.50
461.85	8760.63
462.04	8690.41
462.22	9158.52
462.40	8821.48
462.59	8643.60
462.77	8667.00
462.95	8809.78
463.13	8959.57
463.32	8924.46
463.50	8830.84
463.68	9163.20
463.86	8835.52
464.05	8709.13
464.23	8699.77
464.41	8894.04
464.59	8819.14
464.78	9221.71
464.96	8959.57
465.14	8887.01
465.32	9050.85
465.50	9252.14
465.69	9235.75
465.87	9207.67
466.05	9174.90
466.23	8940.85
466.41	9242.78
466.60	9254.48
466.78	9163.20
466.96	9242.78
467.14	9027.45
467.32	9418.32
467.51	9401.93
467.69	9156.18
467.87	9301.29
468.05	9500.23
468.23	9329.38
468.41	9366.82
468.60	9612.58
468.78	9554.07
468.96	9343.42
469.14	9586.83
469.32	9781.10
469.50	9467.47
469.69	9582.15
469.87	9898.13
470.05	9689.82
470.23	9661.73
470.41	9696.84
470.59	9926.21
470.77	9900.47
470.95	9797.48
471.14	10024.51
471.32	10001.11
471.50	10281.97
471.68	10136.86
471.86	10251.55
472.04	10349.85
472.22	10441.13
472.40	10190.69
472.58	10162.61
472.77	10324.10
472.95	10539.43
473.13	10885.83
473.31	10574.54
473.49	10448.15
473.67	10588.58
473.85	10424.75
474.03	10824.98
474.21	10750.08
474.39	11047.33
474.57	10850.72
474.75	11147.97
474.93	11131.59
475.12	11009.88
475.30	10923.28
475.48	11035.63
475.66	11009.88
475.84	11236.91
476.02	11197.12
476.20	11131.59
476.38	11328.19
476.56	11698.00
476.74	11761.19
476.92	11433.52
477.10	11688.64
477.28	11868.86
477.46	11910.99
477.64	12098.23
477.82	12294.83
478.00	12451.65
478.18	12264.41
478.36	12311.22
478.54	12568.68
478.72	12638.89
478.90	12919.76
479.08	12985.29
479.26	12994.65
479.44	13092.96
479.62	13071.89
479.80	13095.30
479.98	13275.52
480.16	13741.29
480.34	13434.68
480.52	13614.90
480.70	13870.01
480.88	13453.40
481.06	13748.31
481.24	13905.12
481.41	13965.98
481.59	14078.32
481.77	14253.86
481.95	14483.24
482.13	14256.20
482.31	14476.21
482.49	14820.27
482.67	14609.62
482.85	15084.75
483.03	15115.18
483.21	15112.84
483.39	15372.64
483.57	15150.29
483.74	15524.77
483.92	15506.05
484.10	15470.94
484.28	15749.46
484.46	16077.14
484.64	16304.17
484.82	16177.78
485.00	15960.11
485.18	16044.37
485.35	16240.98
485.53	15960.11
485.71	15922.66
485.89	16191.83
486.07	15990.54
486.25	16542.91
486.43	16512.48
486.61	16533.54
486.78	17078.89
486.96	17144.42
487.14	17076.55
487.32	17537.63
487.50	17930.84
487.68	17895.74
487.85	18274.90
488.03	18295.97
488.21	18459.81
488.39	18405.97
488.57	18551.09
488.75	18450.44
488.92	19021.53
489.10	19365.59
489.28	19058.98
489.46	19463.90
489.64	19398.36
489.81	19800.93
489.99	20037.33
490.17	19786.89
490.35	20182.44
490.53	20025.62
490.70	20102.86
490.88	20189.46
491.06	20500.75
491.24	20655.23
491.41	20425.86
491.59	20746.51
491.77	20879.92
491.95	20868.22
492.13	21249.72
492.30	21266.11
492.48	21474.42
492.66	21565.70
492.84	21483.78
493.01	21841.88
493.19	21869.97
493.37	22230.41
493.54	22281.90
493.72	22192.96
493.90	22544.04
494.08	22429.35
494.25	22848.31
494.43	22895.12
494.61	22974.70
494.79	23323.44
494.96	23019.17
495.14	23403.02
495.32	23798.57
495.49	23129.17
495.67	23679.20
495.85	23924.96
496.02	24044.32
496.20	24163.69
496.38	24201.14
496.55	24467.96
496.73	24966.49
496.91	24573.28
497.09	24929.05
497.26	24751.17
497.44	24978.20
497.62	24933.73
497.79	24945.43
497.97	24833.08
498.14	25032.03
498.32	25474.39
498.50	25642.91
498.67	26075.91
498.85	25984.63
499.03	25963.56
499.20	25855.90
499.38	26043.14
499.56	26314.64
499.73	26125.06
499.91	26157.83
500.08	26457.42
500.26	25942.50
500.44	26202.30
500.61	26302.94
500.79	26429.33
500.97	26534.65
501.14	26974.67
501.32	26967.65
501.49	26951.27
501.67	27126.81
501.84	26930.20
502.02	27136.17
502.20	27363.20
502.37	27510.66
502.55	27520.02
502.72	27913.23
502.90	27754.07
503.07	27828.97
503.25	27913.23
503.43	27615.98
503.60	27875.78
503.78	27693.22
503.95	27960.04
504.13	28100.47
504.30	28292.40
504.48	28301.76
504.65	28554.54
504.83	29008.60
505.01	28975.83
505.18	28795.61
505.36	29387.77
505.53	29523.52
505.71	29422.87
505.88	29457.98
506.06	29095.20
506.23	29776.30
506.41	29273.08
506.58	29308.19
506.76	29937.79
506.93	29872.26
507.11	29593.73
507.28	29839.49
507.46	29605.44
507.63	29542.24
507.81	29558.63
507.98	30092.27
508.16	30143.76
508.33	29937.79
508.50	30562.72
508.68	30754.64
508.85	30951.24
509.03	30752.30
509.20	30948.90
509.38	31061.25
509.55	31009.76
509.73	30899.75
509.90	31257.85
510.08	31351.48
510.25	31292.96
510.42	31295.30
510.60	31522.34
510.77	32109.81
510.95	32013.85
511.12	31335.09
511.30	31707.24
511.47	32224.50
511.64	32032.57
511.82	32339.18
511.99	31749.37
512.17	31997.46
512.34	32201.09
512.51	32301.73
512.69	32088.74
512.86	32617.71
513.04	32524.08
513.21	32538.13
513.38	32467.91
513.56	32767.50
513.73	32451.53
513.90	32765.16
514.08	32498.34
514.25	33207.52
514.43	33069.43
514.60	32952.40
514.77	33186.46
514.95	33560.94
515.12	33645.20
515.29	33266.03
515.47	33668.61
515.64	33811.38
515.81	33846.49
515.99	33509.45
516.16	33476.68
516.33	33406.47
516.51	32978.15
516.68	33322.21
516.85	33233.27
517.03	33359.66
517.20	33530.51
517.37	33923.72
517.54	34293.53
517.72	33996.28
517.89	33872.23
518.06	33677.97
518.24	34015.01
518.41	34038.41
518.58	34387.15
518.75	34134.37
518.93	34859.94
519.10	34529.92
519.27	34665.67
519.45	34679.72
519.62	35014.41
519.79	34834.19
519.96	35409.96
520.14	35072.93
520.31	34965.26
520.48	35489.54
520.65	35374.86
520.83	35393.58
521.00	35330.39
521.17	35550.40
521.34	35732.96
521.52	36009.14
521.69	35999.78
521.86	36383.63
522.03	36044.25
522.20	36098.08
522.38	36261.92
522.55	35854.67
522.72	35658.06
522.89	36077.02
523.07	36769.82
523.24	36456.18
523.41	36629.38
523.58	36783.86
523.75	37095.15
523.92	36952.38
524.10	37043.66
524.27	37242.60
524.44	36858.76
524.61	37347.93
524.78	37280.05
524.96	37083.45
525.13	37631.13
525.30	37621.77
525.47	37476.66
525.64	37146.64
525.81	37193.45
525.98	37326.86
526.16	37441.55
526.33	37497.72
526.50	37448.57
526.67	36435.12
526.84	37401.76
527.01	37191.11
527.18	37373.67
527.36	37766.88
527.53	37771.57
527.70	38087.54
527.87	37982.21
528.04	38300.53
528.21	37818.38
528.38	38323.93
528.55	38815.44
528.72	38443.30
528.89	38799.06
529.07	38284.14
529.24	38689.06
529.41	38473.73
529.58	38555.64
529.75	38637.56
529.92	38345.00
530.09	38983.96
530.26	39037.80
530.43	38855.23
530.60	38756.93
530.77	38630.54
530.94	39269.51
531.11	39201.63
531.28	39440.37
531.46	39103.33
531.63	39370.15
531.80	39072.90
531.97	39276.53
532.14	38871.62
532.31	38719.48
532.48	39194.61
532.65	39180.57
532.82	39161.84
532.99	39220.36
533.16	39206.31
533.33	39775.06
533.50	39475.48
533.67	39477.82
533.84	39672.08
534.01	39917.84
534.18	39728.25
534.35	40039.54
534.52	40053.59
534.69	40519.35
534.86	39910.82
535.03	39854.64
535.20	40587.23
535.37	40390.62
535.54	40954.69
535.71	40388.28
535.88	40697.24
536.05	40112.10
536.22	40404.67
536.38	40266.58
536.55	40430.41
536.72	40135.51
536.89	40346.15
537.06	40624.68
537.23	40875.12
537.40	40854.05
537.57	40360.20
537.74	40772.13
537.91	40659.79
538.08	41233.22
538.25	40727.66
538.42	41139.60
538.59	41371.31
538.75	40737.02
538.92	41064.70
539.09	41139.60
539.26	41160.66
539.43	41071.72
539.60	40938.31
539.77	41233.22
539.94	40994.48
540.11	41053.00
540.28	41436.84
540.44	41015.55
540.61	41294.07
540.78	41179.39
540.95	41268.33
541.12	41277.69
541.29	41408.76
541.46	41970.49
541.62	41427.48
541.79	41544.51
541.96	41160.66
542.13	42061.77
542.30	41804.31
542.47	41432.16
542.63	41816.01
542.80	42387.10
542.97	42064.11
543.14	42300.50
543.31	42302.84
543.48	42354.33
543.64	42293.48
543.81	42618.81
543.98	42300.50
544.15	42555.62
544.32	42637.54
544.48	42911.38
544.65	42564.98
544.82	42752.23
544.99	42347.31
545.16	42518.17
545.32	42632.86
545.49	42504.13
545.66	43030.75
545.83	42864.57
546.00	42902.02
546.16	43009.68
546.33	42941.81
546.50	42368.38
546.67	43129.05
546.83	42440.93
547.00	42876.27
547.17	42309.86
547.34	42735.84
547.50	43023.73
547.67	43065.86
547.84	42909.04
548.00	43421.62
548.17	43379.49
548.34	43632.27
548.51	43667.37
548.67	43798.44
548.84	43178.20
549.01	42850.53
549.18	43133.73
549.34	43283.53
549.51	43660.35
549.68	43723.55
549.84	43835.89
550.01	43995.05
550.18	43208.63
550.34	43646.31
550.51	43571.41
550.68	43655.67
550.84	43225.01
551.01	43997.39
551.18	43756.32
551.34	43477.79
551.51	43966.96
551.68	43751.63
551.84	43899.09
552.01	43779.72
552.18	44114.42
552.34	43688.44
552.51	44009.09
552.68	43866.32
552.84	44123.78
553.01	44287.62
553.18	44245.49
553.34	44423.37
553.51	43721.21
553.67	44385.92
553.84	44774.45
554.01	44818.92
554.17	44449.11
554.34	44388.26
554.51	44332.09
554.67	44456.14
554.84	44622.31
555.00	44177.61
555.17	44416.35
555.33	44755.72
555.50	44744.02
555.67	44325.07
555.83	44624.65
556.00	44762.75
556.16	44985.10
556.33	44470.18
556.50	44673.81
556.66	44397.62
556.83	44170.59
556.99	44502.95
557.16	44648.06
557.32	44748.70
557.49	45088.08
557.65	44456.14
557.82	44964.03
557.98	44987.44
558.15	44872.75
558.32	44889.13
558.48	44247.83
558.65	44390.60
558.81	44844.66
558.98	44706.57
559.14	44575.50
559.31	44772.11
559.47	44713.59
559.64	44725.30
559.80	44884.45
559.97	45052.97
560.13	44502.95
560.30	44790.83
560.46	45095.10
560.63	45563.21
560.79	45127.87
560.96	45258.94
561.12	45443.84
561.29	44816.58
561.45	44577.84
561.61	45514.06
561.78	44645.72
561.94	44851.69
562.11	45184.04
562.27	44680.83
562.44	45010.84
562.60	45408.73
562.77	45083.40
562.93	45125.53
563.10	45593.64
563.26	44905.52
563.42	45425.12
563.59	45092.76
563.75	45027.23
563.92	45464.91
564.08	45184.04
564.24	45581.93
564.41	45160.64
564.57	45539.80
564.74	45200.43
564.90	45322.13
565.07	45347.88
565.23	45560.87
565.39	45207.45
565.56	45488.31
565.72	45364.26
565.88	45490.65
566.05	45268.30
566.21	45301.07
566.38	45148.93
566.54	45265.96
566.70	45532.78
566.87	45148.93
567.03	45469.59
567.19	45581.93
567.36	45567.89
567.52	45317.45
567.68	45272.98
567.85	45380.65
568.01	45471.93
568.17	44921.90
568.34	45186.38
568.50	45434.48
568.66	45689.60
568.83	45036.59
568.99	45397.03
569.15	45514.06
569.32	45635.77
569.48	45464.91
569.64	45626.40
569.81	45755.13
569.97	45476.61
570.13	45577.25
570.30	44919.56
570.46	45247.24
570.62	45113.83
570.78	45450.86
570.95	45015.52
571.11	45741.09
571.27	45563.21
571.43	45301.07
571.60	45439.16
571.76	45483.63
571.92	45326.81
572.09	45848.75
572.25	45909.61
572.41	45897.91
572.57	45329.16
572.74	45942.38
572.90	45708.32
573.06	45677.90
573.22	45717.68
573.38	45743.43
573.55	45848.75
573.71	46057.06
573.87	45972.80
574.03	45633.42
574.20	45792.58
574.36	45420.44
574.52	45923.65
574.68	45291.71
574.84	45947.06
575.01	45422.78
575.17	45102.12
575.33	45483.63
575.49	45090.42
575.65	45759.81
575.82	46131.96
575.98	45617.04
576.14	45778.54
576.30	45734.07
576.46	45895.56
576.62	45610.02
576.79	45331.50
576.95	45242.56
577.11	45930.67
577.27	45970.46
577.43	45893.22
577.59	45652.15
577.75	45411.07
577.92	45464.91
578.08	45062.33
578.24	45539.80
578.40	45902.59
578.56	45972.80
578.72	45539.80
578.88	46038.34
579.04	45497.67
579.21	45614.70
579.37	45212.13
579.53	45794.92
579.69	45481.29
579.85	45624.06
580.01	45633.42
580.17	45682.58
580.33	45280.00
580.49	46085.15
580.65	45443.84
580.82	45741.09
580.98	45387.67
581.14	45495.33
581.30	46045.36
581.46	46237.28
581.62	45921.31
581.78	45502.35
581.94	45848.75
582.10	45968.12
582.26	45202.77
582.42	46033.66
582.58	45963.44
582.74	45734.07
582.90	46256.01
583.06	46080.47
583.22	46391.76
583.38	46366.01
583.54	46286.43
583.70	45839.39
583.86	46291.12
584.02	45773.86
584.18	46270.05
584.34	45647.47
584.50	45453.20
584.66	45731.73
584.82	45818.33
584.98	45574.91
585.14	45492.99
585.30	45361.92
585.46	45717.68
585.62	45425.12
585.78	45797.26
585.94	45677.90
586.10	45893.22
586.26	45780.88
586.42	45645.13
586.58	46113.23
586.74	46092.17
586.90	45572.57
587.06	45598.32
587.22	46059.40
587.38	45720.02
587.54	46103.87
587.70	46167.07
587.86	45654.49
588.02	45598.32
588.18	45801.94
588.34	45727.05
588.49	45029.57
588.65	45490.65
588.81	45535.12
588.97	45509.38
589.13	45500.01
589.29	45207.45
589.45	45785.56
589.61	46003.23
589.77	46237.28
589.93	46164.73
590.08	45851.09
590.24	46038.34
590.40	46192.81
590.56	46309.84
590.72	45897.91
590.88	45844.07
591.04	46129.62
591.20	46160.05
591.35	46220.90
591.51	46480.70
591.67	45605.34
591.83	45762.15
591.99	45563.21
592.15	45860.46
592.31	46293.46
592.46	45673.21
592.62	45776.20
592.78	46415.16
592.94	46099.19
593.10	46225.58
593.26	46188.13
593.41	45872.16
593.57	45841.73
593.73	45652.15
593.89	45933.01
594.05	46707.73
594.20	46466.66
594.36	45968.12
594.52	45972.80
594.68	46061.74
594.84	45710.66
594.99	45808.96
595.15	45794.92
595.31	46017.27
595.47	46309.84
595.62	46141.32
595.78	46333.24
595.94	46518.15
596.10	46644.54
596.25	45890.88
596.41	45759.81
596.57	45776.20
596.73	46277.07
596.88	46176.43
597.04	45691.94
597.20	45801.94
597.36	45989.19
597.51	46504.10
597.67	46050.04
597.83	45778.54
597.99	46340.27
598.14	45724.71
598.30	46117.92
598.46	45930.67
598.61	46021.95
598.77	46106.21
598.93	46415.16
599.09	45911.95
599.24	46553.26
599.40	46230.26
599.56	45834.71
599.71	46057.06
599.87	46209.20
600.03	46138.98
600.18	45808.96
600.34	45968.12
600.50	46419.84
600.65	46190.47
600.81	46377.72
600.97	46316.86
601.12	46330.90
601.28	46122.60
601.44	46000.89
601.59	46014.93
601.75	45638.11
601.91	45673.21
602.06	46146.00
602.22	46162.39
602.37	46241.96
602.53	46377.72
602.69	46646.88
602.84	45837.05
603.00	46160.05
603.16	45607.68
603.31	45598.32
603.47	45900.25
603.62	45949.40
603.78	45874.50
603.94	45958.76
604.09	46185.79
604.25	45895.56
604.40	45841.73
604.56	45846.41
604.71	46281.75
604.87	45947.06
605.03	45638.11
605.18	45598.32
605.34	45813.65
605.49	45380.65
605.65	45467.25
605.80	45928.33
605.96	45895.56
606.12	45986.85
606.27	45832.37
606.43	45570.23
606.58	45865.14
606.74	45647.47
606.89	45603.00
607.05	45591.30
607.20	45902.59
607.36	45593.64
607.51	46017.27
607.67	45958.76
607.82	45708.32
607.98	46038.34
608.13	46073.45
608.29	45876.84
608.44	45551.51
608.60	45659.17
608.75	45483.63
608.91	45893.22
609.06	45380.65
609.22	45776.20
609.37	45408.73
609.53	45385.33
609.68	45521.08
609.84	45579.59
609.99	45797.26
610.15	45581.93
610.30	45104.46
610.46	44865.73
610.61	45532.78
610.76	45394.69
610.92	45198.09
611.07	45546.82
611.23	45661.51
611.38	45397.03
611.54	45310.43
611.69	45022.54
611.84	45471.93
612.00	44994.46
612.15	44907.86
612.31	45069.36
612.46	45282.34
612.62	45408.73
612.77	45514.06
612.92	45090.42
613.08	45144.25
613.23	45008.50
613.39	44481.88
613.54	44779.13
613.69	44818.92
613.85	44949.99
614.00	44980.42
614.15	44804.88
614.31	44559.12
614.46	45034.25
614.62	44683.17
614.77	44992.12
614.92	44577.84
615.08	44507.63
615.23	44626.99
615.38	44610.61
615.54	44495.92
615.69	44671.46
615.84	44294.64
616.00	44685.51
616.15	44746.36
616.30	44484.22
616.46	44446.77
616.61	44563.80
616.76	44788.49
616.92	44114.42
617.07	44636.36
617.22	44259.53
617.37	44486.56
617.53	44814.24
617.68	44655.08
617.83	44552.10
617.99	44172.93
618.14	44587.21
618.29	44332.09
618.45	44226.76
618.60	44219.74
618.75	43995.05
618.90	43943.56
619.06	44184.63
619.21	44062.93
619.36	44568.48
619.51	43990.37
619.67	43711.84
619.82	43948.24
619.97	44009.09
620.12	43789.08
620.28	43433.32
620.43	43711.84
620.58	44156.55
620.73	44039.52
620.89	43707.16
621.04	43880.36
621.19	44151.87
621.34	43679.08
621.49	43889.73
621.65	43990.37
621.80	43934.20
621.95	43398.21
622.10	43737.59
622.25	43697.80
622.41	43648.65
622.56	43737.59
622.71	43805.47
622.86	43522.26
623.01	43608.86
623.16	43459.07
623.32	43524.60
623.47	43585.46
623.62	43578.43
623.77	43730.57
623.92	43239.06
624.07	43026.07
624.23	43014.37
624.38	43093.94
624.53	43023.73
624.68	43290.55
624.83	43311.61
624.98	43697.80
625.13	43005.00
625.29	42794.36
625.44	42822.44
625.59	42644.56
625.74	42831.80
625.89	42443.27
626.04	43100.97
626.19	42841.17
626.34	42850.53
626.49	42836.48
626.65	42693.71
626.80	42717.12
626.95	42602.43
627.10	42499.45
627.25	42939.47
627.40	42543.92
627.55	42197.52
627.70	42562.64
627.85	42548.60
628.00	42560.30
628.15	42473.70
628.30	42328.59
628.45	42344.97
628.60	42597.75
628.76	42546.26
628.91	42253.69
629.06	42361.36
629.21	42302.84
629.36	42080.49
629.51	41860.48
629.66	42263.05
629.81	41804.31
629.96	42246.67
630.11	42333.27
630.26	42227.95
630.41	41956.44
630.56	42096.88
630.71	41785.58
630.86	42061.77
631.01	41668.56
631.16	42026.66
631.31	41478.97
631.46	41619.41
631.61	41841.76
631.76	41804.31
631.91	41848.78
632.06	41904.95
632.21	41769.20
632.36	41621.75
632.51	41357.27
632.66	41663.88
632.81	41516.42
632.96	42213.90
633.10	41703.67
633.25	41509.40
633.40	41886.23
633.55	42033.68
633.70	41331.52
633.85	41563.23
634.00	41624.09
634.15	41593.66
634.30	41464.93
634.45	41490.68
634.60	41275.35
634.75	41099.81
634.90	41235.56
635.05	41029.59
635.19	41036.61
635.34	41455.57
635.49	41610.04
635.64	41095.13
635.79	40706.60
635.94	40912.56
636.09	41289.39
636.24	40732.34
636.39	40832.99
636.53	40931.29
636.68	41057.68
636.83	40687.87
636.98	41174.70
637.13	40980.44
637.28	41207.47
637.43	40961.72
637.57	41340.88
637.72	40699.58
637.87	40638.72
638.02	40783.83
638.17	40692.55
638.32	41141.94
638.46	40816.60
638.61	40418.71
638.76	40367.22
638.91	40458.50
639.06	40596.59
639.20	40938.31
639.35	40713.62
639.50	40552.12
639.65	40509.99
639.80	40762.77
639.94	40519.35
640.09	40301.68
640.24	40311.05
640.39	39716.55
640.54	40100.40
640.68	40231.47
640.83	39906.13
640.98	39880.39
641.13	39952.94
641.27	40453.82
641.42	40369.56
641.57	40051.25
641.72	39936.56
641.86	39763.36
642.01	39529.31
642.16	39887.41
642.31	39936.56
642.45	40165.93
642.60	39718.89
642.75	39470.79
642.90	39875.71
643.04	39690.80
643.19	39966.99
643.34	39702.51
643.48	39999.76
643.63	39681.44
643.78	39412.28
643.93	39817.19
644.07	39192.27
644.22	39651.02
644.37	39115.03
644.51	39255.46
644.66	39374.83
644.81	39550.37
644.95	39648.68
645.10	39597.18
645.25	39585.48
645.39	39054.18
645.54	39171.21
645.69	39267.17
645.83	39653.36
645.98	38965.24
646.13	39082.27
646.27	39269.51
646.42	39086.95
646.57	39086.95
646.71	39196.95
646.86	39136.10
647.00	39421.64
647.15	39274.19
647.30	39145.46
647.44	38857.57
647.59	39054.18
647.74	38752.25
647.88	38717.14
648.03	38845.87
648.17	38768.63
648.32	38888.00
648.47	38731.18
648.61	38424.57
648.76	39283.55
648.90	38733.53
649.05	38356.70
649.20	38852.89
649.34	38312.23
649.49	38506.49
649.63	38487.77
649.78	38719.48
649.92	38340.32
650.07	38663.31
650.21	38548.62
650.36	38852.89
650.51	38588.41
650.65	39328.02
650.80	39185.25
650.94	38616.50
651.09	38616.50
651.23	38185.84
651.38	38356.70
651.52	38284.14
651.67	38246.69
651.81	38089.88
651.96	38103.92
652.10	37942.42
652.25	38352.02
652.39	38242.01
652.54	38363.72
652.68	38092.22
652.83	38117.96
652.97	38265.42
653.12	38162.43
653.26	37762.20
653.41	37839.44
653.55	37460.27
653.70	38337.98
653.84	38073.49
653.99	37724.75
654.13	37649.86
654.27	37827.74
654.42	37881.57
654.56	37809.01
654.71	37886.25
654.85	37687.31
655.00	37944.76
655.14	37387.72
655.29	37479.00
655.43	37551.56
655.57	37156.00
655.72	37251.97
655.86	37493.04
656.01	36634.06
656.15	36591.94
656.30	36753.43
656.44	36797.90
656.58	37413.46
656.73	36727.69
656.87	36809.61
657.01	37017.91
657.16	37148.98
657.30	36676.19
657.45	36554.49
657.59	37240.26
657.73	36891.52
657.88	36837.69
658.02	37266.01
658.16	37053.02
658.31	37504.74
658.45	37031.96
658.60	36889.18
658.74	37031.96
658.88	36811.95
659.03	36432.78
659.17	36439.80
659.31	36563.85
659.46	36535.76
659.60	36540.44
659.74	36058.29
659.89	36329.80
660.03	36620.02
660.17	36577.89
660.32	36278.30
660.46	36734.71
660.60	36247.88
660.74	36245.54
660.89	36503.00
661.03	36107.44
661.17	36561.51
661.32	35791.47
661.46	36098.08
661.60	35765.73
661.74	35688.49
661.89	35831.26
662.03	35995.10
662.17	35847.64
662.31	36112.13
662.46	35707.21
662.60	36341.50
662.74	35468.48
662.88	35428.69
663.03	35323.36
663.17	35566.78
663.31	35072.93
663.45	35548.06
663.60	35318.68
663.74	35395.92
663.88	35297.62
664.02	35091.65
664.17	35225.06
664.31	34686.74
664.45	34873.98
664.59	35028.46
664.73	34852.92
664.88	34639.93
665.02	34546.31
665.16	34639.93
665.30	34352.04
665.44	34267.78
665.59	34366.09
665.73	34429.28
665.87	34555.67
666.01	34412.90
666.15	34312.25
666.29	34600.14
666.44	34363.75
666.58	34398.85
666.72	34139.05
666.86	34834.19
667.00	34110.97
667.14	34469.07
667.28	34075.86
667.43	33713.08
667.57	34298.21
667.71	33853.51
667.85	34087.56
667.99	34148.42
668.13	34225.65
668.27	34328.64
668.41	33778.61
668.56	33453.28
668.70	33476.68
668.84	33060.07
668.98	33301.14
669.12	33743.50
669.26	33294.12
669.40	33151.35
669.54	32842.40
669.68	33263.69
669.82	32673.88
669.96	33053.05
670.10	32795.59
670.25	33076.45
670.39	32872.82
670.53	32598.98
670.67	32582.60
670.81	32769.84
670.95	32954.74
671.09	32311.10
671.23	32491.32
671.37	32507.70
671.51	32512.38
671.65	32409.40
671.79	32055.98
671.93	32102.79
672.07	31850.01
672.21	32182.37
672.35	32048.96
672.49	31913.20
672.63	31983.42
672.77	31751.71
672.91	31559.78
673.05	31573.83
673.19	31674.47
673.33	31524.68
673.47	31213.38
673.61	31278.92
673.75	31281.26
673.89	30916.14
674.03	30923.16
674.17	31068.27
674.31	31075.29
674.45	30995.71
674.59	30836.56
674.73	31295.30
674.87	30993.37
675.01	30829.54
675.15	30761.66
675.29	30693.79
675.43	30263.13
675.56	30611.87
675.70	30635.27
675.84	30808.47
675.98	29469.69
676.12	29937.79
676.26	30450.37
676.40	30424.62
676.54	30153.12
676.68	29848.85
676.82	29544.58
676.96	29750.55
677.10	29591.39
677.23	29575.01
677.37	29511.81
677.51	29434.58
677.65	29462.66
677.79	28751.14
677.93	29003.92
678.07	28744.12
678.21	28467.94
678.34	28952.43
678.48	28772.21
678.62	28486.66
678.76	28098.13
678.90	28161.33
679.04	28456.23
679.18	28259.63
679.31	27936.63
679.45	27789.18
679.59	27601.94
679.73	28011.53
679.87	27433.42
680.00	27716.62
680.14	27658.11
680.28	27653.43
680.42	27208.73
680.56	27356.18
680.70	27538.74
680.83	27101.06
680.97	27051.91
681.11	27096.38
681.25	27304.69
681.39	26962.97
681.52	26941.91
681.66	26684.45
681.80	26581.46
681.94	26593.17
682.07	26462.10
682.21	26253.79
682.35	26162.51
682.49	26333.37
682.62	25891.01
682.76	25785.68
682.90	25731.85
683.04	25743.55
683.17	25710.78
683.31	25287.15
683.45	25809.09
683.59	25703.76
683.72	25736.53
683.86	25568.01
684.00	25118.63
684.13	25202.89
684.27	24966.49
684.41	24788.61
684.55	25092.88
684.68	24868.19
684.82	25071.82
684.96	24676.27
685.09	24676.27
685.23	24774.57
685.37	24517.11
685.50	24542.86
685.64	24463.28
685.78	24465.62
685.91	24308.80
686.05	24018.58
686.19	23559.83
686.32	23917.93
686.46	23503.66
686.60	23140.88
686.73	22862.35
686.87	23042.57
687.01	23370.25
687.14	22843.63
687.28	22377.86
687.42	22803.84
687.55	22883.42
687.69	23047.26
687.82	22794.48
687.96	22913.84
688.10	22317.01
688.23	22284.24
688.37	22750.01
688.50	22464.46
688.64	22349.78
688.78	22471.48
688.91	21848.90
689.05	21766.98
689.18	21846.56
689.32	21771.66
689.46	22106.36
689.59	22195.30
689.73	21935.50
689.86	21685.06
690.00	21685.06
690.13	21724.85
690.27	21338.66
690.41	21118.65
690.54	21383.13
690.68	21310.58
690.81	21109.29
690.95	21006.31
691.08	21034.39
691.22	20716.08
691.35	20877.58
691.49	21048.44
691.62	20594.37
691.76	20816.72
691.89	20566.29
692.03	20460.96
692.16	20381.38
692.30	20407.13
692.43	20322.87
692.57	20063.07
692.70	19962.43
692.84	19611.35
692.97	19632.41
693.11	19660.50
693.24	19901.58
693.38	19410.06
693.51	19627.73
693.65	19309.42
693.78	19484.96
693.92	19241.54
694.05	19255.59
694.19	19133.88
694.32	19328.14
694.45	19056.64
694.59	19073.03
694.72	18808.54
694.86	18663.43
694.99	18597.90
695.13	18824.93
695.26	18537.04
695.39	18621.30
695.53	18434.06
695.66	18583.85
695.80	18515.98
695.93	18244.48
696.07	18295.97
696.20	18188.30
696.33	18092.34
696.47	17877.01
696.60	17804.46
696.73	17912.12
696.87	17607.85
697.00	17729.56
697.14	17532.95
697.27	17205.28
697.40	17315.28
697.54	17432.31
697.67	16837.81
697.80	16954.84
697.94	17025.06
698.07	16898.67
698.21	16919.73
698.34	16933.78
698.47	16996.97
698.61	16886.97
698.74	16699.72
698.87	16563.97
699.01	16416.52
699.14	16425.88
699.27	16123.95
699.40	16343.96
699.54	16170.76
699.67	15939.05
699.80	15896.92
699.94	15829.04
700.07	16149.70
700.20	15847.77
700.34	16063.10
700.47	15789.25
700.60	15826.70
700.73	15702.65
700.87	15936.71
701.00	15372.64
701.13	15517.75
701.26	15548.18
701.40	15021.56
701.53	15307.10
701.66	15213.48
701.79	15124.54
701.93	14839.00
702.06	14817.93
702.19	14902.19
702.32	14789.85
702.46	14878.79
702.59	14927.94
702.72	14707.93
702.85	14834.32
702.99	14516.00
703.12	14384.93
703.25	14401.32
703.38	14328.76
703.51	14293.65
703.65	14153.22
703.78	13984.70
703.91	13865.33
704.04	13919.17
704.17	13891.08
704.31	13818.52
704.44	13650.00
704.57	13404.25
704.70	13757.67
704.83	13593.83
704.96	13579.79
705.10	13558.72
705.23	13432.33
>>>>>End Processed Spectral Data<<<<<
