SpectraSuite Data File
++++++++++++++++++++++++++++++++++++
Date: Fri Oct 25 10:47:58 EDT 2013
User: price-jones
Dark Spectrum Present: No
Reference Spectrum Present: No
Number of Sampled Component Spectra: 1
Spectrometers: USB2+H05261
Integration Time (usec): 100000 (USB2+H05261)
Spectra Averaged: 1 (USB2+H05261)
Boxcar Smoothing: 0 (USB2+H05261)
Correct for Electrical Dark: No (USB2+H05261)
Strobe/Lamp Enabled: No (USB2+H05261)
Correct for Detector Non-linearity: No (USB2+H05261)
Correct for Stray Light: No (USB2+H05261)
Number of Pixels in Processed Spectrum: 2048
>>>>>Begin Processed Spectral Data<<<<<
365.73	114.69
365.92	114.69
366.12	114.69
366.32	107.66
366.52	72.56
366.72	60.85
366.91	37.45
367.11	102.98
367.31	18.72
367.51	60.85
367.70	65.54
367.90	124.05
368.10	0.00
368.30	114.69
368.49	30.43
368.69	117.03
368.89	65.54
369.09	70.22
369.28	65.54
369.48	53.83
369.68	70.22
369.87	131.07
370.07	149.79
370.27	131.07
370.47	271.50
370.66	344.06
370.86	454.06
371.06	451.72
371.25	421.30
371.45	404.91
371.65	409.59
371.84	454.06
372.04	367.46
372.24	444.70
372.44	484.49
372.63	458.74
372.83	444.70
373.03	543.00
373.22	489.17
373.42	517.26
373.62	538.32
373.81	519.60
374.01	479.81
374.21	498.53
374.40	507.90
374.60	519.60
374.79	517.26
374.99	470.45
375.19	514.92
375.38	564.07
375.58	510.24
375.78	540.66
375.97	566.41
376.17	657.69
376.37	514.92
376.56	622.58
376.76	648.33
376.95	622.58
377.15	641.31
377.35	564.07
377.54	559.39
377.74	653.01
377.93	587.47
378.13	608.54
378.33	669.39
378.52	624.92
378.72	643.65
378.91	610.88
379.11	608.54
379.31	568.75
379.50	660.03
379.70	610.88
379.89	664.71
380.09	594.50
380.28	622.58
380.48	592.16
380.68	585.13
380.87	601.52
381.07	582.79
381.26	730.25
381.46	662.37
381.65	624.92
381.85	645.99
382.04	624.92
382.24	692.80
382.43	699.82
382.63	631.94
382.83	671.73
383.02	720.88
383.22	718.54
383.41	688.12
383.61	748.97
383.80	767.70
384.00	720.88
384.19	716.20
384.39	748.97
384.58	744.29
384.78	809.83
384.97	840.25
385.17	770.04
385.36	674.07
385.56	746.63
385.75	734.93
385.95	753.65
386.14	760.67
386.34	805.14
386.53	770.04
386.72	793.44
386.92	847.27
387.11	805.14
387.31	830.89
387.50	760.67
387.70	770.04
387.89	809.83
388.09	847.27
388.28	802.80
388.48	858.98
388.67	844.93
388.86	833.23
389.06	891.74
389.25	903.45
389.45	882.38
389.64	814.51
389.84	905.79
390.03	931.53
390.22	884.72
390.42	884.72
390.61	1004.09
390.81	896.43
391.00	931.53
391.19	931.53
391.39	961.96
391.58	1020.47
391.78	1071.97
391.97	1048.56
392.16	905.79
392.36	1011.11
392.55	950.26
392.75	915.15
392.94	983.02
393.13	992.39
393.33	1004.09
393.52	1039.20
393.71	980.68
393.91	1025.15
394.10	1020.47
394.29	1043.88
394.49	1050.90
394.68	1011.11
394.88	1097.71
395.07	1153.88
395.26	1144.52
395.46	1111.75
395.65	1132.82
395.84	1125.80
396.04	1156.22
396.23	1114.10
396.42	1132.82
396.62	1081.33
396.81	1186.65
397.00	1111.75
397.19	1219.42
397.39	1188.99
397.58	1245.16
397.77	1219.42
397.97	1294.32
398.16	1266.23
398.35	1280.27
398.55	1263.89
398.74	1170.27
398.93	1291.98
399.12	1343.47
399.32	1331.76
399.51	1275.59
399.70	1380.92
399.90	1376.24
400.09	1387.94
400.28	1451.13
400.47	1357.51
400.67	1430.07
400.86	1437.09
401.05	1427.73
401.24	1434.75
401.44	1535.39
401.63	1514.33
401.82	1579.86
402.01	1521.35
402.21	1514.33
402.40	1516.67
402.59	1509.65
402.78	1535.39
402.97	1514.33
403.17	1542.41
403.36	1554.12
403.55	1497.94
403.74	1554.12
403.93	1675.82
404.13	1680.50
404.32	1668.80
404.51	1654.76
404.70	1617.31
404.89	1699.23
405.09	1774.13
405.28	1746.04
405.47	1638.38
405.66	1586.88
405.85	1750.72
406.05	1661.78
406.24	1748.38
406.43	1734.34
406.62	1785.83
406.81	1823.28
407.00	1762.42
407.20	1813.92
407.39	1806.89
407.58	1888.81
407.77	1809.23
407.96	1874.77
408.15	1928.60
408.34	1975.41
408.54	1987.11
408.73	2038.61
408.92	1963.71
409.11	2080.74
409.30	2052.65
409.49	2026.90
409.68	2045.63
409.87	2064.35
410.07	2083.08
410.26	2045.63
410.45	2165.00
410.64	2092.44
410.83	2197.76
411.02	2204.78
411.21	2265.64
411.40	2265.64
411.59	2275.00
411.78	2293.72
411.98	2293.72
412.17	2345.22
412.36	2267.98
412.55	2289.04
412.74	2331.17
412.93	2485.65
413.12	2389.69
413.31	2506.71
413.50	2565.23
413.69	2377.98
413.88	2569.91
414.07	2579.27
414.26	2443.52
414.45	2586.29
414.64	2590.97
414.83	2670.55
415.02	2623.74
415.22	2768.85
415.41	2836.73
415.60	2761.83
415.79	2792.26
415.98	2787.58
416.17	2799.28
416.36	2764.17
416.55	2937.37
416.74	2909.29
416.93	2825.03
417.12	2913.97
417.31	2984.18
417.50	2965.46
417.69	3124.62
417.88	3129.30
418.07	3016.95
418.26	2998.23
418.45	3054.40
418.64	3164.40
418.83	3096.53
419.02	3117.59
419.21	3133.98
419.39	3215.90
419.58	3000.57
419.77	3185.47
419.96	3283.77
420.15	3403.14
420.34	3220.58
420.53	3260.37
420.72	3353.99
420.91	3304.84
421.10	3300.16
421.29	3302.50
421.48	3225.26
421.67	3370.37
421.86	3452.29
422.05	3407.82
422.24	3363.35
422.43	3375.05
422.61	3452.29
422.80	3482.72
422.99	3541.23
423.18	3403.14
423.37	3440.59
423.56	3389.10
423.75	3391.44
423.94	3300.16
424.13	3358.67
424.32	3332.92
424.50	3543.57
424.69	3499.10
424.88	3555.27
425.07	3482.72
425.26	3529.53
425.45	3501.44
425.64	3480.38
425.83	3487.40
426.01	3590.38
426.20	3524.85
426.39	3578.68
426.58	3566.98
426.77	3648.90
426.96	3548.25
427.15	3564.64
427.33	3555.27
427.52	3632.51
427.71	3681.66
427.90	3583.36
428.09	3684.00
428.28	3761.24
428.46	3700.39
428.65	3756.56
428.84	3768.26
429.03	3836.14
429.22	3674.64
429.40	3866.56
429.59	3723.79
429.78	3660.60
429.97	3627.83
430.16	3754.22
430.34	3737.84
430.53	3838.48
430.72	3789.33
430.91	3719.11
431.10	3971.89
431.28	4119.34
431.47	4053.81
431.66	4217.65
431.85	4086.58
432.03	4184.88
432.22	4306.59
432.41	4184.88
432.60	4184.88
432.79	4182.54
432.97	4079.55
433.16	4259.78
433.35	4241.05
433.54	4173.18
433.72	4245.73
433.91	4262.12
434.10	4329.99
434.28	4337.01
434.47	4308.93
434.66	4301.90
434.85	4334.67
435.03	4482.13
435.22	4477.44
435.41	4479.79
435.59	4521.92
435.78	4571.07
435.97	4540.64
436.16	4521.92
436.34	4456.38
436.53	4512.55
436.72	4645.96
436.90	4617.88
437.09	4713.84
437.28	4629.58
437.46	4655.33
437.65	4662.35
437.84	4615.54
438.02	4772.35
438.21	4561.70
438.40	4587.45
438.58	4826.18
438.77	4870.65
438.96	4809.80
439.14	4959.60
439.33	5064.92
439.52	4973.64
439.70	4971.30
439.89	5144.50
440.08	5069.60
440.26	5200.67
440.45	4973.64
440.63	5163.22
440.82	5357.49
441.01	5320.04
441.19	5298.97
441.38	5348.12
441.57	5280.25
441.75	5514.30
441.94	5593.88
442.12	5467.49
442.31	5654.73
442.50	5617.29
442.68	5565.79
442.87	5694.52
443.05	5755.38
443.24	5664.10
443.43	5717.93
443.61	5872.40
443.80	5809.21
443.98	5631.33
444.17	5537.71
444.35	5865.38
444.54	5785.80
444.73	5678.14
444.91	5701.54
445.10	5633.67
445.28	5657.07
445.47	5771.76
445.65	5734.31
445.84	5797.51
446.02	5769.42
446.21	5874.74
446.39	5919.21
446.58	5942.62
446.77	5942.62
446.95	5671.12
447.14	5813.89
447.32	5769.42
447.51	5860.70
447.69	5930.92
447.88	5736.65
448.06	6115.82
448.25	5898.15
448.43	5977.73
448.62	6071.35
448.80	6033.90
448.99	5951.98
449.17	5951.98
449.36	5916.87
449.54	6104.12
449.73	6321.79
449.91	6181.35
450.10	6186.04
450.28	6326.47
450.46	6296.04
450.65	6408.39
450.83	6221.14
451.02	6333.49
451.20	6389.66
451.39	6576.91
451.57	6443.49
451.76	6237.53
451.94	6366.26
452.13	6424.77
452.31	6354.55
452.49	6349.87
452.68	6604.99
452.86	6480.94
453.05	6602.65
453.23	6607.33
453.42	6363.92
453.60	6427.11
453.78	6597.97
453.97	6459.88
454.15	6509.03
454.34	6513.71
454.52	6675.21
454.70	6698.61
454.89	6703.29
455.07	6867.13
455.26	6663.51
455.44	6841.39
455.62	6771.17
455.81	6881.18
455.99	6726.70
456.17	6930.33
456.36	6939.69
456.54	6981.82
456.73	7157.36
456.91	7316.51
457.09	7337.58
457.28	7274.38
457.46	7075.44
457.64	7349.28
457.83	7192.47
458.01	7250.98
458.19	7501.42
458.38	7283.75
458.56	7307.15
458.74	7377.37
458.93	7370.35
459.11	7578.65
459.29	7466.31
459.48	7634.83
459.66	7543.55
459.84	7300.13
460.03	7686.32
460.21	7606.74
460.39	7510.78
460.57	7531.84
460.76	7709.72
460.94	7721.43
461.12	7749.51
461.31	7866.54
461.49	7709.72
461.67	7648.87
461.85	7962.50
462.04	7770.58
462.22	8248.05
462.40	8212.94
462.59	8081.87
462.77	8018.68
462.95	8079.53
463.13	8086.55
463.32	7976.55
463.50	8116.98
463.68	8112.30
463.86	8095.91
464.05	7957.82
464.23	8023.36
464.41	8259.75
464.59	7918.03
464.78	8271.45
464.96	8238.69
465.14	8044.42
465.32	8285.50
465.50	8372.10
465.69	8161.45
465.87	8327.63
466.05	8219.96
466.23	8219.96
466.41	8238.69
466.60	8446.99
466.78	8217.62
466.96	8311.24
467.14	8353.37
467.32	8271.45
467.51	8634.24
467.69	8297.20
467.87	8510.19
468.05	8435.29
468.23	8386.14
468.41	8444.65
468.60	8461.04
468.78	8685.73
468.96	8521.89
469.14	8709.13
469.32	8812.12
469.50	8645.94
469.69	8727.86
469.87	8901.06
470.05	8858.93
470.23	8847.22
470.41	8781.69
470.59	9121.07
470.77	8926.80
470.95	8847.22
471.14	9114.05
471.32	9060.21
471.50	9275.54
471.68	9078.94
471.86	9263.84
472.04	9142.13
472.22	9427.68
472.40	9308.31
472.58	9343.42
472.77	9469.81
472.95	9420.66
473.13	9755.35
473.31	9441.72
473.49	9420.66
473.67	9607.90
473.85	9458.10
474.03	9891.10
474.21	9942.60
474.39	9944.94
474.57	9954.30
474.75	10005.79
474.93	10108.77
475.12	10083.03
475.30	10286.65
475.48	10054.94
475.66	10090.05
475.84	10363.89
476.02	10401.34
476.20	10298.36
476.38	10370.91
476.56	10633.05
476.74	10675.18
476.92	10621.35
477.10	10614.33
477.28	10731.36
477.46	10911.58
477.64	11019.24
477.82	11012.22
478.00	11229.89
478.18	11363.30
478.36	11353.94
478.54	11393.73
478.72	11353.94
478.90	11719.06
479.08	11658.21
479.26	11702.68
479.44	11920.35
479.62	11934.39
479.80	12388.46
479.98	11929.71
480.16	12615.49
480.34	12161.42
480.52	12250.36
480.70	12400.16
480.88	12273.77
481.06	12362.71
481.24	12582.72
481.41	12950.18
481.59	12781.67
481.77	12922.10
481.95	13041.46
482.13	13217.01
482.31	13348.08
482.49	13355.10
482.67	13167.85
482.85	13474.46
483.03	13511.91
483.21	13806.82
483.39	13767.03
483.57	13654.69
483.74	13825.54
483.92	13973.00
484.10	14237.48
484.28	14244.50
484.46	14626.01
484.64	14920.92
484.82	14443.45
485.00	14539.41
485.18	14981.77
485.35	14853.04
485.53	14867.08
485.71	14778.14
485.89	15267.31
486.07	15442.85
486.25	15405.41
486.43	15147.95
486.61	15592.65
486.78	15866.49
486.96	15887.56
487.14	16154.38
487.32	16411.84
487.50	16622.48
487.68	16407.16
487.85	16580.36
488.03	16774.62
488.21	16985.27
488.39	16868.24
488.57	17078.89
488.75	17149.11
488.92	17507.21
489.10	17432.31
489.28	17441.67
489.46	17860.63
489.64	17987.02
489.81	18082.98
489.99	18101.70
490.17	18225.75
490.35	18455.12
490.53	18230.43
490.70	18672.79
490.88	18387.25
491.06	18867.06
491.24	18595.56
491.41	18588.53
491.59	19161.97
491.77	19157.28
491.95	19255.59
492.13	19520.07
492.30	19709.65
492.48	19592.62
492.66	20067.75
492.84	19962.43
493.01	20046.69
493.19	19817.32
493.37	20123.93
493.54	20315.85
493.72	20390.75
493.90	20837.79
494.08	20606.08
494.25	21135.04
494.43	21043.76
494.61	21261.43
494.79	21652.30
494.96	21333.98
495.14	21364.41
495.32	21912.10
495.49	21968.27
495.67	21827.84
495.85	21851.24
496.02	22270.20
496.20	22246.79
496.38	22059.55
496.55	22396.59
496.73	22813.20
496.91	22780.43
497.09	22698.52
497.26	22897.46
497.44	22576.81
497.62	23199.39
497.79	23267.27
497.97	23168.96
498.14	23248.54
498.32	23641.75
498.50	23669.84
498.67	23875.80
498.85	23807.93
499.03	23908.57
499.20	23901.55
499.38	24320.51
499.56	24020.92
499.73	24273.70
499.91	24397.74
500.08	24645.84
500.26	24247.95
500.44	24329.87
500.61	24694.99
500.79	24320.51
500.97	24587.33
501.14	24936.07
501.32	25034.37
501.49	25118.63
501.67	25181.82
501.84	25259.06
502.02	24971.18
502.20	25352.68
502.37	25619.50
502.55	25631.21
502.72	25607.80
502.90	25413.54
503.07	26043.14
503.25	26043.14
503.43	25933.14
503.60	25935.48
503.78	26223.36
503.95	25708.44
504.13	25968.24
504.30	26506.57
504.48	25881.64
504.65	26424.65
504.83	26719.56
505.01	27028.51
505.18	26717.22
505.36	26944.25
505.53	27044.89
505.71	27108.08
505.88	27236.81
506.06	27122.13
506.23	27452.14
506.41	27005.10
506.58	27379.59
506.76	27660.45
506.93	27700.24
507.11	27772.80
507.28	27344.48
507.46	27702.58
507.63	27676.83
507.81	27985.79
507.98	28072.39
508.16	28041.96
508.33	28212.82
508.50	28311.12
508.68	28556.88
508.85	28407.08
509.03	28371.97
509.20	28840.08
509.38	28613.05
509.55	28938.38
509.73	28575.60
509.90	29039.03
510.08	29013.28
510.25	28922.00
510.42	29071.79
510.60	29256.70
510.77	29530.54
510.95	29603.10
511.12	29453.30
511.30	29956.52
511.47	29975.24
511.64	29972.90
511.82	30192.91
511.99	29479.05
512.17	30047.80
512.34	29912.05
512.51	30089.93
512.69	30216.32
512.86	30052.48
513.04	30429.30
513.21	30082.91
513.38	30164.82
513.56	30508.88
513.73	30363.77
513.90	30656.34
514.08	30710.17
514.25	30920.82
514.43	30960.61
514.60	30799.11
514.77	30976.99
514.95	30991.03
515.12	31175.94
515.29	31061.25
515.47	31318.71
515.64	31852.35
515.81	31356.16
515.99	31524.68
516.16	31503.61
516.33	31409.99
516.51	31646.38
516.68	31248.49
516.85	31400.63
517.03	31651.06
517.20	31697.88
517.37	32116.83
517.54	32252.58
517.72	32275.99
517.89	31896.82
518.06	32109.81
518.24	31744.69
518.41	31964.70
518.58	32137.90
518.75	32332.16
518.93	32334.50
519.10	32751.12
519.27	32477.27
519.45	32669.20
519.62	33116.24
519.79	32606.00
519.96	32769.84
520.14	33099.86
520.31	33127.94
520.48	33359.66
520.65	33270.72
520.83	33663.93
521.00	33305.82
521.17	33284.76
521.34	33591.37
521.52	33759.89
521.69	33956.49
521.86	33551.58
522.03	34007.98
522.20	33614.77
522.38	34267.78
522.55	34061.82
522.72	34291.19
522.89	34157.78
523.07	34237.36
523.24	33743.50
523.41	34394.17
523.58	34574.39
523.75	35213.36
523.92	34595.46
524.10	34717.17
524.27	34710.14
524.44	35063.57
524.61	35192.30
524.78	34607.16
524.96	34995.69
525.13	34824.83
525.30	35566.78
525.47	35115.06
525.64	35400.60
525.81	35587.85
525.98	35140.80
526.16	35108.04
526.33	35164.21
526.50	35264.85
526.67	35353.79
526.84	35196.98
527.01	35426.35
527.18	35793.81
527.36	35559.76
527.53	36037.23
527.70	35775.09
527.87	36304.05
528.04	35920.20
528.21	35882.75
528.38	36006.80
528.55	36280.64
528.72	36261.92
528.89	36512.36
529.07	36580.23
529.24	35756.36
529.41	36364.90
529.58	36381.29
529.75	36500.65
529.92	36823.65
530.09	36706.62
530.26	36423.42
530.43	36833.01
530.60	36149.57
530.77	36701.94
530.94	36985.15
531.11	36524.06
531.28	36732.37
531.46	37167.71
531.63	37469.64
531.80	37090.47
531.97	36687.90
532.14	36987.49
532.31	36968.76
532.48	37333.89
532.65	37280.05
532.82	37216.86
532.99	37656.88
533.16	37500.06
533.33	37266.01
533.50	37261.33
533.67	37448.57
533.84	37504.74
534.01	38181.16
534.18	37928.38
534.35	38148.39
534.52	37642.84
534.69	37668.58
534.86	38162.43
535.03	37701.35
535.20	37958.81
535.37	38073.49
535.54	38340.32
535.71	37699.01
535.88	38007.96
536.05	38485.43
536.22	38288.82
536.38	38316.91
536.55	37972.85
536.72	38433.94
536.89	38316.91
537.06	38227.97
537.23	39119.71
537.40	38117.96
537.57	38557.99
537.74	38815.44
537.91	39014.39
538.08	39009.71
538.25	38808.42
538.42	38452.66
538.59	39248.44
538.75	38312.23
538.92	39196.95
539.09	38817.78
539.26	39402.92
539.43	39173.55
539.60	38972.26
539.77	39402.92
539.94	39365.47
540.11	39236.74
540.28	39026.09
540.44	38955.88
540.61	39559.73
540.78	39243.76
540.95	39505.90
541.12	39412.28
541.29	39440.37
541.46	39407.60
541.62	39793.79
541.79	39842.94
541.96	39021.41
542.13	39466.11
542.30	39653.36
542.47	39690.80
542.63	40081.67
542.80	39775.06
542.97	40472.54
543.14	40212.74
543.31	40336.79
543.48	40313.39
543.64	40872.78
543.81	40912.56
543.98	40311.05
544.15	40212.74
544.32	40533.40
544.48	40748.73
544.65	40407.01
544.82	40421.05
544.99	40135.51
545.16	40680.85
545.32	40018.48
545.49	40959.38
545.66	40570.85
545.83	41064.70
546.00	40804.90
546.16	41029.59
546.33	41057.68
546.50	40641.06
546.67	41359.61
546.83	40793.20
547.00	40811.92
547.17	40914.90
547.34	41254.28
547.50	41233.22
547.67	41308.11
547.84	41233.22
548.00	41598.34
548.17	41146.62
548.34	41275.35
548.51	41846.44
548.67	41443.87
548.84	41614.72
549.01	41404.08
549.18	41621.75
549.34	41158.32
549.51	41532.81
549.68	41698.98
549.84	41869.84
550.01	41680.26
550.18	41769.20
550.34	41516.42
550.51	41640.47
550.68	41605.36
550.84	41551.53
551.01	41979.85
551.18	42267.73
551.34	42026.66
551.51	41972.83
551.68	42150.71
551.84	42213.90
552.01	41940.06
552.18	41881.55
552.34	42110.92
552.51	42426.89
552.68	41989.21
552.84	42555.62
553.01	42593.07
553.18	42719.46
553.34	42548.60
553.51	41970.49
553.67	42293.48
553.84	42803.72
554.01	42433.91
554.17	42691.37
554.34	42478.38
554.51	42698.39
554.67	42939.47
554.84	42494.77
555.00	42635.20
555.17	42422.21
555.33	42454.98
555.50	42784.99
555.67	42691.37
555.83	42349.65
556.00	42944.15
556.16	43419.28
556.33	42871.59
556.50	42625.84
556.66	42976.92
556.83	42431.57
556.99	42899.68
557.16	43484.81
557.32	42958.19
557.49	42735.84
557.65	43269.48
557.82	42431.57
557.98	42700.73
558.15	43122.03
558.32	43320.98
558.48	43089.26
558.65	43161.82
558.81	42796.70
558.98	43107.99
559.14	43225.01
559.31	43274.16
559.47	43533.96
559.64	43384.17
559.80	43234.38
559.97	43489.49
560.13	43332.68
560.30	43192.25
560.46	43578.43
560.63	43206.29
560.79	43292.89
560.96	43346.72
561.12	43400.55
561.29	43571.41
561.45	43461.41
561.61	43409.92
561.78	43503.54
561.94	43311.61
562.11	43540.99
562.27	43440.34
562.44	43590.14
562.60	43665.03
562.77	43512.90
562.93	43686.10
563.10	43655.67
563.26	43295.23
563.42	43997.39
563.59	43615.88
563.75	43782.06
563.92	43725.89
564.08	43725.89
564.24	44100.37
564.41	43878.02
564.57	43646.31
564.74	44102.71
564.90	43896.75
565.07	43833.55
565.23	43927.17
565.39	43826.53
565.56	43999.73
565.72	43934.20
565.88	43758.66
566.05	43782.06
566.21	43913.13
566.38	43786.74
566.54	43817.17
566.70	43934.20
566.87	44444.43
567.03	43868.66
567.19	44481.88
567.36	44123.78
567.52	43515.24
567.68	44219.74
567.85	44002.07
568.01	43943.56
568.17	43793.76
568.34	43863.98
568.50	43775.04
568.66	43887.39
568.83	44472.52
568.99	43555.03
569.15	44240.81
569.32	43859.30
569.48	43964.62
569.64	44226.76
569.81	44587.21
569.97	44102.71
570.13	43882.70
570.30	43943.56
570.46	43810.15
570.62	43875.68
570.78	43955.26
570.95	43969.30
571.11	44282.94
571.27	44306.34
571.43	43744.61
571.60	44814.24
571.76	44528.69
571.92	44439.75
572.09	44093.35
572.25	44037.18
572.41	44222.08
572.57	44076.97
572.74	44498.26
572.90	44215.06
573.06	44385.92
573.22	44479.54
573.38	44135.48
573.55	44011.43
573.71	44444.43
573.87	44140.16
574.03	43831.21
574.20	44030.16
574.36	44360.17
574.52	44458.48
574.68	44421.03
574.84	44081.65
575.01	44652.74
575.17	44327.41
575.33	44114.42
575.49	44301.66
575.65	44320.38
575.82	45036.59
575.98	44390.60
576.14	44638.70
576.30	44739.34
576.46	43735.25
576.62	43999.73
576.79	44512.31
576.95	43746.95
577.11	44514.65
577.27	44570.82
577.43	44456.14
577.59	44364.85
577.75	44034.84
577.92	44041.86
578.08	44175.27
578.24	44198.68
578.40	44624.65
578.56	44500.61
578.72	44776.79
578.88	44556.78
579.04	44573.16
579.21	44308.68
579.37	44208.04
579.53	44142.50
579.69	44123.78
579.85	44692.53
580.01	44446.77
580.17	44748.70
580.33	44587.21
580.49	44732.32
580.65	44648.06
580.82	44451.45
580.98	44421.03
581.14	44039.52
581.30	44715.93
581.46	44301.66
581.62	44376.56
581.78	44423.37
581.94	44849.35
582.10	44729.98
582.26	44486.56
582.42	44421.03
582.58	44570.82
582.74	44112.08
582.90	44603.59
583.06	44645.72
583.22	44835.30
583.38	45013.18
583.54	45254.26
583.70	44285.28
583.86	44680.83
584.02	44086.33
584.18	44584.86
584.34	44631.68
584.50	44643.38
584.66	44832.96
584.82	44397.62
584.98	44924.24
585.14	44470.18
585.30	44390.60
585.46	44495.92
585.62	44512.31
585.78	44603.59
585.94	44814.24
586.10	44561.46
586.26	44526.35
586.42	44481.88
586.58	44292.30
586.74	44727.64
586.90	44374.22
587.06	44355.49
587.22	44762.75
587.38	44645.72
587.54	44830.62
587.70	44999.14
587.86	44804.88
588.02	44905.52
588.18	45057.65
588.34	44449.11
588.49	44437.41
588.65	44245.49
588.81	44367.20
588.97	44828.28
589.13	44708.91
589.29	44648.06
589.45	44404.64
589.61	44755.72
589.77	45177.02
589.93	45020.20
590.08	45109.14
590.24	44863.39
590.40	44758.06
590.56	44781.47
590.72	44694.87
590.88	44444.43
591.04	44711.25
591.20	45610.02
591.35	45282.34
591.51	45125.53
591.67	45289.37
591.83	45006.16
591.99	44545.08
592.15	44509.97
592.31	44692.53
592.46	45155.96
592.62	44734.66
592.78	44889.13
592.94	45006.16
593.10	44854.03
593.26	45090.42
593.41	44704.23
593.57	44701.89
593.73	44868.07
593.89	45291.71
594.05	45008.50
594.20	45069.36
594.36	45127.87
594.52	44879.77
594.68	44933.60
594.84	45181.70
594.99	45422.78
595.15	44893.82
595.31	44914.88
595.47	44978.07
595.62	45013.18
595.78	44776.79
595.94	44982.76
596.10	45059.99
596.25	44999.14
596.41	45041.27
596.57	45003.82
596.73	44942.97
596.88	44942.97
597.04	45139.57
597.20	45144.25
597.36	44917.22
597.51	45191.06
597.67	45031.91
597.83	45186.38
597.99	45507.04
598.14	45057.65
598.30	44954.67
598.46	44811.90
598.61	44830.62
598.77	45064.67
598.93	44744.02
599.09	45146.59
599.24	45303.41
599.40	44870.41
599.56	45120.85
599.71	44825.94
599.87	45439.16
600.03	44816.58
600.18	45076.38
600.34	45085.74
600.50	44816.58
600.65	45530.44
600.81	45031.91
600.97	44975.73
601.12	45483.63
601.28	45368.94
601.44	45078.72
601.59	45127.87
601.75	44870.41
601.91	44980.42
602.06	44554.44
602.22	44849.35
602.37	44533.37
602.53	45237.87
602.69	45326.81
602.84	44868.07
603.00	44795.51
603.16	45446.18
603.31	45081.06
603.47	44884.45
603.62	44552.10
603.78	44800.19
603.94	44992.12
604.09	44935.95
604.25	45081.06
604.40	45104.46
604.56	45160.64
604.71	45055.31
604.87	44905.52
605.03	44914.88
605.18	44973.39
605.34	44809.56
605.49	44795.51
605.65	44795.51
605.80	45244.90
605.96	45312.77
606.12	44704.23
606.27	45155.96
606.43	44797.85
606.58	45177.02
606.74	44884.45
606.89	44807.22
607.05	44657.42
607.20	44538.05
607.36	44708.91
607.51	45492.99
607.67	44624.65
607.82	45043.61
607.98	45514.06
608.13	44718.28
608.29	44959.35
608.44	44268.89
608.60	44636.36
608.75	44580.18
608.91	44519.33
609.06	44655.08
609.22	44992.12
609.37	44697.21
609.53	44685.51
609.68	44507.63
609.84	44737.00
609.99	45074.04
610.15	44830.62
610.30	44762.75
610.46	44472.52
610.61	44144.84
610.76	44149.53
610.92	44715.93
611.07	44549.76
611.23	44018.46
611.38	44701.89
611.54	44210.38
611.69	44247.83
611.84	44704.23
612.00	44582.52
612.15	44285.28
612.31	44299.32
612.46	44547.42
612.62	44638.70
612.77	44626.99
612.92	44966.37
613.08	44346.13
613.23	44067.61
613.39	43861.64
613.54	44041.86
613.69	43882.70
613.85	44252.51
614.00	44622.31
614.15	44128.46
614.31	43903.77
614.46	44151.87
614.62	43805.47
614.77	43899.09
614.92	44121.44
615.08	44287.62
615.23	43943.56
615.38	43859.30
615.54	43555.03
615.69	43608.86
615.84	43543.33
616.00	43805.47
616.15	43770.36
616.30	43742.27
616.46	43938.88
616.61	43688.44
616.76	43917.81
616.92	43676.74
617.07	43723.55
617.22	43583.12
617.37	43922.49
617.53	43868.66
617.68	43981.01
617.83	43971.64
617.99	43683.76
618.14	43613.54
618.29	43318.64
618.45	43779.72
618.60	43519.92
618.75	43758.66
618.90	43599.50
619.06	43496.52
619.21	43356.08
619.36	43903.77
619.51	43702.48
619.67	43503.54
619.82	43407.58
619.97	43316.29
620.12	43299.91
620.28	42976.92
620.43	43562.05
620.58	43208.63
620.73	43147.78
620.89	42609.45
621.04	43138.41
621.19	42990.96
621.34	43276.51
621.49	42937.13
621.65	43292.89
621.80	43166.50
621.95	43335.02
622.10	43061.18
622.25	42944.15
622.41	42988.62
622.56	42656.26
622.71	43239.06
622.86	42447.96
623.01	43428.64
623.16	42796.70
623.32	43232.04
623.47	42831.80
623.62	42763.93
623.77	42340.29
623.92	43016.71
624.07	42672.65
624.23	42265.39
624.38	42263.05
624.53	42539.24
624.68	42710.10
624.83	42878.61
624.98	43061.18
625.13	42939.47
625.29	42518.17
625.44	42572.00
625.59	42644.56
625.74	41972.83
625.89	41993.89
626.04	42136.66
626.19	42351.99
626.34	42457.32
626.49	42068.79
626.65	42513.49
626.80	42260.71
626.95	42017.30
627.10	42380.08
627.25	41827.71
627.40	41787.92
627.55	41553.87
627.70	41516.42
627.85	41490.68
628.00	42047.72
628.15	41825.37
628.30	41879.21
628.45	41799.63
628.60	41684.94
628.76	42351.99
628.91	42160.07
629.06	41893.25
629.21	41816.01
629.36	41698.98
629.51	41462.59
629.66	41691.96
629.81	41427.48
629.96	41668.56
630.11	41457.91
630.26	41839.42
630.41	41493.02
630.56	41247.26
630.71	41535.15
630.86	41237.90
631.01	40856.39
631.16	41593.66
631.31	41022.57
631.46	41017.89
631.61	41174.70
631.76	41097.47
631.91	41560.89
632.06	41289.39
632.21	41785.58
632.36	41165.34
632.51	41177.04
632.66	41109.17
632.81	40477.22
632.96	41256.62
633.10	40823.62
633.25	40566.16
633.40	41055.34
633.55	41265.99
633.70	40912.56
633.85	41017.89
634.00	41191.09
634.15	40900.86
634.30	41277.69
634.45	40645.74
634.60	41099.81
634.75	40423.39
634.90	40587.23
635.05	40809.58
635.19	40421.05
635.34	40898.52
635.49	40935.97
635.64	40739.36
635.79	40481.91
635.94	40685.53
636.09	40566.16
636.24	40823.62
636.39	39981.03
636.53	40187.00
636.68	40093.38
636.83	40233.81
636.98	40385.94
637.13	40109.76
637.28	40416.37
637.43	40205.72
637.57	40437.44
637.72	40257.21
637.87	40481.91
638.02	40446.80
638.17	40325.09
638.32	39866.34
638.46	40102.74
638.61	39941.24
638.76	39749.32
638.91	40299.34
639.06	39756.34
639.20	40297.00
639.35	40112.10
639.50	39966.99
639.65	39990.39
639.80	40205.72
639.94	40018.48
640.09	39892.09
640.24	39599.52
640.39	39618.25
640.54	39529.31
640.68	39585.48
640.83	39693.15
640.98	39714.21
641.13	39854.64
641.27	40142.53
641.42	39599.52
641.57	40137.85
641.72	39805.49
641.86	39154.82
642.01	39608.89
642.16	39730.59
642.31	39143.12
642.45	39814.85
642.60	39356.11
642.75	38883.32
642.90	39213.34
643.04	39213.34
643.19	39313.98
643.34	39557.39
643.48	39166.52
643.63	39398.24
643.78	39100.99
643.93	39154.82
644.07	38766.29
644.22	39068.22
644.37	39005.03
644.51	39187.59
644.66	39030.77
644.81	39157.16
644.95	39253.12
645.10	39044.82
645.25	39393.56
645.39	39295.25
645.54	38628.20
645.69	38885.66
645.83	38923.11
645.98	38754.59
646.13	38960.56
646.27	38653.95
646.42	38696.08
646.57	38546.28
646.71	38892.68
646.86	39213.34
647.00	38876.30
647.15	39189.93
647.30	38869.28
647.44	38630.54
647.59	38794.38
647.74	38749.91
647.88	38497.13
648.03	38342.66
648.17	38543.94
648.32	38256.06
648.47	38150.73
648.61	38146.05
648.76	38291.16
648.90	37982.21
649.05	38309.89
649.20	38375.42
649.34	38363.72
649.49	38150.73
649.63	38518.20
649.78	38373.08
649.92	38293.50
650.07	38733.53
650.21	38527.56
650.36	37759.86
650.51	38382.45
650.65	38518.20
650.80	39061.20
650.94	38415.21
651.09	38237.33
651.23	38230.31
651.38	37921.36
651.52	38155.41
651.67	38129.67
651.81	37603.05
651.96	37858.17
652.10	37820.72
652.25	37755.18
652.39	37467.30
652.54	37682.62
652.68	38043.07
652.83	37834.76
652.97	37921.36
653.12	37713.05
653.26	37759.86
653.41	38185.84
653.55	37324.52
653.70	37371.33
653.84	37741.14
653.99	37998.60
654.13	37956.47
654.27	37387.72
654.42	37553.90
654.56	37258.99
654.71	37853.48
654.85	37921.36
655.00	37287.07
655.14	37020.25
655.29	37383.04
655.43	37062.38
655.57	36952.38
655.72	36992.17
655.86	37088.13
656.01	36730.03
656.15	37357.29
656.30	36751.09
656.44	37008.55
656.58	36849.39
656.73	36503.00
656.87	36704.28
657.01	36287.67
657.16	36355.54
657.30	36435.12
657.45	36287.67
657.59	36744.07
657.73	36744.07
657.88	36617.68
658.02	36699.60
658.16	36739.39
658.31	36772.16
658.45	37284.73
658.60	36884.50
658.74	36718.32
658.88	36547.47
659.03	36439.80
659.17	36041.91
659.31	36488.95
659.46	36016.16
659.60	36533.42
659.74	36168.30
659.89	35894.46
660.03	35550.40
660.17	36301.71
660.32	36194.04
660.46	36222.13
660.60	36182.34
660.74	36142.55
660.89	35983.40
661.03	35789.13
661.17	35702.53
661.32	35842.96
661.46	36034.89
661.60	35878.07
661.74	35735.30
661.89	35725.94
662.03	35941.27
662.17	35108.04
662.31	35349.11
662.46	35686.15
662.60	35639.34
662.74	35440.39
662.88	35241.45
663.03	35393.58
663.17	35739.98
663.31	35019.10
663.45	35349.11
663.60	35386.56
663.74	34988.67
663.88	34976.97
664.02	34614.18
664.17	35023.78
664.31	34281.83
664.45	34845.90
664.59	34817.81
664.73	34749.93
664.88	34731.21
665.02	34403.53
665.16	34724.19
665.30	34923.13
665.44	34110.97
665.59	34398.85
665.73	34380.13
665.87	34211.61
666.01	34300.55
666.15	34199.91
666.29	34323.96
666.44	34541.63
666.58	33947.13
666.72	34448.00
666.86	34227.99
667.00	34380.13
667.14	33509.45
667.28	33551.58
667.43	33874.57
667.57	33656.90
667.71	33567.96
667.85	34045.43
667.99	33312.84
668.13	33518.81
668.27	33684.99
668.41	33596.05
668.56	32907.93
668.70	33474.34
668.84	32961.76
668.98	33092.83
669.12	33118.58
669.26	33055.39
669.40	33174.75
669.54	32975.81
669.68	32706.65
669.82	32844.74
669.96	32900.91
670.10	32723.03
670.25	32809.63
670.39	32683.24
670.53	32481.95
670.67	32776.86
670.81	32926.66
670.95	32971.13
671.09	32474.93
671.23	32755.80
671.37	32311.10
671.51	32397.70
671.65	32112.15
671.79	32044.27
671.93	32044.27
672.07	32533.45
672.21	32341.52
672.35	31936.61
672.49	31676.81
672.63	31754.05
672.77	31749.37
672.91	31868.73
673.05	31482.55
673.19	31611.28
673.33	31307.01
673.47	31431.05
673.61	31211.04
673.75	30927.84
673.89	30930.18
674.03	30740.60
674.17	30958.27
674.31	30885.71
674.45	30916.14
674.59	30721.87
674.73	30881.03
674.87	31075.29
675.01	30675.06
675.15	30543.99
675.29	30543.99
675.43	30541.65
675.56	30539.31
675.70	30529.95
675.84	30394.20
675.98	29296.49
676.12	29757.57
676.26	29799.70
676.40	29734.17
676.54	29820.77
676.68	29673.31
676.82	29387.77
676.96	29263.72
677.10	29942.47
677.23	29493.09
677.37	29333.93
677.51	29312.87
677.65	29202.86
677.79	28758.16
677.93	29116.26
678.07	28683.27
678.21	28486.66
678.34	28290.06
678.48	28444.53
678.62	28463.25
678.76	28519.43
678.90	28294.74
679.04	28283.03
679.18	28421.13
679.31	27845.35
679.45	27901.53
679.59	27461.51
679.73	27592.58
679.87	28060.68
680.00	27599.60
680.14	27707.26
680.28	27789.18
680.42	27510.66
680.56	27358.52
680.70	27412.35
680.83	26913.82
680.97	27014.46
681.11	27087.02
681.25	26618.91
681.39	26937.23
681.52	26768.71
681.66	26394.22
681.80	26501.89
681.94	26810.84
682.07	26300.60
682.21	26396.56
682.35	26162.51
682.49	26190.59
682.62	26368.48
682.76	26256.13
682.90	25961.22
683.04	26225.70
683.17	25659.29
683.31	25699.08
683.45	25825.47
683.59	25528.22
683.72	25673.34
683.86	25537.59
684.00	25291.83
684.13	25479.07
684.27	25490.77
684.41	25036.71
684.55	24723.08
684.68	24514.77
684.82	24788.61
684.96	24662.22
685.09	24680.95
685.23	24505.41
685.37	24364.98
685.50	24428.17
685.64	24549.88
685.78	24388.38
685.91	24201.14
686.05	24266.67
686.19	23962.40
686.32	23742.39
686.46	23805.59
686.60	23222.80
686.73	23749.42
686.87	23374.93
687.01	23278.97
687.14	23000.44
687.28	23007.47
687.42	23075.34
687.55	22757.03
687.69	22728.94
687.82	22787.46
687.96	22841.29
688.10	22415.31
688.23	22546.38
688.37	22237.43
688.50	22473.82
688.64	22209.34
688.78	22115.72
688.91	22195.30
689.05	21942.52
689.18	21738.90
689.32	21750.60
689.46	21802.09
689.59	21914.44
689.73	21996.35
689.86	21949.54
690.00	21820.81
690.13	21956.57
690.27	21530.59
690.41	21626.55
690.54	21256.75
690.68	20996.95
690.81	21216.96
690.95	20856.51
691.08	20812.04
691.22	20919.71
691.35	21099.93
691.49	20908.01
691.62	20805.02
691.76	20685.65
691.89	20851.83
692.03	20563.95
692.16	20325.21
692.30	20634.16
692.43	20219.89
692.57	20327.55
692.70	19943.70
692.84	20156.69
692.97	19707.31
693.11	19695.61
693.24	19503.68
693.38	19548.15
693.51	19477.94
693.65	19817.32
693.78	19585.60
693.92	19204.10
694.05	19239.20
694.19	19091.75
694.32	19365.59
694.45	19112.81
694.59	19030.90
694.72	19056.64
694.86	19068.34
694.99	18281.92
695.13	18553.43
695.26	18581.51
695.39	18349.80
695.53	18031.49
695.66	18544.06
695.80	18494.91
695.93	18225.75
696.07	18045.53
696.20	18396.61
696.33	18221.07
696.47	18307.67
696.60	17781.05
696.73	17921.48
696.87	17893.40
697.00	17575.08
697.14	17767.01
697.27	17441.67
697.40	17483.80
697.54	17184.21
697.67	17137.40
697.80	17158.47
697.94	17128.04
698.07	17006.33
698.21	16772.28
698.34	16851.86
698.47	16819.09
698.61	16540.57
698.74	16547.59
698.87	16482.05
699.01	16170.76
699.14	16123.95
699.27	16152.04
699.40	16250.34
699.54	16107.57
699.67	16051.39
699.80	16070.12
699.94	15943.73
700.07	15838.41
700.20	15845.43
700.34	15648.82
700.47	15882.88
700.60	15456.90
700.73	15934.37
700.87	15693.29
701.00	15679.25
701.13	15386.68
701.26	15529.45
701.40	15190.08
701.53	15176.03
701.66	15330.51
701.79	15276.68
701.93	15119.86
702.06	14937.30
702.19	14761.76
702.32	14771.12
702.46	14740.69
702.59	14773.46
702.72	14871.76
702.85	14792.19
702.99	14665.80
703.12	14635.37
703.25	14668.14
703.38	14314.72
703.51	14132.15
703.65	14415.36
703.78	14293.65
703.91	14431.74
704.04	14080.66
704.17	14090.02
704.31	13694.47
704.44	13703.84
704.57	13418.29
704.70	13359.78
704.83	13224.03
704.96	13930.87
705.10	13640.64
705.23	13654.69
>>>>>End Processed Spectral Data<<<<<
