SpectraSuite Data File
++++++++++++++++++++++++++++++++++++
Date: Fri Oct 25 10:43:36 EDT 2013
User: price-jones
Dark Spectrum Present: No
Reference Spectrum Present: No
Number of Sampled Component Spectra: 1
Spectrometers: USB2+H05261
Integration Time (usec): 100000 (USB2+H05261)
Spectra Averaged: 1 (USB2+H05261)
Boxcar Smoothing: 0 (USB2+H05261)
Correct for Electrical Dark: No (USB2+H05261)
Strobe/Lamp Enabled: No (USB2+H05261)
Correct for Detector Non-linearity: No (USB2+H05261)
Correct for Stray Light: No (USB2+H05261)
Number of Pixels in Processed Spectrum: 2048
>>>>>Begin Processed Spectral Data<<<<<
365.73	138.09
365.92	138.09
366.12	138.09
366.32	46.81
366.52	0.00
366.72	42.13
366.91	0.00
367.11	7.02
367.31	2.34
367.51	39.79
367.70	21.06
367.90	0.00
368.10	0.00
368.30	0.00
368.49	0.00
368.69	46.81
368.89	14.04
369.09	23.41
369.28	39.79
369.48	16.38
369.68	35.11
369.87	58.51
370.07	138.09
370.27	91.28
370.47	154.48
370.66	327.68
370.86	447.04
371.06	456.40
371.25	472.79
371.45	463.43
371.65	470.45
371.84	416.62
372.04	435.34
372.24	470.45
372.44	486.83
372.63	634.29
372.83	514.92
373.03	458.74
373.22	554.71
373.42	533.64
373.62	561.73
373.81	524.28
374.01	512.58
374.21	596.84
374.40	540.66
374.60	603.86
374.79	550.03
374.99	610.88
375.19	585.13
375.38	657.69
375.58	603.86
375.78	617.90
375.97	594.50
376.17	624.92
376.37	648.33
376.56	603.86
376.76	638.97
376.95	561.73
377.15	636.63
377.35	688.12
377.54	671.73
377.74	678.76
377.93	624.92
378.13	706.84
378.33	606.20
378.52	657.69
378.72	641.31
378.91	725.57
379.11	601.52
379.31	667.05
379.50	603.86
379.70	662.37
379.89	676.41
380.09	606.20
380.28	641.31
380.48	645.99
380.68	592.16
380.87	718.54
381.07	702.16
381.26	720.88
381.46	704.50
381.65	643.65
381.85	692.80
382.04	676.41
382.24	734.93
382.43	727.91
382.63	718.54
382.83	688.12
383.02	791.10
383.22	823.87
383.41	816.85
383.61	704.50
383.80	671.73
384.00	748.97
384.19	760.67
384.39	814.51
384.58	716.20
384.78	816.85
384.97	880.04
385.17	805.14
385.36	844.93
385.56	784.08
385.75	683.44
385.95	819.19
386.14	891.74
386.34	861.32
386.53	873.02
386.72	849.61
386.92	875.36
387.11	903.45
387.31	870.68
387.50	798.12
387.70	870.68
387.89	882.38
388.09	894.08
388.28	837.91
388.48	896.43
388.67	954.94
388.86	971.32
389.06	1043.88
389.25	1011.11
389.45	922.17
389.64	936.21
389.84	990.05
390.03	950.26
390.22	994.73
390.42	971.32
390.61	1043.88
390.81	1008.77
391.00	1022.81
391.19	1083.67
391.39	999.41
391.58	1123.46
391.78	992.39
391.97	1041.54
392.16	1020.47
392.36	1125.80
392.55	964.30
392.75	976.00
392.94	983.02
393.13	1029.84
393.33	1034.52
393.52	950.26
393.71	1046.22
393.91	1163.25
394.10	1071.97
394.29	1179.63
394.49	1109.41
394.68	1249.85
394.88	1228.78
395.07	1329.42
395.26	1200.69
395.46	1235.80
395.65	1270.91
395.84	1266.23
396.04	1280.27
396.23	1109.41
396.42	1177.29
396.62	1170.27
396.81	1184.31
397.00	1266.23
397.19	1310.70
397.39	1301.34
397.58	1320.06
397.77	1418.36
397.97	1430.07
398.16	1451.13
398.35	1511.99
398.55	1495.60
398.74	1572.84
398.93	1582.20
399.12	1554.12
399.32	1486.24
399.51	1584.54
399.70	1565.82
399.90	1542.41
400.09	1715.61
400.28	1645.40
400.47	1631.35
400.67	1746.04
400.86	1673.48
401.05	1720.29
401.24	1806.89
401.44	1797.53
401.63	1673.48
401.82	1748.38
402.01	1788.17
402.21	1802.21
402.40	1771.79
402.59	1717.95
402.78	1734.34
402.97	1717.95
403.17	1806.89
403.36	1820.94
403.55	1853.70
403.74	1907.54
403.93	1820.94
404.13	1966.05
404.32	1823.28
404.51	1851.36
404.70	1954.35
404.89	1970.73
405.09	1956.69
405.28	2036.27
405.47	2033.93
405.66	2073.71
405.85	1980.09
406.05	1912.22
406.24	2008.18
406.43	2132.23
406.62	2092.44
406.81	2195.42
407.00	2092.44
407.20	2118.18
407.39	2069.03
407.58	2139.25
407.77	2214.15
407.96	2300.75
408.15	2312.45
408.34	2174.36
408.54	2289.04
408.73	2373.30
408.92	2277.34
409.11	2249.25
409.30	2319.47
409.49	2286.70
409.68	2340.54
409.87	2459.90
410.07	2403.73
410.26	2422.45
410.45	2464.58
410.64	2476.29
410.83	2490.33
411.02	2626.08
411.21	2581.61
411.40	2731.41
411.59	2796.94
411.78	2705.66
411.98	2590.97
412.17	2682.25
412.36	2789.92
412.55	2778.22
412.74	2705.66
412.93	2785.24
413.12	2895.24
413.31	3014.61
413.50	2916.31
413.69	2794.60
413.88	2988.86
414.07	2878.86
414.26	2867.16
414.45	3016.95
414.64	2949.08
414.83	3063.76
415.02	3061.42
415.22	3098.87
415.41	3255.69
415.60	3124.62
415.79	3295.47
415.98	3375.05
416.17	3318.88
416.36	3251.00
416.55	3290.79
416.74	3428.88
416.93	3346.97
417.12	3426.54
417.31	3447.61
417.50	3323.56
417.69	3531.87
417.88	3452.29
418.07	3508.46
418.26	3543.57
418.45	3550.59
418.64	3740.18
418.83	3698.05
419.02	3648.90
419.21	3660.60
419.39	3641.87
419.58	3684.00
419.77	3623.15
419.96	3768.26
420.15	3716.77
420.34	3756.56
420.53	3824.44
420.72	4058.49
420.91	3822.09
421.10	4014.02
421.29	3861.88
421.48	3824.44
421.67	3833.80
421.86	3770.60
422.05	3939.12
422.24	3775.28
422.43	3941.46
422.61	4067.85
422.80	4009.34
422.99	3906.35
423.18	4032.74
423.37	4191.90
423.56	4149.77
423.75	3950.82
423.94	3896.99
424.13	3758.90
424.32	3747.20
424.50	4077.21
424.69	4135.73
424.88	4161.47
425.07	4028.06
425.26	4058.49
425.45	3976.57
425.64	3957.85
425.83	3941.46
426.01	4177.86
426.20	4147.43
426.39	3974.23
426.58	3939.12
426.77	4046.79
426.96	3960.19
427.15	4187.22
427.33	4170.83
427.52	4102.96
427.71	4278.50
427.90	4107.64
428.09	4301.90
428.28	4243.39
428.46	4278.50
428.65	4243.39
428.84	4400.21
429.03	4313.61
429.22	4198.92
429.40	4227.01
429.59	4205.94
429.78	4032.74
429.97	3941.46
430.16	4109.98
430.34	4119.34
430.53	4215.30
430.72	4292.54
430.91	4250.41
431.10	4388.50
431.28	4599.15
431.47	4758.31
431.66	4657.67
431.85	4713.84
432.03	4678.73
432.22	4741.93
432.41	4734.90
432.60	4826.18
432.79	4681.07
432.97	4802.78
433.16	4877.68
433.35	4709.16
433.54	4753.63
433.72	4720.86
433.91	4713.84
434.10	4795.76
434.28	4873.00
434.47	4887.04
434.66	5085.98
434.85	4933.85
435.03	4950.23
435.22	4975.98
435.41	5210.03
435.59	5123.43
435.78	5270.89
435.97	5217.05
436.16	5153.86
436.34	5163.22
436.53	5341.10
436.72	5446.43
436.90	5181.95
437.09	5266.21
437.28	5254.50
437.46	5219.39
437.65	5266.21
437.84	5158.54
438.02	5317.70
438.21	5165.56
438.40	5228.76
438.58	5364.51
438.77	5245.14
438.96	5392.59
439.14	5671.12
439.33	5715.59
439.52	5738.99
439.70	5853.68
439.89	5877.09
440.08	5802.19
440.26	5647.71
440.45	5809.21
440.63	6256.25
440.82	6005.81
441.01	6122.84
441.19	6010.50
441.38	6164.97
441.57	6375.62
441.75	6291.36
441.94	6436.47
442.12	6384.98
442.31	6438.81
442.50	6487.96
442.68	6331.15
442.87	6513.71
443.05	6335.83
443.24	6537.12
443.43	6541.80
443.61	6647.12
443.80	6738.40
443.98	6520.73
444.17	6382.64
444.35	6537.12
444.54	6817.98
444.73	6593.29
444.91	6644.78
445.10	6614.35
445.28	6579.25
445.47	6576.91
445.65	6455.20
445.84	6782.87
446.02	6729.04
446.21	6743.08
446.39	6738.40
446.58	6906.92
446.77	6738.40
446.95	6668.19
447.14	6717.34
447.32	7087.14
447.51	6761.81
447.69	6778.19
447.88	6649.46
448.06	6846.07
448.25	6722.02
448.43	6956.07
448.62	6719.68
448.80	6810.96
448.99	6930.33
449.17	7119.91
449.36	6843.73
449.54	7131.61
449.73	7234.60
449.91	7377.37
450.10	7389.07
450.28	7389.07
450.46	7487.37
450.65	7356.30
450.83	7389.07
451.02	7393.75
451.20	7360.98
451.39	7157.36
451.57	7304.81
451.76	7506.10
451.94	7492.05
452.13	7499.08
452.31	7267.36
452.49	7243.96
452.68	7492.05
452.86	7215.87
453.05	7466.31
453.23	7489.71
453.42	7470.99
453.60	7435.88
453.78	7562.27
453.97	7597.38
454.15	7527.16
454.34	7478.01
454.52	7489.71
454.70	7538.87
454.89	7758.88
455.07	7646.53
455.26	7838.45
455.44	7793.98
455.62	7868.88
455.81	7805.69
455.99	8135.70
456.17	7950.80
456.36	8145.06
456.54	8219.96
456.73	8194.22
456.91	8250.39
457.09	8351.03
457.28	8372.10
457.46	8205.92
457.64	8271.45
457.83	8336.99
458.01	8201.24
458.19	8451.67
458.38	8318.26
458.56	8339.33
458.74	8365.07
458.93	8442.31
459.11	8435.29
459.29	8561.68
459.48	8545.30
459.66	8411.89
459.84	8542.96
460.03	8720.84
460.21	8521.89
460.39	8711.47
460.57	8613.17
460.76	8699.77
460.94	8819.14
461.12	8786.37
461.31	8872.97
461.49	8751.26
461.67	8769.99
461.85	8922.12
462.04	8971.27
462.22	9446.40
462.40	8952.55
462.59	9137.45
462.77	9085.96
462.95	9081.28
463.13	8992.34
463.32	8872.97
463.50	9092.98
463.68	9064.89
463.86	9050.85
464.05	8985.32
464.23	8945.53
464.41	9151.49
464.59	9153.84
464.78	9249.80
464.96	9118.73
465.14	9048.51
465.32	9275.54
465.50	9406.61
465.69	9483.85
465.87	9228.73
466.05	9287.25
466.23	9247.46
466.41	9305.97
466.60	9355.12
466.78	9441.72
466.96	9453.42
467.14	9525.98
467.32	9551.73
467.51	9767.06
467.69	9373.85
467.87	9399.59
468.05	9657.05
468.23	9710.88
468.41	9612.58
468.60	9853.66
468.78	9853.66
468.96	9731.95
469.14	9895.78
469.32	9923.87
469.50	9582.15
469.69	9926.21
469.87	9856.00
470.05	9909.83
470.23	9750.67
470.41	10333.47
470.59	10115.80
470.77	9914.51
470.95	10195.37
471.14	10228.14
471.32	10342.83
471.50	10424.75
471.68	10230.48
471.86	10509.01
472.04	10513.69
472.22	10696.25
472.40	10361.55
472.58	10464.54
472.77	10576.88
472.95	10626.03
473.13	11077.76
473.31	10443.47
473.49	10782.85
473.67	10768.80
473.85	10839.02
474.03	11040.31
474.21	11040.31
474.39	11253.30
474.57	11337.56
474.75	11391.39
474.93	11375.00
475.12	11391.39
475.30	11597.35
475.48	11239.25
475.66	11520.12
475.84	11218.19
476.02	11634.80
476.20	11819.71
476.38	12131.00
476.56	11845.45
476.74	12159.08
476.92	11910.99
477.10	11782.26
477.28	12379.09
477.46	12266.75
477.64	12491.44
477.82	12753.58
478.00	12784.01
478.18	12802.73
478.36	12861.24
478.54	12952.52
478.72	13062.53
478.90	13249.77
479.08	13451.06
479.26	13242.75
479.44	13509.57
479.62	13446.38
479.80	13640.64
479.98	13940.23
480.16	13954.27
480.34	13621.92
480.52	14059.60
480.70	14005.77
480.88	13734.26
481.06	14005.77
481.24	14387.27
481.41	14480.89
481.59	14352.16
481.77	14647.07
481.95	14888.15
482.13	14757.08
482.31	14696.22
482.49	15206.46
482.67	15016.88
482.85	15379.66
483.03	15356.25
483.21	15466.26
483.39	15609.03
483.57	15758.83
483.74	15810.32
483.92	15672.23
484.10	15833.72
484.28	16388.43
484.46	16070.12
484.64	16470.35
484.82	16325.24
485.00	16404.81
485.18	16671.64
485.35	16629.51
485.53	16393.11
485.71	16414.18
485.89	16720.79
486.07	16402.47
486.25	17111.66
486.43	16966.54
486.61	17252.09
486.78	17680.41
486.96	17207.62
487.14	18244.48
487.32	18005.74
487.50	18244.48
487.68	18644.71
487.85	18867.06
488.03	18768.76
488.21	18897.49
488.39	18988.77
488.57	18595.56
488.75	19044.94
488.92	19353.89
489.10	19325.80
489.28	19852.42
489.46	20100.52
489.64	19910.94
489.81	20577.99
489.99	20348.62
490.17	20365.00
490.35	20664.59
490.53	20683.31
490.70	20746.51
490.88	20828.43
491.06	20973.54
491.24	21113.97
491.41	21003.97
491.59	21092.91
491.77	20889.28
491.95	21514.20
492.13	21841.88
492.30	21872.31
492.48	22101.68
492.66	22302.96
492.84	22480.85
493.01	22625.96
493.19	22338.07
493.37	22375.52
493.54	22567.45
493.72	23049.60
493.90	23122.15
494.08	23309.40
494.25	23316.42
494.43	23508.34
494.61	23601.96
494.79	24107.52
494.96	23798.57
495.14	23910.91
495.32	24128.58
495.49	24133.26
495.67	24180.07
495.85	24570.94
496.02	24697.33
496.20	24514.77
496.38	24830.74
496.55	24812.02
496.73	25425.24
496.91	25034.37
497.09	25514.18
497.26	25443.96
497.44	25462.69
497.62	25493.12
497.79	25898.03
497.97	25635.89
498.14	25584.40
498.32	25710.78
498.50	26101.65
498.67	26256.13
498.85	26429.33
499.03	26476.14
499.20	26721.90
499.38	26567.42
499.56	27058.93
499.73	26841.26
499.91	26621.25
500.08	26998.08
500.26	26499.55
500.44	26981.70
500.61	26885.73
500.79	27044.89
500.97	27014.46
501.14	27756.41
501.32	27475.55
501.49	27889.82
501.67	27665.13
501.84	27964.72
502.02	27938.97
502.20	28046.64
502.37	28271.33
502.55	28407.08
502.72	28720.71
502.90	28318.14
503.07	28175.37
503.25	28409.42
503.43	28334.53
503.60	28390.70
503.78	28577.94
503.95	28666.88
504.13	28395.38
504.30	28765.18
504.48	29247.33
504.65	29315.21
504.83	29116.26
505.01	29567.99
505.18	29294.14
505.36	30249.08
505.53	29556.28
505.71	29708.42
505.88	30164.82
506.06	29940.13
506.23	30082.91
506.41	29818.42
506.58	30232.70
506.76	30513.56
506.93	30333.34
507.11	30232.70
507.28	30600.16
507.46	30370.79
507.63	30335.68
507.81	30654.00
507.98	30218.66
508.16	30611.87
508.33	31002.74
508.50	30817.83
508.68	31534.04
508.85	31669.79
509.03	31417.01
509.20	31292.96
509.38	31199.34
509.55	31814.90
509.73	31536.38
509.90	31728.30
510.08	31721.28
510.25	31885.12
510.42	31885.12
510.60	32067.68
510.77	32079.38
510.95	32395.35
511.12	32098.11
511.30	32519.40
511.47	32952.40
511.64	33043.68
511.82	33144.33
511.99	32336.84
512.17	32786.22
512.34	32369.61
512.51	32716.01
512.69	33123.26
512.86	33305.82
513.04	33647.54
513.21	32727.71
513.38	33530.51
513.56	33298.80
513.73	33160.71
513.90	33942.45
514.08	33434.55
514.25	33635.84
514.43	33385.40
514.60	33521.15
514.77	33865.21
514.95	34005.64
515.12	33675.63
515.29	34054.79
515.47	34178.84
515.64	34532.26
515.81	33937.77
515.99	34522.90
516.16	33787.97
516.33	34073.52
516.51	34171.82
516.68	33713.08
516.85	33640.52
517.03	34033.73
517.20	34513.54
517.37	34749.93
517.54	34548.65
517.72	34649.29
517.89	34277.15
518.06	34333.32
518.24	34464.39
518.41	34923.13
518.58	34857.60
518.75	34946.54
518.93	35033.14
519.10	35154.85
519.27	35412.31
519.45	35660.40
519.62	35232.08
519.79	35622.95
519.96	35936.59
520.14	35814.88
520.31	35882.75
520.48	35779.77
520.65	35695.51
520.83	36053.61
521.00	36601.30
521.17	36086.38
521.34	36147.23
521.52	36605.98
521.69	36425.76
521.86	36678.54
522.03	37167.71
522.20	36715.98
522.38	36837.69
522.55	36985.15
522.72	36620.02
522.89	36788.54
523.07	37067.06
523.24	37221.54
523.41	37361.97
523.58	37254.31
523.75	37432.19
523.92	37373.67
524.10	37612.41
524.27	37392.40
524.44	37696.67
524.61	37584.32
524.78	37741.14
524.96	37776.25
525.13	38054.77
525.30	38450.32
525.47	38211.59
525.64	37944.76
525.81	38216.27
525.98	38124.99
526.16	37797.31
526.33	37380.70
526.50	38033.71
526.67	37979.87
526.84	37783.27
527.01	37855.82
527.18	38068.81
527.36	38667.99
527.53	38714.80
527.70	38426.92
527.87	38965.24
528.04	38586.07
528.21	38759.27
528.38	38888.00
528.55	38955.88
528.72	38831.83
528.89	39363.13
529.07	39136.10
529.24	39140.78
529.41	39213.34
529.58	39028.43
529.75	39199.29
529.92	39337.38
530.09	39559.73
530.26	39459.09
530.43	39908.47
530.60	39325.68
530.77	39686.12
530.94	40062.95
531.11	39583.14
531.28	39995.07
531.46	40261.90
531.63	39976.35
531.80	39697.83
531.97	40095.72
532.14	39814.85
532.31	39442.71
532.48	39454.41
532.65	39924.86
532.82	39704.85
532.99	39899.11
533.16	39892.09
533.33	40325.09
533.50	40610.64
533.67	40020.82
533.84	40053.59
534.01	40404.67
534.18	40322.75
534.35	40720.64
534.52	40147.21
534.69	40339.13
534.86	40931.29
535.03	41006.19
535.20	40971.08
535.37	41125.55
535.54	41532.81
535.71	40835.33
535.88	41048.32
536.05	41053.00
536.22	41205.13
536.38	41090.44
536.55	41081.08
536.72	40748.73
536.89	40786.18
537.06	41177.04
537.23	41352.58
537.40	41544.51
537.57	41434.50
537.74	41476.63
537.91	41338.54
538.08	41846.44
538.25	41525.78
538.42	41706.01
538.59	42241.99
538.75	41666.22
538.92	41895.59
539.09	41897.93
539.26	41736.43
539.43	42031.34
539.60	41883.89
539.77	41486.00
539.94	41617.07
540.11	41460.25
540.28	41947.08
540.44	41827.71
540.61	42162.41
540.78	42106.24
540.95	41453.23
541.12	41883.89
541.29	42176.45
541.46	42052.41
541.62	42597.75
541.79	42904.36
541.96	42057.09
542.13	42068.79
542.30	42396.46
542.47	42164.75
542.63	42457.32
542.80	42361.36
542.97	42618.81
543.14	42719.46
543.31	43086.92
543.48	42838.83
543.64	43445.02
543.81	43107.99
543.98	43196.93
544.15	43281.19
544.32	43157.14
544.48	43704.82
544.65	43215.65
544.82	43239.06
544.99	43028.41
545.16	43044.79
545.32	43103.31
545.49	44109.74
545.66	43447.36
545.83	43517.58
546.00	43833.55
546.16	43351.40
546.33	43533.96
546.50	43185.22
546.67	43756.32
546.83	43559.71
547.00	43835.89
547.17	43428.64
547.34	43709.50
547.50	43288.21
547.67	43997.39
547.84	43959.94
548.00	44453.79
548.17	44020.80
548.34	43969.30
548.51	44470.18
548.67	44212.72
548.84	44280.60
549.01	43491.83
549.18	43700.14
549.34	44528.69
549.51	44311.02
549.68	44388.26
549.84	44095.69
550.01	44168.25
550.18	44229.10
550.34	44100.37
550.51	44165.91
550.68	43732.91
550.84	43681.42
551.01	44076.97
551.18	44369.54
551.34	44399.96
551.51	44694.87
551.68	44676.15
551.84	44488.90
552.01	44669.12
552.18	44669.12
552.34	44245.49
552.51	44509.97
552.68	44790.83
552.84	44671.46
553.01	44774.45
553.18	44444.43
553.34	44566.14
553.51	44891.48
553.67	44760.40
553.84	45200.43
554.01	45017.86
554.17	45390.01
554.34	45202.77
554.51	45158.30
554.67	45352.56
554.84	45359.58
555.00	45116.17
555.17	45055.31
555.33	45013.18
555.50	45102.12
555.67	45593.64
555.83	44949.99
556.00	44734.66
556.16	45408.73
556.33	44783.81
556.50	45170.00
556.66	45067.02
556.83	44875.09
556.99	45394.69
557.16	45467.25
557.32	45027.23
557.49	45240.21
557.65	45006.16
557.82	45118.51
557.98	45518.74
558.15	45312.77
558.32	45455.54
558.48	45277.66
558.65	45411.07
558.81	45375.97
558.98	45387.67
559.14	45078.72
559.31	45268.30
559.47	45535.12
559.64	45251.92
559.80	45787.90
559.97	45588.95
560.13	45081.06
560.30	45413.41
560.46	45815.99
560.63	45727.05
560.79	45764.49
560.96	45977.48
561.12	45806.62
561.29	45755.13
561.45	45968.12
561.61	45975.14
561.78	45993.87
561.94	44816.58
562.11	45591.30
562.27	45748.11
562.44	45823.01
562.60	46143.66
562.77	45860.46
562.93	45893.22
563.10	45972.80
563.26	45813.65
563.42	46045.36
563.59	45521.08
563.75	45736.41
563.92	46181.11
564.08	45848.75
564.24	46036.00
564.41	46171.75
564.57	46021.95
564.74	46115.58
564.90	45925.99
565.07	46057.06
565.23	46178.77
565.39	45773.86
565.56	46183.45
565.72	45347.88
565.88	45701.30
566.05	45858.12
566.21	46405.80
566.38	45979.82
566.54	45900.25
566.70	45858.12
566.87	46110.89
567.03	46298.14
567.19	46630.49
567.36	46033.66
567.52	46239.62
567.68	46342.61
567.85	46391.76
568.01	46071.10
568.17	46124.94
568.34	46146.00
568.50	45900.25
568.66	45923.65
568.83	46082.81
568.99	46017.27
569.15	46075.79
569.32	46094.51
569.48	46127.28
569.64	46028.98
569.81	46408.14
569.97	45949.40
570.13	46057.06
570.30	45720.02
570.46	45900.25
570.62	46033.66
570.78	45666.19
570.95	45734.07
571.11	45846.41
571.27	46108.55
571.43	46160.05
571.60	46021.95
571.76	46546.23
571.92	46773.27
572.09	46190.47
572.25	46410.48
572.41	46202.18
572.57	46396.44
572.74	46256.01
572.90	46157.70
573.06	46536.87
573.22	46494.74
573.38	46082.81
573.55	46263.03
573.71	46337.93
573.87	46330.90
574.03	46026.63
574.20	46440.91
574.36	46007.91
574.52	46260.69
574.68	46277.07
574.84	46316.86
575.01	46396.44
575.17	46052.38
575.33	45984.51
575.49	46190.47
575.65	46251.33
575.82	46230.26
575.98	46209.20
576.14	46539.21
576.30	46054.72
576.46	46747.52
576.62	46394.10
576.79	46438.57
576.95	46160.05
577.11	46087.49
577.27	46183.45
577.43	45949.40
577.59	46024.29
577.75	46014.93
577.92	46099.19
578.08	46183.45
578.24	46014.93
578.40	46052.38
578.56	46162.39
578.72	46000.89
578.88	46459.63
579.04	46167.07
579.21	46225.58
579.37	46841.14
579.53	46473.68
579.69	46206.86
579.85	46672.62
580.01	46347.29
580.17	46366.01
580.33	45846.41
580.49	46691.35
580.65	46256.01
580.82	46195.15
580.98	46286.43
581.14	45790.24
581.30	46405.80
581.46	46485.38
581.62	46878.59
581.78	46461.97
581.94	46602.41
582.10	46588.36
582.26	46728.80
582.42	46536.87
582.58	46649.22
582.74	46660.92
582.90	46520.49
583.06	46635.17
583.22	46829.44
583.38	46656.24
583.54	46761.56
583.70	46588.36
583.86	46286.43
584.02	46241.96
584.18	46712.41
584.34	46431.55
584.50	46335.59
584.66	46309.84
584.82	46607.09
584.98	46312.18
585.14	46248.99
585.30	46419.84
585.46	46256.01
585.62	46101.53
585.78	46513.47
585.94	46220.90
586.10	46403.46
586.26	46288.77
586.42	46370.69
586.58	46670.28
586.74	46529.85
586.90	46300.48
587.06	46366.01
587.22	46756.88
587.38	46457.29
587.54	46649.22
587.70	46791.99
587.86	46377.72
588.02	46349.63
588.18	46340.27
588.34	46160.05
588.49	46284.09
588.65	45638.11
588.81	46167.07
588.97	45925.99
589.13	45874.50
589.29	46036.00
589.45	46040.68
589.61	46174.09
589.77	46614.11
589.93	46967.53
590.08	46450.27
590.24	46621.13
590.40	46782.63
590.56	46586.02
590.72	46234.94
590.88	46630.49
591.04	46644.54
591.20	47089.24
591.35	46974.55
591.51	46810.71
591.67	46330.90
591.83	46564.96
591.99	46403.46
592.15	46749.86
592.31	46887.95
592.46	46651.56
592.62	46508.79
592.78	47009.66
592.94	46768.58
593.10	46845.82
593.26	46602.41
593.41	46490.06
593.57	46340.27
593.73	46199.83
593.89	46834.12
594.05	46501.76
594.20	46492.40
594.36	46492.40
594.52	46518.15
594.68	46239.62
594.84	45970.46
594.99	46597.73
595.15	46323.88
595.31	46756.88
595.47	46714.75
595.62	46735.82
595.78	46281.75
595.94	47129.03
596.10	46799.01
596.25	46871.57
596.41	46319.20
596.57	46288.77
596.73	46946.47
596.88	46731.14
597.04	46707.73
597.20	46263.03
597.36	46597.73
597.51	46681.98
597.67	46600.07
597.83	46616.45
597.99	46869.23
598.14	46665.60
598.30	46494.74
598.46	46232.60
598.61	46506.44
598.77	46316.86
598.93	46658.58
599.09	46492.40
599.24	46813.05
599.40	46829.44
599.56	46834.12
599.71	46543.89
599.87	46981.57
600.03	46518.15
600.18	46497.08
600.34	46649.22
600.50	46307.50
600.65	46529.85
600.81	46705.39
600.97	46902.00
601.12	46546.23
601.28	46852.84
601.44	46120.26
601.59	46670.28
601.75	46403.46
601.91	46602.41
602.06	46452.61
602.22	46471.34
602.37	46347.29
602.53	46710.07
602.69	47091.58
602.84	46775.61
603.00	46239.62
603.16	46241.96
603.31	46681.98
603.47	46550.91
603.62	46286.43
603.78	46494.74
603.94	46518.15
604.09	46492.40
604.25	46368.35
604.40	46621.13
604.56	46604.75
604.71	46981.57
604.87	46426.87
605.03	46363.67
605.18	46195.15
605.34	46080.47
605.49	45832.37
605.65	46358.99
605.80	46190.47
605.96	46213.88
606.12	46218.56
606.27	46213.88
606.43	46174.09
606.58	46033.66
606.74	46220.90
606.89	45911.95
607.05	46234.94
607.20	46316.86
607.36	46305.16
607.51	46733.48
607.67	46295.80
607.82	46618.79
607.98	46478.36
608.13	46026.63
608.29	46197.49
608.44	46237.28
608.60	45853.44
608.75	46127.28
608.91	46391.76
609.06	45867.48
609.22	46347.29
609.37	46110.89
609.53	46033.66
609.68	45949.40
609.84	46064.08
609.99	45783.22
610.15	45776.20
610.30	45961.10
610.46	45406.39
610.61	46171.75
610.76	45584.27
610.92	46096.85
611.07	46181.11
611.23	46031.32
611.38	46167.07
611.54	45490.65
611.69	45670.87
611.84	45235.53
612.00	45301.07
612.15	45619.38
612.31	45691.94
612.46	45258.94
612.62	45806.62
612.77	45528.10
612.92	46309.84
613.08	45535.12
613.23	45364.26
613.39	45343.20
613.54	45361.92
613.69	45177.02
613.85	45340.86
614.00	45600.66
614.15	45521.08
614.31	45495.33
614.46	45235.53
614.62	45485.97
614.77	45333.84
614.92	45387.67
615.08	45251.92
615.23	45521.08
615.38	45174.68
615.54	44505.29
615.69	45146.59
615.84	44776.79
616.00	45071.70
616.15	45331.50
616.30	45558.53
616.46	44776.79
616.61	45071.70
616.76	44776.79
616.92	44479.54
617.07	45120.85
617.22	44746.36
617.37	44758.06
617.53	45165.32
617.68	45329.16
617.83	44261.87
617.99	45090.42
618.14	44856.37
618.29	45017.86
618.45	44357.83
618.60	45015.52
618.75	44229.10
618.90	44362.51
619.06	44383.58
619.21	44350.81
619.36	44797.85
619.51	44488.90
619.67	44151.87
619.82	44903.18
619.97	44732.32
620.12	44360.17
620.28	44238.47
620.43	44034.84
620.58	44397.62
620.73	44334.43
620.89	44395.28
621.04	44568.48
621.19	44360.17
621.34	44414.01
621.49	44016.11
621.65	44172.93
621.80	44652.74
621.95	43929.51
622.10	44737.00
622.25	44243.15
622.41	44184.63
622.56	44065.27
622.71	44158.89
622.86	44086.33
623.01	44264.21
623.16	44119.10
623.32	44194.00
623.47	43810.15
623.62	44137.82
623.77	43306.93
623.92	43674.40
624.07	44409.32
624.23	43566.73
624.38	43885.04
624.53	43374.81
624.68	43157.14
624.83	43704.82
624.98	43393.53
625.13	43166.50
625.29	43365.45
625.44	43175.86
625.59	43398.21
625.74	43264.80
625.89	43438.00
626.04	43136.07
626.19	43255.44
626.34	43828.87
626.49	43519.92
626.65	43040.11
626.80	43559.71
626.95	42871.59
627.10	43360.76
627.25	43217.99
627.40	42579.03
627.55	42642.22
627.70	42939.47
627.85	42813.08
628.00	43063.52
628.15	42906.70
628.30	43147.78
628.45	42726.48
628.60	42927.77
628.76	43168.84
628.91	42775.63
629.06	42925.42
629.21	42506.47
629.36	42431.57
629.51	42342.63
629.66	42810.74
629.81	42389.44
629.96	42344.97
630.11	42667.97
630.26	43220.33
630.41	42902.02
630.56	42429.23
630.71	42410.51
630.86	42171.77
631.01	42021.98
631.16	42307.52
631.31	42106.24
631.46	42279.44
631.61	42033.68
631.76	42281.78
631.91	42162.41
632.06	42181.13
632.21	42452.64
632.36	42714.78
632.51	41785.58
632.66	42206.88
632.81	42260.71
632.96	42244.33
633.10	41928.36
633.25	41998.57
633.40	41862.82
633.55	41752.82
633.70	41429.82
633.85	41844.10
634.00	41914.31
634.15	42047.72
634.30	41902.61
634.45	41670.90
634.60	41759.84
634.75	41977.51
634.90	41677.92
635.05	41415.78
635.19	41734.09
635.34	42131.98
635.49	41518.76
635.64	41757.50
635.79	41223.86
635.94	41523.44
636.09	41392.37
636.24	41296.41
636.39	41095.13
636.53	41469.61
636.68	41551.53
636.83	41280.03
636.98	41460.25
637.13	41493.02
637.28	41846.44
637.43	41888.57
637.57	41284.71
637.72	40945.33
637.87	41076.40
638.02	41551.53
638.17	41202.79
638.32	41525.78
638.46	40926.61
638.61	40662.13
638.76	40793.20
638.91	41155.98
639.06	41219.17
639.20	41120.87
639.35	41244.92
639.50	41127.89
639.65	41158.32
639.80	40865.75
639.94	40767.45
640.09	40453.82
640.24	40903.20
640.39	40671.49
640.54	40507.65
640.68	40926.61
640.83	40587.23
640.98	40514.67
641.13	40311.05
641.27	40739.36
641.42	40332.11
641.57	40701.92
641.72	40758.09
641.86	40306.37
642.01	39995.07
642.16	39484.84
642.31	40151.89
642.45	40854.05
642.60	39880.39
642.75	40458.50
642.90	40346.15
643.04	39957.63
643.19	40304.02
643.34	40119.12
643.48	40184.66
643.63	40252.53
643.78	39894.43
643.93	40322.75
644.07	40051.25
644.22	40238.49
644.37	39688.46
644.51	39856.98
644.66	40058.27
644.81	40179.98
644.95	39786.77
645.10	39997.41
645.25	39950.60
645.39	40105.08
645.54	39655.70
645.69	39852.30
645.83	39646.33
645.98	39147.80
646.13	39959.97
646.27	39966.99
646.42	39196.95
646.57	39716.55
646.71	39091.63
646.86	39421.64
647.00	39995.07
647.15	39264.83
647.30	39482.50
647.44	39477.82
647.59	39250.78
647.74	39236.74
647.88	39613.57
648.03	39779.74
648.17	39318.66
648.32	39323.34
648.47	39363.13
648.61	39246.10
648.76	39295.25
648.90	39068.22
649.05	39215.68
649.20	39143.12
649.34	39033.11
649.49	38974.60
649.63	38740.55
649.78	39206.31
649.92	39005.03
650.07	39524.63
650.21	39096.31
650.36	38824.81
650.51	38906.73
650.65	39796.13
650.80	39335.04
650.94	39370.15
651.09	39271.85
651.23	38731.18
651.38	38410.53
651.52	38471.39
651.67	38139.03
651.81	38572.03
651.96	38590.75
652.10	38787.36
652.25	38775.66
652.39	38899.70
652.54	38487.77
652.68	38368.40
652.83	38866.94
652.97	38890.34
653.12	38752.25
653.26	38621.18
653.41	38307.55
653.55	38490.11
653.70	38555.64
653.84	38419.89
653.99	37848.80
654.13	38000.94
654.27	38490.11
654.42	37912.00
654.56	38389.47
654.71	38354.36
654.85	38190.52
655.00	38581.39
655.14	37710.71
655.29	37490.70
655.43	37584.32
655.57	37263.67
655.72	37364.31
655.86	37078.77
656.01	37137.28
656.15	37001.53
656.30	36907.91
656.44	37425.17
656.58	37542.19
656.73	37586.66
656.87	37656.88
657.01	37146.64
657.16	37177.07
657.30	36959.40
657.45	36961.74
657.59	36996.85
657.73	37551.56
657.88	37275.37
658.02	37764.54
658.16	37528.15
658.31	37677.94
658.45	37904.98
658.60	37455.59
658.74	37893.27
658.88	37628.79
659.03	36776.84
659.17	37216.86
659.31	37170.05
659.46	36870.46
659.60	37198.13
659.74	36896.20
659.89	36613.00
660.03	36870.46
660.17	37069.40
660.32	37081.11
660.46	36671.51
660.60	36786.20
660.74	36652.79
660.89	36498.31
661.03	36449.16
661.17	36346.18
661.32	36746.41
661.46	36315.75
661.60	36339.16
661.74	36407.03
661.89	36402.35
662.03	36046.59
662.17	36175.32
662.31	36388.31
662.46	36348.52
662.60	36666.83
662.74	36313.41
662.88	36119.15
663.03	35985.74
663.17	36086.38
663.31	35793.81
663.45	35976.37
663.60	35941.27
663.74	35807.86
663.88	35791.47
664.02	35625.29
664.17	35679.13
664.31	35405.28
664.45	35084.63
664.59	35597.21
664.73	35058.88
664.88	35026.12
665.02	35044.84
665.16	34890.37
665.30	34752.27
665.44	35026.12
665.59	34682.06
665.73	34841.21
665.87	34632.91
666.01	34808.45
666.15	34785.04
666.29	34789.72
666.44	34998.03
666.58	35204.00
666.72	34939.52
666.86	34632.91
667.00	34878.66
667.14	34333.32
667.28	34281.83
667.43	34527.58
667.57	34560.35
667.71	34326.30
667.85	34569.71
667.99	34307.57
668.13	34455.03
668.27	34089.90
668.41	34082.88
668.56	33860.53
668.70	33717.76
668.84	33612.43
668.98	33544.56
669.12	33865.21
669.26	33703.71
669.40	33558.60
669.54	33369.02
669.68	33741.16
669.82	33057.73
669.96	33109.22
670.10	33053.05
670.25	33677.97
670.39	33123.26
670.53	33174.75
670.67	33001.55
670.81	32900.91
670.95	32746.44
671.09	32833.04
671.23	32683.24
671.37	32648.13
671.51	32484.30
671.65	32479.61
671.79	32809.63
671.93	32589.62
672.07	32280.67
672.21	32343.86
672.35	31936.61
672.49	32224.50
672.63	32364.93
672.77	32472.59
672.91	31924.91
673.05	31814.90
673.19	32025.55
673.33	31880.44
673.47	31697.88
673.61	31828.95
673.75	31821.92
673.89	31400.63
674.03	30979.33
674.17	31505.95
674.31	31372.54
674.45	31468.50
674.59	31276.58
674.73	31510.63
674.87	31510.63
675.01	31140.83
675.15	30976.99
675.29	30941.88
675.43	31337.43
675.56	31077.63
675.70	30703.15
675.84	30806.13
675.98	29640.54
676.12	30192.91
676.26	30506.54
676.40	30256.11
676.54	30508.88
676.68	29961.20
676.82	29750.55
676.96	29846.51
677.10	30071.20
677.23	29776.30
677.37	29642.88
677.51	29996.31
677.65	29296.49
677.79	29308.19
677.93	29778.64
678.07	29008.60
678.21	28936.04
678.34	28758.16
678.48	28538.15
678.62	28854.12
678.76	28613.05
678.90	28416.44
679.04	28486.66
679.18	28744.12
679.31	28304.10
679.45	28027.92
679.59	28203.46
679.73	27592.58
679.87	28453.89
680.00	27962.38
680.14	27751.73
680.28	27756.41
680.42	27625.34
680.56	27241.50
680.70	27765.78
680.83	27564.49
680.97	27618.32
681.11	27615.98
681.25	27365.54
681.39	26958.29
681.52	27178.30
681.66	27122.13
681.80	26906.80
681.94	27147.87
682.07	26637.64
682.21	26745.30
682.35	26892.76
682.49	26267.83
682.62	26426.99
682.76	26394.22
682.90	26274.85
683.04	26260.81
683.17	25947.18
683.31	26015.05
683.45	25940.16
683.59	25886.32
683.72	25710.78
683.86	25549.29
684.00	25551.63
684.13	25097.56
684.27	24936.07
684.41	25053.09
684.55	25020.33
684.68	25273.10
684.82	25214.59
684.96	25177.14
685.09	24922.02
685.23	24416.47
685.37	24992.24
685.50	24940.75
685.64	24568.60
685.78	24631.80
685.91	24301.78
686.05	24077.09
686.19	24198.80
686.32	23971.77
686.46	23803.25
686.60	23227.48
686.73	23201.73
686.87	23374.93
687.01	23293.01
687.14	23065.98
687.28	22970.02
687.42	23241.52
687.55	22951.29
687.69	23197.05
687.82	23302.37
687.96	23119.81
688.10	22658.73
688.23	22754.69
688.37	22649.36
688.50	22782.77
688.64	22586.17
688.78	22565.10
688.91	22146.15
689.05	22373.18
689.18	21860.60
689.32	21811.45
689.46	22176.58
689.59	22314.67
689.73	22057.21
689.86	21678.04
690.00	22019.76
690.13	21710.81
690.27	21652.30
690.41	21179.51
690.54	21511.86
690.68	21355.05
690.81	21266.11
690.95	21287.17
691.08	21345.69
691.22	21549.31
691.35	21432.29
691.49	21249.72
691.62	20957.16
691.76	20856.51
691.89	21013.33
692.03	20460.96
692.16	20563.95
692.30	20524.16
692.43	20430.54
692.57	20030.30
692.70	20114.56
692.84	19812.63
692.97	19716.67
693.11	19819.66
693.24	19798.59
693.38	19878.17
693.51	19679.22
693.65	19637.09
693.78	19454.53
693.92	19396.02
694.05	19632.41
694.19	19150.26
694.32	19475.60
694.45	19239.20
694.59	19154.94
694.72	18733.65
694.86	18899.83
694.99	18838.97
695.13	18759.39
695.26	18593.22
695.39	18775.78
695.53	18951.32
695.66	19002.81
695.80	18541.72
695.93	18326.39
696.07	18560.45
696.20	18312.35
696.33	18455.12
696.47	18307.67
696.60	18061.91
696.73	17975.31
696.87	17830.20
697.00	17446.35
697.14	17596.15
697.27	17366.78
697.40	17399.54
697.54	17366.78
697.67	17530.61
697.80	17298.90
697.94	17357.41
698.07	17261.45
698.21	17289.54
698.34	17415.93
698.47	17125.70
698.61	17036.76
698.74	16816.75
698.87	16753.55
699.01	16507.80
699.14	16444.60
699.27	16243.32
699.40	16453.97
699.54	16243.32
699.67	16161.40
699.80	16208.21
699.94	15822.02
700.07	16081.82
700.20	16145.02
700.34	16278.43
700.47	15999.90
700.60	15775.21
700.73	16035.01
700.87	15545.84
701.00	15625.42
701.13	15489.67
701.26	15145.61
701.40	15466.26
701.53	15269.66
701.66	15611.37
701.79	15110.50
701.93	15096.46
702.06	14998.15
702.19	14862.40
702.32	15054.33
702.46	14958.36
702.59	14834.32
702.72	14806.23
702.85	14836.66
702.99	14895.17
703.12	14457.49
703.25	14438.76
703.38	14331.10
703.51	14345.14
703.65	14438.76
703.78	14249.18
703.91	13661.71
704.04	14171.94
704.17	14104.07
704.31	13846.61
704.44	14050.24
704.57	14040.87
704.70	13790.44
704.83	13664.05
704.96	13848.95
705.10	13603.19
705.23	13511.91
>>>>>End Processed Spectral Data<<<<<
