SpectraSuite Data File
++++++++++++++++++++++++++++++++++++
Date: Fri Oct 25 10:43:19 EDT 2013
User: price-jones
Dark Spectrum Present: No
Reference Spectrum Present: No
Number of Sampled Component Spectra: 1
Spectrometers: USB2+H05261
Integration Time (usec): 100000 (USB2+H05261)
Spectra Averaged: 1 (USB2+H05261)
Boxcar Smoothing: 0 (USB2+H05261)
Correct for Electrical Dark: No (USB2+H05261)
Strobe/Lamp Enabled: No (USB2+H05261)
Correct for Detector Non-linearity: No (USB2+H05261)
Correct for Stray Light: No (USB2+H05261)
Number of Pixels in Processed Spectrum: 2048
>>>>>Begin Processed Spectral Data<<<<<
365.73	133.41
365.92	133.41
366.12	133.41
366.32	70.22
366.52	49.15
366.72	102.98
366.91	0.00
367.11	51.49
367.31	0.00
367.51	4.68
367.70	39.79
367.90	44.47
368.10	39.79
368.30	0.00
368.49	14.04
368.69	145.11
368.89	7.02
369.09	9.36
369.28	35.11
369.48	28.09
369.68	7.02
369.87	46.81
370.07	72.56
370.27	126.39
370.47	163.84
370.66	372.15
370.86	418.96
371.06	458.74
371.25	437.68
371.45	433.00
371.65	524.28
371.84	454.06
372.04	514.92
372.24	489.17
372.44	444.70
372.63	582.79
372.83	447.04
373.03	465.77
373.22	447.04
373.42	496.19
373.62	547.69
373.81	519.60
374.01	587.47
374.21	500.87
374.40	561.73
374.60	561.73
374.79	512.58
374.99	557.05
375.19	538.32
375.38	580.45
375.58	538.32
375.78	674.07
375.97	559.39
376.17	660.03
376.37	596.84
376.56	676.41
376.76	603.86
376.95	580.45
377.15	631.94
377.35	587.47
377.54	676.41
377.74	561.73
377.93	683.44
378.13	667.05
378.33	692.80
378.52	655.35
378.72	667.05
378.91	678.76
379.11	662.37
379.31	667.05
379.50	627.26
379.70	730.25
379.89	624.92
380.09	674.07
380.28	711.52
380.48	671.73
380.68	688.12
380.87	697.48
381.07	688.12
381.26	730.25
381.46	678.76
381.65	638.97
381.85	706.84
382.04	699.82
382.24	692.80
382.43	688.12
382.63	697.48
382.83	786.42
383.02	739.61
383.22	671.73
383.41	732.59
383.61	767.70
383.80	781.74
384.00	753.65
384.19	765.36
384.39	751.31
384.58	777.06
384.78	748.97
384.97	823.87
385.17	746.63
385.36	779.40
385.56	896.43
385.75	840.25
385.95	784.08
386.14	903.45
386.34	779.40
386.53	830.89
386.72	830.89
386.92	863.66
387.11	894.08
387.31	917.49
387.50	777.06
387.70	784.08
387.89	863.66
388.09	877.70
388.28	945.58
388.48	814.51
388.67	823.87
388.86	931.53
389.06	936.21
389.25	959.62
389.45	961.96
389.64	1060.26
389.84	954.94
390.03	999.41
390.22	985.37
390.42	915.15
390.61	973.66
390.81	1015.79
391.00	1029.84
391.19	1083.67
391.39	1015.79
391.58	1111.75
391.78	1086.01
391.97	1086.01
392.16	901.11
392.36	1013.45
392.55	983.02
392.75	971.32
392.94	1083.67
393.13	1013.45
393.33	1020.47
393.52	1109.41
393.71	1032.18
393.91	1130.48
394.10	1060.26
394.29	1078.99
394.49	1153.88
394.68	1214.74
394.88	1193.67
395.07	1331.76
395.26	1238.14
395.46	1214.74
395.65	1263.89
395.84	1167.93
396.04	1256.87
396.23	1212.40
396.42	1179.63
396.62	1156.22
396.81	1198.35
397.00	1203.04
397.19	1149.20
397.39	1303.68
397.58	1394.96
397.77	1266.23
397.97	1359.85
398.16	1458.15
398.35	1533.05
398.55	1462.83
398.74	1458.15
398.93	1568.16
399.12	1455.81
399.32	1493.26
399.51	1509.65
399.70	1516.67
399.90	1617.31
400.09	1509.65
400.28	1643.06
400.47	1631.35
400.67	1551.78
400.86	1652.42
401.05	1636.03
401.24	1678.16
401.44	1844.34
401.63	1614.97
401.82	1706.25
402.01	1582.20
402.21	1682.85
402.40	1680.50
402.59	1792.85
402.78	1783.49
402.97	1675.82
403.17	1858.39
403.36	1870.09
403.55	1675.82
403.74	1947.33
403.93	1891.15
404.13	1865.41
404.32	1867.75
404.51	1863.07
404.70	1933.28
404.89	1973.07
405.09	1954.35
405.28	1839.66
405.47	1933.28
405.66	1987.11
405.85	1980.09
406.05	2008.18
406.24	2040.95
406.43	2085.42
406.62	2157.97
406.81	2155.63
407.00	1968.39
407.20	1952.01
407.39	2094.78
407.58	2256.28
407.77	2172.02
407.96	2101.80
408.15	2141.59
408.34	2197.76
408.54	2284.36
408.73	2258.62
408.92	2314.79
409.11	2303.09
409.30	2328.83
409.49	2324.15
409.68	2258.62
409.87	2244.57
410.07	2305.43
410.26	2296.07
410.45	2415.43
410.64	2495.01
410.83	2516.08
411.02	2499.69
411.21	2595.65
411.40	2576.93
411.59	2630.76
411.78	2558.21
411.98	2597.99
412.17	2612.04
412.36	2719.70
412.55	2649.49
412.74	2799.28
412.93	2771.19
413.12	2722.04
413.31	2815.66
413.50	2703.32
413.69	2754.81
413.88	2920.99
414.07	2995.89
414.26	2794.60
414.45	2918.65
414.64	2899.92
414.83	2998.23
415.02	3026.31
415.22	3028.65
415.41	3173.77
415.60	3080.14
415.79	3208.87
415.98	3253.34
416.17	3232.28
416.36	3215.90
416.55	3283.77
416.74	3339.94
416.93	3183.13
417.12	3258.03
417.31	3314.20
417.50	3449.95
417.69	3445.27
417.88	3426.54
418.07	3461.65
418.26	3480.38
418.45	3468.67
418.64	3552.93
418.83	3496.76
419.02	3646.55
419.21	3489.74
419.39	3599.74
419.58	3440.59
419.77	3595.06
419.96	3672.30
420.15	3679.32
420.34	3527.19
420.53	3648.90
420.72	3742.52
420.91	3751.88
421.10	3772.94
421.29	3803.37
421.48	3740.18
421.67	3990.61
421.86	3777.62
422.05	3730.81
422.24	3789.33
422.43	3878.27
422.61	3796.35
422.80	3927.42
422.99	3908.69
423.18	3833.80
423.37	3922.74
423.56	3911.04
423.75	3761.24
423.94	3894.65
424.13	3679.32
424.32	3772.94
424.50	3976.57
424.69	3997.64
424.88	4084.23
425.07	3988.27
425.26	3960.19
425.45	3904.01
425.64	3875.93
425.83	3892.31
426.01	4079.55
426.20	4114.66
426.39	3999.98
426.58	4030.40
426.77	3805.71
426.96	3983.59
427.15	3957.85
427.33	3971.89
427.52	3992.95
427.71	4119.34
427.90	4044.45
428.09	4198.92
428.28	4133.39
428.46	4058.49
428.65	4170.83
428.84	4126.36
429.03	4278.50
429.22	3927.42
429.40	4142.75
429.59	4039.76
429.78	3882.95
429.97	4014.02
430.16	4044.45
430.34	4035.08
430.53	4124.02
430.72	4121.68
430.91	4128.70
431.10	4311.27
431.28	4571.07
431.47	4685.75
431.66	4615.54
431.85	4503.19
432.03	4643.62
432.22	4830.87
432.41	4580.43
432.60	4655.33
432.79	4730.22
432.97	4781.71
433.16	4681.07
433.35	4596.81
433.54	4669.37
433.72	4561.70
433.91	4587.45
434.10	4540.64
434.28	4561.70
434.47	4777.03
434.66	4858.95
434.85	4931.51
435.03	4910.44
435.22	4880.02
435.41	5036.83
435.59	5046.20
435.78	5284.93
435.97	5074.28
436.16	5020.45
436.34	5032.15
436.53	5018.11
436.72	5338.76
436.90	4997.04
437.09	5207.69
437.28	5050.88
437.46	5151.52
437.65	5226.42
437.84	5125.77
438.02	5214.71
438.21	5165.56
438.40	5067.26
438.58	5242.80
438.77	5254.50
438.96	5455.79
439.14	5607.92
439.33	5668.78
439.52	5481.53
439.70	5577.50
439.89	5710.91
440.08	5734.31
440.26	5645.37
440.45	5694.52
440.63	5874.74
440.82	5858.36
441.01	5657.07
441.19	6073.69
441.38	5898.15
441.57	6050.28
441.75	6153.27
441.94	6195.40
442.12	6188.38
442.31	6497.33
442.50	6293.70
442.68	6321.79
442.87	6099.44
443.05	6188.38
443.24	6490.31
443.43	6417.75
443.61	6476.26
443.80	6541.80
443.98	6221.14
444.17	6207.10
444.35	6534.78
444.54	6544.14
444.73	6597.97
444.91	6511.37
445.10	6520.73
445.28	6406.05
445.47	6342.85
445.65	6457.54
445.84	6366.26
446.02	6394.34
446.21	6532.44
446.39	6464.56
446.58	6799.26
446.77	6656.48
446.95	6427.11
447.14	6651.80
447.32	6677.55
447.51	6525.41
447.69	6551.16
447.88	6590.95
448.06	6677.55
448.25	6623.72
448.43	6494.99
448.62	6546.48
448.80	6761.81
448.99	6773.51
449.17	6822.66
449.36	6829.68
449.54	6958.41
449.73	6993.52
449.91	7054.37
450.10	7304.81
450.28	7246.30
450.46	7236.94
450.65	7045.01
450.83	7227.57
451.02	7049.69
451.20	7255.66
451.39	7145.66
451.57	7117.57
451.76	7192.47
451.94	7126.93
452.13	7339.92
452.31	7272.04
452.49	7089.48
452.68	7295.45
452.86	7225.23
453.05	7056.72
453.23	7335.24
453.42	7108.21
453.60	7194.81
453.78	7356.30
453.97	7339.92
454.15	7351.62
454.34	7236.94
454.52	7508.44
454.70	7405.46
454.89	7470.99
455.07	7559.93
455.26	7576.31
455.44	7789.30
455.62	7660.57
455.81	7545.89
455.99	7887.61
456.17	7836.11
456.36	7847.82
456.54	7805.69
456.73	7808.03
456.91	8161.45
457.09	7964.84
457.28	8297.20
457.46	7976.55
457.64	8133.36
457.83	8128.68
458.01	8102.93
458.19	8217.62
458.38	8154.43
458.56	8229.32
458.74	8229.32
458.93	8339.33
459.11	8428.27
459.29	7983.57
459.48	8369.76
459.66	8091.23
459.84	8198.90
460.03	8519.55
460.21	8615.51
460.39	8416.57
460.57	8376.78
460.76	8634.24
460.94	8624.87
461.12	8610.83
461.31	8540.61
461.49	8468.06
461.67	8561.68
461.85	8809.78
462.04	8580.40
462.22	9268.52
462.40	8798.07
462.59	8688.07
462.77	8807.44
462.95	8943.19
463.13	8863.61
463.32	8959.57
463.50	9071.92
463.68	8865.95
463.86	8961.91
464.05	8950.21
464.23	8924.46
464.41	8957.23
464.59	8898.72
464.78	9146.81
464.96	9116.39
465.14	9025.11
465.32	9247.46
465.50	9280.22
465.69	9191.28
465.87	9121.07
466.05	9202.99
466.23	9205.33
466.41	8814.46
466.60	9200.65
466.78	9008.72
466.96	9289.59
467.14	9261.50
467.32	9415.98
467.51	9418.32
467.69	9231.07
467.87	9013.40
468.05	9465.13
468.23	9366.82
468.41	9366.82
468.60	9596.20
468.78	9701.52
468.96	9476.83
469.14	9593.86
469.32	9738.97
469.50	9460.45
469.69	9813.87
469.87	9542.36
470.05	9785.78
470.23	9635.99
470.41	9687.48
470.59	10127.50
470.77	9706.20
470.95	9909.83
471.14	10099.41
471.32	9659.39
471.50	10155.58
471.68	10228.14
471.86	10281.97
472.04	10443.47
472.22	10497.30
472.40	10071.33
472.58	10289.00
472.77	10501.98
472.95	10597.95
473.13	10640.08
473.31	10509.01
473.49	10424.75
473.67	10562.84
473.85	10700.93
474.03	10834.34
474.21	11037.97
474.39	10820.30
474.57	10911.58
474.75	11061.37
474.93	11110.52
475.12	11157.33
475.30	11154.99
475.48	11290.74
475.66	11243.93
475.84	11250.96
476.02	11421.81
476.20	11389.05
476.38	11396.07
476.56	11744.81
476.74	11758.85
476.92	11632.46
477.10	11433.52
477.28	11887.58
477.46	11847.79
477.64	12156.74
477.82	12453.99
478.00	12571.02
478.18	12409.52
478.36	12257.39
478.54	12692.73
478.72	12528.89
478.90	12643.57
479.08	13256.79
479.26	13041.46
479.44	12919.76
479.62	13179.56
479.80	13191.26
479.98	13699.16
480.16	13523.62
480.34	13429.99
480.52	13755.33
480.70	13783.41
480.88	13565.74
481.06	13816.18
481.24	13947.25
481.41	14349.82
481.59	14214.07
481.77	14478.55
481.95	14230.46
482.13	14487.92
482.31	14539.41
482.49	14817.93
482.67	14649.41
482.85	15089.43
483.03	14857.72
483.21	15176.03
483.39	15105.82
483.57	15241.57
483.74	15660.52
483.92	15749.46
484.10	15517.75
484.28	16020.97
484.46	15985.86
484.64	15941.39
484.82	15894.58
485.00	16128.63
485.18	16084.16
485.35	16159.06
485.53	16161.40
485.71	16395.45
485.89	16439.92
486.07	16322.90
486.25	16795.68
486.43	16727.81
486.61	17092.93
486.78	17142.08
486.96	17128.04
487.14	17514.23
487.32	17811.48
487.50	17649.98
487.68	18221.07
487.85	18010.42
488.03	18169.58
488.21	18480.87
488.39	18450.44
488.57	18766.42
488.75	18934.93
488.92	19246.23
489.10	19152.60
489.28	19239.20
489.46	19648.80
489.64	19398.36
489.81	20315.85
489.99	19714.33
490.17	20095.84
490.35	20482.03
490.53	20236.27
490.70	20561.61
490.88	20091.16
491.06	20606.08
491.24	20608.42
491.41	20453.94
491.59	20357.98
491.77	20596.71
491.95	20961.84
492.13	21064.82
492.30	21654.64
492.48	21525.91
492.66	21881.67
492.84	21888.69
493.01	22085.30
493.19	21811.45
493.37	22207.00
493.54	22153.17
493.72	22288.92
493.90	22731.28
494.08	23091.73
494.25	22693.83
494.43	22963.00
494.61	23183.01
494.79	23391.31
494.96	23222.80
495.14	23311.74
495.32	23536.43
495.49	23702.61
495.67	23658.14
495.85	24086.45
496.02	24070.07
496.20	23964.75
496.38	24584.99
496.55	24608.39
496.73	25022.67
496.91	24702.01
497.09	24592.01
497.26	24875.21
497.44	24561.58
497.62	25633.55
497.79	25060.12
497.97	25062.46
498.14	25462.69
498.32	25418.22
498.50	25415.88
498.67	25729.51
498.85	25834.83
499.03	25708.44
499.20	26192.94
499.38	26059.52
499.56	26291.24
499.73	26293.58
499.91	26319.32
500.08	26347.41
500.26	26078.25
500.44	26377.84
500.61	26548.70
500.79	26473.80
500.97	26801.47
501.14	26902.12
501.32	27068.30
501.49	26981.70
501.67	27005.10
501.84	27372.57
502.02	27356.18
502.20	27281.28
502.37	27480.23
502.55	27360.86
502.72	27828.97
502.90	27763.43
503.07	27953.02
503.25	27676.83
503.43	27747.05
503.60	27868.76
503.78	27931.95
503.95	28175.37
504.13	28332.18
504.30	28353.25
504.48	28577.94
504.65	29027.32
504.83	28819.02
505.01	29053.07
505.18	29029.66
505.36	29170.10
505.53	29329.25
505.71	29575.01
505.88	29511.81
506.06	29209.89
506.23	29427.56
506.41	29832.47
506.58	29654.59
506.76	29710.76
506.93	29689.70
507.11	29741.19
507.28	29876.94
507.46	29633.52
507.63	30209.29
507.81	30183.55
507.98	29776.30
508.16	30199.93
508.33	30553.35
508.50	30471.43
508.68	30572.08
508.85	30710.17
509.03	30920.82
509.20	31044.87
509.38	31016.78
509.55	31126.78
509.73	31339.77
509.90	31042.53
510.08	31260.20
510.25	31299.98
510.42	31463.82
510.60	31550.42
510.77	31498.93
510.95	31730.64
511.12	31454.46
511.30	31868.73
511.47	32147.26
511.64	32065.34
511.82	32123.85
511.99	32025.55
512.17	31859.37
512.34	32493.66
512.51	32140.24
512.69	32521.74
512.86	32383.65
513.04	32910.27
513.21	32271.31
513.38	32407.06
513.56	32671.54
513.73	32570.90
513.90	33048.36
514.08	33024.96
514.25	32924.32
514.43	33174.75
514.60	33219.22
514.77	33397.10
514.95	33322.21
515.12	32952.40
515.29	33141.99
515.47	33567.96
515.64	33792.65
515.81	33867.55
515.99	33572.64
516.16	33364.34
516.33	33369.02
516.51	33284.76
516.68	33230.93
516.85	32865.80
517.03	33132.62
517.20	33607.75
517.37	34003.30
517.54	34174.16
517.72	34038.41
517.89	33383.06
518.06	33975.22
518.24	34227.99
518.41	34204.59
518.58	34459.71
518.75	34150.76
518.93	34604.82
519.10	34373.11
519.27	35164.21
519.45	34714.83
519.62	34941.86
519.79	34883.34
519.96	35311.66
520.14	35498.91
520.31	34873.98
520.48	34885.68
520.65	35119.74
520.83	35644.02
521.00	35665.08
521.17	35590.19
521.34	35625.29
521.52	36119.15
521.69	35812.54
521.86	36072.34
522.03	36114.47
522.20	36257.24
522.38	36002.12
522.55	36610.66
522.72	35772.75
522.89	36203.41
523.07	36519.38
523.24	36367.24
523.41	36645.77
523.58	36596.62
523.75	36889.18
523.92	36718.32
524.10	37205.16
524.27	37148.98
524.44	36940.68
524.61	36802.58
524.78	36861.10
524.96	37186.43
525.13	37216.86
525.30	37453.25
525.47	37574.96
525.64	37350.27
525.81	37823.06
525.98	36971.10
526.16	37029.62
526.33	37584.32
526.50	36891.52
526.67	36678.54
526.84	36875.14
527.01	37209.84
527.18	37574.96
527.36	38183.50
527.53	37923.70
527.70	38213.93
527.87	38078.18
528.04	37904.98
528.21	38572.03
528.38	38251.38
528.55	39023.75
528.72	38815.44
528.89	38604.80
529.07	38162.43
529.24	38630.54
529.41	38419.89
529.58	38700.76
529.75	38705.44
529.92	38635.22
530.09	39061.20
530.26	38759.27
530.43	38979.28
530.60	38808.42
530.77	39005.03
530.94	39124.40
531.11	38976.94
531.28	39440.37
531.46	38848.21
531.63	39241.42
531.80	39044.82
531.97	39007.37
532.14	39175.89
532.31	38925.45
532.48	39234.40
532.65	39255.46
532.82	39093.97
532.99	39384.19
533.16	39379.51
533.33	39772.72
533.50	39793.79
533.67	39131.42
533.84	39318.66
534.01	40093.38
534.18	39924.86
534.35	40348.50
534.52	40041.88
534.69	40231.47
534.86	40474.88
535.03	39934.22
535.20	40282.96
535.37	40390.62
535.54	40807.24
535.71	40273.60
535.88	40273.60
536.05	39885.07
536.22	40526.38
536.38	40484.25
536.55	40390.62
536.72	40285.30
536.89	40531.06
537.06	40355.52
537.23	41186.41
537.40	40861.07
537.57	40402.33
537.74	41134.92
537.91	40933.63
538.08	40980.44
538.25	40814.26
538.42	40669.15
538.59	40872.78
538.75	41071.72
538.92	40837.67
539.09	41015.55
539.26	41001.50
539.43	40994.48
539.60	41139.60
539.77	40940.65
539.94	41453.23
540.11	41408.76
540.28	41205.13
540.44	41282.37
540.61	41354.93
540.78	41322.16
540.95	41090.44
541.12	41258.96
541.29	40964.06
541.46	41528.13
541.62	42124.96
541.79	41553.87
541.96	41322.16
542.13	41750.48
542.30	41455.57
542.47	41806.65
542.63	42045.38
542.80	41893.25
542.97	41998.57
543.14	42059.43
543.31	42447.96
543.48	42651.58
543.64	42583.71
543.81	42836.48
543.98	42534.56
544.15	42143.69
544.32	42859.89
544.48	43026.07
544.65	43070.54
544.82	42534.56
544.99	42366.04
545.16	42693.71
545.32	42412.85
545.49	42850.53
545.66	42990.96
545.83	43061.18
546.00	43019.05
546.16	42932.45
546.33	42616.47
546.50	42323.91
546.67	43285.87
546.83	42665.63
547.00	42859.89
547.17	42738.18
547.34	42607.11
547.50	43030.75
547.67	43248.42
547.84	43091.60
548.00	43672.06
548.17	43400.55
548.34	43522.26
548.51	43866.32
548.67	43618.22
548.84	43349.06
549.01	43042.45
549.18	42794.36
549.34	43189.91
549.51	43466.09
549.68	43739.93
549.84	43456.73
550.01	43538.65
550.18	43512.90
550.34	43452.05
550.51	43718.87
550.68	43716.53
550.84	42883.30
551.01	43906.11
551.18	43711.84
551.34	43711.84
551.51	44149.53
551.68	43803.13
551.84	43821.85
552.01	44116.76
552.18	44212.72
552.34	43445.02
552.51	44346.13
552.68	44215.06
552.84	43679.08
553.01	44451.45
553.18	43957.60
553.34	44369.54
553.51	44488.90
553.67	44114.42
553.84	44708.91
554.01	44350.81
554.17	44336.77
554.34	44587.21
554.51	44266.55
554.67	44636.36
554.84	44322.72
555.00	43913.13
555.17	44495.92
555.33	44257.19
555.50	44648.06
555.67	44512.31
555.83	44804.88
556.00	44781.47
556.16	45205.11
556.33	44493.58
556.50	44423.37
556.66	44491.24
556.83	44074.63
556.99	44877.43
557.16	44570.82
557.32	44765.09
557.49	44538.05
557.65	44215.06
557.82	45052.97
557.98	44247.83
558.15	44091.01
558.32	45097.44
558.48	44505.29
558.65	44657.42
558.81	44584.86
558.98	45020.20
559.14	44645.72
559.31	44671.46
559.47	44914.88
559.64	44699.55
559.80	45392.35
559.97	44924.24
560.13	45048.29
560.30	45099.78
560.46	44704.23
560.63	45095.10
560.79	45219.15
560.96	45338.52
561.12	45368.94
561.29	44767.43
561.45	45397.03
561.61	44966.37
561.78	45315.11
561.94	45099.78
562.11	45244.90
562.27	45123.19
562.44	45064.67
562.60	45303.41
562.77	44919.56
562.93	45076.38
563.10	45450.86
563.26	45034.25
563.42	45378.31
563.59	45408.73
563.75	45296.39
563.92	45603.00
564.08	45406.39
564.24	45375.97
564.41	45045.95
564.57	45001.48
564.74	45322.13
564.90	44973.39
565.07	45184.04
565.23	45340.86
565.39	45404.05
565.56	45408.73
565.72	45160.64
565.88	45492.99
566.05	45043.61
566.21	45425.12
566.38	45404.05
566.54	45626.40
566.70	45635.77
566.87	45673.21
567.03	45436.82
567.19	46192.81
567.36	45345.54
567.52	45787.90
567.68	45729.39
567.85	45605.34
568.01	45333.84
568.17	45542.14
568.34	45993.87
568.50	45879.18
568.66	45289.37
568.83	45631.08
568.99	45294.05
569.15	46064.08
569.32	45806.62
569.48	45413.41
569.64	46162.39
569.81	45830.03
569.97	45617.04
570.13	45539.80
570.30	45116.17
570.46	45453.20
570.62	44865.73
570.78	45106.80
570.95	45148.93
571.11	45598.32
571.27	45397.03
571.43	45492.99
571.60	45895.56
571.76	45258.94
571.92	45731.73
572.09	45385.33
572.25	45713.00
572.41	46202.18
572.57	45865.14
572.74	46267.71
572.90	45684.92
573.06	46136.64
573.22	45687.26
573.38	46014.93
573.55	45708.32
573.71	45921.31
573.87	45933.01
574.03	45523.42
574.20	45584.27
574.36	45401.71
574.52	46094.51
574.68	45933.01
574.84	45666.19
575.01	45635.77
575.17	45670.87
575.33	45558.53
575.49	45661.51
575.65	46068.76
575.82	45942.38
575.98	45509.38
576.14	46239.62
576.30	46047.70
576.46	45605.34
576.62	45879.18
576.79	45853.44
576.95	45415.76
577.11	45869.82
577.27	45757.47
577.43	45528.10
577.59	45579.59
577.75	45315.11
577.92	45408.73
578.08	45174.68
578.24	45654.49
578.40	45619.38
578.56	45785.56
578.72	45668.53
578.88	45759.81
579.04	45918.97
579.21	45626.40
579.37	45591.30
579.53	45656.83
579.69	45605.34
579.85	45851.09
580.01	46237.28
580.17	45382.99
580.33	46171.75
580.49	45652.15
580.65	45830.03
580.82	46148.34
580.98	45984.51
581.14	45242.56
581.30	45560.87
581.46	45944.72
581.62	45963.44
581.78	45741.09
581.94	46342.61
582.10	46014.93
582.26	45797.26
582.42	46054.72
582.58	45511.72
582.74	45703.64
582.90	45827.69
583.06	45792.58
583.22	45928.33
583.38	46040.68
583.54	46078.13
583.70	45815.99
583.86	45736.41
584.02	45705.98
584.18	45787.90
584.34	45759.81
584.50	45722.37
584.66	45925.99
584.82	45593.64
584.98	45574.91
585.14	45928.33
585.30	46007.91
585.46	45731.73
585.62	45572.57
585.78	45701.30
585.94	45481.29
586.10	45659.17
586.26	45724.71
586.42	46169.41
586.58	45865.14
586.74	46071.10
586.90	45851.09
587.06	45881.52
587.22	46291.12
587.38	46101.53
587.54	45986.85
587.70	46141.32
587.86	45640.45
588.02	46031.32
588.18	45801.94
588.34	45567.89
588.49	45340.86
588.65	45687.26
588.81	45411.07
588.97	45528.10
589.13	45282.34
589.29	45532.78
589.45	45315.11
589.61	45638.11
589.77	46316.86
589.93	46176.43
590.08	45942.38
590.24	45970.46
590.40	46279.41
590.56	45944.72
590.72	45986.85
590.88	45656.83
591.04	46223.24
591.20	46422.19
591.35	46440.91
591.51	46410.48
591.67	46143.66
591.83	45947.06
591.99	45923.65
592.15	46155.36
592.31	46485.38
592.46	46108.55
592.62	46288.77
592.78	45893.22
592.94	46295.80
593.10	46206.86
593.26	46267.71
593.41	46251.33
593.57	46047.70
593.73	45867.48
593.89	46344.95
594.05	46384.74
594.20	46014.93
594.36	45909.61
594.52	45902.59
594.68	46244.30
594.84	45748.11
594.99	46239.62
595.15	45701.30
595.31	46232.60
595.47	46328.56
595.62	46206.86
595.78	46300.48
595.94	45979.82
596.10	45776.20
596.25	45888.54
596.41	45993.87
596.57	45865.14
596.73	45570.23
596.88	45743.43
597.04	46190.47
597.20	46033.66
597.36	46300.48
597.51	46302.82
597.67	45961.10
597.83	45750.45
597.99	46298.14
598.14	45933.01
598.30	46321.54
598.46	45698.96
598.61	46450.27
598.77	45911.95
598.93	45925.99
599.09	45977.48
599.24	46684.33
599.40	46251.33
599.56	46316.86
599.71	46064.08
599.87	46279.41
600.03	45808.96
600.18	46110.89
600.34	46171.75
600.50	46038.34
600.65	46024.29
600.81	46160.05
600.97	45876.84
601.12	46246.65
601.28	45703.64
601.44	45872.16
601.59	45759.81
601.75	45996.21
601.91	45888.54
602.06	46408.14
602.22	45986.85
602.37	46078.13
602.53	45734.07
602.69	46504.10
602.84	46012.59
603.00	45961.10
603.16	45626.40
603.31	45872.16
603.47	46356.65
603.62	45734.07
603.78	46087.49
603.94	46089.83
604.09	46391.76
604.25	46059.40
604.40	45977.48
604.56	46071.10
604.71	46389.42
604.87	46115.58
605.03	46129.62
605.18	45605.34
605.34	45972.80
605.49	45680.24
605.65	45951.74
605.80	45792.58
605.96	46185.79
606.12	46120.26
606.27	46052.38
606.43	45783.22
606.58	45977.48
606.74	45818.33
606.89	45778.54
607.05	45677.90
607.20	45610.02
607.36	45902.59
607.51	46199.83
607.67	46277.07
607.82	45460.23
607.98	45603.00
608.13	45202.77
608.29	45535.12
608.44	45294.05
608.60	45755.13
608.75	45577.25
608.91	45298.73
609.06	45682.58
609.22	45675.55
609.37	45862.80
609.53	45748.11
609.68	45631.08
609.84	45394.69
609.99	45371.28
610.15	45357.24
610.30	45237.87
610.46	45359.58
610.61	45553.85
610.76	45523.42
610.92	45603.00
611.07	45392.35
611.23	45794.92
611.38	45411.07
611.54	44947.65
611.69	45495.33
611.84	45205.11
612.00	45155.96
612.15	45226.17
612.31	45635.77
612.46	45228.51
612.62	45291.71
612.77	44931.26
612.92	45209.79
613.08	44947.65
613.23	45118.51
613.39	44804.88
613.54	44568.48
613.69	44701.89
613.85	44708.91
614.00	45216.81
614.15	44811.90
614.31	44568.48
614.46	45137.23
614.62	44896.16
614.77	44781.47
614.92	44713.59
615.08	44643.38
615.23	44491.24
615.38	44776.79
615.54	44577.84
615.69	44641.04
615.84	44804.88
616.00	44392.94
616.15	44596.57
616.30	44519.33
616.46	44329.75
616.61	44587.21
616.76	44203.36
616.92	43924.83
617.07	44229.10
617.22	43838.23
617.37	44140.16
617.53	44421.03
617.68	44657.42
617.83	44264.21
617.99	44282.94
618.14	44521.67
618.29	44067.61
618.45	44243.15
618.60	43906.11
618.75	44177.61
618.90	43524.60
619.06	43913.13
619.21	44137.82
619.36	44037.18
619.51	44315.70
619.67	43941.22
619.82	43936.54
619.97	44065.27
620.12	43997.39
620.28	43316.29
620.43	43723.55
620.58	43707.16
620.73	43917.81
620.89	44023.14
621.04	43709.50
621.19	43878.02
621.34	43761.00
621.49	43618.22
621.65	44034.84
621.80	43957.60
621.95	43358.42
622.10	43945.90
622.25	43477.79
622.41	43538.65
622.56	43489.49
622.71	43613.54
622.86	43072.88
623.01	43562.05
623.16	43739.93
623.32	43124.37
623.47	43505.88
623.62	43014.37
623.77	43548.01
623.92	43365.45
624.07	43243.74
624.23	42962.87
624.38	43330.34
624.53	43028.41
624.68	43049.47
624.83	43103.31
624.98	42916.06
625.13	42796.70
625.29	42857.55
625.44	43028.41
625.59	42564.98
625.74	42759.25
625.89	42583.71
626.04	42925.42
626.19	42621.16
626.34	43002.66
626.49	42962.87
626.65	43107.99
626.80	42890.32
626.95	42698.39
627.10	42674.99
627.25	42871.59
627.40	42143.69
627.55	42295.82
627.70	42153.05
627.85	42349.65
628.00	42213.90
628.15	42658.60
628.30	42632.86
628.45	42677.33
628.60	42237.31
628.76	42260.71
628.91	42462.00
629.06	42031.34
629.21	42433.91
629.36	42337.95
629.51	41970.49
629.66	42225.60
629.81	41706.01
629.96	42272.42
630.11	41865.16
630.26	41928.36
630.41	42181.13
630.56	42225.60
630.71	42227.95
630.86	42241.99
631.01	41914.31
631.16	41865.16
631.31	41713.03
631.46	41666.22
631.61	41989.21
631.76	41862.82
631.91	42234.97
632.06	41895.59
632.21	41818.35
632.36	41614.72
632.51	41233.22
632.66	41584.30
632.81	41383.01
632.96	41528.13
633.10	41392.37
633.25	41214.49
633.40	41588.98
633.55	41750.48
633.70	41684.94
633.85	41184.07
634.00	41600.68
634.15	41380.67
634.30	41446.21
634.45	41184.07
634.60	40940.65
634.75	41095.13
634.90	41401.74
635.05	40985.12
635.19	41062.36
635.34	41191.09
635.49	40942.99
635.64	40982.78
635.79	40779.15
635.94	40460.84
636.09	41116.19
636.24	40781.49
636.39	40652.76
636.53	41111.51
636.68	40634.04
636.83	40458.50
636.98	40769.79
637.13	40917.25
637.28	41275.35
637.43	41085.76
637.57	41570.25
637.72	40872.78
637.87	40509.99
638.02	40751.07
638.17	40847.03
638.32	40982.78
638.46	40582.55
638.61	39873.37
638.76	40453.82
638.91	40306.37
639.06	40741.71
639.20	40453.82
639.35	40767.45
639.50	40519.35
639.65	40732.34
639.80	40320.41
639.94	40109.76
640.09	40299.34
640.24	40467.86
640.39	40212.74
640.54	40121.46
640.68	40327.43
640.83	40399.99
640.98	39826.56
641.13	39641.65
641.27	40472.54
641.42	40278.28
641.57	39948.26
641.72	39983.37
641.86	39679.10
642.01	39473.13
642.16	39880.39
642.31	39543.35
642.45	39983.37
642.60	39660.38
642.75	39718.89
642.90	39845.28
643.04	39922.52
643.19	39910.82
643.34	39920.18
643.48	39496.54
643.63	39548.03
643.78	39606.55
643.93	39363.13
644.07	39606.55
644.22	39407.60
644.37	39133.76
644.51	39454.41
644.66	39454.41
644.81	39838.26
644.95	39746.98
645.10	39587.82
645.25	39353.77
645.39	39438.03
645.54	39199.29
645.69	39248.44
645.83	39236.74
645.98	38724.16
646.13	39051.84
646.27	39152.48
646.42	38834.17
646.57	39115.03
646.71	39264.83
646.86	39051.84
647.00	38815.44
647.15	39222.70
647.30	39203.97
647.44	39147.80
647.59	38817.78
647.74	38782.68
647.88	38850.55
648.03	38740.55
648.17	38859.91
648.32	38780.34
648.47	38667.99
648.61	38497.13
648.76	38925.45
648.90	38878.64
649.05	38829.49
649.20	38979.28
649.34	38761.61
649.49	38391.81
649.63	38572.03
649.78	38930.13
649.92	38625.86
650.07	38693.74
650.21	38700.76
650.36	38492.45
650.51	38693.74
650.65	39033.11
650.80	39271.85
650.94	38494.79
651.09	38492.45
651.23	38195.20
651.38	37986.89
651.52	37949.45
651.67	38073.49
651.81	37769.22
651.96	38422.23
652.10	38012.64
652.25	38162.43
652.39	38487.77
652.54	38216.27
652.68	38071.15
652.83	38134.35
652.97	38796.72
653.12	38532.24
653.26	37865.19
653.41	37743.48
653.55	38031.36
653.70	37603.05
653.84	38270.10
653.99	37968.17
654.13	37577.30
654.27	37493.04
654.42	37888.59
654.56	37734.12
654.71	37923.70
654.85	37600.71
655.00	38298.19
655.14	37574.96
655.29	37429.85
655.43	37062.38
655.57	37036.64
655.72	37013.23
655.86	36968.76
656.01	36491.29
656.15	36542.78
656.30	36734.71
656.44	37221.54
656.58	37158.34
656.73	36891.52
656.87	36919.61
657.01	37022.59
657.16	37111.53
657.30	36900.89
657.45	36912.59
657.59	36774.50
657.73	36732.37
657.88	36788.54
658.02	37055.36
658.16	37141.96
658.31	37181.75
658.45	37120.90
658.60	36491.29
658.74	37022.59
658.88	37053.02
659.03	36753.43
659.17	36495.97
659.31	36912.59
659.46	36208.09
659.60	36563.85
659.74	36062.97
659.89	36341.50
660.03	36383.63
660.17	36825.99
660.32	36142.55
660.46	36613.00
660.60	36095.74
660.74	36107.44
660.89	36133.19
661.03	36177.66
661.17	36594.28
661.32	35964.67
661.46	35990.42
661.60	35793.81
661.74	35536.35
661.89	35913.18
662.03	35660.40
662.17	35777.43
662.31	36006.80
662.46	36144.89
662.60	35833.60
662.74	35573.80
662.88	35449.75
663.03	34878.66
663.17	35669.76
663.31	34799.08
663.45	35845.30
663.60	35077.61
663.74	35360.81
663.88	34885.68
664.02	35086.97
664.17	35388.90
664.31	34848.24
664.45	34862.28
664.59	34576.73
664.73	34831.85
664.88	34813.13
665.02	34422.26
665.16	34541.63
665.30	34572.05
665.44	34356.72
665.59	34286.51
665.73	34424.60
665.87	34286.51
666.01	34707.80
666.15	34391.83
666.29	34354.38
666.44	34562.69
666.58	34277.15
666.72	34349.70
666.86	34576.73
667.00	34295.87
667.14	34232.68
667.28	34024.37
667.43	34220.97
667.57	34143.74
667.71	33921.38
667.85	34345.02
667.99	34183.52
668.13	33921.38
668.27	33862.87
668.41	33944.79
668.56	33415.83
668.70	33235.61
668.84	33273.06
668.98	33263.69
669.12	33596.05
669.26	33528.17
669.40	33041.34
669.54	33149.01
669.68	32716.01
669.82	32823.67
669.96	32931.34
670.10	32606.00
670.25	33055.39
670.39	32732.39
670.53	32760.48
670.67	32676.22
670.81	32620.05
670.95	32802.61
671.09	32465.57
671.23	32119.17
671.37	32343.86
671.51	32224.50
671.65	32428.12
671.79	31901.50
671.93	31828.95
672.07	31871.07
672.21	31674.47
672.35	32006.83
672.49	31906.18
672.63	31922.57
672.77	31498.93
672.91	31952.99
673.05	31501.27
673.19	31948.31
673.33	31491.91
673.47	31538.72
673.61	30937.20
673.75	31283.60
673.89	30890.39
674.03	30932.52
674.17	30981.67
674.31	30962.95
674.45	31138.49
674.59	31246.15
674.73	31370.20
674.87	30756.98
675.01	30654.00
675.15	30686.76
675.29	30810.81
675.43	30796.77
675.56	30773.36
675.70	30174.19
675.84	30888.05
675.98	29577.35
676.12	30043.12
676.26	30092.27
676.40	30661.02
676.54	29830.13
676.68	29940.13
676.82	29467.34
676.96	29682.67
677.10	29788.00
677.23	29727.14
677.37	29415.85
677.51	29600.76
677.65	29200.52
677.79	28568.58
677.93	28922.00
678.07	28664.54
678.21	28851.78
678.34	28701.99
678.48	28451.55
678.62	28126.22
678.76	28142.60
678.90	27974.08
679.04	28219.84
679.18	28063.02
679.31	27728.33
679.45	27587.89
679.59	27946.00
679.73	27730.67
679.87	27826.63
680.00	27658.11
680.14	27845.35
680.28	27557.47
680.42	27346.82
680.56	27400.65
680.70	27300.01
680.83	27147.87
680.97	26995.74
681.11	27105.74
681.25	26902.12
681.39	26803.82
681.52	26993.40
681.66	27133.83
681.80	26672.74
681.94	26651.68
682.07	26408.26
682.21	26228.04
682.35	26487.84
682.49	25881.64
682.62	26019.74
682.76	25984.63
682.90	25755.26
683.04	25841.85
683.17	25883.98
683.31	25359.70
683.45	25535.24
683.59	25453.33
683.72	25467.37
683.86	25666.31
684.00	25160.76
684.13	25032.03
684.27	24723.08
684.41	24978.20
684.55	24584.99
684.68	24877.55
684.82	24814.36
684.96	25139.69
685.09	24727.76
685.23	24339.23
685.37	24458.60
685.50	24727.76
685.64	24425.83
685.78	24201.14
685.91	24107.52
686.05	23864.10
686.19	23700.26
686.32	23562.17
686.46	23403.02
686.60	23049.60
686.73	23302.37
686.87	23157.26
687.01	23192.37
687.14	22747.67
687.28	22640.00
687.42	22712.56
687.55	22852.99
687.69	23117.47
687.82	22972.36
687.96	23049.60
688.10	22628.30
688.23	22602.55
688.37	22176.58
688.50	22560.42
688.64	22148.49
688.78	22457.44
688.91	21689.74
689.05	21617.19
689.18	21575.06
689.32	21586.76
689.46	22057.21
689.59	22185.94
689.73	22244.45
689.86	21563.36
690.00	21443.99
690.13	21195.89
690.27	21408.88
690.41	21399.52
690.54	21205.25
690.68	21170.15
690.81	21120.99
690.95	20788.64
691.08	21245.04
691.22	21268.45
691.35	20652.89
691.49	21043.76
691.62	20919.71
691.76	20664.59
691.89	20657.57
692.03	20484.37
692.16	20622.46
692.30	20189.46
692.43	19983.49
692.57	19824.34
692.70	19721.35
692.84	19995.20
692.97	19473.26
693.11	19440.49
693.24	19688.59
693.38	19655.82
693.51	19541.13
693.65	19365.59
693.78	19278.99
693.92	19323.46
694.05	19426.45
694.19	19119.84
694.32	19220.48
694.45	19318.78
694.59	19204.10
694.72	18855.36
694.86	18504.28
694.99	18988.77
695.13	18714.92
695.26	18455.12
695.39	18389.59
695.53	18251.50
695.66	18604.92
695.80	18265.54
695.93	18324.05
696.07	18068.94
696.20	18033.83
696.33	18061.91
696.47	17909.78
696.60	17867.65
696.73	17762.33
696.87	17795.09
697.00	17352.73
697.14	17404.22
697.27	17289.54
697.40	17266.13
697.54	17291.88
697.67	17163.15
697.80	17228.68
697.94	16893.99
698.07	17006.33
698.21	17116.34
698.34	17095.27
698.47	16982.93
698.61	16847.18
698.74	16917.39
698.87	16652.91
699.01	16252.68
699.14	16292.47
699.27	16032.67
699.40	16238.64
699.54	15894.58
699.67	16123.95
699.80	16102.89
699.94	15927.35
700.07	16252.68
700.20	16063.10
700.34	15969.48
700.47	16018.63
700.60	15695.63
700.73	15726.06
700.87	15288.38
701.00	15798.62
701.13	15522.43
701.26	15131.56
701.40	15520.09
701.53	15417.11
701.66	15213.48
701.79	14953.68
701.93	15070.71
702.06	14848.36
702.19	14565.15
702.32	14815.59
702.46	14623.67
702.59	14422.38
702.72	14588.56
702.85	14368.55
702.99	14445.79
703.12	14558.13
703.25	14602.60
703.38	14345.14
703.51	14314.72
703.65	14075.98
703.78	14071.30
703.91	13832.57
704.04	13799.80
704.17	13975.34
704.31	13944.91
704.44	13687.45
704.57	13488.51
704.70	13734.26
704.83	13404.25
704.96	13589.15
705.10	13399.57
705.23	13224.03
>>>>>End Processed Spectral Data<<<<<
