SpectraSuite Data File
++++++++++++++++++++++++++++++++++++
Date: Fri Oct 25 10:43:40 EDT 2013
User: price-jones
Dark Spectrum Present: No
Reference Spectrum Present: No
Number of Sampled Component Spectra: 1
Spectrometers: USB2+H05261
Integration Time (usec): 100000 (USB2+H05261)
Spectra Averaged: 1 (USB2+H05261)
Boxcar Smoothing: 0 (USB2+H05261)
Correct for Electrical Dark: No (USB2+H05261)
Strobe/Lamp Enabled: No (USB2+H05261)
Correct for Detector Non-linearity: No (USB2+H05261)
Correct for Stray Light: No (USB2+H05261)
Number of Pixels in Processed Spectrum: 2048
>>>>>Begin Processed Spectral Data<<<<<
365.73	131.07
365.92	131.07
366.12	131.07
366.32	39.79
366.52	9.36
366.72	37.45
366.91	72.56
367.11	9.36
367.31	9.36
367.51	0.00
367.70	18.72
367.90	18.72
368.10	0.00
368.30	21.06
368.49	86.60
368.69	70.22
368.89	72.56
369.09	0.00
369.28	56.17
369.48	14.04
369.68	63.19
369.87	112.35
370.07	0.00
370.27	131.07
370.47	180.22
370.66	407.25
370.86	409.59
371.06	489.17
371.25	538.32
371.45	444.70
371.65	418.96
371.84	444.70
372.04	470.45
372.24	507.90
372.44	521.94
372.63	407.25
372.83	468.11
373.03	512.58
373.22	538.32
373.42	519.60
373.62	465.77
373.81	620.24
374.01	566.41
374.21	550.03
374.40	514.92
374.60	524.28
374.79	613.22
374.99	606.20
375.19	603.86
375.38	615.56
375.58	592.16
375.78	655.35
375.97	613.22
376.17	636.63
376.37	592.16
376.56	653.01
376.76	617.90
376.95	620.24
377.15	603.86
377.35	683.44
377.54	674.07
377.74	610.88
377.93	662.37
378.13	667.05
378.33	601.52
378.52	706.84
378.72	697.48
378.91	718.54
379.11	650.67
379.31	662.37
379.50	723.23
379.70	641.31
379.89	718.54
380.09	681.10
380.28	711.52
380.48	688.12
380.68	688.12
380.87	814.51
381.07	702.16
381.26	704.50
381.46	765.36
381.65	685.78
381.85	638.97
382.04	655.35
382.24	716.20
382.43	699.82
382.63	758.33
382.83	758.33
383.02	777.06
383.22	716.20
383.41	697.48
383.61	781.74
383.80	779.40
384.00	758.33
384.19	807.48
384.39	788.76
384.58	763.01
384.78	851.96
384.97	737.27
385.17	770.04
385.36	732.59
385.56	800.46
385.75	837.91
385.95	922.17
386.14	905.79
386.34	770.04
386.53	823.87
386.72	788.76
386.92	952.60
387.11	889.40
387.31	854.30
387.50	938.55
387.70	854.30
387.89	821.53
388.09	910.47
388.28	908.13
388.48	863.66
388.67	1015.79
388.86	896.43
389.06	976.00
389.25	985.37
389.45	994.73
389.64	994.73
389.84	1018.13
390.03	1036.86
390.22	1013.45
390.42	1081.33
390.61	1100.05
390.81	997.07
391.00	966.64
391.19	1137.50
391.39	1078.99
391.58	1025.15
391.78	1060.26
391.97	1071.97
392.16	1050.90
392.36	1160.91
392.55	980.68
392.75	1067.28
392.94	959.62
393.13	994.73
393.33	933.87
393.52	983.02
393.71	1149.20
393.91	1153.88
394.10	1111.75
394.29	1217.08
394.49	1114.10
394.68	1165.59
394.88	1153.88
395.07	1219.42
395.26	1240.48
395.46	1256.87
395.65	1156.22
395.84	1224.10
396.04	1228.78
396.23	1207.72
396.42	1167.93
396.62	1181.97
396.81	1165.59
397.00	1231.12
397.19	1331.76
397.39	1343.47
397.58	1282.61
397.77	1334.11
397.97	1324.74
398.16	1378.58
398.35	1533.05
398.55	1530.71
398.74	1416.02
398.93	1561.14
399.12	1490.92
399.32	1514.33
399.51	1497.94
399.70	1563.48
399.90	1575.18
400.09	1617.31
400.28	1626.67
400.47	1565.82
400.67	1645.40
400.86	1713.27
401.05	1624.33
401.24	1703.91
401.44	1732.00
401.63	1727.32
401.82	1682.85
402.01	1617.31
402.21	1750.72
402.40	1750.72
402.59	1757.74
402.78	1802.21
402.97	1802.21
403.17	1820.94
403.36	1823.28
403.55	1944.99
403.74	1966.05
403.93	1895.83
404.13	1952.01
404.32	1935.62
404.51	1874.77
404.70	2090.10
404.89	1844.34
405.09	1935.62
405.28	1959.03
405.47	2003.50
405.66	1963.71
405.85	1977.75
406.05	2012.86
406.24	2026.90
406.43	2050.31
406.62	2106.48
406.81	2167.34
407.00	2172.02
407.20	2108.82
407.39	1947.33
407.58	2113.50
407.77	2134.57
407.96	2209.47
408.15	2202.44
408.34	2127.55
408.54	2253.94
408.73	2298.41
408.92	2338.20
409.11	2497.35
409.30	2317.13
409.49	2225.85
409.68	2298.41
409.87	2422.45
410.07	2356.92
410.26	2399.05
410.45	2422.45
410.64	2548.84
410.83	2539.48
411.02	2567.57
411.21	2637.78
411.40	2621.40
411.59	2750.13
411.78	2616.72
411.98	2534.80
412.17	2649.49
412.36	2679.91
412.55	2773.53
412.74	2726.72
412.93	2759.49
413.12	2787.58
413.31	2848.43
413.50	2871.84
413.69	2780.56
413.88	2937.37
414.07	2928.01
414.26	3002.91
414.45	2967.80
414.64	2885.88
414.83	3197.17
415.02	3089.51
415.22	3098.87
415.41	3133.98
415.60	3251.00
415.79	3325.90
415.98	3286.11
416.17	3267.39
416.36	3213.56
416.55	3251.00
416.74	3375.05
416.93	3236.96
417.12	3276.75
417.31	3398.46
417.50	3445.27
417.69	3559.95
417.88	3410.16
418.07	3496.76
418.26	3403.14
418.45	3545.91
418.64	3712.09
418.83	3522.51
419.02	3590.38
419.21	3620.81
419.39	3503.78
419.58	3566.98
419.77	3527.19
419.96	3630.17
420.15	3817.41
420.34	3737.84
420.53	3838.48
420.72	3880.61
420.91	3801.03
421.10	3948.48
421.29	3913.38
421.48	3705.07
421.67	3892.31
421.86	3922.74
422.05	3925.08
422.24	3824.44
422.43	3805.71
422.61	4007.00
422.80	3913.38
422.99	3946.14
423.18	3868.91
423.37	3999.98
423.56	3932.10
423.75	3936.78
423.94	3892.31
424.13	3684.00
424.32	3871.25
424.50	3992.95
424.69	4065.51
424.88	4091.26
425.07	3985.93
425.26	3920.40
425.45	4018.70
425.64	3953.16
425.83	4091.26
426.01	4070.19
426.20	4168.49
426.39	3992.95
426.58	4072.53
426.77	4044.45
426.96	4042.11
427.15	4018.70
427.33	4159.13
427.52	4053.81
427.71	4025.72
427.90	4105.30
428.09	4173.18
428.28	4128.70
428.46	4287.86
428.65	4351.06
428.84	4325.31
429.03	4496.17
429.22	4046.79
429.40	4126.36
429.59	4198.92
429.78	3995.29
429.97	4028.06
430.16	4166.15
430.34	4156.79
430.53	4283.18
430.72	4217.65
430.91	4285.52
431.10	4416.59
431.28	4528.94
431.47	4601.49
431.66	4652.98
431.85	4634.26
432.03	4596.81
432.22	4634.26
432.41	4594.47
432.60	4697.46
432.79	4671.71
432.97	4814.48
433.16	4882.36
433.35	4713.84
433.54	4774.69
433.72	4760.65
433.91	4781.71
434.10	4828.53
434.28	4755.97
434.47	4983.00
434.66	4858.95
434.85	5046.20
435.03	4978.32
435.22	4968.96
435.41	5132.79
435.59	5067.26
435.78	4971.30
435.97	5146.84
436.16	5177.26
436.34	5181.95
436.53	5015.77
436.72	5317.70
436.90	5137.48
437.09	5369.19
437.28	5217.05
437.46	5228.76
437.65	5219.39
437.84	5219.39
438.02	5280.25
438.21	5214.71
438.40	5270.89
438.58	5479.19
438.77	5378.55
438.96	5544.73
439.14	5610.26
439.33	5736.65
439.52	5675.80
439.70	5664.10
439.89	5610.26
440.08	5645.37
440.26	5692.18
440.45	5935.60
440.63	5909.85
440.82	6190.72
441.01	5966.03
441.19	6015.18
441.38	6155.61
441.57	6132.20
441.75	6342.85
441.94	6368.60
442.12	6352.21
442.31	6527.75
442.50	6574.56
442.68	6345.19
442.87	6244.55
443.05	6342.85
443.24	6497.33
443.43	6579.25
443.61	6527.75
443.80	6518.39
443.98	6394.34
444.17	6289.02
444.35	6595.63
444.54	6757.13
444.73	6630.74
444.91	6672.87
445.10	6417.75
445.28	6494.99
445.47	6530.09
445.65	6480.94
445.84	6506.69
446.02	6548.82
446.21	6595.63
446.39	6597.97
446.58	6773.51
446.77	6656.48
446.95	6579.25
447.14	6761.81
447.32	6843.73
447.51	6820.32
447.69	6707.98
447.88	6871.81
448.06	6883.52
448.25	6867.13
448.43	6815.64
448.62	6860.11
448.80	6712.66
448.99	6916.28
449.17	7026.29
449.36	6871.81
449.54	6993.52
449.73	7080.12
449.91	7250.98
450.10	7225.23
450.28	7286.09
450.46	7206.51
450.65	7391.41
450.83	7250.98
451.02	7290.77
451.20	7445.24
451.39	7363.33
451.57	7227.57
451.76	7342.26
451.94	7318.86
452.13	7314.17
452.31	7372.69
452.49	7089.48
452.68	7199.49
452.86	7276.73
453.05	7258.00
453.23	7438.22
453.42	7389.07
453.60	7279.07
453.78	7426.52
453.97	7449.93
454.15	7541.21
454.34	7389.07
454.52	7581.00
454.70	7506.10
454.89	7683.98
455.07	7524.82
455.26	7768.24
455.44	7950.80
455.62	7698.02
455.81	7707.38
455.99	7885.26
456.17	7889.95
456.36	7939.10
456.54	7964.84
456.73	8114.64
456.91	8278.47
457.09	8215.28
457.28	8484.44
457.46	7960.16
457.64	8243.37
457.83	8212.94
458.01	8236.35
458.19	8311.24
458.38	8276.13
458.56	8477.42
458.74	8514.87
458.93	8454.02
459.11	8353.37
459.29	8369.76
459.48	8407.20
459.66	8205.92
459.84	8580.40
460.03	8667.00
460.21	8484.44
460.39	8599.13
460.57	8351.03
460.76	8641.26
460.94	8758.28
461.12	8891.70
461.31	8926.80
461.49	8720.84
461.67	8765.31
461.85	8936.17
462.04	8807.44
462.22	9502.58
462.40	8933.82
462.59	8971.27
462.77	9006.38
462.95	9174.90
463.13	9095.32
463.32	9022.77
463.50	9135.11
463.68	8975.95
463.86	9074.26
464.05	9114.05
464.23	8800.41
464.41	9153.84
464.59	9029.79
464.78	9289.59
464.96	9341.08
465.14	9097.66
465.32	9254.48
465.50	9369.16
465.69	9198.31
465.87	9205.33
466.05	9266.18
466.23	9226.39
466.41	9282.56
466.60	9575.13
466.78	9277.88
466.96	9305.97
467.14	9369.16
467.32	9631.30
467.51	9486.19
467.69	9172.56
467.87	9497.89
468.05	9591.52
468.23	9579.81
468.41	9570.45
468.60	9366.82
468.78	9631.30
468.96	9696.84
469.14	9640.67
469.32	9816.21
469.50	9724.93
469.69	9647.69
469.87	10061.96
470.05	9879.40
470.23	9888.76
470.41	9799.82
470.59	10052.60
470.77	9767.06
470.95	9898.13
471.14	10244.52
471.32	10099.41
471.50	10551.14
471.68	10293.68
471.86	10527.73
472.04	10537.09
472.22	10471.56
472.40	10387.30
472.58	10478.58
472.77	10513.69
472.95	10637.73
473.13	10745.40
473.31	10780.51
473.49	10888.17
473.67	10717.31
473.85	10951.37
474.03	11037.97
474.21	11066.05
474.39	11042.65
474.57	11159.67
474.75	11063.71
474.93	11272.02
475.12	11435.86
475.30	11250.96
475.48	11248.61
475.66	11138.61
475.84	11569.27
476.02	11632.46
476.20	11485.01
476.38	11971.84
476.56	11761.19
476.74	11829.07
476.92	11723.74
477.10	11824.39
477.28	12042.06
477.46	12245.68
477.64	12430.59
477.82	12248.02
478.00	12603.78
478.18	12564.00
478.36	12573.36
478.54	12697.41
478.72	12800.39
478.90	12957.21
479.08	13298.92
479.26	13427.65
479.44	13277.86
479.62	13280.20
479.80	13582.13
479.98	13345.73
480.16	13624.26
480.34	13612.56
480.52	13949.59
480.70	13799.80
480.88	13963.64
481.06	14003.43
481.24	14038.53
481.41	14214.07
481.59	14684.52
481.77	14579.20
481.95	14520.68
482.13	14548.77
482.31	14644.73
482.49	14981.77
482.67	14965.39
482.85	14883.47
483.03	15227.53
483.21	15461.58
483.39	15580.95
483.57	15744.78
483.74	15541.16
483.92	15737.76
484.10	15454.56
484.28	15777.55
484.46	16463.33
484.64	16493.76
484.82	15768.19
485.00	16180.12
485.18	16350.98
485.35	16514.82
485.53	16402.47
485.71	16198.85
485.89	16664.61
486.07	16475.03
486.25	16393.11
486.43	16826.11
486.61	17114.00
486.78	17355.07
486.96	17659.34
487.14	17657.00
487.32	17736.58
487.50	17977.65
487.68	18270.22
487.85	18630.66
488.03	18927.91
488.21	18892.80
488.39	18735.99
488.57	19056.64
488.75	19030.90
488.92	19281.33
489.10	19723.69
489.28	19548.15
489.46	19798.59
489.64	19660.50
489.81	20629.48
489.99	20285.42
490.17	20428.20
490.35	20507.77
490.53	20692.68
490.70	20645.87
490.88	20849.49
491.06	21050.78
491.24	21090.57
491.41	20858.85
491.59	20627.14
491.77	21013.33
491.95	21207.59
492.13	21345.69
492.30	21619.53
492.48	22008.06
492.66	21954.22
492.84	22047.85
493.01	22345.09
493.19	22160.19
493.37	22162.53
493.54	22616.60
493.72	22689.15
493.90	22782.77
494.08	23470.89
494.25	23454.51
494.43	23257.90
494.61	23714.31
494.79	23702.61
494.96	23452.17
495.14	23510.68
495.32	23777.50
495.49	24004.53
495.67	23840.70
495.85	24163.69
496.02	24264.33
496.20	24325.19
496.38	24451.58
496.55	24634.14
496.73	25097.56
496.91	25039.05
497.09	24952.45
497.26	25429.92
497.44	25200.55
497.62	25359.70
497.79	25631.21
497.97	25507.16
498.14	25745.89
498.32	26015.05
498.50	25642.91
498.67	26586.15
498.85	25905.05
499.03	26602.53
499.20	26384.86
499.38	26778.07
499.56	26073.57
499.73	26366.13
499.91	26363.79
500.08	26698.49
500.26	26859.99
500.44	27009.78
500.61	26951.27
500.79	26469.12
500.97	26902.12
501.14	27630.02
501.32	27087.02
501.49	27454.48
501.67	27105.74
501.84	27559.81
502.02	27328.10
502.20	27922.59
502.37	27913.23
502.55	28046.64
502.72	28299.42
502.90	28217.50
503.07	27995.15
503.25	28240.90
503.43	28250.27
503.60	28252.61
503.78	28341.55
503.95	28264.31
504.13	28268.99
504.30	28596.67
504.48	28980.51
504.65	28905.62
504.83	28982.85
505.01	29455.64
505.18	29546.92
505.36	29706.08
505.53	29472.03
505.71	29820.77
505.88	29745.87
506.06	29766.93
506.23	29769.27
506.41	30017.37
506.58	30239.72
506.76	30246.74
506.93	30000.99
507.11	30216.32
507.28	30415.26
507.46	30263.13
507.63	30059.50
507.81	30398.88
507.98	30148.44
508.16	30738.26
508.33	30558.03
508.50	31377.22
508.68	30796.77
508.85	31655.75
509.03	31157.21
509.20	31473.18
509.38	31007.42
509.55	31414.67
509.73	31227.43
509.90	31211.04
510.08	31402.97
510.25	31903.84
510.42	31824.26
510.60	31885.12
510.77	32072.36
510.95	32283.01
511.12	32030.23
511.30	32229.18
511.47	32641.11
511.64	32594.30
511.82	32566.21
511.99	32528.77
512.17	32463.23
512.34	32301.73
512.51	32652.81
512.69	32767.50
512.86	32985.17
513.04	32961.76
513.21	33003.89
513.38	32823.67
513.56	33078.79
513.73	32872.82
513.90	33392.42
514.08	32921.98
514.25	33883.94
514.43	33298.80
514.60	33507.11
514.77	33256.67
514.95	33869.89
515.12	34036.07
515.29	33558.60
515.47	34192.89
515.64	33956.49
515.81	34242.04
515.99	34073.52
516.16	33734.14
516.33	33883.94
516.51	33867.55
516.68	33415.83
516.85	33441.57
517.03	33607.75
517.20	34052.45
517.37	34335.66
517.54	34653.97
517.72	34419.92
517.89	34410.56
518.06	34466.73
518.24	34272.46
518.41	34635.25
518.58	34726.53
518.75	34838.87
518.93	34845.90
519.10	34967.60
519.27	35157.19
519.45	35459.12
519.62	35379.54
519.79	35393.58
519.96	35119.74
520.14	35742.32
520.31	35627.63
520.48	35732.96
520.65	35639.34
520.83	36030.21
521.00	36208.09
521.17	36374.27
521.34	35981.06
521.52	36299.37
521.69	36189.36
521.86	36435.12
522.03	36362.56
522.20	36383.63
522.38	36170.64
522.55	37048.34
522.72	36500.65
522.89	36437.46
523.07	36865.78
523.24	36840.03
523.41	37361.97
523.58	36903.23
523.75	37605.39
523.92	37336.23
524.10	37748.16
524.27	37574.96
524.44	37266.01
524.61	37816.04
524.78	37549.21
524.96	38007.96
525.13	38014.98
525.30	38117.96
525.47	38237.33
525.64	38314.57
525.81	37661.56
525.98	37631.13
526.16	37572.62
526.33	37577.30
526.50	37642.84
526.67	37408.78
526.84	37593.68
527.01	37464.96
527.18	38078.18
527.36	38323.93
527.53	38630.54
527.70	38560.33
527.87	38522.88
528.04	38274.78
528.21	38429.26
528.38	38497.13
528.55	38862.26
528.72	39243.76
528.89	39016.73
529.07	38986.30
529.24	38424.57
529.41	39051.84
529.58	38962.90
529.75	38880.98
529.92	39274.19
530.09	39562.08
530.26	39440.37
530.43	39126.74
530.60	39335.04
530.77	39182.91
530.94	39653.36
531.11	40076.99
531.28	39592.50
531.46	39571.44
531.63	39924.86
531.80	39470.79
531.97	39545.69
532.14	39751.66
532.31	39454.41
532.48	39639.31
532.65	39873.37
532.82	39988.05
532.99	40495.95
533.16	40102.74
533.33	40088.70
533.50	40535.74
533.67	39922.52
533.84	39964.65
534.01	39875.71
534.18	40383.60
534.35	40744.05
534.52	40224.45
534.69	40645.74
534.86	40650.42
535.03	40493.61
535.20	40889.16
535.37	41177.04
535.54	41130.23
535.71	40945.33
535.88	41006.19
536.05	40577.87
536.22	41078.74
536.38	41048.32
536.55	41106.83
536.72	40786.18
536.89	40877.46
537.06	40917.25
537.23	41153.64
537.40	41390.03
537.57	41462.59
537.74	41701.32
537.91	41565.57
538.08	41303.43
538.25	41268.33
538.42	41368.97
538.59	41584.30
538.75	41163.00
538.92	41572.60
539.09	41741.11
539.26	41457.91
539.43	41659.20
539.60	41371.31
539.77	41893.25
539.94	41965.81
540.11	41558.55
540.28	41703.67
540.44	42038.36
540.61	41701.32
540.78	41572.60
540.95	41834.74
541.12	41624.09
541.29	42164.75
541.46	42101.56
541.62	42305.18
541.79	42550.94
541.96	41830.05
542.13	41942.40
542.30	41921.34
542.47	42237.31
542.63	42066.45
542.80	42415.19
542.97	42632.86
543.14	42836.48
543.31	42614.13
543.48	42754.57
543.64	43501.20
543.81	43063.52
543.98	42705.41
544.15	42499.45
544.32	42990.96
544.48	43611.20
544.65	42955.85
544.82	43316.29
544.99	42740.52
545.16	43131.39
545.32	43290.55
545.49	43459.07
545.66	43550.35
545.83	42895.00
546.00	43428.64
546.16	43281.19
546.33	43302.25
546.50	43196.93
546.67	43550.35
546.83	43342.04
547.00	42932.45
547.17	43487.15
547.34	43599.50
547.50	43660.35
547.67	43728.23
547.84	43922.49
548.00	44006.75
548.17	44215.06
548.34	43763.34
548.51	43803.13
548.67	44072.29
548.84	44016.11
549.01	43636.95
549.18	43629.93
549.34	43737.59
549.51	43873.34
549.68	43936.54
549.84	43938.88
550.01	44521.67
550.18	44287.62
550.34	44268.89
550.51	44313.36
550.68	44086.33
550.84	43337.36
551.01	44350.81
551.18	44402.30
551.34	44119.10
551.51	44624.65
551.68	44397.62
551.84	44238.47
552.01	44177.61
552.18	44477.20
552.34	44147.18
552.51	44629.34
552.68	44451.45
552.84	44596.57
553.01	44732.32
553.18	44624.65
553.34	44165.91
553.51	45015.52
553.67	44966.37
553.84	45317.45
554.01	44664.44
554.17	45008.50
554.34	45071.70
554.51	44949.99
554.67	45158.30
554.84	44910.20
555.00	44678.49
555.17	44610.61
555.33	44708.91
555.50	44999.14
555.67	44861.05
555.83	44954.67
556.00	45010.84
556.16	45088.08
556.33	44701.89
556.50	45097.44
556.66	45155.96
556.83	44313.36
556.99	45085.74
557.16	45385.33
557.32	45242.56
557.49	45193.40
557.65	45071.70
557.82	45265.96
557.98	45312.77
558.15	45392.35
558.32	45319.79
558.48	44774.45
558.65	45162.98
558.81	44961.69
558.98	45450.86
559.14	45191.06
559.31	45015.52
559.47	45392.35
559.64	45162.98
559.80	45099.78
559.97	45457.88
560.13	45326.81
560.30	45155.96
560.46	45394.69
560.63	45787.90
560.79	45708.32
560.96	45731.73
561.12	45081.06
561.29	45656.83
561.45	45364.26
561.61	46007.91
561.78	45315.11
561.94	45265.96
562.11	45399.37
562.27	45848.75
562.44	45485.97
562.60	45708.32
562.77	45839.39
562.93	45565.55
563.10	46005.57
563.26	45415.76
563.42	45750.45
563.59	45748.11
563.75	45888.54
563.92	45694.28
564.08	46241.96
564.24	45834.71
564.41	45720.02
564.57	45830.03
564.74	45617.04
564.90	45532.78
565.07	45549.17
565.23	45911.95
565.39	45418.10
565.56	45874.50
565.72	45530.44
565.88	45642.79
566.05	45542.14
566.21	45954.08
566.38	45595.98
566.54	46047.70
566.70	45820.67
566.87	45844.07
567.03	46153.02
567.19	46220.90
567.36	45993.87
567.52	46190.47
567.68	46129.62
567.85	45801.94
568.01	45923.65
568.17	46150.68
568.34	45846.41
568.50	45844.07
568.66	45848.75
568.83	46190.47
568.99	45668.53
569.15	45750.45
569.32	46021.95
569.48	45518.74
569.64	46258.35
569.81	45778.54
569.97	45925.99
570.13	45984.51
570.30	45553.85
570.46	45942.38
570.62	45507.04
570.78	45233.19
570.95	45834.71
571.11	45624.06
571.27	45680.24
571.43	45916.63
571.60	46171.75
571.76	45841.73
571.92	45916.63
572.09	46014.93
572.25	46476.02
572.41	45792.58
572.57	46412.82
572.74	46485.38
572.90	46279.41
573.06	46211.54
573.22	46356.65
573.38	46108.55
573.55	45708.32
573.71	46759.22
573.87	46532.19
574.03	45867.48
574.20	46101.53
574.36	45724.71
574.52	46190.47
574.68	45741.09
574.84	45979.82
575.01	46146.00
575.17	46010.25
575.33	45869.82
575.49	45907.27
575.65	46415.16
575.82	46361.33
575.98	46241.96
576.14	46248.99
576.30	46160.05
576.46	46117.92
576.62	46277.07
576.79	45975.14
576.95	45675.55
577.11	45928.33
577.27	46230.26
577.43	46202.18
577.59	46040.68
577.75	45890.88
577.92	45593.64
578.08	45984.51
578.24	46141.32
578.40	46101.53
578.56	46052.38
578.72	46281.75
578.88	46071.10
579.04	46480.70
579.21	46209.20
579.37	46064.08
579.53	46052.38
579.69	45687.26
579.85	45975.14
580.01	46553.26
580.17	46447.93
580.33	46279.41
580.49	45958.76
580.65	45710.66
580.82	45731.73
580.98	46073.45
581.14	45617.04
581.30	46209.20
581.46	46635.17
581.62	46237.28
581.78	46146.00
581.94	46831.78
582.10	46471.34
582.26	46295.80
582.42	45780.88
582.58	46248.99
582.74	46412.82
582.90	46403.46
583.06	46520.49
583.22	45879.18
583.38	46244.30
583.54	46293.46
583.70	46188.13
583.86	46335.59
584.02	45792.58
584.18	46625.81
584.34	46181.11
584.50	46473.68
584.66	46068.76
584.82	46178.77
584.98	46504.10
585.14	46719.43
585.30	46337.93
585.46	46174.09
585.62	46218.56
585.78	45949.40
585.94	45982.16
586.10	45947.06
586.26	45989.19
586.42	46293.46
586.58	46391.76
586.74	46513.47
586.90	46391.76
587.06	46188.13
587.22	46270.05
587.38	46267.71
587.54	46340.27
587.70	46705.39
587.86	46223.24
588.02	46373.03
588.18	46230.26
588.34	45998.55
588.49	45865.14
588.65	45844.07
588.81	46061.74
588.97	45675.55
589.13	45729.39
589.29	45961.10
589.45	46115.58
589.61	45914.29
589.77	46403.46
589.93	46160.05
590.08	46244.30
590.24	46574.32
590.40	46625.81
590.56	46611.77
590.72	46930.08
590.88	46335.59
591.04	46384.74
591.20	46822.42
591.35	46852.84
591.51	46869.23
591.67	46358.99
591.83	46377.72
591.99	46553.26
592.15	46253.67
592.31	46735.82
592.46	46216.22
592.62	46469.00
592.78	46305.16
592.94	46527.51
593.10	46426.87
593.26	46630.49
593.41	46136.64
593.57	46164.73
593.73	46078.13
593.89	46897.31
594.05	46703.05
594.20	46586.02
594.36	46326.22
594.52	46394.10
594.68	46513.47
594.84	45900.25
594.99	46667.94
595.15	46248.99
595.31	46291.12
595.47	46607.09
595.62	46541.55
595.78	46532.19
595.94	46784.97
596.10	46562.62
596.25	46412.82
596.41	46314.52
596.57	46366.01
596.73	46307.50
596.88	46328.56
597.04	46801.35
597.20	46492.40
597.36	46632.83
597.51	46557.94
597.67	46506.44
597.83	46710.07
597.99	46384.74
598.14	46541.55
598.30	46244.30
598.46	46178.77
598.61	46588.36
598.77	46560.28
598.93	46305.16
599.09	46909.02
599.24	46780.29
599.40	46497.08
599.56	46630.49
599.71	46176.43
599.87	47152.43
600.03	46752.20
600.18	46181.11
600.34	45963.44
600.50	46452.61
600.65	46281.75
600.81	46593.04
600.97	46625.81
601.12	46672.62
601.28	46391.76
601.44	46260.69
601.59	46373.03
601.75	46101.53
601.91	46122.60
602.06	46518.15
602.22	46564.96
602.37	46162.39
602.53	46597.73
602.69	46375.37
602.84	46220.90
603.00	46260.69
603.16	46391.76
603.31	46368.35
603.47	46305.16
603.62	46307.50
603.78	46752.20
603.94	46557.94
604.09	46909.02
604.25	46726.46
604.40	46403.46
604.56	46415.16
604.71	46707.73
604.87	46457.29
605.03	46300.48
605.18	46330.90
605.34	46190.47
605.49	45745.77
605.65	46244.30
605.80	46045.36
605.96	46127.28
606.12	46293.46
606.27	46469.00
606.43	46153.02
606.58	46272.39
606.74	46497.08
606.89	46190.47
607.05	45947.06
607.20	46408.14
607.36	46157.70
607.51	46415.16
607.67	46258.35
607.82	45933.01
607.98	46092.17
608.13	45865.14
608.29	46003.23
608.44	45638.11
608.60	45570.23
608.75	45862.80
608.91	46230.26
609.06	45984.51
609.22	46195.15
609.37	45778.54
609.53	45883.86
609.68	46197.49
609.84	46131.96
609.99	46117.92
610.15	45600.66
610.30	45464.91
610.46	45565.55
610.61	45710.66
610.76	45848.75
610.92	45886.20
611.07	45385.33
611.23	46124.94
611.38	45846.41
611.54	45478.95
611.69	45600.66
611.84	45635.77
612.00	45345.54
612.15	45432.14
612.31	45574.91
612.46	45663.85
612.62	45762.15
612.77	45593.64
612.92	45722.37
613.08	45811.31
613.23	45228.51
613.39	45010.84
613.54	45158.30
613.69	45368.94
613.85	44729.98
614.00	45022.54
614.15	45296.39
614.31	45205.11
614.46	45521.08
614.62	45216.81
614.77	44793.17
614.92	45422.78
615.08	44725.30
615.23	45059.99
615.38	44961.69
615.54	44542.74
615.69	45277.66
615.84	45027.23
616.00	44947.65
616.15	44603.59
616.30	45069.36
616.46	44701.89
616.61	44725.30
616.76	44741.68
616.92	44116.76
617.07	45055.31
617.22	44722.96
617.37	44884.45
617.53	44737.00
617.68	45024.89
617.83	44849.35
617.99	44875.09
618.14	44797.85
618.29	44327.41
618.45	44329.75
618.60	44320.38
618.75	44575.50
618.90	44083.99
619.06	44502.95
619.21	44247.83
619.36	44767.43
619.51	44809.56
619.67	44610.61
619.82	44184.63
619.97	44378.90
620.12	43966.96
620.28	43735.25
620.43	44596.57
620.58	44437.41
620.73	44416.35
620.89	44250.17
621.04	44404.64
621.19	44589.55
621.34	44292.30
621.49	44065.27
621.65	43901.43
621.80	44186.97
621.95	44311.02
622.10	44212.72
622.25	43854.62
622.41	43920.15
622.56	44062.93
622.71	44233.78
622.86	44318.04
623.01	44304.00
623.16	44224.42
623.32	43662.69
623.47	43920.15
623.62	43828.87
623.77	43683.76
623.92	43681.42
624.07	43915.47
624.23	43267.14
624.38	43672.06
624.53	43487.15
624.68	43328.00
624.83	43702.48
624.98	43452.05
625.13	43161.82
625.29	43524.60
625.44	42815.42
625.59	43540.99
625.74	43601.84
625.89	42988.62
626.04	42616.47
626.19	43489.49
626.34	43337.36
626.49	42953.51
626.65	42967.55
626.80	43358.42
626.95	43068.20
627.10	42841.17
627.25	43030.75
627.40	43189.91
627.55	42635.20
627.70	42927.77
627.85	42824.78
628.00	42941.81
628.15	42852.87
628.30	42932.45
628.45	42600.09
628.60	42909.04
628.76	43129.05
628.91	42616.47
629.06	42483.06
629.21	42429.23
629.36	42504.13
629.51	42504.13
629.66	42412.85
629.81	42698.39
629.96	42281.78
630.11	42354.33
630.26	42635.20
630.41	42859.89
630.56	42698.39
630.71	42843.51
630.86	42452.64
631.01	42499.45
631.16	42361.36
631.31	41860.48
631.46	41970.49
631.61	42454.98
631.76	42337.95
631.91	42155.39
632.06	42220.92
632.21	42401.14
632.36	42326.25
632.51	42073.47
632.66	42014.96
632.81	41827.71
632.96	41663.88
633.10	41387.69
633.25	42270.08
633.40	41993.89
633.55	42059.43
633.70	41947.08
633.85	41785.58
634.00	42113.26
634.15	41811.33
634.30	41684.94
634.45	41949.42
634.60	41888.57
634.75	41624.09
634.90	41614.72
635.05	41469.61
635.19	41397.06
635.34	41748.14
635.49	41397.06
635.64	41450.89
635.79	41549.19
635.94	40760.43
636.09	41354.93
636.24	40861.07
636.39	41291.73
636.53	41010.87
636.68	41202.79
636.83	41289.39
636.98	41270.67
637.13	41263.64
637.28	41282.37
637.43	41305.77
637.57	41090.44
637.72	41322.16
637.87	41270.67
638.02	41099.81
638.17	40884.48
638.32	41289.39
638.46	40889.16
638.61	40980.44
638.76	40907.88
638.91	40800.22
639.06	40942.99
639.20	41155.98
639.35	40980.44
639.50	40821.28
639.65	40746.39
639.80	40652.76
639.94	40479.57
640.09	40851.71
640.24	40760.43
640.39	40505.31
640.54	40395.31
640.68	40669.15
640.83	40566.16
640.98	40385.94
641.13	40037.20
641.27	40339.13
641.42	40271.26
641.57	40261.90
641.72	40428.07
641.86	40488.93
642.01	39707.19
642.16	40425.73
642.31	40091.04
642.45	40238.49
642.60	39915.50
642.75	40076.99
642.90	40402.33
643.04	40189.34
643.19	39906.13
643.34	40414.03
643.48	39910.82
643.63	40133.17
643.78	40102.74
643.93	40086.36
644.07	39559.73
644.22	39746.98
644.37	40187.00
644.51	39746.98
644.66	39718.89
644.81	39840.60
644.95	39714.21
645.10	40243.17
645.25	40219.77
645.39	39789.11
645.54	39725.91
645.69	39515.26
645.83	39524.63
645.98	39489.52
646.13	39730.59
646.27	39592.50
646.42	39084.61
646.57	39175.89
646.71	39604.20
646.86	39440.37
647.00	39435.69
647.15	39325.68
647.30	39227.38
647.44	39037.80
647.59	39185.25
647.74	38981.62
647.88	38916.09
648.03	39171.21
648.17	39285.89
648.32	39040.14
648.47	38923.11
648.61	39182.91
648.76	39260.15
648.90	39028.43
649.05	39068.22
649.20	38979.28
649.34	38763.95
649.49	38761.61
649.63	38878.64
649.78	38927.79
649.92	38422.23
650.07	39351.43
650.21	38990.98
650.36	39026.09
650.51	39002.69
650.65	39316.32
650.80	39030.77
650.94	38986.30
651.09	39250.78
651.23	38352.02
651.38	38380.10
651.52	38237.33
651.67	38487.77
651.81	38398.83
651.96	38204.56
652.10	38714.80
652.25	38501.81
652.39	38377.76
652.54	38408.19
652.68	38204.56
652.83	38417.55
652.97	38487.77
653.12	38749.91
653.26	38036.05
653.41	38270.10
653.55	38167.12
653.70	38417.55
653.84	38279.46
653.99	38064.13
654.13	38272.44
654.27	38106.26
654.42	38132.01
654.56	38323.93
654.71	37794.97
654.85	38230.31
655.00	38391.81
655.14	37474.32
655.29	37628.79
655.43	37649.86
655.57	37207.50
655.72	37315.16
655.86	37493.04
656.01	36823.65
656.15	37158.34
656.30	37378.36
656.44	37584.32
656.58	37289.42
656.73	37532.83
656.87	37488.36
657.01	37038.98
657.16	37479.00
657.30	36690.24
657.45	37139.62
657.59	37303.46
657.73	37127.92
657.88	37696.67
658.02	37165.37
658.16	37523.47
658.31	37425.17
658.45	37816.04
658.60	37240.26
658.74	37186.43
658.88	37209.84
659.03	36856.42
659.17	36964.08
659.31	37015.57
659.46	36917.27
659.60	37085.79
659.74	36598.96
659.89	36346.18
660.03	36486.61
660.17	36884.50
660.32	36613.00
660.46	36968.76
660.60	36334.48
660.74	36409.37
660.89	36701.94
661.03	36374.27
661.17	36397.67
661.32	36416.40
661.46	35988.08
661.60	36451.50
661.74	35950.63
661.89	36217.45
662.03	36378.95
662.17	36456.18
662.31	36360.22
662.46	36610.66
662.60	36065.31
662.74	36287.67
662.88	36282.98
663.03	35665.08
663.17	35929.56
663.31	35639.34
663.45	35943.61
663.60	35674.45
663.74	35632.32
663.88	35248.47
664.02	35587.85
664.17	35985.74
664.31	35133.78
664.45	35304.64
664.59	35208.68
664.73	35342.09
664.88	35115.06
665.02	34352.04
665.16	34782.70
665.30	34902.07
665.44	35070.59
665.59	34775.68
665.73	34796.74
665.87	34855.26
666.01	34824.83
666.15	34932.50
666.29	34630.57
666.44	34848.24
666.58	34532.26
666.72	34660.99
666.86	34305.23
667.00	34419.92
667.14	34237.36
667.28	34345.02
667.43	34061.82
667.57	33912.02
667.71	34160.12
667.85	34485.45
667.99	34253.74
668.13	34024.37
668.27	34202.25
668.41	34075.86
668.56	33701.37
668.70	33860.53
668.84	33294.12
668.98	33558.60
669.12	33296.46
669.26	33682.65
669.40	33521.15
669.54	33259.01
669.68	33619.46
669.82	33010.92
669.96	32957.08
670.10	33149.01
670.25	32950.06
670.39	32851.76
670.53	32751.12
670.67	32924.32
670.81	33078.79
670.95	32786.22
671.09	33123.26
671.23	32510.04
671.37	32638.77
671.51	32346.20
671.65	32198.75
671.79	32341.52
671.93	32271.31
672.07	32226.84
672.21	32407.06
672.35	32371.95
672.49	32154.28
672.63	32416.42
672.77	31730.64
672.91	31992.78
673.05	31807.88
673.19	31758.73
673.33	31398.29
673.47	31945.97
673.61	31384.24
673.75	31433.39
673.89	31351.48
674.03	31129.12
674.17	31501.27
674.31	31538.72
674.45	31491.91
674.59	31676.81
674.73	31304.67
674.87	31054.23
675.01	31117.42
675.15	30934.86
675.29	30815.49
675.43	30845.92
675.56	31133.81
675.70	30958.27
675.84	30677.40
675.98	29989.28
676.12	30665.70
676.26	30635.27
676.40	30256.11
676.54	30445.69
676.68	30068.86
676.82	29631.18
676.96	30064.18
677.10	29764.59
677.23	29799.70
677.37	29834.81
677.51	29834.81
677.65	29706.08
677.79	28819.02
677.93	29310.53
678.07	28907.96
678.21	28755.82
678.34	29109.24
678.48	28629.43
678.62	28753.48
678.76	28734.76
678.90	28320.48
679.04	28065.36
679.18	28505.38
679.31	28004.51
679.45	28067.70
679.59	28084.09
679.73	28261.97
679.87	27857.06
680.00	28027.92
680.14	27988.13
680.28	28233.88
680.42	27637.05
680.56	27929.61
680.70	27477.89
680.83	27480.23
680.97	27358.52
681.11	27466.19
681.25	27379.59
681.39	27091.70
681.52	27208.73
681.66	27154.90
681.80	26764.03
681.94	26438.69
682.07	26766.37
682.21	26345.07
682.35	26647.00
682.49	26286.56
682.62	26164.85
682.76	26174.21
682.90	26249.11
683.04	26218.68
683.17	25961.22
683.31	25949.52
683.45	25570.35
683.59	25579.71
683.72	25778.66
683.86	25235.66
684.00	25853.56
684.13	25214.59
684.27	25586.74
684.41	25032.03
684.55	25329.28
684.68	24819.04
684.82	25448.64
684.96	24826.06
685.09	24994.58
685.23	24748.82
685.37	24610.73
685.50	24980.54
685.64	24847.13
685.78	24428.17
685.91	24074.75
686.05	24100.50
686.19	23854.74
686.32	23798.57
686.46	23318.76
686.60	23150.24
686.73	23241.52
686.87	23323.44
687.01	23152.58
687.14	23009.81
687.28	22895.12
687.42	22916.19
687.55	23339.82
687.69	23016.83
687.82	23199.39
687.96	22974.70
688.10	22611.92
688.23	22831.93
688.37	22583.83
688.50	22527.66
688.64	22630.64
688.78	22581.49
688.91	22459.78
689.05	22153.17
689.18	21869.97
689.32	21827.84
689.46	21919.12
689.59	22270.20
689.73	22141.47
689.86	21633.57
690.00	21572.72
690.13	21879.33
690.27	21479.10
690.41	21191.21
690.54	21455.69
690.68	21280.15
690.81	21116.31
690.95	21324.62
691.08	21018.01
691.22	21029.71
691.35	20769.91
691.49	21231.00
691.62	20985.24
691.76	20795.66
691.89	20849.49
692.03	20720.76
692.16	20313.51
692.30	20285.42
692.43	20187.12
692.57	20119.24
692.70	20058.39
692.84	20137.97
692.97	19807.95
693.11	19740.08
693.24	19569.22
693.38	19407.72
693.51	19499.00
693.65	19653.48
693.78	19784.55
693.92	19604.33
694.05	19400.70
694.19	19325.80
694.32	19274.31
694.45	19225.16
694.59	19286.01
694.72	18867.06
694.86	18862.38
694.99	18590.88
695.13	19110.47
695.26	18618.96
695.39	18487.89
695.53	18740.67
695.66	18693.86
695.80	18637.69
695.93	18471.51
696.07	18380.23
696.20	18375.55
696.33	18214.05
696.47	17970.63
696.60	18012.76
696.73	18005.74
696.87	17834.88
697.00	17944.89
697.14	17441.67
697.27	17394.86
697.40	17186.55
697.54	17280.18
697.67	17240.39
697.80	17259.11
697.94	17041.44
698.07	16980.59
698.21	17116.34
698.34	17191.23
698.47	17001.65
698.61	16816.75
698.74	16634.19
698.87	16826.11
699.01	16568.65
699.14	16463.33
699.27	16142.67
699.40	16383.75
699.54	16329.92
699.67	16276.09
699.80	16236.30
699.94	15896.92
700.07	16287.79
700.20	15683.93
700.34	15946.07
700.47	15782.23
700.60	15864.15
700.73	15723.72
700.87	15700.31
701.00	15459.24
701.13	15459.24
701.26	15484.98
701.40	15496.69
701.53	15449.88
701.66	15482.64
701.79	15253.27
701.93	15145.61
702.06	15014.54
702.19	14913.89
702.32	14803.89
702.46	14956.02
702.59	14768.78
702.72	15023.90
702.85	14761.76
702.99	14745.38
703.12	14766.44
703.25	14539.41
703.38	14164.92
703.51	14342.80
703.65	14146.20
703.78	14127.47
703.91	13928.53
704.04	14040.87
704.17	14005.77
704.31	14221.10
704.44	13914.48
704.57	14022.15
704.70	13977.68
704.83	13504.89
704.96	13958.96
705.10	13722.56
705.23	13376.16
>>>>>End Processed Spectral Data<<<<<
