SpectraSuite Data File
++++++++++++++++++++++++++++++++++++
Date: Fri Oct 25 10:44:05 EDT 2013
User: price-jones
Dark Spectrum Present: No
Reference Spectrum Present: No
Number of Sampled Component Spectra: 1
Spectrometers: USB2+H05261
Integration Time (usec): 100000 (USB2+H05261)
Spectra Averaged: 1 (USB2+H05261)
Boxcar Smoothing: 0 (USB2+H05261)
Correct for Electrical Dark: No (USB2+H05261)
Strobe/Lamp Enabled: No (USB2+H05261)
Correct for Detector Non-linearity: No (USB2+H05261)
Correct for Stray Light: No (USB2+H05261)
Number of Pixels in Processed Spectrum: 2048
>>>>>Begin Processed Spectral Data<<<<<
365.73	128.73
365.92	128.73
366.12	128.73
366.32	49.15
366.52	0.00
366.72	56.17
366.91	51.49
367.11	77.24
367.31	46.81
367.51	0.00
367.70	0.00
367.90	42.13
368.10	0.00
368.30	60.85
368.49	28.09
368.69	51.49
368.89	121.71
369.09	9.36
369.28	124.05
369.48	65.54
369.68	86.60
369.87	91.28
370.07	79.58
370.27	145.11
370.47	196.60
370.66	414.27
370.86	376.83
371.06	423.64
371.25	491.51
371.45	379.17
371.65	486.83
371.84	390.87
372.04	512.58
372.24	531.30
372.44	482.15
372.63	512.58
372.83	587.47
373.03	589.82
373.22	472.79
373.42	557.05
373.62	550.03
373.81	561.73
374.01	573.43
374.21	566.41
374.40	510.24
374.60	594.50
374.79	585.13
374.99	538.32
375.19	615.56
375.38	655.35
375.58	566.41
375.78	660.03
375.97	596.84
376.17	681.10
376.37	627.26
376.56	594.50
376.76	622.58
376.95	631.94
377.15	690.46
377.35	610.88
377.54	655.35
377.74	662.37
377.93	617.90
378.13	685.78
378.33	702.16
378.52	697.48
378.72	596.84
378.91	636.63
379.11	732.59
379.31	667.05
379.50	610.88
379.70	699.82
379.89	718.54
380.09	683.44
380.28	620.24
380.48	763.01
380.68	643.65
380.87	730.25
381.07	645.99
381.26	741.95
381.46	718.54
381.65	674.07
381.85	690.46
382.04	734.93
382.24	739.61
382.43	763.01
382.63	634.29
382.83	730.25
383.02	709.18
383.22	767.70
383.41	727.91
383.61	753.65
383.80	833.23
384.00	772.38
384.19	798.12
384.39	781.74
384.58	791.10
384.78	765.36
384.97	826.21
385.17	844.93
385.36	828.55
385.56	807.48
385.75	809.83
385.95	910.47
386.14	884.72
386.34	884.72
386.53	856.64
386.72	807.48
386.92	763.01
387.11	901.11
387.31	884.72
387.50	929.19
387.70	905.79
387.89	858.98
388.09	940.90
388.28	915.15
388.48	873.02
388.67	954.94
388.86	1041.54
389.06	917.49
389.25	844.93
389.45	1006.43
389.64	983.02
389.84	983.02
390.03	1011.11
390.22	990.05
390.42	1001.75
390.61	1036.86
390.81	1104.73
391.00	1060.26
391.19	1149.20
391.39	1020.47
391.58	1139.84
391.78	999.41
391.97	1069.62
392.16	997.07
392.36	1036.86
392.55	1020.47
392.75	1071.97
392.94	978.34
393.13	1008.77
393.33	1022.81
393.52	1039.20
393.71	1111.75
393.91	1093.03
394.10	1153.88
394.29	1191.33
394.49	1172.61
394.68	1210.06
394.88	1235.80
395.07	1256.87
395.26	1345.81
395.46	1287.29
395.65	1256.87
395.84	1191.33
396.04	1306.02
396.23	1109.41
396.42	1184.31
396.62	1266.23
396.81	1249.85
397.00	1336.45
397.19	1291.98
397.39	1324.74
397.58	1357.51
397.77	1385.60
397.97	1416.02
398.16	1458.15
398.35	1535.39
398.55	1423.05
398.74	1451.13
398.93	1673.48
399.12	1462.83
399.32	1432.41
399.51	1582.20
399.70	1584.54
399.90	1514.33
400.09	1556.46
400.28	1710.93
400.47	1739.02
400.67	1664.12
400.86	1689.87
401.05	1605.61
401.24	1764.76
401.44	1750.72
401.63	1771.79
401.82	1834.98
402.01	1732.00
402.21	1746.04
402.40	1874.77
402.59	1877.11
402.78	1853.70
402.97	1792.85
403.17	1790.51
403.36	1879.45
403.55	1827.96
403.74	1785.83
403.93	1895.83
404.13	1860.73
404.32	1795.19
404.51	1959.03
404.70	2010.52
404.89	1895.83
405.09	1961.37
405.28	1989.46
405.47	1989.46
405.66	2003.50
405.85	1966.05
406.05	2015.20
406.24	2043.29
406.43	2078.40
406.62	2169.68
406.81	2275.00
407.00	2214.15
407.20	2183.72
407.39	2214.15
407.58	2286.70
407.77	2246.91
407.96	2291.38
408.15	2289.04
408.34	2267.98
408.54	2342.88
408.73	2260.96
408.92	2385.01
409.11	2263.30
409.30	2303.09
409.49	2331.17
409.68	2331.17
409.87	2373.30
410.07	2366.28
410.26	2485.65
410.45	2487.99
410.64	2443.52
410.83	2511.39
411.02	2544.16
411.21	2717.36
411.40	2630.76
411.59	2672.89
411.78	2722.04
411.98	2696.30
412.17	2708.00
412.36	2712.68
412.55	2682.25
412.74	2834.39
412.93	2810.98
413.12	2771.19
413.31	2911.63
413.50	3000.57
413.69	2918.65
413.88	2974.82
414.07	2977.16
414.26	3016.95
414.45	3091.85
414.64	2986.52
414.83	3084.83
415.02	3112.91
415.22	3028.65
415.41	3335.26
415.60	3155.04
415.79	3321.22
415.98	3337.60
416.17	3346.97
416.36	3337.60
416.55	3304.84
416.74	3424.20
416.93	3318.88
417.12	3344.63
417.31	3421.86
417.50	3339.94
417.69	3510.80
417.88	3559.95
418.07	3602.08
418.26	3534.21
418.45	3520.17
418.64	3672.30
418.83	3698.05
419.02	3613.79
419.21	3667.62
419.39	3686.34
419.58	3772.94
419.77	3623.15
419.96	3712.09
420.15	3810.39
420.34	3641.87
420.53	3904.01
420.72	3985.93
420.91	3896.99
421.10	3904.01
421.29	3911.04
421.48	3997.64
421.67	3913.38
421.86	3904.01
422.05	3908.69
422.24	3840.82
422.43	3868.91
422.61	4084.23
422.80	3875.93
422.99	3978.91
423.18	4021.04
423.37	4100.62
423.56	4011.68
423.75	3969.55
423.94	3969.55
424.13	3782.31
424.32	4018.70
424.50	4042.11
424.69	4079.55
424.88	4095.94
425.07	4119.34
425.26	3927.42
425.45	3964.87
425.64	4056.15
425.83	4077.21
426.01	4140.41
426.20	4234.03
426.39	4203.60
426.58	4156.79
426.77	3983.59
426.96	3915.72
427.15	4063.17
427.33	4060.83
427.52	4133.39
427.71	4119.34
427.90	4236.37
428.09	4301.90
428.28	4367.44
428.46	4280.84
428.65	4297.22
428.84	4386.16
429.03	4411.91
429.22	4250.41
429.40	4278.50
429.59	4163.81
429.78	4044.45
429.97	3983.59
430.16	4203.60
430.34	4102.96
430.53	4212.96
430.72	4278.50
430.91	4273.82
431.10	4505.53
431.28	4643.62
431.47	4865.97
431.66	4741.93
431.85	4685.75
432.03	4517.23
432.22	4837.89
432.41	4741.93
432.60	4723.20
432.79	4863.63
432.97	4929.17
433.16	4784.06
433.35	4802.78
433.54	4812.14
433.72	4865.97
433.91	4826.18
434.10	4849.59
434.28	4842.57
434.47	4905.76
434.66	5025.13
434.85	5041.51
435.03	5102.37
435.22	5144.50
435.41	5329.40
435.59	5149.18
435.78	5228.76
435.97	5238.12
436.16	5364.51
436.34	5212.37
436.53	5139.82
436.72	5467.49
436.90	5219.39
437.09	5329.40
437.28	5179.61
437.46	5287.27
437.65	5294.29
437.84	5345.78
438.02	5219.39
438.21	5210.03
438.40	5188.97
438.58	5406.64
438.77	5437.06
438.96	5626.65
439.14	5853.68
439.33	5764.74
439.52	5849.00
439.70	5701.54
439.89	5790.49
440.08	5937.94
440.26	5825.59
440.45	5984.75
440.63	5982.41
440.82	6171.99
441.01	6022.20
441.19	6118.16
441.38	6256.25
441.57	6282.00
441.75	6384.98
441.94	6321.79
442.12	6317.11
442.31	6546.48
442.50	6480.94
442.68	6403.71
442.87	6654.14
443.05	6464.56
443.24	6527.75
443.43	6616.69
443.61	6616.69
443.80	6654.14
443.98	6366.26
444.17	6434.13
444.35	6729.04
444.54	6698.61
444.73	6745.42
444.91	6738.40
445.10	6623.72
445.28	6586.27
445.47	6347.53
445.65	6745.42
445.84	6560.52
446.02	6752.45
446.21	6583.93
446.39	6693.93
446.58	6736.06
446.77	6895.22
446.95	6705.63
447.14	6918.62
447.32	6986.50
447.51	6757.13
447.69	6766.49
447.88	6801.60
448.06	6759.47
448.25	6944.37
448.43	7070.76
448.62	6759.47
448.80	6836.70
448.99	7037.99
449.17	6984.16
449.36	6855.43
449.54	7124.59
449.73	7155.02
449.91	7206.51
450.10	7300.13
450.28	7555.25
450.46	7330.56
450.65	7370.35
450.83	7531.84
451.02	7506.10
451.20	7496.74
451.39	7478.01
451.57	7527.16
451.76	7349.28
451.94	7435.88
452.13	7510.78
452.31	7400.77
452.49	7166.72
452.68	7288.43
452.86	7323.54
453.05	7396.09
453.23	7564.61
453.42	7311.83
453.60	7604.40
453.78	7662.91
453.97	7377.37
454.15	7618.44
454.34	7508.44
454.52	7655.89
454.70	7585.68
454.89	7569.29
455.07	7618.44
455.26	7885.26
455.44	7955.48
455.62	7932.08
455.81	7983.57
455.99	7985.91
456.17	7894.63
456.36	8023.36
456.54	8053.78
456.73	8177.83
456.91	8351.03
457.09	8308.90
457.28	8425.93
457.46	8152.09
457.64	8507.85
457.83	8292.52
458.01	8297.20
458.19	8498.49
458.38	8294.86
458.56	8472.74
458.74	8229.32
458.93	8468.06
459.11	8329.97
459.29	8526.57
459.48	8477.42
459.66	8425.93
459.84	8650.62
460.03	8741.90
460.21	8688.07
460.39	8692.75
460.57	8713.81
460.76	8957.23
460.94	8945.53
461.12	8961.91
461.31	8868.29
461.49	8788.71
461.67	8898.72
461.85	9029.79
462.04	8978.30
462.22	9441.72
462.40	9088.30
462.59	9130.43
462.77	9193.62
462.95	9219.37
463.13	9057.87
463.32	9214.69
463.50	9102.34
463.68	9371.50
463.86	9287.25
464.05	9188.94
464.23	9277.88
464.41	9352.78
464.59	9219.37
464.78	9359.80
464.96	9343.42
465.14	9179.58
465.32	9439.38
465.50	9315.33
465.69	9535.34
465.87	9490.87
466.05	9378.53
466.23	9430.02
466.41	9507.26
466.60	9694.50
466.78	9420.66
466.96	9458.10
467.14	9525.98
467.32	9682.80
467.51	9624.28
467.69	9411.29
467.87	9345.76
468.05	9928.55
468.23	9500.23
468.41	9668.75
468.60	9572.79
468.78	9877.06
468.96	9703.86
469.14	9923.87
469.32	10031.54
469.50	9628.96
469.69	9996.43
469.87	10059.62
470.05	9867.70
470.23	10012.81
470.41	9951.96
470.59	10230.48
470.77	10064.30
470.95	10068.98
471.14	10422.41
471.32	10298.36
471.50	10459.85
471.68	10630.71
471.86	10523.05
472.04	10712.63
472.22	10771.15
472.40	10609.65
472.58	10527.73
472.77	10794.55
472.95	10558.16
473.13	11194.78
473.31	10794.55
473.49	10888.17
473.67	10726.68
473.85	11037.97
474.03	11164.36
474.21	11302.45
474.39	11178.40
474.57	11337.56
474.75	11468.62
474.93	11527.14
475.12	11438.20
475.30	11550.54
475.48	11297.77
475.66	11489.69
475.84	11410.11
476.02	11719.06
476.20	11620.76
476.38	11854.81
476.56	12142.70
476.74	12170.79
476.92	11946.09
477.10	11892.26
477.28	12266.75
477.46	12390.80
477.64	12271.43
477.82	12814.43
478.00	12954.87
478.18	12657.62
478.36	12809.75
478.54	13095.30
478.72	12968.91
478.90	13029.76
479.08	13329.35
479.26	13305.95
479.44	13577.45
479.62	13614.90
479.80	13366.80
479.98	13790.44
480.16	14017.47
480.34	13710.86
480.52	14256.20
480.70	14160.24
480.88	13949.59
481.06	14279.61
481.24	14174.28
481.41	14628.35
481.59	14827.29
481.77	14637.71
481.95	14878.79
482.13	14672.82
482.31	15087.09
482.49	15407.75
482.67	15255.61
482.85	15112.84
483.03	15452.22
483.21	15627.76
483.39	15726.06
483.57	15672.23
483.74	15737.76
483.92	15925.00
484.10	15932.03
484.28	16240.98
484.46	16231.62
484.64	16666.95
484.82	16383.75
485.00	16645.89
485.18	16781.64
485.35	16971.22
485.53	16334.60
485.71	16552.27
485.89	16978.25
486.07	16748.87
486.25	16915.05
486.43	17060.16
486.61	17474.44
486.78	17694.45
486.96	17862.97
487.14	17818.50
487.32	17951.91
487.50	18207.03
487.68	18555.77
487.85	18455.12
488.03	18719.60
488.21	18838.97
488.39	18799.18
488.57	18932.59
488.75	19136.22
488.92	19293.04
489.10	19384.32
489.28	19922.64
489.46	20266.70
489.64	20079.46
489.81	20690.34
489.99	20580.33
490.17	20566.29
490.35	21090.57
490.53	20645.87
490.70	20856.51
490.88	20629.48
491.06	21256.75
491.24	21055.46
491.41	21160.78
491.59	21088.23
491.77	20992.26
491.95	21586.76
492.13	21741.24
492.30	21979.97
492.48	22253.81
492.66	22270.20
492.84	22324.03
493.01	22513.61
493.19	22623.62
493.37	22773.41
493.54	22881.08
493.72	23461.53
493.90	23229.82
494.08	23255.56
494.25	23730.69
494.43	23805.59
494.61	24046.66
494.79	24147.31
494.96	23978.79
495.14	24119.22
495.32	24357.96
495.49	24215.18
495.67	24346.25
495.85	24606.05
496.02	24545.20
496.20	25233.32
496.38	24856.49
496.55	25291.83
496.73	25783.34
496.91	25127.99
497.09	25696.74
497.26	25895.69
497.44	25544.61
497.62	25413.54
497.79	25792.70
497.97	25790.36
498.14	26167.19
498.32	26099.31
498.50	26389.54
498.67	26508.91
498.85	26522.95
499.03	26298.26
499.20	26504.23
499.38	26661.04
499.56	26864.67
499.73	26771.05
499.91	26986.38
500.08	27054.25
500.26	26607.21
500.44	27386.61
500.61	27302.35
500.79	27131.49
500.97	27065.96
501.14	27742.37
501.32	27339.80
501.49	27789.18
501.67	27861.74
501.84	27665.13
502.02	27871.10
502.20	27854.72
502.37	28357.93
502.55	28393.04
502.72	28755.82
502.90	28629.43
503.07	28460.91
503.25	28914.98
503.43	28587.30
503.60	28800.29
503.78	28922.00
503.95	28479.64
504.13	28800.29
504.30	29415.85
504.48	29509.47
504.65	29703.74
504.83	29453.30
505.01	29542.24
505.18	29619.48
505.36	30185.89
505.53	30099.29
505.71	30139.08
505.88	30085.25
506.06	29722.46
506.23	30410.58
506.41	30047.80
506.58	30171.85
506.76	30415.26
506.93	30764.00
507.11	30579.10
507.28	30185.89
507.46	30382.49
507.63	30728.89
507.81	30534.63
507.98	30118.01
508.16	31089.34
508.33	30998.06
508.50	31332.75
508.68	31709.58
508.85	31613.62
509.03	31796.18
509.20	31381.90
509.38	31948.31
509.55	31885.12
509.73	31812.56
509.90	31807.88
510.08	32121.51
510.25	31814.90
510.42	32332.16
510.60	32275.99
510.77	32374.29
510.95	32500.68
511.12	32240.88
511.30	32797.93
511.47	33277.74
511.64	32938.36
511.82	32884.53
511.99	32732.39
512.17	33125.60
512.34	32823.67
512.51	33130.28
512.69	33284.76
512.86	33596.05
513.04	33589.03
513.21	33406.47
513.38	33738.82
513.56	33684.99
513.73	33240.29
513.90	33483.70
514.08	33764.57
514.25	34162.46
514.43	33766.91
514.60	33937.77
514.77	33558.60
514.95	34604.82
515.12	34349.70
515.29	34380.13
515.47	34742.91
515.64	34728.87
515.81	34445.66
515.99	34455.03
516.16	34078.20
516.33	33893.30
516.51	34033.73
516.68	34115.65
516.85	33844.15
517.03	33837.12
517.20	34443.32
517.37	34817.81
517.54	35014.41
517.72	34520.56
517.89	34827.17
518.06	34548.65
518.24	34665.67
518.41	34944.20
518.58	34998.03
518.75	35335.07
518.93	35232.08
519.10	35592.53
519.27	35812.54
519.45	35728.28
519.62	35817.22
519.79	35929.56
519.96	36058.29
520.14	36107.44
520.31	36084.04
520.48	35992.76
520.65	36208.09
520.83	36488.95
521.00	36402.35
521.17	36521.72
521.34	36753.43
521.52	36758.11
521.69	36683.22
521.86	36992.17
522.03	37043.66
522.20	36861.10
522.38	36856.42
522.55	36945.36
522.72	37181.75
522.89	37083.45
523.07	37312.82
523.24	36954.72
523.41	37771.57
523.58	37074.09
523.75	38007.96
523.92	37773.91
524.10	37783.27
524.27	38110.94
524.44	37867.53
524.61	38127.33
524.78	38382.45
524.96	38029.02
525.13	38494.79
525.30	38096.90
525.47	38572.03
525.64	38185.84
525.81	38218.61
525.98	38136.69
526.16	38108.60
526.33	37731.78
526.50	38543.94
526.67	37951.79
526.84	38164.78
527.01	38443.30
527.18	38408.19
527.36	38672.67
527.53	38962.90
527.70	39255.46
527.87	38862.26
528.04	38712.46
528.21	38859.91
528.38	39232.06
528.55	39468.45
528.72	39608.89
528.89	39636.97
529.07	39047.16
529.24	38946.51
529.41	39552.71
529.58	39150.14
529.75	39393.56
529.92	39344.41
530.09	39824.22
530.26	39629.95
530.43	40371.90
530.60	39943.58
530.77	39629.95
530.94	40360.20
531.11	40105.08
531.28	40116.78
531.46	40168.27
531.63	40793.20
531.80	40236.15
531.97	40194.02
532.14	40271.26
532.31	40034.86
532.48	40039.54
532.65	40231.47
532.82	40156.57
532.99	40725.32
533.16	40294.66
533.33	40224.45
533.50	40722.98
533.67	40765.11
533.84	40421.05
534.01	40708.94
534.18	40737.02
534.35	41095.13
534.52	40601.27
534.69	40910.22
534.86	41146.62
535.03	40893.84
535.20	41680.26
535.37	41345.56
535.54	41551.53
535.71	41476.63
535.88	41301.09
536.05	41212.15
536.22	41490.68
536.38	41647.49
536.55	41387.69
536.72	41661.54
536.89	41298.75
537.06	41406.42
537.23	42036.02
537.40	41603.02
537.57	41511.74
537.74	41666.22
537.91	42157.73
538.08	41975.17
538.25	41598.34
538.42	42218.58
538.59	42356.67
538.75	41495.36
538.92	42021.98
539.09	41963.46
539.26	42227.95
539.43	41858.14
539.60	41715.37
539.77	42370.72
539.94	42204.54
540.11	42169.43
540.28	42029.00
540.44	42260.71
540.61	42321.57
540.78	42160.07
540.95	42185.82
541.12	42330.93
541.29	42389.44
541.46	42597.75
541.62	42822.44
541.79	42862.23
541.96	42710.10
542.13	42492.43
542.30	42541.58
542.47	42686.69
542.63	42773.29
542.80	42817.76
542.97	43278.85
543.14	43143.09
543.31	43168.84
543.48	43157.14
543.64	43660.35
543.81	43304.59
543.98	43835.89
544.15	43463.75
544.32	43882.70
544.48	43672.06
544.65	43739.93
544.82	43835.89
544.99	43267.14
545.16	43725.89
545.32	43363.11
545.49	43955.26
545.66	44154.21
545.83	44140.16
546.00	44287.62
546.16	44034.84
546.33	43721.21
546.50	43576.09
546.67	43805.47
546.83	43693.12
547.00	43585.46
547.17	43620.56
547.34	43931.86
547.50	43597.16
547.67	43901.43
547.84	44322.72
548.00	44737.00
548.17	44699.55
548.34	44685.51
548.51	44842.32
548.67	44313.36
548.84	44259.53
549.01	44046.54
549.18	44500.61
549.34	44809.56
549.51	44741.68
549.68	44935.95
549.84	44554.44
550.01	44734.66
550.18	44411.67
550.34	44704.23
550.51	44561.46
550.68	44624.65
550.84	44388.26
551.01	44907.86
551.18	44832.96
551.34	44975.73
551.51	45125.53
551.68	44882.11
551.84	44971.05
552.01	44678.49
552.18	44987.44
552.34	44884.45
552.51	44919.56
552.68	44949.99
552.84	45186.38
553.01	45462.57
553.18	45092.76
553.34	45301.07
553.51	45097.44
553.67	44858.71
553.84	45916.63
554.01	45631.08
554.17	45301.07
554.34	45982.16
554.51	45748.11
554.67	45937.69
554.84	45595.98
555.00	45247.24
555.17	45422.78
555.33	45560.87
555.50	45357.24
555.67	45132.55
555.83	45364.26
556.00	45298.73
556.16	45670.87
556.33	45483.63
556.50	45497.67
556.66	45647.47
556.83	45591.30
556.99	45502.35
557.16	45713.00
557.32	45521.08
557.49	45638.11
557.65	45277.66
557.82	45790.24
557.98	45820.67
558.15	45897.91
558.32	45918.97
558.48	45500.01
558.65	45963.44
558.81	45593.64
558.98	45656.83
559.14	45588.95
559.31	45324.47
559.47	45696.62
559.64	46073.45
559.80	46391.76
559.97	45895.56
560.13	45621.72
560.30	45586.61
560.46	45677.90
560.63	46014.93
560.79	46138.98
560.96	46288.77
561.12	46211.54
561.29	46246.65
561.45	46101.53
561.61	46270.05
561.78	45661.51
561.94	45949.40
562.11	46162.39
562.27	46082.81
562.44	46691.35
562.60	46387.08
562.77	46305.16
562.93	46389.42
563.10	45808.96
563.26	45900.25
563.42	46396.44
563.59	46050.04
563.75	46082.81
563.92	46527.51
564.08	46461.97
564.24	46705.39
564.41	46295.80
564.57	46344.95
564.74	46342.61
564.90	46199.83
565.07	46300.48
565.23	46326.22
565.39	46347.29
565.56	46036.00
565.72	46028.98
565.88	46506.44
566.05	46375.37
566.21	46593.04
566.38	46363.67
566.54	46541.55
566.70	46656.24
566.87	46745.18
567.03	46277.07
567.19	46951.15
567.36	46590.70
567.52	46583.68
567.68	46452.61
567.85	46450.27
568.01	46752.20
568.17	46258.35
568.34	46873.91
568.50	46728.80
568.66	46225.58
568.83	46480.70
568.99	46328.56
569.15	46185.79
569.32	46553.26
569.48	46658.58
569.64	46646.88
569.81	46749.86
569.97	46394.10
570.13	46628.15
570.30	46054.72
570.46	46012.59
570.62	46087.49
570.78	45848.75
570.95	46225.58
571.11	46904.34
571.27	46288.77
571.43	46080.47
571.60	46260.69
571.76	46689.01
571.92	46490.06
572.09	46937.10
572.25	46326.22
572.41	46581.34
572.57	46464.32
572.74	46962.85
572.90	46855.18
573.06	46693.69
573.22	46761.56
573.38	46696.03
573.55	46120.26
573.71	46630.49
573.87	46988.60
574.03	46618.79
574.20	46354.31
574.36	46429.21
574.52	46426.87
574.68	46824.76
574.84	46588.36
575.01	46623.47
575.17	46550.91
575.33	46473.68
575.49	46115.58
575.65	46756.88
575.82	46597.73
575.98	46408.14
576.14	46857.52
576.30	46319.20
576.46	46700.71
576.62	46611.77
576.79	46555.60
576.95	46335.59
577.11	46815.40
577.27	46625.81
577.43	46887.95
577.59	46518.15
577.75	46394.10
577.92	46527.51
578.08	46476.02
578.24	46293.46
578.40	46436.23
578.56	46560.28
578.72	46799.01
578.88	47000.30
579.04	46714.75
579.21	46525.17
579.37	46611.77
579.53	46562.62
579.69	46557.94
579.85	46508.79
580.01	46717.09
580.17	46773.27
580.33	46822.42
580.49	46696.03
580.65	47232.01
580.82	46958.17
580.98	46380.06
581.14	46990.94
581.30	46777.95
581.46	47126.69
581.62	46525.17
581.78	46602.41
581.94	47222.65
582.10	46773.27
582.26	46740.50
582.42	46927.74
582.58	47129.03
582.74	46930.08
582.90	46724.11
583.06	46972.21
583.22	46651.56
583.38	47054.13
583.54	46967.53
583.70	47304.57
583.86	46927.74
584.02	46841.14
584.18	46972.21
584.34	46831.78
584.50	46693.69
584.66	46354.31
584.82	46667.94
584.98	46827.10
585.14	46579.00
585.30	46927.74
585.46	46808.37
585.62	46391.76
585.78	46637.51
585.94	46415.16
586.10	46508.79
586.26	46478.36
586.42	47051.79
586.58	46864.55
586.74	46600.07
586.90	46625.81
587.06	46902.00
587.22	46997.96
587.38	46691.35
587.54	47019.02
587.70	46857.52
587.86	46417.50
588.02	46679.64
588.18	46986.25
588.34	47199.24
588.49	46117.92
588.65	46047.70
588.81	46562.62
588.97	46314.52
589.13	46141.32
589.29	46494.74
589.45	46616.45
589.61	46876.25
589.77	46906.68
589.93	46745.18
590.08	46478.36
590.24	46953.49
590.40	47210.95
590.56	46876.25
590.72	47253.08
590.88	46724.11
591.04	46911.36
591.20	47522.24
591.35	47316.27
591.51	47171.16
591.67	46733.48
591.83	46934.76
591.99	46906.68
592.15	47243.71
592.31	47007.32
592.46	46972.21
592.62	46939.44
592.78	47220.31
592.94	47189.88
593.10	46923.06
593.26	46878.59
593.41	46843.48
593.57	46827.10
593.73	47007.32
593.89	46646.88
594.05	46873.91
594.20	46859.87
594.36	46890.29
594.52	46810.71
594.68	46986.25
594.84	47086.90
594.99	47161.79
595.15	47152.43
595.31	47044.77
595.47	46515.81
595.62	46955.83
595.78	46831.78
595.94	47590.11
596.10	47019.02
596.25	46955.83
596.41	46904.34
596.57	47056.47
596.73	47372.44
596.88	46773.27
597.04	46705.39
597.20	46932.42
597.36	46934.76
597.51	47089.24
597.67	47185.20
597.83	47243.71
597.99	47290.52
598.14	47201.58
598.30	47182.86
598.46	46714.75
598.61	46986.25
598.77	46443.25
598.93	46951.15
599.09	47255.42
599.24	47334.99
599.40	46747.52
599.56	47124.35
599.71	46979.23
599.87	47016.68
600.03	47164.14
600.18	46857.52
600.34	46656.24
600.50	47056.47
600.65	46672.62
600.81	47103.28
600.97	46712.41
601.12	47002.64
601.28	47269.46
601.44	46625.81
601.59	46461.97
601.75	46567.30
601.91	46869.23
602.06	46567.30
602.22	46796.67
602.37	46836.46
602.53	46829.44
602.69	46838.80
602.84	46768.58
603.00	47079.88
603.16	46824.76
603.31	46948.81
603.47	46925.40
603.62	46873.91
603.78	46899.65
603.94	47056.47
604.09	47185.20
604.25	46976.89
604.40	46885.61
604.56	46719.43
604.71	47103.28
604.87	47033.07
605.03	46581.34
605.18	46782.63
605.34	46742.84
605.49	46660.92
605.65	46981.57
605.80	46848.16
605.96	47147.75
606.12	47044.77
606.27	46960.51
606.43	46586.02
606.58	46899.65
606.74	46738.16
606.89	46672.62
607.05	46614.11
607.20	46782.63
607.36	46773.27
607.51	46527.51
607.67	46667.94
607.82	46660.92
607.98	46691.35
608.13	46740.50
608.29	46543.89
608.44	46672.62
608.60	46087.49
608.75	46637.51
608.91	46529.85
609.06	46483.04
609.22	46293.46
609.37	46405.80
609.53	46309.84
609.68	46539.21
609.84	46288.77
609.99	46094.51
610.15	45989.19
610.30	46148.34
610.46	46054.72
610.61	46185.79
610.76	46328.56
610.92	46277.07
611.07	46312.18
611.23	46490.06
611.38	46450.27
611.54	45888.54
611.69	45780.88
611.84	45888.54
612.00	46007.91
612.15	45834.71
612.31	46239.62
612.46	45710.66
612.62	46064.08
612.77	45715.34
612.92	46405.80
613.08	45757.47
613.23	45897.91
613.39	45612.36
613.54	45818.33
613.69	45787.90
613.85	45354.90
614.00	46078.13
614.15	46391.76
614.31	45588.95
614.46	46038.34
614.62	45710.66
614.77	45797.26
614.92	45738.75
615.08	45764.49
615.23	45624.06
615.38	45574.91
615.54	45390.01
615.69	45340.86
615.84	45607.68
616.00	45600.66
616.15	45343.20
616.30	45228.51
616.46	45148.93
616.61	45174.68
616.76	45413.41
616.92	44708.91
617.07	45139.57
617.22	44877.43
617.37	45078.72
617.53	45675.55
617.68	45490.65
617.83	45518.74
617.99	45326.81
618.14	45509.38
618.29	45059.99
618.45	44694.87
618.60	44985.10
618.75	44734.66
618.90	44949.99
619.06	45090.42
619.21	45364.26
619.36	44737.00
619.51	45160.64
619.67	45191.06
619.82	45261.28
619.97	45020.20
620.12	44402.30
620.28	44161.23
620.43	44760.40
620.58	44648.06
620.73	44526.35
620.89	45095.10
621.04	45069.36
621.19	44851.69
621.34	45162.98
621.49	44601.25
621.65	44432.73
621.80	44989.78
621.95	44650.40
622.10	43957.60
622.25	44114.42
622.41	44512.31
622.56	44484.22
622.71	44273.57
622.86	44233.78
623.01	44769.77
623.16	44488.90
623.32	44058.24
623.47	44533.37
623.62	44458.48
623.77	44343.79
623.92	44198.68
624.07	44371.88
624.23	44158.89
624.38	43854.62
624.53	43461.41
624.68	44023.14
624.83	44294.64
624.98	44095.69
625.13	43555.03
625.29	43779.72
625.44	43372.47
625.59	43538.65
625.74	43903.77
625.89	43491.83
626.04	43583.12
626.19	44088.67
626.34	43927.17
626.49	43564.39
626.65	43505.88
626.80	43868.66
626.95	43452.05
627.10	43091.60
627.25	43337.36
627.40	43105.65
627.55	43138.41
627.70	42925.42
627.85	43206.29
628.00	43328.00
628.15	43222.67
628.30	43409.92
628.45	43213.31
628.60	43393.53
628.76	43065.86
628.91	43604.18
629.06	43456.73
629.21	42560.30
629.36	43115.01
629.51	42806.06
629.66	42876.27
629.81	42616.47
629.96	42937.13
630.11	43217.99
630.26	43276.51
630.41	43400.55
630.56	43040.11
630.71	43021.39
630.86	42546.26
631.01	42618.81
631.16	42700.73
631.31	42312.20
631.46	42333.27
631.61	42424.55
631.76	42307.52
631.91	42618.81
632.06	43133.73
632.21	42686.69
632.36	42583.71
632.51	41972.83
632.66	42349.65
632.81	41848.78
632.96	42253.69
633.10	42239.65
633.25	42103.90
633.40	42724.14
633.55	42490.09
633.70	42314.55
633.85	42316.89
634.00	42389.44
634.15	41963.46
634.30	42059.43
634.45	41888.57
634.60	41991.55
634.75	42424.55
634.90	42061.77
635.05	41808.99
635.19	42188.16
635.34	41970.49
635.49	42024.32
635.64	41521.10
635.79	41820.69
635.94	41984.53
636.09	41846.44
636.24	41839.42
636.39	41446.21
636.53	41745.80
636.68	41902.61
636.83	41574.94
636.98	41528.13
637.13	41677.92
637.28	41874.52
637.43	41888.57
637.57	41752.82
637.72	41478.97
637.87	41715.37
638.02	41684.94
638.17	41303.43
638.32	41375.99
638.46	41457.91
638.61	41521.10
638.76	41570.25
638.91	41750.48
639.06	41542.17
639.20	41010.87
639.35	41436.84
639.50	41972.83
639.65	41256.62
639.80	41605.36
639.94	41127.89
640.09	41095.13
640.24	41209.81
640.39	40917.25
640.54	40875.12
640.68	41060.02
640.83	41081.08
640.98	40620.00
641.13	40971.08
641.27	41242.58
641.42	41106.83
641.57	40865.75
641.72	40999.16
641.86	40725.32
642.01	40247.85
642.16	40390.62
642.31	40355.52
642.45	40519.35
642.60	40477.22
642.75	40594.25
642.90	41010.87
643.04	40875.12
643.19	40493.61
643.34	40552.12
643.48	40236.15
643.63	40392.97
643.78	40418.71
643.93	40245.51
644.07	40463.18
644.22	40493.61
644.37	39941.24
644.51	40266.58
644.66	40449.14
644.81	40259.55
644.95	40266.58
645.10	40313.39
645.25	40297.00
645.39	40414.03
645.54	40196.36
645.69	40018.48
645.83	40182.32
645.98	40250.19
646.13	39950.60
646.27	39894.43
646.42	39800.81
646.57	39936.56
646.71	39854.64
646.86	39674.42
647.00	40243.17
647.15	40271.26
647.30	39861.66
647.44	39449.73
647.59	39934.22
647.74	39669.74
647.88	39796.13
648.03	39662.72
648.17	39999.76
648.32	39878.05
648.47	39452.07
648.61	39391.22
648.76	39686.12
648.90	39440.37
649.05	39019.07
649.20	39100.99
649.34	39620.59
649.49	39005.03
649.63	39115.03
649.78	39440.37
649.92	39814.85
650.07	39566.76
650.21	39330.36
650.36	39405.26
650.51	39351.43
650.65	39908.47
650.80	39728.25
650.94	39342.06
651.09	39456.75
651.23	39145.46
651.38	39388.88
651.52	38969.92
651.67	38789.70
651.81	38958.22
651.96	39239.08
652.10	38888.00
652.25	39288.23
652.39	38876.30
652.54	38827.15
652.68	38749.91
652.83	39213.34
652.97	39145.46
653.12	38717.14
653.26	38499.47
653.41	38639.90
653.55	38572.03
653.70	38871.62
653.84	39210.99
653.99	38258.40
654.13	38272.44
654.27	38534.58
654.42	38646.93
654.56	38223.29
654.71	38511.17
654.85	38440.96
655.00	38607.14
655.14	38354.36
655.29	38190.52
655.43	37394.74
655.57	37776.25
655.72	37806.67
655.86	37773.91
656.01	37963.49
656.15	37530.49
656.30	37750.50
656.44	37757.52
656.58	37661.56
656.73	37317.50
656.87	37801.99
657.01	37710.71
657.16	37961.15
657.30	37422.83
657.45	37219.20
657.59	37832.42
657.73	37830.08
657.88	38323.93
658.02	38260.74
658.16	37930.72
658.31	38356.70
658.45	37647.52
658.60	37504.74
658.74	37766.88
658.88	37827.74
659.03	37198.13
659.17	37193.45
659.31	37305.80
659.46	37654.54
659.60	37886.25
659.74	37516.45
659.89	37511.77
660.03	37095.15
660.17	37544.53
660.32	37186.43
660.46	37053.02
660.60	36786.20
660.74	36690.24
660.89	37205.16
661.03	36732.37
661.17	36168.30
661.32	36442.14
661.46	36566.19
661.60	36514.70
661.74	36547.47
661.89	37031.96
662.03	36928.97
662.17	36439.80
662.31	36362.56
662.46	36676.19
662.60	36802.58
662.74	36676.19
662.88	35967.01
663.03	35857.01
663.17	36119.15
663.31	35676.79
663.45	35814.88
663.60	36219.79
663.74	36013.82
663.88	35899.14
664.02	36023.19
664.17	35821.90
664.31	35629.98
664.45	35700.19
664.59	35868.71
664.73	35505.93
664.88	35761.05
665.02	35110.38
665.16	35622.95
665.30	35796.15
665.44	35276.55
665.59	34988.67
665.73	35447.41
665.87	35077.61
666.01	35239.11
666.15	34993.35
666.29	35302.30
666.44	35030.80
666.58	34958.24
666.72	35063.57
666.86	35166.55
667.00	35246.13
667.14	34771.00
667.28	34480.77
667.43	34511.20
667.57	34920.79
667.71	34382.47
667.85	34469.07
667.99	34834.19
668.13	34508.86
668.27	34260.76
668.41	34466.73
668.56	34129.69
668.70	34230.33
668.84	34122.67
668.98	33750.52
669.12	33809.04
669.26	34073.52
669.40	33926.07
669.54	33715.42
669.68	33605.41
669.82	33701.37
669.96	33518.81
670.10	33764.57
670.25	33612.43
670.39	33022.62
670.53	33357.32
670.67	33352.63
670.81	33464.98
670.95	33312.84
671.09	33221.56
671.23	33130.28
671.37	32786.22
671.51	32966.45
671.65	32830.69
671.79	32804.95
671.93	33083.47
672.07	33202.84
672.21	32575.58
672.35	32524.08
672.49	32479.61
672.63	33036.66
672.77	32404.72
672.91	32634.09
673.05	32409.40
673.19	32510.04
673.33	32093.43
673.47	32086.40
673.61	32048.96
673.75	31861.71
673.89	31784.48
674.03	31850.01
674.17	31782.13
674.31	31915.54
674.45	31718.94
674.59	31529.36
674.73	31747.03
674.87	31599.57
675.01	31578.51
675.15	31147.85
675.29	31250.83
675.43	31079.97
675.56	31087.00
675.70	30782.73
675.84	30572.08
675.98	30066.52
676.12	30749.96
676.26	31028.48
676.40	30794.43
676.54	30843.58
676.68	30616.55
676.82	29956.52
676.96	30862.30
677.10	30089.93
677.23	30225.68
677.37	30199.93
677.51	29961.20
677.65	29715.44
677.79	29443.94
677.93	29778.64
678.07	29385.43
678.21	29549.26
678.34	29160.73
678.48	28992.22
678.62	29127.97
678.76	28762.84
678.90	28947.75
679.04	28615.39
679.18	28898.59
679.31	28643.48
679.45	28079.41
679.59	28135.58
679.73	28425.81
679.87	28453.89
680.00	28318.14
680.14	27938.97
680.28	28201.11
680.42	27934.29
680.56	27974.08
680.70	28063.02
680.83	28332.18
680.97	28013.87
681.11	27529.38
681.25	27468.53
681.39	27819.61
681.52	27531.72
681.66	27587.89
681.80	27421.72
681.94	27487.25
682.07	26916.16
682.21	26822.54
682.35	26747.64
682.49	26857.65
682.62	26754.66
682.76	26883.39
682.90	26705.51
683.04	26394.22
683.17	26565.08
683.31	25923.77
683.45	26466.78
683.59	25729.51
683.72	25970.58
683.86	26096.97
684.00	25949.52
684.13	25773.98
684.27	25661.63
684.41	25308.21
684.55	25104.59
684.68	25710.78
684.82	25111.61
684.96	25582.06
685.09	25209.91
685.23	25509.50
685.37	25207.57
685.50	24872.87
685.64	24989.90
685.78	24769.89
685.91	24989.90
686.05	24474.98
686.19	24350.93
686.32	24058.37
686.46	23922.62
686.60	23363.23
686.73	23592.60
686.87	23300.03
687.01	23370.25
687.14	23346.84
687.28	23304.71
687.42	23145.56
687.55	23396.00
687.69	23730.69
687.82	23250.88
687.96	23403.02
688.10	22761.71
688.23	22934.91
688.37	23035.55
688.50	22560.42
688.64	22567.45
688.78	22799.16
688.91	22553.40
689.05	22551.06
689.18	22345.09
689.32	22141.47
689.46	22295.94
689.59	22478.50
689.73	22024.44
689.86	22459.78
690.00	21837.20
690.13	22265.52
690.27	22026.78
690.41	21699.11
690.54	21556.33
690.68	21436.97
690.81	21338.66
690.95	21528.25
691.08	21338.66
691.22	21383.13
691.35	21390.16
691.49	21364.41
691.62	21319.94
691.76	20924.39
691.89	21053.12
692.03	20662.25
692.16	20683.31
692.30	20592.03
692.43	20528.84
692.57	20189.46
692.70	20095.84
692.84	20276.06
692.97	20269.04
693.11	20224.57
693.24	20184.78
693.38	19981.15
693.51	19749.44
693.65	20058.39
693.78	20025.62
693.92	20086.48
694.05	19702.63
694.19	19466.24
694.32	19386.66
694.45	19487.30
694.59	19267.29
694.72	19487.30
694.86	19339.85
694.99	19075.37
695.13	19091.75
695.26	18944.30
695.39	18988.77
695.53	18972.38
695.66	19204.10
695.80	18892.80
695.93	18427.04
696.07	18635.35
696.20	18497.25
696.33	18548.75
696.47	18410.65
696.60	18113.41
696.73	18097.02
696.87	17935.53
697.00	17914.46
697.14	17874.67
697.27	17961.27
697.40	17926.16
697.54	17703.81
697.67	17706.15
697.80	17612.53
697.94	17212.30
698.07	17221.66
698.21	16980.59
698.34	17238.05
698.47	16889.31
698.61	16978.25
698.74	16681.00
698.87	16737.17
699.01	16664.61
699.14	16837.81
699.27	16414.18
699.40	16507.80
699.54	16643.55
699.67	16248.00
699.80	16510.14
699.94	16233.96
700.07	16025.65
700.20	16226.93
700.34	16292.47
700.47	16301.83
700.60	16367.37
700.73	16236.30
700.87	15836.06
701.00	15545.84
701.13	15648.82
701.26	15763.51
701.40	15470.94
701.53	15496.69
701.66	15634.78
701.79	15721.38
701.93	15056.67
702.06	14934.96
702.19	15325.83
702.32	14876.44
702.46	15173.69
702.59	15197.10
702.72	14754.74
702.85	14892.83
702.99	14799.21
703.12	14874.10
703.25	14427.06
703.38	14595.58
703.51	14424.72
703.65	14354.51
703.78	14513.66
703.91	14267.91
704.04	14185.99
704.17	14401.32
704.31	14242.16
704.44	14026.83
704.57	14143.86
704.70	13982.36
704.83	13818.52
704.96	13771.71
705.10	13743.63
705.23	13619.58
>>>>>End Processed Spectral Data<<<<<
