SpectraSuite Data File
++++++++++++++++++++++++++++++++++++
Date: Fri Oct 25 10:46:56 EDT 2013
User: price-jones
Dark Spectrum Present: No
Reference Spectrum Present: No
Number of Sampled Component Spectra: 1
Spectrometers: USB2+H05261
Integration Time (usec): 100000 (USB2+H05261)
Spectra Averaged: 1 (USB2+H05261)
Boxcar Smoothing: 0 (USB2+H05261)
Correct for Electrical Dark: No (USB2+H05261)
Strobe/Lamp Enabled: No (USB2+H05261)
Correct for Detector Non-linearity: No (USB2+H05261)
Correct for Stray Light: No (USB2+H05261)
Number of Pixels in Processed Spectrum: 2048
>>>>>Begin Processed Spectral Data<<<<<
365.73	114.69
365.92	114.69
366.12	114.69
366.32	72.56
366.52	42.13
366.72	23.41
366.91	0.00
367.11	14.04
367.31	0.00
367.51	44.47
367.70	63.19
367.90	30.43
368.10	63.19
368.30	102.98
368.49	0.00
368.69	154.48
368.89	98.30
369.09	9.36
369.28	67.88
369.48	79.58
369.68	58.51
369.87	91.28
370.07	39.79
370.27	140.43
370.47	229.37
370.66	437.68
370.86	397.89
371.06	454.06
371.25	461.09
371.45	475.13
371.65	482.15
371.84	496.19
372.04	475.13
372.24	395.55
372.44	463.43
372.63	552.37
372.83	543.00
373.03	498.53
373.22	463.43
373.42	629.60
373.62	559.39
373.81	524.28
374.01	608.54
374.21	608.54
374.40	566.41
374.60	528.96
374.79	547.69
374.99	561.73
375.19	517.26
375.38	571.09
375.58	571.09
375.78	624.92
375.97	692.80
376.17	702.16
376.37	615.56
376.56	638.97
376.76	613.22
376.95	692.80
377.15	655.35
377.35	627.26
377.54	655.35
377.74	685.78
377.93	638.97
378.13	657.69
378.33	688.12
378.52	662.37
378.72	720.88
378.91	613.22
379.11	671.73
379.31	730.25
379.50	674.07
379.70	706.84
379.89	702.16
380.09	723.23
380.28	713.86
380.48	702.16
380.68	620.24
380.87	688.12
381.07	720.88
381.26	648.33
381.46	650.67
381.65	725.57
381.85	730.25
382.04	784.08
382.24	720.88
382.43	706.84
382.63	723.23
382.83	746.63
383.02	709.18
383.22	737.27
383.41	734.93
383.61	734.93
383.80	725.57
384.00	814.51
384.19	788.76
384.39	751.31
384.58	802.80
384.78	779.40
384.97	741.95
385.17	746.63
385.36	809.83
385.56	786.42
385.75	833.23
385.95	823.87
386.14	849.61
386.34	763.01
386.53	856.64
386.72	882.38
386.92	898.77
387.11	767.70
387.31	940.90
387.50	842.59
387.70	863.66
387.89	910.47
388.09	884.72
388.28	933.87
388.48	835.57
388.67	987.71
388.86	889.40
389.06	922.17
389.25	924.51
389.45	1025.15
389.64	901.11
389.84	976.00
390.03	1029.84
390.22	997.07
390.42	1015.79
390.61	1032.18
390.81	1008.77
391.00	1088.35
391.19	1088.35
391.39	978.34
391.58	1076.65
391.78	1102.39
391.97	1067.28
392.16	940.90
392.36	1064.94
392.55	1060.26
392.75	945.58
392.94	931.53
393.13	1046.22
393.33	1020.47
393.52	1013.45
393.71	1144.52
393.91	1137.50
394.10	1057.92
394.29	1107.07
394.49	1146.86
394.68	1167.93
394.88	1116.44
395.07	1167.93
395.26	1252.19
395.46	1224.10
395.65	1221.76
395.84	1294.32
396.04	1268.57
396.23	1170.27
396.42	1191.33
396.62	1245.16
396.81	1221.76
397.00	1207.72
397.19	1235.80
397.39	1231.12
397.58	1385.60
397.77	1357.51
397.97	1439.43
398.16	1380.92
398.35	1488.58
398.55	1373.89
398.74	1540.07
398.93	1409.00
399.12	1462.83
399.32	1497.94
399.51	1416.02
399.70	1542.41
399.90	1500.28
400.09	1565.82
400.28	1561.14
400.47	1500.28
400.67	1591.56
400.86	1591.56
401.05	1645.40
401.24	1666.46
401.44	1722.63
401.63	1652.42
401.82	1666.46
402.01	1727.32
402.21	1675.82
402.40	1736.68
402.59	1713.27
402.78	1748.38
402.97	1736.68
403.17	1762.42
403.36	1839.66
403.55	1778.81
403.74	1877.11
403.93	1851.36
404.13	1870.09
404.32	1856.04
404.51	1764.76
404.70	1879.45
404.89	1884.13
405.09	1987.11
405.28	1872.43
405.47	2003.50
405.66	1846.68
405.85	1888.81
406.05	1975.41
406.24	1952.01
406.43	1966.05
406.62	2165.00
406.81	2078.40
407.00	1928.60
407.20	1996.48
407.39	2085.42
407.58	2078.40
407.77	2057.33
407.96	2134.57
408.15	2190.74
408.34	2169.68
408.54	2267.98
408.73	2228.19
408.92	2265.64
409.11	2275.00
409.30	2218.83
409.49	2246.91
409.68	2176.70
409.87	2239.89
410.07	2284.36
410.26	2251.60
410.45	2462.24
410.64	2429.48
410.83	2356.92
411.02	2417.77
411.21	2544.16
411.40	2450.54
411.59	2555.86
411.78	2595.65
411.98	2546.50
412.17	2572.25
412.36	2693.96
412.55	2684.59
412.74	2605.02
412.93	2630.76
413.12	2658.85
413.31	2909.29
413.50	2752.47
413.69	2829.71
413.88	2956.10
414.07	2848.43
414.26	3002.91
414.45	3033.33
414.64	2864.82
414.83	2878.86
415.02	2930.35
415.22	3009.93
415.41	3091.85
415.60	3012.27
415.79	3033.33
415.98	3290.79
416.17	3197.17
416.36	3307.18
416.55	3136.32
416.74	3171.43
416.93	3225.26
417.12	3248.66
417.31	3300.16
417.50	3316.54
417.69	3323.56
417.88	3370.37
418.07	3424.20
418.26	3487.40
418.45	3410.16
418.64	3588.04
418.83	3557.61
419.02	3541.23
419.21	3637.19
419.39	3545.91
419.58	3501.44
419.77	3456.97
419.96	3625.49
420.15	3548.25
420.34	3623.15
420.53	3461.65
420.72	3868.91
420.91	3630.17
421.10	3779.97
421.29	3810.39
421.48	3758.90
421.67	3857.20
421.86	3702.73
422.05	3702.73
422.24	3674.64
422.43	3850.18
422.61	3784.65
422.80	3761.24
422.99	3826.78
423.18	3803.37
423.37	3817.41
423.56	3871.25
423.75	3868.91
423.94	3822.09
424.13	3599.74
424.32	3644.21
424.50	4030.40
424.69	3911.04
424.88	3878.27
425.07	3782.31
425.26	3838.48
425.45	3840.82
425.64	3880.61
425.83	3988.27
426.01	4023.38
426.20	4079.55
426.39	3934.44
426.58	3819.75
426.77	3859.54
426.96	3946.14
427.15	3899.33
427.33	4025.72
427.52	3889.97
427.71	4215.30
427.90	4079.55
428.09	4044.45
428.28	4112.32
428.46	4100.62
428.65	4142.75
428.84	4271.48
429.03	4161.47
429.22	4053.81
429.40	4086.58
429.59	4126.36
429.78	4009.34
429.97	3843.16
430.16	3838.48
430.34	3941.46
430.53	4088.92
430.72	4121.68
430.91	4149.77
431.10	4315.95
431.28	4339.35
431.47	4582.77
431.66	4533.62
431.85	4461.06
432.03	4498.51
432.22	4596.81
432.41	4610.86
432.60	4510.21
432.79	4636.60
432.97	4765.33
433.16	4706.82
433.35	4554.68
433.54	4638.94
433.72	4723.20
433.91	4739.58
434.10	4720.86
434.28	4753.63
434.47	4723.20
434.66	4751.29
434.85	4734.90
435.03	4800.44
435.22	4791.08
435.41	4999.38
435.59	4983.00
435.78	5078.96
435.97	5015.77
436.16	5104.71
436.34	5111.73
436.53	5025.13
436.72	5135.14
436.90	5191.31
437.09	5093.01
437.28	5214.71
437.46	4992.36
437.65	5004.07
437.84	5205.35
438.02	5128.11
438.21	5191.31
438.40	5111.73
438.58	5357.49
438.77	5399.62
438.96	5331.74
439.14	5432.38
439.33	5523.66
439.52	5617.29
439.70	5497.92
439.89	5432.38
440.08	5731.97
440.26	5619.63
440.45	5607.92
440.63	5900.49
440.82	5858.36
441.01	5884.11
441.19	5888.79
441.38	5959.00
441.57	6073.69
441.75	5994.11
441.94	6115.82
442.12	6392.00
442.31	6415.41
442.50	6300.72
442.68	6207.10
442.87	6235.19
443.05	6312.42
443.24	6413.07
443.43	6216.46
443.61	6403.71
443.80	6431.79
443.98	6225.82
444.17	6179.01
444.35	6347.53
444.54	6548.82
444.73	6509.03
444.91	6429.45
445.10	6410.73
445.28	6284.34
445.47	6211.78
445.65	6424.77
445.84	6499.67
446.02	6434.13
446.21	6413.07
446.39	6396.68
446.58	6502.01
446.77	6511.37
446.95	6551.16
447.14	6384.98
447.32	6722.02
447.51	6656.48
447.69	6630.74
447.88	6635.42
448.06	6534.78
448.25	6703.29
448.43	6754.79
448.62	6686.91
448.80	6640.10
448.99	6747.76
449.17	6712.66
449.36	6672.87
449.54	6789.89
449.73	6874.15
449.91	7059.06
450.10	6988.84
450.28	7129.27
450.46	7096.50
450.65	6981.82
450.83	7124.59
451.02	7037.99
451.20	6956.07
451.39	6984.16
451.57	7089.48
451.76	7014.59
451.94	7136.29
452.13	7117.57
452.31	7068.42
452.49	7075.44
452.68	7239.28
452.86	7087.14
453.05	7136.29
453.23	7290.77
453.42	6995.86
453.60	7314.17
453.78	7157.36
453.97	7227.57
454.15	7213.53
454.34	7145.66
454.52	7372.69
454.70	7370.35
454.89	7431.20
455.07	7311.83
455.26	7555.25
455.44	7700.36
455.62	7620.78
455.81	7588.02
455.99	7775.26
456.17	7737.81
456.36	7868.88
456.54	7735.47
456.73	7868.88
456.91	8006.97
457.09	7768.24
457.28	8299.54
457.46	7831.43
457.64	7941.44
457.83	7983.57
458.01	7817.39
458.19	8210.60
458.38	8009.31
458.56	8243.37
458.74	8105.28
458.93	8067.83
459.11	7946.12
459.29	8133.36
459.48	8173.15
459.66	8168.47
459.84	8355.71
460.03	8374.44
460.21	8430.61
460.39	8306.56
460.57	8273.79
460.76	8428.27
460.94	8500.83
461.12	8439.97
461.31	8585.08
461.49	8599.13
461.67	8638.92
461.85	8517.21
462.04	8585.08
462.22	8982.98
462.40	8767.65
462.59	8641.26
462.77	8552.32
462.95	8744.24
463.13	8840.20
463.32	8772.33
463.50	8746.58
463.68	9050.85
463.86	8898.72
464.05	8793.39
464.23	8908.08
464.41	8896.38
464.59	8643.60
464.78	9032.13
464.96	8952.55
465.14	8912.76
465.32	9207.67
465.50	9212.35
465.69	9142.13
465.87	8990.00
466.05	8842.54
466.23	9153.84
466.41	8992.34
466.60	9277.88
466.78	8964.25
466.96	9132.77
467.14	9362.14
467.32	9186.60
467.51	9413.63
467.69	9125.75
467.87	9465.13
468.05	9441.72
468.23	9378.53
468.41	9355.12
468.60	9273.20
468.78	9554.07
468.96	9530.66
469.14	9720.24
469.32	9696.84
469.50	9430.02
469.69	9610.24
469.87	9767.06
470.05	9467.47
470.23	9568.11
470.41	9652.37
470.59	9818.55
470.77	9792.80
470.95	9706.20
471.14	10143.88
471.32	9753.01
471.50	10036.22
471.68	10211.76
471.86	10253.89
472.04	10410.70
472.22	10586.24
472.40	10033.88
472.58	10296.02
472.77	10104.09
472.95	10410.70
473.13	10663.48
473.31	10251.55
473.49	10427.09
473.67	10345.17
473.85	10443.47
474.03	10834.34
474.21	10757.10
474.39	10888.17
474.57	10902.22
474.75	10904.56
474.93	11052.01
475.12	10909.24
475.30	11265.00
475.48	11515.44
475.66	11192.44
475.84	11164.36
476.02	11204.14
476.20	11344.58
476.38	11487.35
476.56	11733.11
476.74	11824.39
476.92	11414.79
477.10	11686.29
477.28	11969.50
477.46	11955.46
477.64	12018.65
477.82	12201.21
478.00	12456.33
478.18	12505.48
478.36	12294.83
478.54	12458.67
478.72	12430.59
478.90	12805.07
479.08	12905.71
479.26	13029.76
479.44	12989.97
479.62	12973.59
479.80	13200.62
479.98	13128.06
480.16	13666.39
480.34	13327.01
480.52	13785.76
480.70	13518.93
480.88	13411.27
481.06	13661.71
481.24	13750.65
481.41	14047.90
481.59	14008.11
481.77	14286.63
481.95	14272.59
482.13	14136.84
482.31	14160.24
482.49	14712.61
482.67	14558.13
482.85	14698.56
483.03	14988.79
483.21	15002.83
483.39	15229.87
483.57	15288.38
483.74	15358.60
483.92	15389.02
484.10	15346.89
484.28	15494.35
484.46	15527.11
484.64	16039.69
484.82	15751.81
485.00	16252.68
485.18	16304.17
485.35	16283.11
485.53	16180.12
485.71	16107.57
485.89	16563.97
486.07	16264.38
486.25	16376.73
486.43	16809.73
486.61	17139.74
486.78	17263.79
486.96	17125.70
487.14	17633.60
487.32	17575.08
487.50	17806.80
487.68	17649.98
487.85	17980.00
488.03	18136.81
488.21	18174.26
488.39	18104.04
488.57	18497.25
488.75	18707.90
488.92	18764.07
489.10	18930.25
489.28	19082.39
489.46	19520.07
489.64	19365.59
489.81	20011.58
489.99	19878.17
490.17	19960.09
490.35	20128.61
490.53	20236.27
490.70	20013.92
490.88	20067.75
491.06	20585.01
491.24	20730.12
491.41	20542.88
491.59	20760.55
491.77	20407.13
491.95	20828.43
492.13	20943.11
492.30	21315.26
492.48	21504.84
492.66	21654.64
492.84	21724.85
493.01	22082.95
493.19	21818.47
493.37	22113.38
493.54	21813.79
493.72	22122.74
493.90	22544.04
494.08	22544.04
494.25	22883.42
494.43	22792.14
494.61	22913.84
494.79	22860.01
494.96	22963.00
495.14	23508.34
495.32	23515.36
495.49	23482.59
495.67	23789.20
495.85	23878.15
496.02	23819.63
496.20	24142.63
496.38	24212.84
496.55	24453.92
496.73	24634.14
496.91	24334.55
497.09	24573.28
497.26	24805.00
497.44	24683.29
497.62	24987.56
497.79	24994.58
497.97	24994.58
498.14	25216.93
498.32	25352.68
498.50	25357.36
498.67	25855.90
498.85	25633.55
499.03	25926.11
499.20	26244.43
499.38	25792.70
499.56	26366.13
499.73	26405.92
499.91	26324.01
500.08	26256.13
500.26	26218.68
500.44	26366.13
500.61	26536.99
500.79	26485.50
500.97	26607.21
501.14	27072.98
501.32	26782.75
501.49	26604.87
501.67	27091.70
501.84	27182.98
502.02	27178.30
502.20	27498.95
502.37	27789.18
502.55	27510.66
502.72	27772.80
502.90	27814.93
503.07	27501.29
503.25	27810.25
503.43	27665.13
503.60	28130.90
503.78	27845.35
503.95	28044.30
504.13	28201.11
504.30	28903.28
504.48	28170.69
504.65	28552.20
504.83	28982.85
505.01	28774.55
505.18	28830.72
505.36	29048.39
505.53	28872.85
505.71	29359.68
505.88	29455.64
506.06	28889.23
506.23	29373.72
506.41	29228.61
506.58	29420.53
506.76	29518.84
506.93	30071.20
507.11	29874.60
507.28	29633.52
507.46	29919.07
507.63	29663.95
507.81	30253.76
507.98	29720.12
508.16	30115.67
508.33	30270.15
508.50	30366.11
508.68	30377.81
508.85	30796.77
509.03	30684.42
509.20	30553.35
509.38	30888.05
509.55	31239.13
509.73	31082.31
509.90	30962.95
510.08	31002.74
510.25	31264.88
510.42	31412.33
510.60	31662.77
510.77	31576.17
510.95	31672.13
511.12	32046.62
511.30	31861.71
511.47	32191.73
511.64	32060.66
511.82	32339.18
511.99	31700.22
512.17	32224.50
512.34	32044.27
512.51	32673.88
512.69	32748.78
512.86	32732.39
513.04	32772.18
513.21	32570.90
513.38	32470.25
513.56	32371.95
513.73	32758.14
513.90	32854.10
514.08	32797.93
514.25	32872.82
514.43	33160.71
514.60	33151.35
514.77	33469.66
514.95	33282.42
515.12	33125.60
515.29	33439.23
515.47	33764.57
515.64	33453.28
515.81	33778.61
515.99	33509.45
516.16	33560.94
516.33	33455.62
516.51	33813.72
516.68	33024.96
516.85	33354.97
517.03	33193.48
517.20	33633.50
517.37	33663.93
517.54	34197.57
517.72	34347.36
517.89	33472.00
518.06	33977.56
518.24	33993.94
518.41	34263.10
518.58	34213.95
518.75	34717.17
518.93	34742.91
519.10	34658.65
519.27	34876.32
519.45	34733.55
519.62	35346.77
519.79	35129.10
519.96	35009.73
520.14	35470.82
520.31	35082.29
520.48	35189.95
520.65	35227.40
520.83	35487.20
521.00	35791.47
521.17	35707.21
521.34	35735.30
521.52	35857.01
521.69	36116.81
521.86	36285.33
522.03	35941.27
522.20	36350.86
522.38	35948.29
522.55	36072.34
522.72	35978.72
522.89	36245.54
523.07	36294.69
523.24	36168.30
523.41	36718.32
523.58	36652.79
523.75	36903.23
523.92	37144.30
524.10	37064.72
524.27	37223.88
524.44	36840.03
524.61	37247.29
524.78	37336.23
524.96	37577.30
525.13	37673.26
525.30	37759.86
525.47	37902.64
525.64	37474.32
525.81	37729.44
525.98	37301.12
526.16	37483.68
526.33	37294.10
526.50	37832.42
526.67	37434.53
526.84	37539.85
527.01	37401.76
527.18	37469.64
527.36	38099.24
527.53	37544.53
527.70	38218.61
527.87	38183.50
528.04	38040.73
528.21	38796.72
528.38	38813.10
528.55	38712.46
528.72	38426.92
528.89	38763.95
529.07	38827.15
529.24	38494.79
529.41	38885.66
529.58	38557.99
529.75	38330.95
529.92	38733.53
530.09	38703.10
530.26	39056.52
530.43	39321.00
530.60	38899.70
530.77	39044.82
530.94	39040.14
531.11	38920.77
531.28	39154.82
531.46	39606.55
531.63	39440.37
531.80	39206.31
531.97	39639.31
532.14	39428.66
532.31	39180.57
532.48	39098.65
532.65	39526.97
532.82	39597.18
532.99	40147.21
533.16	39166.52
533.33	39730.59
533.50	39957.63
533.67	40257.21
533.84	39538.67
534.01	39798.47
534.18	39917.84
534.35	40222.11
534.52	39730.59
534.69	40353.18
534.86	40116.78
535.03	40369.56
535.20	40645.74
535.37	40715.96
535.54	40767.45
535.71	40414.03
535.88	40500.63
536.05	40650.42
536.22	40552.12
536.38	40538.08
536.55	40694.89
536.72	40994.48
536.89	40493.61
537.06	40517.01
537.23	40727.66
537.40	40762.77
537.57	40575.53
537.74	41034.27
537.91	41212.15
538.08	40968.74
538.25	40994.48
538.42	40807.24
538.59	41291.73
538.75	40973.42
538.92	41244.92
539.09	41148.96
539.26	41523.44
539.43	41371.31
539.60	41233.22
539.77	40971.08
539.94	41617.07
540.11	41368.97
540.28	41778.56
540.44	41401.74
540.61	41404.08
540.78	41085.76
540.95	41729.41
541.12	41338.54
541.29	41596.00
541.46	41581.96
541.62	42012.62
541.79	42272.42
541.96	41523.44
542.13	41476.63
542.30	41654.51
542.47	42169.43
542.63	42218.58
542.80	42642.22
542.97	42452.64
543.14	42759.25
543.31	42726.48
543.48	42513.49
543.64	42829.46
543.81	42911.38
543.98	42546.26
544.15	42419.87
544.32	43009.68
544.48	43051.81
544.65	42667.97
544.82	42850.53
544.99	42323.91
545.16	43309.27
545.32	42747.54
545.49	43306.93
545.66	43344.38
545.83	43084.58
546.00	42976.92
546.16	43470.77
546.33	43040.11
546.50	42649.24
546.67	43241.40
546.83	42937.13
547.00	43129.05
547.17	43215.65
547.34	43030.75
547.50	43342.04
547.67	43761.00
547.84	42995.64
548.00	43679.08
548.17	43557.37
548.34	43697.80
548.51	43896.75
548.67	43707.16
548.84	43889.73
549.01	43758.66
549.18	44156.55
549.34	43571.41
549.51	43819.51
549.68	44179.95
549.84	43929.51
550.01	44046.54
550.18	44128.46
550.34	43952.92
550.51	43920.15
550.68	44212.72
550.84	43849.94
551.01	44198.68
551.18	43938.88
551.34	44062.93
551.51	44275.91
551.68	44100.37
551.84	44233.78
552.01	44098.03
552.18	44809.56
552.34	43976.33
552.51	44203.36
552.68	44165.91
552.84	44198.68
553.01	44912.54
553.18	44369.54
553.34	44484.22
553.51	44327.41
553.67	44285.28
553.84	44737.00
554.01	44683.17
554.17	44903.18
554.34	44549.76
554.51	44732.32
554.67	44825.94
554.84	44690.19
555.00	45013.18
555.17	44715.93
555.33	44985.10
555.50	44381.24
555.67	44741.68
555.83	44666.78
556.00	44673.81
556.16	45668.53
556.33	44966.37
556.50	45076.38
556.66	45109.14
556.83	45083.40
556.99	45460.23
557.16	45153.62
557.32	45144.25
557.49	45249.58
557.65	44371.88
557.82	44933.60
557.98	44662.10
558.15	44842.32
558.32	45036.59
558.48	45125.53
558.65	45141.91
558.81	44973.39
558.98	45055.31
559.14	45151.27
559.31	44790.83
559.47	45441.50
559.64	45617.04
559.80	45691.94
559.97	45291.71
560.13	45170.00
560.30	45043.61
560.46	45158.30
560.63	45474.27
560.79	45198.09
560.96	45682.58
561.12	45216.81
561.29	45418.10
561.45	45579.59
561.61	45570.23
561.78	45284.68
561.94	45052.97
562.11	45598.32
562.27	45705.98
562.44	45574.91
562.60	45511.72
562.77	46036.00
562.93	45539.80
563.10	45500.01
563.26	45338.52
563.42	45687.26
563.59	45642.79
563.75	45406.39
563.92	45820.67
564.08	45865.14
564.24	46031.32
564.41	46043.02
564.57	45897.91
564.74	45610.02
564.90	45771.52
565.07	45815.99
565.23	45827.69
565.39	45523.42
565.56	46031.32
565.72	45696.62
565.88	45401.71
566.05	45443.84
566.21	45776.20
566.38	45530.44
566.54	45902.59
566.70	45893.22
566.87	46050.04
567.03	46120.26
567.19	46286.43
567.36	46085.15
567.52	45942.38
567.68	46288.77
567.85	45762.15
568.01	45773.86
568.17	45329.16
568.34	45827.69
568.50	46185.79
568.66	46218.56
568.83	45872.16
568.99	45766.84
569.15	45911.95
569.32	46120.26
569.48	45595.98
569.64	46124.94
569.81	45935.35
569.97	45925.99
570.13	45963.44
570.30	45886.20
570.46	45832.37
570.62	45469.59
570.78	45837.05
570.95	46068.76
571.11	46265.37
571.27	45914.29
571.43	45961.10
571.60	46511.13
571.76	46047.70
571.92	46066.42
572.09	46050.04
572.25	45490.65
572.41	45790.24
572.57	46178.77
572.74	46298.14
572.90	45553.85
573.06	45958.76
573.22	46052.38
573.38	46010.25
573.55	46054.72
573.71	46279.41
573.87	46021.95
574.03	45933.01
574.20	46387.08
574.36	46033.66
574.52	46356.65
574.68	45815.99
574.84	46555.60
575.01	46199.83
575.17	45942.38
575.33	45813.65
575.49	46326.22
575.65	46408.14
575.82	46082.81
575.98	46073.45
576.14	46323.88
576.30	46440.91
576.46	46342.61
576.62	46244.30
576.79	45848.75
576.95	46447.93
577.11	46157.70
577.27	46347.29
577.43	46148.34
577.59	46103.87
577.75	46181.11
577.92	45900.25
578.08	45834.71
578.24	45764.49
578.40	46412.82
578.56	45923.65
578.72	45914.29
578.88	46230.26
579.04	46314.52
579.21	46307.50
579.37	46265.37
579.53	46246.65
579.69	45705.98
579.85	46007.91
580.01	46396.44
580.17	46241.96
580.33	46138.98
580.49	46349.63
580.65	46155.36
580.82	46429.21
580.98	46323.88
581.14	45642.79
581.30	46529.85
581.46	46403.46
581.62	45846.41
581.78	46382.40
581.94	46314.52
582.10	46164.73
582.26	46335.59
582.42	45935.35
582.58	46010.25
582.74	46143.66
582.90	46230.26
583.06	46476.02
583.22	46653.90
583.38	47164.14
583.54	46515.81
583.70	46607.09
583.86	46363.67
584.02	46195.15
584.18	46447.93
584.34	46579.00
584.50	46401.12
584.66	46115.58
584.82	46227.92
584.98	46447.93
585.14	45895.56
585.30	46265.37
585.46	46504.10
585.62	46302.82
585.78	46436.23
585.94	45687.26
586.10	46225.58
586.26	46288.77
586.42	46085.15
586.58	46499.42
586.74	46190.47
586.90	46586.02
587.06	46340.27
587.22	46775.61
587.38	46096.85
587.54	46658.58
587.70	46452.61
587.86	46429.21
588.02	46749.86
588.18	46518.15
588.34	46080.47
588.49	46059.40
588.65	46007.91
588.81	45666.19
588.97	46026.63
589.13	45815.99
589.29	45947.06
589.45	46361.33
589.61	46157.70
589.77	46553.26
589.93	46518.15
590.08	46113.23
590.24	46635.17
590.40	46415.16
590.56	46951.15
590.72	46344.95
590.88	46337.93
591.04	46335.59
591.20	47133.71
591.35	46916.04
591.51	46546.23
591.67	46845.82
591.83	46522.83
591.99	46354.31
592.15	46527.51
592.31	46230.26
592.46	46298.14
592.62	46504.10
592.78	46955.83
592.94	46553.26
593.10	46569.64
593.26	46855.18
593.41	46206.86
593.57	46532.19
593.73	46356.65
593.89	46546.23
594.05	46822.42
594.20	46768.58
594.36	46618.79
594.52	46618.79
594.68	46284.09
594.84	46534.53
594.99	46967.53
595.15	46822.42
595.31	46829.44
595.47	46691.35
595.62	46574.32
595.78	46911.36
595.94	46782.63
596.10	47105.62
596.25	46824.76
596.41	47019.02
596.57	46370.69
596.73	46878.59
596.88	46286.43
597.04	46464.32
597.20	46574.32
597.36	46674.96
597.51	46782.63
597.67	46288.77
597.83	47084.56
597.99	46962.85
598.14	46808.37
598.30	46899.65
598.46	46770.93
598.61	46356.65
598.77	46522.83
598.93	46794.33
599.09	47119.66
599.24	46752.20
599.40	47290.52
599.56	47086.90
599.71	46909.02
599.87	46892.63
600.03	46813.05
600.18	46806.03
600.34	46464.32
600.50	46232.60
600.65	46562.62
600.81	46953.49
600.97	46761.56
601.12	46838.80
601.28	46972.21
601.44	46827.10
601.59	46518.15
601.75	46265.37
601.91	46890.29
602.06	46328.56
602.22	46440.91
602.37	46480.70
602.53	46286.43
602.69	46576.66
602.84	46471.34
603.00	46518.15
603.16	46593.04
603.31	46548.57
603.47	46480.70
603.62	46391.76
603.78	46897.31
603.94	46265.37
604.09	46731.14
604.25	46710.07
604.40	46337.93
604.56	46513.47
604.71	46581.34
604.87	46548.57
605.03	46597.73
605.18	46401.12
605.34	46248.99
605.49	46347.29
605.65	46508.79
605.80	46234.94
605.96	46593.04
606.12	46656.24
606.27	46843.48
606.43	46241.96
606.58	46632.83
606.74	46061.74
606.89	46564.96
607.05	46614.11
607.20	46506.44
607.36	46609.43
607.51	46623.47
607.67	46567.30
607.82	46878.59
607.98	46206.86
608.13	45874.50
608.29	46064.08
608.44	45724.71
608.60	45867.48
608.75	46017.27
608.91	46234.94
609.06	45839.39
609.22	46473.68
609.37	45715.34
609.53	45668.53
609.68	46398.78
609.84	46033.66
609.99	46279.41
610.15	46019.61
610.30	46281.75
610.46	45722.37
610.61	45909.61
610.76	46536.87
610.92	46316.86
611.07	46115.58
611.23	46036.00
611.38	46398.78
611.54	45867.48
611.69	45698.96
611.84	45432.14
612.00	45752.79
612.15	45537.46
612.31	45703.64
612.46	45675.55
612.62	45947.06
612.77	45925.99
612.92	46227.92
613.08	45422.78
613.23	45804.28
613.39	45715.34
613.54	45354.90
613.69	45502.35
613.85	45455.54
614.00	45422.78
614.15	45935.35
614.31	45764.49
614.46	45530.44
614.62	45488.31
614.77	45516.40
614.92	45507.04
615.08	45418.10
615.23	44694.87
615.38	45345.54
615.54	45282.34
615.69	45244.90
615.84	45151.27
616.00	45172.34
616.15	45137.23
616.30	45703.64
616.46	45137.23
616.61	44603.59
616.76	45378.31
616.92	44493.58
617.07	45017.86
617.22	44746.36
617.37	44917.22
617.53	45331.50
617.68	44715.93
617.83	45006.16
617.99	45305.75
618.14	45209.79
618.29	45258.94
618.45	44552.10
618.60	44657.42
618.75	45237.87
618.90	44839.98
619.06	45373.63
619.21	44638.70
619.36	44348.47
619.51	45310.43
619.67	44737.00
619.82	44479.54
619.97	45240.21
620.12	44725.30
620.28	44086.33
620.43	44512.31
620.58	44641.04
620.73	44406.98
620.89	44790.83
621.04	44524.01
621.19	44406.98
621.34	44362.51
621.49	44739.34
621.65	44444.43
621.80	44540.39
621.95	44161.23
622.10	44715.93
622.25	43885.04
622.41	43999.73
622.56	43824.19
622.71	44137.82
622.86	44095.69
623.01	44278.25
623.16	44397.62
623.32	44109.74
623.47	44055.90
623.62	43913.13
623.77	43971.64
623.92	44051.22
624.07	43915.47
624.23	44142.50
624.38	43704.82
624.53	43730.57
624.68	44343.79
624.83	43601.84
624.98	43480.13
625.13	43875.68
625.29	43920.15
625.44	43765.68
625.59	43599.50
625.74	43367.79
625.89	43423.96
626.04	43533.96
626.19	43370.13
626.34	43466.09
626.49	43697.80
626.65	43386.51
626.80	43732.91
626.95	43236.72
627.10	43543.33
627.25	43026.07
627.40	43374.81
627.55	43105.65
627.70	42796.70
627.85	42557.96
628.00	42848.19
628.15	42969.90
628.30	42553.28
628.45	43239.06
628.60	43047.13
628.76	43388.85
628.91	43545.67
629.06	43147.78
629.21	43222.67
629.36	43367.79
629.51	42724.14
629.66	42848.19
629.81	42459.66
629.96	43026.07
630.11	42815.42
630.26	43316.29
630.41	42899.68
630.56	42806.06
630.71	43428.64
630.86	42859.89
631.01	42738.18
631.16	42656.26
631.31	42426.89
631.46	42263.05
631.61	42822.44
631.76	42630.52
631.91	42506.47
632.06	42607.11
632.21	42674.99
632.36	43164.16
632.51	42469.02
632.66	42693.71
632.81	42288.80
632.96	42234.97
633.10	42033.68
633.25	42171.77
633.40	42190.50
633.55	42330.93
633.70	42178.79
633.85	42106.24
634.00	42160.07
634.15	42211.56
634.30	42223.26
634.45	42050.06
634.60	41940.06
634.75	42548.60
634.90	41893.25
635.05	41972.83
635.19	41518.76
635.34	42178.79
635.49	42162.41
635.64	41778.56
635.79	41755.16
635.94	41874.52
636.09	41408.76
636.24	41717.71
636.39	41263.64
636.53	41661.54
636.68	41467.27
636.83	41371.31
636.98	41617.07
637.13	41322.16
637.28	41186.41
637.43	41619.41
637.57	41558.55
637.72	41572.60
637.87	41949.42
638.02	41537.49
638.17	41530.47
638.32	41394.71
638.46	41436.84
638.61	41441.53
638.76	40964.06
638.91	41097.47
639.06	40999.16
639.20	41345.56
639.35	41207.47
639.50	41359.61
639.65	41546.85
639.80	40905.54
639.94	41216.83
640.09	41048.32
640.24	40952.35
640.39	41273.01
640.54	41380.67
640.68	40844.69
640.83	40837.67
640.98	40872.78
641.13	40591.91
641.27	41160.66
641.42	40800.22
641.57	41078.74
641.72	40921.93
641.86	40755.75
642.01	40404.67
642.16	40980.44
642.31	40610.64
642.45	40383.60
642.60	40514.67
642.75	40563.82
642.90	40278.28
643.04	40720.64
643.19	40320.41
643.34	40453.82
643.48	40636.38
643.63	40584.89
643.78	40769.79
643.93	40554.46
644.07	40458.50
644.22	40278.28
644.37	40449.14
644.51	40093.38
644.66	40545.10
644.81	39976.35
644.95	40535.74
645.10	40121.46
645.25	40402.33
645.39	40367.22
645.54	40357.86
645.69	39950.60
645.83	39789.11
645.98	40161.25
646.13	39983.37
646.27	39665.06
646.42	39903.79
646.57	40137.85
646.71	40084.01
646.86	40121.46
647.00	39721.23
647.15	40243.17
647.30	39611.23
647.44	39861.66
647.59	39606.55
647.74	39966.99
647.88	39445.05
648.03	39608.89
648.17	39431.01
648.32	39662.72
648.47	39819.53
648.61	39302.28
648.76	39660.38
648.90	39262.49
649.05	39742.30
649.20	40112.10
649.34	39730.59
649.49	39665.06
649.63	39337.38
649.78	39189.93
649.92	39225.04
650.07	39667.40
650.21	39585.48
650.36	39700.17
650.51	39082.27
650.65	39456.75
650.80	39463.77
650.94	39051.84
651.09	39229.72
651.23	39510.58
651.38	39115.03
651.52	38766.29
651.67	38855.23
651.81	38951.20
651.96	38969.92
652.10	39292.91
652.25	38745.23
652.39	38593.09
652.54	38955.88
652.68	39026.09
652.83	39089.29
652.97	39089.29
653.12	38452.66
653.26	38508.83
653.41	38904.38
653.55	38192.86
653.70	38623.52
653.84	38675.01
653.99	39225.04
654.13	38857.57
654.27	39105.67
654.42	38380.10
654.56	38726.50
654.71	38607.14
654.85	38387.13
655.00	38099.24
655.14	38272.44
655.29	38000.94
655.43	38391.81
655.57	38143.71
655.72	38469.04
655.86	38300.53
656.01	37507.08
656.15	37848.80
656.30	37570.28
656.44	37111.53
656.58	37804.33
656.73	37951.79
656.87	37928.38
657.01	38005.62
657.16	37816.04
657.30	37794.97
657.45	37649.86
657.59	37500.06
657.73	37305.80
657.88	37734.12
658.02	37916.68
658.16	37198.13
658.31	37951.79
658.45	38024.34
658.60	37715.39
658.74	37565.60
658.88	37670.92
659.03	37544.53
659.17	37504.74
659.31	37361.97
659.46	37186.43
659.60	37319.84
659.74	37420.48
659.89	36767.48
660.03	37223.88
660.17	36877.48
660.32	36938.33
660.46	37179.41
660.60	37408.78
660.74	37081.11
660.89	37127.92
661.03	36425.76
661.17	36804.92
661.32	36533.42
661.46	37057.70
661.60	36418.74
661.74	36687.90
661.89	36584.91
662.03	36741.73
662.17	36472.57
662.31	36247.88
662.46	37123.24
662.60	36957.06
662.74	36130.85
662.88	36872.80
663.03	36758.11
663.17	36212.77
663.31	35725.94
663.45	35847.64
663.60	35861.69
663.74	35695.51
663.88	35681.47
664.02	35854.67
664.17	36123.83
664.31	35260.17
664.45	35374.86
664.59	35271.87
664.73	35931.90
664.88	36130.85
665.02	35459.12
665.16	35393.58
665.30	35639.34
665.44	35384.22
665.59	35168.89
665.73	35026.12
665.87	35189.95
666.01	34930.16
666.15	35192.30
666.29	35435.71
666.44	35393.58
666.58	35068.25
666.72	35089.31
666.86	35124.42
667.00	34995.69
667.14	34890.37
667.28	34815.47
667.43	34270.12
667.57	34841.21
667.71	34263.10
667.85	34782.70
667.99	34235.02
668.13	34541.63
668.27	34328.64
668.41	34295.87
668.56	33907.34
668.70	34309.91
668.84	34270.12
668.98	34380.13
669.12	34527.58
669.26	34068.84
669.40	34047.77
669.54	34515.88
669.68	34384.81
669.82	33879.25
669.96	33619.46
670.10	33579.67
670.25	34101.61
670.39	33354.97
670.53	33500.09
670.67	33729.46
670.81	33935.43
670.95	33439.23
671.09	33579.67
671.23	33434.55
671.37	33263.69
671.51	33202.84
671.65	32905.59
671.79	32526.42
671.93	32964.10
672.07	33022.62
672.21	32692.60
672.35	32814.31
672.49	32552.17
672.63	32568.55
672.77	32528.77
672.91	32355.57
673.05	32226.84
673.19	32423.44
673.33	32250.24
673.47	32603.66
673.61	32219.81
673.75	31875.76
673.89	31379.56
674.03	31440.42
674.17	31686.17
674.31	32048.96
674.45	31777.45
674.59	31714.26
674.73	31548.08
674.87	31587.87
675.01	31580.85
675.15	31541.06
675.29	31297.64
675.43	31576.17
675.56	31267.22
675.70	31721.28
675.84	31187.64
675.98	30251.42
676.12	30899.75
676.26	30974.65
676.40	30654.00
676.54	30738.26
676.68	30658.68
676.82	30029.07
676.96	30164.82
677.10	29567.99
677.23	30221.00
677.37	30323.98
677.51	30047.80
677.65	30239.72
677.79	29450.96
677.93	30059.50
678.07	29848.85
678.21	29214.57
678.34	29722.46
678.48	29329.25
678.62	29362.02
678.76	29355.00
678.90	29097.54
679.04	29081.16
679.18	29202.86
679.31	28819.02
679.45	28575.60
679.59	28383.68
679.73	28514.75
679.87	28048.98
680.00	28308.78
680.14	28470.28
680.28	28318.14
680.42	28123.88
680.56	28023.23
680.70	27882.80
680.83	28046.64
680.97	28105.15
681.11	27632.36
681.25	27674.49
681.39	27438.10
681.52	27861.74
681.66	27405.33
681.80	27454.48
681.94	27084.68
682.07	27054.25
682.21	26789.77
682.35	27164.26
682.49	26745.30
682.62	26761.69
682.76	26686.79
682.90	26581.46
683.04	26377.84
683.17	26679.77
683.31	26342.73
683.45	26527.63
683.59	26089.95
683.72	25504.82
683.86	25839.51
684.00	25809.09
684.13	26029.10
684.27	25902.71
684.41	25560.99
684.55	25345.66
684.68	25813.77
684.82	25270.76
684.96	25593.76
685.09	25240.34
685.23	25158.42
685.37	24713.72
685.50	25259.06
685.64	25303.53
685.78	24746.48
685.91	24596.69
686.05	24449.24
686.19	24189.44
686.32	24329.87
686.46	24243.27
686.60	24030.28
686.73	24166.03
686.87	23672.18
687.01	23583.24
687.14	23569.19
687.28	23522.38
687.42	23508.34
687.55	23580.90
687.69	23304.71
687.82	23578.56
687.96	23103.43
688.10	23002.78
688.23	23321.10
688.37	22970.02
688.50	22801.50
688.64	23061.30
688.78	22995.76
688.91	22670.43
689.05	22518.29
689.18	22541.70
689.32	22305.31
689.46	22464.46
689.59	22434.03
689.73	22403.61
689.86	22218.71
690.00	22150.83
690.13	22340.41
690.27	21605.49
690.41	22045.51
690.54	21841.88
690.68	21348.03
690.81	21383.13
690.95	21401.86
691.08	21315.26
691.22	21392.50
691.35	21268.45
691.49	21652.30
691.62	21453.35
691.76	21308.24
691.89	21111.63
692.03	21034.39
692.16	20854.17
692.30	20585.01
692.43	20959.50
692.57	20421.17
692.70	20411.81
692.84	20620.12
692.97	20233.93
693.11	20098.18
693.24	20245.63
693.38	20341.60
693.51	19665.18
693.65	20107.54
693.78	20144.99
693.92	20219.89
694.05	19421.77
694.19	19765.82
694.32	19632.41
694.45	19515.39
694.59	19239.20
694.72	19159.63
694.86	19363.25
694.99	19328.14
695.13	19126.86
695.26	18960.68
695.39	18810.89
695.53	18946.64
695.66	18874.08
695.80	18689.18
695.93	18394.27
696.07	18405.97
696.20	18637.69
696.33	18246.82
696.47	18462.15
696.60	18197.67
696.73	17930.84
696.87	18242.14
697.00	18057.23
697.14	18045.53
697.27	18113.41
697.40	17816.16
697.54	17666.36
697.67	17415.93
697.80	17710.83
697.94	17767.01
698.07	17308.26
698.21	17123.36
698.34	17415.93
698.47	17439.33
698.61	16940.80
698.74	17006.33
698.87	16952.50
699.01	16690.36
699.14	16898.67
699.27	16788.66
699.40	16783.98
699.54	16484.39
699.67	16332.26
699.80	16184.80
699.94	16386.09
700.07	16320.56
700.20	16152.04
700.34	16201.19
700.47	16266.72
700.60	16414.18
700.73	16369.71
700.87	15971.82
701.00	15976.50
701.13	15602.01
701.26	15985.86
701.40	15648.82
701.53	15407.75
701.66	15447.54
701.79	15419.45
701.93	15218.16
702.06	15192.42
702.19	15232.21
702.32	15044.96
702.46	15161.99
702.59	15220.50
702.72	14944.32
702.85	14998.15
702.99	15243.91
703.12	14902.19
703.25	14890.49
703.38	14700.90
703.51	14609.62
703.65	14939.64
703.78	14649.41
703.91	14520.68
704.04	14611.96
704.17	14406.00
704.31	14420.04
704.44	14029.17
704.57	13968.32
704.70	13970.66
704.83	14054.92
704.96	13783.41
705.10	14200.03
705.23	13886.40
>>>>>End Processed Spectral Data<<<<<
