SpectraSuite Data File
++++++++++++++++++++++++++++++++++++
Date: Fri Oct 25 10:48:11 EDT 2013
User: price-jones
Dark Spectrum Present: No
Reference Spectrum Present: No
Number of Sampled Component Spectra: 1
Spectrometers: USB2+H05261
Integration Time (usec): 100000 (USB2+H05261)
Spectra Averaged: 1 (USB2+H05261)
Boxcar Smoothing: 0 (USB2+H05261)
Correct for Electrical Dark: No (USB2+H05261)
Strobe/Lamp Enabled: No (USB2+H05261)
Correct for Detector Non-linearity: No (USB2+H05261)
Correct for Stray Light: No (USB2+H05261)
Number of Pixels in Processed Spectrum: 2048
>>>>>Begin Processed Spectral Data<<<<<
365.73	149.79
365.92	149.79
366.12	149.79
366.32	58.51
366.52	44.47
366.72	102.98
366.91	25.75
367.11	23.41
367.31	88.94
367.51	11.70
367.70	0.00
367.90	100.64
368.10	53.83
368.30	58.51
368.49	42.13
368.69	77.24
368.89	74.90
369.09	56.17
369.28	112.35
369.48	70.22
369.68	105.32
369.87	84.26
370.07	60.85
370.27	110.01
370.47	196.60
370.66	404.91
370.86	407.25
371.06	444.70
371.25	465.77
371.45	414.27
371.65	514.92
371.84	451.72
372.04	461.09
372.24	472.79
372.44	454.06
372.63	461.09
372.83	519.60
373.03	430.66
373.22	535.98
373.42	500.87
373.62	493.85
373.81	493.85
374.01	571.09
374.21	512.58
374.40	479.81
374.60	564.07
374.79	561.73
374.99	592.16
375.19	615.56
375.38	613.22
375.58	500.87
375.78	704.50
375.97	608.54
376.17	564.07
376.37	599.18
376.56	608.54
376.76	653.01
376.95	638.97
377.15	575.77
377.35	624.92
377.54	601.52
377.74	650.67
377.93	660.03
378.13	514.92
378.33	610.88
378.52	582.79
378.72	643.65
378.91	599.18
379.11	669.39
379.31	589.82
379.50	601.52
379.70	580.45
379.89	664.71
380.09	681.10
380.28	683.44
380.48	660.03
380.68	645.99
380.87	638.97
381.07	685.78
381.26	702.16
381.46	683.44
381.65	671.73
381.85	755.99
382.04	690.46
382.24	748.97
382.43	676.41
382.63	702.16
382.83	798.12
383.02	713.86
383.22	791.10
383.41	699.82
383.61	657.69
383.80	657.69
384.00	779.40
384.19	791.10
384.39	767.70
384.58	788.76
384.78	748.97
384.97	737.27
385.17	751.31
385.36	770.04
385.56	763.01
385.75	748.97
385.95	788.76
386.14	791.10
386.34	770.04
386.53	840.25
386.72	786.42
386.92	795.78
387.11	971.32
387.31	826.21
387.50	816.85
387.70	856.64
387.89	688.12
388.09	842.59
388.28	837.91
388.48	765.36
388.67	870.68
388.86	875.36
389.06	819.19
389.25	887.06
389.45	912.81
389.64	847.27
389.84	924.51
390.03	915.15
390.22	931.53
390.42	882.38
390.61	938.55
390.81	1046.22
391.00	931.53
391.19	1074.31
391.39	959.62
391.58	1076.65
391.78	971.32
391.97	1025.15
392.16	954.94
392.36	1013.45
392.55	1060.26
392.75	926.85
392.94	954.94
393.13	992.39
393.33	1032.18
393.52	929.19
393.71	1055.58
393.91	1027.50
394.10	1015.79
394.29	1034.52
394.49	1083.67
394.68	1046.22
394.88	1121.12
395.07	1160.91
395.26	1088.35
395.46	1130.48
395.65	1128.14
395.84	1132.82
396.04	1203.04
396.23	1114.10
396.42	1102.39
396.62	1184.31
396.81	1198.35
397.00	1193.67
397.19	1135.16
397.39	1212.40
397.58	1212.40
397.77	1240.48
397.97	1224.10
398.16	1310.70
398.35	1376.24
398.55	1245.16
398.74	1306.02
398.93	1341.13
399.12	1252.19
399.32	1341.13
399.51	1343.47
399.70	1411.34
399.90	1385.60
400.09	1448.79
400.28	1413.68
400.47	1348.15
400.67	1439.43
400.86	1523.69
401.05	1434.75
401.24	1519.01
401.44	1572.84
401.63	1423.05
401.82	1425.39
402.01	1373.89
402.21	1488.58
402.40	1448.79
402.59	1413.68
402.78	1535.39
402.97	1565.82
403.17	1593.90
403.36	1633.69
403.55	1645.40
403.74	1645.40
403.93	1547.09
404.13	1526.03
404.32	1629.01
404.51	1680.50
404.70	1678.16
404.89	1645.40
405.09	1743.70
405.28	1647.74
405.47	1757.74
405.66	1717.95
405.85	1671.14
406.05	1774.13
406.24	1795.19
406.43	1797.53
406.62	1863.07
406.81	1893.49
407.00	1788.17
407.20	1827.96
407.39	1750.72
407.58	1792.85
407.77	1907.54
407.96	1921.58
408.15	1919.24
408.34	1937.96
408.54	1921.58
408.73	1905.20
408.92	2036.27
409.11	2045.63
409.30	2047.97
409.49	1980.09
409.68	2083.08
409.87	1987.11
410.07	2066.69
410.26	2036.27
410.45	2099.46
410.64	2293.72
410.83	2209.47
411.02	2263.30
411.21	2223.51
411.40	2188.40
411.59	2204.78
411.78	2307.77
411.98	2286.70
412.17	2340.54
412.36	2345.22
412.55	2408.41
412.74	2326.49
412.93	2399.05
413.12	2298.41
413.31	2605.02
413.50	2569.91
413.69	2511.39
413.88	2513.74
414.07	2541.82
414.26	2635.44
414.45	2621.40
414.64	2637.78
414.83	2619.06
415.02	2644.81
415.22	2715.02
415.41	2808.64
415.60	2771.19
415.79	2787.58
415.98	2825.03
416.17	2862.48
416.36	2869.50
416.55	2883.54
416.74	2909.29
416.93	2825.03
417.12	2825.03
417.31	2932.69
417.50	3033.33
417.69	3084.83
417.88	3094.19
418.07	3023.97
418.26	3061.42
418.45	3052.06
418.64	3241.64
418.83	3190.15
419.02	3143.34
419.21	3141.00
419.39	3314.20
419.58	3133.98
419.77	3101.21
419.96	3227.60
420.15	3265.05
420.34	3269.73
420.53	3229.94
420.72	3363.35
420.91	3358.67
421.10	3435.91
421.29	3370.37
421.48	3300.16
421.67	3517.83
421.86	3391.44
422.05	3316.54
422.24	3375.05
422.43	3438.25
422.61	3353.99
422.80	3382.07
422.99	3487.40
423.18	3449.95
423.37	3503.78
423.56	3693.37
423.75	3492.08
423.94	3506.12
424.13	3325.90
424.32	3342.28
424.50	3520.17
424.69	3499.10
424.88	3592.72
425.07	3588.04
425.26	3412.50
425.45	3536.55
425.64	3365.69
425.83	3609.11
426.01	3618.47
426.20	3499.10
426.39	3566.98
426.58	3644.21
426.77	3527.19
426.96	3494.42
427.15	3590.38
427.33	3592.72
427.52	3583.36
427.71	3756.56
427.90	3644.21
428.09	3758.90
428.28	3815.07
428.46	3751.88
428.65	3817.41
428.84	3885.29
429.03	3836.14
429.22	3726.13
429.40	3857.20
429.59	3904.01
429.78	3646.55
429.97	3569.32
430.16	3726.13
430.34	3641.87
430.53	3826.78
430.72	3852.52
430.91	3747.20
431.10	3911.04
431.28	4205.94
431.47	4095.94
431.66	4159.13
431.85	4056.15
432.03	4182.54
432.22	4257.43
432.41	4227.01
432.60	4124.02
432.79	4105.30
432.97	4219.99
433.16	4222.33
433.35	4210.62
433.54	4285.52
433.72	4259.78
433.91	4269.14
434.10	4393.19
434.28	4301.90
434.47	4250.41
434.66	4475.10
434.85	4255.09
435.03	4435.32
435.22	4489.15
435.41	4552.34
435.59	4461.06
435.78	4538.30
435.97	4568.73
436.16	4589.79
436.34	4573.41
436.53	4601.49
436.72	4772.35
436.90	4596.81
437.09	4652.98
437.28	4601.49
437.46	4568.73
437.65	4676.39
437.84	4788.74
438.02	4554.68
438.21	4732.56
438.40	4779.37
438.58	4896.40
438.77	4856.61
438.96	4959.60
439.14	5085.98
439.33	4821.50
439.52	5107.05
439.70	4954.91
439.89	5247.48
440.08	5191.31
440.26	5034.49
440.45	5069.60
440.63	5048.54
440.82	5439.40
441.01	5350.46
441.19	5441.75
441.38	5437.06
441.57	5397.28
441.75	5315.36
441.94	5614.95
442.12	5600.90
442.31	5671.12
442.50	5614.95
442.68	5589.20
442.87	5607.92
443.05	5605.58
443.24	5547.07
443.43	5738.99
443.61	5830.27
443.80	5921.56
443.98	5544.73
444.17	5425.36
444.35	5926.24
444.54	5792.83
444.73	5764.74
444.91	5785.80
445.10	5628.99
445.28	5724.95
445.47	5699.20
445.65	5652.39
445.84	5797.51
446.02	6010.50
446.21	5902.83
446.39	5736.65
446.58	6036.24
446.77	5912.19
446.95	5830.27
447.14	5900.49
447.32	6015.18
447.51	5951.98
447.69	5877.09
447.88	5944.96
448.06	5841.98
448.25	6078.37
448.43	5949.64
448.62	6146.25
448.80	5963.68
448.99	5959.00
449.17	6115.82
449.36	6218.80
449.54	6094.76
449.73	6209.44
449.91	6347.53
450.10	6253.91
450.28	6352.21
450.46	6368.60
450.65	6335.83
450.83	6349.87
451.02	6296.04
451.20	6368.60
451.39	6279.66
451.57	6375.62
451.76	6403.71
451.94	6324.13
452.13	6464.56
452.31	6387.32
452.49	6333.49
452.68	6485.62
452.86	6464.56
453.05	6525.41
453.23	6487.96
453.42	6380.30
453.60	6539.46
453.78	6581.59
453.97	6384.98
454.15	6651.80
454.34	6691.59
454.52	6693.93
454.70	6705.63
454.89	6869.47
455.07	6808.62
455.26	6745.42
455.44	6942.03
455.62	6766.49
455.81	6979.48
455.99	6986.50
456.17	6801.60
456.36	7023.95
456.54	6867.13
456.73	7012.24
456.91	7375.03
457.09	7288.43
457.28	7323.54
457.46	7204.17
457.64	7192.47
457.83	7288.43
458.01	7180.76
458.19	7307.15
458.38	7159.70
458.56	7417.16
458.74	7253.32
458.93	7302.47
459.11	7332.90
459.29	7302.47
459.48	7463.97
459.66	7449.93
459.84	7428.86
460.03	7721.43
460.21	7595.04
460.39	7665.25
460.57	7562.27
460.76	7592.70
460.94	7983.57
461.12	7742.49
461.31	7662.91
461.49	7861.86
461.67	7859.52
461.85	7796.32
462.04	7784.62
462.22	8156.77
462.40	8016.33
462.59	7875.90
462.77	7903.99
462.95	8086.55
463.13	8154.43
463.32	8124.00
463.50	8063.15
463.68	8002.29
463.86	8140.38
464.05	8180.17
464.23	8145.06
464.41	8269.11
464.59	8182.51
464.78	8393.16
464.96	8168.47
465.14	8243.37
465.32	8175.49
465.50	8236.35
465.69	8215.28
465.87	8168.47
466.05	8273.79
466.23	8393.16
466.41	8189.53
466.60	8505.51
466.78	8210.60
466.96	8313.58
467.14	8388.48
467.32	8549.98
467.51	8575.72
467.69	8451.67
467.87	8568.70
468.05	8510.19
468.23	8327.63
468.41	8367.42
468.60	8456.36
468.78	8720.84
468.96	8542.96
469.14	8744.24
469.32	8964.25
469.50	8557.00
469.69	9137.45
469.87	8968.93
470.05	8926.80
470.23	8896.38
470.41	8674.03
470.59	9041.49
470.77	9151.49
470.95	9104.68
471.14	9219.37
471.32	9078.94
471.50	9121.07
471.68	9277.88
471.86	9219.37
472.04	9343.42
472.22	9444.06
472.40	9366.82
472.58	9303.63
472.77	9156.18
472.95	9465.13
473.13	9778.76
473.31	9558.75
473.49	9514.28
473.67	9451.08
473.85	9699.18
474.03	9666.41
474.21	9767.06
474.39	10005.79
474.57	9958.98
474.75	9980.04
474.93	9863.02
475.12	9996.43
475.30	10139.20
475.48	10188.35
475.66	10209.42
475.84	10008.13
476.02	10485.60
476.20	10265.59
476.38	10483.26
476.56	10885.83
476.74	10729.02
476.92	10721.99
477.10	10513.69
477.28	10867.11
477.46	10881.15
477.64	11030.94
477.82	10967.75
478.00	11445.22
478.18	11358.62
478.36	11262.66
478.54	11435.86
478.72	11587.99
478.90	11700.34
479.08	11763.53
479.26	12074.82
479.44	11819.71
479.62	11969.50
479.80	11920.35
479.98	12369.73
480.16	12318.24
480.34	12343.99
480.52	12304.20
480.70	12496.12
480.88	12353.35
481.06	12482.08
481.24	12690.38
481.41	13018.06
481.59	12999.34
481.77	13039.12
481.95	12987.63
482.13	13043.81
482.31	13083.59
482.49	13577.45
482.67	13373.82
482.85	13490.85
483.03	13678.09
483.21	13666.39
483.39	13832.57
483.57	14003.43
483.74	13935.55
483.92	14207.05
484.10	14047.90
484.28	14181.31
484.46	14593.24
484.64	14890.49
484.82	14747.72
485.00	14831.97
485.18	15033.26
485.35	15126.88
485.53	14841.34
485.71	14939.64
485.89	15337.53
486.07	15108.16
486.25	15513.07
486.43	15482.64
486.61	15426.47
486.78	15749.46
486.96	16009.26
487.14	16219.91
487.32	16233.96
487.50	16329.92
487.68	16552.27
487.85	16566.31
488.03	16814.41
488.21	17167.83
488.39	16933.78
488.57	17181.87
488.75	16863.56
488.92	17174.85
489.10	17706.15
489.28	17699.13
489.46	18064.25
489.64	18059.57
489.81	18429.38
489.99	18317.03
490.17	18349.80
490.35	18710.24
490.53	18368.52
490.70	18696.20
490.88	18609.60
491.06	19026.21
491.24	18972.38
491.41	18750.03
491.59	19243.88
491.77	18998.13
491.95	19440.49
492.13	19658.16
492.30	19681.56
492.48	19747.10
492.66	19857.10
492.84	19826.68
493.01	20128.61
493.19	20105.20
493.37	20355.64
493.54	20521.82
493.72	20528.84
493.90	20320.53
494.08	20954.82
494.25	21172.49
494.43	21092.91
494.61	21523.57
494.79	21219.30
494.96	21305.90
495.14	21689.74
495.32	21575.06
495.49	21561.02
495.67	21848.90
495.85	21617.19
496.02	22218.71
496.20	22153.17
496.38	22279.56
496.55	22450.42
496.73	23019.17
496.91	22632.98
497.09	22768.73
497.26	22747.67
497.44	22904.48
497.62	23278.97
497.79	23349.18
497.97	23211.09
498.14	23665.16
498.32	23573.88
498.50	23564.51
498.67	23861.76
498.85	23978.79
499.03	24144.97
499.20	24212.84
499.38	24283.06
499.56	24177.73
499.73	24346.25
499.91	24161.35
500.08	24760.53
500.26	24233.91
500.44	24573.28
500.61	24809.68
500.79	24650.52
500.97	24790.95
501.14	24978.20
501.32	24992.24
501.49	25029.69
501.67	24961.81
501.84	25127.99
502.02	25216.93
502.20	25532.90
502.37	25755.26
502.55	25404.17
502.72	25476.73
502.90	25743.55
503.07	25820.79
503.25	26288.90
503.43	25947.18
503.60	26195.28
503.78	26295.92
503.95	25928.45
504.13	26501.89
504.30	26698.49
504.48	26258.47
504.65	26878.71
504.83	26785.09
505.01	26923.18
505.18	26780.41
505.36	27218.09
505.53	26796.79
505.71	27318.73
505.88	27356.18
506.06	27239.15
506.23	27515.34
506.41	26967.65
506.58	27449.80
506.76	27386.61
506.93	28037.28
507.11	27929.61
507.28	27922.59
507.46	27838.33
507.63	28259.63
507.81	28063.02
507.98	27761.09
508.16	28030.26
508.33	28140.26
508.50	28512.41
508.68	28528.79
508.85	28772.21
509.03	28416.44
509.20	28599.01
509.38	29240.31
509.55	29102.22
509.73	29385.43
509.90	28884.55
510.08	28994.56
510.25	29067.11
510.42	29202.86
510.60	29514.16
510.77	29804.38
510.95	29642.88
511.12	29869.92
511.30	29563.31
511.47	29979.92
511.64	30108.65
511.82	30211.64
511.99	29893.32
512.17	30345.05
512.34	30125.04
512.51	30036.09
512.69	30478.46
512.86	29944.81
513.04	30450.37
513.21	30448.03
513.38	30703.15
513.56	30597.82
513.73	30457.39
513.90	30525.27
514.08	30450.37
514.25	30937.20
514.43	31051.89
514.60	30773.36
514.77	31019.12
514.95	31201.68
515.12	31072.95
515.29	31262.54
515.47	31798.52
515.64	31868.73
515.81	31292.96
515.99	31400.63
516.16	31519.99
516.33	31494.25
516.51	31782.13
516.68	31367.86
516.85	31936.61
517.03	32128.53
517.20	31737.66
517.37	31859.37
517.54	32254.92
517.72	32430.46
517.89	32334.50
518.06	31992.78
518.24	31899.16
518.41	32425.78
518.58	32002.14
518.75	32393.01
518.93	33003.89
519.10	32503.02
519.27	33043.68
519.45	32807.29
519.62	32858.78
519.79	32982.83
519.96	33340.93
520.14	33317.53
520.31	32919.63
520.48	33401.79
520.65	33165.39
520.83	33682.65
521.00	33752.87
521.17	33696.69
521.34	33759.89
521.52	33858.19
521.69	33853.51
521.86	34164.80
522.03	34237.36
522.20	34225.65
522.38	34183.52
522.55	34136.71
522.72	34113.31
522.89	33993.94
523.07	34253.74
523.24	34274.80
523.41	34455.03
523.58	34635.25
523.75	34820.15
523.92	34646.95
524.10	34705.46
524.27	34866.96
524.44	35105.70
524.61	35213.36
524.78	35150.17
524.96	34965.26
525.13	35447.41
525.30	35456.78
525.47	35140.80
525.64	35229.74
525.81	35405.28
525.98	35594.87
526.16	35276.55
526.33	35243.79
526.50	35332.73
526.67	35243.79
526.84	35637.00
527.01	35426.35
527.18	35295.28
527.36	35821.90
527.53	35995.10
527.70	36580.23
527.87	36205.75
528.04	36105.10
528.21	35957.65
528.38	35796.15
528.55	36582.57
528.72	36177.66
528.89	36531.08
529.07	36339.16
529.24	36418.74
529.41	36362.56
529.58	36465.55
529.75	36297.03
529.92	36484.27
530.09	36282.98
530.26	36776.84
530.43	36823.65
530.60	36524.06
530.77	36566.19
530.94	37041.32
531.11	36973.44
531.28	37350.27
531.46	36950.04
531.63	36989.83
531.80	37233.24
531.97	37270.69
532.14	37516.45
532.31	37053.02
532.48	37338.57
532.65	37708.37
532.82	37258.99
532.99	37867.53
533.16	37116.22
533.33	37661.56
533.50	37617.09
533.67	37958.81
533.84	37713.05
534.01	37673.26
534.18	37834.76
534.35	38281.80
534.52	37923.70
534.69	37699.01
534.86	37930.72
535.03	37935.40
535.20	37954.13
535.37	38888.00
535.54	38888.00
535.71	37897.95
535.88	38361.38
536.05	38597.77
536.22	38562.67
536.38	38733.53
536.55	38546.28
536.72	38242.01
536.89	38436.28
537.06	38789.70
537.23	38859.91
537.40	38422.23
537.57	38993.32
537.74	38693.74
537.91	39285.89
538.08	38506.49
538.25	38829.49
538.42	38717.14
538.59	38962.90
538.75	39056.52
538.92	39065.88
539.09	39044.82
539.26	39356.11
539.43	39047.16
539.60	39351.43
539.77	38775.66
539.94	39473.13
540.11	38836.51
540.28	39526.97
540.44	39414.62
540.61	39325.68
540.78	39117.37
540.95	39157.16
541.12	39407.60
541.29	39634.63
541.46	39342.06
541.62	39522.29
541.79	40088.70
541.96	39590.16
542.13	39739.96
542.30	39578.46
542.47	40100.40
542.63	39648.68
542.80	40217.43
542.97	40671.49
543.14	40484.25
543.31	40299.34
543.48	40325.09
543.64	40694.89
543.81	40460.84
543.98	40257.21
544.15	40638.72
544.32	40465.52
544.48	40734.68
544.65	40825.96
544.82	40832.99
544.99	40559.14
545.16	40692.55
545.32	40318.07
545.49	41015.55
545.66	40985.12
545.83	41158.32
546.00	41242.58
546.16	40734.68
546.33	41006.19
546.50	40601.27
546.67	41158.32
546.83	40884.48
547.00	40940.65
547.17	41240.24
547.34	41130.23
547.50	41305.77
547.67	41106.83
547.84	41280.03
548.00	41916.65
548.17	41921.34
548.34	41537.49
548.51	41638.13
548.67	41614.72
548.84	41839.42
549.01	41514.08
549.18	41766.86
549.34	41886.23
549.51	41991.55
549.68	41607.70
549.84	41876.86
550.01	41617.07
550.18	41698.98
550.34	41467.27
550.51	41818.35
550.68	41839.42
550.84	41811.33
551.01	42241.99
551.18	41996.23
551.34	41890.91
551.51	41668.56
551.68	42263.05
551.84	42462.00
552.01	42057.09
552.18	42094.53
552.34	42014.96
552.51	42188.16
552.68	42403.49
552.84	42677.33
553.01	42878.61
553.18	42436.25
553.34	42705.41
553.51	41977.51
553.67	42611.79
553.84	42960.53
554.01	42581.37
554.17	42696.05
554.34	42857.55
554.51	43278.85
554.67	42939.47
554.84	42541.58
555.00	42724.14
555.17	42536.90
555.33	43056.50
555.50	42588.39
555.67	42775.63
555.83	43182.88
556.00	43005.00
556.16	43615.88
556.33	43054.15
556.50	42953.51
556.66	42656.26
556.83	42864.57
556.99	43634.61
557.16	43124.37
557.32	43234.38
557.49	43222.67
557.65	42766.27
557.82	42983.94
557.98	43215.65
558.15	43056.50
558.32	43208.63
558.48	43419.28
558.65	43021.39
558.81	43154.80
558.98	43360.76
559.14	43569.07
559.31	43143.09
559.47	43791.42
559.64	43957.60
559.80	43428.64
559.97	43337.36
560.13	43461.41
560.30	43093.94
560.46	43466.09
560.63	43686.10
560.79	43714.19
560.96	43510.56
561.12	43613.54
561.29	43398.21
561.45	43540.99
561.61	43662.69
561.78	43566.73
561.94	43718.87
562.11	43707.16
562.27	43758.66
562.44	43388.85
562.60	44041.86
562.77	43971.64
562.93	43716.53
563.10	44388.26
563.26	43863.98
563.42	44144.84
563.59	43611.20
563.75	43660.35
563.92	44030.16
564.08	44154.21
564.24	44245.49
564.41	44226.76
564.57	43674.40
564.74	43922.49
564.90	44079.31
565.07	43880.36
565.23	44128.46
565.39	44315.70
565.56	44296.98
565.72	44299.32
565.88	43913.13
566.05	44287.62
566.21	43941.22
566.38	43749.29
566.54	43922.49
566.70	44130.80
566.87	44491.24
567.03	43849.94
567.19	44411.67
567.36	44392.94
567.52	43824.19
567.68	44287.62
567.85	44069.95
568.01	44266.55
568.17	44486.56
568.34	43973.98
568.50	44165.91
568.66	43810.15
568.83	44662.10
568.99	43709.50
569.15	43913.13
569.32	43538.65
569.48	43871.00
569.64	44385.92
569.81	44168.25
569.97	44018.46
570.13	44107.40
570.30	44086.33
570.46	44048.88
570.62	43896.75
570.78	44205.70
570.95	44236.12
571.11	44744.02
571.27	44177.61
571.43	44287.62
571.60	44409.32
571.76	44191.65
571.92	43901.43
572.09	44341.45
572.25	43997.39
572.41	44039.52
572.57	43929.51
572.74	44830.62
572.90	44083.99
573.06	44870.41
573.22	44556.78
573.38	44519.33
573.55	44086.33
573.71	44425.71
573.87	44399.96
574.03	44360.17
574.20	44231.44
574.36	44142.50
574.52	44737.00
574.68	44549.76
574.84	44687.85
575.01	44598.91
575.17	44563.80
575.33	43976.33
575.49	44486.56
575.65	44753.38
575.82	44854.03
575.98	44509.97
576.14	44467.84
576.30	44575.50
576.46	44376.56
576.62	44463.16
576.79	44243.15
576.95	43775.04
577.11	44130.80
577.27	44378.90
577.43	44734.66
577.59	44245.49
577.75	44414.01
577.92	44217.40
578.08	44449.11
578.24	43885.04
578.40	44411.67
578.56	44561.46
578.72	44641.04
578.88	44528.69
579.04	44629.34
579.21	44397.62
579.37	44208.04
579.53	44348.47
579.69	44563.80
579.85	44201.02
580.01	44659.76
580.17	44428.05
580.33	44917.22
580.49	44975.73
580.65	44685.51
580.82	44769.77
580.98	44706.57
581.14	44341.45
581.30	44830.62
581.46	44519.33
581.62	44629.34
581.78	44451.45
581.94	44790.83
582.10	44608.27
582.26	44711.25
582.42	44718.28
582.58	44575.50
582.74	44460.82
582.90	45301.07
583.06	44751.04
583.22	44837.64
583.38	44704.23
583.54	44994.46
583.70	44870.41
583.86	44758.06
584.02	44172.93
584.18	44388.26
584.34	44697.21
584.50	44683.17
584.66	44435.07
584.82	44390.60
584.98	44540.39
585.14	44636.36
585.30	44804.88
585.46	44830.62
585.62	44636.36
585.78	44790.83
585.94	44030.16
586.10	44652.74
586.26	44762.75
586.42	44877.43
586.58	44924.24
586.74	44837.64
586.90	44170.59
587.06	44533.37
587.22	45034.25
587.38	44208.04
587.54	44842.32
587.70	44989.78
587.86	44875.09
588.02	44996.80
588.18	44928.92
588.34	45003.82
588.49	44296.98
588.65	45052.97
588.81	44189.31
588.97	44729.98
589.13	44458.48
589.29	44921.90
589.45	44788.49
589.61	44961.69
589.77	45277.66
589.93	44903.18
590.08	44982.76
590.24	45354.90
590.40	44947.65
590.56	45490.65
590.72	44954.67
590.88	44711.25
591.04	45038.93
591.20	44903.18
591.35	45125.53
591.51	45359.58
591.67	44896.16
591.83	45216.81
591.99	44486.56
592.15	44884.45
592.31	44903.18
592.46	45155.96
592.62	44910.20
592.78	45052.97
592.94	45436.82
593.10	44737.00
593.26	45001.48
593.41	44879.77
593.57	44732.32
593.73	45057.65
593.89	44823.60
594.05	44914.88
594.20	44779.13
594.36	45265.96
594.52	45261.28
594.68	45088.08
594.84	45184.04
594.99	45455.54
595.15	44912.54
595.31	45415.76
595.47	45027.23
595.62	45170.00
595.78	44872.75
595.94	45455.54
596.10	45057.65
596.25	44945.31
596.41	45504.70
596.57	44898.50
596.73	45324.47
596.88	44903.18
597.04	45296.39
597.20	45230.85
597.36	45270.64
597.51	45626.40
597.67	45263.62
597.83	45209.79
597.99	44924.24
598.14	44942.97
598.30	45230.85
598.46	45081.06
598.61	45406.39
598.77	45237.87
598.93	45237.87
599.09	44727.64
599.24	45500.01
599.40	45539.80
599.56	45343.20
599.71	45422.78
599.87	44942.97
600.03	45736.41
600.18	44900.84
600.34	44982.76
600.50	44982.76
600.65	45158.30
600.81	45408.73
600.97	45570.23
601.12	45490.65
601.28	45155.96
601.44	45249.58
601.59	44821.26
601.75	44924.24
601.91	44959.35
602.06	44844.66
602.22	45338.52
602.37	45113.83
602.53	44776.79
602.69	45656.83
602.84	45219.15
603.00	45450.86
603.16	45132.55
603.31	45319.79
603.47	45228.51
603.62	45268.30
603.78	45242.56
603.94	44856.37
604.09	45294.05
604.25	45450.86
604.40	44935.95
604.56	45020.20
604.71	45193.40
604.87	45041.27
605.03	45352.56
605.18	44676.15
605.34	44945.31
605.49	44814.24
605.65	45038.93
605.80	45198.09
605.96	45593.64
606.12	45518.74
606.27	45003.82
606.43	45240.21
606.58	45045.95
606.74	44837.64
606.89	44954.67
607.05	44823.60
607.20	45172.34
607.36	45146.59
607.51	45268.30
607.67	44811.90
607.82	44917.22
607.98	44884.45
608.13	45029.57
608.29	45165.32
608.44	44556.78
608.60	44694.87
608.75	44687.85
608.91	44598.91
609.06	44839.98
609.22	44715.93
609.37	44889.13
609.53	44952.33
609.68	44933.60
609.84	45041.27
609.99	44676.15
610.15	44690.19
610.30	45134.89
610.46	44631.68
610.61	44793.17
610.76	44697.21
610.92	44865.73
611.07	44727.64
611.23	44367.20
611.38	44725.30
611.54	44601.25
611.69	44404.64
611.84	44261.87
612.00	44657.42
612.15	44053.56
612.31	44657.42
612.46	44222.08
612.62	44619.97
612.77	44964.03
612.92	44666.78
613.08	44177.61
613.23	44673.81
613.39	44350.81
613.54	44128.46
613.69	44715.93
613.85	44615.29
614.00	44493.58
614.15	44392.94
614.31	44304.00
614.46	44734.66
614.62	44069.95
614.77	44079.31
614.92	44390.60
615.08	44488.90
615.23	44079.31
615.38	43875.68
615.54	44079.31
615.69	44004.41
615.84	43337.36
616.00	43922.49
616.15	43854.62
616.30	44121.44
616.46	43302.25
616.61	43693.12
616.76	44217.40
616.92	43508.22
617.07	43503.54
617.22	43688.44
617.37	43995.05
617.53	43789.08
617.68	43845.26
617.83	44362.51
617.99	44474.86
618.14	43669.72
618.29	43454.39
618.45	43405.23
618.60	44016.11
618.75	43732.91
618.90	43674.40
619.06	44046.54
619.21	43868.66
619.36	43573.75
619.51	43601.84
619.67	43688.44
619.82	43669.72
619.97	43903.77
620.12	43482.47
620.28	42579.03
620.43	43203.95
620.58	43440.34
620.73	43208.63
620.89	43159.48
621.04	43185.22
621.19	43367.79
621.34	43409.92
621.49	43115.01
621.65	42876.27
621.80	43477.79
621.95	43189.91
622.10	43012.02
622.25	42770.95
622.41	42478.38
622.56	42934.79
622.71	43302.25
622.86	43093.94
623.01	42742.86
623.16	43468.43
623.32	43065.86
623.47	43236.72
623.62	42913.72
623.77	42618.81
623.92	43063.52
624.07	42766.27
624.23	42614.13
624.38	42398.80
624.53	42553.28
624.68	43061.18
624.83	42733.50
624.98	42714.78
625.13	42373.06
625.29	42508.81
625.44	43164.16
625.59	42593.07
625.74	42375.40
625.89	42354.33
626.04	42232.63
626.19	42363.70
626.34	42550.94
626.49	41897.93
626.65	42356.67
626.80	42089.85
626.95	42403.49
627.10	42511.15
627.25	41773.88
627.40	41965.81
627.55	41858.14
627.70	41722.39
627.85	42230.29
628.00	42131.98
628.15	42808.40
628.30	41675.58
628.45	41944.74
628.60	41766.86
628.76	41970.49
628.91	41827.71
629.06	41942.40
629.21	41881.55
629.36	41340.88
629.51	41972.83
629.66	41017.89
629.81	41523.44
629.96	42096.88
630.11	41970.49
630.26	41717.71
630.41	41975.17
630.56	41771.54
630.71	41352.58
630.86	41434.50
631.01	40959.38
631.16	41638.13
631.31	40891.50
631.46	41305.77
631.61	41127.89
631.76	40985.12
631.91	41734.09
632.06	41170.02
632.21	41221.52
632.36	41546.85
632.51	41493.02
632.66	41083.42
632.81	41174.70
632.96	40994.48
633.10	40662.13
633.25	40842.35
633.40	41432.16
633.55	41240.24
633.70	40744.05
633.85	41195.77
634.00	40985.12
634.15	40954.69
634.30	40844.69
634.45	41071.72
634.60	40701.92
634.75	40636.38
634.90	40730.00
635.05	40669.15
635.19	41078.74
635.34	40999.16
635.49	40713.62
635.64	40858.73
635.79	40692.55
635.94	40444.46
636.09	40851.71
636.24	40655.11
636.39	40205.72
636.53	40327.43
636.68	40376.58
636.83	39983.37
636.98	40835.33
637.13	40172.96
637.28	40603.61
637.43	40744.05
637.57	40519.35
637.72	40596.59
637.87	41078.74
638.02	40222.11
638.17	40292.32
638.32	40027.84
638.46	40215.08
638.61	40355.52
638.76	39842.94
638.91	40357.86
639.06	40102.74
639.20	40297.00
639.35	40088.70
639.50	40091.04
639.65	40652.76
639.80	40069.97
639.94	39868.69
640.09	39821.87
640.24	39772.72
640.39	39711.87
640.54	39695.49
640.68	39789.11
640.83	39798.47
640.98	39962.31
641.13	39578.46
641.27	39985.71
641.42	39941.24
641.57	40102.74
641.72	39299.94
641.86	39398.24
642.01	39587.82
642.16	39454.41
642.31	39133.76
642.45	39545.69
642.60	38920.77
642.75	38906.73
642.90	39112.69
643.04	39536.33
643.19	39264.83
643.34	39480.16
643.48	39409.94
643.63	39559.73
643.78	39173.55
643.93	39564.42
644.07	38958.22
644.22	39115.03
644.37	38909.07
644.51	38981.62
644.66	39559.73
644.81	39438.03
644.95	39363.13
645.10	39306.96
645.25	39138.44
645.39	39639.31
645.54	39063.54
645.69	39112.69
645.83	39147.80
645.98	39503.56
646.13	39007.37
646.27	38969.92
646.42	39171.21
646.57	39187.59
646.71	38939.49
646.86	38955.88
647.00	39208.65
647.15	38401.17
647.30	38876.30
647.44	38909.07
647.59	38918.43
647.74	38778.00
647.88	38394.15
648.03	38328.61
648.17	38476.07
648.32	38682.03
648.47	37986.89
648.61	38433.94
648.76	39194.61
648.90	38403.51
649.05	38670.33
649.20	38693.74
649.34	38845.87
649.49	38466.70
649.63	38438.62
649.78	38445.64
649.92	38546.28
650.07	38401.17
650.21	38099.24
650.36	37727.10
650.51	38333.29
650.65	38227.97
650.80	38817.78
650.94	38146.05
651.09	38246.69
651.23	37937.74
651.38	38127.33
651.52	37912.00
651.67	38356.70
651.81	38443.30
651.96	38038.39
652.10	38218.61
652.25	37888.59
652.39	37897.95
652.54	38277.12
652.68	38096.90
652.83	38038.39
652.97	37832.42
653.12	37570.28
653.26	37991.58
653.41	38087.54
653.55	37460.27
653.70	37455.59
653.84	37642.84
653.99	37930.72
654.13	37888.59
654.27	37420.48
654.42	37558.58
654.56	37628.79
654.71	37345.59
654.85	37542.19
655.00	37331.54
655.14	37368.99
655.29	36753.43
655.43	37263.67
655.57	37078.77
655.72	36725.35
655.86	37132.60
656.01	37219.20
656.15	36781.52
656.30	37310.48
656.44	36727.69
656.58	37467.30
656.73	37008.55
656.87	36804.92
657.01	36851.73
657.16	36940.68
657.30	36847.05
657.45	36392.99
657.59	36617.68
657.73	36617.68
657.88	36598.96
658.02	36603.64
658.16	36964.08
658.31	37446.23
658.45	37188.77
658.60	37050.68
658.74	36804.92
658.88	36868.12
659.03	36542.78
659.17	36292.35
659.31	36786.20
659.46	36147.23
659.60	36072.34
659.74	36257.24
659.89	35983.40
660.03	36329.80
660.17	36163.62
660.32	36217.45
660.46	36671.51
660.60	36425.76
660.74	36116.81
660.89	36084.04
661.03	35896.80
661.17	36065.31
661.32	35672.10
661.46	35709.55
661.60	35730.62
661.74	35702.53
661.89	35658.06
662.03	35899.14
662.17	35379.54
662.31	35913.18
662.46	35842.96
662.60	35585.50
662.74	35424.01
662.88	35634.66
663.03	35306.98
663.17	35384.22
663.31	34939.52
663.45	35590.19
663.60	35206.34
663.74	34960.58
663.88	34696.10
664.02	34714.83
664.17	34698.44
664.31	34801.43
664.45	34684.40
664.59	34998.03
664.73	35005.05
664.88	34941.86
665.02	34773.34
665.16	35196.98
665.30	34763.98
665.44	34771.00
665.59	33839.47
665.73	34487.79
665.87	34129.69
666.01	34515.88
666.15	33921.38
666.29	34408.22
666.44	34543.97
666.58	34216.29
666.72	33888.62
666.86	34546.31
667.00	34653.97
667.14	34024.37
667.28	34103.95
667.43	33619.46
667.57	33827.76
667.71	33553.92
667.85	33860.53
667.99	33326.89
668.13	33530.51
668.27	33631.16
668.41	33556.26
668.56	33198.16
668.70	33450.94
668.84	33097.52
668.98	33303.48
669.12	33008.58
669.26	33371.36
669.40	32985.17
669.54	33123.26
669.68	33216.88
669.82	32486.64
669.96	32987.51
670.10	32435.14
670.25	32999.21
670.39	32486.64
670.53	32479.61
670.67	32456.21
670.81	32776.86
670.95	32697.28
671.09	32512.38
671.23	32498.34
671.37	32549.83
671.51	32280.67
671.65	32556.85
671.79	32306.41
671.93	32095.77
672.07	31929.59
672.21	32109.81
672.35	32184.71
672.49	32055.98
672.63	32112.15
672.77	31697.88
672.91	31583.19
673.05	31875.76
673.19	31700.22
673.33	31309.35
673.47	31676.81
673.61	31365.52
673.75	31276.58
673.89	31171.25
674.03	30679.74
674.17	31077.63
674.31	30895.07
674.45	31185.30
674.59	31274.24
674.73	31157.21
674.87	30918.48
675.01	30815.49
675.15	31098.70
675.29	30637.61
675.43	30717.19
675.56	30897.41
675.70	30391.86
675.84	30787.41
675.98	29525.86
676.12	30174.19
676.26	30197.59
676.40	29738.85
676.54	30258.45
676.68	30204.61
676.82	29542.24
676.96	29572.67
677.10	29085.84
677.23	29294.14
677.37	29542.24
677.51	29301.17
677.65	29270.74
677.79	29085.84
677.93	29165.42
678.07	29158.39
678.21	29273.08
678.34	28549.85
678.48	28835.40
678.62	28755.82
678.76	28474.96
678.90	28332.18
679.04	28456.23
679.18	28364.95
679.31	28224.52
679.45	27985.79
679.59	27630.02
679.73	27894.50
679.87	27674.49
680.00	28058.34
680.14	27487.25
680.28	27735.35
680.42	27489.59
680.56	27318.73
680.70	27211.07
680.83	27318.73
680.97	26857.65
681.11	26775.73
681.25	26892.76
681.39	26916.16
681.52	27147.87
681.66	27187.66
681.80	26710.19
681.94	26632.96
682.07	26319.32
682.21	26590.83
682.35	26359.11
682.49	26005.69
682.62	26225.70
682.76	26134.42
682.90	26335.71
683.04	25869.94
683.17	25947.18
683.31	25872.28
683.45	25575.03
683.59	25799.73
683.72	25172.46
683.86	25345.66
684.00	25385.45
684.13	25535.24
684.27	25369.07
684.41	24957.13
684.55	25062.46
684.68	24879.89
684.82	24856.49
684.96	24748.82
685.09	24751.17
685.23	24379.02
685.37	24713.72
685.50	24453.92
685.64	24659.88
685.78	24233.91
685.91	24119.22
686.05	24004.53
686.19	23747.08
686.32	24180.07
686.46	23805.59
686.60	23419.40
686.73	23449.83
686.87	23330.46
687.01	23407.70
687.14	23250.88
687.28	23133.86
687.42	23262.58
687.55	22890.44
687.69	23087.04
687.82	22967.68
687.96	23260.24
688.10	22686.81
688.23	22544.04
688.37	22466.80
688.50	22204.66
688.64	22274.88
688.78	22291.26
688.91	21853.58
689.05	21944.86
689.18	21986.99
689.32	21853.58
689.46	22040.82
689.59	22270.20
689.73	22089.98
689.86	21914.44
690.00	21963.59
690.13	21874.65
690.27	21675.70
690.41	21811.45
690.54	21163.12
690.68	20950.14
690.81	20985.24
690.95	21301.22
691.08	20915.03
691.22	20900.98
691.35	20889.28
691.49	20957.16
691.62	20823.75
691.76	20479.69
691.89	20854.17
692.03	20592.03
692.16	20336.91
692.30	20369.68
692.43	20362.66
692.57	20196.48
692.70	20210.53
692.84	19985.83
692.97	20098.18
693.11	19604.33
693.24	19749.44
693.38	19754.12
693.51	19522.41
693.65	19482.62
693.78	19606.67
693.92	19374.95
694.05	19248.57
694.19	19325.80
694.32	18843.65
694.45	19150.26
694.59	19068.34
694.72	18867.06
694.86	18743.01
694.99	18586.19
695.13	18614.28
695.26	18038.51
695.39	18555.77
695.53	18616.62
695.66	18370.86
695.80	18349.80
695.93	18134.47
696.07	17909.78
696.20	18253.84
696.33	18211.71
696.47	17963.61
696.60	18017.44
696.73	17834.88
696.87	17830.20
697.00	17790.41
697.14	17607.85
697.27	17472.10
697.40	17514.23
697.54	17373.80
697.67	17326.99
697.80	17144.42
697.94	17146.76
698.07	17216.98
698.21	17179.53
698.34	17076.55
698.47	16692.70
698.61	16622.48
698.74	16353.32
698.87	16634.19
699.01	16627.17
699.14	16503.12
699.27	16395.45
699.40	16273.74
699.54	16084.16
699.67	16100.55
699.80	16053.73
699.94	15974.16
700.07	15908.62
700.20	15557.54
700.34	15742.44
700.47	15676.91
700.60	16016.29
700.73	15751.81
700.87	15480.30
701.00	15618.39
701.13	15407.75
701.26	15482.64
701.40	15332.85
701.53	15414.77
701.66	15187.74
701.79	15211.14
701.93	14937.30
702.06	14883.47
702.19	15101.14
702.32	15185.40
702.46	14710.27
702.59	14817.93
702.72	14721.97
702.85	14885.81
702.99	14537.07
703.12	14775.80
703.25	14635.37
703.38	14483.24
703.51	14239.82
703.65	14438.76
703.78	14345.14
703.91	14073.64
704.04	14321.74
704.17	14244.50
704.31	13923.85
704.44	13774.05
704.57	13827.88
704.70	13717.88
704.83	13626.60
704.96	13497.87
705.10	13591.49
705.23	13631.28
>>>>>End Processed Spectral Data<<<<<
