SpectraSuite Data File
++++++++++++++++++++++++++++++++++++
Date: Fri Oct 25 10:44:24 EDT 2013
User: price-jones
Dark Spectrum Present: No
Reference Spectrum Present: No
Number of Sampled Component Spectra: 1
Spectrometers: USB2+H05261
Integration Time (usec): 100000 (USB2+H05261)
Spectra Averaged: 1 (USB2+H05261)
Boxcar Smoothing: 0 (USB2+H05261)
Correct for Electrical Dark: No (USB2+H05261)
Strobe/Lamp Enabled: No (USB2+H05261)
Correct for Detector Non-linearity: No (USB2+H05261)
Correct for Stray Light: No (USB2+H05261)
Number of Pixels in Processed Spectrum: 2048
>>>>>Begin Processed Spectral Data<<<<<
365.73	95.96
365.92	95.96
366.12	95.96
366.32	49.15
366.52	21.06
366.72	42.13
366.91	84.26
367.11	51.49
367.31	25.75
367.51	42.13
367.70	42.13
367.90	35.11
368.10	37.45
368.30	39.79
368.49	77.24
368.69	95.96
368.89	42.13
369.09	0.00
369.28	77.24
369.48	25.75
369.68	65.54
369.87	77.24
370.07	88.94
370.27	100.64
370.47	217.67
370.66	400.23
370.86	458.74
371.06	559.39
371.25	479.81
371.45	379.17
371.65	507.90
371.84	519.60
372.04	512.58
372.24	463.43
372.44	535.98
372.63	519.60
372.83	505.56
373.03	484.49
373.22	535.98
373.42	442.36
373.62	512.58
373.81	517.26
374.01	554.71
374.21	580.45
374.40	571.09
374.60	610.88
374.79	547.69
374.99	571.09
375.19	545.34
375.38	610.88
375.58	557.05
375.78	599.18
375.97	608.54
376.17	655.35
376.37	681.10
376.56	695.14
376.76	631.94
376.95	601.52
377.15	587.47
377.35	601.52
377.54	638.97
377.74	711.52
377.93	674.07
378.13	657.69
378.33	645.99
378.52	688.12
378.72	730.25
378.91	662.37
379.11	664.71
379.31	685.78
379.50	711.52
379.70	753.65
379.89	739.61
380.09	681.10
380.28	645.99
380.48	711.52
380.68	718.54
380.87	685.78
381.07	713.86
381.26	734.93
381.46	730.25
381.65	704.50
381.85	697.48
382.04	674.07
382.24	688.12
382.43	699.82
382.63	669.39
382.83	692.80
383.02	699.82
383.22	720.88
383.41	746.63
383.61	856.64
383.80	851.96
384.00	816.85
384.19	802.80
384.39	887.06
384.58	765.36
384.78	896.43
384.97	858.98
385.17	751.31
385.36	828.55
385.56	774.72
385.75	807.48
385.95	896.43
386.14	884.72
386.34	875.36
386.53	910.47
386.72	901.11
386.92	851.96
387.11	854.30
387.31	954.94
387.50	915.15
387.70	929.19
387.89	884.72
388.09	933.87
388.28	793.44
388.48	985.37
388.67	1020.47
388.86	980.68
389.06	1008.77
389.25	973.66
389.45	1116.44
389.64	877.70
389.84	1144.52
390.03	1078.99
390.22	1053.24
390.42	992.39
390.61	1128.14
390.81	1090.69
391.00	1004.09
391.19	1097.71
391.39	1062.60
391.58	1153.88
391.78	1137.50
391.97	1111.75
392.16	1006.43
392.36	1076.65
392.55	1062.60
392.75	997.07
392.94	1102.39
393.13	1027.50
393.33	1156.22
393.52	1081.33
393.71	1163.25
393.91	1144.52
394.10	1177.29
394.29	1125.80
394.49	1100.05
394.68	1247.51
394.88	1273.25
395.07	1280.27
395.26	1369.21
395.46	1366.87
395.65	1217.08
395.84	1282.61
396.04	1217.08
396.23	1191.33
396.42	1207.72
396.62	1160.91
396.81	1235.80
397.00	1198.35
397.19	1275.59
397.39	1320.06
397.58	1394.96
397.77	1322.40
397.97	1427.73
398.16	1446.45
398.35	1486.24
398.55	1521.35
398.74	1554.12
398.93	1497.94
399.12	1376.24
399.32	1460.49
399.51	1528.37
399.70	1537.73
399.90	1591.56
400.09	1607.95
400.28	1633.69
400.47	1706.25
400.67	1619.65
400.86	1636.03
401.05	1706.25
401.24	1767.10
401.44	1753.06
401.63	1746.04
401.82	1783.49
402.01	1680.50
402.21	1722.63
402.40	1851.36
402.59	1830.30
402.78	1877.11
402.97	1856.04
403.17	1914.56
403.36	1818.60
403.55	1900.52
403.74	1949.67
403.93	1907.54
404.13	1914.56
404.32	1937.96
404.51	1877.11
404.70	1944.99
404.89	1996.48
405.09	2052.65
405.28	2099.46
405.47	2160.31
405.66	2003.50
405.85	2104.14
406.05	2005.84
406.24	2047.97
406.43	2062.01
406.62	2047.97
406.81	2186.06
407.00	2125.21
407.20	2122.87
407.39	2207.13
407.58	2211.81
407.77	2296.07
407.96	2239.89
408.15	2392.03
408.34	2312.45
408.54	2342.88
408.73	2289.04
408.92	2370.96
409.11	2361.60
409.30	2319.47
409.49	2354.58
409.68	2410.75
409.87	2399.05
410.07	2459.90
410.26	2464.58
410.45	2417.77
410.64	2558.21
410.83	2736.09
411.02	2717.36
411.21	2623.74
411.40	2616.72
411.59	2801.62
411.78	2712.68
411.98	2654.17
412.17	2743.11
412.36	2698.64
412.55	2834.39
412.74	2689.28
412.93	2883.54
413.12	2883.54
413.31	2972.48
413.50	2906.95
413.69	2960.78
413.88	2860.13
414.07	3030.99
414.26	3045.04
414.45	3056.74
414.64	3052.06
414.83	3075.46
415.02	3173.77
415.22	3162.06
415.41	3141.00
415.60	3187.81
415.79	3337.60
415.98	3349.31
416.17	3307.18
416.36	3229.94
416.55	3375.05
416.74	3344.63
416.93	3253.34
417.12	3419.52
417.31	3445.27
417.50	3379.73
417.69	3595.06
417.88	3588.04
418.07	3463.99
418.26	3604.42
418.45	3716.77
418.64	3754.22
418.83	3700.39
419.02	3637.19
419.21	3815.07
419.39	3616.13
419.58	3510.80
419.77	3623.15
419.96	3644.21
420.15	3747.20
420.34	3772.94
420.53	3929.76
420.72	4023.38
420.91	3901.67
421.10	3843.16
421.29	4126.36
421.48	3882.95
421.67	3995.29
421.86	3978.91
422.05	3852.52
422.24	3957.85
422.43	3852.52
422.61	3906.35
422.80	3922.74
422.99	3992.95
423.18	3992.95
423.37	4145.09
423.56	4182.54
423.75	4051.47
423.94	3934.44
424.13	3913.38
424.32	3920.40
424.50	4009.34
424.69	4170.83
424.88	4114.66
425.07	3995.29
425.26	3911.04
425.45	4007.00
425.64	4028.06
425.83	3969.55
426.01	3936.78
426.20	4184.88
426.39	4098.28
426.58	4023.38
426.77	4098.28
426.96	4140.41
427.15	4131.05
427.33	4126.36
427.52	4156.79
427.71	4217.65
427.90	4250.41
428.09	4114.66
428.28	4128.70
428.46	4297.22
428.65	4227.01
428.84	4423.61
429.03	4430.63
429.22	4004.66
429.40	4250.41
429.59	4093.60
429.78	4002.32
429.97	4117.00
430.16	4102.96
430.34	4250.41
430.53	4219.99
430.72	4182.54
430.91	4362.76
431.10	4402.55
431.28	4718.52
431.47	4685.75
431.66	4758.31
431.85	4603.83
432.03	4739.58
432.22	4798.10
432.41	4711.50
432.60	4755.97
432.79	4926.83
432.97	4971.30
433.16	4912.78
433.35	4870.65
433.54	4713.84
433.72	4896.40
433.91	4737.24
434.10	4765.33
434.28	4823.84
434.47	5085.98
434.66	5022.79
434.85	5128.11
435.03	5095.35
435.22	5013.43
435.41	5228.76
435.59	5188.97
435.78	5181.95
435.97	5266.21
436.16	5355.15
436.34	5151.52
436.53	5270.89
436.72	5256.84
436.90	5193.65
437.09	5441.75
437.28	5350.46
437.46	5296.63
437.65	5341.10
437.84	5352.81
438.02	5217.05
438.21	5350.46
438.40	5291.95
438.58	5177.26
438.77	5486.22
438.96	5568.13
439.14	5781.12
439.33	5802.19
439.52	5905.17
439.70	5827.93
439.89	5816.23
440.08	6043.26
440.26	5750.70
440.45	5713.25
440.63	5949.64
440.82	6164.97
441.01	5935.60
441.19	6326.47
441.38	6207.10
441.57	6181.35
441.75	6279.66
441.94	6551.16
442.12	6338.17
442.31	6670.53
442.50	6644.78
442.68	6487.96
442.87	6607.33
443.05	6604.99
443.24	6846.07
443.43	6471.58
443.61	6555.84
443.80	6724.36
443.98	6642.44
444.17	6541.80
444.35	6612.01
444.54	6750.10
444.73	6796.92
444.91	6729.04
445.10	6686.91
445.28	6518.39
445.47	6520.73
445.65	6565.20
445.84	6703.29
446.02	6871.81
446.21	6785.21
446.39	6876.49
446.58	6953.73
446.77	6820.32
446.95	6899.90
447.14	6825.00
447.32	7028.63
447.51	6918.62
447.69	6862.45
447.88	6963.09
448.06	6995.86
448.25	6925.65
448.43	6913.94
448.62	7033.31
448.80	6801.60
448.99	6876.49
449.17	6935.01
449.36	6958.41
449.54	7248.64
449.73	7236.94
449.91	7290.77
450.10	7279.07
450.28	7438.22
450.46	7307.15
450.65	7508.44
450.83	7452.27
451.02	7220.55
451.20	7461.63
451.39	7344.60
451.57	7370.35
451.76	7407.80
451.94	7534.18
452.13	7386.73
452.31	7386.73
452.49	7302.47
452.68	7356.30
452.86	7496.74
453.05	7466.31
453.23	7382.05
453.42	7513.12
453.60	7513.12
453.78	7641.85
453.97	7686.32
454.15	7555.25
454.34	7534.18
454.52	7829.09
454.70	7613.76
454.89	7817.39
455.07	7798.66
455.26	7815.05
455.44	7948.46
455.62	7744.83
455.81	7831.43
455.99	7859.52
456.17	8063.15
456.36	8028.04
456.54	8081.87
456.73	8159.11
456.91	8470.40
457.09	8273.79
457.28	8631.90
457.46	8313.58
457.64	8320.60
457.83	8346.35
458.01	8262.09
458.19	8489.12
458.38	8311.24
458.56	8559.34
458.74	8557.00
458.93	8624.87
459.11	8428.27
459.29	8596.79
459.48	8669.34
459.66	8470.40
459.84	8758.28
460.03	8819.14
460.21	8720.84
460.39	8884.67
460.57	8718.50
460.76	8784.03
460.94	9034.47
461.12	8851.91
461.31	8851.91
461.49	9029.79
461.67	8697.43
461.85	9116.39
462.04	8844.88
462.22	9074.26
462.40	9132.77
462.59	9046.17
462.77	9167.88
462.95	9240.44
463.13	9247.46
463.32	9202.99
463.50	9205.33
463.68	9151.49
463.86	9444.06
464.05	9186.60
464.23	9301.29
464.41	9294.27
464.59	9200.65
464.78	9458.10
464.96	9312.99
465.14	9303.63
465.32	9352.78
465.50	9626.62
465.69	9694.50
465.87	9458.10
466.05	9657.05
466.23	9355.12
466.41	9525.98
466.60	9533.00
466.78	9434.70
466.96	9408.95
467.14	9572.79
467.32	9671.09
467.51	9638.33
467.69	9607.90
467.87	9542.36
468.05	9734.29
468.23	9518.96
468.41	9692.16
468.60	9640.67
468.78	9813.87
468.96	9853.66
469.14	10054.94
469.32	9975.36
469.50	9863.02
469.69	9989.41
469.87	10040.90
470.05	9933.23
470.23	10183.67
470.41	10033.88
470.59	10146.22
470.77	10125.16
470.95	10242.18
471.14	10270.27
471.32	10085.37
471.50	10569.86
471.68	10490.28
471.86	10583.90
472.04	10565.18
472.22	10714.97
472.40	10490.28
472.58	10787.53
472.77	10729.02
472.95	10794.55
473.13	11035.63
473.31	10729.02
473.49	10820.30
473.67	10705.61
473.85	10899.87
474.03	11218.19
474.21	11157.33
474.39	11470.97
474.57	11192.44
474.75	11307.13
474.93	11496.71
475.12	11702.68
475.30	11576.29
475.48	11562.25
475.66	11555.22
475.84	11793.96
476.02	11698.00
476.20	11749.49
476.38	11836.09
476.56	12053.76
476.74	12292.49
476.92	12231.64
477.10	12301.86
477.28	12484.42
477.46	12002.27
477.64	12549.95
477.82	12650.60
478.00	12718.47
478.18	12961.89
478.36	12809.75
478.54	13032.10
478.72	13083.59
478.90	13074.23
479.08	13429.99
479.26	13584.47
479.44	13465.10
479.62	13760.01
479.80	13619.58
479.98	13874.70
480.16	13984.70
480.34	13717.88
480.52	14045.55
480.70	14398.98
480.88	13830.23
481.06	14298.33
481.24	14352.16
481.41	14434.08
481.59	14686.86
481.77	15026.24
481.95	14768.78
482.13	14857.72
482.31	14930.28
482.49	15279.02
482.67	15353.91
482.85	15580.95
483.03	15721.38
483.21	15721.38
483.39	15517.75
483.57	15850.11
483.74	16004.58
483.92	16152.04
484.10	15864.15
484.28	16093.52
484.46	16702.06
484.64	16837.81
484.82	16634.19
485.00	16669.30
485.18	16746.53
485.35	16896.33
485.53	16556.95
485.71	16570.99
485.89	16744.19
486.07	16439.92
486.25	16901.01
486.43	17151.45
486.61	17467.42
486.78	17762.33
486.96	17654.66
487.14	18288.95
487.32	17956.59
487.50	18548.75
487.68	18434.06
487.85	18850.67
488.03	18913.87
488.21	18885.78
488.39	18874.08
488.57	19124.52
488.75	19407.72
488.92	19543.47
489.10	19779.87
489.28	20020.94
489.46	20208.19
489.64	19988.18
489.81	20439.90
489.99	20528.84
490.17	20638.84
490.35	20875.24
490.53	20877.58
490.70	21282.49
490.88	20943.11
491.06	21387.82
491.24	20936.09
491.41	21163.12
491.59	21380.79
491.77	21249.72
491.95	21556.33
492.13	22097.00
492.30	21869.97
492.48	22251.47
492.66	22436.38
492.84	22766.39
493.01	22766.39
493.19	22443.40
493.37	22888.10
493.54	23019.17
493.72	22995.76
493.90	23080.02
494.08	23569.19
494.25	23573.88
494.43	23648.77
494.61	23957.72
494.79	23934.32
494.96	23843.04
495.14	23861.76
495.32	24390.72
495.49	24056.03
495.67	24390.72
495.85	24774.57
496.02	24638.82
496.20	24720.74
496.38	24683.29
496.55	25348.00
496.73	25598.44
496.91	25345.66
497.09	25532.90
497.26	25970.58
497.44	25322.26
497.62	25266.08
497.79	25916.75
497.97	25876.96
498.14	26064.21
498.32	26377.84
498.50	26235.06
498.67	26628.27
498.85	26897.44
499.03	27215.75
499.20	26656.36
499.38	26937.23
499.56	26890.41
499.73	27534.06
499.91	26998.08
500.08	26850.63
500.26	26728.92
500.44	27332.78
500.61	27087.02
500.79	27054.25
500.97	27243.84
501.14	27384.27
501.32	27278.94
501.49	27887.48
501.67	27835.99
501.84	27807.90
502.02	28084.09
502.20	28355.59
502.37	28313.46
502.55	28362.61
502.72	28589.64
502.90	28868.17
503.07	28486.66
503.25	28690.29
503.43	29006.26
503.60	28716.03
503.78	28697.31
503.95	28816.68
504.13	28903.28
504.30	29369.04
504.48	29261.38
504.65	29481.39
504.83	29598.41
505.01	29876.94
505.18	30022.05
505.36	30059.50
505.53	30075.88
505.71	30195.25
505.88	30583.78
506.06	30256.11
506.23	30267.81
506.41	30096.95
506.58	30822.51
506.76	30565.06
506.93	30462.07
507.11	30150.78
507.28	30857.62
507.46	30522.93
507.63	30958.27
507.81	30792.09
507.98	30916.14
508.16	30932.52
508.33	31271.90
508.50	31683.83
508.68	31456.80
508.85	31583.19
509.03	31662.77
509.20	31620.64
509.38	32079.38
509.55	32112.15
509.73	31732.98
509.90	32451.53
510.08	31880.44
510.25	32322.80
510.42	32025.55
510.60	31974.06
510.77	32589.62
510.95	32758.14
511.12	32711.33
511.30	33097.52
511.47	33413.49
511.64	32847.08
511.82	32884.53
511.99	32818.99
512.17	33113.90
512.34	32840.06
512.51	33228.59
512.69	33237.95
512.86	33376.04
513.04	33448.60
513.21	33441.57
513.38	33237.95
513.56	33200.50
513.73	33226.24
513.90	33525.83
514.08	33797.34
514.25	33919.04
514.43	33633.50
514.60	33563.28
514.77	34129.69
514.95	34078.20
515.12	33942.45
515.29	34211.61
515.47	34881.00
515.64	34742.91
515.81	34431.62
515.99	34326.30
516.16	34553.33
516.33	33893.30
516.51	34033.73
516.68	33717.76
516.85	33832.44
517.03	34408.22
517.20	34443.32
517.37	34637.59
517.54	34735.89
517.72	34668.02
517.89	35047.18
518.06	34206.93
518.24	34829.51
518.41	34916.11
518.58	35325.71
518.75	34909.09
518.93	35103.35
519.10	35590.19
519.27	35552.74
519.45	35725.94
519.62	35845.30
519.79	36149.57
519.96	36165.96
520.14	36737.05
520.31	35751.68
520.48	36264.26
520.65	36322.77
520.83	36613.00
521.00	36793.22
521.17	36299.37
521.34	36924.29
521.52	36910.25
521.69	37097.49
521.86	37207.50
522.03	37289.42
522.20	36992.17
522.38	37368.99
522.55	36849.39
522.72	37118.56
522.89	36870.46
523.07	37565.60
523.24	37322.18
523.41	37333.89
523.58	37593.68
523.75	38169.46
523.92	38127.33
524.10	38106.26
524.27	38190.52
524.44	37916.68
524.61	38583.73
524.78	38089.88
524.96	38117.96
525.13	38288.82
525.30	38686.71
525.47	38871.62
525.64	38714.80
525.81	38450.32
525.98	37902.64
526.16	37762.20
526.33	37909.66
526.50	38066.47
526.67	37553.90
526.84	38396.49
527.01	38146.05
527.18	38323.93
527.36	38560.33
527.53	38932.47
527.70	38969.92
527.87	39159.50
528.04	39384.19
528.21	38925.45
528.38	39021.41
528.55	39555.05
528.72	39583.14
528.89	39864.00
529.07	39377.17
529.24	39477.82
529.41	39578.46
529.58	39480.16
529.75	39335.04
529.92	39482.50
530.09	39814.85
530.26	39866.34
530.43	39957.63
530.60	39662.72
530.77	39908.47
530.94	40566.16
531.11	40240.83
531.28	39758.68
531.46	40378.92
531.63	40252.53
531.80	40051.25
531.97	39901.45
532.14	40224.45
532.31	40149.55
532.48	40172.96
532.65	40367.22
532.82	40023.16
532.99	40526.38
533.16	40547.44
533.33	40484.25
533.50	40863.41
533.67	40889.16
533.84	40444.46
534.01	40535.74
534.18	40589.57
534.35	41134.92
534.52	40900.86
534.69	41163.00
534.86	41083.42
535.03	41165.34
535.20	41631.11
535.37	41591.32
535.54	41731.75
535.71	41638.13
535.88	41462.59
536.05	41277.69
536.22	41462.59
536.38	41230.88
536.55	42019.64
536.72	41422.80
536.89	41530.47
537.06	41584.30
537.23	41731.75
537.40	42197.52
537.57	41794.95
537.74	41610.04
537.91	42078.15
538.08	41684.94
538.25	41787.92
538.42	41617.07
538.59	42050.06
538.75	41722.39
538.92	41783.24
539.09	42054.75
539.26	42340.29
539.43	41982.19
539.60	42117.94
539.77	41837.08
539.94	41944.74
540.11	42286.46
540.28	42309.86
540.44	42206.88
540.61	42199.86
540.78	42066.45
540.95	42366.04
541.12	42560.30
541.29	42532.22
541.46	42403.49
541.62	42642.22
541.79	42904.36
541.96	42649.24
542.13	42651.58
542.30	42792.01
542.47	43044.79
542.63	43393.53
542.80	42934.79
542.97	43543.33
543.14	43346.72
543.31	43063.52
543.48	43388.85
543.64	44411.67
543.81	43608.86
543.98	43723.55
544.15	43613.54
544.32	43438.00
544.48	43936.54
544.65	43505.88
544.82	43999.73
544.99	43592.48
545.16	43793.76
545.32	43791.42
545.49	43964.62
545.66	44067.61
545.83	43793.76
546.00	43753.97
546.16	43863.98
546.33	43531.62
546.50	43302.25
546.67	43791.42
546.83	43711.84
547.00	43732.91
547.17	44210.38
547.34	44329.75
547.50	44182.29
547.67	43929.51
547.84	44119.10
548.00	44488.90
548.17	44669.12
548.34	44039.52
548.51	44500.61
548.67	44818.92
548.84	44390.60
549.01	44191.65
549.18	44540.39
549.34	44652.74
549.51	44783.81
549.68	44788.49
549.84	44488.90
550.01	44830.62
550.18	44458.48
550.34	44779.13
550.51	44325.07
550.68	44809.56
550.84	44392.94
551.01	44973.39
551.18	44577.84
551.34	44765.09
551.51	45048.29
551.68	45507.04
551.84	44912.54
552.01	44737.00
552.18	45357.24
552.34	44706.57
552.51	44708.91
552.68	44968.71
552.84	45347.88
553.01	45371.28
553.18	45413.41
553.34	44917.22
553.51	45188.72
553.67	44898.50
553.84	45497.67
554.01	45326.81
554.17	45471.93
554.34	45551.51
554.51	45717.68
554.67	45853.44
554.84	45436.82
555.00	44753.38
555.17	45567.89
555.33	45663.85
555.50	45460.23
555.67	45380.65
555.83	45481.29
556.00	45902.59
556.16	45799.60
556.33	45102.12
556.50	45848.75
556.66	45797.26
556.83	45368.94
556.99	45993.87
557.16	45766.84
557.32	45694.28
557.49	45858.12
557.65	45509.38
557.82	45481.29
557.98	45663.85
558.15	45558.53
558.32	45668.53
558.48	45869.82
558.65	45633.42
558.81	45439.16
558.98	45514.06
559.14	45631.08
559.31	45806.62
559.47	46113.23
559.64	45755.13
559.80	46321.54
559.97	45762.15
560.13	45584.27
560.30	45872.16
560.46	46036.00
560.63	45792.58
560.79	46354.31
560.96	46447.93
561.12	46057.06
561.29	46146.00
561.45	46078.13
561.61	46122.60
561.78	46305.16
561.94	46010.25
562.11	45911.95
562.27	45874.50
562.44	46246.65
562.60	46429.21
562.77	46506.44
562.93	46059.40
563.10	46117.92
563.26	45581.93
563.42	46309.84
563.59	46181.11
563.75	46134.30
563.92	46265.37
564.08	46375.37
564.24	46351.97
564.41	46054.72
564.57	45818.33
564.74	46515.81
564.90	46344.95
565.07	46078.13
565.23	46312.18
565.39	46153.02
565.56	46213.88
565.72	46052.38
565.88	46450.27
566.05	46089.83
566.21	46263.03
566.38	46199.83
566.54	46518.15
566.70	46824.76
566.87	46518.15
567.03	46466.66
567.19	47030.72
567.36	46653.90
567.52	46635.17
567.68	46808.37
567.85	46525.17
568.01	46581.34
568.17	46124.94
568.34	46195.15
568.50	46199.83
568.66	46684.33
568.83	46426.87
568.99	45958.76
569.15	46061.74
569.32	46656.24
569.48	46368.35
569.64	46291.12
569.81	46700.71
569.97	46452.61
570.13	46553.26
570.30	46391.76
570.46	46190.47
570.62	46508.79
570.78	46478.36
570.95	46202.18
571.11	47061.15
571.27	46375.37
571.43	46621.13
571.60	46354.31
571.76	46574.32
571.92	46616.45
572.09	46639.86
572.25	46653.90
572.41	46508.79
572.57	46763.90
572.74	46504.10
572.90	46820.08
573.06	46686.67
573.22	46604.75
573.38	46454.95
573.55	46614.11
573.71	46651.56
573.87	46726.46
574.03	46415.16
574.20	46707.73
574.36	46710.07
574.52	46656.24
574.68	47040.09
574.84	46635.17
575.01	46330.90
575.17	46494.74
575.33	46396.44
575.49	46204.52
575.65	47250.74
575.82	46733.48
575.98	46967.53
576.14	46941.78
576.30	46813.05
576.46	46476.02
576.62	46574.32
576.79	46897.31
576.95	46476.02
577.11	46571.98
577.27	46960.51
577.43	46707.73
577.59	46082.81
577.75	46759.22
577.92	46171.75
578.08	46045.36
578.24	46263.03
578.40	46513.47
578.56	46775.61
578.72	46490.06
578.88	47000.30
579.04	46965.19
579.21	46628.15
579.37	46990.94
579.53	46609.43
579.69	46567.30
579.85	46841.14
580.01	46749.86
580.17	46504.10
580.33	46824.76
580.49	46801.35
580.65	46897.31
580.82	46799.01
580.98	46527.51
581.14	46459.63
581.30	46705.39
581.46	46990.94
581.62	46780.29
581.78	46967.53
581.94	46799.01
582.10	46621.13
582.26	46909.02
582.42	46951.15
582.58	46859.87
582.74	46857.52
582.90	46745.18
583.06	46941.78
583.22	46841.14
583.38	47124.35
583.54	47129.03
583.70	47309.25
583.86	46656.24
584.02	46543.89
584.18	47124.35
584.34	46752.20
584.50	46731.14
584.66	46810.71
584.82	46644.54
584.98	47126.69
585.14	46756.88
585.30	46693.69
585.46	46897.31
585.62	46724.11
585.78	46799.01
585.94	46412.82
586.10	46515.81
586.26	46726.46
586.42	47131.37
586.58	47124.35
586.74	46731.14
586.90	46461.97
587.06	46806.03
587.22	46696.03
587.38	46539.21
587.54	46862.21
587.70	46803.69
587.86	46611.77
588.02	46810.71
588.18	46602.41
588.34	46445.59
588.49	46333.24
588.65	45834.71
588.81	45823.01
588.97	46216.22
589.13	46155.36
589.29	46478.36
589.45	46738.16
589.61	46628.15
589.77	46724.11
589.93	46745.18
590.08	47157.11
590.24	47103.28
590.40	47173.50
590.56	46937.10
590.72	47351.38
590.88	46724.11
591.04	46691.35
591.20	47334.99
591.35	47180.52
591.51	47248.39
591.67	46717.09
591.83	47136.05
591.99	46932.42
592.15	46761.56
592.31	46939.44
592.46	46899.65
592.62	47012.00
592.78	47100.94
592.94	47175.84
593.10	46934.76
593.26	46925.40
593.41	47035.41
593.57	46354.31
593.73	46593.04
593.89	46799.01
594.05	46967.53
594.20	46838.80
594.36	47110.30
594.52	46667.94
594.68	46693.69
594.84	46667.94
594.99	46918.38
595.15	46646.88
595.31	47037.75
595.47	47246.05
595.62	46951.15
595.78	46703.05
595.94	47049.45
596.10	47019.02
596.25	46927.74
596.41	46962.85
596.57	47173.50
596.73	47229.67
596.88	46862.21
597.04	47299.89
597.20	46916.04
597.36	46848.16
597.51	47454.36
597.67	47122.01
597.83	47054.13
597.99	46794.33
598.14	47042.43
598.30	47152.43
598.46	47232.01
598.61	46728.80
598.77	46571.98
598.93	46665.60
599.09	46976.89
599.24	47372.44
599.40	47185.20
599.56	47131.37
599.71	46817.74
599.87	46789.65
600.03	47070.51
600.18	46951.15
600.34	47234.35
600.50	47292.86
600.65	46951.15
600.81	47065.83
600.97	47400.53
601.12	47117.32
601.28	47283.50
601.44	47150.09
601.59	47030.72
601.75	46366.01
601.91	46897.31
602.06	46672.62
602.22	47037.75
602.37	46904.34
602.53	47117.32
602.69	47103.28
602.84	46555.60
603.00	46887.95
603.16	46621.13
603.31	46976.89
603.47	46791.99
603.62	46899.65
603.78	47105.62
603.94	46960.51
604.09	47276.48
604.25	47093.92
604.40	47147.75
604.56	46909.02
604.71	46993.28
604.87	46948.81
605.03	46560.28
605.18	46569.64
605.34	46773.27
605.49	46316.86
605.65	46513.47
605.80	46625.81
605.96	46962.85
606.12	46799.01
606.27	47292.86
606.43	46766.24
606.58	47084.56
606.74	46902.00
606.89	46976.89
607.05	46894.97
607.20	47072.85
607.36	46990.94
607.51	46869.23
607.67	46799.01
607.82	46953.49
607.98	46806.03
608.13	46433.89
608.29	46665.60
608.44	46234.94
608.60	46497.08
608.75	46677.30
608.91	46431.55
609.06	46099.19
609.22	46534.53
609.37	46188.13
609.53	46696.03
609.68	46579.00
609.84	46316.86
609.99	46377.72
610.15	46082.81
610.30	46279.41
610.46	46220.90
610.61	46527.51
610.76	46424.53
610.92	46113.23
611.07	45989.19
611.23	46471.34
611.38	46155.36
611.54	46206.86
611.69	46143.66
611.84	46277.07
612.00	45979.82
612.15	45968.12
612.31	46373.03
612.46	45844.07
612.62	45940.04
612.77	46000.89
612.92	46040.68
613.08	46138.98
613.23	46136.64
613.39	45713.00
613.54	45551.51
613.69	45808.96
613.85	45762.15
614.00	45785.56
614.15	45984.51
614.31	46031.32
614.46	46150.68
614.62	46003.23
614.77	45855.78
614.92	45841.73
615.08	45645.13
615.23	45160.64
615.38	45216.81
615.54	45528.10
615.69	45471.93
615.84	45823.01
616.00	45303.41
616.15	45282.34
616.30	45979.82
616.46	45268.30
616.61	45174.68
616.76	45455.54
616.92	45020.20
617.07	44687.85
617.22	45397.03
617.37	45069.36
617.53	45539.80
617.68	45298.73
617.83	45397.03
617.99	45219.15
618.14	45261.28
618.29	45425.12
618.45	44706.57
618.60	45324.47
618.75	45144.25
618.90	45113.83
619.06	45359.58
619.21	45184.04
619.36	45406.39
619.51	45528.10
619.67	45294.05
619.82	45113.83
619.97	45422.78
620.12	45038.93
620.28	45024.89
620.43	44973.39
620.58	44802.53
620.73	45076.38
620.89	44304.00
621.04	44678.49
621.19	44856.37
621.34	45020.20
621.49	44699.55
621.65	44673.81
621.80	44732.32
621.95	44463.16
622.10	44390.60
622.25	44409.32
622.41	44217.40
622.56	44472.52
622.71	44545.08
622.86	44582.52
623.01	44612.95
623.16	44428.05
623.32	44416.35
623.47	44339.11
623.62	44385.92
623.77	44191.65
623.92	44287.62
624.07	44341.45
624.23	43824.19
624.38	43992.71
624.53	43700.14
624.68	43812.49
624.83	44025.48
624.98	44116.76
625.13	44156.55
625.29	43981.01
625.44	43639.29
625.59	43358.42
625.74	43501.20
625.89	43571.41
626.04	43679.08
626.19	43529.28
626.34	44025.48
626.49	43592.48
626.65	43782.06
626.80	44041.86
626.95	43430.98
627.10	43913.13
627.25	43384.17
627.40	43459.07
627.55	42979.26
627.70	42951.17
627.85	42642.22
628.00	42691.37
628.15	43145.44
628.30	43065.86
628.45	43468.43
628.60	43129.05
628.76	43487.15
628.91	43407.58
629.06	42721.80
629.21	43054.15
629.36	43068.20
629.51	42958.19
629.66	43117.35
629.81	42766.27
629.96	42689.03
630.11	43068.20
630.26	43288.21
630.41	43065.86
630.56	42712.44
630.71	42759.25
630.86	42717.12
631.01	42454.98
631.16	42604.77
631.31	42450.30
631.46	42672.65
631.61	42712.44
631.76	42878.61
631.91	42883.30
632.06	42333.27
632.21	42822.44
632.36	42738.18
632.51	42412.85
632.66	42553.28
632.81	42019.64
632.96	42403.49
633.10	42579.03
633.25	42127.30
633.40	42387.10
633.55	42546.26
633.70	42457.32
633.85	42047.72
634.00	42094.53
634.15	42506.47
634.30	42066.45
634.45	42038.36
634.60	42550.94
634.75	42382.42
634.90	41736.43
635.05	42089.85
635.19	41858.14
635.34	41869.84
635.49	41638.13
635.64	41818.35
635.79	41572.60
635.94	41862.82
636.09	42377.74
636.24	41928.36
636.39	41673.24
636.53	41612.38
636.68	41521.10
636.83	42183.48
636.98	41237.90
637.13	41783.24
637.28	41947.08
637.43	42066.45
637.57	41993.89
637.72	41574.94
637.87	41371.31
638.02	41151.30
638.17	41780.90
638.32	41518.76
638.46	41366.63
638.61	41420.46
638.76	40994.48
638.91	41432.16
639.06	41422.80
639.20	41291.73
639.35	41333.86
639.50	41296.41
639.65	41373.65
639.80	41179.39
639.94	41074.06
640.09	40971.08
640.24	41413.44
640.39	41062.36
640.54	41057.68
640.68	41141.94
640.83	41127.89
640.98	40863.41
641.13	41043.63
641.27	41008.53
641.42	40690.21
641.57	40683.19
641.72	40896.18
641.86	40575.53
642.01	40388.28
642.16	40598.93
642.31	40580.21
642.45	40596.59
642.60	40584.89
642.75	40414.03
642.90	40671.49
643.04	40360.20
643.19	40444.46
643.34	40463.18
643.48	40107.42
643.63	40271.26
643.78	40041.88
643.93	40318.07
644.07	40280.62
644.22	40259.55
644.37	40072.31
644.51	40282.96
644.66	40542.76
644.81	40662.13
644.95	40568.51
645.10	40446.80
645.25	40751.07
645.39	39959.97
645.54	40383.60
645.69	40261.90
645.83	40062.95
645.98	40292.32
646.13	40318.07
646.27	39999.76
646.42	39864.00
646.57	40053.59
646.71	40013.80
646.86	39985.71
647.00	40072.31
647.15	39849.96
647.30	39725.91
647.44	39686.12
647.59	39910.82
647.74	39491.86
647.88	39374.83
648.03	39831.24
648.17	39646.33
648.32	39487.18
648.47	39533.99
648.61	39512.92
648.76	39922.52
648.90	39414.62
649.05	39519.95
649.20	39480.16
649.34	39360.79
649.49	39082.27
649.63	39201.63
649.78	39227.38
649.92	39215.68
650.07	39679.10
650.21	39103.33
650.36	39194.61
650.51	38852.89
650.65	39854.64
650.80	39358.45
650.94	39608.89
651.09	39122.05
651.23	39321.00
651.38	39213.34
651.52	38955.88
651.67	38869.28
651.81	38920.77
651.96	38843.53
652.10	38244.35
652.25	38785.02
652.39	39049.50
652.54	39178.23
652.68	39234.40
652.83	38955.88
652.97	39049.50
653.12	38651.61
653.26	38590.75
653.41	38878.64
653.55	38597.77
653.70	38789.70
653.84	38686.71
653.99	38672.67
654.13	38515.86
654.27	38534.58
654.42	38403.51
654.56	38333.29
654.71	38532.24
654.85	38756.93
655.00	38464.36
655.14	38490.11
655.29	38103.92
655.43	37961.15
655.57	38106.26
655.72	37860.51
655.86	37677.94
656.01	37701.35
656.15	37780.93
656.30	37720.07
656.44	37933.06
656.58	37621.77
656.73	37476.66
656.87	38328.61
657.01	37839.44
657.16	37930.72
657.30	37787.95
657.45	37883.91
657.59	37237.92
657.73	37755.18
657.88	38073.49
658.02	38197.54
658.16	38169.46
658.31	38246.69
658.45	37942.42
658.60	37460.27
658.74	37886.25
658.88	37612.41
659.03	37212.18
659.17	37574.96
659.31	37694.33
659.46	37219.20
659.60	37865.19
659.74	37226.22
659.89	37352.61
660.03	37095.15
660.17	37589.00
660.32	37462.61
660.46	37209.84
660.60	37050.68
660.74	37301.12
660.89	37116.22
661.03	36374.27
661.17	36634.06
661.32	36526.40
661.46	36753.43
661.60	36889.18
661.74	36659.81
661.89	36650.45
662.03	36833.01
662.17	36451.50
662.31	36306.39
662.46	36896.20
662.60	36538.10
662.74	36795.56
662.88	36180.00
663.03	36371.92
663.17	35981.06
663.31	36002.12
663.45	35852.33
663.60	36098.08
663.74	36165.96
663.88	36088.72
664.02	35964.67
664.17	35976.37
664.31	35763.39
664.45	36135.53
664.59	35749.34
664.73	35812.54
664.88	36016.16
665.02	35220.38
665.16	35494.22
665.30	35594.87
665.44	35101.01
665.59	35283.58
665.73	34958.24
665.87	35089.31
666.01	35585.50
666.15	35218.04
666.29	35566.78
666.44	35108.04
666.58	34679.72
666.72	35075.27
666.86	35365.49
667.00	35175.91
667.14	34550.99
667.28	34721.85
667.43	34597.80
667.57	34483.11
667.71	34464.39
667.85	34607.16
667.99	34745.25
668.13	34368.43
668.27	34220.97
668.41	33996.28
668.56	34232.68
668.70	34775.68
668.84	34239.70
668.98	34513.54
669.12	33907.34
669.26	33912.02
669.40	33394.76
669.54	34115.65
669.68	33659.24
669.82	33631.16
669.96	33397.10
670.10	33713.08
670.25	33699.03
670.39	33684.99
670.53	33436.89
670.67	33266.03
670.81	33619.46
670.95	32858.78
671.09	33305.82
671.23	33167.73
671.37	33020.28
671.51	33085.81
671.65	33078.79
671.79	32720.69
671.93	33017.94
672.07	32760.48
672.21	33083.47
672.35	33202.84
672.49	32900.91
672.63	32790.91
672.77	32575.58
672.91	32446.85
673.05	31957.67
673.19	32343.86
673.33	32243.22
673.47	32088.74
673.61	31995.12
673.75	32081.72
673.89	31548.08
674.03	31707.24
674.17	31625.32
674.31	31777.45
674.45	31737.66
674.59	31665.11
674.73	32025.55
674.87	31278.92
675.01	31342.11
675.15	31227.43
675.29	31314.03
675.43	31625.32
675.56	31033.16
675.70	30728.89
675.84	30782.73
675.98	30178.87
676.12	30764.00
676.26	30700.81
676.40	30717.19
676.54	30443.35
676.68	30808.47
676.82	29701.40
676.96	30558.03
677.10	30279.51
677.23	29977.58
677.37	29806.72
677.51	29762.25
677.65	29804.38
677.79	29575.01
677.93	29558.63
678.07	29593.73
678.21	29291.80
678.34	29345.64
678.48	29223.93
678.62	29057.75
678.76	28957.11
678.90	28336.87
679.04	28823.70
679.18	28950.09
679.31	28409.42
679.45	28477.30
679.59	28341.55
679.73	28257.29
679.87	28156.64
680.00	28477.30
680.14	28395.38
680.28	27938.97
680.42	28091.11
680.56	28254.95
680.70	27864.08
680.83	28053.66
680.97	28034.94
681.11	27861.74
681.25	27658.11
681.39	27615.98
681.52	27800.88
681.66	27494.27
681.80	27007.44
681.94	27061.27
682.07	27351.50
682.21	27075.32
682.35	26867.01
682.49	26733.60
682.62	27005.10
682.76	26721.90
682.90	26118.04
683.04	26263.15
683.17	25984.63
683.31	26122.72
683.45	26532.31
683.59	26230.38
683.72	26178.89
683.86	25773.98
684.00	25965.90
684.13	25928.45
684.27	25610.14
684.41	25476.73
684.55	25273.10
684.68	25420.56
684.82	25181.82
684.96	25708.44
685.09	25383.11
685.23	25109.27
685.37	25095.22
685.50	25092.88
685.64	25036.71
685.78	24636.48
685.91	24570.94
686.05	24531.15
686.19	24451.58
686.32	23946.02
686.46	24025.60
686.60	23658.14
686.73	24018.58
686.87	23707.29
687.01	23587.92
687.14	23316.42
687.28	23166.62
687.42	23175.98
687.55	23520.04
687.69	23590.26
687.82	22951.29
687.96	23498.98
688.10	23190.03
688.23	22984.06
688.37	22953.63
688.50	22637.66
688.64	22530.00
688.78	22881.08
688.91	22539.36
689.05	22778.09
689.18	22485.53
689.32	22405.95
689.46	22277.22
689.59	22188.28
689.73	22469.14
689.86	22085.30
690.00	21797.41
690.13	22256.15
690.27	22015.08
690.41	21848.90
690.54	21404.20
690.68	21198.23
690.81	21687.40
690.95	21394.84
691.08	21383.13
691.22	21448.67
691.35	21364.41
691.49	21441.65
691.62	21095.25
691.76	21303.56
691.89	20957.16
692.03	20666.93
692.16	20549.90
692.30	20699.70
692.43	20460.96
692.57	20690.34
692.70	20306.49
692.84	20491.39
692.97	20299.47
693.11	20280.74
693.24	20063.07
693.38	20226.91
693.51	19885.19
693.65	19964.77
693.78	19775.19
693.92	19683.91
694.05	19894.55
694.19	19606.67
694.32	19351.55
694.45	19672.20
694.59	19047.28
694.72	19136.22
694.86	18817.91
694.99	19056.64
695.13	18902.17
695.26	18876.42
695.39	18986.43
695.53	18923.23
695.66	18815.57
695.80	18625.98
695.93	18803.86
696.07	18405.97
696.20	18480.87
696.33	18530.02
696.47	18260.86
696.60	18136.81
696.73	18148.51
696.87	17862.97
697.00	18223.41
697.14	18024.47
697.27	17977.65
697.40	17745.94
697.54	17858.29
697.67	17640.62
697.80	17415.93
697.94	17551.68
698.07	17528.27
698.21	16739.51
698.34	17053.14
698.47	17013.35
698.61	16940.80
698.74	16840.15
698.87	16835.47
699.01	16645.89
699.14	16570.99
699.27	16468.01
699.40	16669.30
699.54	16475.03
699.67	16262.04
699.80	16278.43
699.94	16358.00
700.07	16299.49
700.20	16266.72
700.34	16215.23
700.47	16060.76
700.60	16240.98
700.73	16266.72
700.87	15964.79
701.00	15768.19
701.13	16140.33
701.26	15419.45
701.40	15651.16
701.53	15695.63
701.66	15463.92
701.79	15264.97
701.93	15627.76
702.06	15021.56
702.19	15136.24
702.32	15080.07
702.46	14897.51
702.59	15131.56
702.72	15176.03
702.85	14827.29
702.99	14848.36
703.12	14977.09
703.25	14703.25
703.38	14455.15
703.51	14696.22
703.65	14551.11
703.78	14644.73
703.91	14813.25
704.04	14401.32
704.17	14132.15
704.31	14256.20
704.44	14202.37
704.57	14052.58
704.70	14080.66
704.83	13635.96
704.96	13907.46
705.10	13771.71
705.23	13973.00
>>>>>End Processed Spectral Data<<<<<
