SpectraSuite Data File
++++++++++++++++++++++++++++++++++++
Date: Fri Oct 25 10:48:07 EDT 2013
User: price-jones
Dark Spectrum Present: No
Reference Spectrum Present: No
Number of Sampled Component Spectra: 1
Spectrometers: USB2+H05261
Integration Time (usec): 100000 (USB2+H05261)
Spectra Averaged: 1 (USB2+H05261)
Boxcar Smoothing: 0 (USB2+H05261)
Correct for Electrical Dark: No (USB2+H05261)
Strobe/Lamp Enabled: No (USB2+H05261)
Correct for Detector Non-linearity: No (USB2+H05261)
Correct for Stray Light: No (USB2+H05261)
Number of Pixels in Processed Spectrum: 2048
>>>>>Begin Processed Spectral Data<<<<<
365.73	128.73
365.92	128.73
366.12	128.73
366.32	65.54
366.52	70.22
366.72	18.72
366.91	133.41
367.11	0.00
367.31	4.68
367.51	98.30
367.70	16.38
367.90	74.90
368.10	0.00
368.30	93.62
368.49	23.41
368.69	67.88
368.89	74.90
369.09	32.77
369.28	79.58
369.48	84.26
369.68	110.01
369.87	77.24
370.07	166.18
370.27	86.60
370.47	114.69
370.66	301.93
370.86	379.17
371.06	393.21
371.25	411.93
371.45	330.02
371.65	496.19
371.84	421.30
372.04	411.93
372.24	430.66
372.44	486.83
372.63	463.43
372.83	512.58
373.03	552.37
373.22	524.28
373.42	491.51
373.62	526.62
373.81	521.94
374.01	573.43
374.21	533.64
374.40	575.77
374.60	514.92
374.79	479.81
374.99	575.77
375.19	582.79
375.38	603.86
375.58	575.77
375.78	650.67
375.97	552.37
376.17	660.03
376.37	617.90
376.56	624.92
376.76	573.43
376.95	589.82
377.15	615.56
377.35	568.75
377.54	566.41
377.74	582.79
377.93	617.90
378.13	589.82
378.33	613.22
378.52	669.39
378.72	627.26
378.91	667.05
379.11	629.60
379.31	601.52
379.50	531.30
379.70	615.56
379.89	634.29
380.09	627.26
380.28	613.22
380.48	692.80
380.68	688.12
380.87	622.58
381.07	587.47
381.26	732.59
381.46	606.20
381.65	631.94
381.85	674.07
382.04	709.18
382.24	627.26
382.43	664.71
382.63	664.71
382.83	718.54
383.02	688.12
383.22	777.06
383.41	685.78
383.61	638.97
383.80	657.69
384.00	589.82
384.19	676.41
384.39	760.67
384.58	737.27
384.78	777.06
384.97	688.12
385.17	798.12
385.36	770.04
385.56	851.96
385.75	737.27
385.95	739.61
386.14	777.06
386.34	816.85
386.53	770.04
386.72	840.25
386.92	830.89
387.11	774.72
387.31	746.63
387.50	844.93
387.70	812.17
387.89	873.02
388.09	798.12
388.28	798.12
388.48	854.30
388.67	854.30
388.86	851.96
389.06	947.92
389.25	940.90
389.45	826.21
389.64	903.45
389.84	936.21
390.03	924.51
390.22	880.04
390.42	947.92
390.61	898.77
390.81	873.02
391.00	912.81
391.19	957.28
391.39	959.62
391.58	968.98
391.78	997.07
391.97	926.85
392.16	903.45
392.36	959.62
392.55	943.24
392.75	929.19
392.94	959.62
393.13	1008.77
393.33	938.55
393.52	908.13
393.71	1027.50
393.91	999.41
394.10	1074.31
394.29	1048.56
394.49	1032.18
394.68	1053.24
394.88	1050.90
395.07	1123.46
395.26	1109.41
395.46	1109.41
395.65	1137.50
395.84	1130.48
396.04	1263.89
396.23	1104.73
396.42	1048.56
396.62	1139.84
396.81	1167.93
397.00	1111.75
397.19	1231.12
397.39	1198.35
397.58	1198.35
397.77	1233.46
397.97	1294.32
398.16	1261.55
398.35	1280.27
398.55	1296.66
398.74	1207.72
398.93	1299.00
399.12	1320.06
399.32	1273.25
399.51	1322.40
399.70	1284.95
399.90	1273.25
400.09	1416.02
400.28	1479.22
400.47	1343.47
400.67	1540.07
400.86	1530.71
401.05	1451.13
401.24	1458.15
401.44	1469.86
401.63	1479.22
401.82	1458.15
402.01	1409.00
402.21	1544.75
402.40	1460.49
402.59	1488.58
402.78	1434.75
402.97	1561.14
403.17	1650.08
403.36	1619.65
403.55	1458.15
403.74	1610.29
403.93	1589.22
404.13	1605.61
404.32	1600.93
404.51	1614.97
404.70	1673.48
404.89	1645.40
405.09	1802.21
405.28	1659.44
405.47	1813.92
405.66	1720.29
405.85	1762.42
406.05	1643.06
406.24	1820.94
406.43	1750.72
406.62	1788.17
406.81	1732.00
407.00	1820.94
407.20	1682.85
407.39	1750.72
407.58	1806.89
407.77	1898.17
407.96	1884.13
408.15	1970.73
408.34	1944.99
408.54	2005.84
408.73	1916.90
408.92	2015.20
409.11	1989.46
409.30	1998.82
409.49	1984.77
409.68	1926.26
409.87	2017.54
410.07	2003.50
410.26	2136.91
410.45	2169.68
410.64	2050.31
410.83	2080.74
411.02	2083.08
411.21	2223.51
411.40	2064.35
411.59	2139.25
411.78	2239.89
411.98	2239.89
412.17	2307.77
412.36	2314.79
412.55	2333.51
412.74	2321.81
412.93	2420.11
413.12	2389.69
413.31	2408.41
413.50	2429.48
413.69	2448.20
413.88	2609.70
414.07	2490.33
414.26	2609.70
414.45	2527.78
414.64	2607.36
414.83	2572.25
415.02	2682.25
415.22	2724.38
415.41	2757.15
415.60	2682.25
415.79	2792.26
415.98	2918.65
416.17	2815.66
416.36	2764.17
416.55	2848.43
416.74	2846.09
416.93	2754.81
417.12	2913.97
417.31	2773.53
417.50	2881.20
417.69	2951.42
417.88	2920.99
418.07	2911.63
418.26	2949.08
418.45	3101.21
418.64	3098.87
418.83	3082.49
419.02	2981.84
419.21	3047.38
419.39	3087.17
419.58	3098.87
419.77	3084.83
419.96	3185.47
420.15	3180.79
420.34	3089.51
420.53	3234.62
420.72	3185.47
420.91	3253.34
421.10	3215.90
421.29	3368.03
421.48	3346.97
421.67	3396.12
421.86	3417.18
422.05	3414.84
422.24	3346.97
422.43	3365.69
422.61	3442.93
422.80	3389.10
422.99	3517.83
423.18	3473.36
423.37	3548.25
423.56	3377.39
423.75	3447.61
423.94	3419.52
424.13	3166.74
424.32	3330.58
424.50	3482.72
424.69	3543.57
424.88	3686.34
425.07	3508.46
425.26	3513.14
425.45	3452.29
425.64	3424.20
425.83	3581.02
426.01	3550.59
426.20	3569.32
426.39	3400.80
426.58	3557.61
426.77	3445.27
426.96	3522.51
427.15	3581.02
427.33	3691.02
427.52	3496.76
427.71	3606.77
427.90	3599.74
428.09	3831.46
428.28	3786.99
428.46	3625.49
428.65	3728.47
428.84	3599.74
429.03	3810.39
429.22	3555.27
429.40	3747.20
429.59	3854.86
429.78	3595.06
429.97	3618.47
430.16	3850.18
430.34	3822.09
430.53	3812.73
430.72	3805.71
430.91	3786.99
431.10	3772.94
431.28	4011.68
431.47	4065.51
431.66	4088.92
431.85	4070.19
432.03	4063.17
432.22	4086.58
432.41	4044.45
432.60	4063.17
432.79	4175.52
432.97	4170.83
433.16	4191.90
433.35	4208.28
433.54	4159.13
433.72	4149.77
433.91	4147.43
434.10	4194.24
434.28	4205.94
434.47	4320.63
434.66	4409.57
434.85	4365.10
435.03	4395.53
435.22	4252.75
435.41	4617.88
435.59	4423.61
435.78	4599.15
435.97	4517.23
436.16	4477.44
436.34	4461.06
436.53	4564.04
436.72	4575.75
436.90	4580.43
437.09	4561.70
437.28	4486.81
437.46	4681.07
437.65	4624.90
437.84	4620.22
438.02	4592.13
438.21	4748.95
438.40	4486.81
438.58	4774.69
438.77	4917.47
438.96	4760.65
439.14	4826.18
439.33	4926.83
439.52	5025.13
439.70	4884.70
439.89	4954.91
440.08	5025.13
440.26	5132.79
440.45	5160.88
440.63	5074.28
440.82	5142.16
441.01	5130.45
441.19	5195.99
441.38	5373.87
441.57	5406.64
441.75	5392.59
441.94	5474.51
442.12	5591.54
442.31	5607.92
442.50	5547.07
442.68	5563.45
442.87	5607.92
443.05	5558.77
443.24	5764.74
443.43	5500.26
443.61	5640.69
443.80	5907.51
443.98	5533.03
444.17	5467.49
444.35	5743.67
444.54	5872.40
444.73	5795.17
444.91	5626.65
445.10	5870.06
445.28	5790.49
445.47	5668.78
445.65	5612.60
445.84	5785.80
446.02	5982.41
446.21	5710.91
446.39	5682.82
446.58	5980.07
446.77	5746.02
446.95	5867.72
447.14	5837.30
447.32	5689.84
447.51	5809.21
447.69	5914.53
447.88	5830.27
448.06	5785.80
448.25	5811.55
448.43	5909.85
448.62	5771.76
448.80	5865.38
448.99	6111.14
449.17	6024.54
449.36	6010.50
449.54	6153.27
449.73	6122.84
449.91	6298.38
450.10	6190.72
450.28	6232.85
450.46	6265.61
450.65	6286.68
450.83	6193.06
451.02	6296.04
451.20	6272.64
451.39	6396.68
451.57	6228.17
451.76	6197.74
451.94	6361.58
452.13	6366.26
452.31	6324.13
452.49	6251.57
452.68	6471.58
452.86	6443.49
453.05	6553.50
453.23	6469.24
453.42	6530.09
453.60	6417.75
453.78	6628.40
453.97	6504.35
454.15	6689.25
454.34	6541.80
454.52	6523.07
454.70	6647.12
454.89	6619.04
455.07	6736.06
455.26	6780.53
455.44	6796.92
455.62	6705.63
455.81	6883.52
455.99	6970.12
456.17	6986.50
456.36	7096.50
456.54	6909.26
456.73	6984.16
456.91	7073.10
457.09	7155.02
457.28	7138.63
457.46	7082.46
457.64	7342.26
457.83	7337.58
458.01	6993.52
458.19	7311.83
458.38	7375.03
458.56	7342.26
458.74	7360.98
458.93	7342.26
459.11	7323.54
459.29	7332.90
459.48	7424.18
459.66	7368.01
459.84	7478.01
460.03	7456.95
460.21	7485.03
460.39	7447.58
460.57	7386.73
460.76	7499.08
460.94	7691.00
461.12	7700.36
461.31	7592.70
461.49	7576.31
461.67	7676.96
461.85	7981.23
462.04	7709.72
462.22	8231.66
462.40	7875.90
462.59	7866.54
462.77	7873.56
462.95	8081.87
463.13	7777.60
463.32	8147.40
463.50	8065.49
463.68	8079.53
463.86	7873.56
464.05	8077.19
464.23	7899.31
464.41	8203.58
464.59	7882.92
464.78	8077.19
464.96	7967.18
465.14	7878.24
465.32	8322.94
465.50	8341.67
465.69	8084.21
465.87	8126.34
466.05	8184.85
466.23	8124.00
466.41	8304.22
466.60	8446.99
466.78	8219.96
466.96	8231.66
467.14	8358.05
467.32	8390.82
467.51	8257.41
467.69	8098.25
467.87	8402.52
468.05	8437.63
468.23	8521.89
468.41	8358.05
468.60	8344.01
468.78	8456.36
468.96	8360.39
469.14	8477.42
469.32	8624.87
469.50	8404.86
469.69	8711.47
469.87	8755.94
470.05	8823.82
470.23	8695.09
470.41	8800.41
470.59	8943.19
470.77	8678.71
470.95	8716.16
471.14	9029.79
471.32	8767.65
471.50	9226.39
471.68	8980.64
471.86	9064.89
472.04	9200.65
472.22	9411.29
472.40	8964.25
472.58	9231.07
472.77	9362.14
472.95	9277.88
473.13	9582.15
473.31	9376.19
473.49	9603.22
473.67	9446.40
473.85	9598.54
474.03	9643.01
474.21	9914.51
474.39	10052.60
474.57	9680.46
474.75	10031.54
474.93	10033.88
475.12	9982.38
475.30	9994.09
475.48	10066.64
475.66	10033.88
475.84	10029.20
476.02	10253.89
476.20	9928.55
476.38	10445.81
476.56	10539.43
476.74	10651.78
476.92	10497.30
477.10	10565.18
477.28	10712.63
477.46	10871.79
477.64	10897.53
477.82	10946.69
478.00	11302.45
478.18	11005.20
478.36	11082.44
478.54	11470.97
478.72	11417.13
478.90	11669.91
479.08	11585.65
479.26	11618.42
479.44	11896.94
479.62	12116.95
479.80	11857.15
479.98	11880.56
480.16	12191.85
480.34	11981.20
480.52	12477.40
480.70	12217.60
480.88	12269.09
481.06	12346.33
481.24	12313.56
481.41	12692.73
481.59	12697.41
481.77	12989.97
481.95	12975.93
482.13	12929.12
482.31	12865.92
482.49	13254.45
482.67	13226.37
482.85	13493.19
483.03	13600.85
483.21	13694.47
483.39	13645.32
483.57	13731.92
483.74	14038.53
483.92	14162.58
484.10	13921.51
484.28	14164.92
484.46	14644.73
484.64	14759.42
484.82	14155.56
485.00	14420.04
485.18	14757.08
485.35	14970.07
485.53	14885.81
485.71	14815.59
485.89	15274.34
486.07	15274.34
486.25	15307.10
486.43	15307.10
486.61	15295.40
486.78	15747.12
486.96	15566.90
487.14	16137.99
487.32	16013.95
487.50	16072.46
487.68	16578.01
487.85	16491.41
488.03	16573.33
488.21	16727.81
488.39	16435.24
488.57	16678.66
488.75	17001.65
488.92	17359.75
489.10	17518.91
489.28	17308.26
489.46	17635.94
489.64	17701.47
489.81	17891.06
489.99	18286.61
490.17	18190.64
490.35	18391.93
490.53	18384.91
490.70	18354.48
490.88	18478.53
491.06	18705.56
491.24	18693.86
491.41	18778.12
491.59	19194.73
491.77	19000.47
491.95	19396.02
492.13	19510.71
492.30	19419.42
492.48	19325.80
492.66	19786.89
492.84	19875.83
493.01	20034.99
493.19	19913.28
493.37	20107.54
493.54	20411.81
493.72	20556.93
493.90	20262.02
494.08	20641.18
494.25	20903.32
494.43	21043.76
494.61	21001.63
494.79	21254.40
494.96	20856.51
495.14	21322.28
495.32	21469.73
495.49	21429.94
495.67	21528.25
495.85	21720.17
496.02	21919.12
496.20	22059.55
496.38	22223.39
496.55	22581.49
496.73	22345.09
496.91	22338.07
497.09	22700.86
497.26	22551.06
497.44	22410.63
497.62	23101.09
497.79	23030.87
497.97	23040.23
498.14	23028.53
498.32	23271.95
498.50	23098.75
498.67	23218.11
498.85	23360.89
499.03	23761.12
499.20	23611.32
499.38	23798.57
499.56	23887.51
499.73	24187.10
499.91	23906.23
500.08	24329.87
500.26	24339.23
500.44	24191.78
500.61	24453.92
500.79	24376.68
500.97	24774.57
501.14	24797.98
501.32	24758.19
501.49	24634.14
501.67	24961.81
501.84	25333.96
502.02	25050.75
502.20	25048.41
502.37	25366.73
502.55	25404.17
502.72	25427.58
502.90	25500.14
503.07	25350.34
503.25	25701.42
503.43	25640.57
503.60	25804.41
503.78	25909.73
503.95	25949.52
504.13	26368.48
504.30	26164.85
504.48	26075.91
504.65	26239.75
504.83	26298.26
505.01	26546.36
505.18	26403.58
505.36	26668.06
505.53	26899.78
505.71	26960.63
505.88	26682.11
506.06	26937.23
506.23	26925.52
506.41	26567.42
506.58	27175.96
506.76	27639.39
506.93	27330.44
507.11	27627.68
507.28	27604.28
507.46	27646.41
507.63	27564.49
507.81	27637.05
507.98	27641.73
508.16	27833.65
508.33	27931.95
508.50	27941.32
508.68	28107.49
508.85	28416.44
509.03	28144.94
509.20	28322.82
509.38	29106.90
509.55	28947.75
509.73	28758.16
509.90	29074.13
510.08	28802.63
510.25	28779.23
510.42	29006.26
510.60	28987.53
510.77	29439.26
510.95	29415.85
511.12	29198.18
511.30	29708.42
511.47	29404.15
511.64	29404.15
511.82	30181.21
511.99	29670.97
512.17	29921.41
512.34	29532.88
512.51	30162.48
512.69	30274.83
512.86	30125.04
513.04	30274.83
513.21	30457.39
513.38	30202.27
513.56	30309.94
513.73	30136.74
513.90	30677.40
514.08	30483.14
514.25	30836.56
514.43	30499.52
514.60	30642.29
514.77	30909.11
514.95	30918.48
515.12	30829.54
515.29	30838.90
515.47	31653.40
515.64	31585.53
515.81	30944.22
515.99	31648.72
516.16	31417.01
516.33	30960.61
516.51	31562.12
516.68	31285.94
516.85	31189.98
517.03	31559.78
517.20	32030.23
517.37	31672.13
517.54	31852.35
517.72	31772.77
517.89	31922.57
518.06	31894.48
518.24	31857.03
518.41	31936.61
518.58	32231.52
518.75	31992.78
518.93	32692.60
519.10	32547.49
519.27	32664.52
519.45	32589.62
519.62	32720.69
519.79	32772.18
519.96	32945.38
520.14	33301.14
520.31	33008.58
520.48	33020.28
520.65	33191.14
520.83	33376.04
521.00	33237.95
521.17	33242.63
521.34	33097.52
521.52	33755.21
521.69	33687.33
521.86	33895.64
522.03	34108.63
522.20	33596.05
522.38	33970.54
522.55	34007.98
522.72	34176.50
522.89	33764.57
523.07	34347.36
523.24	33352.63
523.41	34265.44
523.58	34000.96
523.75	34410.56
523.92	34448.00
524.10	34473.75
524.27	34389.49
524.44	34780.36
524.61	34787.38
524.78	34916.11
524.96	34824.83
525.13	34866.96
525.30	35480.18
525.47	34878.66
525.64	34838.87
525.81	34848.24
525.98	35056.54
526.16	34827.17
526.33	34567.37
526.50	35314.00
526.67	35288.26
526.84	35508.27
527.01	35374.86
527.18	35302.30
527.36	35416.99
527.53	35044.84
527.70	36189.36
527.87	36226.81
528.04	35835.94
528.21	35945.95
528.38	35915.52
528.55	35967.01
528.72	36114.47
528.89	36428.10
529.07	35835.94
529.24	36341.50
529.41	35812.54
529.58	36016.16
529.75	36456.18
529.92	36587.25
530.09	36512.36
530.26	36802.58
530.43	36685.56
530.60	36500.65
530.77	36620.02
530.94	36982.80
531.11	37338.57
531.28	36854.08
531.46	37207.50
531.63	37156.00
531.80	36397.67
531.97	36945.36
532.14	36928.97
532.31	36875.14
532.48	36657.47
532.65	37247.29
532.82	37263.67
532.99	37844.12
533.16	37392.40
533.33	37228.56
533.50	37607.73
533.67	37174.73
533.84	37193.45
534.01	37209.84
534.18	37392.40
534.35	37820.72
534.52	37586.66
534.69	37549.21
534.86	37958.81
535.03	37811.35
535.20	38092.22
535.37	38073.49
535.54	38007.96
535.71	37919.02
535.88	37706.03
536.05	37930.72
536.22	38071.15
536.38	38153.07
536.55	38700.76
536.72	38426.92
536.89	38134.35
537.06	38398.83
537.23	38836.51
537.40	38380.10
537.57	38600.12
537.74	38810.76
537.91	38766.29
538.08	38852.89
538.25	38703.10
538.42	38597.77
538.59	39063.54
538.75	38403.51
538.92	38719.48
539.09	39304.62
539.26	39103.33
539.43	39185.25
539.60	38848.21
539.77	38880.98
539.94	39063.54
540.11	38974.60
540.28	38897.36
540.44	38967.58
540.61	39068.22
540.78	39421.64
540.95	39206.31
541.12	39117.37
541.29	39199.29
541.46	39056.52
541.62	39529.31
541.79	39583.14
541.96	39339.72
542.13	39475.48
542.30	39608.89
542.47	39342.06
542.63	39468.45
542.80	40002.10
542.97	39997.41
543.14	40217.43
543.31	40069.97
543.48	40201.04
543.64	40587.23
543.81	40364.88
543.98	40201.04
544.15	40458.50
544.32	40591.91
544.48	40828.30
544.65	40299.34
544.82	40488.93
544.99	39974.01
545.16	40521.69
545.32	40495.95
545.49	40816.60
545.66	40715.96
545.83	40950.01
546.00	40673.83
546.16	41067.04
546.33	40458.50
546.50	40725.32
546.67	40556.80
546.83	40467.86
547.00	40643.40
547.17	40783.83
547.34	41013.21
547.50	40907.88
547.67	41251.94
547.84	40966.40
548.00	41340.88
548.17	40907.88
548.34	40992.14
548.51	41165.34
548.67	41551.53
548.84	41181.73
549.01	41542.17
549.18	40854.05
549.34	41352.58
549.51	41626.43
549.68	41916.65
549.84	41514.08
550.01	41881.55
550.18	41361.95
550.34	41427.48
550.51	41429.82
550.68	41935.38
550.84	41408.76
551.01	41371.31
551.18	41574.94
551.34	41986.87
551.51	41727.07
551.68	41640.47
551.84	42232.63
552.01	41432.16
552.18	42237.31
552.34	41766.86
552.51	41977.51
552.68	41881.55
552.84	42223.26
553.01	42370.72
553.18	41624.09
553.34	42209.22
553.51	42206.88
553.67	42354.33
553.84	42628.18
554.01	42557.96
554.17	42567.32
554.34	42562.64
554.51	42436.25
554.67	42738.18
554.84	42508.81
555.00	42096.88
555.17	42227.95
555.33	42263.05
555.50	42370.72
555.67	42581.37
555.83	42497.11
556.00	42068.79
556.16	43232.04
556.33	42792.01
556.50	42808.40
556.66	42731.16
556.83	42787.33
556.99	42827.12
557.16	43470.77
557.32	43096.28
557.49	42923.08
557.65	42410.51
557.82	42359.02
557.98	42763.93
558.15	42733.50
558.32	43161.82
558.48	43007.34
558.65	42843.51
558.81	43005.00
558.98	43206.29
559.14	43363.11
559.31	42806.06
559.47	43180.54
559.64	43281.19
559.80	43161.82
559.97	43587.80
560.13	43173.52
560.30	42962.87
560.46	43241.40
560.63	42871.59
560.79	43454.39
560.96	43620.56
561.12	43545.67
561.29	43332.68
561.45	43384.17
561.61	43639.29
561.78	43349.06
561.94	43594.82
562.11	43222.67
562.27	43225.01
562.44	43260.12
562.60	43650.99
562.77	43358.42
562.93	43164.16
563.10	44055.90
563.26	43505.88
563.42	43634.61
563.59	43510.56
563.75	43723.55
563.92	43646.31
564.08	43648.65
564.24	43688.44
564.41	43613.54
564.57	44076.97
564.74	43929.51
564.90	43807.81
565.07	43566.73
565.23	43594.82
565.39	43798.44
565.56	44067.61
565.72	43798.44
565.88	43723.55
566.05	43241.40
566.21	43557.37
566.38	43515.24
566.54	43910.79
566.70	44105.06
566.87	43945.90
567.03	43880.36
567.19	44329.75
567.36	44004.41
567.52	43564.39
567.68	44079.31
567.85	43655.67
568.01	44002.07
568.17	44030.16
568.34	43924.83
568.50	43922.49
568.66	44060.58
568.83	43894.41
568.99	43789.08
569.15	44123.78
569.32	43936.54
569.48	43899.09
569.64	43709.50
569.81	43845.26
569.97	44016.11
570.13	43976.33
570.30	43765.68
570.46	43761.00
570.62	43814.83
570.78	43793.76
570.95	43505.88
571.11	44540.39
571.27	44371.88
571.43	44231.44
571.60	44105.06
571.76	44023.14
571.92	43941.22
572.09	43627.59
572.25	43873.34
572.41	43908.45
572.57	44390.60
572.74	44701.89
572.90	44072.29
573.06	44123.78
573.22	44215.06
573.38	44266.55
573.55	43756.32
573.71	44308.68
573.87	44196.34
574.03	43927.17
574.20	44392.94
574.36	44086.33
574.52	44128.46
574.68	44329.75
574.84	44559.12
575.01	44072.29
575.17	44655.08
575.33	43950.58
575.49	44470.18
575.65	44357.83
575.82	44385.92
575.98	43938.88
576.14	45064.67
576.30	44065.27
576.46	44142.50
576.62	44156.55
576.79	44016.11
576.95	43648.65
577.11	44278.25
577.27	44196.34
577.43	44245.49
577.59	44268.89
577.75	44189.31
577.92	43653.33
578.08	44025.48
578.24	43807.81
578.40	43990.37
578.56	44055.90
578.72	44304.00
578.88	44435.07
579.04	44542.74
579.21	43885.04
579.37	44030.16
579.53	44388.26
579.69	44313.36
579.85	44304.00
580.01	44711.25
580.17	45052.97
580.33	44353.15
580.49	44409.32
580.65	44957.01
580.82	44737.00
580.98	44172.93
581.14	44350.81
581.30	44631.68
581.46	44540.39
581.62	44184.63
581.78	44568.48
581.94	44713.59
582.10	44406.98
582.26	44603.59
582.42	44126.12
582.58	44292.30
582.74	44325.07
582.90	44350.81
583.06	44680.83
583.22	44641.04
583.38	44669.12
583.54	44547.42
583.70	44495.92
583.86	44502.95
584.02	44039.52
584.18	44755.72
584.34	43983.35
584.50	44573.16
584.66	44278.25
584.82	44580.18
584.98	44816.58
585.14	44486.56
585.30	44701.89
585.46	44800.19
585.62	44362.51
585.78	44509.97
585.94	44456.14
586.10	44156.55
586.26	44081.65
586.42	44722.96
586.58	44947.65
586.74	44589.55
586.90	44376.56
587.06	44725.30
587.22	44488.90
587.38	44390.60
587.54	45141.91
587.70	44835.30
587.86	44783.81
588.02	44650.40
588.18	44465.50
588.34	44512.31
588.49	44285.28
588.65	44149.53
588.81	44184.63
588.97	44411.67
589.13	44313.36
589.29	44336.77
589.45	44781.47
589.61	44697.21
589.77	45024.89
589.93	44552.10
590.08	44835.30
590.24	44809.56
590.40	44961.69
590.56	45312.77
590.72	44364.85
590.88	44184.63
591.04	44685.51
591.20	44790.83
591.35	44825.94
591.51	45132.55
591.67	44945.31
591.83	44423.37
591.99	44580.18
592.15	44409.32
592.31	44451.45
592.46	44507.63
592.62	44449.11
592.78	44875.09
592.94	45081.06
593.10	44598.91
593.26	45038.93
593.41	44821.26
593.57	45134.89
593.73	44556.78
593.89	44980.42
594.05	44381.24
594.20	45071.70
594.36	44732.32
594.52	45013.18
594.68	44851.69
594.84	44961.69
594.99	45233.19
595.15	44575.50
595.31	44947.65
595.47	44811.90
595.62	44662.10
595.78	45139.57
595.94	45287.03
596.10	45109.14
596.25	45408.73
596.41	45380.65
596.57	44776.79
596.73	45200.43
596.88	44737.00
597.04	45148.93
597.20	44596.57
597.36	44994.46
597.51	45247.24
597.67	44931.26
597.83	45305.75
597.99	44917.22
598.14	45172.34
598.30	44919.56
598.46	44980.42
598.61	44729.98
598.77	44938.29
598.93	44713.59
599.09	44739.34
599.24	45619.38
599.40	45172.34
599.56	45415.76
599.71	45132.55
599.87	45277.66
600.03	44886.79
600.18	45057.65
600.34	44444.43
600.50	44746.36
600.65	45095.10
600.81	45198.09
600.97	45546.82
601.12	45205.11
601.28	45106.80
601.44	44657.42
601.59	45186.38
601.75	44954.67
601.91	45153.62
602.06	44760.40
602.22	44919.56
602.37	44516.99
602.53	44910.20
602.69	45558.53
602.84	45420.44
603.00	45303.41
603.16	45027.23
603.31	44954.67
603.47	44832.96
603.62	45045.95
603.78	45408.73
603.94	44884.45
604.09	45312.77
604.25	45186.38
604.40	44554.44
604.56	45097.44
604.71	45254.26
604.87	44863.39
605.03	45055.31
605.18	44486.56
605.34	44989.78
605.49	44818.92
605.65	44999.14
605.80	44935.95
605.96	44952.33
606.12	44933.60
606.27	45378.31
606.43	44762.75
606.58	44781.47
606.74	44650.40
606.89	44816.58
607.05	45038.93
607.20	44722.96
607.36	44509.97
607.51	45141.91
607.67	45045.95
607.82	44615.29
607.98	44870.41
608.13	44498.26
608.29	44685.51
608.44	44531.03
608.60	44715.93
608.75	44369.54
608.91	44713.59
609.06	44196.34
609.22	44575.50
609.37	44587.21
609.53	44655.08
609.68	44839.98
609.84	44488.90
609.99	44992.12
610.15	44421.03
610.30	44212.72
610.46	43894.41
610.61	44320.38
610.76	44488.90
610.92	44329.75
611.07	44528.69
611.23	44002.07
611.38	44453.79
611.54	44023.14
611.69	44381.24
611.84	44343.79
612.00	44201.02
612.15	44130.80
612.31	44343.79
612.46	44549.76
612.62	44500.61
612.77	44287.62
612.92	44587.21
613.08	43917.81
613.23	44320.38
613.39	43948.24
613.54	43852.28
613.69	44116.76
613.85	43711.84
614.00	44259.53
614.15	44374.22
614.31	44226.76
614.46	44460.82
614.62	44294.64
614.77	44327.41
614.92	44076.97
615.08	44130.80
615.23	44116.76
615.38	43770.36
615.54	43793.76
615.69	43737.59
615.84	43489.49
616.00	43519.92
616.15	43894.41
616.30	43875.68
616.46	43468.43
616.61	43164.16
616.76	44030.16
616.92	43412.26
617.07	43564.39
617.22	43882.70
617.37	43908.45
617.53	44065.27
617.68	43950.58
617.83	43428.64
617.99	43688.44
618.14	43641.63
618.29	43269.48
618.45	43248.42
618.60	43646.31
618.75	43557.37
618.90	43597.16
619.06	43515.24
619.21	43475.45
619.36	43611.20
619.51	43494.18
619.67	43161.82
619.82	43133.73
619.97	43349.06
620.12	43143.09
620.28	43175.86
620.43	43351.40
620.58	43531.62
620.73	43119.69
620.89	42990.96
621.04	42887.98
621.19	43508.22
621.34	42557.96
621.49	42923.08
621.65	42806.06
621.80	43271.82
621.95	42948.83
622.10	43131.39
622.25	42986.28
622.41	42946.49
622.56	42440.93
622.71	42817.76
622.86	42796.70
623.01	43241.40
623.16	42993.30
623.32	42555.62
623.47	43342.04
623.62	42581.37
623.77	42731.16
623.92	42967.55
624.07	42639.88
624.23	42384.76
624.38	42370.72
624.53	42515.83
624.68	42473.70
624.83	42534.56
624.98	42745.20
625.13	42211.56
625.29	42351.99
625.44	42543.92
625.59	41799.63
625.74	42342.63
625.89	42019.64
626.04	42183.48
626.19	42384.76
626.34	42328.59
626.49	41897.93
626.65	41914.31
626.80	41982.19
626.95	42256.03
627.10	41968.15
627.25	41993.89
627.40	41961.12
627.55	41530.47
627.70	41743.45
627.85	41361.95
628.00	42038.36
628.15	42171.77
628.30	41659.20
628.45	41689.62
628.60	41729.41
628.76	41933.04
628.91	41900.27
629.06	41893.25
629.21	41638.13
629.36	41394.71
629.51	41612.38
629.66	41825.37
629.81	41294.07
629.96	41488.34
630.11	41656.85
630.26	41542.17
630.41	41560.89
630.56	41163.00
630.71	41593.66
630.86	41415.78
631.01	41359.61
631.16	41308.11
631.31	41324.50
631.46	41139.60
631.61	41177.04
631.76	40905.54
631.91	41230.88
632.06	41244.92
632.21	41532.81
632.36	41092.79
632.51	41088.10
632.66	41572.60
632.81	40795.54
632.96	40755.75
633.10	40378.92
633.25	40739.36
633.40	40865.75
633.55	41670.90
633.70	41031.93
633.85	40793.20
634.00	40938.31
634.15	40800.22
634.30	40720.64
634.45	40896.18
634.60	40603.61
634.75	40928.95
634.90	40875.12
635.05	40980.44
635.19	40741.71
635.34	41158.32
635.49	40442.12
635.64	40772.13
635.79	40158.91
635.94	40428.07
636.09	40549.78
636.24	40285.30
636.39	40231.47
636.53	40563.82
636.68	40114.44
636.83	40320.41
636.98	40615.32
637.13	40016.14
637.28	40168.27
637.43	40488.93
637.57	40374.24
637.72	40627.02
637.87	40409.35
638.02	40509.99
638.17	40135.51
638.32	40243.17
638.46	40025.50
638.61	40191.68
638.76	40016.14
638.91	39934.22
639.06	39676.76
639.20	39945.92
639.35	40257.21
639.50	39819.53
639.65	40254.87
639.80	39800.81
639.94	40261.90
640.09	40053.59
640.24	39714.21
640.39	40011.46
640.54	39636.97
640.68	39959.97
640.83	39744.64
640.98	39618.25
641.13	39985.71
641.27	40058.27
641.42	39683.78
641.57	39833.58
641.72	39725.91
641.86	39047.16
642.01	39229.72
642.16	39140.78
642.31	39189.93
642.45	38995.67
642.60	39026.09
642.75	39119.71
642.90	39463.77
643.04	39386.54
643.19	39040.14
643.34	39683.78
643.48	39168.87
643.63	39356.11
643.78	39306.96
643.93	39110.35
644.07	38930.13
644.22	39091.63
644.37	39206.31
644.51	38768.63
644.66	38906.73
644.81	39697.83
644.95	39569.10
645.10	39082.27
645.25	39257.81
645.39	39084.61
645.54	39110.35
645.69	38974.60
645.83	38473.73
645.98	39075.24
646.13	38838.85
646.27	39236.74
646.42	38607.14
646.57	38756.93
646.71	38646.93
646.86	38876.30
647.00	38904.38
647.15	38356.70
647.30	38990.98
647.44	38747.57
647.59	38625.86
647.74	38457.34
647.88	38513.52
648.03	38532.24
648.17	38270.10
648.32	38457.34
648.47	38576.71
648.61	38401.17
648.76	38628.20
648.90	38660.97
649.05	38822.47
649.20	38459.68
649.34	38272.44
649.49	38707.78
649.63	38359.04
649.78	38246.69
649.92	37785.61
650.07	38569.69
650.21	37589.00
650.36	38279.46
650.51	37846.46
650.65	38312.23
650.80	38628.20
650.94	38169.46
651.09	38106.26
651.23	38321.59
651.38	38050.09
651.52	38073.49
651.67	38017.32
651.81	37727.10
651.96	37762.20
652.10	37797.31
652.25	37736.46
652.39	37500.06
652.54	37312.82
652.68	38047.75
652.83	38216.27
652.97	38047.75
653.12	37476.66
653.26	37649.86
653.41	37649.86
653.55	37418.14
653.70	37240.26
653.84	37977.53
653.99	37605.39
654.13	37565.60
654.27	37647.52
654.42	37727.10
654.56	37156.00
654.71	37780.93
654.85	37441.55
655.00	37553.90
655.14	37413.46
655.29	37015.57
655.43	37406.44
655.57	36694.92
655.72	36678.54
655.86	36933.65
656.01	36598.96
656.15	36727.69
656.30	36802.58
656.44	37151.32
656.58	36840.03
656.73	37113.87
656.87	36362.56
657.01	36119.15
657.16	36961.74
657.30	36751.09
657.45	36414.05
657.59	36701.94
657.73	36521.72
657.88	37048.34
658.02	36664.49
658.16	36498.31
658.31	36795.56
658.45	37015.57
658.60	36837.69
658.74	37008.55
658.88	36556.83
659.03	36123.83
659.17	35782.11
659.31	36479.59
659.46	36245.54
659.60	36397.67
659.74	36364.90
659.89	35899.14
660.03	35768.07
660.17	35894.46
660.32	35985.74
660.46	36561.51
660.60	35964.67
660.74	35885.09
660.89	36208.09
661.03	35754.02
661.17	35613.59
661.32	35679.13
661.46	35615.93
661.60	35501.25
661.74	35768.07
661.89	35353.79
662.03	35768.07
662.17	35166.55
662.31	35218.04
662.46	35714.23
662.60	35597.21
662.74	35349.11
662.88	35449.75
663.03	35480.18
663.17	35157.19
663.31	34899.73
663.45	35232.08
663.60	35077.61
663.74	35159.53
663.88	34766.32
664.02	34164.80
664.17	35005.05
664.31	34408.22
664.45	34775.68
664.59	34771.00
664.73	35136.12
664.88	34518.22
665.02	34478.43
665.16	34642.27
665.30	34614.18
665.44	34543.97
665.59	33888.62
665.73	33804.36
665.87	33916.70
666.01	34073.52
666.15	34370.77
666.29	33991.60
666.44	34380.13
666.58	34328.64
666.72	33563.28
666.86	34756.96
667.00	33977.56
667.14	34010.32
667.28	33811.38
667.43	33795.00
667.57	33539.88
667.71	34160.12
667.85	33699.03
667.99	33579.67
668.13	33535.20
668.27	33378.38
668.41	33390.08
668.56	33312.84
668.70	33376.04
668.84	33397.10
668.98	33397.10
669.12	33301.14
669.26	33474.34
669.40	32957.08
669.54	33137.30
669.68	33249.65
669.82	32802.61
669.96	32521.74
670.10	32802.61
670.25	33060.07
670.39	32737.07
670.53	32875.16
670.67	32449.19
670.81	32856.44
670.95	32694.94
671.09	33221.56
671.23	32418.76
671.37	32613.02
671.51	32072.36
671.65	32364.93
671.79	32191.73
671.93	32072.36
672.07	32173.00
672.21	31962.36
672.35	31791.50
672.49	31793.84
672.63	31960.02
672.77	31665.11
672.91	31630.00
673.05	31817.24
673.19	31311.69
673.33	31655.75
673.47	31070.61
673.61	31243.81
673.75	31096.36
673.89	30572.08
674.03	30628.25
674.17	30885.71
674.31	30834.22
674.45	30749.96
674.59	30883.37
674.73	30986.35
674.87	30754.64
675.01	30560.37
675.15	30913.80
675.29	31115.08
675.43	30340.36
675.56	30473.78
675.70	30602.50
675.84	30309.94
675.98	29848.85
676.12	30431.65
676.26	29881.62
676.40	29738.85
676.54	29872.26
676.68	30019.71
676.82	29383.09
676.96	29422.87
677.10	29392.45
677.23	29352.66
677.37	29132.65
677.51	29092.86
677.65	29301.17
677.79	29200.52
677.93	29050.73
678.07	28489.00
678.21	28765.18
678.34	28491.34
678.48	28622.41
678.62	28329.84
678.76	28505.38
678.90	28404.74
679.04	28259.63
679.18	28481.98
679.31	27864.08
679.45	27744.71
679.59	27812.59
679.73	27592.58
679.87	27782.16
680.00	27920.25
680.14	27634.71
680.28	27454.48
680.42	27627.68
680.56	27171.28
680.70	27023.83
680.83	27246.18
680.97	27344.48
681.11	26757.00
681.25	26820.20
681.39	26546.36
681.52	27215.75
681.66	26867.01
681.80	26455.08
681.94	26642.32
682.07	26698.49
682.21	26160.17
682.35	26305.28
682.49	26387.20
682.62	26654.02
682.76	25926.11
682.90	26101.65
683.04	26237.41
683.17	25731.85
683.31	25795.04
683.45	25668.66
683.59	25656.95
683.72	25490.77
683.86	25404.17
684.00	25219.27
684.13	25528.22
684.27	25364.39
684.41	25153.74
684.55	25160.76
684.68	25092.88
684.82	24734.78
684.96	24414.13
685.09	24556.90
685.23	24748.82
685.37	24308.80
685.50	24357.96
685.64	24730.10
685.78	24280.72
685.91	23999.85
686.05	23866.44
686.19	23810.27
686.32	24102.84
686.46	23679.20
686.60	23616.01
686.73	23506.00
686.87	23461.53
687.01	23091.73
687.14	23321.10
687.28	23260.24
687.42	23056.62
687.55	22855.33
687.69	22689.15
687.82	22836.61
687.96	23009.81
688.10	22686.81
688.23	22684.47
688.37	22359.14
688.50	22141.47
688.64	22295.94
688.78	22347.44
688.91	22033.80
689.05	22267.86
689.18	21914.44
689.32	21774.00
689.46	21792.73
689.59	21994.01
689.73	21818.47
689.86	21626.55
690.00	21774.00
690.13	21855.92
690.27	21631.23
690.41	21472.07
690.54	21181.85
690.68	21120.99
690.81	20980.56
690.95	20732.47
691.08	20994.61
691.22	20751.19
691.35	20968.86
691.49	21048.44
691.62	20816.72
691.76	21046.10
691.89	20758.21
692.03	20414.15
692.16	20226.91
692.30	20386.07
692.43	20397.77
692.57	19901.58
692.70	20072.43
692.84	20142.65
692.97	19742.42
693.11	19941.36
693.24	19697.95
693.38	19580.92
693.51	19487.30
693.65	19363.25
693.78	19601.99
693.92	19454.53
694.05	19201.76
694.19	19138.56
694.32	19082.39
694.45	19187.71
694.59	18803.86
694.72	18773.44
694.86	18853.02
694.99	18417.68
695.13	18743.01
695.26	18310.01
695.39	18455.12
695.53	18654.07
695.66	18487.89
695.80	18258.52
695.93	18061.91
696.07	17930.84
696.20	18312.35
696.33	18125.11
696.47	18024.47
696.60	17891.06
696.73	17825.52
696.87	18010.42
697.00	17841.90
697.14	17647.64
697.27	17547.00
697.40	17298.90
697.54	17270.81
697.67	17317.62
697.80	17584.44
697.94	17130.38
698.07	17263.79
698.21	16922.07
698.34	17034.42
698.47	16807.39
698.61	16414.18
698.74	16730.15
698.87	16671.64
699.01	16453.97
699.14	16592.06
699.27	16477.37
699.40	16119.27
699.54	16156.72
699.67	16137.99
699.80	15988.20
699.94	16229.27
700.07	15913.30
700.20	16081.82
700.34	16004.58
700.47	15950.75
700.60	16044.37
700.73	15861.81
700.87	15667.55
701.00	15456.90
701.13	15522.43
701.26	15506.05
701.40	15594.99
701.53	15440.51
701.66	15351.57
701.79	15204.12
701.93	14752.40
702.06	14796.87
702.19	14824.95
702.32	14883.47
702.46	14604.94
702.59	14782.82
702.72	14576.86
702.85	14670.48
702.99	14644.73
703.12	14651.75
703.25	14520.68
703.38	14464.51
703.51	14380.25
703.65	14291.31
703.78	14197.69
703.91	14073.64
704.04	13902.78
704.17	14244.50
704.31	14047.90
704.44	13589.15
704.57	13626.60
704.70	13645.32
704.83	13589.15
704.96	13727.24
705.10	13970.66
705.23	13914.48
>>>>>End Processed Spectral Data<<<<<
