SpectraSuite Data File
++++++++++++++++++++++++++++++++++++
Date: Fri Oct 25 11:34:31 EDT 2013
User: price-jones
Dark Spectrum Present: No
Reference Spectrum Present: No
Number of Sampled Component Spectra: 1
Spectrometers: USB2+H05261
Integration Time (usec): 100000 (USB2+H05261)
Spectra Averaged: 1 (USB2+H05261)
Boxcar Smoothing: 0 (USB2+H05261)
Correct for Electrical Dark: No (USB2+H05261)
Strobe/Lamp Enabled: No (USB2+H05261)
Correct for Detector Non-linearity: No (USB2+H05261)
Correct for Stray Light: No (USB2+H05261)
Number of Pixels in Processed Spectrum: 2048
>>>>>Begin Processed Spectral Data<<<<<
365.73	257.46
365.92	257.46
366.12	257.46
366.32	180.22
366.52	227.03
366.72	159.16
366.91	154.48
367.11	180.22
367.31	224.69
367.51	180.22
367.70	191.92
367.90	177.88
368.10	168.52
368.30	198.95
368.49	191.92
368.69	124.05
368.89	166.18
369.09	140.43
369.28	224.69
369.48	170.86
369.68	198.95
369.87	224.69
370.07	257.46
370.27	217.67
370.47	308.95
370.66	468.11
370.86	491.51
371.06	512.58
371.25	507.90
371.45	512.58
371.65	552.37
371.84	538.32
372.04	503.22
372.24	538.32
372.44	566.41
372.63	521.94
372.83	599.18
373.03	571.09
373.22	568.75
373.42	638.97
373.62	606.20
373.81	669.39
374.01	653.01
374.21	674.07
374.40	671.73
374.60	571.09
374.79	587.47
374.99	622.58
375.19	648.33
375.38	678.76
375.58	638.97
375.78	629.60
375.97	653.01
376.17	690.46
376.37	746.63
376.56	674.07
376.76	641.31
376.95	730.25
377.15	685.78
377.35	617.90
377.54	741.95
377.74	676.41
377.93	713.86
378.13	615.56
378.33	711.52
378.52	779.40
378.72	706.84
378.91	634.29
379.11	634.29
379.31	725.57
379.50	699.82
379.70	781.74
379.89	711.52
380.09	692.80
380.28	655.35
380.48	706.84
380.68	699.82
380.87	676.41
381.07	713.86
381.26	695.14
381.46	835.57
381.65	690.46
381.85	732.59
382.04	709.18
382.24	767.70
382.43	704.50
382.63	781.74
382.83	676.41
383.02	748.97
383.22	751.31
383.41	765.36
383.61	751.31
383.80	856.64
384.00	786.42
384.19	830.89
384.39	802.80
384.58	840.25
384.78	863.66
384.97	858.98
385.17	784.08
385.36	788.76
385.56	784.08
385.75	828.55
385.95	880.04
386.14	814.51
386.34	800.46
386.53	854.30
386.72	807.48
386.92	901.11
387.11	849.61
387.31	887.06
387.50	856.64
387.70	786.42
387.89	823.87
388.09	873.02
388.28	891.74
388.48	980.68
388.67	954.94
388.86	950.26
389.06	887.06
389.25	931.53
389.45	880.04
389.64	915.15
389.84	873.02
390.03	922.17
390.22	954.94
390.42	978.34
390.61	938.55
390.81	884.72
391.00	1004.09
391.19	1011.11
391.39	992.39
391.58	1013.45
391.78	968.98
391.97	973.66
392.16	898.77
392.36	999.41
392.55	999.41
392.75	971.32
392.94	1046.22
393.13	1090.69
393.33	1020.47
393.52	1025.15
393.71	1041.54
393.91	994.73
394.10	1116.44
394.29	1008.77
394.49	1074.31
394.68	1055.58
394.88	1151.54
395.07	1128.14
395.26	1177.29
395.46	1083.67
395.65	1116.44
395.84	1137.50
396.04	1231.12
396.23	1088.35
396.42	1151.54
396.62	1228.78
396.81	1203.04
397.00	1095.37
397.19	1177.29
397.39	1193.67
397.58	1177.29
397.77	1095.37
397.97	1186.65
398.16	1179.63
398.35	1181.97
398.55	1210.06
398.74	1158.57
398.93	1270.91
399.12	1270.91
399.32	1259.21
399.51	1219.42
399.70	1352.83
399.90	1238.14
400.09	1242.82
400.28	1317.72
400.47	1362.19
400.67	1327.08
400.86	1315.38
401.05	1406.66
401.24	1378.58
401.44	1369.21
401.63	1404.32
401.82	1320.06
402.01	1369.21
402.21	1331.76
402.40	1500.28
402.59	1451.13
402.78	1486.24
402.97	1413.68
403.17	1488.58
403.36	1504.96
403.55	1549.43
403.74	1483.90
403.93	1540.07
404.13	1577.52
404.32	1526.03
404.51	1451.13
404.70	1633.69
404.89	1575.18
405.09	1603.27
405.28	1624.33
405.47	1596.25
405.66	1542.41
405.85	1640.72
406.05	1760.08
406.24	1643.06
406.43	1631.35
406.62	1720.29
406.81	1795.19
407.00	1713.27
407.20	1729.66
407.39	1703.91
407.58	1696.89
407.77	1785.83
407.96	1778.81
408.15	1771.79
408.34	1739.02
408.54	1853.70
408.73	1823.28
408.92	1802.21
409.11	1930.94
409.30	1963.71
409.49	1902.86
409.68	1928.60
409.87	1914.56
410.07	1954.35
410.26	1926.26
410.45	1982.43
410.64	2015.20
410.83	2017.54
411.02	1989.46
411.21	2043.29
411.40	2092.44
411.59	2146.27
411.78	2080.74
411.98	2099.46
412.17	2134.57
412.36	2186.06
412.55	2146.27
412.74	2300.75
412.93	2258.62
413.12	2310.11
413.31	2392.03
413.50	2300.75
413.69	2270.32
413.88	2289.04
414.07	2406.07
414.26	2291.38
414.45	2420.11
414.64	2422.45
414.83	2429.48
415.02	2450.54
415.22	2605.02
415.41	2485.65
415.60	2504.37
415.79	2616.72
415.98	2675.23
416.17	2583.95
416.36	2635.44
416.55	2572.25
416.74	2544.16
416.93	2637.78
417.12	2759.49
417.31	2813.32
417.50	2778.22
417.69	2726.72
417.88	2841.41
418.07	2832.05
418.26	2813.32
418.45	2864.82
418.64	2780.56
418.83	2995.89
419.02	2869.50
419.21	3019.29
419.39	2963.12
419.58	3075.46
419.77	2883.54
419.96	3030.99
420.15	3042.70
420.34	2944.39
420.53	3103.55
420.72	3054.40
420.91	3026.31
421.10	3021.63
421.29	3103.55
421.48	3033.33
421.67	3236.96
421.86	3082.49
422.05	3061.42
422.24	3148.02
422.43	3311.86
422.61	3199.51
422.80	3183.13
422.99	3241.64
423.18	3251.00
423.37	3386.76
423.56	3300.16
423.75	3276.75
423.94	3295.47
424.13	2998.23
424.32	3082.49
424.50	3330.58
424.69	3363.35
424.88	3183.13
425.07	3246.32
425.26	3258.03
425.45	3260.37
425.64	3220.58
425.83	3272.07
426.01	3272.07
426.20	3342.28
426.39	3365.69
426.58	3330.58
426.77	3311.86
426.96	3316.54
427.15	3400.80
427.33	3461.65
427.52	3421.86
427.71	3487.40
427.90	3435.91
428.09	3510.80
428.28	3616.13
428.46	3456.97
428.65	3571.66
428.84	3676.98
429.03	3609.11
429.22	3510.80
429.40	3588.04
429.59	3529.53
429.78	3513.14
429.97	3473.36
430.16	3681.66
430.34	3695.71
430.53	3705.07
430.72	3740.18
430.91	3632.51
431.10	3775.28
431.28	3716.77
431.47	3779.97
431.66	3901.67
431.85	3868.91
432.03	3843.16
432.22	3868.91
432.41	3962.53
432.60	3882.95
432.79	3955.51
432.97	3878.27
433.16	3992.95
433.35	3840.82
433.54	4063.17
433.72	4014.02
433.91	3955.51
434.10	4011.68
434.28	3929.76
434.47	4025.72
434.66	4184.88
434.85	3941.46
435.03	4205.94
435.22	4044.45
435.41	4292.54
435.59	4159.13
435.78	4227.01
435.97	4117.00
436.16	4126.36
436.34	4224.67
436.53	4231.69
436.72	4264.46
436.90	4215.30
437.09	4313.61
437.28	4154.45
437.46	4308.93
437.65	4250.41
437.84	4468.08
438.02	4344.03
438.21	4386.16
438.40	4325.31
438.58	4547.66
438.77	4521.92
438.96	4585.11
439.14	4645.96
439.33	4711.50
439.52	4753.63
439.70	4690.43
439.89	4816.82
440.08	4774.69
440.26	4762.99
440.45	4744.27
440.63	4924.49
440.82	4840.23
441.01	4990.02
441.19	5025.13
441.38	5025.13
441.57	5137.48
441.75	5125.77
441.94	5114.07
442.12	5320.04
442.31	5217.05
442.50	5303.65
442.68	5125.77
442.87	5296.63
443.05	5186.63
443.24	5188.97
443.43	5315.36
443.61	5448.77
443.80	5437.06
443.98	5210.03
444.17	5097.69
444.35	5313.02
444.54	5355.15
444.73	5380.89
444.91	5287.27
445.10	5558.77
445.28	5343.44
445.47	5359.83
445.65	5392.59
445.84	5469.83
446.02	5521.32
446.21	5416.00
446.39	5392.59
446.58	5420.68
446.77	5500.26
446.95	5380.89
447.14	5362.17
447.32	5703.89
447.51	5568.13
447.69	5575.16
447.88	5423.02
448.06	5495.58
448.25	5511.96
448.43	5394.93
448.62	5479.19
448.80	5472.17
448.99	5575.16
449.17	5638.35
449.36	5645.37
449.54	5731.97
449.73	5701.54
449.91	5858.36
450.10	5753.04
450.28	6010.50
450.46	5991.77
450.65	5788.14
450.83	5851.34
451.02	5823.25
451.20	5919.21
451.39	5930.92
451.57	5919.21
451.76	5818.57
451.94	6047.94
452.13	6026.88
452.31	6059.65
452.49	5991.77
452.68	6188.38
452.86	5959.00
453.05	6083.05
453.23	6129.86
453.42	6162.63
453.60	6174.33
453.78	6108.80
453.97	5921.56
454.15	5930.92
454.34	6066.67
454.52	6188.38
454.70	6235.19
454.89	6361.58
455.07	6270.30
455.26	6354.55
455.44	6359.24
455.62	6394.34
455.81	6338.17
455.99	6595.63
456.17	6443.49
456.36	6410.73
456.54	6387.32
456.73	6485.62
456.91	6794.58
457.09	6658.82
457.28	6745.42
457.46	6569.88
457.64	6810.96
457.83	6724.36
458.01	6560.52
458.19	6960.75
458.38	6841.39
458.56	6988.84
458.74	6850.75
458.93	6736.06
459.11	6944.37
459.29	6902.24
459.48	7002.88
459.66	6890.54
459.84	6967.77
460.03	7152.68
460.21	7082.46
460.39	6960.75
460.57	6902.24
460.76	7166.72
460.94	7133.95
461.12	7091.82
461.31	7274.38
461.49	7103.53
461.67	7321.20
461.85	7178.42
462.04	7234.60
462.22	7824.41
462.40	7222.89
462.59	7300.13
462.77	7442.90
462.95	7506.10
463.13	7452.27
463.32	7463.97
463.50	7449.93
463.68	7520.14
463.86	7534.18
464.05	7379.71
464.23	7562.27
464.41	7714.41
464.59	7499.08
464.78	7632.49
464.96	7618.44
465.14	7604.40
465.32	7637.17
465.50	7763.56
465.69	7695.68
465.87	7770.58
466.05	7592.70
466.23	7644.19
466.41	7847.82
466.60	7948.46
466.78	7786.96
466.96	7735.47
467.14	7777.60
467.32	7932.08
467.51	8149.75
467.69	7805.69
467.87	7812.71
468.05	7967.18
468.23	7843.14
468.41	8142.72
468.60	8018.68
468.78	8105.28
468.96	8004.63
469.14	8234.00
469.32	8395.50
469.50	7960.16
469.69	8107.62
469.87	8461.04
470.05	8210.60
470.23	8461.04
470.41	8365.07
470.59	8409.54
470.77	8423.59
470.95	8486.78
471.14	8519.55
471.32	8430.61
471.50	8571.04
471.68	8634.24
471.86	8716.16
472.04	8837.86
472.22	8795.73
472.40	8615.51
472.58	8627.21
472.77	8912.76
472.95	8926.80
473.13	9128.09
473.31	8936.17
473.49	9006.38
473.67	8915.10
473.85	8933.82
474.03	9352.78
474.21	9139.79
474.39	9193.62
474.57	9366.82
474.75	9523.64
474.93	9397.25
475.12	9610.24
475.30	9710.88
475.48	9472.15
475.66	9582.15
475.84	9753.01
476.02	9584.49
476.20	9633.64
476.38	9961.32
476.56	10218.78
476.74	10101.75
476.92	9973.02
477.10	9834.93
477.28	10017.49
477.46	10331.12
477.64	10183.67
477.82	10249.21
478.00	10604.97
478.18	10597.95
478.36	10441.13
478.54	10951.37
478.72	10721.99
478.90	10668.16
479.08	11000.52
479.26	11178.40
479.44	10998.18
479.62	11346.92
479.80	11267.34
479.98	11208.83
480.16	11506.07
480.34	11428.84
480.52	11655.87
480.70	11637.14
480.88	11295.43
481.06	11721.40
481.24	11850.13
481.41	12060.78
481.59	11939.07
481.77	12053.76
481.95	12299.52
482.13	12594.42
482.31	12430.59
482.49	12697.41
482.67	12549.95
482.85	12996.99
483.03	13048.49
483.21	13022.74
483.39	12957.21
483.57	13095.30
483.74	13270.84
483.92	13322.33
484.10	13261.48
484.28	13741.29
484.46	13778.73
484.64	13797.46
484.82	13673.41
485.00	13923.85
485.18	14221.10
485.35	14338.12
485.53	14420.04
485.71	14317.06
485.89	14822.61
486.07	14342.80
486.25	14736.01
486.43	14902.19
486.61	14808.57
486.78	15021.56
486.96	14860.06
487.14	15194.76
487.32	15138.58
487.50	15138.58
487.68	15829.04
487.85	15894.58
488.03	16215.23
488.21	16116.93
488.39	15981.18
488.57	16053.73
488.75	16262.04
488.92	16561.63
489.10	16793.34
489.28	16727.81
489.46	16947.82
489.64	16723.13
489.81	17142.08
489.99	17680.41
490.17	17535.29
490.35	17689.77
490.53	17717.86
490.70	17631.26
490.88	17830.20
491.06	18183.62
491.24	18171.92
491.41	18333.42
491.59	18192.98
491.77	18242.14
491.95	18408.31
492.13	18253.84
492.30	18485.55
492.48	18747.69
492.66	18930.25
492.84	18860.04
493.01	19421.77
493.19	19222.82
493.37	19138.56
493.54	19578.58
493.72	19707.31
493.90	19449.85
494.08	19520.07
494.25	19754.12
494.43	19836.04
494.61	20037.33
494.79	20437.56
494.96	20163.72
495.14	20421.17
495.32	20470.33
495.49	20603.74
495.67	20781.62
495.85	21053.12
496.02	21312.92
496.20	21273.13
496.38	21296.53
496.55	21345.69
496.73	21769.32
496.91	21582.08
497.09	21610.17
497.26	21781.03
497.44	21678.04
497.62	22022.10
497.79	22630.64
497.97	22574.47
498.14	22579.15
498.32	22710.22
498.50	22302.96
498.67	22597.87
498.85	22593.19
499.03	22714.90
499.20	22834.27
499.38	22897.46
499.56	23033.21
499.73	23396.00
499.91	23096.41
500.08	23756.44
500.26	23475.57
500.44	23044.91
500.61	23541.11
500.79	23330.46
500.97	23751.76
501.14	23967.09
501.32	24243.27
501.49	24203.48
501.67	24355.61
501.84	24615.41
502.02	24046.66
502.20	24264.33
502.37	24315.83
502.55	24549.88
502.72	24835.42
502.90	24870.53
503.07	24549.88
503.25	24943.09
503.43	24709.04
503.60	25366.73
503.78	25144.38
503.95	25034.37
504.13	25408.86
504.30	25294.17
504.48	25441.62
504.65	25170.12
504.83	25663.97
505.01	25874.62
505.18	25504.82
505.36	25715.47
505.53	25933.14
505.71	25914.41
505.88	26092.29
506.06	25991.65
506.23	26260.81
506.41	26225.70
506.58	26122.72
506.76	26497.20
506.93	26394.22
507.11	26609.55
507.28	26768.71
507.46	27185.32
507.63	26960.63
507.81	26981.70
507.98	26895.10
508.16	27136.17
508.33	27199.37
508.50	27494.27
508.68	27175.96
508.85	27119.79
509.03	27524.70
509.20	27414.69
509.38	27775.14
509.55	27623.00
509.73	27793.86
509.90	27854.72
510.08	27990.47
510.25	28130.90
510.42	28276.01
510.60	28074.73
510.77	28575.60
510.95	28421.13
511.12	28212.82
511.30	28683.27
511.47	28444.53
511.64	28444.53
511.82	28814.34
511.99	28617.73
512.17	28779.23
512.34	28432.83
512.51	29134.99
512.69	29472.03
512.86	29362.02
513.04	29088.18
513.21	29294.14
513.38	29553.94
513.56	29692.04
513.73	29378.40
513.90	29582.03
514.08	29621.82
514.25	29706.08
514.43	30153.12
514.60	30122.69
514.77	30490.16
514.95	30431.65
515.12	30230.36
515.29	30075.88
515.47	30260.79
515.64	30471.43
515.81	30445.69
515.99	30705.49
516.16	30656.34
516.33	30780.39
516.51	31166.57
516.68	30593.14
516.85	31051.89
517.03	31021.46
517.20	31147.85
517.37	30953.58
517.54	31395.95
517.72	31402.97
517.89	31035.50
518.06	31208.70
518.24	31260.20
518.41	31414.67
518.58	31201.68
518.75	31559.78
518.93	31807.88
519.10	31543.40
519.27	31952.99
519.45	31683.83
519.62	31669.79
519.79	32371.95
519.96	32383.65
520.14	32177.68
520.31	32060.66
520.48	32559.19
520.65	32283.01
520.83	32830.69
521.00	32606.00
521.17	32339.18
521.34	32720.69
521.52	32884.53
521.69	32734.73
521.86	33097.52
522.03	32765.16
522.20	33354.97
522.38	33305.82
522.55	33017.94
522.72	33509.45
522.89	33589.03
523.07	33261.35
523.24	33483.70
523.41	33476.68
523.58	33401.79
523.75	34319.28
523.92	33874.57
524.10	34019.69
524.27	34169.48
524.44	34029.05
524.61	34003.30
524.78	34263.10
524.96	34429.28
525.13	34122.67
525.30	34539.29
525.47	34529.92
525.64	34178.84
525.81	34714.83
525.98	34775.68
526.16	34373.11
526.33	34464.39
526.50	34511.20
526.67	34534.60
526.84	34850.58
527.01	34527.58
527.18	34981.65
527.36	35007.39
527.53	34892.71
527.70	35360.81
527.87	35035.48
528.04	35236.77
528.21	35152.51
528.38	35306.98
528.55	35005.05
528.72	35243.79
528.89	35213.36
529.07	35337.41
529.24	35662.74
529.41	35627.63
529.58	35543.38
529.75	35842.96
529.92	35793.81
530.09	35835.94
530.26	35929.56
530.43	35924.88
530.60	35660.40
530.77	36020.84
530.94	36196.38
531.11	36245.54
531.28	36128.51
531.46	35840.62
531.63	36161.28
531.80	36067.66
531.97	36584.91
532.14	36411.71
532.31	36252.56
532.48	36598.96
532.65	36896.20
532.82	36720.66
532.99	36002.12
533.16	36563.85
533.33	36708.96
533.50	36884.50
533.67	36687.90
533.84	36828.33
534.01	36601.30
534.18	36823.65
534.35	37361.97
534.52	37223.88
534.69	37446.23
534.86	37759.86
535.03	37284.73
535.20	37167.71
535.37	37818.38
535.54	37701.35
535.71	37036.64
535.88	37858.17
536.05	38122.65
536.22	37525.81
536.38	37682.62
536.55	37439.21
536.72	37900.29
536.89	37923.70
537.06	37937.74
537.23	38206.90
537.40	37479.00
537.57	37930.72
537.74	37787.95
537.91	38342.66
538.08	37982.21
538.25	37785.61
538.42	38302.87
538.59	38323.93
538.75	38274.78
538.92	38401.17
539.09	38689.06
539.26	38799.06
539.43	38483.09
539.60	38494.79
539.77	38450.32
539.94	38455.00
540.11	38955.88
540.28	38700.76
540.44	38576.71
540.61	38778.00
540.78	38480.75
540.95	38972.26
541.12	38581.39
541.29	38749.91
541.46	38958.22
541.62	39140.78
541.79	39335.04
541.96	38817.78
542.13	39239.08
542.30	39573.78
542.47	39175.89
542.63	39332.70
542.80	39318.66
542.97	39634.63
543.14	40084.01
543.31	39459.09
543.48	39737.62
543.64	40446.80
543.81	40093.38
543.98	39805.49
544.15	40095.72
544.32	40320.41
544.48	40657.45
544.65	39852.30
544.82	40250.19
544.99	40123.80
545.16	40158.91
545.32	40095.72
545.49	40760.43
545.66	40488.93
545.83	40484.25
546.00	40737.02
546.16	40392.97
546.33	40095.72
546.50	40603.61
546.67	40868.09
546.83	39847.62
547.00	40884.48
547.17	40311.05
547.34	40472.54
547.50	40762.77
547.67	41228.54
547.84	40924.27
548.00	41160.66
548.17	41111.51
548.34	41146.62
548.51	41469.61
548.67	41097.47
548.84	41076.40
549.01	41151.30
549.18	40877.46
549.34	41172.36
549.51	41408.76
549.68	41338.54
549.84	41345.56
550.01	41649.83
550.18	41385.35
550.34	41331.52
550.51	41656.85
550.68	41516.42
550.84	41677.92
551.01	41979.85
551.18	41521.10
551.34	41731.75
551.51	42071.13
551.68	41619.41
551.84	41820.69
552.01	41567.91
552.18	41937.72
552.34	41605.36
552.51	41715.37
552.68	41631.11
552.84	41720.05
553.01	42326.25
553.18	41893.25
553.34	42234.97
553.51	41638.13
553.67	42181.13
553.84	42059.43
554.01	41914.31
554.17	42274.76
554.34	42314.55
554.51	42312.20
554.67	42501.79
554.84	42593.07
555.00	42370.72
555.17	42181.13
555.33	42997.98
555.50	42370.72
555.67	42281.78
555.83	42267.73
556.00	42775.63
556.16	42997.98
556.33	42679.67
556.50	42754.57
556.66	42782.65
556.83	42770.95
556.99	43353.74
557.16	43009.68
557.32	43480.13
557.49	42761.59
557.65	43016.71
557.82	42710.10
557.98	42777.97
558.15	43370.13
558.32	43093.94
558.48	42766.27
558.65	43210.97
558.81	43068.20
558.98	43330.34
559.14	42885.64
559.31	42995.64
559.47	43222.67
559.64	43838.23
559.80	43000.32
559.97	43508.22
560.13	43372.47
560.30	42951.17
560.46	43501.20
560.63	43189.91
560.79	43594.82
560.96	43548.01
561.12	43990.37
561.29	43632.27
561.45	43615.88
561.61	43239.06
561.78	43519.92
561.94	43681.42
562.11	43587.80
562.27	43814.83
562.44	43679.08
562.60	43578.43
562.77	44072.29
562.93	43330.34
563.10	43763.34
563.26	43430.98
563.42	43746.95
563.59	43807.81
563.75	43681.42
563.92	43615.88
564.08	43878.02
564.24	44135.48
564.41	44170.59
564.57	43599.50
564.74	43934.20
564.90	43349.06
565.07	43489.49
565.23	43791.42
565.39	44086.33
565.56	43999.73
565.72	43840.57
565.88	44259.53
566.05	43969.30
566.21	44219.74
566.38	44020.80
566.54	44299.32
566.70	44044.20
566.87	44147.18
567.03	43845.26
567.19	44559.12
567.36	44149.53
567.52	43861.64
567.68	44470.18
567.85	44182.29
568.01	44552.10
568.17	43744.61
568.34	44318.04
568.50	44385.92
568.66	43950.58
568.83	44072.29
568.99	44137.82
569.15	43955.26
569.32	44198.68
569.48	44151.87
569.64	44975.73
569.81	44645.72
569.97	44744.02
570.13	44516.99
570.30	44362.51
570.46	44877.43
570.62	44493.58
570.78	44858.71
570.95	44680.83
571.11	44502.95
571.27	44648.06
571.43	44320.38
571.60	44655.08
571.76	44755.72
571.92	44830.62
572.09	44718.28
572.25	44458.48
572.41	44289.96
572.57	44556.78
572.74	45134.89
572.90	44870.41
573.06	44762.75
573.22	44856.37
573.38	45120.85
573.55	44751.04
573.71	44964.03
573.87	44781.47
574.03	44839.98
574.20	44776.79
574.36	44589.55
574.52	45006.16
574.68	44905.52
574.84	45062.33
575.01	45123.19
575.17	45111.49
575.33	44783.81
575.49	44900.84
575.65	44938.29
575.82	44416.35
575.98	44275.91
576.14	44935.95
576.30	45146.59
576.46	44865.73
576.62	44896.16
576.79	44816.58
576.95	44484.22
577.11	44825.94
577.27	44804.88
577.43	44992.12
577.59	44823.60
577.75	44570.82
577.92	44718.28
578.08	44940.63
578.24	44734.66
578.40	44893.82
578.56	45036.59
578.72	45029.57
578.88	44870.41
579.04	45198.09
579.21	44519.33
579.37	44591.89
579.53	45191.06
579.69	44676.15
579.85	44947.65
580.01	44921.90
580.17	45052.97
580.33	45216.81
580.49	44680.83
580.65	44821.26
580.82	45305.75
580.98	45116.17
581.14	45013.18
581.30	44949.99
581.46	44882.11
581.62	44755.72
581.78	44982.76
581.94	45029.57
582.10	44879.77
582.26	45167.66
582.42	45308.09
582.58	45109.14
582.74	45027.23
582.90	44715.93
583.06	45464.91
583.22	44868.07
583.38	44980.42
583.54	45738.75
583.70	45174.68
583.86	45429.80
584.02	44783.81
584.18	45563.21
584.34	45841.73
584.50	45478.95
584.66	45467.25
584.82	45265.96
584.98	45607.68
585.14	45689.60
585.30	44996.80
585.46	45113.83
585.62	45153.62
585.78	44821.26
585.94	44587.21
586.10	45528.10
586.26	44746.36
586.42	45343.20
586.58	45371.28
586.74	45001.48
586.90	45308.09
587.06	45289.37
587.22	45055.31
587.38	45247.24
587.54	45205.11
587.70	45546.82
587.86	45453.20
588.02	45230.85
588.18	45158.30
588.34	45160.64
588.49	45345.54
588.65	45141.91
588.81	45001.48
588.97	45586.61
589.13	45251.92
589.29	45914.29
589.45	45539.80
589.61	45272.98
589.77	45123.19
589.93	45605.34
590.08	45670.87
590.24	45500.01
590.40	45811.31
590.56	46136.64
590.72	45579.59
590.88	45146.59
591.04	45448.52
591.20	46110.89
591.35	45532.78
591.51	46017.27
591.67	45483.63
591.83	45525.76
591.99	45516.40
592.15	45748.11
592.31	45935.35
592.46	45815.99
592.62	45979.82
592.78	45951.74
592.94	46136.64
593.10	45956.42
593.26	46286.43
593.41	45827.69
593.57	45801.94
593.73	45858.12
593.89	46588.36
594.05	46230.26
594.20	46167.07
594.36	46574.32
594.52	45993.87
594.68	45771.52
594.84	45991.53
594.99	46440.91
595.15	45968.12
595.31	46124.94
595.47	45806.62
595.62	45373.63
595.78	45750.45
595.94	46190.47
596.10	45933.01
596.25	46117.92
596.41	46260.69
596.57	45787.90
596.73	46321.54
596.88	45900.25
597.04	46237.28
597.20	46075.79
597.36	45991.53
597.51	46363.67
597.67	46059.40
597.83	45605.34
597.99	45883.86
598.14	46047.70
598.30	46232.60
598.46	46014.93
598.61	46370.69
598.77	46398.78
598.93	46220.90
599.09	45883.86
599.24	46389.42
599.40	46007.91
599.56	46146.00
599.71	46401.12
599.87	46625.81
600.03	46377.72
600.18	46326.22
600.34	46124.94
600.50	46213.88
600.65	46202.18
600.81	46665.60
600.97	45989.19
601.12	46351.97
601.28	46246.65
601.44	46504.10
601.59	45916.63
601.75	45998.55
601.91	46274.73
602.06	45923.65
602.22	46080.47
602.37	46155.36
602.53	45846.41
602.69	46361.33
602.84	45661.51
603.00	46188.13
603.16	46064.08
603.31	46532.19
603.47	45951.74
603.62	46183.45
603.78	46614.11
603.94	45722.37
604.09	46012.59
604.25	45954.08
604.40	46061.74
604.56	45720.02
604.71	46752.20
604.87	46082.81
605.03	45787.90
605.18	46131.96
605.34	46115.58
605.49	46382.40
605.65	46040.68
605.80	45675.55
605.96	45713.00
606.12	45876.84
606.27	46185.79
606.43	45909.61
606.58	45820.67
606.74	46436.23
606.89	45970.46
607.05	46206.86
607.20	46244.30
607.36	45911.95
607.51	45799.60
607.67	45544.48
607.82	45858.12
607.98	46064.08
608.13	45801.94
608.29	45904.93
608.44	45911.95
608.60	45736.41
608.75	46321.54
608.91	45860.46
609.06	45441.50
609.22	45890.88
609.37	45553.85
609.53	45986.85
609.68	46150.68
609.84	46204.52
609.99	45792.58
610.15	46071.10
610.30	46134.30
610.46	45879.18
610.61	45642.79
610.76	46183.45
610.92	45738.75
611.07	45516.40
611.23	45500.01
611.38	45614.70
611.54	46309.84
611.69	46059.40
611.84	46206.86
612.00	45507.04
612.15	45340.86
612.31	45556.19
612.46	45233.19
612.62	45380.65
612.77	45769.18
612.92	45617.04
613.08	45514.06
613.23	45677.90
613.39	45368.94
613.54	45448.52
613.69	45483.63
613.85	45165.32
614.00	45209.79
614.15	45322.13
614.31	44994.46
614.46	45619.38
614.62	44861.05
614.77	45186.38
614.92	45722.37
615.08	45610.02
615.23	45422.78
615.38	45574.91
615.54	45570.23
615.69	45371.28
615.84	45050.63
616.00	45312.77
616.15	45345.54
616.30	45518.74
616.46	45254.26
616.61	45382.99
616.76	45322.13
616.92	45090.42
617.07	45134.89
617.22	45368.94
617.37	45034.25
617.53	45179.36
617.68	45272.98
617.83	44868.07
617.99	45492.99
618.14	44975.73
618.29	44818.92
618.45	44931.26
618.60	45308.09
618.75	45036.59
618.90	44975.73
619.06	44666.78
619.21	44905.52
619.36	45364.26
619.51	44704.23
619.67	44549.76
619.82	44402.30
619.97	44767.43
620.12	45195.74
620.28	44793.17
620.43	45038.93
620.58	45439.16
620.73	44673.81
620.89	44839.98
621.04	44591.89
621.19	44711.25
621.34	44685.51
621.49	44343.79
621.65	44865.73
621.80	44989.78
621.95	45069.36
622.10	44737.00
622.25	44458.48
622.41	44116.76
622.56	44608.27
622.71	44760.40
622.86	44715.93
623.01	44507.63
623.16	44659.76
623.32	44196.34
623.47	44737.00
623.62	44414.01
623.77	44369.54
623.92	44725.30
624.07	44013.77
624.23	44205.70
624.38	44116.76
624.53	44048.88
624.68	43517.58
624.83	44067.61
624.98	44247.83
625.13	43927.17
625.29	43903.77
625.44	44229.10
625.59	44037.18
625.74	43922.49
625.89	43847.60
626.04	44023.14
626.19	43732.91
626.34	43936.54
626.49	43339.70
626.65	43388.85
626.80	43999.73
626.95	43629.93
627.10	43213.31
627.25	44156.55
627.40	44105.06
627.55	43587.80
627.70	43105.65
627.85	44069.95
628.00	43264.80
628.15	43454.39
628.30	43178.20
628.45	43175.86
628.60	43435.66
628.76	43388.85
628.91	43704.82
629.06	43353.74
629.21	43201.61
629.36	42890.32
629.51	43466.09
629.66	43533.96
629.81	43360.76
629.96	43482.47
630.11	43129.05
630.26	42974.58
630.41	43227.35
630.56	43346.72
630.71	43002.66
630.86	43084.58
631.01	42773.29
631.16	42670.31
631.31	43316.29
631.46	42925.42
631.61	43435.66
631.76	43196.93
631.91	43398.21
632.06	43271.82
632.21	42733.50
632.36	43578.43
632.51	42738.18
632.66	43028.41
632.81	42747.54
632.96	43007.34
633.10	42738.18
633.25	42962.87
633.40	42543.92
633.55	42579.03
633.70	43049.47
633.85	42525.19
634.00	42459.66
634.15	42520.51
634.30	42567.32
634.45	42747.54
634.60	42373.06
634.75	43124.37
634.90	42637.54
635.05	42845.85
635.19	42504.13
635.34	42609.45
635.49	42581.37
635.64	42784.99
635.79	42707.76
635.94	42548.60
636.09	42672.65
636.24	42405.83
636.39	42518.17
636.53	42298.16
636.68	42356.67
636.83	41832.39
636.98	41993.89
637.13	41666.22
637.28	42007.94
637.43	42047.72
637.57	42204.54
637.72	41851.12
637.87	41869.84
638.02	41792.61
638.17	41869.84
638.32	42429.23
638.46	41455.57
638.61	41598.34
638.76	41696.64
638.91	41808.99
639.06	41808.99
639.20	41532.81
639.35	41247.26
639.50	41574.94
639.65	42185.82
639.80	41446.21
639.94	42052.41
640.09	41846.44
640.24	41343.22
640.39	41256.62
640.54	41090.44
640.68	41474.29
640.83	41600.68
640.98	41532.81
641.13	41734.09
641.27	41518.76
641.42	41528.13
641.57	40870.43
641.72	41439.18
641.86	41434.50
642.01	41057.68
642.16	41172.36
642.31	41060.02
642.45	41095.13
642.60	40811.92
642.75	40849.37
642.90	40779.15
643.04	41319.82
643.19	41085.76
643.34	41165.34
643.48	40825.96
643.63	40924.27
643.78	41268.33
643.93	40914.90
644.07	41085.76
644.22	41361.95
644.37	40950.01
644.51	41053.00
644.66	41034.27
644.81	40842.35
644.95	40982.78
645.10	40865.75
645.25	41001.50
645.39	40685.53
645.54	40517.01
645.69	40664.47
645.83	40294.66
645.98	40739.36
646.13	40832.99
646.27	40313.39
646.42	40135.51
646.57	40928.95
646.71	40732.34
646.86	41106.83
647.00	40800.22
647.15	40467.86
647.30	40669.15
647.44	40498.29
647.59	40268.92
647.74	40390.62
647.88	40023.16
648.03	40517.01
648.17	40472.54
648.32	40428.07
648.47	40680.85
648.61	40264.24
648.76	40203.38
648.90	40540.42
649.05	40336.79
649.20	39938.90
649.34	40236.15
649.49	40392.97
649.63	40320.41
649.78	40428.07
649.92	40243.17
650.07	40664.47
650.21	40322.75
650.36	40128.48
650.51	40205.72
650.65	40404.67
650.80	39997.41
650.94	39887.41
651.09	40488.93
651.23	39718.89
651.38	40013.80
651.52	39564.42
651.67	39889.75
651.81	40039.54
651.96	39878.05
652.10	39737.62
652.25	39674.42
652.39	40151.89
652.54	39461.43
652.68	39515.26
652.83	39604.20
652.97	40088.70
653.12	39555.05
653.26	39407.60
653.41	39641.65
653.55	39875.71
653.70	39332.70
653.84	39749.32
653.99	39981.03
654.13	39681.44
654.27	39339.72
654.42	39601.86
654.56	38972.26
654.71	39449.73
654.85	39281.21
655.00	39463.77
655.14	39400.58
655.29	39564.42
655.43	39927.20
655.57	38848.21
655.72	38981.62
655.86	39051.84
656.01	38878.64
656.15	38925.45
656.30	38976.94
656.44	39154.82
656.58	39482.50
656.73	39040.14
656.87	38871.62
657.01	38923.11
657.16	38955.88
657.30	38422.23
657.45	39093.97
657.59	38553.30
657.73	38466.70
657.88	38974.60
658.02	39201.63
658.16	39124.40
658.31	38756.93
658.45	38684.37
658.60	38878.64
658.74	38529.90
658.88	38335.63
659.03	38637.56
659.17	38389.47
659.31	38216.27
659.46	38108.60
659.60	38447.98
659.74	38251.38
659.89	38199.88
660.03	37755.18
660.17	38391.81
660.32	37769.22
660.46	38176.48
660.60	37668.58
660.74	38019.66
660.89	38209.25
661.03	37488.36
661.17	37516.45
661.32	37387.72
661.46	37677.94
661.60	37088.13
661.74	37383.04
661.89	37942.42
662.03	37408.78
662.17	37357.29
662.31	37748.16
662.46	37174.73
662.60	37497.72
662.74	37237.92
662.88	36910.25
663.03	37064.72
663.17	37102.17
663.31	36739.39
663.45	37001.53
663.60	36992.17
663.74	37017.91
663.88	37097.49
664.02	37055.36
664.17	36870.46
664.31	36533.42
664.45	36243.20
664.59	36727.69
664.73	36634.06
664.88	36643.43
665.02	36472.57
665.16	36013.82
665.30	36519.38
665.44	36362.56
665.59	36037.23
665.73	36072.34
665.87	36046.59
666.01	36282.98
666.15	36261.92
666.29	36140.21
666.44	36481.93
666.58	36072.34
666.72	35522.31
666.86	35754.02
667.00	35931.90
667.14	35669.76
667.28	35697.85
667.43	35529.33
667.57	35587.85
667.71	35384.22
667.85	35604.23
667.99	35658.06
668.13	35037.82
668.27	34859.94
668.41	35140.80
668.56	34747.59
668.70	34375.45
668.84	34646.95
668.98	35098.67
669.12	34771.00
669.26	34976.97
669.40	34888.03
669.54	34742.91
669.68	34822.49
669.82	34314.59
669.96	34038.41
670.10	34169.48
670.25	34511.20
670.39	34110.97
670.53	34139.05
670.67	34171.82
670.81	34649.29
670.95	33972.88
671.09	34244.38
671.23	33715.42
671.37	34384.81
671.51	33909.68
671.65	33696.69
671.79	33755.21
671.93	33675.63
672.07	33647.54
672.21	33343.27
672.35	33757.55
672.49	33717.76
672.63	33322.21
672.77	33233.27
672.91	33378.38
673.05	32753.46
673.19	32938.36
673.33	33003.89
673.47	32790.91
673.61	32404.72
673.75	32165.98
673.89	32671.54
674.03	32327.48
674.17	32414.08
674.31	32039.59
674.45	32170.66
674.59	32425.78
674.73	32144.92
674.87	32173.00
675.01	31915.54
675.15	31735.32
675.29	31744.69
675.43	31700.22
675.56	31489.57
675.70	31594.89
675.84	31632.34
675.98	30726.55
676.12	31297.64
676.26	31157.21
676.40	31131.47
676.54	30984.01
676.68	31096.36
676.82	30658.68
676.96	30953.58
677.10	31061.25
677.23	30948.90
677.37	30323.98
677.51	30504.20
677.65	30253.76
677.79	30553.35
677.93	30225.68
678.07	30347.39
678.21	30551.01
678.34	29729.48
678.48	29525.86
678.62	29755.23
678.76	29769.27
678.90	29610.12
679.04	29757.57
679.18	29460.32
679.31	29429.90
679.45	28922.00
679.59	29027.32
679.73	29163.08
679.87	29099.88
680.00	28781.57
680.14	28709.01
680.28	29015.62
680.42	28994.56
680.56	28610.71
680.70	28334.53
680.83	28107.49
680.97	28236.22
681.11	28142.60
681.25	27915.57
681.39	27669.81
681.52	27744.71
681.66	27407.67
681.80	27391.29
681.94	27264.90
682.07	27386.61
682.21	27292.99
682.35	27054.25
682.49	27042.55
682.62	27197.02
682.76	27267.24
682.90	26712.53
683.04	26906.80
683.17	26883.39
683.31	26663.38
683.45	26218.68
683.59	26015.05
683.72	26368.48
683.86	26141.44
684.00	25862.92
684.13	26295.92
684.27	25947.18
684.41	25685.04
684.55	25825.47
684.68	25799.73
684.82	25628.87
684.96	25799.73
685.09	25710.78
685.23	25570.35
685.37	25654.61
685.50	25472.05
685.64	24922.02
685.78	25193.53
685.91	25083.52
686.05	24776.91
686.19	24584.99
686.32	24587.33
686.46	24154.33
686.60	24229.23
686.73	24257.31
686.87	24339.23
687.01	24161.35
687.14	24304.12
687.28	23477.91
687.42	24072.41
687.55	24084.11
687.69	23981.13
687.82	23623.03
687.96	23337.48
688.10	23557.49
688.23	23594.94
688.37	23428.76
688.50	23445.15
688.64	22948.95
688.78	23297.69
688.91	23063.64
689.05	23283.65
689.18	22560.42
689.32	22553.40
689.46	22537.02
689.59	22476.16
689.73	22623.62
689.86	22597.87
690.00	22342.75
690.13	22258.49
690.27	21984.65
690.41	22359.14
690.54	21879.33
690.68	21532.93
690.81	21956.57
690.95	21827.84
691.08	21495.48
691.22	21460.37
691.35	21422.92
691.49	21493.14
691.62	21451.01
691.76	20884.60
691.89	20877.58
692.03	20596.71
692.16	20596.71
692.30	20676.29
692.43	20549.90
692.57	20395.43
692.70	20393.09
692.84	20369.68
692.97	20142.65
693.11	20194.14
693.24	19756.46
693.38	19796.25
693.51	20013.92
693.65	19674.54
693.78	19613.69
693.92	19389.00
694.05	19646.46
694.19	19639.44
694.32	19431.13
694.45	19761.14
694.59	19260.27
694.72	19655.82
694.86	18970.04
694.99	18843.65
695.13	18911.53
695.26	18478.53
695.39	18333.42
695.53	18733.65
695.66	18691.52
695.80	18380.23
695.93	18824.93
696.07	18288.95
696.20	18071.28
696.33	18019.78
696.47	17900.42
696.60	17933.18
696.73	17874.67
696.87	17825.52
697.00	17874.67
697.14	17661.68
697.27	17345.71
697.40	17591.47
697.54	17228.68
697.67	17348.05
697.80	17348.05
697.94	17214.64
698.07	17348.05
698.21	17261.45
698.34	17261.45
698.47	16868.24
698.61	16627.17
698.74	16585.04
698.87	16346.30
699.01	16276.09
699.14	16552.27
699.27	16510.14
699.40	16196.51
699.54	16257.36
699.67	16105.23
699.80	16210.55
699.94	16194.17
700.07	16292.47
700.20	15889.90
700.34	15927.35
700.47	15733.08
700.60	15875.85
700.73	15639.46
700.87	15576.27
701.00	15473.28
701.13	15344.55
701.26	15250.93
701.40	15269.66
701.53	15276.68
701.66	15173.69
701.79	15082.41
701.93	14892.83
702.06	14876.44
702.19	14906.87
702.32	14813.25
702.46	15075.39
702.59	14785.16
702.72	14806.23
702.85	14731.33
702.99	14438.76
703.12	14403.66
703.25	14263.22
703.38	14298.33
703.51	14342.80
703.65	14232.80
703.78	13958.96
703.91	13657.03
704.04	13769.37
704.17	13823.20
704.31	13818.52
704.44	13490.85
704.57	13462.76
704.70	13497.87
704.83	13547.02
704.96	13195.94
705.10	13404.25
705.23	13259.13
>>>>>End Processed Spectral Data<<<<<
