SpectraSuite Data File
++++++++++++++++++++++++++++++++++++
Date: Fri Oct 25 10:43:33 EDT 2013
User: price-jones
Dark Spectrum Present: No
Reference Spectrum Present: No
Number of Sampled Component Spectra: 1
Spectrometers: USB2+H05261
Integration Time (usec): 100000 (USB2+H05261)
Spectra Averaged: 1 (USB2+H05261)
Boxcar Smoothing: 0 (USB2+H05261)
Correct for Electrical Dark: No (USB2+H05261)
Strobe/Lamp Enabled: No (USB2+H05261)
Correct for Detector Non-linearity: No (USB2+H05261)
Correct for Stray Light: No (USB2+H05261)
Number of Pixels in Processed Spectrum: 2048
>>>>>Begin Processed Spectral Data<<<<<
365.73	86.60
365.92	86.60
366.12	86.60
366.32	0.00
366.52	39.79
366.72	74.90
366.91	0.00
367.11	0.00
367.31	2.34
367.51	18.72
367.70	72.56
367.90	58.51
368.10	30.43
368.30	30.43
368.49	0.00
368.69	102.98
368.89	35.11
369.09	11.70
369.28	35.11
369.48	0.00
369.68	65.54
369.87	98.30
370.07	51.49
370.27	60.85
370.47	159.16
370.66	402.57
370.86	414.27
371.06	409.59
371.25	552.37
371.45	468.11
371.65	447.04
371.84	580.45
372.04	388.53
372.24	465.77
372.44	561.73
372.63	533.64
372.83	451.72
373.03	517.26
373.22	524.28
373.42	526.62
373.62	552.37
373.81	512.58
374.01	468.11
374.21	564.07
374.40	599.18
374.60	535.98
374.79	547.69
374.99	566.41
375.19	601.52
375.38	594.50
375.58	594.50
375.78	613.22
375.97	678.76
376.17	676.41
376.37	592.16
376.56	657.69
376.76	622.58
376.95	589.82
377.15	695.14
377.35	643.65
377.54	622.58
377.74	587.47
377.93	559.39
378.13	655.35
378.33	683.44
378.52	648.33
378.72	718.54
378.91	660.03
379.11	603.86
379.31	606.20
379.50	641.31
379.70	582.79
379.89	725.57
380.09	624.92
380.28	741.95
380.48	683.44
380.68	608.54
380.87	702.16
381.07	744.29
381.26	702.16
381.46	730.25
381.65	732.59
381.85	648.33
382.04	641.31
382.24	737.27
382.43	741.95
382.63	653.01
382.83	706.84
383.02	760.67
383.22	788.76
383.41	699.82
383.61	809.83
383.80	751.31
384.00	828.55
384.19	772.38
384.39	821.53
384.58	821.53
384.78	772.38
384.97	802.80
385.17	812.17
385.36	774.72
385.56	772.38
385.75	779.40
385.95	826.21
386.14	940.90
386.34	858.98
386.53	819.19
386.72	847.27
386.92	929.19
387.11	910.47
387.31	901.11
387.50	875.36
387.70	875.36
387.89	915.15
388.09	884.72
388.28	896.43
388.48	863.66
388.67	919.83
388.86	940.90
389.06	884.72
389.25	973.66
389.45	1001.75
389.64	1013.45
389.84	1081.33
390.03	938.55
390.22	1022.81
390.42	978.34
390.61	968.98
390.81	1057.92
391.00	952.60
391.19	1078.99
391.39	1081.33
391.58	1107.07
391.78	1088.35
391.97	1015.79
392.16	1011.11
392.36	1071.97
392.55	997.07
392.75	1015.79
392.94	1041.54
393.13	1011.11
393.33	1018.13
393.52	1027.50
393.71	1128.14
393.91	1146.86
394.10	1064.94
394.29	1130.48
394.49	1107.07
394.68	1167.93
394.88	1153.88
395.07	1245.16
395.26	1259.21
395.46	1203.04
395.65	1249.85
395.84	1210.06
396.04	1193.67
396.23	1242.82
396.42	1188.99
396.62	1266.23
396.81	1165.59
397.00	1207.72
397.19	1301.34
397.39	1331.76
397.58	1444.11
397.77	1359.85
397.97	1371.55
398.16	1416.02
398.35	1420.71
398.55	1549.43
398.74	1514.33
398.93	1579.86
399.12	1502.62
399.32	1490.92
399.51	1509.65
399.70	1591.56
399.90	1516.67
400.09	1554.12
400.28	1720.29
400.47	1647.74
400.67	1661.78
400.86	1696.89
401.05	1687.53
401.24	1621.99
401.44	1666.46
401.63	1783.49
401.82	1657.10
402.01	1661.78
402.21	1837.32
402.40	1762.42
402.59	1739.02
402.78	1820.94
402.97	1732.00
403.17	1795.19
403.36	1799.87
403.55	1827.96
403.74	1844.34
403.93	1846.68
404.13	1937.96
404.32	1849.02
404.51	1757.74
404.70	1858.39
404.89	1825.62
405.09	1952.01
405.28	2036.27
405.47	2008.18
405.66	1935.62
405.85	2031.58
406.05	1987.11
406.24	2005.84
406.43	2113.50
406.62	2172.02
406.81	2160.31
407.00	2115.84
407.20	2001.16
407.39	2090.10
407.58	2253.94
407.77	2118.18
407.96	2132.23
408.15	2319.47
408.34	2155.63
408.54	2218.83
408.73	2279.68
408.92	2253.94
409.11	2305.43
409.30	2326.49
409.49	2333.51
409.68	2319.47
409.87	2359.26
410.07	2340.54
410.26	2436.50
410.45	2396.71
410.64	2490.33
410.83	2626.08
411.02	2473.95
411.21	2654.17
411.40	2614.38
411.59	2537.14
411.78	2684.59
411.98	2628.42
412.17	2663.53
412.36	2635.44
412.55	2836.73
412.74	2813.32
412.93	2724.38
413.12	2729.06
413.31	2792.26
413.50	2857.79
413.69	2832.05
413.88	2967.80
414.07	2923.33
414.26	2930.35
414.45	3012.27
414.64	3005.25
414.83	2878.86
415.02	2981.84
415.22	3166.74
415.41	3054.40
415.60	3117.59
415.79	3344.63
415.98	3234.62
416.17	3272.07
416.36	3269.73
416.55	3197.17
416.74	3393.78
416.93	3272.07
417.12	3262.71
417.31	3314.20
417.50	3314.20
417.69	3471.01
417.88	3442.93
418.07	3449.95
418.26	3351.65
418.45	3468.67
418.64	3562.30
418.83	3613.79
419.02	3555.27
419.21	3669.96
419.39	3555.27
419.58	3536.55
419.77	3595.06
419.96	3599.74
420.15	3885.29
420.34	3801.03
420.53	3698.05
420.72	3866.56
420.91	3829.12
421.10	3852.52
421.29	3843.16
421.48	3974.23
421.67	3899.33
421.86	3866.56
422.05	3845.50
422.24	3761.24
422.43	3747.20
422.61	3922.74
422.80	3850.18
422.99	3894.65
423.18	3875.93
423.37	3953.16
423.56	3943.80
423.75	4145.09
423.94	3927.42
424.13	3728.47
424.32	3742.52
424.50	3915.72
424.69	4051.47
424.88	3955.51
425.07	3859.54
425.26	3948.48
425.45	3948.48
425.64	3946.14
425.83	4219.99
426.01	3992.95
426.20	4021.04
426.39	4051.47
426.58	3997.64
426.77	3962.53
426.96	4011.68
427.15	4060.83
427.33	4156.79
427.52	4074.87
427.71	4189.56
427.90	4159.13
428.09	4196.58
428.28	4182.54
428.46	4210.62
428.65	4163.81
428.84	4255.09
429.03	4241.05
429.22	4156.79
429.40	4173.18
429.59	4131.05
429.78	4067.85
429.97	3964.87
430.16	4018.70
430.34	4140.41
430.53	4327.65
430.72	4175.52
430.91	4159.13
431.10	4470.42
431.28	4535.96
431.47	4561.70
431.66	4805.12
431.85	4517.23
432.03	4596.81
432.22	4753.63
432.41	4557.02
432.60	4603.83
432.79	4667.03
432.97	4592.13
433.16	4805.12
433.35	4489.15
433.54	4704.48
433.72	4592.13
433.91	4765.33
434.10	4713.84
434.28	4877.68
434.47	4713.84
434.66	4851.93
434.85	4971.30
435.03	4957.25
435.22	4901.08
435.41	5090.67
435.59	5104.71
435.78	5022.79
435.97	5291.95
436.16	5219.39
436.34	5268.55
436.53	5036.83
436.72	5418.34
436.90	5212.37
437.09	5198.33
437.28	5050.88
437.46	5193.65
437.65	5247.48
437.84	5261.52
438.02	5240.46
438.21	5219.39
438.40	5153.86
438.58	5214.71
438.77	5432.38
438.96	5350.46
439.14	5577.50
439.33	5664.10
439.52	5696.86
439.70	5675.80
439.89	5729.63
440.08	5778.78
440.26	5551.75
440.45	5710.91
440.63	5778.78
440.82	6090.07
441.01	5984.75
441.19	5996.45
441.38	5863.04
441.57	6134.54
441.75	6260.93
441.94	6083.05
442.12	6303.06
442.31	6382.64
442.50	6537.12
442.68	6202.42
442.87	6333.49
443.05	6349.87
443.24	6471.58
443.43	6420.09
443.61	6356.90
443.80	6408.39
443.98	6333.49
444.17	6324.13
444.35	6586.27
444.54	6703.29
444.73	6497.33
444.91	6600.31
445.10	6293.70
445.28	6445.84
445.47	6450.52
445.65	6520.73
445.84	6654.14
446.02	6604.99
446.21	6546.48
446.39	6590.95
446.58	6640.10
446.77	6717.34
446.95	6579.25
447.14	6675.21
447.32	6853.09
447.51	6672.87
447.69	6555.84
447.88	6705.63
448.06	6782.87
448.25	6834.36
448.43	6827.34
448.62	6862.45
448.80	6766.49
448.99	6775.85
449.17	6803.94
449.36	6787.55
449.54	6998.20
449.73	7115.23
449.91	7063.74
450.10	7192.47
450.28	7091.82
450.46	7248.64
450.65	7391.41
450.83	7360.98
451.02	7262.68
451.20	7431.20
451.39	7344.60
451.57	7089.48
451.76	7098.84
451.94	7398.43
452.13	7241.62
452.31	7173.74
452.49	7007.56
452.68	7363.33
452.86	7227.57
453.05	7269.70
453.23	7314.17
453.42	7255.66
453.60	7431.20
453.78	7220.55
453.97	7211.19
454.15	7393.75
454.34	7187.79
454.52	7466.31
454.70	7555.25
454.89	7644.19
455.07	7456.95
455.26	7543.55
455.44	7796.32
455.62	7955.48
455.81	7632.49
455.99	7833.77
456.17	7793.98
456.36	7932.08
456.54	8098.25
456.73	8025.70
456.91	8037.40
457.09	8109.96
457.28	8306.56
457.46	7990.59
457.64	8128.68
457.83	8039.74
458.01	8210.60
458.19	8283.16
458.38	8292.52
458.56	8322.94
458.74	8135.70
458.93	8105.28
459.11	8493.80
459.29	8255.07
459.48	8393.16
459.66	8264.43
459.84	8444.65
460.03	8557.00
460.21	8624.87
460.39	8615.51
460.57	8528.91
460.76	8528.91
460.94	8631.90
461.12	8903.40
461.31	8751.26
461.49	8669.34
461.67	8585.08
461.85	8926.80
462.04	8842.54
462.22	9392.57
462.40	9015.74
462.59	8879.99
462.77	8924.46
462.95	8952.55
463.13	8954.89
463.32	8889.35
463.50	9071.92
463.68	8973.61
463.86	9018.08
464.05	8938.51
464.23	8954.89
464.41	8945.53
464.59	9006.38
464.78	9336.40
464.96	9053.19
465.14	8950.21
465.32	9217.03
465.50	9174.90
465.69	9322.35
465.87	9305.97
466.05	9029.79
466.23	9179.58
466.41	9174.90
466.60	9324.69
466.78	9249.80
466.96	9401.93
467.14	9341.08
467.32	9315.33
467.51	9320.01
467.69	9085.96
467.87	9312.99
468.05	9598.54
468.23	9205.33
468.41	9451.08
468.60	9678.12
468.78	9593.86
468.96	9500.23
469.14	9848.97
469.32	9834.93
469.50	9593.86
469.69	9820.89
469.87	9818.55
470.05	9919.19
470.23	9966.00
470.41	9689.82
470.59	10012.81
470.77	9832.59
470.95	10111.11
471.14	10242.18
471.32	9785.78
471.50	10181.33
471.68	10352.19
471.86	10354.53
472.04	10415.38
472.22	10551.14
472.40	10300.70
472.58	10410.70
472.77	10457.51
472.95	10555.82
473.13	10974.77
473.31	10480.92
473.49	10415.38
473.67	10651.78
473.85	10927.96
474.03	11016.90
474.21	11080.10
474.39	10991.16
474.57	10967.75
474.75	11056.69
474.93	11218.19
475.12	11117.54
475.30	11239.25
475.48	11042.65
475.66	11382.03
475.84	11372.66
476.02	11204.14
476.20	11382.03
476.38	11641.82
476.56	11721.40
476.74	11885.24
476.92	11829.07
477.10	11698.00
477.28	12074.82
477.46	12063.12
477.64	12159.08
477.82	12229.30
478.00	12552.29
478.18	12741.88
478.36	12542.93
478.54	12723.15
478.72	12861.24
478.90	13067.21
479.08	13114.02
479.26	13139.77
479.44	13139.77
479.62	13270.84
479.80	13298.92
479.98	13584.47
480.16	13554.04
480.34	13324.67
480.52	13462.76
480.70	13762.35
480.88	13638.30
481.06	13900.44
481.24	13898.10
481.41	14239.82
481.59	14382.59
481.77	14429.40
481.95	14480.89
482.13	14558.13
482.31	14656.43
482.49	15030.92
482.67	15009.86
482.85	15140.93
483.03	15152.63
483.21	15339.87
483.39	15407.75
483.57	15379.66
483.74	15445.20
483.92	15690.95
484.10	15625.42
484.28	16027.99
484.46	16198.85
484.64	16468.01
484.82	15861.81
485.00	16257.36
485.18	16421.20
485.35	16613.12
485.53	16248.00
485.71	16320.56
485.89	16269.06
486.07	16210.55
486.25	16858.88
486.43	16917.39
486.61	16882.28
486.78	17261.45
486.96	17460.40
487.14	17383.16
487.32	18017.44
487.50	18087.66
487.68	18200.01
487.85	18396.61
488.03	18682.16
488.21	18600.24
488.39	18607.26
488.57	18548.75
488.75	18867.06
488.92	19180.69
489.10	19370.27
489.28	19321.12
489.46	19822.00
489.64	19604.33
489.81	20049.03
489.99	20322.87
490.17	20400.11
490.35	20709.06
490.53	20357.98
490.70	20734.81
490.88	20496.07
491.06	20758.21
491.24	20585.01
491.41	20926.73
491.59	20800.34
491.77	20844.81
491.95	20718.42
492.13	21348.03
492.30	21610.17
492.48	21415.90
492.66	21788.05
492.84	21926.14
493.01	22141.47
493.19	22008.06
493.37	22621.28
493.54	22078.27
493.72	22614.26
493.90	22581.49
494.08	23002.78
494.25	23080.02
494.43	23019.17
494.61	23445.15
494.79	23714.31
494.96	23365.57
495.14	23506.00
495.32	23597.28
495.49	23616.01
495.67	24065.39
495.85	24116.88
496.02	24294.76
496.20	24418.81
496.38	24161.35
496.55	24802.66
496.73	25036.71
496.91	24915.00
497.09	24739.46
497.26	25333.96
497.44	25490.77
497.62	25008.62
497.79	25757.60
497.97	24954.79
498.14	25420.56
498.32	25612.48
498.50	25680.36
498.67	25891.01
498.85	25993.99
499.03	26061.87
499.20	26059.52
499.38	26597.85
499.56	26382.52
499.73	26647.00
499.91	26682.11
500.08	26597.85
500.26	26471.46
500.44	26714.87
500.61	26785.09
500.79	26373.16
500.97	26920.84
501.14	27157.24
501.32	27480.23
501.49	26810.84
501.67	27295.33
501.84	27358.52
502.02	27503.64
502.20	27948.34
502.37	27927.27
502.55	27978.76
502.72	27978.76
502.90	28095.79
503.07	27782.16
503.25	27854.72
503.43	28187.07
503.60	27931.95
503.78	28189.41
503.95	28224.52
504.13	28456.23
504.30	28723.05
504.48	28432.83
504.65	29041.37
504.83	28959.45
505.01	29167.76
505.18	29537.56
505.36	29465.00
505.53	29544.58
505.71	29528.20
505.88	29755.23
506.06	29336.27
506.23	29722.46
506.41	29656.93
506.58	29883.96
506.76	29603.10
506.93	29949.50
507.11	30078.22
507.28	30103.97
507.46	29663.95
507.63	29619.48
507.81	30422.28
507.98	30455.05
508.16	30139.08
508.33	30448.03
508.50	30307.60
508.68	30579.10
508.85	31007.42
509.03	30976.99
509.20	31234.45
509.38	31000.40
509.55	31192.32
509.73	31328.07
509.90	31250.83
510.08	31304.67
510.25	31307.01
510.42	31541.06
510.60	31803.20
510.77	32074.70
510.95	31740.00
511.12	32292.37
511.30	32009.17
511.47	32100.45
511.64	32818.99
511.82	32657.49
511.99	32376.63
512.17	32198.75
512.34	32231.52
512.51	32851.76
512.69	32725.37
512.86	32896.23
513.04	32849.42
513.21	32463.23
513.38	32907.93
513.56	32861.12
513.73	32837.72
513.90	32381.31
514.08	33249.65
514.25	33336.25
514.43	32980.49
514.60	33188.80
514.77	33310.50
514.95	33551.58
515.12	33553.92
515.29	33596.05
515.47	34017.35
515.64	34094.58
515.81	33874.57
515.99	33518.81
516.16	33867.55
516.33	33596.05
516.51	33677.97
516.68	33490.73
516.85	32999.21
517.03	33493.07
517.20	33713.08
517.37	34602.48
517.54	34429.28
517.72	34473.75
517.89	33935.43
518.06	33617.11
518.24	34345.02
518.41	34307.57
518.58	34572.05
518.75	34330.98
518.93	34871.64
519.10	34588.44
519.27	34670.36
519.45	34986.33
519.62	35030.80
519.79	35208.68
519.96	35861.69
520.14	35732.96
520.31	35058.88
520.48	35831.26
520.65	35419.33
520.83	35878.07
521.00	35730.62
521.17	36147.23
521.34	36191.70
521.52	36315.75
521.69	36009.14
521.86	36320.43
522.03	36184.68
522.20	36287.67
522.38	36350.86
522.55	36650.45
522.72	36528.74
522.89	36556.83
523.07	36823.65
523.24	36168.30
523.41	36985.15
523.58	36669.17
523.75	37605.39
523.92	36678.54
524.10	37237.92
524.27	37397.08
524.44	37038.98
524.61	37624.11
524.78	37745.82
524.96	37565.60
525.13	37670.92
525.30	37801.99
525.47	37605.39
525.64	37460.27
525.81	37830.08
525.98	37266.01
526.16	37083.45
526.33	37109.19
526.50	37542.19
526.67	37258.99
526.84	37544.53
527.01	37516.45
527.18	37736.46
527.36	37858.17
527.53	38337.98
527.70	38614.16
527.87	38473.73
528.04	38057.11
528.21	38188.18
528.38	38501.81
528.55	38824.81
528.72	39103.33
528.89	38813.10
529.07	38487.77
529.24	39070.56
529.41	38560.33
529.58	38998.01
529.75	38862.26
529.92	38611.82
530.09	38904.38
530.26	39370.15
530.43	38937.15
530.60	38993.32
530.77	39281.21
530.94	39541.01
531.11	39321.00
531.28	39531.65
531.46	39779.74
531.63	39651.02
531.80	39407.60
531.97	39414.62
532.14	39187.59
532.31	38993.32
532.48	38988.64
532.65	39543.35
532.82	39299.94
532.99	39791.45
533.16	39421.64
533.33	39864.00
533.50	40055.93
533.67	40156.57
533.84	39601.86
534.01	39995.07
534.18	40149.55
534.35	40568.51
534.52	40273.60
534.69	40177.64
534.86	40687.87
535.03	40751.07
535.20	40622.34
535.37	40884.48
535.54	41247.26
535.71	40727.66
535.88	40755.75
536.05	40341.47
536.22	40767.45
536.38	40620.00
536.55	40460.84
536.72	40872.78
536.89	40542.76
537.06	40566.16
537.23	40921.93
537.40	40896.18
537.57	41425.14
537.74	41249.60
537.91	41221.52
538.08	41413.44
538.25	40952.35
538.42	41483.66
538.59	41230.88
538.75	41170.02
538.92	41329.18
539.09	41338.54
539.26	41008.53
539.43	41134.92
539.60	41291.73
539.77	41551.53
539.94	41270.67
540.11	40830.65
540.28	41340.88
540.44	41216.83
540.61	41635.79
540.78	41144.28
540.95	41507.06
541.12	41404.08
541.29	41677.92
541.46	41895.59
541.62	41682.60
541.79	41911.97
541.96	41645.15
542.13	41902.61
542.30	42092.19
542.47	41806.65
542.63	42113.26
542.80	42281.78
542.97	42480.72
543.14	42588.39
543.31	42667.97
543.48	42312.20
543.64	42813.08
543.81	42995.64
543.98	43023.73
544.15	42726.48
544.32	42890.32
544.48	43096.28
544.65	42651.58
544.82	42951.17
544.99	42405.83
545.16	42899.68
545.32	43002.66
545.49	43269.48
545.66	43580.78
545.83	42997.98
546.00	43166.50
546.16	43159.48
546.33	42906.70
546.50	43210.97
546.67	42880.95
546.83	42899.68
547.00	43105.65
547.17	42932.45
547.34	42843.51
547.50	43203.95
547.67	43545.67
547.84	43648.65
548.00	43702.48
548.17	43798.44
548.34	43627.59
548.51	44102.71
548.67	44179.95
548.84	43423.96
549.01	43344.38
549.18	43562.05
549.34	43564.39
549.51	43793.76
549.68	43641.63
549.84	44179.95
550.01	43875.68
550.18	43634.61
550.34	43950.58
550.51	43641.63
550.68	43849.94
550.84	43627.59
551.01	43882.70
551.18	44091.01
551.34	44250.17
551.51	44285.28
551.68	44163.57
551.84	44116.76
552.01	43985.69
552.18	44425.71
552.34	43615.88
552.51	44083.99
552.68	44395.28
552.84	44226.76
553.01	44484.22
553.18	44601.25
553.34	44182.29
553.51	44542.74
553.67	44360.17
553.84	45312.77
554.01	44772.11
554.17	44952.33
554.34	44795.51
554.51	44430.39
554.67	44769.77
554.84	44832.96
555.00	44437.41
555.17	44603.59
555.33	44767.43
555.50	44559.12
555.67	44739.34
555.83	44933.60
556.00	44589.55
556.16	45125.53
556.33	44608.27
556.50	44634.02
556.66	44858.71
556.83	44533.37
556.99	44865.73
557.16	45118.51
557.32	44542.74
557.49	45010.84
557.65	45179.36
557.82	44818.92
557.98	45085.74
558.15	45074.04
558.32	45195.74
558.48	44762.75
558.65	45125.53
558.81	44912.54
558.98	44863.39
559.14	44802.53
559.31	44786.15
559.47	44914.88
559.64	44945.31
559.80	44985.10
559.97	45249.58
560.13	45017.86
560.30	45228.51
560.46	45366.60
560.63	45228.51
560.79	45200.43
560.96	45474.27
561.12	45500.01
561.29	45247.24
561.45	45064.67
561.61	45387.67
561.78	45361.92
561.94	44978.07
562.11	45179.36
562.27	45345.54
562.44	45312.77
562.60	45415.76
562.77	45862.80
562.93	45317.45
563.10	46021.95
563.26	45268.30
563.42	45734.07
563.59	45514.06
563.75	45640.45
563.92	46131.96
564.08	45823.01
564.24	45968.12
564.41	45413.41
564.57	45481.29
564.74	45067.02
564.90	45579.59
565.07	45216.81
565.23	45453.20
565.39	45750.45
565.56	45656.83
565.72	45258.94
565.88	45401.71
566.05	45305.75
566.21	45876.84
566.38	45858.12
566.54	45771.52
566.70	46120.26
566.87	46089.83
567.03	45586.61
567.19	46412.82
567.36	45928.33
567.52	45759.81
567.68	45504.70
567.85	45467.25
568.01	45675.55
568.17	45603.00
568.34	45825.35
568.50	46000.89
568.66	45666.19
568.83	45815.99
568.99	45106.80
569.15	45832.37
569.32	45610.02
569.48	45689.60
569.64	46309.84
569.81	46071.10
569.97	45825.35
570.13	45928.33
570.30	45113.83
570.46	45593.64
570.62	45291.71
570.78	45354.90
570.95	45078.72
571.11	45720.02
571.27	45778.54
571.43	45696.62
571.60	46014.93
571.76	45752.79
571.92	45956.42
572.09	45935.35
572.25	45724.71
572.41	46176.43
572.57	45858.12
572.74	45895.56
572.90	45928.33
573.06	45940.04
573.22	45860.46
573.38	45813.65
573.55	45834.71
573.71	45940.04
573.87	46370.69
574.03	45612.36
574.20	45673.21
574.36	45715.34
574.52	45572.57
574.68	45698.96
574.84	46342.61
575.01	45970.46
575.17	45956.42
575.33	45748.11
575.49	45942.38
575.65	45736.41
575.82	46241.96
575.98	45837.05
576.14	46181.11
576.30	45815.99
576.46	46052.38
576.62	45862.80
576.79	45783.22
576.95	45923.65
577.11	45972.80
577.27	45923.65
577.43	45703.64
577.59	46150.68
577.75	46064.08
577.92	45556.19
578.08	45544.48
578.24	46040.68
578.40	46094.51
578.56	45818.33
578.72	45818.33
578.88	46354.31
579.04	46543.89
579.21	45532.78
579.37	45921.31
579.53	45785.56
579.69	45614.70
579.85	46085.15
580.01	46181.11
580.17	46185.79
580.33	46424.53
580.49	45911.95
580.65	46239.62
580.82	45783.22
580.98	45764.49
581.14	45968.12
581.30	46124.94
581.46	45942.38
581.62	45968.12
581.78	45986.85
581.94	46253.67
582.10	46218.56
582.26	46464.32
582.42	46150.68
582.58	46206.86
582.74	45942.38
582.90	46396.44
583.06	46188.13
583.22	45911.95
583.38	46239.62
583.54	46527.51
583.70	46272.39
583.86	46012.59
584.02	45977.48
584.18	46124.94
584.34	45961.10
584.50	46199.83
584.66	46251.33
584.82	45806.62
584.98	46443.25
585.14	46153.02
585.30	45916.63
585.46	45738.75
585.62	45649.81
585.78	45851.09
585.94	45635.77
586.10	45914.29
586.26	46028.98
586.42	46253.67
586.58	46328.56
586.74	45813.65
586.90	45968.12
587.06	46223.24
587.22	46234.94
587.38	46351.97
587.54	46223.24
587.70	46574.32
587.86	46202.18
588.02	46185.79
588.18	46284.09
588.34	45937.69
588.49	45511.72
588.65	45710.66
588.81	45624.06
588.97	45446.18
589.13	45586.61
589.29	45619.38
589.45	45610.02
589.61	46167.07
589.77	45961.10
589.93	46330.90
590.08	46316.86
590.24	46569.64
590.40	46169.41
590.56	46061.74
590.72	46323.88
590.88	46131.96
591.04	46169.41
591.20	46550.91
591.35	46555.60
591.51	46534.53
591.67	46115.58
591.83	45949.40
591.99	45855.78
592.15	46160.05
592.31	46541.55
592.46	45963.44
592.62	46366.01
592.78	46075.79
592.94	46218.56
593.10	46178.77
593.26	46227.92
593.41	46246.65
593.57	45734.07
593.73	46080.47
593.89	46323.88
594.05	46368.35
594.20	45815.99
594.36	46571.98
594.52	46220.90
594.68	46487.72
594.84	46202.18
594.99	45956.42
595.15	45886.20
595.31	46405.80
595.47	46150.68
595.62	45837.05
595.78	46031.32
595.94	46436.23
596.10	46169.41
596.25	46136.64
596.41	46080.47
596.57	45876.84
596.73	46506.44
596.88	46080.47
597.04	45839.39
597.20	45972.80
597.36	46342.61
597.51	46241.96
597.67	46089.83
597.83	46131.96
597.99	46384.74
598.14	46174.09
598.30	46162.39
598.46	46260.69
598.61	46351.97
598.77	46213.88
598.93	46138.98
599.09	46344.95
599.24	46597.73
599.40	46602.41
599.56	46431.55
599.71	46447.93
599.87	46356.65
600.03	46628.15
600.18	46026.63
600.34	46356.65
600.50	46461.97
600.65	46515.81
600.81	46258.35
600.97	46494.74
601.12	46106.21
601.28	46422.19
601.44	46089.83
601.59	46195.15
601.75	45778.54
601.91	46431.55
602.06	45603.00
602.22	46541.55
602.37	46354.31
602.53	46087.49
602.69	46663.26
602.84	46258.35
603.00	46064.08
603.16	46237.28
603.31	45958.76
603.47	45961.10
603.62	46087.49
603.78	46611.77
603.94	46220.90
604.09	46358.99
604.25	46251.33
604.40	46307.50
604.56	46171.75
604.71	46321.54
604.87	46024.29
605.03	46160.05
605.18	46309.84
605.34	46256.01
605.49	46024.29
605.65	46267.71
605.80	45617.04
605.96	45904.93
606.12	46192.81
606.27	46286.43
606.43	45691.94
606.58	45956.42
606.74	45558.53
606.89	46176.43
607.05	46164.73
607.20	45900.25
607.36	46380.06
607.51	46389.42
607.67	45869.82
607.82	45890.88
607.98	45750.45
608.13	45729.39
608.29	45823.01
608.44	45867.48
608.60	45691.94
608.75	46036.00
608.91	45574.91
609.06	46054.72
609.22	45874.50
609.37	45935.35
609.53	45724.71
609.68	45996.21
609.84	45549.17
609.99	45874.50
610.15	45563.21
610.30	45237.87
610.46	45577.25
610.61	45340.86
610.76	45591.30
610.92	45787.90
611.07	45769.18
611.23	45717.68
611.38	45567.89
611.54	45462.57
611.69	45067.02
611.84	45303.41
612.00	45195.74
612.15	45095.10
612.31	45312.77
612.46	45684.92
612.62	45380.65
612.77	45776.20
612.92	45310.43
613.08	45287.03
613.23	44928.92
613.39	45059.99
613.54	44987.44
613.69	45003.82
613.85	44692.53
614.00	45535.12
614.15	44786.15
614.31	44645.72
614.46	45844.07
614.62	45432.14
614.77	45099.78
614.92	45045.95
615.08	44732.32
615.23	44786.15
615.38	44528.69
615.54	44847.00
615.69	44376.56
615.84	44430.39
616.00	45052.97
616.15	44807.22
616.30	44865.73
616.46	44481.88
616.61	44528.69
616.76	44725.30
616.92	44472.52
617.07	44512.31
617.22	44729.98
617.37	44706.57
617.53	44512.31
617.68	44872.75
617.83	45008.50
617.99	44694.87
618.14	44446.77
618.29	44680.83
618.45	44514.65
618.60	44102.71
618.75	44095.69
618.90	44147.18
619.06	44521.67
619.21	44271.23
619.36	44177.61
619.51	44086.33
619.67	44048.88
619.82	44519.33
619.97	43910.79
620.12	44215.06
620.28	43423.96
620.43	44123.78
620.58	44133.14
620.73	44212.72
620.89	44165.91
621.04	44339.11
621.19	43674.40
621.34	44147.18
621.49	43849.94
621.65	43906.11
621.80	43828.87
621.95	43658.01
622.10	44037.18
622.25	43725.89
622.41	43428.64
622.56	43775.04
622.71	43789.08
622.86	43854.62
623.01	43508.22
623.16	43618.22
623.32	43468.43
623.47	43629.93
623.62	43789.08
623.77	43629.93
623.92	43653.33
624.07	43409.92
624.23	43391.19
624.38	43344.38
624.53	43571.41
624.68	43641.63
624.83	43894.41
624.98	42686.69
625.13	43363.11
625.29	43049.47
625.44	43129.05
625.59	42883.30
625.74	43248.42
625.89	42642.22
626.04	43199.27
626.19	42869.25
626.34	43159.48
626.49	43510.56
626.65	43007.34
626.80	43267.14
626.95	42572.00
627.10	42712.44
627.25	42930.11
627.40	42808.40
627.55	42756.91
627.70	42394.12
627.85	42555.62
628.00	42349.65
628.15	42806.06
628.30	42677.33
628.45	42841.17
628.60	42499.45
628.76	42550.94
628.91	42609.45
629.06	42469.02
629.21	42398.80
629.36	42452.64
629.51	42333.27
629.66	42305.18
629.81	42131.98
629.96	41977.51
630.11	42141.35
630.26	42450.30
630.41	42316.89
630.56	42534.56
630.71	42230.29
630.86	42134.32
631.01	42265.39
631.16	42085.17
631.31	41879.21
631.46	41340.88
631.61	42038.36
631.76	41701.32
631.91	42249.01
632.06	42239.65
632.21	42284.12
632.36	41886.23
632.51	41495.36
632.66	42017.30
632.81	41422.80
632.96	41783.24
633.10	41926.02
633.25	41710.69
633.40	41883.89
633.55	41446.21
633.70	41528.13
633.85	41579.62
634.00	41694.30
634.15	41591.32
634.30	41633.45
634.45	41036.61
634.60	41237.90
634.75	41081.08
634.90	41434.50
635.05	41287.05
635.19	41710.69
635.34	41076.40
635.49	41310.46
635.64	41368.97
635.79	41109.17
635.94	41418.12
636.09	40804.90
636.24	41464.93
636.39	40942.99
636.53	41186.41
636.68	40919.59
636.83	40781.49
636.98	41329.18
637.13	40840.01
637.28	41289.39
637.43	41500.04
637.57	41181.73
637.72	40769.79
637.87	40814.26
638.02	41347.90
638.17	40432.75
638.32	40945.33
638.46	40999.16
638.61	40783.83
638.76	40411.69
638.91	40594.25
639.06	40538.08
639.20	40751.07
639.35	40706.60
639.50	40409.35
639.65	41104.49
639.80	40219.77
639.94	40292.32
640.09	40297.00
640.24	40149.55
640.39	40123.80
640.54	40238.49
640.68	40636.38
640.83	40238.49
640.98	40163.59
641.13	40091.04
641.27	40608.29
641.42	40119.12
641.57	40315.73
641.72	40261.90
641.86	40088.70
642.01	39868.69
642.16	40521.69
642.31	39573.78
642.45	40175.30
642.60	39878.05
642.75	39807.83
642.90	40385.94
643.04	39793.79
643.19	39950.60
643.34	40060.61
643.48	39938.90
643.63	39658.04
643.78	39777.40
643.93	39959.97
644.07	39552.71
644.22	39545.69
644.37	39222.70
644.51	39688.46
644.66	39601.86
644.81	39768.04
644.95	39475.48
645.10	39292.91
645.25	39391.22
645.39	39557.39
645.54	39241.42
645.69	39428.66
645.83	39587.82
645.98	39264.83
646.13	39367.81
646.27	39206.31
646.42	39594.84
646.57	39679.10
646.71	39241.42
646.86	39473.13
647.00	39356.11
647.15	39281.21
647.30	39206.31
647.44	39473.13
647.59	38913.75
647.74	38532.24
647.88	39210.99
648.03	39138.44
648.17	38878.64
648.32	39079.92
648.47	39042.48
648.61	38686.71
648.76	39175.89
648.90	38916.09
649.05	38808.42
649.20	38850.55
649.34	38801.40
649.49	37979.87
649.63	38705.44
649.78	38838.85
649.92	38927.79
650.07	39077.58
650.21	38733.53
650.36	38803.74
650.51	38740.55
650.65	39269.51
650.80	39098.65
650.94	38625.86
651.09	38604.80
651.23	38667.99
651.38	38639.90
651.52	38160.09
651.67	37900.29
651.81	38380.10
651.96	38085.20
652.10	38363.72
652.25	38384.79
652.39	38164.78
652.54	38263.08
652.68	38356.70
652.83	38239.67
652.97	38831.83
653.12	38487.77
653.26	37769.22
653.41	37996.26
653.55	37486.02
653.70	38127.33
653.84	38153.07
653.99	38099.24
654.13	37734.12
654.27	37809.01
654.42	38136.69
654.56	38216.27
654.71	38014.98
654.85	37467.30
655.00	38246.69
655.14	37659.22
655.29	37336.23
655.43	37691.99
655.57	37317.50
655.72	37266.01
655.86	36954.72
656.01	36919.61
656.15	36779.18
656.30	36943.02
656.44	37214.52
656.58	37048.34
656.73	37127.92
656.87	37034.30
657.01	36870.46
657.16	37001.53
657.30	37141.96
657.45	36561.51
657.59	37464.96
657.73	37315.16
657.88	37038.98
658.02	37443.89
658.16	37090.47
658.31	37305.80
658.45	37020.25
658.60	36793.22
658.74	36964.08
658.88	37354.95
659.03	36875.14
659.17	36659.81
659.31	36645.77
659.46	36620.02
659.60	36737.05
659.74	36996.85
659.89	36517.04
660.03	36168.30
660.17	36605.98
660.32	36776.84
660.46	36868.12
660.60	36659.81
660.74	36334.48
660.89	36467.89
661.03	36285.33
661.17	36154.26
661.32	36505.34
661.46	36587.25
661.60	35833.60
661.74	35704.87
661.89	36191.70
662.03	36243.20
662.17	35924.88
662.31	35920.20
662.46	36116.81
662.60	36301.71
662.74	36161.28
662.88	35468.48
663.03	35512.95
663.17	35449.75
663.31	35328.05
663.45	36018.50
663.60	35468.48
663.74	35391.24
663.88	34937.18
664.02	35505.93
664.17	35309.32
664.31	35222.72
664.45	34932.50
664.59	35012.07
664.73	35538.69
664.88	35157.19
665.02	34569.71
665.16	34665.67
665.30	34408.22
665.44	34672.70
665.59	34630.57
665.73	34899.73
665.87	34518.22
666.01	34253.74
666.15	34457.37
666.29	34160.12
666.44	34579.07
666.58	34670.36
666.72	34204.59
666.86	34773.34
667.00	34307.57
667.14	34031.39
667.28	34150.76
667.43	33984.58
667.57	34211.61
667.71	33862.87
667.85	34436.30
667.99	34333.32
668.13	34188.21
668.27	33895.64
668.41	34155.44
668.56	33703.71
668.70	33544.56
668.84	33153.69
668.98	33582.01
669.12	33804.36
669.26	33427.53
669.40	33158.37
669.54	33607.75
669.68	33488.38
669.82	32943.04
669.96	33184.12
670.10	32835.38
670.25	33230.93
670.39	32847.08
670.53	32606.00
670.67	32964.10
670.81	32879.85
670.95	32713.67
671.09	32783.88
671.23	32266.63
671.37	32397.70
671.51	32671.54
671.65	32283.01
671.79	32243.22
671.93	32538.13
672.07	32294.71
672.21	32095.77
672.35	32280.67
672.49	32226.84
672.63	32346.20
672.77	31639.36
672.91	32098.11
673.05	32149.60
673.19	31873.42
673.33	31793.84
673.47	31620.64
673.61	31468.50
673.75	31482.55
673.89	31117.42
674.03	31255.51
674.17	31246.15
674.31	31173.60
674.45	31276.58
674.59	31199.34
674.73	31487.23
674.87	31197.00
675.01	30979.33
675.15	31030.82
675.29	30661.02
675.43	30508.88
675.56	30773.36
675.70	30724.21
675.84	30761.66
675.98	30045.46
676.12	30089.93
676.26	30436.33
676.40	30307.60
676.54	30497.18
676.68	29975.24
676.82	29364.36
676.96	29567.99
677.10	29862.90
677.23	29689.70
677.37	29509.47
677.51	29776.30
677.65	29369.04
677.79	29022.64
677.93	28961.79
678.07	28746.46
678.21	28641.14
678.34	28793.27
678.48	28613.05
678.62	28390.70
678.76	28432.83
678.90	28318.14
679.04	28397.72
679.18	28648.16
679.31	27828.97
679.45	27660.45
679.59	27744.71
679.73	28400.06
679.87	27915.57
680.00	27681.52
680.14	27768.12
680.28	27637.05
680.42	27075.32
680.56	27400.65
680.70	27391.29
680.83	27339.80
680.97	27016.80
681.11	27257.88
681.25	27573.85
681.39	26946.59
681.52	27590.24
681.66	26843.60
681.80	26862.33
681.94	26794.45
682.07	26473.80
682.21	26457.42
682.35	25972.92
682.49	26328.69
682.62	25933.14
682.76	25893.35
682.90	25851.22
683.04	26052.50
683.17	25944.84
683.31	25736.53
683.45	25532.90
683.59	25507.16
683.72	25577.37
683.86	25689.72
684.00	25460.35
684.13	25062.46
684.27	24769.89
684.41	25228.63
684.55	24556.90
684.68	24830.74
684.82	24886.92
684.96	24554.56
685.09	24950.11
685.23	24547.54
685.37	24828.40
685.50	24524.13
685.64	24423.49
685.78	24133.26
685.91	24159.01
686.05	23695.58
686.19	23927.30
686.32	23730.69
686.46	23452.17
686.60	23037.89
686.73	23281.31
686.87	23075.34
687.01	23080.02
687.14	22899.80
687.28	22867.03
687.42	22965.34
687.55	22948.95
687.69	22993.42
687.82	23304.71
687.96	22850.65
688.10	22696.17
688.23	22632.98
688.37	22242.11
688.50	22672.77
688.64	22431.69
688.78	22422.33
688.91	22104.02
689.05	22244.45
689.18	22195.30
689.32	21631.23
689.46	22019.76
689.59	22438.72
689.73	22284.24
689.86	21635.91
690.00	21678.04
690.13	21678.04
690.27	21418.24
690.41	21078.86
690.54	21261.43
690.68	21193.55
690.81	21184.19
690.95	21167.80
691.08	21305.90
691.22	21163.12
691.35	21076.52
691.49	20767.57
691.62	20835.45
691.76	21076.52
691.89	20577.99
692.03	20475.01
692.16	20695.02
692.30	20577.99
692.43	20084.14
692.57	20365.00
692.70	19920.30
692.84	19927.32
692.97	19634.75
693.11	19510.71
693.24	19845.40
693.38	19627.73
693.51	19405.38
693.65	19786.89
693.78	19431.13
693.92	19541.13
694.05	19440.49
694.19	19428.79
694.32	19316.44
694.45	19316.44
694.59	19250.91
694.72	18775.78
694.86	18757.05
694.99	18602.58
695.13	18625.98
695.26	18312.35
695.39	18515.98
695.53	18897.49
695.66	18448.10
695.80	18167.24
695.93	18281.92
696.07	17984.68
696.20	18614.28
696.33	18235.11
696.47	18001.06
696.60	18008.08
696.73	17867.65
696.87	17792.75
697.00	17713.17
697.14	17488.48
697.27	17408.90
697.40	17355.07
697.54	17465.08
697.67	17167.83
697.80	17027.40
697.94	17238.05
698.07	16929.09
698.21	17235.70
698.34	16954.84
698.47	17095.27
698.61	16833.13
698.74	16791.00
698.87	16933.78
699.01	16365.03
699.14	16439.92
699.27	16257.36
699.40	16273.74
699.54	16257.36
699.67	16013.95
699.80	16133.31
699.94	16081.82
700.07	16407.16
700.20	16203.53
700.34	16149.70
700.47	15939.05
700.60	15885.22
700.73	15997.56
700.87	15723.72
701.00	15578.61
701.13	15555.20
701.26	15262.63
701.40	15494.35
701.53	15215.82
701.66	15197.10
701.79	15077.73
701.93	14958.36
702.06	14862.40
702.19	14888.15
702.32	14731.33
702.46	14780.48
702.59	14817.93
702.72	14930.28
702.85	14789.85
702.99	14551.11
703.12	14366.21
703.25	14111.09
703.38	14377.91
703.51	14267.91
703.65	14029.17
703.78	14104.07
703.91	14120.45
704.04	13659.37
704.17	13921.51
704.31	13853.63
704.44	13657.03
704.57	13980.02
704.70	13788.10
704.83	13788.10
704.96	13544.68
705.10	13570.43
705.23	13284.88
>>>>>End Processed Spectral Data<<<<<
