SpectraSuite Data File
++++++++++++++++++++++++++++++++++++
Date: Fri Oct 25 11:33:41 EDT 2013
User: price-jones
Dark Spectrum Present: No
Reference Spectrum Present: No
Number of Sampled Component Spectra: 1
Spectrometers: USB2+H05261
Integration Time (usec): 100000 (USB2+H05261)
Spectra Averaged: 1 (USB2+H05261)
Boxcar Smoothing: 0 (USB2+H05261)
Correct for Electrical Dark: No (USB2+H05261)
Strobe/Lamp Enabled: No (USB2+H05261)
Correct for Detector Non-linearity: No (USB2+H05261)
Correct for Stray Light: No (USB2+H05261)
Number of Pixels in Processed Spectrum: 2048
>>>>>Begin Processed Spectral Data<<<<<
365.73	257.46
365.92	257.46
366.12	257.46
366.32	191.92
366.52	177.88
366.72	198.95
366.91	220.01
367.11	264.48
367.31	110.01
367.51	166.18
367.70	156.82
367.90	224.69
368.10	187.24
368.30	205.97
368.49	138.09
368.69	215.33
368.89	142.77
369.09	126.39
369.28	238.73
369.48	117.03
369.68	168.52
369.87	236.39
370.07	283.20
370.27	306.61
370.47	360.44
370.66	479.81
370.86	514.92
371.06	477.47
371.25	580.45
371.45	580.45
371.65	561.73
371.84	543.00
372.04	517.26
372.24	575.77
372.44	573.43
372.63	622.58
372.83	575.77
373.03	648.33
373.22	594.50
373.42	622.58
373.62	650.67
373.81	615.56
374.01	620.24
374.21	606.20
374.40	585.13
374.60	692.80
374.79	645.99
374.99	575.77
375.19	631.94
375.38	638.97
375.58	695.14
375.78	624.92
375.97	653.01
376.17	779.40
376.37	667.05
376.56	676.41
376.76	695.14
376.95	650.67
377.15	739.61
377.35	690.46
377.54	697.48
377.74	685.78
377.93	643.65
378.13	730.25
378.33	786.42
378.52	791.10
378.72	777.06
378.91	746.63
379.11	763.01
379.31	606.20
379.50	629.60
379.70	760.67
379.89	741.95
380.09	716.20
380.28	723.23
380.48	746.63
380.68	753.65
380.87	718.54
381.07	727.91
381.26	716.20
381.46	709.18
381.65	753.65
381.85	826.21
382.04	739.61
382.24	802.80
382.43	739.61
382.63	779.40
382.83	716.20
383.02	777.06
383.22	826.21
383.41	795.78
383.61	711.52
383.80	807.48
384.00	807.48
384.19	800.46
384.39	833.23
384.58	835.57
384.78	830.89
384.97	894.08
385.17	784.08
385.36	823.87
385.56	835.57
385.75	795.78
385.95	851.96
386.14	889.40
386.34	868.34
386.53	837.91
386.72	957.28
386.92	837.91
387.11	905.79
387.31	957.28
387.50	917.49
387.70	940.90
387.89	912.81
388.09	922.17
388.28	887.06
388.48	966.64
388.67	971.32
388.86	924.51
389.06	980.68
389.25	898.77
389.45	994.73
389.64	922.17
389.84	919.83
390.03	966.64
390.22	933.87
390.42	966.64
390.61	1032.18
390.81	889.40
391.00	983.02
391.19	999.41
391.39	990.05
391.58	992.39
391.78	1029.84
391.97	1029.84
392.16	980.68
392.36	1062.60
392.55	1001.75
392.75	1067.28
392.94	1039.20
393.13	1064.94
393.33	1067.28
393.52	1116.44
393.71	1071.97
393.91	1055.58
394.10	1097.71
394.29	1123.46
394.49	1025.15
394.68	1174.95
394.88	1177.29
395.07	1109.41
395.26	1114.10
395.46	1200.69
395.65	1179.63
395.84	1200.69
396.04	1228.78
396.23	1254.53
396.42	1186.65
396.62	1270.91
396.81	1275.59
397.00	1205.38
397.19	1172.61
397.39	1214.74
397.58	1284.95
397.77	1203.04
397.97	1233.46
398.16	1299.00
398.35	1352.83
398.55	1369.21
398.74	1322.40
398.93	1329.42
399.12	1275.59
399.32	1299.00
399.51	1277.93
399.70	1385.60
399.90	1313.04
400.09	1249.85
400.28	1434.75
400.47	1371.55
400.67	1357.51
400.86	1352.83
401.05	1439.43
401.24	1313.04
401.44	1390.28
401.63	1462.83
401.82	1514.33
402.01	1446.45
402.21	1460.49
402.40	1399.64
402.59	1577.52
402.78	1437.09
402.97	1537.73
403.17	1526.03
403.36	1495.60
403.55	1504.96
403.74	1584.54
403.93	1619.65
404.13	1626.67
404.32	1544.75
404.51	1598.59
404.70	1626.67
404.89	1537.73
405.09	1682.85
405.28	1636.03
405.47	1774.13
405.66	1741.36
405.85	1678.16
406.05	1727.32
406.24	1696.89
406.43	1685.19
406.62	1830.30
406.81	1827.96
407.00	1785.83
407.20	1706.25
407.39	1788.17
407.58	1921.58
407.77	1923.92
407.96	1909.88
408.15	1806.89
408.34	1884.13
408.54	1872.43
408.73	1935.62
408.92	1907.54
409.11	2022.22
409.30	2045.63
409.49	2010.52
409.68	2024.56
409.87	1996.48
410.07	2094.78
410.26	2092.44
410.45	2083.08
410.64	2073.71
410.83	2193.08
411.02	2207.13
411.21	2235.21
411.40	2179.04
411.59	2218.83
411.78	2216.49
411.98	2108.82
412.17	2223.51
412.36	2277.34
412.55	2272.66
412.74	2303.09
412.93	2420.11
413.12	2420.11
413.31	2473.95
413.50	2380.32
413.69	2438.84
413.88	2457.56
414.07	2417.77
414.26	2544.16
414.45	2607.36
414.64	2633.10
414.83	2649.49
415.02	2654.17
415.22	2576.93
415.41	2647.15
415.60	2750.13
415.79	2722.04
415.98	2747.79
416.17	2710.34
416.36	2754.81
416.55	2712.68
416.74	2722.04
416.93	2860.13
417.12	2794.60
417.31	2864.82
417.50	2904.60
417.69	2965.46
417.88	2930.35
418.07	3007.59
418.26	2984.18
418.45	3066.10
418.64	3047.38
418.83	3007.59
419.02	3026.31
419.21	3199.51
419.39	3192.49
419.58	3033.33
419.77	3073.12
419.96	3054.40
420.15	3304.84
420.34	3194.83
420.53	3077.80
420.72	3248.66
420.91	3295.47
421.10	3304.84
421.29	3288.45
421.48	3145.68
421.67	3323.56
421.86	3232.28
422.05	3155.04
422.24	3267.39
422.43	3361.01
422.61	3405.48
422.80	3461.65
422.99	3515.48
423.18	3440.59
423.37	3492.08
423.56	3391.44
423.75	3421.86
423.94	3382.07
424.13	3180.79
424.32	3302.50
424.50	3412.50
424.69	3550.59
424.88	3550.59
425.07	3382.07
425.26	3321.22
425.45	3447.61
425.64	3592.72
425.83	3478.04
426.01	3566.98
426.20	3538.89
426.39	3524.85
426.58	3440.59
426.77	3574.00
426.96	3606.77
427.15	3616.13
427.33	3569.32
427.52	3576.34
427.71	3691.02
427.90	3499.10
428.09	3616.13
428.28	3723.79
428.46	3674.64
428.65	3770.60
428.84	3812.73
429.03	3655.92
429.22	3599.74
429.40	3948.48
429.59	3815.07
429.78	3665.28
429.97	3655.92
430.16	3871.25
430.34	3791.67
430.53	3936.78
430.72	3971.89
430.91	3920.40
431.10	3969.55
431.28	3882.95
431.47	4065.51
431.66	4084.23
431.85	4049.13
432.03	3845.50
432.22	4245.73
432.41	4021.04
432.60	4222.33
432.79	4119.34
432.97	3999.98
433.16	4107.64
433.35	4180.20
433.54	4135.73
433.72	4067.85
433.91	4191.90
434.10	4248.07
434.28	4109.98
434.47	4231.69
434.66	4306.59
434.85	4458.72
435.03	4334.67
435.22	4402.55
435.41	4479.79
435.59	4271.48
435.78	4395.53
435.97	4404.89
436.16	4470.42
436.34	4346.37
436.53	4418.93
436.72	4538.30
436.90	4468.08
437.09	4648.30
437.28	4411.91
437.46	4589.79
437.65	4386.16
437.84	4594.47
438.02	4601.49
438.21	4678.73
438.40	4573.41
438.58	4828.53
438.77	4819.16
438.96	4802.78
439.14	4961.94
439.33	4861.29
439.52	5004.07
439.70	5039.17
439.89	5011.09
440.08	4908.10
440.26	5060.24
440.45	5104.71
440.63	4997.04
440.82	5104.71
441.01	5078.96
441.19	5102.37
441.38	5233.44
441.57	5324.72
441.75	5308.34
441.94	5507.28
442.12	5476.85
442.31	5362.17
442.50	5434.72
442.68	5441.75
442.87	5511.96
443.05	5514.30
443.24	5572.82
443.43	5764.74
443.61	5621.97
443.80	5734.31
443.98	5378.55
444.17	5245.14
444.35	5561.11
444.54	5647.71
444.73	5621.97
444.91	5689.84
445.10	5792.83
445.28	5626.65
445.47	5572.82
445.65	5647.71
445.84	5799.85
446.02	5703.89
446.21	5715.59
446.39	5586.86
446.58	5636.01
446.77	5671.12
446.95	5605.58
447.14	5753.04
447.32	5865.38
447.51	5626.65
447.69	5951.98
447.88	5694.52
448.06	5675.80
448.25	6012.84
448.43	5856.02
448.62	5963.68
448.80	6029.22
448.99	5666.44
449.17	5966.03
449.36	5884.11
449.54	5975.39
449.73	6143.91
449.91	6300.72
450.10	5863.04
450.28	6150.93
450.46	6120.50
450.65	6155.61
450.83	6015.18
451.02	6209.44
451.20	6279.66
451.39	6083.05
451.57	6167.31
451.76	6242.21
451.94	6228.17
452.13	6377.96
452.31	6354.55
452.49	6284.34
452.68	6340.51
452.86	6340.51
453.05	6377.96
453.23	6595.63
453.42	6399.02
453.60	6221.14
453.78	6445.84
453.97	6361.58
454.15	6427.11
454.34	6366.26
454.52	6541.80
454.70	6502.01
454.89	6621.38
455.07	6579.25
455.26	6607.33
455.44	6595.63
455.62	6780.53
455.81	6768.83
455.99	6789.89
456.17	6729.04
456.36	6759.47
456.54	6864.79
456.73	6843.73
456.91	7068.42
457.09	6981.82
457.28	7162.04
457.46	6857.77
457.64	7281.41
457.83	7077.78
458.01	6993.52
458.19	7173.74
458.38	7255.66
458.56	7239.28
458.74	7304.81
458.93	7260.34
459.11	7321.20
459.29	7274.38
459.48	7279.07
459.66	7229.91
459.84	7342.26
460.03	7473.33
460.21	7232.26
460.39	7440.56
460.57	7480.35
460.76	7454.61
460.94	7492.05
461.12	7375.03
461.31	7414.82
461.49	7428.86
461.67	7503.76
461.85	7843.14
462.04	7592.70
462.22	8013.99
462.40	7726.11
462.59	7761.22
462.77	7592.70
462.95	7784.62
463.13	7719.09
463.32	7801.01
463.50	7941.44
463.68	7887.61
463.86	7964.84
464.05	7815.05
464.23	7925.05
464.41	7892.29
464.59	7892.29
464.78	8250.39
464.96	7786.96
465.14	8091.23
465.32	8098.25
465.50	8215.28
465.69	8131.02
465.87	8142.72
466.05	8116.98
466.23	8156.77
466.41	8128.68
466.60	8161.45
466.78	8138.04
466.96	8098.25
467.14	8428.27
467.32	8236.35
467.51	8360.39
467.69	8025.70
467.87	8229.32
468.05	8442.31
468.23	8285.50
468.41	8308.90
468.60	8439.97
468.78	8519.55
468.96	8369.76
469.14	8641.26
469.32	8713.81
469.50	8498.49
469.69	8891.70
469.87	8746.58
470.05	8849.57
470.23	8924.46
470.41	8898.72
470.59	9039.15
470.77	8847.22
470.95	8961.91
471.14	8884.67
471.32	8723.18
471.50	8997.02
471.68	9053.19
471.86	9034.47
472.04	9238.09
472.22	9324.69
472.40	9130.43
472.58	9254.48
472.77	9160.86
472.95	9474.49
473.13	9722.59
473.31	9441.72
473.49	9490.87
473.67	9530.66
473.85	9584.49
474.03	9706.20
474.21	9729.61
474.39	9727.27
474.57	9830.25
474.75	9811.53
474.93	9839.61
475.12	9792.80
475.30	10031.54
475.48	10092.39
475.66	10228.14
475.84	10157.92
476.02	10230.48
476.20	10061.96
476.38	10455.17
476.56	10466.88
476.74	10501.98
476.92	10464.54
477.10	10445.81
477.28	10869.45
477.46	10733.70
477.64	10867.11
477.82	10775.83
478.00	11211.17
478.18	11037.97
478.36	11180.74
478.54	11496.71
478.72	11112.86
478.90	11744.81
479.08	11534.16
479.26	11576.29
479.44	11367.98
479.62	11901.62
479.80	11850.13
479.98	12032.69
480.16	12203.55
480.34	12098.23
480.52	12290.15
480.70	12383.77
480.88	12175.47
481.06	12453.99
481.24	12475.06
481.41	12650.60
481.59	12840.18
481.77	12849.54
481.95	12868.27
482.13	13107.00
482.31	13177.22
482.49	13495.53
482.67	13266.16
482.85	13401.91
483.03	13451.06
483.21	13996.40
483.39	13736.60
483.57	13685.11
483.74	14223.44
483.92	13984.70
484.10	14090.02
484.28	14560.47
484.46	14438.76
484.64	14644.73
484.82	14738.35
485.00	14911.55
485.18	15112.84
485.35	14995.81
485.53	15007.52
485.71	14963.04
485.89	15513.07
486.07	15529.45
486.25	15407.75
486.43	15730.74
486.61	15932.03
486.78	15894.58
486.96	15910.96
487.14	16194.17
487.32	15983.52
487.50	16428.22
487.68	16407.16
487.85	16460.99
488.03	16772.28
488.21	17151.45
488.39	17130.38
488.57	17041.44
488.75	17415.93
488.92	17467.42
489.10	17671.04
489.28	17769.35
489.46	17657.00
489.64	18239.79
489.81	18380.23
489.99	18441.08
490.17	18321.71
490.35	18368.52
490.53	18663.43
490.70	18820.25
490.88	18637.69
491.06	18923.23
491.24	18860.04
491.41	19213.46
491.59	19381.98
491.77	19447.51
491.95	19293.04
492.13	19728.38
492.30	19939.02
492.48	19555.18
492.66	19765.82
492.84	20027.96
493.01	20210.53
493.19	20018.60
493.37	20610.76
493.54	20601.40
493.72	20819.07
493.90	20613.10
494.08	21238.02
494.25	20854.17
494.43	21163.12
494.61	20741.83
494.79	21294.19
494.96	21364.41
495.14	21123.33
495.32	21685.06
495.49	21928.48
495.67	21848.90
495.85	22246.79
496.02	22445.74
496.20	22361.48
496.38	22398.93
496.55	22553.40
496.73	22991.08
496.91	22625.96
497.09	22941.93
497.26	22916.19
497.44	23084.70
497.62	23278.97
497.79	23419.40
497.97	23592.60
498.14	23454.51
498.32	23826.65
498.50	23807.93
498.67	23644.09
498.85	23943.68
499.03	24442.21
499.20	24121.56
499.38	24283.06
499.56	24233.91
499.73	24765.21
499.91	24201.14
500.08	24451.58
500.26	24313.48
500.44	24793.29
500.61	24903.30
500.79	24730.10
500.97	25127.99
501.14	25062.46
501.32	25329.28
501.49	25450.99
501.67	25603.12
501.84	25483.75
502.02	25305.87
502.20	25788.02
502.37	25956.54
502.55	25834.83
502.72	25865.26
502.90	26375.50
503.07	25956.54
503.25	26265.49
503.43	26197.62
503.60	26426.99
503.78	26906.80
503.95	26630.62
504.13	26668.06
504.30	26574.44
504.48	26895.10
504.65	27108.08
504.83	26764.03
505.01	27229.79
505.18	27262.56
505.36	27791.52
505.53	27475.55
505.71	27129.15
505.88	27417.04
506.06	27108.08
506.23	27578.53
506.41	27613.64
506.58	27934.29
506.76	27861.74
506.93	28191.75
507.11	27789.18
507.28	28545.17
507.46	28451.55
507.63	28435.17
507.81	28435.17
507.98	28737.10
508.16	28563.90
508.33	28577.94
508.50	28964.13
508.68	28591.98
508.85	28933.70
509.03	28933.70
509.20	29104.56
509.38	29427.56
509.55	29766.93
509.73	29244.99
509.90	29685.01
510.08	29813.74
510.25	29940.13
510.42	29745.87
510.60	29757.57
510.77	30218.66
510.95	30108.65
511.12	29977.58
511.30	30394.20
511.47	30274.83
511.64	30380.15
511.82	30338.02
511.99	30316.96
512.17	30654.00
512.34	30628.25
512.51	30836.56
512.69	30843.58
512.86	30916.14
513.04	31171.25
513.21	31260.20
513.38	31440.42
513.56	30998.06
513.73	30979.33
513.90	31648.72
514.08	31117.42
514.25	31438.08
514.43	31679.15
514.60	32030.23
514.77	31740.00
514.95	31962.36
515.12	32266.63
515.29	31833.63
515.47	31948.31
515.64	32287.69
515.81	31826.60
515.99	32453.87
516.16	32376.63
516.33	32346.20
516.51	32643.45
516.68	32519.40
516.85	32587.28
517.03	32868.14
517.20	32739.41
517.37	32765.16
517.54	32744.09
517.72	33141.99
517.89	32886.87
518.06	33132.62
518.24	33069.43
518.41	33020.28
518.58	33338.59
518.75	33151.35
518.93	33172.41
519.10	33642.86
519.27	33432.21
519.45	33982.24
519.62	33635.84
519.79	33654.56
519.96	33881.60
520.14	34064.16
520.31	33647.54
520.48	34092.24
520.65	34384.81
520.83	34508.86
521.00	34419.92
521.17	34398.85
521.34	34682.06
521.52	34431.62
521.69	34646.95
521.86	35119.74
522.03	34794.40
522.20	34923.13
522.38	35166.55
522.55	35133.78
522.72	35147.82
522.89	35299.96
523.07	35407.62
523.24	35316.34
523.41	35480.18
523.58	35068.25
523.75	35463.80
523.92	35496.56
524.10	35739.98
524.27	35697.85
524.44	35936.59
524.61	35988.08
524.78	35959.99
524.96	36175.32
525.13	36357.88
525.30	36540.44
525.47	36432.78
525.64	36020.84
525.81	36617.68
525.98	36940.68
526.16	36329.80
526.33	36577.89
526.50	36311.07
526.67	36615.34
526.84	36643.43
527.01	36903.23
527.18	36692.58
527.36	36624.70
527.53	37001.53
527.70	37158.34
527.87	37130.26
528.04	36847.05
528.21	37041.32
528.38	37626.45
528.55	37591.34
528.72	37205.16
528.89	37427.51
529.07	37209.84
529.24	37193.45
529.41	37528.15
529.58	37488.36
529.75	37757.52
529.92	37970.51
530.09	37551.56
530.26	37926.04
530.43	37832.42
530.60	37731.78
530.77	37837.10
530.94	37944.76
531.11	37956.47
531.28	38253.72
531.46	37942.42
531.63	38543.94
531.80	38415.21
531.97	38555.64
532.14	38522.88
532.31	38298.19
532.48	38651.61
532.65	38937.15
532.82	38213.93
532.99	38785.02
533.16	39285.89
533.33	38646.93
533.50	38820.13
533.67	38911.41
533.84	39119.71
534.01	39105.67
534.18	38672.67
534.35	39428.66
534.52	39519.95
534.69	39091.63
534.86	39051.84
535.03	39054.18
535.20	39812.51
535.37	39597.18
535.54	39990.39
535.71	39669.74
535.88	39730.59
536.05	39983.37
536.22	39828.90
536.38	39819.53
536.55	39992.73
536.72	39859.32
536.89	40065.29
537.06	39594.84
537.23	40456.16
537.40	39929.54
537.57	40215.08
537.74	39835.92
537.91	40460.84
538.08	40439.78
538.25	40060.61
538.42	40533.40
538.59	40472.54
538.75	40552.12
538.92	40219.77
539.09	40666.81
539.26	40472.54
539.43	40559.14
539.60	40741.71
539.77	40645.74
539.94	40989.80
540.11	41041.29
540.28	40942.99
540.44	40701.92
540.61	41022.57
540.78	41097.47
540.95	40891.50
541.12	40755.75
541.29	41153.64
541.46	41184.07
541.62	41261.30
541.79	41652.17
541.96	40840.01
542.13	41148.96
542.30	41287.05
542.47	41228.54
542.63	41221.52
542.80	41841.76
542.97	42075.81
543.14	42462.00
543.31	41865.16
543.48	41778.56
543.64	42064.11
543.81	42492.43
543.98	42066.45
544.15	42127.30
544.32	42471.36
544.48	42344.97
544.65	42703.07
544.82	42859.89
544.99	41923.68
545.16	42199.86
545.32	42536.90
545.49	42850.53
545.66	43203.95
545.83	42522.85
546.00	42934.79
546.16	42976.92
546.33	42672.65
546.50	42628.18
546.67	43065.86
546.83	42459.66
547.00	43236.72
547.17	42876.27
547.34	42902.02
547.50	43100.97
547.67	43182.88
547.84	42733.50
548.00	42983.94
548.17	43302.25
548.34	43171.18
548.51	44020.80
548.67	43339.70
548.84	43236.72
549.01	43487.15
549.18	43255.44
549.34	43721.21
549.51	43665.03
549.68	43775.04
549.84	43463.75
550.01	43627.59
550.18	43473.11
550.34	43473.11
550.51	43786.74
550.68	44224.42
550.84	43782.06
551.01	43885.04
551.18	43775.04
551.34	43739.93
551.51	44306.34
551.68	43718.87
551.84	44154.21
552.01	43618.22
552.18	43779.72
552.34	44039.52
552.51	44650.40
552.68	43845.26
552.84	43803.13
553.01	44257.19
553.18	44444.43
553.34	44463.16
553.51	43983.35
553.67	44404.64
553.84	44390.60
554.01	44479.54
554.17	44683.17
554.34	44608.27
554.51	44673.81
554.67	45001.48
554.84	44765.09
555.00	44542.74
555.17	44322.72
555.33	44662.10
555.50	44390.60
555.67	44865.73
555.83	44570.82
556.00	45352.56
556.16	45282.34
556.33	45418.10
556.50	44797.85
556.66	45043.61
556.83	44748.70
556.99	45043.61
557.16	45263.62
557.32	45242.56
557.49	45317.45
557.65	44898.50
557.82	45230.85
557.98	45191.06
558.15	45207.45
558.32	45153.62
558.48	45069.36
558.65	45141.91
558.81	45139.57
558.98	45230.85
559.14	45160.64
559.31	45380.65
559.47	45308.09
559.64	45565.55
559.80	45942.38
559.97	45446.18
560.13	45155.96
560.30	45762.15
560.46	45944.72
560.63	46038.34
560.79	45715.34
560.96	45888.54
561.12	45670.87
561.29	45757.47
561.45	46333.24
561.61	45511.72
561.78	45528.10
561.94	45535.12
562.11	45876.84
562.27	46103.87
562.44	45759.81
562.60	46138.98
562.77	45844.07
562.93	45942.38
563.10	46010.25
563.26	45998.55
563.42	46527.51
563.59	45603.00
563.75	45808.96
563.92	46195.15
564.08	46485.38
564.24	45930.67
564.41	45991.53
564.57	45785.56
564.74	46047.70
564.90	46040.68
565.07	46094.51
565.23	46141.32
565.39	46078.13
565.56	46822.42
565.72	46080.47
565.88	46579.00
566.05	46401.12
566.21	46279.41
566.38	46466.66
566.54	46609.43
566.70	46469.00
566.87	46382.40
567.03	46054.72
567.19	46827.10
567.36	46513.47
567.52	46445.59
567.68	46403.46
567.85	46880.93
568.01	46925.40
568.17	46639.86
568.34	46866.89
568.50	46752.20
568.66	46450.27
568.83	46445.59
568.99	46700.71
569.15	46382.40
569.32	46644.54
569.48	46902.00
569.64	46581.34
569.81	47019.02
569.97	46660.92
570.13	46663.26
570.30	46300.48
570.46	46869.23
570.62	46429.21
570.78	47213.29
570.95	46700.71
571.11	46653.90
571.27	46241.96
571.43	46691.35
571.60	46710.07
571.76	46808.37
571.92	46539.21
572.09	46681.98
572.25	46674.96
572.41	46670.28
572.57	46824.76
572.74	47351.38
572.90	46593.04
573.06	46794.33
573.22	47227.33
573.38	46997.96
573.55	47349.04
573.71	47536.28
573.87	47070.51
574.03	46857.52
574.20	47419.25
574.36	47281.16
574.52	46951.15
574.68	47332.65
574.84	47320.95
575.01	47475.43
575.17	47234.35
575.33	46941.78
575.49	46712.41
575.65	47290.52
575.82	47079.88
575.98	46777.95
576.14	47236.69
576.30	47510.53
576.46	47241.37
576.62	47292.86
576.79	47175.84
576.95	46756.88
577.11	47054.13
577.27	47061.15
577.43	47047.11
577.59	47320.95
577.75	46925.40
577.92	46773.27
578.08	47187.54
578.24	46887.95
578.40	46965.19
578.56	47529.26
578.72	47384.15
578.88	47140.73
579.04	47131.37
579.21	47746.93
579.37	47508.19
579.53	47283.50
579.69	46962.85
579.85	47339.68
580.01	47220.31
580.17	47100.94
580.33	47482.45
580.49	47019.02
580.65	47049.45
580.82	47545.64
580.98	47203.92
581.14	47384.15
581.30	47140.73
581.46	46937.10
581.62	47491.81
581.78	47274.14
581.94	47365.42
582.10	47229.67
582.26	47590.11
582.42	47220.31
582.58	47667.35
582.74	47129.03
582.90	47330.31
583.06	47140.73
583.22	47215.63
583.38	47372.44
583.54	47168.82
583.70	47709.48
583.86	47814.80
584.02	47002.64
584.18	47966.94
584.34	47580.75
584.50	47547.98
584.66	47800.76
584.82	47526.92
584.98	48069.92
585.14	47653.31
585.30	47173.50
585.46	47749.27
585.62	47068.17
585.78	47676.71
585.94	47136.05
586.10	47604.16
586.26	46958.17
586.42	46995.62
586.58	47758.63
586.74	47320.95
586.90	47159.45
587.06	47498.83
587.22	47599.47
587.38	47356.06
587.54	47412.23
587.70	47938.85
587.86	47796.08
588.02	47622.88
588.18	47840.55
588.34	47143.07
588.49	47405.21
588.65	47711.82
588.81	47980.98
588.97	47573.73
589.13	47136.05
589.29	47707.14
589.45	48006.73
589.61	47889.70
589.77	47690.76
589.93	47988.00
590.08	47742.25
590.24	47845.23
590.40	48039.50
590.56	48093.33
590.72	48060.56
590.88	47758.63
591.04	47735.23
591.20	48102.69
591.35	48023.11
591.51	48121.41
591.67	48322.70
591.83	48135.46
591.99	47973.96
592.15	47903.74
592.31	47627.56
592.46	48074.60
592.62	47772.67
592.78	48416.32
592.94	48200.99
593.10	47917.79
593.26	48687.82
593.41	48004.39
593.57	48339.08
593.73	48479.52
593.89	48390.58
594.05	48175.25
594.20	48002.05
594.36	48519.31
594.52	48402.28
594.68	47753.95
594.84	47821.83
594.99	48676.12
595.15	47983.32
595.31	48514.62
595.47	48348.45
595.62	48147.16
595.78	48308.66
595.94	48273.55
596.10	47913.11
596.25	48378.87
596.41	48580.16
596.57	47917.79
596.73	48540.37
596.88	48311.00
597.04	48088.65
597.20	48470.15
597.36	48013.75
597.51	48460.79
597.67	48051.20
597.83	48292.27
597.99	48240.78
598.14	48240.78
598.30	48156.52
598.46	48205.67
598.61	48732.29
598.77	48243.12
598.93	48229.08
599.09	48301.64
599.24	48481.86
599.40	48119.07
599.56	48308.66
599.71	48729.95
599.87	48460.79
600.03	48208.01
600.18	48472.49
600.34	48617.61
600.50	48502.92
600.65	48273.55
600.81	48418.66
600.97	48568.46
601.12	48641.01
601.28	48430.36
601.44	48133.12
601.59	48486.54
601.75	48645.69
601.91	48147.16
602.06	48367.17
602.22	48849.32
602.37	48477.18
602.53	48030.13
602.69	48884.43
602.84	48215.04
603.00	48542.71
603.16	48236.10
603.31	48236.10
603.47	48690.16
603.62	48149.50
603.78	48399.94
603.94	48545.05
604.09	48598.88
604.25	48016.09
604.40	48196.31
604.56	48491.22
604.71	48662.08
604.87	48390.58
605.03	48458.45
605.18	47723.52
605.34	48549.73
605.49	48409.30
605.65	48746.34
605.80	48048.86
605.96	48224.40
606.12	48226.74
606.27	48252.48
606.43	48229.08
606.58	47983.32
606.74	48406.96
606.89	48233.76
607.05	48149.50
607.20	48828.26
607.36	48165.88
607.51	48360.15
607.67	48353.13
607.82	48034.81
607.98	48095.67
608.13	48121.41
608.29	48088.65
608.44	48100.35
608.60	48112.05
608.75	48156.52
608.91	48046.52
609.06	48079.28
609.22	48320.36
609.37	47779.70
609.53	48374.19
609.68	48456.11
609.84	48203.33
609.99	47945.87
610.15	48165.88
610.30	48158.86
610.46	48114.39
610.61	48137.80
610.76	48121.41
610.92	47772.67
611.07	47957.58
611.23	47929.49
611.38	47735.23
611.54	48200.99
611.69	48203.33
611.84	48074.60
612.00	47992.68
612.15	47711.82
612.31	48060.56
612.46	47608.84
612.62	47875.66
612.77	47707.14
612.92	48523.99
613.08	47903.74
613.23	47819.49
613.39	47676.71
613.54	47585.43
613.69	47849.91
613.85	47416.91
614.00	47618.20
614.15	47796.08
614.31	47522.24
614.46	47449.68
614.62	47536.28
614.77	47569.05
614.92	47681.39
615.08	47686.07
615.23	47866.30
615.38	48102.69
615.54	47817.14
615.69	47456.70
615.84	47700.12
616.00	48048.86
616.15	47306.91
616.30	47501.17
616.46	47337.33
616.61	47395.85
616.76	47440.32
616.92	47494.15
617.07	47414.57
617.22	47243.71
617.37	47292.86
617.53	47269.46
617.68	47297.55
617.83	47004.98
617.99	47852.25
618.14	47253.08
618.29	46960.51
618.45	47232.01
618.60	47136.05
618.75	47086.90
618.90	47239.03
619.06	47339.68
619.21	47365.42
619.36	47358.40
619.51	47157.11
619.67	46988.60
619.82	47007.32
619.97	47590.11
620.12	47372.44
620.28	46787.31
620.43	46923.06
620.58	47475.43
620.73	47576.07
620.89	47143.07
621.04	47601.82
621.19	46850.50
621.34	47185.20
621.49	46878.59
621.65	47147.75
621.80	47103.28
621.95	47091.58
622.10	46859.87
622.25	46586.02
622.41	46724.11
622.56	47056.47
622.71	46850.50
622.86	46960.51
623.01	46972.21
623.16	46869.23
623.32	46848.16
623.47	46731.14
623.62	46677.30
623.77	46642.20
623.92	47033.07
624.07	46623.47
624.23	46663.26
624.38	46412.82
624.53	46932.42
624.68	46110.89
624.83	46307.50
624.98	46361.33
625.13	46358.99
625.29	46300.48
625.44	46553.26
625.59	46653.90
625.74	46220.90
625.89	46127.28
626.04	45954.08
626.19	46593.04
626.34	46071.10
626.49	46021.95
626.65	45991.53
626.80	46312.18
626.95	46223.24
627.10	45675.55
627.25	46653.90
627.40	45759.81
627.55	45965.78
627.70	45778.54
627.85	46270.05
628.00	45734.07
628.15	46138.98
628.30	45411.07
628.45	45188.72
628.60	45373.63
628.76	45799.60
628.91	45998.55
629.06	45455.54
629.21	45855.78
629.36	45649.81
629.51	45312.77
629.66	45287.03
629.81	45848.75
629.96	45621.72
630.11	45689.60
630.26	45289.37
630.41	45937.69
630.56	45708.32
630.71	45441.50
630.86	45249.58
631.01	44924.24
631.16	45081.06
631.31	45265.96
631.46	45474.27
631.61	45216.81
631.76	45357.24
631.91	45411.07
632.06	45635.77
632.21	45612.36
632.36	45771.52
632.51	45359.58
632.66	45478.95
632.81	44980.42
632.96	45120.85
633.10	44985.10
633.25	45382.99
633.40	45366.60
633.55	45591.30
633.70	45284.68
633.85	44697.21
634.00	45085.74
634.15	45043.61
634.30	44762.75
634.45	44917.22
634.60	45027.23
634.75	45015.52
634.90	44664.44
635.05	44704.23
635.19	44737.00
635.34	44844.66
635.49	44996.80
635.64	44781.47
635.79	45350.22
635.94	44439.75
636.09	44821.26
636.24	44531.03
636.39	44538.05
636.53	44704.23
636.68	44626.99
636.83	44161.23
636.98	44472.52
637.13	44095.69
637.28	44739.34
637.43	44552.10
637.57	44027.82
637.72	44065.27
637.87	44196.34
638.02	44556.78
638.17	44016.11
638.32	44507.63
638.46	44453.79
638.61	44273.57
638.76	43959.94
638.91	43728.23
639.06	44168.25
639.20	43908.45
639.35	43814.83
639.50	43927.17
639.65	44161.23
639.80	43669.72
639.94	43978.67
640.09	44009.09
640.24	44545.08
640.39	43643.97
640.54	43796.10
640.68	43749.29
640.83	44285.28
640.98	43679.08
641.13	43686.10
641.27	43842.92
641.42	43934.20
641.57	43723.55
641.72	44105.06
641.86	43281.19
642.01	43409.92
642.16	43562.05
642.31	43065.86
642.45	43264.80
642.60	43496.52
642.75	43035.43
642.90	43562.05
643.04	43510.56
643.19	43246.08
643.34	43295.23
643.48	43168.84
643.63	43295.23
643.78	43615.88
643.93	43805.47
644.07	43459.07
644.22	43019.05
644.37	43526.94
644.51	43672.06
644.66	43344.38
644.81	43311.61
644.95	43454.39
645.10	43122.03
645.25	42829.46
645.39	42593.07
645.54	42887.98
645.69	42574.34
645.83	42899.68
645.98	42794.36
646.13	42504.13
646.27	42859.89
646.42	42658.60
646.57	42834.14
646.71	42890.32
646.86	43267.14
647.00	42864.57
647.15	42726.48
647.30	43117.35
647.44	42780.31
647.59	42625.84
647.74	42934.79
647.88	42880.95
648.03	43119.69
648.17	43159.48
648.32	42803.72
648.47	42562.64
648.61	42525.19
648.76	42609.45
648.90	42279.44
649.05	42862.23
649.20	42689.03
649.34	42457.32
649.49	42784.99
649.63	42602.43
649.78	42843.51
649.92	42660.94
650.07	42686.69
650.21	42642.22
650.36	42981.60
650.51	42632.86
650.65	42499.45
650.80	42476.04
650.94	42377.74
651.09	42134.32
651.23	42068.79
651.38	41862.82
651.52	41567.91
651.67	42167.09
651.81	42043.04
651.96	41837.08
652.10	41612.38
652.25	41874.52
652.39	41823.03
652.54	41930.70
652.68	41806.65
652.83	42050.06
652.97	42057.09
653.12	41965.81
653.26	41872.18
653.41	41598.34
653.55	41764.52
653.70	42305.18
653.84	41858.14
653.99	42031.34
654.13	41305.77
654.27	41668.56
654.42	41869.84
654.56	41584.30
654.71	41862.82
654.85	41965.81
655.00	41588.98
655.14	41656.85
655.29	41844.10
655.43	41734.09
655.57	41511.74
655.72	41090.44
655.86	40945.33
656.01	41387.69
656.15	41024.91
656.30	41031.93
656.44	41282.37
656.58	41509.40
656.73	41600.68
656.87	40870.43
657.01	40823.62
657.16	41298.75
657.30	41146.62
657.45	41198.11
657.59	41006.19
657.73	40893.84
657.88	41265.99
658.02	41265.99
658.16	41455.57
658.31	41048.32
658.45	41558.55
658.60	40624.68
658.74	41045.97
658.88	41167.68
659.03	40474.88
659.17	40954.69
659.31	40474.88
659.46	40184.66
659.60	40470.20
659.74	40158.91
659.89	40041.88
660.03	39861.66
660.17	40315.73
660.32	40364.88
660.46	40123.80
660.60	39864.00
660.74	40048.91
660.89	40299.34
661.03	39959.97
661.17	39833.58
661.32	39686.12
661.46	40266.58
661.60	39688.46
661.74	39782.09
661.89	39564.42
662.03	39543.35
662.17	39618.25
662.31	39243.76
662.46	40100.40
662.60	39463.77
662.74	39384.19
662.88	39641.65
663.03	39065.88
663.17	39573.78
663.31	38773.31
663.45	39112.69
663.60	39580.80
663.74	39299.94
663.88	38976.94
664.02	38960.56
664.17	38902.04
664.31	39058.86
664.45	38969.92
664.59	38649.27
664.73	38536.92
664.88	38728.84
665.02	38249.03
665.16	38417.55
665.30	38485.43
665.44	38550.96
665.59	38230.31
665.73	38220.95
665.87	37839.44
666.01	38171.80
666.15	38298.19
666.29	37696.67
666.44	38120.31
666.58	38094.56
666.72	37780.93
666.86	37617.09
667.00	37865.19
667.14	38026.68
667.28	38087.54
667.43	37546.87
667.57	37701.35
667.71	38143.71
667.85	37916.68
667.99	37687.31
668.13	37275.37
668.27	37163.03
668.41	37237.92
668.56	37104.51
668.70	36734.71
668.84	36570.87
668.98	36952.38
669.12	36575.55
669.26	37031.96
669.40	36737.05
669.54	36655.13
669.68	36659.81
669.82	36957.06
669.96	36278.30
670.10	36547.47
670.25	36055.95
670.39	36053.61
670.53	36198.73
670.67	36252.56
670.81	36374.27
670.95	36411.71
671.09	36062.97
671.23	35737.64
671.37	36191.70
671.51	35828.92
671.65	35580.82
671.79	35700.19
671.93	36006.80
672.07	35896.80
672.21	35941.27
672.35	35412.31
672.49	35218.04
672.63	35377.20
672.77	35079.95
672.91	35342.09
673.05	35201.66
673.19	34871.64
673.33	35168.89
673.47	34656.31
673.61	34962.92
673.75	34452.69
673.89	34705.46
674.03	34117.99
674.17	34007.98
674.31	33858.19
674.45	34092.24
674.59	33961.17
674.73	34089.90
674.87	34043.09
675.01	33476.68
675.15	33469.66
675.29	33448.60
675.43	33551.58
675.56	33589.03
675.70	33493.07
675.84	33582.01
675.98	32477.27
676.12	33317.53
676.26	33104.54
676.40	32903.25
676.54	33001.55
676.68	33006.23
676.82	32524.08
676.96	33017.94
677.10	32708.99
677.23	32549.83
677.37	32669.20
677.51	32650.47
677.65	32301.73
677.79	32105.13
677.93	32215.13
678.07	31934.27
678.21	31864.05
678.34	31681.49
678.48	31615.96
678.62	31503.61
678.76	31428.71
678.90	31543.40
679.04	31342.11
679.18	31440.42
679.31	31496.59
679.45	30799.11
679.59	31033.16
679.73	30892.73
679.87	30621.23
680.00	30513.56
680.14	30253.76
680.28	30782.73
680.42	30185.89
680.56	30433.99
680.70	30162.48
680.83	30284.19
680.97	30047.80
681.11	29785.66
681.25	29703.74
681.39	29427.56
681.52	29663.95
681.66	29390.11
681.80	28830.72
681.94	28959.45
682.07	28601.35
682.21	28669.22
682.35	28615.39
682.49	28849.44
682.62	28657.52
682.76	28748.80
682.90	28641.14
683.04	28432.83
683.17	28486.66
683.31	27880.46
683.45	28519.43
683.59	28091.11
683.72	27751.73
683.86	27985.79
684.00	27878.12
684.13	27946.00
684.27	27779.82
684.41	27538.74
684.55	27613.64
684.68	27084.68
684.82	27056.59
684.96	26871.69
685.09	27166.60
685.23	27227.45
685.37	27339.80
685.50	27388.95
685.64	27051.91
685.78	26731.26
685.91	26740.62
686.05	26214.00
686.19	25755.26
686.32	25827.81
686.46	25708.44
686.60	25809.09
686.73	25619.50
686.87	25783.34
687.01	25867.60
687.14	25614.82
687.28	25582.06
687.42	25113.95
687.55	25160.76
687.69	25514.18
687.82	25064.80
687.96	24957.13
688.10	25099.90
688.23	25039.05
688.37	25085.86
688.50	25174.80
688.64	24498.39
688.78	24549.88
688.91	24425.83
689.05	24493.71
689.18	24112.20
689.32	23536.43
689.46	23978.79
689.59	23873.46
689.73	24067.73
689.86	24039.64
690.00	23613.66
690.13	24020.92
690.27	23332.80
690.41	23531.75
690.54	23358.55
690.68	22986.40
690.81	23030.87
690.95	23150.24
691.08	22555.74
691.22	22651.70
691.35	22537.02
691.49	22986.40
691.62	22616.60
691.76	22162.53
691.89	21982.31
692.03	22127.42
692.16	21949.54
692.30	21954.22
692.43	21830.18
692.57	21589.10
692.70	22270.20
692.84	21535.27
692.97	21254.40
693.11	21385.47
693.24	21090.57
693.38	21120.99
693.51	21076.52
693.65	20989.92
693.78	20783.96
693.92	20540.54
694.05	20730.12
694.19	20844.81
694.32	20570.97
694.45	20884.60
694.59	20769.91
694.72	20744.17
694.86	20465.64
694.99	20255.00
695.13	20154.35
695.26	19997.54
695.39	19613.69
695.53	19667.52
695.66	19719.01
695.80	19894.55
695.93	19721.35
696.07	19557.52
696.20	19023.87
696.33	19253.25
696.47	18974.72
696.60	19103.45
696.73	19222.82
696.87	19208.78
697.00	18923.23
697.14	18974.72
697.27	18747.69
697.40	18675.13
697.54	18429.38
697.67	18604.92
697.80	18277.24
697.94	18565.13
698.07	18174.26
698.21	18174.26
698.34	18214.05
698.47	18012.76
698.61	17589.13
698.74	17514.23
698.87	17902.76
699.01	17020.38
699.14	17486.14
699.27	17415.93
699.40	17378.48
699.54	17069.53
699.67	17160.81
699.80	17179.53
699.94	16814.41
700.07	17228.68
700.20	16821.43
700.34	16828.45
700.47	16587.38
700.60	16809.73
700.73	16809.73
700.87	16610.78
701.00	16652.91
701.13	16304.17
701.26	16479.71
701.40	16343.96
701.53	16229.27
701.66	16002.24
701.79	15950.75
701.93	16037.35
702.06	15506.05
702.19	15826.70
702.32	15768.19
702.46	15573.92
702.59	15719.04
702.72	15796.28
702.85	15587.97
702.99	15564.56
703.12	15117.52
703.25	14888.15
703.38	15012.20
703.51	15206.46
703.65	14787.50
703.78	14654.09
703.91	14572.18
704.04	14443.45
704.17	14537.07
704.31	14869.42
704.44	14417.70
704.57	14443.45
704.70	14340.46
704.83	14148.54
704.96	14326.42
705.10	14015.13
705.23	14019.81
>>>>>End Processed Spectral Data<<<<<
