SpectraSuite Data File
++++++++++++++++++++++++++++++++++++
Date: Fri Oct 25 10:43:18 EDT 2013
User: price-jones
Dark Spectrum Present: No
Reference Spectrum Present: No
Number of Sampled Component Spectra: 1
Spectrometers: USB2+H05261
Integration Time (usec): 100000 (USB2+H05261)
Spectra Averaged: 1 (USB2+H05261)
Boxcar Smoothing: 0 (USB2+H05261)
Correct for Electrical Dark: No (USB2+H05261)
Strobe/Lamp Enabled: No (USB2+H05261)
Correct for Detector Non-linearity: No (USB2+H05261)
Correct for Stray Light: No (USB2+H05261)
Number of Pixels in Processed Spectrum: 2048
>>>>>Begin Processed Spectral Data<<<<<
365.73	95.96
365.92	95.96
366.12	95.96
366.32	102.98
366.52	7.02
366.72	84.26
366.91	30.43
367.11	0.00
367.31	2.34
367.51	11.70
367.70	25.75
367.90	51.49
368.10	0.00
368.30	53.83
368.49	37.45
368.69	98.30
368.89	18.72
369.09	32.77
369.28	14.04
369.48	30.43
369.68	0.00
369.87	79.58
370.07	70.22
370.27	110.01
370.47	248.10
370.66	379.17
370.86	411.93
371.06	369.80
371.25	465.77
371.45	444.70
371.65	507.90
371.84	430.66
372.04	477.47
372.24	458.74
372.44	521.94
372.63	489.17
372.83	512.58
373.03	409.59
373.22	496.19
373.42	496.19
373.62	442.36
373.81	578.11
374.01	538.32
374.21	521.94
374.40	510.24
374.60	613.22
374.79	582.79
374.99	531.30
375.19	650.67
375.38	585.13
375.58	629.60
375.78	624.92
375.97	650.67
376.17	622.58
376.37	599.18
376.56	613.22
376.76	627.26
376.95	615.56
377.15	592.16
377.35	674.07
377.54	669.39
377.74	730.25
377.93	603.86
378.13	653.01
378.33	727.91
378.52	603.86
378.72	662.37
378.91	610.88
379.11	575.77
379.31	629.60
379.50	592.16
379.70	711.52
379.89	664.71
380.09	699.82
380.28	685.78
380.48	671.73
380.68	653.01
380.87	702.16
381.07	671.73
381.26	681.10
381.46	753.65
381.65	737.27
381.85	669.39
382.04	669.39
382.24	741.95
382.43	660.03
382.63	683.44
382.83	671.73
383.02	748.97
383.22	737.27
383.41	671.73
383.61	730.25
383.80	716.20
384.00	678.76
384.19	755.99
384.39	777.06
384.58	868.34
384.78	856.64
384.97	767.70
385.17	748.97
385.36	903.45
385.56	765.36
385.75	727.91
385.95	851.96
386.14	854.30
386.34	903.45
386.53	706.84
386.72	847.27
386.92	828.55
387.11	816.85
387.31	847.27
387.50	779.40
387.70	823.87
387.89	887.06
388.09	842.59
388.28	842.59
388.48	802.80
388.67	938.55
388.86	910.47
389.06	915.15
389.25	866.00
389.45	933.87
389.64	905.79
389.84	973.66
390.03	973.66
390.22	1055.58
390.42	1025.15
390.61	945.58
390.81	980.68
391.00	1043.88
391.19	1001.75
391.39	1111.75
391.58	1015.79
391.78	992.39
391.97	987.71
392.16	1060.26
392.36	1020.47
392.55	926.85
392.75	1013.45
392.94	952.60
393.13	980.68
393.33	994.73
393.52	1057.92
393.71	1123.46
393.91	1050.90
394.10	1015.79
394.29	1144.52
394.49	1107.07
394.68	1200.69
394.88	1214.74
395.07	1242.82
395.26	1259.21
395.46	1231.12
395.65	1172.61
395.84	1200.69
396.04	1287.29
396.23	1224.10
396.42	1121.12
396.62	1146.86
396.81	1170.27
397.00	1198.35
397.19	1266.23
397.39	1324.74
397.58	1425.39
397.77	1308.36
397.97	1441.77
398.16	1448.79
398.35	1427.73
398.55	1387.94
398.74	1437.09
398.93	1373.89
399.12	1516.67
399.32	1586.88
399.51	1547.09
399.70	1472.20
399.90	1460.49
400.09	1544.75
400.28	1570.50
400.47	1614.97
400.67	1591.56
400.86	1535.39
401.05	1633.69
401.24	1610.29
401.44	1617.31
401.63	1614.97
401.82	1701.57
402.01	1664.12
402.21	1813.92
402.40	1713.27
402.59	1755.40
402.78	1734.34
402.97	1706.25
403.17	1682.85
403.36	1729.66
403.55	1893.49
403.74	1781.15
403.93	1811.57
404.13	1963.71
404.32	1916.90
404.51	1846.68
404.70	1926.26
404.89	1928.60
405.09	2017.54
405.28	2031.58
405.47	1874.77
405.66	1937.96
405.85	1949.67
406.05	1973.07
406.24	1933.28
406.43	1947.33
406.62	1998.82
406.81	2094.78
407.00	2015.20
407.20	2062.01
407.39	1987.11
407.58	2083.08
407.77	2155.63
407.96	2134.57
408.15	2244.57
408.34	2246.91
408.54	2214.15
408.73	2272.66
408.92	2258.62
409.11	2190.74
409.30	2228.19
409.49	2249.25
409.68	2303.09
409.87	2289.04
410.07	2256.28
410.26	2209.47
410.45	2406.07
410.64	2349.90
410.83	2380.32
411.02	2403.73
411.21	2644.81
411.40	2600.34
411.59	2581.61
411.78	2602.68
411.98	2537.14
412.17	2548.84
412.36	2597.99
412.55	2586.29
412.74	2677.57
412.93	2736.09
413.12	2677.57
413.31	2810.98
413.50	2806.30
413.69	2794.60
413.88	3026.31
414.07	2825.03
414.26	2920.99
414.45	2946.73
414.64	2876.52
414.83	3082.49
415.02	2991.20
415.22	2995.89
415.41	3005.25
415.60	3028.65
415.79	3052.06
415.98	3204.19
416.17	3234.62
416.36	3197.17
416.55	3187.81
416.74	3208.87
416.93	3258.03
417.12	3283.77
417.31	3342.28
417.50	3438.25
417.69	3325.90
417.88	3351.65
418.07	3433.57
418.26	3323.56
418.45	3480.38
418.64	3442.93
418.83	3459.31
419.02	3466.33
419.21	3520.17
419.39	3623.15
419.58	3529.53
419.77	3564.64
419.96	3592.72
420.15	3625.49
420.34	3595.06
420.53	3829.12
420.72	3861.88
420.91	3763.58
421.10	3859.54
421.29	3812.73
421.48	3676.98
421.67	3922.74
421.86	3786.99
422.05	3845.50
422.24	3721.45
422.43	3784.65
422.61	3749.54
422.80	3684.00
422.99	3852.52
423.18	3918.06
423.37	3871.25
423.56	3943.80
423.75	3812.73
423.94	3627.83
424.13	3548.25
424.32	3819.75
424.50	3964.87
424.69	3974.23
424.88	3976.57
425.07	3934.44
425.26	3791.67
425.45	3852.52
425.64	3817.41
425.83	3857.20
426.01	4021.04
426.20	3906.35
426.39	4032.74
426.58	3911.04
426.77	3829.12
426.96	3922.74
427.15	3969.55
427.33	3948.48
427.52	4079.55
427.71	3985.93
427.90	4044.45
428.09	4107.64
428.28	4163.81
428.46	4086.58
428.65	3969.55
428.84	4152.11
429.03	4182.54
429.22	4133.39
429.40	4163.81
429.59	4201.26
429.78	3880.61
429.97	3817.41
430.16	3946.14
430.34	3976.57
430.53	4154.45
430.72	4117.00
430.91	4215.30
431.10	4196.58
431.28	4484.47
431.47	4482.13
431.66	4547.66
431.85	4374.46
432.03	4564.04
432.22	4545.32
432.41	4664.69
432.60	4730.22
432.79	4505.53
432.97	4664.69
433.16	4620.22
433.35	4638.94
433.54	4610.86
433.72	4575.75
433.91	4573.41
434.10	4660.01
434.28	4807.46
434.47	4669.37
434.66	4723.20
434.85	4802.78
435.03	4992.36
435.22	4915.12
435.41	4833.21
435.59	4983.00
435.78	5008.75
435.97	5090.67
436.16	5191.31
436.34	5163.22
436.53	5074.28
436.72	5158.54
436.90	5041.51
437.09	5116.41
437.28	5011.09
437.46	5109.39
437.65	5064.92
437.84	5041.51
438.02	5188.97
438.21	5172.58
438.40	4999.38
438.58	5401.96
438.77	5373.87
438.96	5437.06
439.14	5437.06
439.33	5631.33
439.52	5547.07
439.70	5315.36
439.89	5596.22
440.08	5640.69
440.26	5708.57
440.45	5614.95
440.63	5788.14
440.82	5806.87
441.01	5853.68
441.19	6061.99
441.38	6024.54
441.57	6115.82
441.75	6019.86
441.94	6139.23
442.12	6031.56
442.31	6090.07
442.50	6230.51
442.68	6356.90
442.87	6216.46
443.05	6305.40
443.24	6394.34
443.43	6310.08
443.61	6228.17
443.80	6415.41
443.98	6120.50
444.17	6118.16
444.35	6520.73
444.54	6640.10
444.73	6445.84
444.91	6476.26
445.10	6408.39
445.28	6368.60
445.47	6296.04
445.65	6396.68
445.84	6483.28
446.02	6560.52
446.21	6452.86
446.39	6445.84
446.58	6434.13
446.77	6597.97
446.95	6473.92
447.14	6710.32
447.32	6747.76
447.51	6504.35
447.69	6534.78
447.88	6537.12
448.06	6731.38
448.25	6588.61
448.43	6497.33
448.62	6670.53
448.80	6579.25
448.99	6623.72
449.17	6817.98
449.36	6707.98
449.54	6817.98
449.73	6991.18
449.91	6939.69
450.10	7002.88
450.28	7075.44
450.46	7199.49
450.65	7220.55
450.83	7192.47
451.02	7033.31
451.20	7122.25
451.39	7002.88
451.57	6942.03
451.76	7108.21
451.94	7194.81
452.13	7255.66
452.31	7080.12
452.49	6927.99
452.68	6984.16
452.86	7108.21
453.05	7232.26
453.23	7435.88
453.42	7122.25
453.60	7166.72
453.78	7438.22
453.97	7274.38
454.15	7267.36
454.34	7232.26
454.52	7119.91
454.70	7520.14
454.89	7552.91
455.07	7332.90
455.26	7552.91
455.44	7756.54
455.62	7754.19
455.81	7763.56
455.99	7808.03
456.17	7630.15
456.36	7655.89
456.54	7784.62
456.73	7805.69
456.91	7960.16
457.09	7934.42
457.28	8100.59
457.46	7999.95
457.64	8051.44
457.83	7943.78
458.01	7918.03
458.19	8095.91
458.38	7999.95
458.56	8170.81
458.74	8133.36
458.93	8142.72
459.11	8037.40
459.29	8346.35
459.48	8056.12
459.66	8058.46
459.84	8439.97
460.03	8336.99
460.21	8383.80
460.39	8484.44
460.57	8276.13
460.76	8482.10
460.94	8542.96
461.12	8533.59
461.31	8711.47
461.49	8599.13
461.67	8652.96
461.85	8713.81
462.04	8713.81
462.22	9263.84
462.40	8833.18
462.59	8725.52
462.77	8683.39
462.95	8784.03
463.13	8933.82
463.32	8777.01
463.50	8802.75
463.68	8975.95
463.86	8659.98
464.05	8877.65
464.23	8772.33
464.41	8835.52
464.59	8875.31
464.78	9092.98
464.96	9001.70
465.14	8884.67
465.32	9130.43
465.50	9228.73
465.69	9217.03
465.87	9240.44
466.05	9083.62
466.23	9111.71
466.41	9149.15
466.60	9153.84
466.78	9041.49
466.96	9170.22
467.14	9053.19
467.32	9114.05
467.51	9312.99
467.69	9224.05
467.87	9261.50
468.05	9240.44
468.23	9486.19
468.41	9130.43
468.60	9366.82
468.78	9624.28
468.96	9437.04
469.14	9387.89
469.32	9624.28
469.50	9371.50
469.69	9610.24
469.87	9708.54
470.05	9586.83
470.23	9661.73
470.41	9701.52
470.59	9717.90
470.77	9750.67
470.95	9905.15
471.14	10071.33
471.32	9830.25
471.50	9977.70
471.68	10068.98
471.86	10174.31
472.04	10242.18
472.22	10389.64
472.40	9989.41
472.58	10314.74
472.77	10146.22
472.95	10443.47
473.13	10553.48
473.31	10380.28
473.49	10244.52
473.67	10665.82
473.85	10448.15
474.03	10874.13
474.21	10869.45
474.39	11009.88
474.57	10876.47
474.75	10799.23
474.93	11091.80
475.12	11110.52
475.30	11098.82
475.48	11089.46
475.66	11126.91
475.84	11108.18
476.02	11192.44
476.20	11328.19
476.38	11435.86
476.56	11534.16
476.74	11726.08
476.92	11569.27
477.10	11749.49
477.28	11922.69
477.46	11786.94
477.64	12114.61
477.82	12266.75
478.00	12351.01
478.18	12362.71
478.36	12552.29
478.54	12538.25
478.72	12634.21
478.90	12748.90
479.08	12858.90
479.26	12854.22
479.44	12753.58
479.62	13020.40
479.80	13020.40
479.98	13242.75
480.16	13385.52
480.34	13387.86
480.52	13659.37
480.70	13406.59
480.88	13422.97
481.06	13696.82
481.24	13760.01
481.41	13968.32
481.59	14274.93
481.77	14251.52
481.95	14197.69
482.13	14281.95
482.31	14207.05
482.49	14658.78
482.67	14483.24
482.85	14761.76
483.03	14869.42
483.21	14998.15
483.39	15194.76
483.57	14850.70
483.74	15257.95
483.92	15176.03
484.10	15379.66
484.28	15667.55
484.46	15639.46
484.64	16287.79
484.82	15822.02
485.00	15908.62
485.18	16168.42
485.35	16266.72
485.53	15730.74
485.71	15850.11
485.89	15950.75
486.07	16161.40
486.25	16451.63
486.43	16449.28
486.61	16922.07
486.78	16947.82
486.96	16922.07
487.14	17343.37
487.32	17762.33
487.50	17778.71
487.68	17865.31
487.85	18195.32
488.03	18265.54
488.21	18181.28
488.39	18541.72
488.57	18560.45
488.75	18515.98
488.92	18661.09
489.10	19108.13
489.28	19126.86
489.46	19421.77
489.64	19171.33
489.81	19962.43
489.99	19896.89
490.17	19829.02
490.35	20453.94
490.53	20086.48
490.70	20128.61
490.88	20198.82
491.06	20615.44
491.24	20451.60
491.41	20486.71
491.59	20652.89
491.77	20362.66
491.95	20603.74
492.13	21046.10
492.30	21001.63
492.48	21322.28
492.66	21331.64
492.84	21610.17
493.01	21727.19
493.19	21422.92
493.37	22157.85
493.54	21979.97
493.72	22328.71
493.90	22195.30
494.08	22789.80
494.25	22867.03
494.43	22817.88
494.61	23077.68
494.79	23201.73
494.96	23042.57
495.14	23098.75
495.32	23283.65
495.49	23250.88
495.67	23606.64
495.85	23821.97
496.02	23704.95
496.20	23924.96
496.38	24034.96
496.55	24334.55
496.73	24711.38
496.91	24236.25
497.09	24641.16
497.26	24547.54
497.44	24730.10
497.62	24788.61
497.79	24994.58
497.97	24692.65
498.14	24973.52
498.32	25404.17
498.50	25013.31
498.67	25619.50
498.85	25621.84
499.03	25734.19
499.20	25853.56
499.38	26005.69
499.56	26029.10
499.73	25998.67
499.91	26286.56
500.08	26218.68
500.26	26015.05
500.44	26375.50
500.61	26300.60
500.79	26218.68
500.97	26544.02
501.14	26764.03
501.32	26532.31
501.49	26731.26
501.67	26703.17
501.84	27077.66
502.02	27248.52
502.20	27555.13
502.37	27384.27
502.55	27101.06
502.72	27520.02
502.90	27580.87
503.07	27562.15
503.25	27709.60
503.43	27342.14
503.60	27637.05
503.78	27782.16
503.95	27325.75
504.13	28180.05
504.30	28353.25
504.48	28245.58
504.65	28732.42
504.83	28765.18
505.01	28500.70
505.18	28540.49
505.36	29167.76
505.53	29034.35
505.71	29244.99
505.88	29310.53
506.06	29324.57
506.23	29462.66
506.41	29263.72
506.58	29472.03
506.76	29275.42
506.93	29474.37
507.11	29418.19
507.28	29570.33
507.46	29537.56
507.63	29771.61
507.81	30029.07
507.98	29685.01
508.16	29579.69
508.33	29736.51
508.50	30387.18
508.68	30213.98
508.85	30562.72
509.03	30265.47
509.20	30864.64
509.38	30764.00
509.55	30829.54
509.73	30721.87
509.90	31527.02
510.08	30457.39
510.25	31227.43
510.42	31243.81
510.60	31463.82
510.77	31442.76
510.95	31655.75
511.12	31269.56
511.30	31669.79
511.47	31559.78
511.64	31955.33
511.82	31826.60
511.99	31845.33
512.17	31786.82
512.34	31840.65
512.51	32046.62
512.69	32231.52
512.86	32208.11
513.04	32524.08
513.21	32453.87
513.38	32046.62
513.56	32786.22
513.73	32381.31
513.90	32648.13
514.08	32512.38
514.25	32694.94
514.43	32652.81
514.60	32950.06
514.77	33193.48
514.95	33223.90
515.12	33273.06
515.29	33076.45
515.47	33450.94
515.64	33596.05
515.81	33518.81
515.99	33013.26
516.16	33146.67
516.33	33268.37
516.51	33441.57
516.68	33277.74
516.85	32601.32
517.03	33053.05
517.20	33446.26
517.37	34012.66
517.54	34003.30
517.72	33958.83
517.89	33521.15
518.06	33764.57
518.24	33647.54
518.41	33830.10
518.58	34122.67
518.75	34092.24
518.93	34574.39
519.10	34410.56
519.27	34300.55
519.45	34457.37
519.62	34899.73
519.79	34588.44
519.96	34857.60
520.14	34810.79
520.31	34958.24
520.48	34881.00
520.65	35302.30
520.83	35304.64
521.00	35187.61
521.17	35276.55
521.34	35374.86
521.52	35751.68
521.69	35526.99
521.86	35658.06
522.03	35805.52
522.20	35864.03
522.38	35545.72
522.55	36236.17
522.72	35793.81
522.89	35763.39
523.07	35857.01
523.24	35899.14
523.41	36641.09
523.58	36767.48
523.75	37223.88
523.92	36694.92
524.10	36638.75
524.27	36666.83
524.44	36449.16
524.61	37095.15
524.78	36746.41
524.96	36884.50
525.13	37212.18
525.30	37144.30
525.47	37186.43
525.64	37584.32
525.81	37312.82
525.98	37109.19
526.16	37270.69
526.33	37088.13
526.50	36814.29
526.67	36601.30
526.84	37013.23
527.01	36580.23
527.18	37184.09
527.36	37460.27
527.53	38143.71
527.70	37734.12
527.87	37769.22
528.04	37860.51
528.21	37701.35
528.38	37890.93
528.55	38129.67
528.72	38384.79
528.89	38307.55
529.07	38644.59
529.24	38183.50
529.41	38389.47
529.58	38572.03
529.75	38171.80
529.92	38546.28
530.09	38452.66
530.26	38684.37
530.43	38586.07
530.60	38391.81
530.77	38438.62
530.94	39480.16
531.11	38621.18
531.28	39229.72
531.46	38689.06
531.63	38946.51
531.80	38892.68
531.97	39505.90
532.14	39026.09
532.31	38717.14
532.48	38864.60
532.65	39189.93
532.82	38911.41
532.99	39185.25
533.16	38972.26
533.33	39599.52
533.50	39545.69
533.67	39421.64
533.84	39611.23
534.01	39751.66
534.18	39697.83
534.35	39770.38
534.52	39566.76
534.69	39648.68
534.86	39821.87
535.03	39756.34
535.20	39948.26
535.37	40053.59
535.54	40322.75
535.71	40091.04
535.88	40041.88
536.05	39793.79
536.22	40521.69
536.38	40205.72
536.55	39711.87
536.72	40306.37
536.89	40128.48
537.06	40222.11
537.23	40847.03
537.40	40631.70
537.57	40694.89
537.74	40491.27
537.91	40479.57
538.08	40961.72
538.25	40418.71
538.42	40570.85
538.59	40697.24
538.75	40315.73
538.92	40767.45
539.09	40711.28
539.26	40950.01
539.43	40802.56
539.60	40753.41
539.77	40849.37
539.94	40924.27
540.11	40737.02
540.28	41013.21
540.44	41141.94
540.61	41060.02
540.78	40699.58
540.95	41109.17
541.12	40872.78
541.29	41315.14
541.46	41380.67
541.62	41289.39
541.79	41698.98
541.96	41017.89
542.13	41464.93
542.30	41624.09
542.47	41392.37
542.63	41361.95
542.80	41404.08
542.97	41921.34
543.14	42129.64
543.31	41846.44
543.48	41956.44
543.64	42396.46
543.81	42347.31
543.98	42686.69
544.15	42082.83
544.32	42265.39
544.48	42653.92
544.65	42677.33
544.82	42401.14
544.99	42014.96
545.16	41769.20
545.32	42213.90
545.49	42859.89
545.66	42923.08
545.83	42370.72
546.00	42536.90
546.16	42330.93
546.33	42483.06
546.50	42012.62
546.67	42564.98
546.83	42029.00
547.00	42831.80
547.17	42710.10
547.34	42813.08
547.50	42735.84
547.67	42749.88
547.84	43239.06
548.00	42930.11
548.17	43180.54
548.34	42834.14
548.51	43849.94
548.67	43400.55
548.84	43395.87
549.01	43407.58
549.18	43463.75
549.34	43433.32
549.51	43117.35
549.68	43131.39
549.84	43320.98
550.01	43569.07
550.18	43461.41
550.34	43313.95
550.51	43349.06
550.68	43473.11
550.84	43143.09
551.01	44149.53
551.18	43105.65
551.34	43353.74
551.51	43782.06
551.68	43580.78
551.84	43515.24
552.01	43435.66
552.18	43878.02
552.34	43477.79
552.51	44261.87
552.68	43622.90
552.84	43868.66
553.01	44388.26
553.18	43800.79
553.34	44287.62
553.51	44177.61
553.67	44196.34
553.84	44680.83
554.01	44760.40
554.17	44151.87
554.34	44030.16
554.51	44367.20
554.67	44392.94
554.84	44289.96
555.00	44414.01
555.17	43962.28
555.33	44336.77
555.50	44304.00
555.67	44233.78
555.83	44465.50
556.00	43950.58
556.16	44568.48
556.33	44336.77
556.50	44521.67
556.66	44458.48
556.83	44247.83
556.99	44390.60
557.16	44727.64
557.32	44367.20
557.49	44442.09
557.65	43906.11
557.82	44182.29
557.98	44685.51
558.15	44619.97
558.32	44327.41
558.48	44292.30
558.65	44280.60
558.81	44435.07
558.98	44346.13
559.14	44584.86
559.31	44680.83
559.47	44655.08
559.64	45254.26
559.80	44636.36
559.97	45036.59
560.13	44477.20
560.30	45017.86
560.46	44650.40
560.63	45008.50
560.79	45298.73
560.96	45427.46
561.12	44832.96
561.29	44921.90
561.45	44598.91
561.61	44591.89
561.78	44889.13
561.94	44758.06
562.11	44807.22
562.27	44610.61
562.44	44905.52
562.60	45151.27
562.77	44905.52
562.93	45258.94
563.10	45167.66
563.26	44631.68
563.42	45588.95
563.59	45081.06
563.75	44816.58
563.92	45027.23
564.08	45067.02
564.24	45294.05
564.41	45188.72
564.57	44987.44
564.74	45165.32
564.90	45427.46
565.07	45230.85
565.23	45003.82
565.39	45359.58
565.56	45258.94
565.72	44842.32
565.88	45109.14
566.05	44872.75
566.21	45090.42
566.38	45247.24
566.54	44987.44
566.70	45605.34
566.87	45303.41
567.03	45500.01
567.19	45677.90
567.36	45446.18
567.52	45804.28
567.68	45408.73
567.85	45305.75
568.01	45048.29
568.17	45261.28
568.34	45514.06
568.50	45289.37
568.66	45006.16
568.83	45544.48
568.99	45174.68
569.15	45247.24
569.32	45191.06
569.48	45764.49
569.64	45727.05
569.81	45577.25
569.97	45485.97
570.13	45619.38
570.30	45254.26
570.46	45287.03
570.62	44891.48
570.78	44961.69
570.95	44758.06
571.11	45310.43
571.27	45298.73
571.43	45464.91
571.60	45263.62
571.76	45427.46
571.92	45280.00
572.09	45689.60
572.25	45509.38
572.41	45741.09
572.57	45172.34
572.74	46068.76
572.90	45682.58
573.06	45579.59
573.22	45661.51
573.38	45645.13
573.55	45177.02
573.71	45773.86
573.87	45563.21
574.03	45710.66
574.20	45745.77
574.36	45432.14
574.52	45488.31
574.68	46036.00
574.84	45366.60
575.01	45647.47
575.17	44919.56
575.33	45495.33
575.49	45298.73
575.65	45296.39
575.82	45797.26
575.98	45340.86
576.14	45626.40
576.30	45830.03
576.46	45294.05
576.62	45148.93
576.79	45516.40
576.95	45745.77
577.11	45766.84
577.27	45235.53
577.43	45261.28
577.59	45415.76
577.75	45680.24
577.92	45221.49
578.08	45071.70
578.24	45137.23
578.40	45244.90
578.56	45567.89
578.72	45336.18
578.88	45291.71
579.04	45490.65
579.21	45392.35
579.37	45633.42
579.53	45614.70
579.69	45223.83
579.85	45579.59
580.01	45546.82
580.17	45853.44
580.33	45865.14
580.49	45640.45
580.65	45453.20
580.82	45696.62
580.98	45081.06
581.14	45160.64
581.30	45663.85
581.46	45904.93
581.62	45865.14
581.78	45631.08
581.94	46024.29
582.10	46028.98
582.26	45783.22
582.42	45675.55
582.58	45338.52
582.74	45649.81
582.90	45968.12
583.06	45598.32
583.22	45584.27
583.38	45656.83
583.54	45970.46
583.70	45750.45
583.86	45308.09
584.02	45457.88
584.18	45766.84
584.34	45226.17
584.50	45654.49
584.66	45436.82
584.82	45338.52
584.98	45738.75
585.14	45654.49
585.30	45689.60
585.46	45216.81
585.62	45743.43
585.78	45441.50
585.94	45530.44
586.10	45771.52
586.26	45371.28
586.42	45600.66
586.58	45844.07
586.74	45610.02
586.90	45832.37
587.06	45130.21
587.22	45663.85
587.38	45757.47
587.54	45626.40
587.70	45673.21
587.86	45488.31
588.02	45759.81
588.18	45968.12
588.34	45560.87
588.49	45336.18
588.65	44959.35
588.81	45359.58
588.97	44790.83
589.13	45256.60
589.29	44772.11
589.45	45347.88
589.61	45219.15
589.77	46017.27
589.93	45825.35
590.08	45661.51
590.24	45626.40
590.40	45780.88
590.56	46356.65
590.72	45942.38
590.88	45626.40
591.04	45270.64
591.20	46277.07
591.35	46330.90
591.51	46138.98
591.67	45677.90
591.83	45502.35
591.99	45844.07
592.15	45818.33
592.31	45785.56
592.46	45577.25
592.62	46064.08
592.78	46007.91
592.94	46003.23
593.10	45647.47
593.26	45925.99
593.41	46260.69
593.57	45930.67
593.73	45895.56
593.89	45656.83
594.05	46064.08
594.20	46061.74
594.36	45748.11
594.52	45820.67
594.68	45642.79
594.84	45675.55
594.99	46277.07
595.15	45610.02
595.31	46274.73
595.47	45935.35
595.62	45930.67
595.78	45485.97
595.94	45914.29
596.10	45921.31
596.25	46045.36
596.41	45989.19
596.57	45312.77
596.73	45577.25
596.88	45593.64
597.04	45682.58
597.20	45476.61
597.36	45998.55
597.51	46080.47
597.67	45668.53
597.83	45785.56
597.99	45933.01
598.14	46040.68
598.30	45846.41
598.46	45851.09
598.61	46171.75
598.77	45804.28
598.93	45937.69
599.09	45598.32
599.24	46061.74
599.40	45930.67
599.56	46220.90
599.71	46143.66
599.87	46110.89
600.03	45621.72
600.18	45612.36
600.34	45993.87
600.50	45680.24
600.65	45558.53
600.81	45820.67
600.97	46361.33
601.12	46024.29
601.28	45986.85
601.44	45263.62
601.59	46136.64
601.75	45713.00
601.91	45464.91
602.06	45715.34
602.22	45785.56
602.37	45792.58
602.53	45806.62
602.69	46092.17
602.84	45682.58
603.00	45574.91
603.16	45422.78
603.31	45485.97
603.47	45579.59
603.62	45352.56
603.78	46043.02
603.94	45371.28
604.09	46274.73
604.25	45909.61
604.40	45827.69
604.56	45830.03
604.71	46178.77
604.87	45645.13
605.03	45249.58
605.18	45523.42
605.34	45422.78
605.49	45516.40
605.65	45722.37
605.80	45687.26
605.96	45528.10
606.12	45881.52
606.27	45308.09
606.43	45619.38
606.58	45436.82
606.74	45572.57
606.89	45521.08
607.05	45640.45
607.20	45446.18
607.36	45570.23
607.51	45968.12
607.67	45790.24
607.82	45127.87
607.98	45535.12
608.13	45270.64
608.29	45340.86
608.44	45375.97
608.60	45022.54
608.75	45659.17
608.91	45507.04
609.06	44945.31
609.22	45312.77
609.37	45600.66
609.53	45759.81
609.68	45392.35
609.84	45563.21
609.99	45397.03
610.15	45062.33
610.30	45256.60
610.46	44891.48
610.61	45106.80
610.76	45382.99
610.92	45263.62
611.07	45322.13
611.23	45146.59
611.38	45069.36
611.54	45298.73
611.69	44779.13
611.84	45071.70
612.00	44802.53
612.15	44737.00
612.31	45195.74
612.46	45015.52
612.62	45368.94
612.77	44729.98
612.92	45350.22
613.08	44505.29
613.23	44884.45
613.39	44388.26
613.54	44416.35
613.69	44769.77
613.85	44229.10
614.00	44760.40
614.15	44699.55
614.31	45085.74
614.46	45275.32
614.62	44753.38
614.77	44917.22
614.92	44507.63
615.08	44325.07
615.23	44273.57
615.38	44797.85
615.54	44547.42
615.69	44594.23
615.84	44259.53
616.00	44484.22
616.15	44121.44
616.30	44383.58
616.46	44327.41
616.61	44081.65
616.76	44163.57
616.92	43966.96
617.07	44296.98
617.22	44385.92
617.37	43859.30
617.53	44299.32
617.68	44395.28
617.83	43913.13
617.99	44395.28
618.14	44259.53
618.29	43962.28
618.45	44247.83
618.60	43793.76
618.75	43817.17
618.90	43608.86
619.06	43643.97
619.21	44170.59
619.36	44133.14
619.51	43866.32
619.67	43384.17
619.82	43936.54
619.97	43777.38
620.12	43232.04
620.28	43503.54
620.43	43709.50
620.58	43489.49
620.73	43627.59
620.89	43480.13
621.04	44240.81
621.19	43632.27
621.34	43578.43
621.49	43669.72
621.65	43381.83
621.80	43814.83
621.95	43835.89
622.10	43438.00
622.25	43323.32
622.41	43779.72
622.56	43761.00
622.71	43091.60
622.86	43105.65
623.01	42983.94
623.16	43304.59
623.32	43363.11
623.47	43716.53
623.62	42892.66
623.77	42878.61
623.92	43194.59
624.07	42784.99
624.23	42672.65
624.38	43407.58
624.53	42766.27
624.68	43133.73
624.83	43248.42
624.98	42836.48
625.13	42885.64
625.29	42712.44
625.44	42562.64
625.59	42710.10
625.74	42195.18
625.89	42527.53
626.04	42583.71
626.19	42359.02
626.34	42677.33
626.49	42766.27
626.65	42794.36
626.80	43290.55
626.95	42141.35
627.10	42436.25
627.25	42335.61
627.40	42705.41
627.55	42335.61
627.70	42366.04
627.85	42059.43
628.00	42380.08
628.15	42293.48
628.30	41977.51
628.45	42712.44
628.60	42192.84
628.76	42328.59
628.91	42106.24
629.06	41944.74
629.21	42174.11
629.36	41783.24
629.51	41631.11
629.66	41897.93
629.81	41504.72
629.96	41624.09
630.11	41970.49
630.26	41954.10
630.41	42178.79
630.56	41521.10
630.71	41954.10
630.86	41963.46
631.01	41448.55
631.16	41794.95
631.31	41354.93
631.46	41446.21
631.61	41429.82
631.76	41703.67
631.91	41471.95
632.06	41783.24
632.21	41507.06
632.36	41677.92
632.51	41350.24
632.66	41504.72
632.81	41354.93
632.96	41427.48
633.10	41642.81
633.25	41549.19
633.40	41525.78
633.55	41841.76
633.70	41598.34
633.85	41514.08
634.00	41244.92
634.15	41132.57
634.30	40959.38
634.45	41303.43
634.60	41509.40
634.75	40842.35
634.90	41134.92
635.05	41146.62
635.19	41127.89
635.34	41097.47
635.49	41022.57
635.64	40875.12
635.79	40924.27
635.94	40886.82
636.09	40914.90
636.24	40641.06
636.39	40411.69
636.53	40882.14
636.68	40491.27
636.83	40638.72
636.98	40828.30
637.13	40552.12
637.28	41404.08
637.43	40783.83
637.57	41282.37
637.72	40226.79
637.87	40521.69
638.02	40699.58
638.17	40744.05
638.32	40306.37
638.46	40402.33
638.61	40470.20
638.76	40051.25
638.91	40285.30
639.06	40151.89
639.20	40924.27
639.35	40098.06
639.50	40084.01
639.65	40313.39
639.80	40467.86
639.94	40149.55
640.09	40392.97
640.24	39854.64
640.39	39922.52
640.54	40271.26
640.68	39585.48
640.83	39674.42
640.98	39651.02
641.13	39604.20
641.27	40453.82
641.42	39660.38
641.57	39835.92
641.72	40116.78
641.86	39901.45
642.01	39646.33
642.16	39526.97
642.31	39461.43
642.45	39807.83
642.60	39739.96
642.75	39629.95
642.90	39758.68
643.04	39510.58
643.19	39796.13
643.34	40121.46
643.48	39576.12
643.63	39653.36
643.78	39166.52
643.93	39147.80
644.07	39395.90
644.22	39145.46
644.37	39056.52
644.51	39030.77
644.66	39636.97
644.81	39864.00
644.95	39456.75
645.10	39414.62
645.25	39379.51
645.39	39501.22
645.54	38960.56
645.69	39049.50
645.83	38913.75
645.98	38799.06
646.13	38904.38
646.27	38808.42
646.42	38747.57
646.57	38824.81
646.71	39070.56
646.86	39182.91
647.00	39257.81
647.15	38864.60
647.30	39143.12
647.44	38480.75
647.59	38822.47
647.74	38848.21
647.88	38555.64
648.03	38733.53
648.17	38583.73
648.32	38632.88
648.47	38541.60
648.61	38799.06
648.76	38939.49
648.90	38628.20
649.05	38485.43
649.20	38319.25
649.34	38651.61
649.49	38637.56
649.63	38312.23
649.78	38595.43
649.92	38167.12
650.07	38979.28
650.21	38389.47
650.36	38534.58
650.51	38164.78
650.65	38885.66
650.80	38955.88
650.94	38014.98
651.09	38012.64
651.23	37832.42
651.38	38206.90
651.52	37493.04
651.67	38066.47
651.81	37713.05
651.96	37830.08
652.10	38148.39
652.25	37968.17
652.39	38455.00
652.54	37521.13
652.68	38284.14
652.83	38089.88
652.97	38733.53
653.12	38057.11
653.26	37359.63
653.41	37481.34
653.55	37926.04
653.70	38293.50
653.84	37677.94
653.99	37610.07
654.13	37626.45
654.27	37476.66
654.42	37654.54
654.56	38022.00
654.71	37844.12
654.85	37415.80
655.00	37603.05
655.14	37282.39
655.29	36903.23
655.43	36769.82
655.57	36823.65
655.72	36620.02
655.86	36765.14
656.01	36758.11
656.15	36851.73
656.30	36655.13
656.44	36758.11
656.58	37399.42
656.73	37184.09
656.87	36821.31
657.01	37088.13
657.16	36542.78
657.30	36814.29
657.45	36577.89
657.59	36910.25
657.73	36959.40
657.88	37202.82
658.02	36903.23
658.16	37034.30
658.31	36701.94
658.45	36924.29
658.60	36084.04
658.74	36973.44
658.88	36821.31
659.03	36493.63
659.17	36182.34
659.31	36301.71
659.46	36222.13
659.60	36109.78
659.74	36065.31
659.89	35831.26
660.03	36163.62
660.17	36641.09
660.32	36325.11
660.46	36184.68
660.60	36163.62
660.74	36109.78
660.89	36191.70
661.03	36165.96
661.17	35861.69
661.32	35662.74
661.46	35747.00
661.60	35580.82
661.74	35494.22
661.89	35849.99
662.03	35641.68
662.17	35517.63
662.31	35632.32
662.46	36198.73
662.60	35742.32
662.74	35424.01
662.88	35454.44
663.03	35332.73
663.17	35185.27
663.31	35133.78
663.45	35515.29
663.60	35344.43
663.74	34733.55
663.88	35021.44
664.02	34677.38
664.17	35321.02
664.31	34426.94
664.45	34656.31
664.59	34930.16
664.73	34766.32
664.88	35063.57
665.02	34305.23
665.16	34295.87
665.30	34015.01
665.44	34052.45
665.59	34398.85
665.73	34412.90
665.87	34338.00
666.01	34576.73
666.15	33940.11
666.29	34235.02
666.44	34429.28
666.58	33914.36
666.72	34368.43
666.86	34373.11
667.00	34141.39
667.14	33820.74
667.28	33912.02
667.43	34108.63
667.57	34087.56
667.71	33708.40
667.85	33670.95
667.99	33720.10
668.13	33811.38
668.27	33668.61
668.41	33633.50
668.56	33277.74
668.70	32980.49
668.84	33298.80
668.98	33324.55
669.12	33532.86
669.26	33244.97
669.40	33083.47
669.54	32397.70
669.68	33589.03
669.82	32900.91
669.96	32793.25
670.10	32596.64
670.25	33226.24
670.39	32676.22
670.53	32364.93
670.67	32737.07
670.81	32680.90
670.95	32650.47
671.09	32287.69
671.23	32245.56
671.37	32187.05
671.51	32355.57
671.65	31971.72
671.79	31871.07
671.93	31702.56
672.07	31445.10
672.21	31920.23
672.35	31754.05
672.49	31756.39
672.63	31896.82
672.77	31461.48
672.91	31564.46
673.05	31185.30
673.19	31342.11
673.33	31037.84
673.47	31044.87
673.61	31468.50
673.75	30841.24
673.89	31026.14
674.03	30923.16
674.17	31189.98
674.31	31189.98
674.45	31255.51
674.59	30808.47
674.73	30778.04
674.87	30981.67
675.01	30918.48
675.15	30190.57
675.29	30630.59
675.43	30471.43
675.56	30941.88
675.70	30876.35
675.84	30096.95
675.98	29186.48
676.12	30410.58
676.26	30417.60
676.40	29998.65
676.54	29708.42
676.68	29708.42
676.82	29537.56
676.96	29919.07
677.10	29350.32
677.23	29607.78
677.37	29280.10
677.51	29095.20
677.65	28896.25
677.79	28767.52
677.93	29111.58
678.07	29060.09
678.21	28470.28
678.34	28397.72
678.48	28325.16
678.62	28147.28
678.76	28266.65
678.90	27887.48
679.04	28250.27
679.18	27789.18
679.31	27747.05
679.45	27793.86
679.59	27934.29
679.73	27777.48
679.87	27697.90
680.00	27447.46
680.14	27559.81
680.28	27234.47
680.42	27094.04
680.56	27407.67
680.70	27300.01
680.83	27597.26
680.97	27159.58
681.11	26967.65
681.25	26824.88
681.39	26881.05
681.52	27037.87
681.66	26441.03
681.80	26616.57
681.94	26419.97
682.07	26263.15
682.21	26471.46
682.35	26242.09
682.49	26263.15
682.62	25921.43
682.76	25771.64
682.90	26118.04
683.04	25876.96
683.17	25673.34
683.31	25593.76
683.45	25551.63
683.59	25551.63
683.72	25568.01
683.86	24994.58
684.00	25125.65
684.13	24741.80
684.27	24699.67
684.41	24690.31
684.55	24261.99
684.68	24584.99
684.82	24580.31
684.96	24442.21
685.09	24575.62
685.23	24496.05
685.37	24559.24
685.50	24238.59
685.64	24271.36
685.78	24245.61
685.91	24041.98
686.05	23859.42
686.19	23840.70
686.32	23714.31
686.46	23885.17
686.60	22970.02
686.73	22930.23
686.87	23112.79
687.01	22963.00
687.14	23021.51
687.28	22953.63
687.42	22714.90
687.55	22668.09
687.69	22717.24
687.82	22824.90
687.96	22600.21
688.10	22195.30
688.23	22579.15
688.37	22537.02
688.50	22345.09
688.64	22312.33
688.78	22230.41
688.91	21652.30
689.05	22022.10
689.18	21666.34
689.32	21383.13
689.46	21813.79
689.59	21811.45
689.73	21724.85
689.86	21467.39
690.00	21308.24
690.13	21546.97
690.27	21041.42
690.41	21132.70
690.54	20786.30
690.68	20929.07
690.81	21106.95
690.95	21027.37
691.08	20966.52
691.22	20805.02
691.35	20622.46
691.49	20711.40
691.62	20788.64
691.76	20800.34
691.89	20159.03
692.03	20159.03
692.16	20638.84
692.30	20198.82
692.43	19981.15
692.57	20119.24
692.70	19536.45
692.84	19545.81
692.97	19204.10
693.11	19419.42
693.24	19578.58
693.38	19433.47
693.51	19398.36
693.65	19407.72
693.78	19218.14
693.92	19108.13
694.05	19178.35
694.19	19307.08
694.32	19089.41
694.45	19122.18
694.59	19080.05
694.72	18764.07
694.86	18766.42
694.99	18443.42
695.13	18747.69
695.26	18511.30
695.39	18412.99
695.53	18944.30
695.66	18099.36
695.80	18260.86
695.93	18200.01
696.07	17919.14
696.20	17853.61
696.33	17738.92
696.47	18188.30
696.60	17802.11
696.73	17743.60
696.87	17554.02
697.00	17453.37
697.14	17294.22
697.27	17186.55
697.40	17425.29
697.54	17287.20
697.67	17280.18
697.80	17544.66
697.94	16917.39
698.07	16919.73
698.21	17069.53
698.34	17039.10
698.47	16826.11
698.61	16643.55
698.74	16552.27
698.87	16477.37
699.01	16393.11
699.14	16374.39
699.27	16105.23
699.40	16287.79
699.54	15955.43
699.67	16051.39
699.80	15653.50
699.94	16044.37
700.07	15826.70
700.20	16231.62
700.34	15873.51
700.47	15791.59
700.60	15646.48
700.73	15515.41
700.87	15594.99
701.00	15463.92
701.13	15218.16
701.26	15131.56
701.40	14986.45
701.53	15136.24
701.66	15082.41
701.79	14939.64
701.93	15101.14
702.06	14876.44
702.19	14700.90
702.32	14588.56
702.46	14963.04
702.59	14782.82
702.72	14569.83
702.85	14827.29
702.99	14260.88
703.12	14361.53
703.25	14284.29
703.38	14497.28
703.51	14314.72
703.65	14274.93
703.78	13940.23
703.91	13792.78
704.04	13823.20
704.17	13827.88
704.31	13825.54
704.44	13528.30
704.57	13547.02
704.70	13631.28
704.83	13453.40
704.96	13692.13
705.10	13444.04
705.23	13294.24
>>>>>End Processed Spectral Data<<<<<
