SpectraSuite Data File
++++++++++++++++++++++++++++++++++++
Date: Fri Oct 25 10:43:50 EDT 2013
User: price-jones
Dark Spectrum Present: No
Reference Spectrum Present: No
Number of Sampled Component Spectra: 1
Spectrometers: USB2+H05261
Integration Time (usec): 100000 (USB2+H05261)
Spectra Averaged: 1 (USB2+H05261)
Boxcar Smoothing: 0 (USB2+H05261)
Correct for Electrical Dark: No (USB2+H05261)
Strobe/Lamp Enabled: No (USB2+H05261)
Correct for Detector Non-linearity: No (USB2+H05261)
Correct for Stray Light: No (USB2+H05261)
Number of Pixels in Processed Spectrum: 2048
>>>>>Begin Processed Spectral Data<<<<<
365.73	84.26
365.92	84.26
366.12	84.26
366.32	37.45
366.52	35.11
366.72	81.92
366.91	0.00
367.11	0.00
367.31	0.00
367.51	0.00
367.70	49.15
367.90	32.77
368.10	42.13
368.30	39.79
368.49	21.06
368.69	93.62
368.89	74.90
369.09	74.90
369.28	100.64
369.48	49.15
369.68	63.19
369.87	91.28
370.07	39.79
370.27	84.26
370.47	201.29
370.66	294.91
370.86	383.85
371.06	472.79
371.25	379.17
371.45	468.11
371.65	547.69
371.84	351.08
372.04	496.19
372.24	479.81
372.44	524.28
372.63	440.02
372.83	489.17
373.03	503.22
373.22	547.69
373.42	505.56
373.62	465.77
373.81	538.32
374.01	582.79
374.21	589.82
374.40	521.94
374.60	589.82
374.79	510.24
374.99	531.30
375.19	566.41
375.38	650.67
375.58	615.56
375.78	554.71
375.97	695.14
376.17	704.50
376.37	585.13
376.56	596.84
376.76	601.52
376.95	594.50
377.15	664.71
377.35	702.16
377.54	685.78
377.74	636.63
377.93	678.76
378.13	706.84
378.33	727.91
378.52	688.12
378.72	683.44
378.91	690.46
379.11	638.97
379.31	613.22
379.50	660.03
379.70	653.01
379.89	645.99
380.09	662.37
380.28	620.24
380.48	692.80
380.68	702.16
380.87	681.10
381.07	709.18
381.26	755.99
381.46	690.46
381.65	699.82
381.85	713.86
382.04	653.01
382.24	664.71
382.43	692.80
382.63	655.35
382.83	718.54
383.02	812.17
383.22	744.29
383.41	763.01
383.61	772.38
383.80	741.95
384.00	786.42
384.19	807.48
384.39	734.93
384.58	812.17
384.78	844.93
384.97	805.14
385.17	753.65
385.36	800.46
385.56	774.72
385.75	819.19
385.95	849.61
386.14	887.06
386.34	833.23
386.53	720.88
386.72	835.57
386.92	823.87
387.11	910.47
387.31	931.53
387.50	905.79
387.70	908.13
387.89	861.32
388.09	877.70
388.28	828.55
388.48	833.23
388.67	954.94
388.86	891.74
389.06	842.59
389.25	976.00
389.45	1029.84
389.64	976.00
389.84	1050.90
390.03	999.41
390.22	1015.79
390.42	985.37
390.61	973.66
390.81	1046.22
391.00	1022.81
391.19	1004.09
391.39	1048.56
391.58	1083.67
391.78	1020.47
391.97	1034.52
392.16	961.96
392.36	1121.12
392.55	1100.05
392.75	1006.43
392.94	999.41
393.13	1006.43
393.33	1069.62
393.52	1114.10
393.71	1081.33
393.91	1123.46
394.10	1107.07
394.29	1048.56
394.49	1090.69
394.68	1217.08
394.88	1247.51
395.07	1270.91
395.26	1268.57
395.46	1163.25
395.65	1254.53
395.84	1235.80
396.04	1362.19
396.23	1217.08
396.42	1130.48
396.62	1130.48
396.81	1266.23
397.00	1160.91
397.19	1275.59
397.39	1380.92
397.58	1437.09
397.77	1406.66
397.97	1462.83
398.16	1444.11
398.35	1469.86
398.55	1465.18
398.74	1511.99
398.93	1551.78
399.12	1551.78
399.32	1516.67
399.51	1521.35
399.70	1554.12
399.90	1565.82
400.09	1624.33
400.28	1549.43
400.47	1624.33
400.67	1699.23
400.86	1647.74
401.05	1624.33
401.24	1636.03
401.44	1774.13
401.63	1629.01
401.82	1760.08
402.01	1724.97
402.21	1708.59
402.40	1799.87
402.59	1682.85
402.78	1706.25
402.97	1760.08
403.17	1776.47
403.36	1783.49
403.55	1877.11
403.74	1961.37
403.93	1832.64
404.13	1893.49
404.32	1877.11
404.51	1856.04
404.70	1947.33
404.89	1937.96
405.09	2031.58
405.28	1998.82
405.47	1966.05
405.66	1961.37
405.85	2059.67
406.05	2062.01
406.24	2054.99
406.43	2045.63
406.62	1994.14
406.81	2183.72
407.00	2017.54
407.20	1973.07
407.39	2115.84
407.58	2136.91
407.77	2256.28
407.96	2246.91
408.15	2209.47
408.34	2253.94
408.54	2258.62
408.73	2200.10
408.92	2216.49
409.11	2331.17
409.30	2427.14
409.49	2340.54
409.68	2190.74
409.87	2289.04
410.07	2317.13
410.26	2291.38
410.45	2495.01
410.64	2356.92
410.83	2478.63
411.02	2555.86
411.21	2565.23
411.40	2457.56
411.59	2733.75
411.78	2616.72
411.98	2527.78
412.17	2626.08
412.36	2691.62
412.55	2757.15
412.74	2773.53
412.93	2775.88
413.12	2703.32
413.31	2855.45
413.50	2754.81
413.69	2757.15
413.88	2958.44
414.07	3042.70
414.26	3026.31
414.45	3047.38
414.64	3059.08
414.83	3075.46
415.02	3035.67
415.22	3054.40
415.41	3180.79
415.60	3152.70
415.79	3269.73
415.98	3197.17
416.17	3262.71
416.36	3286.11
416.55	3258.03
416.74	3325.90
416.93	3173.77
417.12	3389.10
417.31	3344.63
417.50	3349.31
417.69	3269.73
417.88	3588.04
418.07	3410.16
418.26	3332.92
418.45	3494.42
418.64	3557.61
418.83	3522.51
419.02	3606.77
419.21	3438.25
419.39	3431.23
419.58	3606.77
419.77	3595.06
419.96	3662.94
420.15	3655.92
420.34	3740.18
420.53	3894.65
420.72	3833.80
420.91	3674.64
421.10	3796.35
421.29	3922.74
421.48	3796.35
421.67	3875.93
421.86	3749.54
422.05	3779.97
422.24	3576.34
422.43	3723.79
422.61	3864.22
422.80	3894.65
422.99	4009.34
423.18	3946.14
423.37	3985.93
423.56	3974.23
423.75	4007.00
423.94	3880.61
424.13	3691.02
424.32	3791.67
424.50	4049.13
424.69	3960.19
424.88	3978.91
425.07	3887.63
425.26	3859.54
425.45	3941.46
425.64	4112.32
425.83	4021.04
426.01	4180.20
426.20	4039.76
426.39	3964.87
426.58	3882.95
426.77	4077.21
426.96	4023.38
427.15	3983.59
427.33	4093.60
427.52	4147.43
427.71	4152.11
427.90	4065.51
428.09	4107.64
428.28	4140.41
428.46	4102.96
428.65	4060.83
428.84	4287.86
429.03	4341.69
429.22	4135.73
429.40	4166.15
429.59	4276.16
429.78	4002.32
429.97	3819.75
430.16	4063.17
430.34	4154.45
430.53	4264.46
430.72	4175.52
430.91	4196.58
431.10	4348.72
431.28	4566.39
431.47	4505.53
431.66	4755.97
431.85	4627.24
432.03	4681.07
432.22	4589.79
432.41	4674.05
432.60	4678.73
432.79	4674.05
432.97	4870.65
433.16	4774.69
433.35	4624.90
433.54	4690.43
433.72	4753.63
433.91	4863.63
434.10	4805.12
434.28	4823.84
434.47	4830.87
434.66	4924.49
434.85	4858.95
435.03	4896.40
435.22	5090.67
435.41	5224.08
435.59	5184.29
435.78	5102.37
435.97	5116.41
436.16	5018.11
436.34	5167.90
436.53	5188.97
436.72	5308.34
436.90	5109.39
437.09	5151.52
437.28	5071.94
437.46	5247.48
437.65	5298.97
437.84	5100.03
438.02	5289.61
438.21	5060.24
438.40	5128.11
438.58	5446.43
438.77	5392.59
438.96	5514.30
439.14	5610.26
439.33	5748.36
439.52	5687.50
439.70	5724.95
439.89	5682.82
440.08	5561.11
440.26	5872.40
440.45	5727.29
440.63	5727.29
440.82	5942.62
441.01	5895.81
441.19	6036.24
441.38	6164.97
441.57	6071.35
441.75	6087.73
441.94	6272.64
442.12	6307.74
442.31	6307.74
442.50	6525.41
442.68	6160.29
442.87	6246.89
443.05	6300.72
443.24	6499.67
443.43	6457.54
443.61	6551.16
443.80	6700.95
443.98	6270.30
444.17	6396.68
444.35	6494.99
444.54	6537.12
444.73	6473.92
444.91	6480.94
445.10	6462.22
445.28	6441.15
445.47	6406.05
445.65	6516.05
445.84	6504.35
446.02	6506.69
446.21	6504.35
446.39	6635.42
446.58	6670.53
446.77	6750.10
446.95	6597.97
447.14	6707.98
447.32	6782.87
447.51	6778.19
447.69	6604.99
447.88	6619.04
448.06	6665.85
448.25	6651.80
448.43	6717.34
448.62	6745.42
448.80	6754.79
448.99	6794.58
449.17	6991.18
449.36	6911.60
449.54	6853.09
449.73	6995.86
449.91	7227.57
450.10	7164.38
450.28	7304.81
450.46	7382.05
450.65	7360.98
450.83	7232.26
451.02	7398.43
451.20	7297.79
451.39	7260.34
451.57	7222.89
451.76	7253.32
451.94	7112.89
452.13	7295.45
452.31	7281.41
452.49	7262.68
452.68	7265.02
452.86	7119.91
453.05	7176.08
453.23	7206.51
453.42	7370.35
453.60	7382.05
453.78	7316.51
453.97	7531.84
454.15	7419.50
454.34	7419.50
454.52	7470.99
454.70	7543.55
454.89	7658.23
455.07	7597.38
455.26	7754.19
455.44	7772.92
455.62	7735.47
455.81	7829.09
455.99	7595.04
456.17	7868.88
456.36	7941.44
456.54	7939.10
456.73	8053.78
456.91	7981.23
457.09	8187.19
457.28	8102.93
457.46	8147.40
457.64	8224.64
457.83	8250.39
458.01	8149.75
458.19	8180.17
458.38	8109.96
458.56	8381.46
458.74	8369.76
458.93	8208.26
459.11	8491.46
459.29	8449.33
459.48	8393.16
459.66	8210.60
459.84	8439.97
460.03	8716.16
460.21	8439.97
460.39	8418.91
460.57	8678.71
460.76	8545.30
460.94	8575.72
461.12	8730.20
461.31	8692.75
461.49	8624.87
461.67	8615.51
461.85	8814.46
462.04	8837.86
462.22	9011.06
462.40	8997.02
462.59	8868.29
462.77	8926.80
462.95	8917.44
463.13	8990.00
463.32	8828.50
463.50	8945.53
463.68	9039.15
463.86	9076.60
464.05	8725.52
464.23	8720.84
464.41	9076.60
464.59	8875.31
464.78	9376.19
464.96	9137.45
465.14	9001.70
465.32	9277.88
465.50	9217.03
465.69	9263.84
465.87	9310.65
466.05	9186.60
466.23	9191.28
466.41	9437.04
466.60	9556.41
466.78	9273.20
466.96	9273.20
467.14	9432.36
467.32	9425.34
467.51	9495.55
467.69	9334.06
467.87	9415.98
468.05	9591.52
468.23	9631.30
468.41	9607.90
468.60	9535.34
468.78	9715.56
468.96	9390.23
469.14	9729.61
469.32	9788.12
469.50	9568.11
469.69	9785.78
469.87	9628.96
470.05	9902.81
470.23	9743.65
470.41	9790.46
470.59	9987.07
470.77	10019.83
470.95	9968.34
471.14	10258.57
471.32	9858.34
471.50	10190.69
471.68	10111.11
471.86	10347.51
472.04	10232.82
472.22	10642.42
472.40	10321.76
472.58	10342.83
472.77	10537.09
472.95	10803.91
473.13	10930.30
473.31	10750.08
473.49	10785.19
473.67	10576.88
473.85	10658.80
474.03	11082.44
474.21	11145.63
474.39	11052.01
474.57	11122.23
474.75	11068.39
474.93	11328.19
475.12	11250.96
475.30	11253.30
475.48	11372.66
475.66	11489.69
475.84	11492.03
476.02	11344.58
476.20	11370.32
476.38	11683.95
476.56	11957.80
476.74	11850.13
476.92	12067.80
477.10	12011.63
477.28	12135.68
477.46	11957.80
477.64	12149.72
477.82	12379.09
478.00	12428.24
478.18	12556.97
478.36	12723.15
478.54	12610.81
478.72	12819.11
478.90	12915.08
479.08	12875.29
479.26	13282.54
479.44	13060.19
479.62	13249.77
479.80	13401.91
479.98	13589.15
480.16	13809.16
480.34	13458.08
480.52	13874.70
480.70	13523.62
480.88	13748.31
481.06	13902.78
481.24	14003.43
481.41	14401.32
481.59	14377.91
481.77	14209.39
481.95	14537.07
482.13	14691.54
482.31	14530.05
482.49	15161.99
482.67	15051.99
482.85	14958.36
483.03	15377.32
483.21	15496.69
483.39	15374.98
483.57	15466.26
483.74	15449.88
483.92	15723.72
484.10	15587.97
484.28	15988.20
484.46	15899.26
484.64	16514.82
484.82	16107.57
485.00	15927.35
485.18	16531.20
485.35	16463.33
485.53	16182.46
485.71	16030.33
485.89	16217.57
486.07	16482.05
486.25	16896.33
486.43	16737.17
486.61	17062.51
486.78	17219.32
486.96	17514.23
487.14	17561.04
487.32	17947.23
487.50	18197.67
487.68	18354.48
487.85	18417.68
488.03	18515.98
488.21	18572.15
488.39	18448.10
488.57	18703.22
488.75	18948.98
488.92	19159.63
489.10	19360.91
489.28	19271.97
489.46	19948.39
489.64	19861.79
489.81	20163.72
489.99	20049.03
490.17	20140.31
490.35	20271.38
490.53	20238.61
490.70	20503.09
490.88	20343.94
491.06	20798.00
491.24	20435.22
491.41	20650.55
491.59	21020.35
491.77	20868.22
491.95	21156.10
492.13	21380.79
492.30	21312.92
492.48	21837.20
492.66	21785.71
492.84	21994.01
493.01	22101.68
493.19	22066.57
493.37	22342.75
493.54	22352.12
493.72	22647.02
493.90	23063.64
494.08	22794.48
494.25	23154.92
494.43	23335.14
494.61	23751.76
494.79	23058.96
494.96	23740.05
495.14	23559.83
495.32	23903.89
495.49	23693.24
495.67	24013.90
495.85	24046.66
496.02	24070.07
496.20	24479.66
496.38	24353.27
496.55	24856.49
496.73	25245.02
496.91	24723.08
497.09	25036.71
497.26	25095.22
497.44	25235.66
497.62	25071.82
497.79	25486.09
497.97	24982.88
498.14	25408.86
498.32	25909.73
498.50	25724.83
498.67	26345.07
498.85	26057.18
499.03	26410.60
499.20	26438.69
499.38	26349.75
499.56	26651.68
499.73	26588.49
499.91	26361.45
500.08	26581.46
500.26	26642.32
500.44	26738.28
500.61	26939.57
500.79	26668.06
500.97	27101.06
501.14	26955.95
501.32	27260.22
501.49	27054.25
501.67	26843.60
501.84	27847.69
502.02	27262.56
502.20	27564.49
502.37	27852.38
502.55	27824.29
502.72	27768.12
502.90	28023.23
503.07	27768.12
503.25	28037.28
503.43	28386.02
503.60	28081.75
503.78	27992.81
503.95	28376.66
504.13	28376.66
504.30	28781.57
504.48	29088.18
504.65	28694.97
504.83	29067.11
505.01	29244.99
505.18	29418.19
505.36	29493.09
505.53	29397.13
505.71	29408.83
505.88	30059.50
506.06	29666.29
506.23	29811.40
506.41	29453.30
506.58	29675.65
506.76	30143.76
506.93	30033.75
507.11	29748.21
507.28	30242.06
507.46	29905.02
507.63	30033.75
507.81	30068.86
507.98	29818.42
508.16	30333.34
508.33	30583.78
508.50	30670.38
508.68	31068.27
508.85	31721.28
509.03	30862.30
509.20	31159.55
509.38	31096.36
509.55	31058.91
509.73	31133.81
509.90	31372.54
510.08	31023.80
510.25	31632.34
510.42	31805.54
510.60	31981.08
510.77	31697.88
510.95	31725.96
511.12	32100.45
511.30	32053.64
511.47	32411.74
511.64	32442.17
511.82	32421.10
511.99	32177.68
512.17	32498.34
512.34	32641.11
512.51	32526.42
512.69	32786.22
512.86	32690.26
513.04	33127.94
513.21	32978.15
513.38	32732.39
513.56	33008.58
513.73	32945.38
513.90	33083.47
514.08	32921.98
514.25	33312.84
514.43	33289.44
514.60	33689.67
514.77	33551.58
514.95	33436.89
515.12	33806.70
515.29	33619.46
515.47	34305.23
515.64	34562.69
515.81	34108.63
515.99	34117.99
516.16	33635.84
516.33	33617.11
516.51	33933.09
516.68	33338.59
516.85	33165.39
517.03	33858.19
517.20	33860.53
517.37	34529.92
517.54	34529.92
517.72	34326.30
517.89	34075.86
518.06	34448.00
518.24	33951.81
518.41	34227.99
518.58	34274.80
518.75	34773.34
518.93	34998.03
519.10	35175.91
519.27	35257.83
519.45	35356.13
519.62	35033.14
519.79	35367.84
519.96	35440.39
520.14	35503.59
520.31	35351.45
520.48	35658.06
520.65	35370.18
520.83	35536.35
521.00	35789.13
521.17	35667.42
521.34	35807.86
521.52	36481.93
521.69	36357.88
521.86	36357.88
522.03	36554.49
522.20	36301.71
522.38	36456.18
522.55	36311.07
522.72	36339.16
522.89	36723.01
523.07	37083.45
523.24	36465.55
523.41	36833.01
523.58	36601.30
523.75	37254.31
523.92	37298.78
524.10	37376.01
524.27	37476.66
524.44	37420.48
524.61	37703.69
524.78	37195.79
524.96	37710.71
525.13	37394.74
525.30	38429.26
525.47	37998.60
525.64	37647.52
525.81	37500.06
525.98	37574.96
526.16	37638.15
526.33	37780.93
526.50	37399.42
526.67	37137.28
526.84	37544.53
527.01	37474.32
527.18	37649.86
527.36	38246.69
527.53	38412.87
527.70	39014.39
527.87	38422.23
528.04	38541.60
528.21	38682.03
528.38	38567.35
528.55	38939.49
528.72	38852.89
528.89	39129.08
529.07	38679.69
529.24	39147.80
529.41	38597.77
529.58	39154.82
529.75	39079.92
529.92	38763.95
530.09	39042.48
530.26	39295.25
530.43	39395.90
530.60	39250.78
530.77	39590.16
530.94	39447.39
531.11	39515.26
531.28	39835.92
531.46	39758.68
531.63	39154.82
531.80	39608.89
531.97	39445.05
532.14	39505.90
532.31	39365.47
532.48	39796.13
532.65	39391.22
532.82	39655.70
532.99	39819.53
533.16	39531.65
533.33	39695.49
533.50	40072.31
533.67	40062.95
533.84	40156.57
534.01	40275.94
534.18	40428.07
534.35	40161.25
534.52	40313.39
534.69	40409.35
534.86	40364.88
535.03	40486.59
535.20	40776.81
535.37	40940.65
535.54	41212.15
535.71	40989.80
535.88	40526.38
536.05	40559.14
536.22	40610.64
536.38	40964.06
536.55	41003.85
536.72	40886.82
536.89	40577.87
537.06	40680.85
537.23	41357.27
537.40	41258.96
537.57	40718.30
537.74	41434.50
537.91	41823.03
538.08	41214.49
538.25	41062.36
538.42	41354.93
538.59	41605.36
538.75	41043.63
538.92	41062.36
539.09	41656.85
539.26	41443.87
539.43	41223.86
539.60	41598.34
539.77	41221.52
539.94	41722.39
540.11	41177.04
540.28	41631.11
540.44	41965.81
540.61	41708.35
540.78	40837.67
540.95	41731.75
541.12	41904.95
541.29	41661.54
541.46	41918.99
541.62	41827.71
541.79	42101.56
541.96	42007.94
542.13	41694.30
542.30	41792.61
542.47	42237.31
542.63	42124.96
542.80	42195.18
542.97	42003.25
543.14	42522.85
543.31	42859.89
543.48	42452.64
543.64	43084.58
543.81	42934.79
543.98	42920.74
544.15	42834.14
544.32	43047.13
544.48	43246.08
544.65	42934.79
544.82	43105.65
544.99	42878.61
545.16	42831.80
545.32	42658.60
545.49	43515.24
545.66	43597.16
545.83	43412.26
546.00	43339.70
546.16	43124.37
546.33	43161.82
546.50	43323.32
546.67	43777.38
546.83	43246.08
547.00	43402.89
547.17	43576.09
547.34	43117.35
547.50	43196.93
547.67	43821.85
547.84	43543.33
548.00	43995.05
548.17	43880.36
548.34	43318.64
548.51	44219.74
548.67	44065.27
548.84	44079.31
549.01	44135.48
549.18	43973.98
549.34	43466.09
549.51	44055.90
549.68	43863.98
549.84	44306.34
550.01	44201.02
550.18	43688.44
550.34	44219.74
550.51	44060.58
550.68	44250.17
550.84	43887.39
551.01	44231.44
551.18	44212.72
551.34	44154.21
551.51	44624.65
551.68	44219.74
551.84	44437.41
552.01	44509.97
552.18	44224.42
552.34	44355.49
552.51	43910.79
552.68	43966.96
552.84	44608.27
553.01	44914.88
553.18	44687.85
553.34	44865.73
553.51	44280.60
553.67	44587.21
553.84	45008.50
554.01	44966.37
554.17	44652.74
554.34	44809.56
554.51	44748.70
554.67	44900.84
554.84	44641.04
555.00	44657.42
555.17	44781.47
555.33	45052.97
555.50	44851.69
555.67	44800.19
555.83	45069.36
556.00	44966.37
556.16	45303.41
556.33	44884.45
556.50	44800.19
556.66	45172.34
556.83	44802.53
556.99	45165.32
557.16	45118.51
557.32	44973.39
557.49	44868.07
557.65	45270.64
557.82	45462.57
557.98	44999.14
558.15	45287.03
558.32	45392.35
558.48	45495.33
558.65	45436.82
558.81	45034.25
558.98	45013.18
559.14	44842.32
559.31	44926.58
559.47	45478.95
559.64	45521.08
559.80	45282.34
559.97	45439.16
560.13	44884.45
560.30	45443.84
560.46	45308.09
560.63	45382.99
560.79	45528.10
560.96	45815.99
561.12	45088.08
561.29	45425.12
561.45	45954.08
561.61	45382.99
561.78	45574.91
561.94	45294.05
562.11	45329.16
562.27	45680.24
562.44	45343.20
562.60	45684.92
562.77	45654.49
562.93	45567.89
563.10	45818.33
563.26	45294.05
563.42	45588.95
563.59	45642.79
563.75	45514.06
563.92	45663.85
564.08	45963.44
564.24	45663.85
564.41	45626.40
564.57	45794.92
564.74	45610.02
564.90	45691.94
565.07	45801.94
565.23	45689.60
565.39	45741.09
565.56	45956.42
565.72	45392.35
565.88	45268.30
566.05	45553.85
566.21	46101.53
566.38	45614.70
566.54	45661.51
566.70	45989.19
566.87	46033.66
567.03	45806.62
567.19	46398.78
567.36	45848.75
567.52	45933.01
567.68	45970.46
567.85	45832.37
568.01	46195.15
568.17	45462.57
568.34	45921.31
568.50	46021.95
568.66	45607.68
568.83	46302.82
568.99	45785.56
569.15	45989.19
569.32	46045.36
569.48	45698.96
569.64	46143.66
569.81	46117.92
569.97	46351.97
570.13	45801.94
570.30	45750.45
570.46	45748.11
570.62	45701.30
570.78	45490.65
570.95	45516.40
571.11	46176.43
571.27	45773.86
571.43	45867.48
571.60	46497.08
571.76	45961.10
571.92	46307.50
572.09	46136.64
572.25	46155.36
572.41	46347.29
572.57	46054.72
572.74	46635.17
572.90	46347.29
573.06	46251.33
573.22	45979.82
573.38	46206.86
573.55	45940.04
573.71	46635.17
573.87	46457.29
574.03	45787.90
574.20	45993.87
574.36	46490.06
574.52	46094.51
574.68	45907.27
574.84	46143.66
575.01	45745.77
575.17	46136.64
575.33	46047.70
575.49	46026.63
575.65	45895.56
575.82	45935.35
575.98	46138.98
576.14	46047.70
576.30	46028.98
576.46	46370.69
576.62	45778.54
576.79	46202.18
576.95	45771.52
577.11	46230.26
577.27	45900.25
577.43	45872.16
577.59	45947.06
577.75	46167.07
577.92	45549.17
578.08	46073.45
578.24	45818.33
578.40	45832.37
578.56	46153.02
578.72	46263.03
578.88	46576.66
579.04	46202.18
579.21	46115.58
579.37	46244.30
579.53	46258.35
579.69	45909.61
579.85	46124.94
580.01	45916.63
580.17	46181.11
580.33	46237.28
580.49	46036.00
580.65	46190.47
580.82	45890.88
580.98	46216.22
581.14	46017.27
581.30	46803.69
581.46	46244.30
581.62	46267.71
581.78	46459.63
581.94	46440.91
582.10	46167.07
582.26	46504.10
582.42	46356.65
582.58	46684.33
582.74	46239.62
582.90	46307.50
583.06	46553.26
583.22	45961.10
583.38	47026.04
583.54	46773.27
583.70	46639.86
583.86	46464.32
584.02	46113.23
584.18	46380.06
584.34	46150.68
584.50	45965.78
584.66	46106.21
584.82	46581.34
584.98	46148.34
585.14	46532.19
585.30	46738.16
585.46	46529.85
585.62	45984.51
585.78	46045.36
585.94	45921.31
586.10	46028.98
586.26	45940.04
586.42	46429.21
586.58	46340.27
586.74	46148.34
586.90	45750.45
587.06	46239.62
587.22	46021.95
587.38	46461.97
587.54	46054.72
587.70	46649.22
587.86	46461.97
588.02	46124.94
588.18	45986.85
588.34	46501.76
588.49	45762.15
588.65	45804.28
588.81	45661.51
588.97	45888.54
589.13	45794.92
589.29	45757.47
589.45	45689.60
589.61	46131.96
589.77	46490.06
589.93	46801.35
590.08	46670.28
590.24	46120.26
590.40	46703.05
590.56	46878.59
590.72	46408.14
590.88	46291.12
591.04	46426.87
591.20	46878.59
591.35	46808.37
591.51	46705.39
591.67	46485.38
591.83	46169.41
591.99	46419.84
592.15	46611.77
592.31	46328.56
592.46	46426.87
592.62	46419.84
592.78	46527.51
592.94	46614.11
593.10	46597.73
593.26	46754.54
593.41	47173.50
593.57	46248.99
593.73	46534.53
593.89	46747.52
594.05	46506.44
594.20	46309.84
594.36	46457.29
594.52	46389.42
594.68	46452.61
594.84	46700.71
594.99	46600.07
595.15	46492.40
595.31	46571.98
595.47	46941.78
595.62	45991.53
595.78	46131.96
595.94	46986.25
596.10	46602.41
596.25	46534.53
596.41	46604.75
596.57	46370.69
596.73	46623.47
596.88	46450.27
597.04	46129.62
597.20	46866.89
597.36	46429.21
597.51	46454.95
597.67	46569.64
597.83	46923.06
597.99	46691.35
598.14	46492.40
598.30	46469.00
598.46	46604.75
598.61	46623.47
598.77	46307.50
598.93	46398.78
599.09	46293.46
599.24	46754.54
599.40	46639.86
599.56	46665.60
599.71	46731.14
599.87	46869.23
600.03	46536.87
600.18	46291.12
600.34	46043.02
600.50	46213.88
600.65	46040.68
600.81	46340.27
600.97	46550.91
601.12	46934.76
601.28	46553.26
601.44	46307.50
601.59	46272.39
601.75	46054.72
601.91	46103.87
602.06	46101.53
602.22	46380.06
602.37	46714.75
602.53	47007.32
602.69	46738.16
602.84	46312.18
603.00	46487.72
603.16	46096.85
603.31	46712.41
603.47	46726.46
603.62	46092.17
603.78	46450.27
603.94	46487.72
604.09	46562.62
604.25	46625.81
604.40	46153.02
604.56	46754.54
604.71	46246.65
604.87	46244.30
605.03	46487.72
605.18	46141.32
605.34	46218.56
605.49	46366.01
605.65	46274.73
605.80	46298.14
605.96	46260.69
606.12	45972.80
606.27	46639.86
606.43	46618.79
606.58	46319.20
606.74	46171.75
606.89	46024.29
607.05	46326.22
607.20	46167.07
607.36	46438.57
607.51	46429.21
607.67	46307.50
607.82	46323.88
607.98	46045.36
608.13	45963.44
608.29	45944.72
608.44	45818.33
608.60	46199.83
608.75	45914.29
608.91	45851.09
609.06	45888.54
609.22	46447.93
609.37	46026.63
609.53	45893.22
609.68	46092.17
609.84	46101.53
609.99	46146.00
610.15	45727.05
610.30	45375.97
610.46	45514.06
610.61	46115.58
610.76	45488.31
610.92	46085.15
611.07	45933.01
611.23	46239.62
611.38	46241.96
611.54	45614.70
611.69	45525.76
611.84	45322.13
612.00	45357.24
612.15	45542.14
612.31	45689.60
612.46	45738.75
612.62	45820.67
612.77	45717.68
612.92	45764.49
613.08	45497.67
613.23	45441.50
613.39	44945.31
613.54	45415.76
613.69	45450.86
613.85	45258.94
614.00	45998.55
614.15	45808.96
614.31	45794.92
614.46	45785.56
614.62	45488.31
614.77	45422.78
614.92	45502.35
615.08	45254.26
615.23	45240.21
615.38	45076.38
615.54	44889.13
615.69	44891.48
615.84	44975.73
616.00	45338.52
616.15	45319.79
616.30	45373.63
616.46	44655.08
616.61	45071.70
616.76	45043.61
616.92	44608.27
617.07	44533.37
617.22	44509.97
617.37	44720.62
617.53	44737.00
617.68	45144.25
617.83	44713.59
617.99	44898.50
618.14	44893.82
618.29	44552.10
618.45	44170.59
618.60	44058.24
618.75	44671.46
618.90	44545.08
619.06	44289.96
619.21	44980.42
619.36	44765.09
619.51	44868.07
619.67	44760.40
619.82	44601.25
619.97	44720.62
620.12	44296.98
620.28	44004.41
620.43	44285.28
620.58	44458.48
620.73	44610.61
620.89	44584.86
621.04	44329.75
621.19	44495.92
621.34	44320.38
621.49	44802.53
621.65	44205.70
621.80	44259.53
621.95	44172.93
622.10	44233.78
622.25	44158.89
622.41	44327.41
622.56	43924.83
622.71	44385.92
622.86	44105.06
623.01	44172.93
623.16	43660.35
623.32	43765.68
623.47	44142.50
623.62	44079.31
623.77	43997.39
623.92	43861.64
624.07	43550.35
624.23	43798.44
624.38	43636.95
624.53	43508.22
624.68	43856.96
624.83	43253.10
624.98	42988.62
625.13	43206.29
625.29	43681.42
625.44	43440.34
625.59	43622.90
625.74	43365.45
625.89	43316.29
626.04	43470.77
626.19	43463.75
626.34	43288.21
626.49	42761.59
626.65	43430.98
626.80	43606.52
626.95	42855.21
627.10	43096.28
627.25	42913.72
627.40	43220.33
627.55	42663.28
627.70	42403.49
627.85	42834.14
628.00	43140.75
628.15	42803.72
628.30	42576.69
628.45	42927.77
628.60	42801.38
628.76	43143.09
628.91	42600.09
629.06	42820.10
629.21	42480.72
629.36	42469.02
629.51	42562.64
629.66	42499.45
629.81	42263.05
629.96	42557.96
630.11	42410.51
630.26	42719.46
630.41	42768.61
630.56	42429.23
630.71	42398.80
630.86	42316.89
631.01	42199.86
631.16	42330.93
631.31	42377.74
631.46	41904.95
631.61	42071.13
631.76	41989.21
631.91	42335.61
632.06	42522.85
632.21	42424.55
632.36	42314.55
632.51	41785.58
632.66	42155.39
632.81	41921.34
632.96	41720.05
633.10	42291.14
633.25	41773.88
633.40	42307.52
633.55	42176.45
633.70	41497.70
633.85	41617.07
634.00	41872.18
634.15	41961.12
634.30	42204.54
634.45	41591.32
634.60	41560.89
634.75	41837.08
634.90	41830.05
635.05	41841.76
635.19	41277.69
635.34	42017.30
635.49	41656.85
635.64	41478.97
635.79	42014.96
635.94	41652.17
636.09	41806.65
636.24	41223.86
636.39	41406.42
636.53	41099.81
636.68	41207.47
636.83	41064.70
636.98	41717.71
637.13	41436.84
637.28	41240.24
637.43	41610.04
637.57	41209.81
637.72	41048.32
637.87	41057.68
638.02	41034.27
638.17	41467.27
638.32	41209.81
638.46	41380.67
638.61	40652.76
638.76	40903.20
638.91	40694.89
639.06	41053.00
639.20	41076.40
639.35	41404.08
639.50	40725.32
639.65	41158.32
639.80	41062.36
639.94	40779.15
640.09	40849.37
640.24	39988.05
640.39	40552.12
640.54	40107.42
640.68	40701.92
640.83	40610.64
640.98	40039.54
641.13	40381.26
641.27	40425.73
641.42	40140.19
641.57	40414.03
641.72	40140.19
641.86	39974.01
642.01	40037.20
642.16	40318.07
642.31	40367.22
642.45	40278.28
642.60	40184.66
642.75	40128.48
642.90	40224.45
643.04	40627.02
643.19	40266.58
643.34	40203.38
643.48	39835.92
643.63	40240.83
643.78	39948.26
643.93	40018.48
644.07	40182.32
644.22	39917.84
644.37	39793.79
644.51	39835.92
644.66	39819.53
644.81	39658.04
644.95	39791.45
645.10	39634.63
645.25	39952.94
645.39	39503.56
645.54	39831.24
645.69	39796.13
645.83	40025.50
645.98	39491.86
646.13	39618.25
646.27	40039.54
646.42	39201.63
646.57	39587.82
646.71	39475.48
646.86	40027.84
647.00	39622.93
647.15	39885.07
647.30	39398.24
647.44	39049.50
647.59	39395.90
647.74	39108.01
647.88	39321.00
648.03	39622.93
648.17	39746.98
648.32	38923.11
648.47	39051.84
648.61	39065.88
648.76	39480.16
648.90	39810.17
649.05	39241.42
649.20	39330.36
649.34	39108.01
649.49	38859.91
649.63	38785.02
649.78	39126.74
649.92	39119.71
650.07	39653.36
650.21	38976.94
650.36	38981.62
650.51	39145.46
650.65	39140.78
650.80	38883.32
650.94	39227.38
651.09	38990.98
651.23	39028.43
651.38	38780.34
651.52	38569.69
651.67	38637.56
651.81	38471.39
651.96	38429.26
652.10	38651.61
652.25	38768.63
652.39	38618.84
652.54	38876.30
652.68	38735.87
652.83	38789.70
652.97	38646.93
653.12	38710.12
653.26	38419.89
653.41	38415.21
653.55	38293.50
653.70	38239.67
653.84	38279.46
653.99	37937.74
654.13	38272.44
654.27	37518.79
654.42	37890.93
654.56	37656.88
654.71	38148.39
654.85	37610.07
655.00	38096.90
655.14	37801.99
655.29	37673.26
655.43	38071.15
655.57	37408.78
655.72	37366.65
655.86	37387.72
656.01	37619.43
656.15	37556.24
656.30	37581.98
656.44	37661.56
656.58	37563.26
656.73	37453.25
656.87	37331.54
657.01	37703.69
657.16	37467.30
657.30	36617.68
657.45	37350.27
657.59	36982.80
657.73	37359.63
657.88	37993.92
658.02	37972.85
658.16	37902.64
658.31	37809.01
658.45	37460.27
658.60	37069.40
658.74	37020.25
658.88	37200.47
659.03	37221.54
659.17	37174.73
659.31	36851.73
659.46	36900.89
659.60	36989.83
659.74	37003.87
659.89	36741.73
660.03	36861.10
660.17	36975.78
660.32	36896.20
660.46	36659.81
660.60	36357.88
660.74	36624.70
660.89	36584.91
661.03	36559.17
661.17	35896.80
661.32	36301.71
661.46	36165.96
661.60	36435.12
661.74	36219.79
661.89	35917.86
662.03	36084.04
662.17	36533.42
662.31	35952.97
662.46	36671.51
662.60	36411.71
662.74	36102.76
662.88	35917.86
663.03	35648.70
663.17	35990.42
663.31	36243.20
663.45	35990.42
663.60	35892.12
663.74	35342.09
663.88	35489.54
664.02	35323.36
664.17	35747.00
664.31	35503.59
664.45	35189.95
664.59	35044.84
664.73	35402.94
664.88	35173.57
665.02	35054.20
665.16	34539.29
665.30	34883.34
665.44	34911.43
665.59	34785.04
665.73	35007.39
665.87	34782.70
666.01	34515.88
666.15	34895.05
666.29	34644.61
666.44	34714.83
666.58	35164.21
666.72	34693.76
666.86	35019.10
667.00	34408.22
667.14	34230.33
667.28	34412.90
667.43	34759.30
667.57	34473.75
667.71	34242.04
667.85	34408.22
667.99	34293.53
668.13	34033.73
668.27	34155.44
668.41	34279.49
668.56	33921.38
668.70	34197.57
668.84	33769.25
668.98	33441.57
669.12	33535.20
669.26	33949.47
669.40	33273.06
669.54	33350.29
669.68	33710.74
669.82	33296.46
669.96	33202.84
670.10	33039.00
670.25	32690.26
670.39	32921.98
670.53	32823.67
670.67	32519.40
670.81	32978.15
670.95	32713.67
671.09	32844.74
671.23	32748.78
671.37	32407.06
671.51	32432.80
671.65	32474.93
671.79	32505.36
671.93	32383.65
672.07	32343.86
672.21	32400.04
672.35	32278.33
672.49	32357.91
672.63	32334.50
672.77	32194.07
672.91	32058.32
673.05	31938.95
673.19	31842.99
673.33	31517.65
673.47	31866.39
673.61	31948.31
673.75	31786.82
673.89	31674.47
674.03	31395.95
674.17	31482.55
674.31	31225.09
674.45	31302.32
674.59	31519.99
674.73	31482.55
674.87	31440.42
675.01	31042.53
675.15	31117.42
675.29	30967.63
675.43	31124.44
675.56	30951.24
675.70	30712.51
675.84	30852.94
675.98	29603.10
676.12	30267.81
676.26	30731.23
676.40	30277.17
676.54	30448.03
676.68	30609.53
676.82	29844.17
676.96	29811.40
677.10	29645.23
677.23	29921.41
677.37	29638.20
677.51	29902.68
677.65	29453.30
677.79	29369.04
677.93	29259.04
678.07	29216.91
678.21	28849.44
678.34	29090.52
678.48	28620.07
678.62	29233.29
678.76	28514.75
678.90	28350.91
679.04	28617.73
679.18	28659.86
679.31	28446.87
679.45	28451.55
679.59	28236.22
679.73	28467.94
679.87	28201.11
680.00	27648.75
680.14	27880.46
680.28	28346.23
680.42	27613.64
680.56	27768.12
680.70	27257.88
680.83	28016.21
680.97	27234.47
681.11	27510.66
681.25	27445.12
681.39	27218.09
681.52	27459.16
681.66	26838.92
681.80	26967.65
681.94	27019.14
682.07	26735.94
682.21	26281.88
682.35	26534.65
682.49	26789.77
682.62	26246.77
682.76	26125.06
682.90	26361.45
683.04	25839.51
683.17	26082.93
683.31	25928.45
683.45	26092.29
683.59	25748.23
683.72	25696.74
683.86	25612.48
684.00	26047.82
684.13	25359.70
684.27	25193.53
684.41	25195.87
684.55	25179.48
684.68	25364.39
684.82	25057.78
684.96	25245.02
685.09	24989.90
685.23	24467.96
685.37	24891.60
685.50	24910.32
685.64	24758.19
685.78	24491.37
685.91	24254.97
686.05	24203.48
686.19	24011.56
686.32	24002.19
686.46	23758.78
686.60	23590.26
686.73	23491.96
686.87	23140.88
687.01	23136.20
687.14	23250.88
687.28	23042.57
687.42	23077.68
687.55	23080.02
687.69	23133.86
687.82	23253.22
687.96	22932.57
688.10	22754.69
688.23	22443.40
688.37	22553.40
688.50	22822.56
688.64	22361.48
688.78	22735.96
688.91	22225.73
689.05	22487.87
689.18	22464.46
689.32	22089.98
689.46	22436.38
689.59	22434.03
689.73	22218.71
689.86	21811.45
690.00	21930.82
690.13	21837.20
690.27	21724.85
690.41	21369.09
690.54	21322.28
690.68	21465.05
690.81	21556.33
690.95	21099.93
691.08	21118.65
691.22	21341.00
691.35	20987.58
691.49	21158.44
691.62	21240.36
691.76	20865.88
691.89	20833.11
692.03	20737.15
692.16	20657.57
692.30	20372.02
692.43	20290.10
692.57	20166.06
692.70	20219.89
692.84	20376.70
692.97	19702.63
693.11	19873.49
693.24	19599.65
693.38	19850.08
693.51	19878.17
693.65	19644.12
693.78	19536.45
693.92	19566.88
694.05	19318.78
694.19	19171.33
694.32	19477.94
694.45	19131.54
694.59	19157.28
694.72	18974.72
694.86	18698.54
694.99	18841.31
695.13	18860.04
695.26	18808.54
695.39	18558.11
695.53	18712.58
695.66	18534.70
695.80	18616.62
695.93	18583.85
696.07	18321.71
696.20	18558.11
696.33	18434.06
696.47	18422.36
696.60	18059.57
696.73	17804.46
696.87	17884.03
697.00	17703.81
697.14	17535.29
697.27	17462.74
697.40	17682.75
697.54	17554.02
697.67	17256.77
697.80	17467.42
697.94	17380.82
698.07	16966.54
698.21	17146.76
698.34	17179.53
698.47	16835.47
698.61	16718.45
698.74	16720.79
698.87	16889.31
699.01	16896.33
699.14	16486.73
699.27	16203.53
699.40	16407.16
699.54	16367.37
699.67	16315.87
699.80	16334.60
699.94	15978.84
700.07	15868.83
700.20	16173.10
700.34	16023.31
700.47	16023.31
700.60	15910.96
700.73	15917.98
700.87	15770.53
701.00	15695.63
701.13	15712.02
701.26	15459.24
701.40	15604.35
701.53	15339.87
701.66	15091.77
701.79	15131.56
701.93	15211.14
702.06	14834.32
702.19	14869.42
702.32	14637.71
702.46	15087.09
702.59	14984.11
702.72	14808.57
702.85	14934.96
702.99	14846.02
703.12	14663.46
703.25	14628.35
703.38	14073.64
703.51	14731.33
703.65	14450.47
703.78	14338.12
703.91	13980.02
704.04	14265.57
704.17	13975.34
704.31	13965.98
704.44	14071.30
704.57	13820.86
704.70	13621.92
704.83	13696.82
704.96	13757.67
705.10	13715.54
705.23	13752.99
>>>>>End Processed Spectral Data<<<<<
