SpectraSuite Data File
++++++++++++++++++++++++++++++++++++
Date: Fri Oct 25 10:44:50 EDT 2013
User: price-jones
Dark Spectrum Present: No
Reference Spectrum Present: No
Number of Sampled Component Spectra: 1
Spectrometers: USB2+H05261
Integration Time (usec): 100000 (USB2+H05261)
Spectra Averaged: 1 (USB2+H05261)
Boxcar Smoothing: 0 (USB2+H05261)
Correct for Electrical Dark: No (USB2+H05261)
Strobe/Lamp Enabled: No (USB2+H05261)
Correct for Detector Non-linearity: No (USB2+H05261)
Correct for Stray Light: No (USB2+H05261)
Number of Pixels in Processed Spectrum: 2048
>>>>>Begin Processed Spectral Data<<<<<
365.73	163.84
365.92	163.84
366.12	163.84
366.32	100.64
366.52	0.00
366.72	0.00
366.91	21.06
367.11	2.34
367.31	37.45
367.51	37.45
367.70	0.00
367.90	35.11
368.10	77.24
368.30	42.13
368.49	0.00
368.69	110.01
368.89	53.83
369.09	0.00
369.28	63.19
369.48	53.83
369.68	65.54
369.87	56.17
370.07	117.03
370.27	140.43
370.47	184.90
370.66	362.78
370.86	311.29
371.06	425.98
371.25	442.36
371.45	433.00
371.65	482.15
371.84	376.83
372.04	339.38
372.24	388.53
372.44	482.15
372.63	519.60
372.83	479.81
373.03	552.37
373.22	489.17
373.42	519.60
373.62	463.43
373.81	461.09
374.01	606.20
374.21	587.47
374.40	449.38
374.60	500.87
374.79	491.51
374.99	535.98
375.19	545.34
375.38	538.32
375.58	596.84
375.78	585.13
375.97	505.56
376.17	631.94
376.37	561.73
376.56	608.54
376.76	538.32
376.95	620.24
377.15	671.73
377.35	629.60
377.54	610.88
377.74	627.26
377.93	622.58
378.13	622.58
378.33	678.76
378.52	636.63
378.72	608.54
378.91	610.88
379.11	566.41
379.31	559.39
379.50	664.71
379.70	690.46
379.89	683.44
380.09	599.18
380.28	603.86
380.48	660.03
380.68	662.37
380.87	697.48
381.07	641.31
381.26	690.46
381.46	727.91
381.65	730.25
381.85	671.73
382.04	622.58
382.24	690.46
382.43	699.82
382.63	599.18
382.83	713.86
383.02	692.80
383.22	683.44
383.41	643.65
383.61	683.44
383.80	645.99
384.00	699.82
384.19	730.25
384.39	702.16
384.58	739.61
384.78	671.73
384.97	819.19
385.17	779.40
385.36	678.76
385.56	727.91
385.75	798.12
385.95	753.65
386.14	821.53
386.34	791.10
386.53	784.08
386.72	732.59
386.92	884.72
387.11	816.85
387.31	847.27
387.50	802.80
387.70	751.31
387.89	809.83
388.09	875.36
388.28	770.04
388.48	784.08
388.67	837.91
388.86	854.30
389.06	788.76
389.25	957.28
389.45	814.51
389.64	933.87
389.84	952.60
390.03	908.13
390.22	924.51
390.42	891.74
390.61	905.79
390.81	985.37
391.00	994.73
391.19	1027.50
391.39	933.87
391.58	938.55
391.78	973.66
391.97	961.96
392.16	940.90
392.36	1067.28
392.55	1013.45
392.75	992.39
392.94	915.15
393.13	997.07
393.33	884.72
393.52	997.07
393.71	999.41
393.91	1097.71
394.10	1006.43
394.29	1020.47
394.49	1043.88
394.68	1097.71
394.88	1111.75
395.07	1043.88
395.26	1228.78
395.46	1142.18
395.65	1093.03
395.84	1123.46
396.04	1238.14
396.23	1142.18
396.42	1165.59
396.62	1135.16
396.81	1160.91
397.00	1139.84
397.19	1177.29
397.39	1196.01
397.58	1270.91
397.77	1221.76
397.97	1212.40
398.16	1240.48
398.35	1282.61
398.55	1291.98
398.74	1313.04
398.93	1397.30
399.12	1324.74
399.32	1336.45
399.51	1306.02
399.70	1416.02
399.90	1315.38
400.09	1444.11
400.28	1476.88
400.47	1460.49
400.67	1373.89
400.86	1504.96
401.05	1432.41
401.24	1434.75
401.44	1420.71
401.63	1540.07
401.82	1488.58
402.01	1425.39
402.21	1526.03
402.40	1446.45
402.59	1500.28
402.78	1547.09
402.97	1540.07
403.17	1493.26
403.36	1591.56
403.55	1617.31
403.74	1671.14
403.93	1596.25
404.13	1654.76
404.32	1549.43
404.51	1575.18
404.70	1537.73
404.89	1643.06
405.09	1746.04
405.28	1813.92
405.47	1661.78
405.66	1820.94
405.85	1809.23
406.05	1722.63
406.24	1825.62
406.43	1895.83
406.62	1816.26
406.81	1895.83
407.00	1853.70
407.20	1778.81
407.39	1844.34
407.58	1926.26
407.77	1954.35
407.96	1956.69
408.15	2019.88
408.34	1907.54
408.54	2085.42
408.73	2026.90
408.92	2005.84
409.11	2069.03
409.30	2080.74
409.49	1987.11
409.68	2012.86
409.87	2167.34
410.07	2057.33
410.26	2167.34
410.45	2115.84
410.64	2157.97
410.83	2200.10
411.02	2190.74
411.21	2263.30
411.40	2221.17
411.59	2342.88
411.78	2289.04
411.98	2207.13
412.17	2399.05
412.36	2377.98
412.55	2385.01
412.74	2354.58
412.93	2539.48
413.12	2396.71
413.31	2621.40
413.50	2464.58
413.69	2469.27
413.88	2647.15
414.07	2691.62
414.26	2588.63
414.45	2630.76
414.64	2558.21
414.83	2586.29
415.02	2715.02
415.22	2731.41
415.41	2803.96
415.60	2689.28
415.79	2792.26
415.98	2796.94
416.17	2888.22
416.36	2909.29
416.55	3019.29
416.74	2871.84
416.93	2876.52
417.12	2956.10
417.31	3068.44
417.50	2953.76
417.69	3218.24
417.88	3096.53
418.07	3105.89
418.26	2942.05
418.45	3215.90
418.64	3091.85
418.83	3063.76
419.02	3159.72
419.21	3208.87
419.39	3227.60
419.58	3251.00
419.77	3281.43
419.96	3384.41
420.15	3332.92
420.34	3269.73
420.53	3288.45
420.72	3361.01
420.91	3578.68
421.10	3494.42
421.29	3566.98
421.48	3344.63
421.67	3487.40
421.86	3304.84
422.05	3314.20
422.24	3468.67
422.43	3449.95
422.61	3499.10
422.80	3513.14
422.99	3545.91
423.18	3550.59
423.37	3719.11
423.56	3632.51
423.75	3604.42
423.94	3508.46
424.13	3407.82
424.32	3480.38
424.50	3590.38
424.69	3559.95
424.88	3758.90
425.07	3658.26
425.26	3517.83
425.45	3630.17
425.64	3574.00
425.83	3630.17
426.01	3637.19
426.20	3592.72
426.39	3681.66
426.58	3618.47
426.77	3571.66
426.96	3639.53
427.15	3499.10
427.33	3632.51
427.52	3674.64
427.71	3808.05
427.90	3730.81
428.09	3815.07
428.28	3878.27
428.46	3723.79
428.65	3758.90
428.84	3967.21
429.03	3908.69
429.22	3627.83
429.40	3920.40
429.59	3810.39
429.78	3569.32
429.97	3698.05
430.16	3843.16
430.34	3906.35
430.53	3847.84
430.72	3997.64
430.91	3922.74
431.10	3887.63
431.28	4131.05
431.47	4182.54
431.66	4194.24
431.85	4156.79
432.03	4121.68
432.22	4299.56
432.41	4250.41
432.60	4224.67
432.79	4217.65
432.97	4285.52
433.16	4250.41
433.35	4065.51
433.54	4217.65
433.72	4369.78
433.91	4248.07
434.10	4255.09
434.28	4339.35
434.47	4423.61
434.66	4463.40
434.85	4400.21
435.03	4393.19
435.22	4475.10
435.41	4599.15
435.59	4566.39
435.78	4622.56
435.97	4690.43
436.16	4578.09
436.34	4753.63
436.53	4589.79
436.72	4746.61
436.90	4748.95
437.09	4751.29
437.28	4734.90
437.46	4627.24
437.65	4809.80
437.84	4830.87
438.02	4779.37
438.21	4795.76
438.40	4739.58
438.58	4826.18
438.77	4987.68
438.96	4828.53
439.14	5095.35
439.33	5064.92
439.52	5067.26
439.70	5006.41
439.89	5366.85
440.08	5195.99
440.26	5186.63
440.45	5352.81
440.63	5217.05
440.82	5324.72
441.01	5277.91
441.19	5455.79
441.38	5540.05
441.57	5441.75
441.75	5605.58
441.94	5636.01
442.12	5799.85
442.31	5703.89
442.50	5682.82
442.68	5486.22
442.87	5675.80
443.05	5640.69
443.24	5788.14
443.43	5760.06
443.61	5916.87
443.80	5987.09
443.98	5703.89
444.17	5675.80
444.35	5893.47
444.54	5884.11
444.73	5858.36
444.91	5928.58
445.10	5851.34
445.28	5947.30
445.47	5841.98
445.65	5849.00
445.84	5820.91
446.02	6029.22
446.21	5898.15
446.39	6015.18
446.58	6120.50
446.77	5895.81
446.95	6015.18
447.14	6101.78
447.32	6015.18
447.51	5898.15
447.69	5933.26
447.88	6106.46
448.06	6036.24
448.25	5989.43
448.43	6108.80
448.62	6073.69
448.80	6080.71
448.99	6132.20
449.17	6136.88
449.36	6207.10
449.54	6232.85
449.73	6399.02
449.91	6361.58
450.10	6420.09
450.28	6497.33
450.46	6462.22
450.65	6494.99
450.83	6520.73
451.02	6527.75
451.20	6527.75
451.39	6546.48
451.57	6609.67
451.76	6424.77
451.94	6520.73
452.13	6766.49
452.31	6511.37
452.49	6450.52
452.68	6569.88
452.86	6417.75
453.05	6548.82
453.23	6630.74
453.42	6595.63
453.60	6621.38
453.78	6773.51
453.97	6712.66
454.15	6780.53
454.34	6722.02
454.52	6820.32
454.70	7059.06
454.89	7005.22
455.07	6906.92
455.26	6965.43
455.44	6953.73
455.62	7096.50
455.81	7002.88
455.99	7117.57
456.17	7136.29
456.36	7056.72
456.54	7187.79
456.73	7290.77
456.91	7218.21
457.09	7250.98
457.28	7297.79
457.46	7197.15
457.64	7241.62
457.83	7370.35
458.01	7197.15
458.19	7499.08
458.38	7377.37
458.56	7515.46
458.74	7475.67
458.93	7513.12
459.11	7569.29
459.29	7499.08
459.48	7517.80
459.66	7470.99
459.84	7573.97
460.03	7698.02
460.21	7590.36
460.39	7660.57
460.57	7676.96
460.76	7742.49
460.94	7889.95
461.12	7920.37
461.31	7630.15
461.49	7852.50
461.67	7719.09
461.85	7875.90
462.04	7925.05
462.22	8128.68
462.40	8107.62
462.59	7992.93
462.77	8070.17
462.95	8285.50
463.13	8166.13
463.32	8109.96
463.50	8095.91
463.68	8351.03
463.86	8262.09
464.05	8116.98
464.23	8255.07
464.41	8011.65
464.59	7992.93
464.78	8507.85
464.96	8285.50
465.14	8121.66
465.32	8215.28
465.50	8355.71
465.69	8414.23
465.87	8365.07
466.05	8493.80
466.23	8280.82
466.41	8383.80
466.60	8533.59
466.78	8482.10
466.96	8479.76
467.14	8477.42
467.32	8589.77
467.51	8552.32
467.69	8435.29
467.87	8571.04
468.05	8769.99
468.23	8685.73
468.41	8573.38
468.60	8798.07
468.78	8772.33
468.96	8788.71
469.14	8975.95
469.32	8896.38
469.50	8676.37
469.69	8992.34
469.87	8964.25
470.05	9165.54
470.23	8994.68
470.41	8980.64
470.59	9102.34
470.77	9018.08
470.95	8938.51
471.14	9121.07
471.32	9053.19
471.50	9390.23
471.68	9458.10
471.86	9345.76
472.04	9568.11
472.22	9713.22
472.40	9390.23
472.58	9479.17
472.77	9645.35
472.95	9729.61
473.13	9837.27
473.31	9556.41
473.49	9713.22
473.67	9647.69
473.85	9743.65
474.03	10111.11
474.21	9966.00
474.39	10230.48
474.57	10047.92
474.75	10111.11
474.93	10267.93
475.12	10174.31
475.30	10094.73
475.48	10214.10
475.66	10239.84
475.84	10349.85
476.02	10520.71
476.20	10513.69
476.38	10436.45
476.56	10820.30
476.74	10878.81
476.92	10729.02
477.10	10860.09
477.28	11016.90
477.46	10944.34
477.64	10904.56
477.82	11257.98
478.00	11513.10
478.18	11552.88
478.36	11595.01
478.54	11489.69
478.72	11590.33
478.90	11599.70
479.08	11976.52
479.26	12018.65
479.44	11798.64
479.62	12067.80
479.80	12229.30
479.98	12348.67
480.16	12510.16
480.34	12294.83
480.52	12526.55
480.70	12491.44
480.88	12409.52
481.06	12767.62
481.24	12734.85
481.41	12933.80
481.59	13041.46
481.77	13167.85
481.95	13217.01
482.13	13270.84
482.31	13500.21
482.49	13427.65
482.67	13743.63
482.85	13640.64
483.03	13816.18
483.21	13729.58
483.39	13956.61
483.57	14099.39
483.74	14054.92
483.92	14457.49
484.10	14183.65
484.28	14523.02
484.46	14934.96
484.64	15037.94
484.82	14759.42
485.00	15171.35
485.18	15232.21
485.35	15124.54
485.53	15110.50
485.71	14892.83
485.89	15562.22
486.07	15262.63
486.25	15367.96
486.43	15602.01
486.61	15831.38
486.78	15852.45
486.96	16044.37
487.14	16308.85
487.32	16517.16
487.50	16521.84
487.68	16816.75
487.85	16910.37
488.03	17233.36
488.21	17179.53
488.39	17184.21
488.57	17436.99
488.75	17418.27
488.92	17411.25
489.10	17657.00
489.28	17764.67
489.46	17970.63
489.64	17958.93
489.81	18808.54
489.99	18333.42
490.17	18754.71
490.35	18920.89
490.53	18752.37
490.70	18782.80
490.88	18803.86
491.06	19096.43
491.24	19143.24
491.41	19332.82
491.59	19269.63
491.77	19307.08
491.95	19564.54
492.13	19796.25
492.30	20100.52
492.48	20018.60
492.66	19829.02
492.84	19887.53
493.01	20397.77
493.19	20683.31
493.37	20592.03
493.54	20496.07
493.72	20730.12
493.90	21090.57
494.08	21113.97
494.25	21434.63
494.43	21254.40
494.61	21790.39
494.79	21928.48
494.96	21039.08
495.14	21551.65
495.32	21596.12
495.49	22061.89
495.67	21942.52
495.85	22143.81
496.02	22448.08
496.20	22270.20
496.38	22689.15
496.55	22527.66
496.73	22960.66
496.91	22820.22
497.09	23044.91
497.26	23250.88
497.44	22920.87
497.62	23070.66
497.79	23714.31
497.97	23557.49
498.14	23412.38
498.32	23393.65
498.50	23545.79
498.67	24093.47
498.85	23988.15
499.03	24245.61
499.20	24388.38
499.38	24467.96
499.56	24081.77
499.73	24673.93
499.91	24460.94
500.08	25003.94
500.26	24556.90
500.44	24840.11
500.61	24893.94
500.79	24905.64
500.97	24924.36
501.14	25214.59
501.32	25156.08
501.49	25420.56
501.67	25418.22
501.84	25469.71
502.02	25532.90
502.20	25778.66
502.37	26197.62
502.55	25795.04
502.72	25837.17
502.90	26122.72
503.07	25827.81
503.25	26176.55
503.43	25888.67
503.60	26167.19
503.78	26654.02
503.95	26349.75
504.13	26349.75
504.30	26703.17
504.48	26373.16
504.65	27126.81
504.83	26958.29
505.01	27241.50
505.18	26984.04
505.36	27531.72
505.53	27211.07
505.71	27583.21
505.88	27580.87
506.06	27400.65
506.23	27592.58
506.41	27325.75
506.58	27314.05
506.76	27630.02
506.93	27997.49
507.11	27957.70
507.28	27960.04
507.46	27999.83
507.63	27936.63
507.81	27988.13
507.98	28409.42
508.16	28240.90
508.33	28407.08
508.50	28683.27
508.68	28559.22
508.85	28938.38
509.03	28919.66
509.20	28865.83
509.38	29193.50
509.55	29088.18
509.73	28900.94
509.90	29413.51
510.08	29071.79
510.25	28769.86
510.42	29631.18
510.60	29701.40
510.77	29558.63
510.95	29813.74
511.12	29823.11
511.30	29785.66
511.47	30101.63
511.64	29993.97
511.82	30043.12
511.99	30260.79
512.17	29989.28
512.34	30054.82
512.51	30478.46
512.69	30466.75
512.86	30363.77
513.04	30628.25
513.21	30506.54
513.38	30902.09
513.56	30670.38
513.73	30852.94
513.90	30890.39
514.08	30822.51
514.25	31084.65
514.43	31019.12
514.60	31005.08
514.77	31058.91
514.95	31550.42
515.12	31082.31
515.29	31295.30
515.47	31955.33
515.64	31651.06
515.81	31873.42
515.99	31576.17
516.16	31557.44
516.33	31630.00
516.51	31782.13
516.68	31662.77
516.85	31573.83
517.03	32243.22
517.20	31960.02
517.37	32037.25
517.54	32606.00
517.72	32102.79
517.89	32020.87
518.06	32112.15
518.24	32044.27
518.41	32444.51
518.58	32655.15
518.75	32208.11
518.93	32966.45
519.10	32631.75
519.27	32708.99
519.45	32950.06
519.62	33118.58
519.79	33457.96
519.96	33589.03
520.14	33364.34
520.31	33268.37
520.48	33474.34
520.65	33242.63
520.83	33699.03
521.00	33813.72
521.17	33799.68
521.34	33813.72
521.52	34080.54
521.69	33876.91
521.86	34235.02
522.03	34389.49
522.20	34333.32
522.38	34216.29
522.55	34314.59
522.72	34211.61
522.89	34328.64
523.07	34616.52
523.24	34345.02
523.41	35082.29
523.58	34766.32
523.75	35208.68
523.92	34845.90
524.10	35225.06
524.27	34754.61
524.44	35166.55
524.61	35154.85
524.78	35194.64
524.96	35590.19
525.13	35421.67
525.30	35524.65
525.47	35681.47
525.64	35531.67
525.81	35601.89
525.98	35386.56
526.16	35339.75
526.33	35292.94
526.50	35440.39
526.67	35611.25
526.84	35248.47
527.01	35318.68
527.18	35920.20
527.36	36519.38
527.53	36245.54
527.70	36615.34
527.87	36180.00
528.04	36135.53
528.21	36486.61
528.38	36498.31
528.55	36797.90
528.72	36505.34
528.89	36851.73
529.07	36641.09
529.24	36479.59
529.41	36680.88
529.58	36886.84
529.75	36762.79
529.92	36767.48
530.09	36863.44
530.26	37179.41
530.43	37055.36
530.60	36804.92
530.77	37181.75
530.94	37528.15
531.11	37020.25
531.28	37418.14
531.46	37153.66
531.63	37537.51
531.80	37181.75
531.97	37415.80
532.14	37361.97
532.31	37074.09
532.48	37296.44
532.65	37420.48
532.82	37359.63
532.99	37626.45
533.16	37490.70
533.33	38000.94
533.50	38050.09
533.67	38068.81
533.84	37942.42
534.01	38227.97
534.18	38012.64
534.35	38396.49
534.52	38024.34
534.69	38169.46
534.86	38405.85
535.03	38155.41
535.20	38586.07
535.37	38553.30
535.54	38410.53
535.71	38635.22
535.88	38452.66
536.05	38562.67
536.22	38618.84
536.38	38803.74
536.55	38532.24
536.72	38553.30
536.89	38440.96
537.06	38455.00
537.23	38962.90
537.40	38864.60
537.57	38927.79
537.74	39063.54
537.91	39196.95
538.08	39086.95
538.25	39021.41
538.42	38923.11
538.59	39302.28
538.75	38986.30
538.92	39309.30
539.09	39145.46
539.26	39276.53
539.43	39154.82
539.60	39646.33
539.77	39000.35
539.94	39798.47
540.11	39601.86
540.28	39381.85
540.44	39548.03
540.61	39695.49
540.78	39716.55
540.95	39533.99
541.12	39358.45
541.29	39864.00
541.46	39552.71
541.62	40130.83
541.79	39906.13
541.96	39639.31
542.13	39594.84
542.30	39533.99
542.47	40243.17
542.63	40418.71
542.80	40612.98
542.97	40411.69
543.14	40720.64
543.31	40865.75
543.48	40629.36
543.64	41282.37
543.81	41104.49
543.98	40280.62
544.15	40802.56
544.32	40755.75
544.48	40903.20
544.65	40935.97
544.82	40678.51
544.99	40570.85
545.16	41390.03
545.32	41109.17
545.49	41216.83
545.66	41106.83
545.83	41338.54
546.00	41518.76
546.16	41045.97
546.33	40882.14
546.50	40802.56
546.67	40996.82
546.83	40718.30
547.00	41200.45
547.17	41481.31
547.34	41322.16
547.50	41055.34
547.67	41502.38
547.84	41577.28
548.00	41736.43
548.17	41839.42
548.34	41223.86
548.51	42007.94
548.67	41940.06
548.84	42164.75
549.01	41743.45
549.18	41675.58
549.34	41687.28
549.51	42101.56
549.68	41895.59
549.84	41750.48
550.01	42036.02
550.18	42209.22
550.34	42150.71
550.51	42066.45
550.68	42087.51
550.84	41823.03
551.01	42127.30
551.18	41907.29
551.34	41738.77
551.51	42354.33
551.68	42424.55
551.84	42312.20
552.01	42234.97
552.18	42260.71
552.34	41996.23
552.51	42593.07
552.68	42110.92
552.84	42326.25
553.01	42359.02
553.18	42492.43
553.34	42490.09
553.51	42506.47
553.67	42295.82
553.84	42859.89
554.01	42611.79
554.17	42602.43
554.34	43107.99
554.51	42822.44
554.67	43227.35
554.84	42712.44
555.00	42513.49
555.17	42590.73
555.33	42770.95
555.50	42501.79
555.67	42581.37
555.83	42873.93
556.00	43239.06
556.16	43281.19
556.33	43002.66
556.50	42611.79
556.66	42955.85
556.83	43009.68
556.99	43232.04
557.16	43430.98
557.32	43447.36
557.49	43206.29
557.65	43014.37
557.82	43292.89
557.98	43295.23
558.15	43112.67
558.32	43442.68
558.48	43487.15
558.65	43089.26
558.81	42885.64
558.98	43606.52
559.14	43349.06
559.31	42974.58
559.47	43220.33
559.64	43775.04
559.80	43346.72
559.97	43320.98
560.13	43391.19
560.30	43115.01
560.46	43105.65
560.63	43519.92
560.79	43732.91
560.96	43737.59
561.12	43973.98
561.29	43681.42
561.45	43835.89
561.61	43650.99
561.78	43646.31
561.94	43456.73
562.11	43693.12
562.27	43260.12
562.44	43885.04
562.60	44163.57
562.77	44428.05
562.93	43716.53
563.10	43796.10
563.26	43592.48
563.42	43859.30
563.59	43709.50
563.75	43473.11
563.92	43749.29
564.08	44069.95
564.24	44130.80
564.41	43763.34
564.57	43489.49
564.74	43892.07
564.90	44079.31
565.07	44093.35
565.23	43955.26
565.39	43995.05
565.56	43777.38
565.72	43353.74
565.88	43952.92
566.05	43920.15
566.21	44039.52
566.38	43742.27
566.54	43824.19
566.70	44149.53
566.87	44540.39
567.03	44121.44
567.19	44739.34
567.36	44446.77
567.52	44018.46
567.68	44184.63
567.85	43765.68
568.01	44219.74
568.17	44240.81
568.34	44449.11
568.50	43578.43
568.66	43938.88
568.83	44076.97
568.99	43831.21
569.15	43924.83
569.32	43976.33
569.48	43718.87
569.64	44491.24
569.81	44231.44
569.97	43873.34
570.13	44432.73
570.30	43878.02
570.46	44168.25
570.62	44236.12
570.78	44006.75
570.95	43753.97
571.11	44797.85
571.27	44402.30
571.43	44542.74
571.60	44397.62
571.76	44058.24
571.92	43952.92
572.09	44411.67
572.25	44425.71
572.41	44444.43
572.57	44767.43
572.74	44767.43
572.90	44374.22
573.06	44486.56
573.22	44671.46
573.38	44266.55
573.55	44170.59
573.71	44706.57
573.87	44325.07
574.03	44313.36
574.20	44341.45
574.36	44512.31
574.52	44926.58
574.68	44725.30
574.84	44151.87
575.01	44624.65
575.17	44589.55
575.33	44098.03
575.49	44278.25
575.65	44182.29
575.82	44575.50
575.98	44105.06
576.14	44669.12
576.30	44418.69
576.46	44367.20
576.62	44409.32
576.79	44254.85
576.95	44720.62
577.11	44371.88
577.27	45071.70
577.43	44528.69
577.59	44498.26
577.75	44744.02
577.92	44107.40
578.08	44395.28
578.24	44645.72
578.40	44158.89
578.56	44701.89
578.72	44215.06
578.88	44542.74
579.04	45045.95
579.21	44594.23
579.37	44514.65
579.53	44327.41
579.69	44594.23
579.85	44608.27
580.01	44849.35
580.17	44402.30
580.33	44411.67
580.49	44992.12
580.65	44882.11
580.82	45067.02
580.98	44215.06
581.14	44292.30
581.30	44715.93
581.46	44905.52
581.62	44891.48
581.78	44624.65
581.94	44790.83
582.10	44678.49
582.26	44945.31
582.42	44722.96
582.58	44608.27
582.74	44215.06
582.90	44577.84
583.06	44509.97
583.22	44842.32
583.38	44837.64
583.54	44954.67
583.70	44460.82
583.86	44547.42
584.02	44184.63
584.18	44753.38
584.34	45118.51
584.50	44760.40
584.66	43973.98
584.82	44240.81
584.98	45015.52
585.14	44947.65
585.30	44547.42
585.46	44751.04
585.62	44872.75
585.78	44683.17
585.94	44442.09
586.10	44484.22
586.26	44900.84
586.42	45071.70
586.58	44737.00
586.74	44196.34
586.90	44488.90
587.06	44149.53
587.22	44355.49
587.38	44655.08
587.54	44954.67
587.70	44898.50
587.86	44786.15
588.02	44802.53
588.18	45081.06
588.34	44942.97
588.49	44589.55
588.65	44186.97
588.81	44500.61
588.97	44584.86
589.13	44470.18
589.29	44409.32
589.45	44893.82
589.61	44495.92
589.77	45167.66
589.93	45017.86
590.08	44828.28
590.24	44851.69
590.40	44882.11
590.56	45050.63
590.72	44849.35
590.88	44575.50
591.04	45200.43
591.20	45392.35
591.35	45500.01
591.51	45184.04
591.67	45172.34
591.83	45134.89
591.99	45174.68
592.15	45052.97
592.31	45228.51
592.46	44807.22
592.62	45155.96
592.78	45490.65
592.94	44573.16
593.10	44713.59
593.26	45141.91
593.41	44821.26
593.57	44725.30
593.73	44985.10
593.89	45457.88
594.05	44931.26
594.20	45141.91
594.36	45401.71
594.52	45148.93
594.68	45191.06
594.84	45013.18
594.99	45104.46
595.15	44816.58
595.31	45188.72
595.47	45076.38
595.62	45240.21
595.78	45179.36
595.94	45549.17
596.10	45303.41
596.25	44982.76
596.41	45057.65
596.57	45153.62
596.73	44957.01
596.88	44697.21
597.04	44528.69
597.20	45041.27
597.36	45106.80
597.51	45275.32
597.67	45525.76
597.83	45324.47
597.99	45205.11
598.14	44891.48
598.30	45097.44
598.46	45092.76
598.61	45181.70
598.77	45130.21
598.93	44720.62
599.09	45006.16
599.24	45525.76
599.40	45532.78
599.56	45263.62
599.71	45069.36
599.87	45247.24
600.03	45684.92
600.18	45078.72
600.34	44959.35
600.50	44947.65
600.65	44980.42
600.81	45762.15
600.97	45450.86
601.12	45109.14
601.28	45371.28
601.44	44889.13
601.59	45244.90
601.75	45027.23
601.91	44421.03
602.06	45050.63
602.22	44856.37
602.37	45237.87
602.53	45024.89
602.69	45483.63
602.84	45195.74
603.00	44739.34
603.16	44547.42
603.31	45350.22
603.47	45109.14
603.62	44680.83
603.78	45471.93
603.94	44999.14
604.09	45420.44
604.25	45043.61
604.40	44619.97
604.56	45081.06
604.71	45071.70
604.87	44673.81
605.03	44685.51
605.18	44926.58
605.34	44727.64
605.49	44729.98
605.65	45116.17
605.80	45160.64
605.96	45064.67
606.12	44968.71
606.27	45008.50
606.43	44879.77
606.58	44900.84
606.74	44612.95
606.89	44760.40
607.05	45041.27
607.20	44685.51
607.36	45041.27
607.51	45116.17
607.67	44739.34
607.82	44835.30
607.98	45146.59
608.13	44664.44
608.29	44273.57
608.44	44748.70
608.60	44538.05
608.75	44376.56
608.91	44493.58
609.06	44645.72
609.22	44755.72
609.37	44257.19
609.53	44254.85
609.68	44687.85
609.84	44727.64
609.99	44865.73
610.15	44680.83
610.30	44477.20
610.46	44170.59
610.61	44465.50
610.76	44692.53
610.92	44678.49
611.07	44484.22
611.23	44313.36
611.38	44521.67
611.54	44465.50
611.69	44219.74
611.84	44584.86
612.00	44404.64
612.15	44140.16
612.31	44519.33
612.46	44243.15
612.62	44631.68
612.77	44203.36
612.92	44795.51
613.08	44336.77
613.23	44538.05
613.39	44299.32
613.54	43725.89
613.69	44034.84
613.85	44201.02
614.00	43803.13
614.15	44184.63
614.31	44507.63
614.46	44231.44
614.62	44161.23
614.77	43700.14
614.92	43962.28
615.08	43957.60
615.23	43737.59
615.38	44053.56
615.54	43435.66
615.69	43695.46
615.84	43990.37
616.00	43878.02
616.15	43959.94
616.30	44032.50
616.46	43845.26
616.61	43379.49
616.76	43655.67
616.92	43201.61
617.07	43093.94
617.22	43531.62
617.37	43304.59
617.53	43522.26
617.68	43597.16
617.83	43871.00
617.99	43796.10
618.14	43557.37
618.29	43559.71
618.45	43681.42
618.60	43255.44
618.75	43344.38
618.90	43608.86
619.06	43826.53
619.21	43812.49
619.36	43901.43
619.51	43531.62
619.67	43461.41
619.82	43442.68
619.97	43571.41
620.12	43583.12
620.28	42693.71
620.43	43299.91
620.58	43627.59
620.73	43185.22
620.89	43091.60
621.04	43358.42
621.19	43112.67
621.34	43309.27
621.49	42569.66
621.65	42742.86
621.80	43077.56
621.95	42731.16
622.10	43016.71
622.25	42646.90
622.41	42682.01
622.56	42810.74
622.71	42958.19
622.86	42862.23
623.01	42852.87
623.16	42487.74
623.32	42581.37
623.47	42876.27
623.62	42700.73
623.77	42410.51
623.92	42759.25
624.07	42426.89
624.23	42529.87
624.38	42731.16
624.53	42108.58
624.68	42230.29
624.83	42499.45
624.98	42398.80
625.13	42494.77
625.29	42782.65
625.44	42506.47
625.59	42445.62
625.74	41830.05
625.89	41942.40
626.04	42237.31
626.19	42096.88
626.34	41991.55
626.49	42122.62
626.65	42277.10
626.80	42337.95
626.95	42094.53
627.10	42162.41
627.25	41937.72
627.40	41794.95
627.55	41713.03
627.70	41397.06
627.85	41509.40
628.00	41734.09
628.15	41762.18
628.30	41619.41
628.45	42319.23
628.60	41516.42
628.76	41673.24
628.91	41628.77
629.06	41982.19
629.21	41598.34
629.36	41741.11
629.51	41778.56
629.66	41668.56
629.81	41516.42
629.96	41446.21
630.11	41518.76
630.26	41823.03
630.41	41958.78
630.56	41340.88
630.71	41415.78
630.86	41315.14
631.01	41626.43
631.16	41834.74
631.31	41170.02
631.46	40882.14
631.61	41408.76
631.76	41013.21
631.91	41109.17
632.06	41167.68
632.21	41380.67
632.36	41209.81
632.51	41223.86
632.66	40837.67
632.81	40854.05
632.96	40655.11
633.10	40737.02
633.25	40921.93
633.40	40641.06
633.55	41240.24
633.70	40292.32
633.85	40931.29
634.00	40926.61
634.15	41174.70
634.30	41010.87
634.45	41151.30
634.60	40425.73
634.75	40898.52
634.90	40758.09
635.05	40643.40
635.19	40547.44
635.34	41205.13
635.49	40238.49
635.64	40758.09
635.79	40346.15
635.94	40699.58
636.09	40339.13
636.24	40254.87
636.39	40556.80
636.53	40708.94
636.68	40175.30
636.83	40222.11
636.98	40299.34
637.13	40313.39
637.28	40004.44
637.43	40502.97
637.57	40664.47
637.72	40250.19
637.87	40069.97
638.02	40154.23
638.17	40388.28
638.32	39819.53
638.46	39772.72
638.61	39667.40
638.76	39854.64
638.91	40240.83
639.06	40081.67
639.20	39899.11
639.35	40350.84
639.50	40041.88
639.65	40002.10
639.80	40037.20
639.94	39571.44
640.09	40177.64
640.24	40128.48
640.39	39440.37
640.54	39688.46
640.68	39622.93
640.83	39840.60
640.98	39318.66
641.13	39384.19
641.27	39915.50
641.42	39519.95
641.57	39655.70
641.72	39445.05
641.86	39016.73
642.01	39225.04
642.16	39803.15
642.31	39030.77
642.45	39578.46
642.60	38934.81
642.75	39517.60
642.90	39213.34
643.04	39435.69
643.19	38815.44
643.34	39119.71
643.48	38934.81
643.63	38834.17
643.78	39157.16
643.93	38934.81
644.07	38775.66
644.22	39089.29
644.37	38712.46
644.51	38932.47
644.66	39250.78
644.81	39145.46
644.95	38923.11
645.10	39168.87
645.25	38562.67
645.39	38770.97
645.54	38759.27
645.69	39044.82
645.83	38698.42
645.98	38691.40
646.13	38565.01
646.27	38829.49
646.42	38714.80
646.57	38836.51
646.71	38494.79
646.86	38707.78
647.00	38799.06
647.15	38962.90
647.30	38691.40
647.44	38436.28
647.59	38656.29
647.74	38391.81
647.88	38319.25
648.03	38410.53
648.17	38419.89
648.32	38281.80
648.47	38677.35
648.61	37940.08
648.76	38445.64
648.90	38181.16
649.05	38150.73
649.20	38438.62
649.34	38349.68
649.49	38005.62
649.63	38132.01
649.78	37811.35
649.92	37982.21
650.07	38293.50
650.21	38117.96
650.36	38078.18
650.51	37904.98
650.65	38298.19
650.80	38139.03
650.94	37890.93
651.09	37858.17
651.23	37656.88
651.38	38071.15
651.52	37921.36
651.67	37912.00
651.81	38036.05
651.96	37759.86
652.10	37741.14
652.25	37813.70
652.39	37684.97
652.54	37617.09
652.68	38162.43
652.83	37680.28
652.97	38007.96
653.12	37963.49
653.26	37471.98
653.41	37397.08
653.55	36947.70
653.70	37041.32
653.84	37603.05
653.99	37539.85
654.13	37446.23
654.27	37483.68
654.42	36935.99
654.56	37263.67
654.71	37532.83
654.85	37282.39
655.00	37235.58
655.14	37195.79
655.29	36723.01
655.43	36933.65
655.57	36704.28
655.72	37230.90
655.86	36971.10
656.01	36730.03
656.15	36723.01
656.30	36926.63
656.44	37457.93
656.58	36788.54
656.73	36561.51
656.87	37184.09
657.01	36917.27
657.16	37024.93
657.30	36437.46
657.45	36236.17
657.59	36870.46
657.73	36156.60
657.88	36816.63
658.02	37109.19
658.16	36694.92
658.31	36971.10
658.45	36545.12
658.60	36407.03
658.74	36554.49
658.88	36500.65
659.03	36552.15
659.17	36449.16
659.31	36381.29
659.46	36121.49
659.60	35950.63
659.74	36348.52
659.89	36456.18
660.03	35943.61
660.17	36217.45
660.32	35849.99
660.46	36285.33
660.60	36400.01
660.74	36430.44
660.89	35807.86
661.03	35683.81
661.17	35810.20
661.32	35522.31
661.46	35428.69
661.60	35503.59
661.74	35311.66
661.89	35559.76
662.03	35805.52
662.17	35374.86
662.31	35119.74
662.46	35168.89
662.60	35557.42
662.74	35185.27
662.88	35323.36
663.03	35143.14
663.17	35012.07
663.31	34789.72
663.45	35044.84
663.60	35049.52
663.74	34927.81
663.88	34782.70
664.02	34707.80
664.17	34873.98
664.31	35016.75
664.45	34721.85
664.59	34607.16
664.73	34316.93
664.88	34550.99
665.02	34534.60
665.16	34747.59
665.30	34150.76
665.44	34307.57
665.59	33972.88
665.73	34480.77
665.87	34169.48
666.01	34359.06
666.15	34132.03
666.29	33930.75
666.44	34263.10
666.58	33956.49
666.72	33720.10
666.86	33832.44
667.00	33858.19
667.14	33624.14
667.28	33989.26
667.43	33214.54
667.57	33928.41
667.71	33315.19
667.85	33687.33
667.99	33369.02
668.13	33509.45
668.27	33626.48
668.41	33418.17
668.56	33240.29
668.70	33596.05
668.84	33029.64
668.98	32837.72
669.12	32435.14
669.26	32765.16
669.40	32437.48
669.54	32938.36
669.68	32774.52
669.82	32720.69
669.96	32540.47
670.10	32608.34
670.25	32800.27
670.39	32584.94
670.53	32439.82
670.67	32374.29
670.81	32657.49
670.95	32683.24
671.09	32439.82
671.23	32290.03
671.37	32313.44
671.51	32519.40
671.65	31988.10
671.79	31758.73
671.93	31943.63
672.07	31749.37
672.21	32212.79
672.35	31850.01
672.49	32051.30
672.63	31962.36
672.77	31438.08
672.91	31854.69
673.05	31550.42
673.19	31428.71
673.33	31566.81
673.47	31461.48
673.61	30969.97
673.75	30888.05
673.89	30689.10
674.03	30845.92
674.17	30897.41
674.31	30988.69
674.45	30679.74
674.59	30749.96
674.73	30930.18
674.87	30866.98
675.01	30497.18
675.15	30609.53
675.29	30764.00
675.43	30438.67
675.56	30656.34
675.70	30026.73
675.84	29846.51
675.98	29191.16
676.12	30169.51
676.26	30036.09
676.40	29972.90
676.54	29771.61
676.68	29518.84
676.82	29551.60
676.96	29303.51
677.10	29184.14
677.23	29549.26
677.37	29523.52
677.51	28882.21
677.65	28772.21
677.79	28414.10
677.93	28826.04
678.07	28664.54
678.21	28884.55
678.34	28301.76
678.48	28339.21
678.62	28404.74
678.76	28276.01
678.90	27564.49
679.04	27845.35
679.18	28180.05
679.31	27529.38
679.45	28088.77
679.59	27440.44
679.73	27435.76
679.87	27496.61
680.00	27356.18
680.14	27253.20
680.28	27300.01
680.42	27250.86
680.56	27344.48
680.70	27040.21
680.83	27351.50
680.97	27047.23
681.11	27318.73
681.25	26642.32
681.39	26934.88
681.52	26602.53
681.66	26747.64
681.80	26604.87
681.94	26415.29
682.07	26464.44
682.21	26574.44
682.35	26309.96
682.49	26026.76
682.62	26242.09
682.76	26230.38
682.90	25495.46
683.04	25504.82
683.17	25315.23
683.31	25673.34
683.45	25425.24
683.59	25392.47
683.72	25715.47
683.86	25057.78
684.00	25116.29
684.13	25390.13
684.27	25132.67
684.41	24762.87
684.55	24826.06
684.68	25184.16
684.82	24753.51
684.96	24971.18
685.09	24484.34
685.23	24669.25
685.37	24425.83
685.50	24140.29
685.64	24264.33
685.78	24065.39
685.91	23873.46
686.05	24032.62
686.19	23686.22
686.32	23391.31
686.46	23349.18
686.60	23412.38
686.73	23307.05
686.87	22998.10
687.01	23185.35
687.14	22995.76
687.28	22806.18
687.42	22888.10
687.55	23211.09
687.69	23101.09
687.82	22721.92
687.96	23054.28
688.10	22703.20
688.23	22766.39
688.37	22169.55
688.50	22155.51
688.64	22305.31
688.78	22288.92
688.91	22195.30
689.05	22307.65
689.18	22246.79
689.32	21860.60
689.46	21745.92
689.59	22061.89
689.73	21671.02
689.86	21895.71
690.00	21406.54
690.13	21528.25
690.27	20931.41
690.41	21186.53
690.54	21411.22
690.68	21083.55
690.81	20842.47
690.95	20863.54
691.08	20779.28
691.22	20566.29
691.35	20524.16
691.49	21032.05
691.62	20922.05
691.76	20404.79
691.89	20350.96
692.03	19953.07
692.16	20297.13
692.30	20486.71
692.43	19733.06
692.57	19924.98
692.70	19796.25
692.84	19782.21
692.97	19639.44
693.11	19660.50
693.24	19658.16
693.38	19564.54
693.51	19356.23
693.65	19463.90
693.78	19482.62
693.92	19187.71
694.05	19262.61
694.19	19073.03
694.32	19035.58
694.45	18904.51
694.59	18897.49
694.72	18745.35
694.86	18677.48
694.99	18539.38
695.13	18574.49
695.26	18586.19
695.39	18389.59
695.53	18464.49
695.66	18361.50
695.80	18338.10
695.93	18434.06
696.07	17738.92
696.20	18171.92
696.33	17963.61
696.47	18047.87
696.60	17734.24
696.73	17596.15
696.87	17781.05
697.00	17591.47
697.14	17666.36
697.27	17254.43
697.40	17462.74
697.54	17420.61
697.67	17207.62
697.80	17109.32
697.94	16980.59
698.07	16699.72
698.21	16599.08
698.34	17013.35
698.47	16641.21
698.61	16594.40
698.74	16470.35
698.87	16271.40
699.01	16142.67
699.14	16133.31
699.27	15985.86
699.40	16264.38
699.54	15917.98
699.67	15953.09
699.80	16032.67
699.94	15796.28
700.07	15929.69
700.20	15885.22
700.34	15630.10
700.47	15707.34
700.60	15840.75
700.73	16077.14
700.87	15555.20
701.00	15583.29
701.13	15545.84
701.26	15552.86
701.40	15192.42
701.53	15311.78
701.66	15262.63
701.79	15082.41
701.93	14906.87
702.06	14796.87
702.19	14721.97
702.32	15005.17
702.46	14525.36
702.59	14647.07
702.72	14757.08
702.85	14684.52
702.99	14647.07
703.12	14593.24
703.25	13865.33
703.38	14331.10
703.51	14235.14
703.65	13956.61
703.78	14204.71
703.91	13961.30
704.04	14104.07
704.17	14148.54
704.31	13919.17
704.44	14115.77
704.57	13713.20
704.70	13635.96
704.83	13785.76
704.96	13682.77
705.10	13554.04
705.23	13745.97
>>>>>End Processed Spectral Data<<<<<
