SpectraSuite Data File
++++++++++++++++++++++++++++++++++++
Date: Fri Oct 25 11:34:49 EDT 2013
User: price-jones
Dark Spectrum Present: No
Reference Spectrum Present: No
Number of Sampled Component Spectra: 1
Spectrometers: USB2+H05261
Integration Time (usec): 100000 (USB2+H05261)
Spectra Averaged: 1 (USB2+H05261)
Boxcar Smoothing: 0 (USB2+H05261)
Correct for Electrical Dark: No (USB2+H05261)
Strobe/Lamp Enabled: No (USB2+H05261)
Correct for Detector Non-linearity: No (USB2+H05261)
Correct for Stray Light: No (USB2+H05261)
Number of Pixels in Processed Spectrum: 2048
>>>>>Begin Processed Spectral Data<<<<<
365.73	355.76
365.92	355.76
366.12	355.76
366.32	154.48
366.52	208.31
366.72	238.73
366.91	248.10
367.11	212.99
367.31	126.39
367.51	238.73
367.70	189.58
367.90	217.67
368.10	191.92
368.30	177.88
368.49	184.90
368.69	278.52
368.89	245.76
369.09	173.20
369.28	224.69
369.48	191.92
369.68	187.24
369.87	231.71
370.07	241.08
370.27	255.12
370.47	365.12
370.66	500.87
370.86	484.49
371.06	514.92
371.25	613.22
371.45	449.38
371.65	545.34
371.84	587.47
372.04	566.41
372.24	507.90
372.44	573.43
372.63	624.92
372.83	648.33
373.03	648.33
373.22	585.13
373.42	636.63
373.62	617.90
373.81	528.96
374.01	601.52
374.21	653.01
374.40	648.33
374.60	683.44
374.79	547.69
374.99	596.84
375.19	631.94
375.38	617.90
375.58	650.67
375.78	730.25
375.97	657.69
376.17	697.48
376.37	540.66
376.56	617.90
376.76	678.76
376.95	641.31
377.15	629.60
377.35	678.76
377.54	734.93
377.74	645.99
377.93	720.88
378.13	667.05
378.33	688.12
378.52	727.91
378.72	767.70
378.91	674.07
379.11	718.54
379.31	664.71
379.50	674.07
379.70	622.58
379.89	760.67
380.09	723.23
380.28	690.46
380.48	678.76
380.68	702.16
380.87	758.33
381.07	793.44
381.26	748.97
381.46	734.93
381.65	711.52
381.85	751.31
382.04	718.54
382.24	723.23
382.43	770.04
382.63	786.42
382.83	842.59
383.02	779.40
383.22	800.46
383.41	805.14
383.61	748.97
383.80	770.04
384.00	847.27
384.19	798.12
384.39	858.98
384.58	807.48
384.78	866.00
384.97	791.10
385.17	741.95
385.36	737.27
385.56	819.19
385.75	861.32
385.95	809.83
386.14	866.00
386.34	866.00
386.53	851.96
386.72	823.87
386.92	861.32
387.11	880.04
387.31	877.70
387.50	880.04
387.70	767.70
387.89	823.87
388.09	819.19
388.28	856.64
388.48	917.49
388.67	896.43
388.86	868.34
389.06	875.36
389.25	901.11
389.45	898.77
389.64	966.64
389.84	952.60
390.03	968.98
390.22	987.71
390.42	910.47
390.61	945.58
390.81	896.43
391.00	952.60
391.19	954.94
391.39	985.37
391.58	912.81
391.78	950.26
391.97	1004.09
392.16	936.21
392.36	1086.01
392.55	957.28
392.75	968.98
392.94	994.73
393.13	966.64
393.33	973.66
393.52	1008.77
393.71	978.34
393.91	1149.20
394.10	1057.92
394.29	1114.10
394.49	1050.90
394.68	1039.20
394.88	1034.52
395.07	1121.12
395.26	1057.92
395.46	1109.41
395.65	1139.84
395.84	1093.03
396.04	1088.35
396.23	1139.84
396.42	1097.71
396.62	1181.97
396.81	1137.50
397.00	1153.88
397.19	1132.82
397.39	1224.10
397.58	1282.61
397.77	1203.04
397.97	1231.12
398.16	1205.38
398.35	1249.85
398.55	1198.35
398.74	1315.38
398.93	1303.68
399.12	1193.67
399.32	1280.27
399.51	1320.06
399.70	1289.64
399.90	1188.99
400.09	1277.93
400.28	1336.45
400.47	1268.57
400.67	1327.08
400.86	1291.98
401.05	1451.13
401.24	1331.76
401.44	1385.60
401.63	1448.79
401.82	1331.76
402.01	1376.24
402.21	1357.51
402.40	1486.24
402.59	1418.36
402.78	1427.73
402.97	1437.09
403.17	1441.77
403.36	1441.77
403.55	1455.81
403.74	1577.52
403.93	1570.50
404.13	1476.88
404.32	1591.56
404.51	1519.01
404.70	1607.95
404.89	1629.01
405.09	1673.48
405.28	1621.99
405.47	1596.25
405.66	1706.25
405.85	1661.78
406.05	1643.06
406.24	1596.25
406.43	1682.85
406.62	1661.78
406.81	1769.44
407.00	1643.06
407.20	1708.59
407.39	1666.46
407.58	1701.57
407.77	1823.28
407.96	1788.17
408.15	1877.11
408.34	1769.44
408.54	1795.19
408.73	1806.89
408.92	1797.53
409.11	1825.62
409.30	1816.26
409.49	1865.41
409.68	1914.56
409.87	1893.49
410.07	2005.84
410.26	1872.43
410.45	1987.11
410.64	2045.63
410.83	1947.33
411.02	1973.07
411.21	2022.22
411.40	2059.67
411.59	2045.63
411.78	2008.18
411.98	2101.80
412.17	2216.49
412.36	2080.74
412.55	2113.50
412.74	2181.38
412.93	2202.44
413.12	2230.53
413.31	2221.17
413.50	2321.81
413.69	2284.36
413.88	2279.68
414.07	2387.35
414.26	2427.14
414.45	2347.56
414.64	2392.03
414.83	2445.86
415.02	2480.97
415.22	2579.27
415.41	2630.76
415.60	2464.58
415.79	2499.69
415.98	2677.57
416.17	2537.14
416.36	2511.39
416.55	2665.87
416.74	2757.15
416.93	2651.83
417.12	2771.19
417.31	2700.98
417.50	2693.96
417.69	2862.48
417.88	2885.88
418.07	2766.51
418.26	2782.90
418.45	2829.71
418.64	2902.26
418.83	2843.75
419.02	2820.35
419.21	2993.55
419.39	2909.29
419.58	2883.54
419.77	2932.69
419.96	3047.38
420.15	2935.03
420.34	2984.18
420.53	3070.78
420.72	3124.62
420.91	2970.14
421.10	2991.20
421.29	3136.32
421.48	3103.55
421.67	3047.38
421.86	3084.83
422.05	3169.09
422.24	3096.53
422.43	3070.78
422.61	3133.98
422.80	3220.58
422.99	3295.47
423.18	3187.81
423.37	3204.19
423.56	3192.49
423.75	3229.94
423.94	3187.81
424.13	3070.78
424.32	3084.83
424.50	3311.86
424.69	3517.83
424.88	3328.24
425.07	3213.56
425.26	3248.66
425.45	3239.30
425.64	3272.07
425.83	3239.30
426.01	3232.28
426.20	3351.65
426.39	3372.71
426.58	3304.84
426.77	3272.07
426.96	3393.78
427.15	3426.54
427.33	3272.07
427.52	3323.56
427.71	3412.50
427.90	3274.41
428.09	3405.48
428.28	3353.99
428.46	3426.54
428.65	3569.32
428.84	3644.21
429.03	3648.90
429.22	3557.61
429.40	3609.11
429.59	3496.76
429.78	3548.25
429.97	3562.30
430.16	3543.57
430.34	3712.09
430.53	3637.19
430.72	3819.75
430.91	3833.80
431.10	3597.40
431.28	3517.83
431.47	3843.16
431.66	3758.90
431.85	3772.94
432.03	3840.82
432.22	3967.21
432.41	3777.62
432.60	3857.20
432.79	3756.56
432.97	3873.59
433.16	3948.48
433.35	3889.97
433.54	3985.93
433.72	4091.26
433.91	4037.42
434.10	4021.04
434.28	3838.48
434.47	4049.13
434.66	4072.53
434.85	4095.94
435.03	4140.41
435.22	4081.89
435.41	4163.81
435.59	4063.17
435.78	4290.20
435.97	4210.62
436.16	4124.02
436.34	4187.22
436.53	4241.05
436.72	4353.40
436.90	4124.02
437.09	4184.88
437.28	4187.22
437.46	4355.74
437.65	4306.59
437.84	4493.83
438.02	4294.88
438.21	4397.87
438.40	4287.86
438.58	4442.34
438.77	4662.35
438.96	4486.81
439.14	4681.07
439.33	4624.90
439.52	4692.77
439.70	4634.26
439.89	4833.21
440.08	4887.04
440.26	4667.03
440.45	4770.01
440.63	4851.93
440.82	5029.81
441.01	4826.18
441.19	4823.84
441.38	4912.78
441.57	5013.43
441.75	5006.41
441.94	5006.41
442.12	5071.94
442.31	5041.51
442.50	5158.54
442.68	5177.26
442.87	5102.37
443.05	5093.01
443.24	5341.10
443.43	5125.77
443.61	5095.35
443.80	5291.95
443.98	5048.54
444.17	5020.45
444.35	5334.08
444.54	5376.21
444.73	5446.43
444.91	5261.52
445.10	5568.13
445.28	5437.06
445.47	5369.19
445.65	5416.00
445.84	5310.68
446.02	5392.59
446.21	5357.49
446.39	5373.87
446.58	5420.68
446.77	5565.79
446.95	5291.95
447.14	5371.53
447.32	5544.73
447.51	5406.64
447.69	5490.90
447.88	5453.45
448.06	5430.04
448.25	5392.59
448.43	5427.70
448.62	5453.45
448.80	5469.83
448.99	5549.41
449.17	5579.84
449.36	5626.65
449.54	5561.11
449.73	5685.16
449.91	5746.02
450.10	5818.57
450.28	5781.12
450.46	5975.39
450.65	5738.99
450.83	5860.70
451.02	5776.44
451.20	5832.62
451.39	5746.02
451.57	5944.96
451.76	5734.31
451.94	5870.06
452.13	5846.66
452.31	5951.98
452.49	5834.96
452.68	5902.83
452.86	5940.28
453.05	5975.39
453.23	5954.32
453.42	6008.16
453.60	5888.79
453.78	6097.10
453.97	5816.23
454.15	5968.37
454.34	6101.78
454.52	6279.66
454.70	6134.54
454.89	6307.74
455.07	6080.71
455.26	6129.86
455.44	6403.71
455.62	6256.25
455.81	6232.85
455.99	6370.94
456.17	6263.27
456.36	6417.75
456.54	6333.49
456.73	6523.07
456.91	6595.63
457.09	6700.95
457.28	6684.57
457.46	6579.25
457.64	6768.83
457.83	6637.76
458.01	6649.46
458.19	6750.10
458.38	6658.82
458.56	6799.26
458.74	6565.20
458.93	6731.38
459.11	6817.98
459.29	6803.94
459.48	6733.72
459.66	6696.27
459.84	7171.40
460.03	7023.95
460.21	6768.83
460.39	6909.26
460.57	6942.03
460.76	7019.27
460.94	7119.91
461.12	6923.30
461.31	7030.97
461.49	7037.99
461.67	7077.78
461.85	7077.78
462.04	7187.79
462.22	7290.77
462.40	7255.66
462.59	7225.23
462.77	7218.21
462.95	7454.61
463.13	7393.75
463.32	7192.47
463.50	7372.69
463.68	7389.07
463.86	7360.98
464.05	7424.18
464.23	7258.00
464.41	7449.93
464.59	7468.65
464.78	7583.34
464.96	7478.01
465.14	7618.44
465.32	7559.93
465.50	7613.76
465.69	7672.28
465.87	7791.64
466.05	7611.42
466.23	7826.75
466.41	7665.25
466.60	7903.99
466.78	7466.31
466.96	7796.32
467.14	7805.69
467.32	7882.92
467.51	7932.08
467.69	7709.72
467.87	7915.69
468.05	7920.37
468.23	7826.75
468.41	7765.90
468.60	7829.09
468.78	7927.39
468.96	7985.91
469.14	8166.13
469.32	8152.09
469.50	7978.89
469.69	8051.44
469.87	8140.38
470.05	8116.98
470.23	8339.33
470.41	8149.75
470.59	8383.80
470.77	8294.86
470.95	8367.42
471.14	8713.81
471.32	8435.29
471.50	8580.40
471.68	8547.64
471.86	8592.11
472.04	8702.11
472.22	8702.11
472.40	8596.79
472.58	8622.53
472.77	8840.20
472.95	8879.99
473.13	9118.73
473.31	8734.88
473.49	8746.58
473.67	8828.50
473.85	8980.64
474.03	9397.25
474.21	9303.63
474.39	9149.15
474.57	9121.07
474.75	9565.77
474.93	9369.16
475.12	9394.91
475.30	9530.66
475.48	9231.07
475.66	9659.39
475.84	9303.63
476.02	9696.84
476.20	9652.37
476.38	9593.86
476.56	10001.11
476.74	9912.17
476.92	9982.38
477.10	9848.97
477.28	9961.32
477.46	9989.41
477.64	9996.43
477.82	10228.14
478.00	10677.52
478.18	10658.80
478.36	10490.28
478.54	10668.16
478.72	10567.52
478.90	10740.72
479.08	10892.85
479.26	10862.43
479.44	11061.37
479.62	11007.54
479.80	11220.53
479.98	11178.40
480.16	11342.24
480.34	11405.43
480.52	11637.14
480.70	11370.32
480.88	11515.44
481.06	11683.95
481.24	11714.38
481.41	11707.36
481.59	11925.03
481.77	11997.59
481.95	11896.94
482.13	12311.22
482.31	12140.36
482.49	12341.64
482.67	12248.02
482.85	12706.77
483.03	12688.04
483.21	12760.60
483.39	13013.38
483.57	13146.79
483.74	13118.70
483.92	12943.16
484.10	13191.26
484.28	13483.83
484.46	13633.62
484.64	13612.56
484.82	13769.37
485.00	13830.23
485.18	14001.08
485.35	14171.94
485.53	13902.78
485.71	14005.77
485.89	14525.36
486.07	14267.91
486.25	14548.77
486.43	14450.47
486.61	14693.88
486.78	15005.17
486.96	14754.74
487.14	15194.76
487.32	15161.99
487.50	15438.17
487.68	15524.77
487.85	15508.39
488.03	15857.13
488.21	16016.29
488.39	15896.92
488.57	16049.05
488.75	15859.47
488.92	16505.46
489.10	16648.23
489.28	16540.57
489.46	16271.40
489.64	16842.50
489.81	17291.88
489.99	16795.68
490.17	17179.53
490.35	17139.74
490.53	17504.87
490.70	17434.65
490.88	17202.94
491.06	17844.24
491.24	17579.76
491.41	17949.57
491.59	18200.01
491.77	18052.55
491.95	17888.71
492.13	18520.66
492.30	18291.29
492.48	18436.40
492.66	18515.98
492.84	18820.25
493.01	19297.72
493.19	18988.77
493.37	19049.62
493.54	19124.52
493.72	19630.07
493.90	19707.31
494.08	19405.38
494.25	19838.38
494.43	19644.12
494.61	19641.78
494.79	20013.92
494.96	19857.10
495.14	20084.14
495.32	20273.72
495.49	20320.53
495.67	20465.64
495.85	20568.63
496.02	20718.42
496.20	20973.54
496.38	20952.48
496.55	20877.58
496.73	21596.12
496.91	21291.85
497.09	21315.26
497.26	21429.94
497.44	21617.19
497.62	21790.39
497.79	22040.82
497.97	21916.78
498.14	22047.85
498.32	22403.61
498.50	22059.55
498.67	22518.29
498.85	22527.66
499.03	22794.48
499.20	22712.56
499.38	22979.38
499.56	22728.94
499.73	22841.29
499.91	22934.91
500.08	23147.90
500.26	23080.02
500.44	23257.90
500.61	23243.86
500.79	23405.36
500.97	23704.95
501.14	23908.57
501.32	23681.54
501.49	23695.58
501.67	23775.16
501.84	23714.31
502.02	24119.22
502.20	24044.32
502.37	24247.95
502.55	24217.52
502.72	24151.99
502.90	24315.83
503.07	24339.23
503.25	24709.04
503.43	24315.83
503.60	24353.27
503.78	25001.60
503.95	25017.99
504.13	25020.33
504.30	24964.15
504.48	25006.28
504.65	24882.24
504.83	25247.36
505.01	25336.30
505.18	25781.00
505.36	25542.27
505.53	25441.62
505.71	25961.22
505.88	26054.84
506.06	25624.18
506.23	26176.55
506.41	25853.56
506.58	26136.76
506.76	26293.58
506.93	26134.42
507.11	26668.06
507.28	26324.01
507.46	26197.62
507.63	26668.06
507.81	26602.53
507.98	26614.23
508.16	26387.20
508.33	26878.71
508.50	26766.37
508.68	27110.43
508.85	27473.21
509.03	27480.23
509.20	27232.13
509.38	27323.41
509.55	27686.20
509.73	27597.26
509.90	27513.00
510.08	27840.67
510.25	27824.29
510.42	27878.12
510.60	28039.62
510.77	28205.80
510.95	28318.14
511.12	27814.93
511.30	27955.36
511.47	28348.57
511.64	27697.90
511.82	28430.49
511.99	28137.92
512.17	28402.40
512.34	28704.33
512.51	28716.03
512.69	29001.58
512.86	28655.18
513.04	29116.26
513.21	29174.78
513.38	29308.19
513.56	29095.20
513.73	29010.94
513.90	29378.40
514.08	29418.19
514.25	29357.34
514.43	29975.24
514.60	29816.08
514.77	29553.94
514.95	29755.23
515.12	29577.35
515.29	29970.56
515.47	30295.89
515.64	30235.04
515.81	30015.03
515.99	30110.99
516.16	30618.89
516.33	30160.14
516.51	30595.48
516.68	30199.93
516.85	30567.40
517.03	30625.91
517.20	31012.10
517.37	30604.84
517.54	31012.10
517.72	30991.03
517.89	30972.31
518.06	30948.90
518.24	31267.22
518.41	30888.05
518.58	31192.32
518.75	31173.60
518.93	31402.97
519.10	31456.80
519.27	31246.15
519.45	31447.44
519.62	31400.63
519.79	31599.57
519.96	31377.22
520.14	31604.25
520.31	31850.01
520.48	32079.38
520.65	32088.74
520.83	32055.98
521.00	32411.74
521.17	32203.43
521.34	31910.86
521.52	32503.02
521.69	32259.60
521.86	32514.72
522.03	32723.03
522.20	32659.84
522.38	33125.60
522.55	33006.23
522.72	32730.05
522.89	33053.05
523.07	33240.29
523.24	32957.08
523.41	33357.32
523.58	32783.88
523.75	33600.73
523.92	33158.37
524.10	33399.44
524.27	33425.19
524.44	33699.03
524.61	33874.57
524.78	33996.28
524.96	33647.54
525.13	33944.79
525.30	33958.83
525.47	33841.81
525.64	34199.91
525.81	34078.20
525.98	33940.11
526.16	34078.20
526.33	34115.65
526.50	34089.90
526.67	34000.96
526.84	34469.07
527.01	34558.01
527.18	34265.44
527.36	34993.35
527.53	34920.79
527.70	34719.51
527.87	34906.75
528.04	34642.27
528.21	34782.70
528.38	35335.07
528.55	35323.36
528.72	34663.33
528.89	35360.81
529.07	34873.98
529.24	35164.21
529.41	35442.73
529.58	35344.43
529.75	35342.09
529.92	35482.52
530.09	35442.73
530.26	35269.53
530.43	35531.67
530.60	34890.37
530.77	35173.57
530.94	35613.59
531.11	35470.82
531.28	35447.41
531.46	35627.63
531.63	35545.72
531.80	35824.24
531.97	35950.63
532.14	36060.63
532.31	35597.21
532.48	36018.50
532.65	36229.15
532.82	36409.37
532.99	36212.77
533.16	35983.40
533.33	36388.31
533.50	36137.87
533.67	36479.59
533.84	36290.01
534.01	36535.76
534.18	36044.25
534.35	37251.97
534.52	36954.72
534.69	37057.70
534.86	36863.44
535.03	36711.30
535.20	37067.06
535.37	37443.89
535.54	37507.08
535.71	37165.37
535.88	37394.74
536.05	37490.70
536.22	37841.78
536.38	36905.57
536.55	37270.69
536.72	37291.76
536.89	37266.01
537.06	37310.48
537.23	37645.18
537.40	37443.89
537.57	37221.54
537.74	37329.20
537.91	37446.23
538.08	37972.85
538.25	37364.31
538.42	37949.45
538.59	37963.49
538.75	37691.99
538.92	38375.42
539.09	37926.04
539.26	37881.57
539.43	37841.78
539.60	38499.47
539.77	37972.85
539.94	38483.09
540.11	38375.42
540.28	38122.65
540.44	38316.91
540.61	38485.43
540.78	38237.33
540.95	38841.19
541.12	38501.81
541.29	38607.14
541.46	38462.02
541.62	38466.70
541.79	38667.99
541.96	38714.80
542.13	38405.85
542.30	38391.81
542.47	38675.01
542.63	39030.77
542.80	39110.35
542.97	39110.35
543.14	39388.88
543.31	39049.50
543.48	39475.48
543.64	39447.39
543.81	39950.60
543.98	39667.40
544.15	39295.25
544.32	39723.57
544.48	40156.57
544.65	39934.22
544.82	39880.39
544.99	39505.90
545.16	39391.22
545.32	39772.72
545.49	40048.91
545.66	40561.48
545.83	39541.01
546.00	40133.17
546.16	39948.26
546.33	39639.31
546.50	39896.77
546.67	40680.85
546.83	39782.09
547.00	40212.74
547.17	39969.33
547.34	40076.99
547.50	40268.92
547.67	40456.16
547.84	40395.31
548.00	40765.11
548.17	40540.42
548.34	40809.58
548.51	40591.91
548.67	40575.53
548.84	41067.04
549.01	40505.31
549.18	40545.10
549.34	40919.59
549.51	40919.59
549.68	40886.82
549.84	40879.80
550.01	40760.43
550.18	40650.42
550.34	40917.25
550.51	40982.78
550.68	41324.50
550.84	40849.37
551.01	41228.54
551.18	41263.64
551.34	41268.33
551.51	41214.49
551.68	41092.79
551.84	41237.90
552.01	41053.00
552.18	41336.20
552.34	41125.55
552.51	41392.37
552.68	41326.84
552.84	41586.64
553.01	41553.87
553.18	41404.08
553.34	41680.26
553.51	40994.48
553.67	41799.63
553.84	42066.45
554.01	41694.30
554.17	41731.75
554.34	42373.06
554.51	41823.03
554.67	41975.17
554.84	42033.68
555.00	42026.66
555.17	41713.03
555.33	42223.26
555.50	42398.80
555.67	41949.42
555.83	42047.72
556.00	42452.64
556.16	42649.24
556.33	42408.17
556.50	42476.04
556.66	42220.92
556.83	41724.73
556.99	42663.28
557.16	42693.71
557.32	42766.27
557.49	42323.91
557.65	42075.81
557.82	42298.16
557.98	42454.98
558.15	42359.02
558.32	42429.23
558.48	42309.86
558.65	42792.01
558.81	42466.68
558.98	42534.56
559.14	42543.92
559.31	42487.74
559.47	42607.11
559.64	42595.41
559.80	42878.61
559.97	42925.42
560.13	42436.25
560.30	42801.38
560.46	43105.65
560.63	43225.01
560.79	43054.15
560.96	43112.67
561.12	42887.98
561.29	42621.16
561.45	43264.80
561.61	43126.71
561.78	42483.06
561.94	43255.44
562.11	42995.64
562.27	43337.36
562.44	43419.28
562.60	43325.66
562.77	43480.13
562.93	43105.65
563.10	43192.25
563.26	43143.09
563.42	43402.89
563.59	43077.56
563.75	43599.50
563.92	43459.07
564.08	43323.32
564.24	43447.36
564.41	43124.37
564.57	43578.43
564.74	43732.91
564.90	43803.13
565.07	43220.33
565.23	43257.78
565.39	43878.02
565.56	43220.33
565.72	43721.21
565.88	43264.80
566.05	43510.56
566.21	43402.89
566.38	43468.43
566.54	43517.58
566.70	43735.25
566.87	43943.56
567.03	43320.98
567.19	43779.72
567.36	43655.67
567.52	43765.68
567.68	43971.64
567.85	43723.55
568.01	43739.93
568.17	43882.70
568.34	43943.56
568.50	44069.95
568.66	43861.64
568.83	44016.11
568.99	43449.70
569.15	43592.48
569.32	43782.06
569.48	43349.06
569.64	44041.86
569.81	44128.46
569.97	44091.01
570.13	44100.37
570.30	43571.41
570.46	43892.07
570.62	44137.82
570.78	43845.26
570.95	43590.14
571.11	44388.26
571.27	43938.88
571.43	43871.00
571.60	43924.83
571.76	43817.17
571.92	44418.69
572.09	43924.83
572.25	44093.35
572.41	43819.51
572.57	43863.98
572.74	44493.58
572.90	44289.96
573.06	44112.08
573.22	44170.59
573.38	43978.67
573.55	43770.36
573.71	44392.94
573.87	44453.79
574.03	44034.84
574.20	44151.87
574.36	44273.57
574.52	44156.55
574.68	44474.86
574.84	44170.59
575.01	44582.52
575.17	44477.20
575.33	44563.80
575.49	44109.74
575.65	44238.47
575.82	44531.03
575.98	44119.10
576.14	44327.41
576.30	44676.15
576.46	44261.87
576.62	44062.93
576.79	44460.82
576.95	44203.36
577.11	44268.89
577.27	44786.15
577.43	44137.82
577.59	44584.86
577.75	44226.76
577.92	43812.49
578.08	44294.64
578.24	44505.29
578.40	44832.96
578.56	44388.26
578.72	44692.53
578.88	44823.60
579.04	44573.16
579.21	44348.47
579.37	44650.40
579.53	44533.37
579.69	44470.18
579.85	44067.61
580.01	44236.12
580.17	44378.90
580.33	44720.62
580.49	44568.48
580.65	44753.38
580.82	44467.84
580.98	44252.51
581.14	44182.29
581.30	44655.08
581.46	44083.99
581.62	44423.37
581.78	44294.64
581.94	44514.65
582.10	44978.07
582.26	44102.71
582.42	44823.60
582.58	44453.79
582.74	44512.31
582.90	44835.30
583.06	44847.00
583.22	44573.16
583.38	45160.64
583.54	44535.71
583.70	44540.39
583.86	44521.67
584.02	44795.51
584.18	45347.88
584.34	44746.36
584.50	44811.90
584.66	44755.72
584.82	44582.52
584.98	44706.57
585.14	44769.77
585.30	44446.77
585.46	44636.36
585.62	44245.49
585.78	44734.66
585.94	44619.97
586.10	44519.33
586.26	44397.62
586.42	44575.50
586.58	45132.55
586.74	44767.43
586.90	44509.97
587.06	44676.15
587.22	44978.07
587.38	44687.85
587.54	44809.56
587.70	45088.08
587.86	45191.06
588.02	44437.41
588.18	44397.62
588.34	45083.40
588.49	44837.64
588.65	44851.69
588.81	44404.64
588.97	44919.56
589.13	44687.85
589.29	44669.12
589.45	44835.30
589.61	45153.62
589.77	45024.89
589.93	44641.04
590.08	45179.36
590.24	45462.57
590.40	45303.41
590.56	45354.90
590.72	44847.00
590.88	45617.04
591.04	44861.05
591.20	45521.08
591.35	45074.04
591.51	46005.57
591.67	44975.73
591.83	45361.92
591.99	45118.51
592.15	44961.69
592.31	44938.29
592.46	44966.37
592.62	45045.95
592.78	45469.59
592.94	45624.06
593.10	45532.78
593.26	45490.65
593.41	44872.75
593.57	45406.39
593.73	45275.32
593.89	45574.91
594.05	45806.62
594.20	45478.95
594.36	45455.54
594.52	45584.27
594.68	45485.97
594.84	45132.55
594.99	45467.25
595.15	45298.73
595.31	45144.25
595.47	45635.77
595.62	45237.87
595.78	45125.53
595.94	45291.71
596.10	45516.40
596.25	45963.44
596.41	45336.18
596.57	45322.13
596.73	45804.28
596.88	45502.35
597.04	45235.53
597.20	45230.85
597.36	45270.64
597.51	45275.32
597.67	45219.15
597.83	45167.66
597.99	45900.25
598.14	44987.44
598.30	45258.94
598.46	45350.22
598.61	45715.34
598.77	45785.56
598.93	45794.92
599.09	45820.67
599.24	45801.94
599.40	45598.32
599.56	45088.08
599.71	45801.94
599.87	46150.68
600.03	45799.60
600.18	45977.48
600.34	45521.08
600.50	45670.87
600.65	45558.53
600.81	45958.76
600.97	45865.14
601.12	45546.82
601.28	45483.63
601.44	45401.71
601.59	45621.72
601.75	45591.30
601.91	45682.58
602.06	45680.24
602.22	45668.53
602.37	45818.33
602.53	45755.13
602.69	46129.62
602.84	45432.14
603.00	45333.84
603.16	45975.14
603.31	45577.25
603.47	45595.98
603.62	45366.60
603.78	45832.37
603.94	45544.48
604.09	45785.56
604.25	45565.55
604.40	45380.65
604.56	45979.82
604.71	46075.79
604.87	45394.69
605.03	45647.47
605.18	45736.41
605.34	45883.86
605.49	45378.31
605.65	45762.15
605.80	45324.47
605.96	45607.68
606.12	45563.21
606.27	45294.05
606.43	45303.41
606.58	45544.48
606.74	45689.60
606.89	45701.30
607.05	45839.39
607.20	45780.88
607.36	45097.44
607.51	45272.98
607.67	45272.98
607.82	45184.04
607.98	45361.92
608.13	45546.82
608.29	45375.97
608.44	45429.80
608.60	44786.15
608.75	45249.58
608.91	45453.20
609.06	45001.48
609.22	45315.11
609.37	45165.32
609.53	45411.07
609.68	45427.46
609.84	45029.57
609.99	45170.00
610.15	45221.49
610.30	45188.72
610.46	45385.33
610.61	45127.87
610.76	45191.06
610.92	45078.72
611.07	45155.96
611.23	44617.63
611.38	45315.11
611.54	44973.39
611.69	45153.62
611.84	44994.46
612.00	44643.38
612.15	44842.32
612.31	45214.47
612.46	44896.16
612.62	45071.70
612.77	45137.23
612.92	45394.69
613.08	45265.96
613.23	45221.49
613.39	45057.65
613.54	44680.83
613.69	45574.91
613.85	45083.40
614.00	44662.10
614.15	45392.35
614.31	44837.64
614.46	44685.51
614.62	44261.87
614.77	45022.54
614.92	44755.72
615.08	44828.28
615.23	44718.28
615.38	45052.97
615.54	44964.03
615.69	44973.39
615.84	44917.22
616.00	44905.52
616.15	44797.85
616.30	44875.09
616.46	44573.16
616.61	44446.77
616.76	44512.31
616.92	44533.37
617.07	44542.74
617.22	44470.18
617.37	44203.36
617.53	44304.00
617.68	44542.74
617.83	44458.48
617.99	44947.65
618.14	44903.18
618.29	44626.99
618.45	44177.61
618.60	44643.38
618.75	43978.67
618.90	44025.48
619.06	44699.55
619.21	44285.28
619.36	44622.31
619.51	44198.68
619.67	43943.56
619.82	44451.45
619.97	44446.77
620.12	44561.46
620.28	44086.33
620.43	44481.88
620.58	44060.58
620.73	44430.39
620.89	44832.96
621.04	44467.84
621.19	44203.36
621.34	44034.84
621.49	43786.74
621.65	44062.93
621.80	44191.65
621.95	43707.16
622.10	44044.20
622.25	43894.41
622.41	44231.44
622.56	44039.52
622.71	43842.92
622.86	43915.47
623.01	44067.61
623.16	44009.09
623.32	43840.57
623.47	43885.04
623.62	43356.08
623.77	44023.14
623.92	43983.35
624.07	43938.88
624.23	44074.63
624.38	43917.81
624.53	43363.11
624.68	43508.22
624.83	43285.87
624.98	43973.98
625.13	43115.01
625.29	43817.17
625.44	43512.90
625.59	43522.26
625.74	43526.94
625.89	43227.35
626.04	43281.19
626.19	43288.21
626.34	43580.78
626.49	43290.55
626.65	42988.62
626.80	43194.59
626.95	42887.98
627.10	42784.99
627.25	43353.74
627.40	43292.89
627.55	43246.08
627.70	43519.92
627.85	43360.76
628.00	42904.36
628.15	42927.77
628.30	42520.51
628.45	42749.88
628.60	42717.12
628.76	43117.35
628.91	42513.49
629.06	42740.52
629.21	42560.30
629.36	42019.64
629.51	42447.96
629.66	43005.00
629.81	42560.30
629.96	42424.55
630.11	42618.81
630.26	42483.06
630.41	42920.74
630.56	42677.33
630.71	42672.65
630.86	42433.91
631.01	42677.33
631.16	42464.34
631.31	42609.45
631.46	42487.74
631.61	42375.40
631.76	42609.45
631.91	42426.89
632.06	42962.87
632.21	42983.94
632.36	43112.67
632.51	42199.86
632.66	42728.82
632.81	42045.38
632.96	42244.33
633.10	42525.19
633.25	41989.21
633.40	42316.89
633.55	42635.20
633.70	42604.77
633.85	41766.86
634.00	42059.43
634.15	42232.63
634.30	41909.63
634.45	41666.22
634.60	41563.23
634.75	42637.54
634.90	41689.62
635.05	42024.32
635.19	41914.31
635.34	42169.43
635.49	41441.53
635.64	41687.28
635.79	42127.30
635.94	42167.09
636.09	42052.41
636.24	41666.22
636.39	41546.85
636.53	41942.40
636.68	41631.11
636.83	41645.15
636.98	41329.18
637.13	41165.34
637.28	41298.75
637.43	41677.92
637.57	41591.32
637.72	41127.89
637.87	41464.93
638.02	41546.85
638.17	41397.06
638.32	41375.99
638.46	41280.03
638.61	41029.59
638.76	41343.22
638.91	41577.28
639.06	41198.11
639.20	41144.28
639.35	41013.21
639.50	40727.66
639.65	41088.10
639.80	41277.69
639.94	41277.69
640.09	41317.48
640.24	41291.73
640.39	40392.97
640.54	40657.45
640.68	40804.90
640.83	41179.39
640.98	40849.37
641.13	40751.07
641.27	41010.87
641.42	41118.53
641.57	40701.92
641.72	40741.71
641.86	40680.85
642.01	40692.55
642.16	40942.99
642.31	40374.24
642.45	40676.17
642.60	40685.53
642.75	40460.84
642.90	40685.53
643.04	40678.51
643.19	40601.27
643.34	40690.21
643.48	40371.90
643.63	39974.01
643.78	40509.99
643.93	40299.34
644.07	40521.69
644.22	40381.26
644.37	40648.08
644.51	40591.91
644.66	40596.59
644.81	40238.49
644.95	40821.28
645.10	40179.98
645.25	40367.22
645.39	40388.28
645.54	39957.63
645.69	39917.84
645.83	39608.89
645.98	40247.85
646.13	39959.97
646.27	40257.21
646.42	39854.64
646.57	40177.64
646.71	40179.98
646.86	40566.16
647.00	40430.41
647.15	40109.76
647.30	40360.20
647.44	39852.30
647.59	39913.16
647.74	39597.18
647.88	39924.86
648.03	39674.42
648.17	40215.08
648.32	40418.71
648.47	40156.57
648.61	40147.21
648.76	39892.09
648.90	39924.86
649.05	39438.03
649.20	39765.70
649.34	39655.70
649.49	40034.86
649.63	39835.92
649.78	39559.73
649.92	39824.22
650.07	39604.20
650.21	39735.27
650.36	40030.18
650.51	39498.88
650.65	39959.97
650.80	39545.69
650.94	39735.27
651.09	39522.29
651.23	38855.23
651.38	38667.99
651.52	39175.89
651.67	38689.06
651.81	39805.49
651.96	39063.54
652.10	38799.06
652.25	38712.46
652.39	39339.72
652.54	39606.55
652.68	38925.45
652.83	39257.81
652.97	39203.97
653.12	38941.83
653.26	39009.71
653.41	39159.50
653.55	39321.00
653.70	39026.09
653.84	39440.37
653.99	39012.05
654.13	39072.90
654.27	38560.33
654.42	38944.17
654.56	38916.09
654.71	38602.46
654.85	38953.54
655.00	39030.77
655.14	38670.33
655.29	38948.85
655.43	39210.99
655.57	38464.36
655.72	38305.21
655.86	38555.64
656.01	38124.99
656.15	37986.89
656.30	38202.22
656.44	38459.68
656.58	38745.23
656.73	38864.60
656.87	38279.46
657.01	38160.09
657.16	38106.26
657.30	38579.05
657.45	38447.98
657.59	38066.47
657.73	37926.04
657.88	38080.52
658.02	38462.02
658.16	38389.47
658.31	38169.46
658.45	38199.88
658.60	37764.54
658.74	38092.22
658.88	38150.73
659.03	38033.71
659.17	37909.66
659.31	37729.44
659.46	37467.30
659.60	38068.81
659.74	37907.32
659.89	37205.16
660.03	37425.17
660.17	37521.13
660.32	37324.52
660.46	37277.71
660.60	37261.33
660.74	37294.10
660.89	37350.27
661.03	36882.16
661.17	37181.75
661.32	37078.77
661.46	37481.34
661.60	36772.16
661.74	37046.00
661.89	37141.96
662.03	36975.78
662.17	36680.88
662.31	36678.54
662.46	37132.60
662.60	36385.97
662.74	36128.51
662.88	36673.85
663.03	36481.93
663.17	36376.61
663.31	36428.10
663.45	36254.90
663.60	36484.27
663.74	36701.94
663.88	36390.65
664.02	36847.05
664.17	36463.21
664.31	36060.63
664.45	35950.63
664.59	36093.40
664.73	35875.73
664.88	35990.42
665.02	35723.60
665.16	35454.44
665.30	35754.02
665.44	35920.20
665.59	35859.35
665.73	36058.29
665.87	35466.14
666.01	35594.87
666.15	35697.85
666.29	35395.92
666.44	35552.74
666.58	35431.03
666.72	35182.93
666.86	35201.66
667.00	35578.48
667.14	35086.97
667.28	35255.49
667.43	35012.07
667.57	34998.03
667.71	35091.65
667.85	35290.60
667.99	35016.75
668.13	34855.26
668.27	34342.68
668.41	34644.61
668.56	34150.76
668.70	34373.11
668.84	34665.67
668.98	34188.21
669.12	34246.72
669.26	34073.52
669.40	34527.58
669.54	34419.92
669.68	34555.67
669.82	33783.29
669.96	33394.76
670.10	33724.78
670.25	34094.58
670.39	33549.24
670.53	33769.25
670.67	33638.18
670.81	34057.14
670.95	33982.24
671.09	33472.00
671.23	33752.87
671.37	33546.90
671.51	33612.43
671.65	33434.55
671.79	33111.56
671.93	33273.06
672.07	33738.82
672.21	33179.43
672.35	33244.97
672.49	32912.61
672.63	33273.06
672.77	32538.13
672.91	32542.81
673.05	32634.09
673.19	32430.46
673.33	32566.21
673.47	32355.57
673.61	32463.23
673.75	32332.16
673.89	32559.19
674.03	31880.44
674.17	32016.19
674.31	31866.39
674.45	31524.68
674.59	31789.16
674.73	31747.03
674.87	31304.67
675.01	31166.57
675.15	31206.36
675.29	31363.18
675.43	30801.45
675.56	31342.11
675.70	31417.01
675.84	31126.78
675.98	30412.92
676.12	31131.47
676.26	31234.45
676.40	30668.04
676.54	30576.76
676.68	30595.48
676.82	30342.70
676.96	30340.36
677.10	30342.70
677.23	30267.81
677.37	30080.56
677.51	30588.46
677.65	29778.64
677.79	29898.00
677.93	29743.53
678.07	29324.57
678.21	29502.45
678.34	29179.46
678.48	29137.33
678.62	29184.14
678.76	29324.57
678.90	29413.51
679.04	29247.33
679.18	29406.49
679.31	28884.55
679.45	28875.19
679.59	28554.54
679.73	29003.92
679.87	28620.07
680.00	28694.97
680.14	28084.09
680.28	28493.68
680.42	28229.20
680.56	28133.24
680.70	28081.75
680.83	27953.02
680.97	27620.66
681.11	27885.14
681.25	27407.67
681.39	27466.19
681.52	27133.83
681.66	27028.51
681.80	26920.84
681.94	26661.04
682.07	26532.31
682.21	26579.12
682.35	26951.27
682.49	26951.27
682.62	26644.66
682.76	26607.21
682.90	26794.45
683.04	26349.75
683.17	26185.91
683.31	26476.14
683.45	26022.08
683.59	25869.94
683.72	25652.27
683.86	25923.77
684.00	25706.10
684.13	25525.88
684.27	25647.59
684.41	25671.00
684.55	24957.13
684.68	25263.74
684.82	25158.42
684.96	24961.81
685.09	24950.11
685.23	24889.26
685.37	25385.45
685.50	25195.87
685.64	25240.34
685.78	24692.65
685.91	24482.00
686.05	24159.01
686.19	23866.44
686.32	24222.20
686.46	23669.84
686.60	24039.64
686.73	23791.55
686.87	23821.97
687.01	23906.23
687.14	24266.67
687.28	23601.96
687.42	23997.51
687.55	23824.31
687.69	23510.68
687.82	23337.48
687.96	23264.92
688.10	23503.66
688.23	23187.69
688.37	23150.24
688.50	23262.58
688.64	23068.32
688.78	22838.95
688.91	22319.35
689.05	22757.03
689.18	22588.51
689.32	22099.34
689.46	22120.40
689.59	22246.79
689.73	22146.15
689.86	22188.28
690.00	22209.34
690.13	21916.78
690.27	21537.61
690.41	21671.02
690.54	21820.81
690.68	21266.11
690.81	21532.93
690.95	21481.44
691.08	21076.52
691.22	21198.23
691.35	20945.45
691.49	21104.61
691.62	20868.22
691.76	20893.96
691.89	20762.89
692.03	20374.36
692.16	20196.48
692.30	20194.14
692.43	20308.83
692.57	20304.15
692.70	20360.32
692.84	19882.85
692.97	19742.42
693.11	19861.79
693.24	19477.94
693.38	19915.62
693.51	19468.58
693.65	19414.74
693.78	19541.13
693.92	19475.60
694.05	19377.30
694.19	19211.12
694.32	19185.37
694.45	19145.58
694.59	19222.82
694.72	19257.93
694.86	18855.36
694.99	18743.01
695.13	18881.10
695.26	18443.42
695.39	18319.37
695.53	18380.23
695.66	18314.69
695.80	18270.22
695.93	18242.14
696.07	18059.57
696.20	17675.73
696.33	17465.08
696.47	17905.10
696.60	17708.49
696.73	17727.22
696.87	17619.55
697.00	17909.78
697.14	17855.95
697.27	17310.60
697.40	17146.76
697.54	17296.56
697.67	17317.62
697.80	17205.28
697.94	17167.83
698.07	16772.28
698.21	16957.18
698.34	16676.32
698.47	16919.73
698.61	16219.91
698.74	16388.43
698.87	16418.86
699.01	16128.63
699.14	16262.04
699.27	16166.08
699.40	16226.93
699.54	16025.65
699.67	15962.45
699.80	16018.63
699.94	16100.55
700.07	15887.56
700.20	15536.48
700.34	15648.82
700.47	15307.10
700.60	15632.44
700.73	15452.22
700.87	15321.15
701.00	15576.27
701.13	15037.94
701.26	15082.41
701.40	15049.64
701.53	15066.03
701.66	14759.42
701.79	14813.25
701.93	14696.22
702.06	14611.96
702.19	14492.60
702.32	14555.79
702.46	14668.14
702.59	14588.56
702.72	14520.68
702.85	14427.06
702.99	14288.97
703.12	14356.85
703.25	13928.53
703.38	14059.60
703.51	13930.87
703.65	13914.48
703.78	13678.09
703.91	13504.89
704.04	13575.11
704.17	13568.09
704.31	13256.79
704.44	13507.23
704.57	13324.67
704.70	13429.99
704.83	13128.06
704.96	13081.25
705.10	12877.63
705.23	12943.16
>>>>>End Processed Spectral Data<<<<<
