SpectraSuite Data File
++++++++++++++++++++++++++++++++++++
Date: Fri Oct 25 10:48:08 EDT 2013
User: price-jones
Dark Spectrum Present: No
Reference Spectrum Present: No
Number of Sampled Component Spectra: 1
Spectrometers: USB2+H05261
Integration Time (usec): 100000 (USB2+H05261)
Spectra Averaged: 1 (USB2+H05261)
Boxcar Smoothing: 0 (USB2+H05261)
Correct for Electrical Dark: No (USB2+H05261)
Strobe/Lamp Enabled: No (USB2+H05261)
Correct for Detector Non-linearity: No (USB2+H05261)
Correct for Stray Light: No (USB2+H05261)
Number of Pixels in Processed Spectrum: 2048
>>>>>Begin Processed Spectral Data<<<<<
365.73	180.22
365.92	180.22
366.12	180.22
366.32	0.00
366.52	0.00
366.72	74.90
366.91	30.43
367.11	84.26
367.31	65.54
367.51	0.00
367.70	51.49
367.90	63.19
368.10	72.56
368.30	39.79
368.49	0.00
368.69	72.56
368.89	166.18
369.09	72.56
369.28	63.19
369.48	28.09
369.68	152.13
369.87	138.09
370.07	114.69
370.27	145.11
370.47	161.50
370.66	397.89
370.86	409.59
371.06	435.34
371.25	498.53
371.45	376.83
371.65	381.51
371.84	456.40
372.04	447.04
372.24	437.68
372.44	416.62
372.63	540.66
372.83	486.83
373.03	547.69
373.22	538.32
373.42	507.90
373.62	470.45
373.81	510.24
374.01	538.32
374.21	561.73
374.40	580.45
374.60	620.24
374.79	573.43
374.99	568.75
375.19	599.18
375.38	636.63
375.58	524.28
375.78	538.32
375.97	585.13
376.17	629.60
376.37	601.52
376.56	547.69
376.76	554.71
376.95	589.82
377.15	603.86
377.35	540.66
377.54	510.24
377.74	601.52
377.93	645.99
378.13	596.84
378.33	613.22
378.52	578.11
378.72	667.05
378.91	655.35
379.11	631.94
379.31	603.86
379.50	671.73
379.70	620.24
379.89	690.46
380.09	681.10
380.28	650.67
380.48	741.95
380.68	622.58
380.87	645.99
381.07	662.37
381.26	664.71
381.46	573.43
381.65	641.31
381.85	636.63
382.04	622.58
382.24	631.94
382.43	695.14
382.63	641.31
382.83	716.20
383.02	748.97
383.22	732.59
383.41	741.95
383.61	765.36
383.80	755.99
384.00	807.48
384.19	734.93
384.39	725.57
384.58	692.80
384.78	739.61
384.97	765.36
385.17	753.65
385.36	800.46
385.56	741.95
385.75	678.76
385.95	774.72
386.14	788.76
386.34	760.67
386.53	793.44
386.72	753.65
386.92	828.55
387.11	870.68
387.31	795.78
387.50	795.78
387.70	732.59
387.89	793.44
388.09	826.21
388.28	875.36
388.48	877.70
388.67	929.19
388.86	889.40
389.06	812.17
389.25	849.61
389.45	816.85
389.64	849.61
389.84	931.53
390.03	933.87
390.22	961.96
390.42	840.25
390.61	870.68
390.81	896.43
391.00	912.81
391.19	844.93
391.39	1046.22
391.58	926.85
391.78	912.81
391.97	990.05
392.16	933.87
392.36	1057.92
392.55	922.17
392.75	990.05
392.94	940.90
393.13	1015.79
393.33	931.53
393.52	999.41
393.71	992.39
393.91	877.70
394.10	1004.09
394.29	1046.22
394.49	1102.39
394.68	1078.99
394.88	1069.62
395.07	1109.41
395.26	1137.50
395.46	1041.54
395.65	1078.99
395.84	1123.46
396.04	1160.91
396.23	1165.59
396.42	1144.52
396.62	1083.67
396.81	1121.12
397.00	1088.35
397.19	1184.31
397.39	1069.62
397.58	1245.16
397.77	1231.12
397.97	1263.89
398.16	1205.38
398.35	1306.02
398.55	1266.23
398.74	1329.42
398.93	1310.70
399.12	1320.06
399.32	1299.00
399.51	1256.87
399.70	1296.66
399.90	1249.85
400.09	1355.17
400.28	1387.94
400.47	1418.36
400.67	1385.60
400.86	1394.96
401.05	1409.00
401.24	1472.20
401.44	1502.62
401.63	1444.11
401.82	1437.09
402.01	1380.92
402.21	1441.77
402.40	1493.26
402.59	1481.56
402.78	1479.22
402.97	1472.20
403.17	1451.13
403.36	1610.29
403.55	1600.93
403.74	1617.31
403.93	1596.25
404.13	1689.87
404.32	1621.99
404.51	1596.25
404.70	1645.40
404.89	1619.65
405.09	1612.63
405.28	1636.03
405.47	1769.44
405.66	1736.68
405.85	1741.36
406.05	1776.47
406.24	1834.98
406.43	1689.87
406.62	1870.09
406.81	1916.90
407.00	1827.96
407.20	1844.34
407.39	1799.87
407.58	1867.75
407.77	1849.02
407.96	1954.35
408.15	1895.83
408.34	1952.01
408.54	1977.75
408.73	1989.46
408.92	1914.56
409.11	1954.35
409.30	1968.39
409.49	2015.20
409.68	2071.37
409.87	1966.05
410.07	2125.21
410.26	2073.71
410.45	2122.87
410.64	2092.44
410.83	1994.14
411.02	2108.82
411.21	2249.25
411.40	2146.27
411.59	2361.60
411.78	2270.32
411.98	2342.88
412.17	2352.24
412.36	2324.15
412.55	2422.45
412.74	2403.73
412.93	2459.90
413.12	2497.35
413.31	2640.12
413.50	2356.92
413.69	2530.12
413.88	2668.21
414.07	2490.33
414.26	2455.22
414.45	2607.36
414.64	2513.74
414.83	2546.50
415.02	2633.10
415.22	2665.87
415.41	2686.94
415.60	2785.24
415.79	2729.06
415.98	2888.22
416.17	2883.54
416.36	2780.56
416.55	2757.15
416.74	2841.41
416.93	2876.52
417.12	2867.16
417.31	2942.05
417.50	2867.16
417.69	3030.99
417.88	2965.46
418.07	2848.43
418.26	3030.99
418.45	3030.99
418.64	3066.10
418.83	3026.31
419.02	3155.04
419.21	3052.06
419.39	3098.87
419.58	3105.89
419.77	3080.14
419.96	3232.28
420.15	3218.24
420.34	3208.87
420.53	3279.09
420.72	3412.50
420.91	3328.24
421.10	3363.35
421.29	3372.71
421.48	3344.63
421.67	3421.86
421.86	3300.16
422.05	3454.63
422.24	3332.92
422.43	3391.44
422.61	3473.36
422.80	3485.06
422.99	3382.07
423.18	3344.63
423.37	3543.57
423.56	3487.40
423.75	3335.26
423.94	3442.93
424.13	3321.22
424.32	3344.63
424.50	3466.33
424.69	3564.64
424.88	3576.34
425.07	3417.18
425.26	3293.13
425.45	3616.13
425.64	3515.48
425.83	3501.44
426.01	3480.38
426.20	3482.72
426.39	3555.27
426.58	3468.67
426.77	3478.04
426.96	3506.12
427.15	3597.40
427.33	3602.08
427.52	3627.83
427.71	3637.19
427.90	3588.04
428.09	3714.43
428.28	3620.81
428.46	3742.52
428.65	3826.78
428.84	3934.44
429.03	3796.35
429.22	3676.98
429.40	3660.60
429.59	3686.34
429.78	3557.61
429.97	3506.12
430.16	3775.28
430.34	3721.45
430.53	3840.82
430.72	3852.52
430.91	3960.19
431.10	3819.75
431.28	4046.79
431.47	3985.93
431.66	4086.58
431.85	4051.47
432.03	4133.39
432.22	4168.49
432.41	4018.70
432.60	4161.47
432.79	4175.52
432.97	4154.45
433.16	4149.77
433.35	4154.45
433.54	4081.89
433.72	4255.09
433.91	4159.13
434.10	4203.60
434.28	4238.71
434.47	4308.93
434.66	4454.04
434.85	4510.21
435.03	4372.12
435.22	4276.16
435.41	4519.57
435.59	4292.54
435.78	4397.87
435.97	4510.21
436.16	4531.28
436.34	4606.17
436.53	4538.30
436.72	4685.75
436.90	4449.36
437.09	4657.67
437.28	4477.44
437.46	4601.49
437.65	4388.50
437.84	4774.69
438.02	4564.04
438.21	4669.37
438.40	4669.37
438.58	4770.01
438.77	4805.12
438.96	4772.35
439.14	4814.48
439.33	5022.79
439.52	5081.30
439.70	4938.53
439.89	5081.30
440.08	5132.79
440.26	5006.41
440.45	5043.85
440.63	5081.30
440.82	5416.00
441.01	5334.08
441.19	5434.72
441.38	5509.62
441.57	5259.18
441.75	5352.81
441.94	5416.00
442.12	5479.19
442.31	5589.20
442.50	5558.77
442.68	5493.24
442.87	5643.03
443.05	5579.84
443.24	5687.50
443.43	5600.90
443.61	5678.14
443.80	5813.89
443.98	5448.77
444.17	5514.30
444.35	5846.66
444.54	5900.49
444.73	5783.46
444.91	5666.44
445.10	5809.21
445.28	5610.26
445.47	5647.71
445.65	5802.19
445.84	5734.31
446.02	5865.38
446.21	5760.06
446.39	5785.80
446.58	5928.58
446.77	5860.70
446.95	5696.86
447.14	5877.09
447.32	6052.63
447.51	5898.15
447.69	5834.96
447.88	5928.58
448.06	5930.92
448.25	5790.49
448.43	5954.32
448.62	5731.97
448.80	5905.17
448.99	5963.68
449.17	6066.67
449.36	5919.21
449.54	6106.46
449.73	6078.37
449.91	6284.34
450.10	6216.46
450.28	6272.64
450.46	6263.27
450.65	6354.55
450.83	6335.83
451.02	6118.16
451.20	6324.13
451.39	6251.57
451.57	6363.92
451.76	6497.33
451.94	6284.34
452.13	6422.43
452.31	6328.81
452.49	6256.25
452.68	6361.58
452.86	6588.61
453.05	6478.60
453.23	6583.93
453.42	6595.63
453.60	6619.04
453.78	6614.35
453.97	6459.88
454.15	6595.63
454.34	6483.28
454.52	6562.86
454.70	6738.40
454.89	6661.16
455.07	6691.59
455.26	6766.49
455.44	6876.49
455.62	6698.61
455.81	6773.51
455.99	7042.67
456.17	6820.32
456.36	6822.66
456.54	6960.75
456.73	7007.56
456.91	6974.80
457.09	7133.95
457.28	7236.94
457.46	7150.34
457.64	7166.72
457.83	7148.00
458.01	7183.10
458.19	7403.11
458.38	7155.02
458.56	7220.55
458.74	7302.47
458.93	7295.45
459.11	7241.62
459.29	7370.35
459.48	7527.16
459.66	7463.97
459.84	7529.50
460.03	7578.65
460.21	7599.72
460.39	7702.70
460.57	7435.88
460.76	7662.91
460.94	7534.18
461.12	7695.68
461.31	7581.00
461.49	7728.45
461.67	7770.58
461.85	7906.33
462.04	7770.58
462.22	8374.44
462.40	7824.41
462.59	7925.05
462.77	7887.61
462.95	7988.25
463.13	7908.67
463.32	7978.89
463.50	7932.08
463.68	7967.18
463.86	7899.31
464.05	7742.49
464.23	7939.10
464.41	8049.10
464.59	7908.67
464.78	8149.75
464.96	8229.32
465.14	8032.72
465.32	8234.00
465.50	8327.63
465.69	8297.20
465.87	8131.02
466.05	8215.28
466.23	8105.28
466.41	8304.22
466.60	8325.29
466.78	8243.37
466.96	8215.28
467.14	8114.64
467.32	8477.42
467.51	8423.59
467.69	8243.37
467.87	8308.90
468.05	8535.93
468.23	8299.54
468.41	8477.42
468.60	8430.61
468.78	8552.32
468.96	8702.11
469.14	8692.75
469.32	8793.39
469.50	8521.89
469.69	8636.58
469.87	8830.84
470.05	8786.37
470.23	8798.07
470.41	8905.74
470.59	8894.04
470.77	8912.76
470.95	8891.70
471.14	8966.59
471.32	8990.00
471.50	9186.60
471.68	9242.78
471.86	9179.58
472.04	9364.48
472.22	9376.19
472.40	9217.03
472.58	9345.76
472.77	9174.90
472.95	9556.41
473.13	9481.51
473.31	9551.73
473.49	9350.44
473.67	9682.80
473.85	9607.90
474.03	9767.06
474.21	10111.11
474.39	9905.15
474.57	9921.53
474.75	9951.96
474.93	9844.29
475.12	9731.95
475.30	10068.98
475.48	10218.78
475.66	10064.30
475.84	9942.60
476.02	10181.33
476.20	10265.59
476.38	10590.92
476.56	10609.65
476.74	10892.85
476.92	10644.76
477.10	10441.13
477.28	10743.06
477.46	10745.40
477.64	10998.18
477.82	10897.53
478.00	11169.04
478.18	11243.93
478.36	11344.58
478.54	11503.73
478.72	11580.97
478.90	11676.93
479.08	11873.54
479.26	11812.68
479.44	11805.66
479.62	11908.65
479.80	12072.48
479.98	12079.50
480.16	12077.16
480.34	12271.43
480.52	12320.58
480.70	12201.21
480.88	12224.62
481.06	12725.49
481.24	12578.04
481.41	12821.45
481.59	13034.44
481.77	13027.42
481.95	13006.36
482.13	13060.19
482.31	13043.81
482.49	13099.98
482.67	13474.46
482.85	13331.69
483.03	13490.85
483.21	13696.82
483.39	13820.86
483.57	13757.67
483.74	13891.08
483.92	14026.83
484.10	14071.30
484.28	14059.60
484.46	14352.16
484.64	14714.95
484.82	14384.93
485.00	14691.54
485.18	14656.43
485.35	14909.21
485.53	14728.99
485.71	14651.75
485.89	15063.69
486.07	14881.13
486.25	15545.84
486.43	15700.31
486.61	15482.64
486.78	15957.77
486.96	15948.41
487.14	15962.45
487.32	16006.92
487.50	16182.46
487.68	16465.67
487.85	16645.89
488.03	16844.84
488.21	17006.33
488.39	16762.92
488.57	16692.70
488.75	16978.25
488.92	17205.28
489.10	17406.56
489.28	17521.25
489.46	17483.80
489.64	17839.56
489.81	18235.11
489.99	18375.55
490.17	18431.72
490.35	18251.50
490.53	18396.61
490.70	18616.62
490.88	18633.00
491.06	18906.85
491.24	18803.86
491.41	18941.96
491.59	18750.03
491.77	19103.45
491.95	19426.45
492.13	19335.17
492.30	19426.45
492.48	19468.58
492.66	19763.48
492.84	19721.35
493.01	19988.18
493.19	19777.53
493.37	20250.32
493.54	20149.67
493.72	20648.21
493.90	20570.97
494.08	20844.81
494.25	20802.68
494.43	21008.65
494.61	21312.92
494.79	21284.83
494.96	20847.15
495.14	21392.50
495.32	21507.18
495.49	21303.56
495.67	21565.70
495.85	21640.59
496.02	22183.60
496.20	22167.21
496.38	22253.81
496.55	22185.94
496.73	22808.52
496.91	22300.62
497.09	22677.45
497.26	22913.84
497.44	22621.28
497.62	22881.08
497.79	23337.48
497.97	23000.44
498.14	23374.93
498.32	23346.84
498.50	23377.27
498.67	23517.70
498.85	23896.87
499.03	23676.86
499.20	23604.30
499.38	23735.37
499.56	24168.37
499.73	24318.17
499.91	24322.85
500.08	24297.10
500.26	23920.28
500.44	24379.02
500.61	24589.67
500.79	24247.95
500.97	25062.46
501.14	25137.35
501.32	25109.27
501.49	24868.19
501.67	25406.52
501.84	25511.84
502.02	25057.78
502.20	25458.01
502.37	25486.09
502.55	25205.23
502.72	25577.37
502.90	25345.66
503.07	25755.26
503.25	25624.18
503.43	25790.36
503.60	26005.69
503.78	25738.87
503.95	26103.99
504.13	26235.06
504.30	26331.03
504.48	26071.23
504.65	26518.27
504.83	26782.75
505.01	26677.43
505.18	26623.59
505.36	26883.39
505.53	27131.49
505.71	26969.99
505.88	27047.23
506.06	26747.64
506.23	27332.78
506.41	27257.88
506.58	27323.41
506.76	27606.62
506.93	27559.81
507.11	27459.16
507.28	27662.79
507.46	27639.39
507.63	27676.83
507.81	27978.76
507.98	27730.67
508.16	27981.10
508.33	28091.11
508.50	28257.29
508.68	28180.05
508.85	28758.16
509.03	28512.41
509.20	28692.63
509.38	28751.14
509.55	29013.28
509.73	28676.24
509.90	28641.14
510.08	28952.43
510.25	28957.11
510.42	28886.89
510.60	29706.08
510.77	29525.86
510.95	29411.17
511.12	29399.47
511.30	29645.23
511.47	29759.91
511.64	29614.80
511.82	29937.79
511.99	29827.79
512.17	29982.26
512.34	29898.00
512.51	30380.15
512.69	30326.32
512.86	30375.47
513.04	30675.06
513.21	30569.74
513.38	30197.59
513.56	30679.74
513.73	30003.33
513.90	30672.72
514.08	30808.47
514.25	30728.89
514.43	30794.43
514.60	30808.47
514.77	30632.93
514.95	31014.44
515.12	30780.39
515.29	31260.20
515.47	31346.79
515.64	31613.62
515.81	31232.11
515.99	31613.62
516.16	31517.65
516.33	31480.21
516.51	31936.61
516.68	31332.75
516.85	31845.33
517.03	31274.24
517.20	31800.86
517.37	31667.45
517.54	31906.18
517.72	31997.46
517.89	32128.53
518.06	31711.92
518.24	32023.21
518.41	32154.28
518.58	32285.35
518.75	32137.90
518.93	32762.82
519.10	32409.40
519.27	32900.91
519.45	32580.26
519.62	32826.01
519.79	32849.42
519.96	33057.73
520.14	33331.57
520.31	32910.27
520.48	33006.23
520.65	33160.71
520.83	32982.83
521.00	33315.19
521.17	33230.93
521.34	33563.28
521.52	33579.67
521.69	33567.96
521.86	33970.54
522.03	33743.50
522.20	33621.80
522.38	34089.90
522.55	33954.15
522.72	34148.42
522.89	34167.14
523.07	34565.03
523.24	33811.38
523.41	34274.80
523.58	34010.32
523.75	34565.03
523.92	34410.56
524.10	34705.46
524.27	34387.15
524.44	34604.82
524.61	34717.17
524.78	34937.18
524.96	34824.83
525.13	35182.93
525.30	35119.74
525.47	35161.87
525.64	34738.23
525.81	35072.93
525.98	34930.16
526.16	35241.45
526.33	34845.90
526.50	35653.38
526.67	35424.01
526.84	35246.13
527.01	35082.29
527.18	35257.83
527.36	35285.92
527.53	35728.28
527.70	36009.14
527.87	36062.97
528.04	35543.38
528.21	35765.73
528.38	35903.82
528.55	36203.41
528.72	36093.40
528.89	36156.60
529.07	36404.69
529.24	36070.00
529.41	36168.30
529.58	36582.57
529.75	36559.17
529.92	36594.28
530.09	36144.89
530.26	36416.40
530.43	36655.13
530.60	36720.66
530.77	36992.17
530.94	36577.89
531.11	36655.13
531.28	37106.85
531.46	37069.40
531.63	37294.10
531.80	36973.44
531.97	37102.17
532.14	37343.25
532.31	36517.04
532.48	37146.64
532.65	37390.06
532.82	36926.63
532.99	37521.13
533.16	36891.52
533.33	37413.46
533.50	37720.07
533.67	37612.41
533.84	37546.87
534.01	37710.71
534.18	37493.04
534.35	38057.11
534.52	37663.90
534.69	38003.28
534.86	37879.23
535.03	37523.47
535.20	38092.22
535.37	38094.56
535.54	37933.06
535.71	38415.21
535.88	37940.08
536.05	38307.55
536.22	38494.79
536.38	38396.49
536.55	38574.37
536.72	38520.54
536.89	38120.31
537.06	38572.03
537.23	38733.53
537.40	38618.84
537.57	38237.33
537.74	38455.00
537.91	38667.99
538.08	38752.25
538.25	38625.86
538.42	38838.85
538.59	39030.77
538.75	38412.87
538.92	39117.37
539.09	39220.36
539.26	39386.54
539.43	39005.03
539.60	38920.77
539.77	39201.63
539.94	39192.27
540.11	38932.47
540.28	39306.96
540.44	39196.95
540.61	39470.79
540.78	38932.47
540.95	39501.22
541.12	38934.81
541.29	38939.49
541.46	39522.29
541.62	39285.89
541.79	40170.61
541.96	39150.14
542.13	39496.54
542.30	39744.64
542.47	39555.05
542.63	39648.68
542.80	39789.11
542.97	40250.19
543.14	40458.50
543.31	39845.28
543.48	40542.76
543.64	40788.52
543.81	40676.17
543.98	40732.34
544.15	40381.26
544.32	40767.45
544.48	41053.00
544.65	40069.97
544.82	40765.11
544.99	40170.61
545.16	40446.80
545.32	40245.51
545.49	40807.24
545.66	40807.24
545.83	40868.09
546.00	40697.24
546.16	41041.29
546.33	40781.49
546.50	40802.56
546.67	40823.62
546.83	41090.44
547.00	40914.90
547.17	40776.81
547.34	40964.06
547.50	41060.02
547.67	41521.10
547.84	41294.07
548.00	41537.49
548.17	41537.49
548.34	41284.71
548.51	41811.33
548.67	41230.88
548.84	41516.42
549.01	41598.34
549.18	41720.05
549.34	41560.89
549.51	41710.69
549.68	41794.95
549.84	41471.95
550.01	42043.04
550.18	41378.33
550.34	41450.89
550.51	41572.60
550.68	41600.68
550.84	41511.74
551.01	41832.39
551.18	41874.52
551.34	41799.63
551.51	41890.91
551.68	42087.51
551.84	42061.77
552.01	41876.86
552.18	42181.13
552.34	41591.32
552.51	42380.08
552.68	41942.40
552.84	42527.53
553.01	42607.11
553.18	42115.60
553.34	42113.26
553.51	42321.57
553.67	42305.18
553.84	42637.54
554.01	42094.53
554.17	42518.17
554.34	42731.16
554.51	42604.77
554.67	43037.77
554.84	42820.10
555.00	42450.30
555.17	42766.27
555.33	42525.19
555.50	42508.81
555.67	42597.75
555.83	42932.45
556.00	42815.42
556.16	42366.04
556.33	42494.77
556.50	43014.37
556.66	43058.84
556.83	42462.00
556.99	42916.06
557.16	43309.27
557.32	42841.17
557.49	43115.01
557.65	42586.05
557.82	42714.78
557.98	42876.27
558.15	42738.18
558.32	42965.21
558.48	42777.97
558.65	43358.42
558.81	42756.91
558.98	43065.86
559.14	43225.01
559.31	42913.72
559.47	43164.16
559.64	43285.87
559.80	43285.87
559.97	43395.87
560.13	42799.04
560.30	43093.94
560.46	43082.24
560.63	43166.50
560.79	43253.10
560.96	43409.92
561.12	43625.25
561.29	43222.67
561.45	42904.36
561.61	43473.11
561.78	43316.29
561.94	42995.64
562.11	43545.67
562.27	42953.51
562.44	43583.12
562.60	43737.59
562.77	43770.36
562.93	43702.48
563.10	43571.41
563.26	43449.70
563.42	43831.21
563.59	43466.09
563.75	43756.32
563.92	43672.06
564.08	43871.00
564.24	43913.13
564.41	44151.87
564.57	43768.02
564.74	43707.16
564.90	43943.56
565.07	43959.94
565.23	43632.27
565.39	43501.20
565.56	44121.44
565.72	43578.43
565.88	44208.04
566.05	43653.33
566.21	43814.83
566.38	43475.45
566.54	44009.09
566.70	44114.42
566.87	44615.29
567.03	44041.86
567.19	44226.76
567.36	44119.10
567.52	43690.78
567.68	44266.55
567.85	43962.28
568.01	43952.92
568.17	44158.89
568.34	44072.29
568.50	43997.39
568.66	44505.29
568.83	43997.39
568.99	43611.20
569.15	44107.40
569.32	43948.24
569.48	43683.76
569.64	44254.85
569.81	44374.22
569.97	44224.42
570.13	43973.98
570.30	43959.94
570.46	44072.29
570.62	43690.78
570.78	43859.30
570.95	44006.75
571.11	44418.69
571.27	44264.21
571.43	44285.28
571.60	44079.31
571.76	43978.67
571.92	43924.83
572.09	43805.47
572.25	44367.20
572.41	44294.64
572.57	44114.42
572.74	44949.99
572.90	44292.30
573.06	44753.38
573.22	44030.16
573.38	44430.39
573.55	43962.28
573.71	44772.11
573.87	44388.26
574.03	44076.97
574.20	44020.80
574.36	44210.38
574.52	44823.60
574.68	44105.06
574.84	44329.75
575.01	44332.09
575.17	44488.90
575.33	44076.97
575.49	43723.55
575.65	44390.60
575.82	44687.85
575.98	44491.24
576.14	44732.32
576.30	44502.95
576.46	44224.42
576.62	44264.21
576.79	44346.13
576.95	44259.53
577.11	44559.12
577.27	44318.04
577.43	44477.20
577.59	44371.88
577.75	44418.69
577.92	44030.16
578.08	44488.90
578.24	43805.47
578.40	44062.93
578.56	44278.25
578.72	44161.23
578.88	44474.86
579.04	44409.32
579.21	44531.03
579.37	44589.55
579.53	44233.78
579.69	44013.77
579.85	44395.28
580.01	44315.70
580.17	44790.83
580.33	44439.75
580.49	44748.70
580.65	44449.11
580.82	44519.33
580.98	44245.49
581.14	44430.39
581.30	44156.55
581.46	44430.39
581.62	44732.32
581.78	44456.14
581.94	44746.36
582.10	43969.30
582.26	44453.79
582.42	44479.54
582.58	44304.00
582.74	44636.36
582.90	44701.89
583.06	44678.49
583.22	44673.81
583.38	44587.21
583.54	44360.17
583.70	44671.46
583.86	44521.67
584.02	44383.58
584.18	44648.06
584.34	44612.95
584.50	44678.49
584.66	44226.76
584.82	44318.04
584.98	44582.52
585.14	44769.77
585.30	44638.70
585.46	44531.03
585.62	44421.03
585.78	44652.74
585.94	44446.77
586.10	44540.39
586.26	44694.87
586.42	45141.91
586.58	44751.04
586.74	44877.43
586.90	44596.57
587.06	43903.77
587.22	44872.75
587.38	44545.08
587.54	44697.21
587.70	44753.38
587.86	44397.62
588.02	44619.97
588.18	44524.01
588.34	44758.06
588.49	44308.68
588.65	44610.61
588.81	44577.84
588.97	44451.45
589.13	44409.32
589.29	44715.93
589.45	44528.69
589.61	44388.26
589.77	45074.04
589.93	44926.58
590.08	44802.53
590.24	45043.61
590.40	45467.25
590.56	44781.47
590.72	44863.39
590.88	44512.31
591.04	44949.99
591.20	45052.97
591.35	44957.01
591.51	45694.28
591.67	45003.82
591.83	44762.75
591.99	44591.89
592.15	44612.95
592.31	44905.52
592.46	44861.05
592.62	44938.29
592.78	45003.82
592.94	44809.56
593.10	44954.67
593.26	45172.34
593.41	44744.02
593.57	45048.29
593.73	44650.40
593.89	45123.19
594.05	44715.93
594.20	45289.37
594.36	45074.04
594.52	45041.27
594.68	44947.65
594.84	44491.24
594.99	45392.35
595.15	44978.07
595.31	45228.51
595.47	45120.85
595.62	44959.35
595.78	44755.72
595.94	45294.05
596.10	44875.09
596.25	45134.89
596.41	45254.26
596.57	44832.96
596.73	45090.42
596.88	44634.02
597.04	45034.25
597.20	44854.03
597.36	45521.08
597.51	45481.29
597.67	45071.70
597.83	45064.67
597.99	45214.47
598.14	44957.01
598.30	45200.43
598.46	45148.93
598.61	44807.22
598.77	44886.79
598.93	44957.01
599.09	44802.53
599.24	45467.25
599.40	45336.18
599.56	44985.10
599.71	45577.25
599.87	45331.50
600.03	45162.98
600.18	45125.53
600.34	44912.54
600.50	44701.89
600.65	44823.60
600.81	45490.65
600.97	44931.26
601.12	45429.80
601.28	45294.05
601.44	45071.70
601.59	44896.16
601.75	45041.27
601.91	45141.91
602.06	44699.55
602.22	45263.62
602.37	44842.32
602.53	44643.38
602.69	45333.84
602.84	45059.99
603.00	45050.63
603.16	45296.39
603.31	44886.79
603.47	44877.43
603.62	45001.48
603.78	44896.16
603.94	45045.95
604.09	44957.01
604.25	45439.16
604.40	45041.27
604.56	44650.40
604.71	44783.81
604.87	45031.91
605.03	45008.50
605.18	44935.95
605.34	45081.06
605.49	44481.88
605.65	44985.10
605.80	44776.79
605.96	45078.72
606.12	45172.34
606.27	45048.29
606.43	44877.43
606.58	45155.96
606.74	44634.02
606.89	44622.31
607.05	44886.79
607.20	44947.65
607.36	44856.37
607.51	45090.42
607.67	45071.70
607.82	44889.13
607.98	44804.88
608.13	44725.30
608.29	44765.09
608.44	44704.23
608.60	43990.37
608.75	44512.31
608.91	44591.89
609.06	45017.86
609.22	44926.58
609.37	44516.99
609.53	44690.19
609.68	44612.95
609.84	44332.09
609.99	45008.50
610.15	45228.51
610.30	44587.21
610.46	44086.33
610.61	44444.43
610.76	44781.47
610.92	44339.11
611.07	44453.79
611.23	44821.26
611.38	44456.14
611.54	44392.94
611.69	44472.52
611.84	44091.01
612.00	43805.47
612.15	44287.62
612.31	44399.96
612.46	44037.18
612.62	44411.67
612.77	44842.32
612.92	44397.62
613.08	44201.02
613.23	44467.84
613.39	44114.42
613.54	44020.80
613.69	44266.55
613.85	44030.16
614.00	44598.91
614.15	44432.73
614.31	44570.82
614.46	44411.67
614.62	44208.04
614.77	44055.90
614.92	44257.19
615.08	43833.55
615.23	44198.68
615.38	43765.68
615.54	43878.02
615.69	44205.70
615.84	43377.15
616.00	43604.18
616.15	43789.08
616.30	43908.45
616.46	43592.48
616.61	43508.22
616.76	43737.59
616.92	43136.07
617.07	43742.27
617.22	43866.32
617.37	43255.44
617.53	43927.17
617.68	43732.91
617.83	43910.79
617.99	44002.07
618.14	43894.41
618.29	43761.00
618.45	43196.93
618.60	43777.38
618.75	43540.99
618.90	43695.46
619.06	43676.74
619.21	43349.06
619.36	43580.78
619.51	43356.08
619.67	43367.79
619.82	43597.16
619.97	43328.00
620.12	43536.30
620.28	42911.38
620.43	43030.75
620.58	42913.72
620.73	43091.60
620.89	43103.31
621.04	43196.93
621.19	43042.45
621.34	43243.74
621.49	42801.38
621.65	43068.20
621.80	43124.37
621.95	42841.17
622.10	43061.18
622.25	43047.13
622.41	42925.42
622.56	42822.44
622.71	43047.13
622.86	42642.22
623.01	42829.46
623.16	43112.67
623.32	43241.40
623.47	43082.24
623.62	43372.47
623.77	42550.94
623.92	42667.97
624.07	42600.09
624.23	42218.58
624.38	42368.38
624.53	42499.45
624.68	42944.15
624.83	42885.64
624.98	42820.10
625.13	42532.22
625.29	42925.42
625.44	42321.57
625.59	42284.12
625.74	41771.54
625.89	42033.68
626.04	42134.32
626.19	42064.11
626.34	42232.63
626.49	42038.36
626.65	42260.71
626.80	42462.00
626.95	42349.65
627.10	41872.18
627.25	42162.41
627.40	41867.50
627.55	41132.57
627.70	41535.15
627.85	41787.92
628.00	41956.44
628.15	42153.05
628.30	41834.74
628.45	42127.30
628.60	41794.95
628.76	41888.57
628.91	41895.59
629.06	41380.67
629.21	41579.62
629.36	41769.20
629.51	41310.46
629.66	41535.15
629.81	41453.23
629.96	42052.41
630.11	41572.60
630.26	41642.81
630.41	41698.98
630.56	41914.31
630.71	41670.90
630.86	41420.46
631.01	41539.83
631.16	41673.24
631.31	41226.20
631.46	40404.67
631.61	41191.09
631.76	41378.33
631.91	40982.78
632.06	41422.80
632.21	41841.76
632.36	41663.88
632.51	41081.08
632.66	41177.04
632.81	40893.84
632.96	40856.39
633.10	40589.57
633.25	40835.33
633.40	40968.74
633.55	41280.03
633.70	41397.06
633.85	40830.65
634.00	41153.64
634.15	41029.59
634.30	40493.61
634.45	41228.54
634.60	41078.74
634.75	40629.36
634.90	40912.56
635.05	41429.82
635.19	40870.43
635.34	40903.20
635.49	40985.12
635.64	40348.50
635.79	40194.02
635.94	40268.92
636.09	40617.66
636.24	40449.14
636.39	40053.59
636.53	40531.06
636.68	40133.17
636.83	40257.21
636.98	40671.49
637.13	39976.35
637.28	40542.76
637.43	40399.99
637.57	40629.36
637.72	40547.44
637.87	40151.89
638.02	40627.02
638.17	40273.60
638.32	39714.21
638.46	40217.43
638.61	40287.64
638.76	39522.29
638.91	39927.20
639.06	39718.89
639.20	40336.79
639.35	40336.79
639.50	39592.50
639.65	40493.61
639.80	39892.09
639.94	40060.61
640.09	39805.49
640.24	39372.49
640.39	39573.78
640.54	39505.90
640.68	40065.29
640.83	39686.12
640.98	39229.72
641.13	39758.68
641.27	39580.80
641.42	39629.95
641.57	39971.67
641.72	39541.01
641.86	39264.83
642.01	39435.69
642.16	39269.51
642.31	38904.38
642.45	39157.16
642.60	39536.33
642.75	39278.87
642.90	39353.77
643.04	39398.24
643.19	39278.87
643.34	39700.17
643.48	39257.81
643.63	39625.27
643.78	39243.76
643.93	39012.05
644.07	38979.28
644.22	39122.05
644.37	39072.90
644.51	38941.83
644.66	39194.61
644.81	39276.53
644.95	38953.54
645.10	39620.59
645.25	39533.99
645.39	39131.42
645.54	39077.58
645.69	38892.68
645.83	39283.55
645.98	39012.05
646.13	38962.90
646.27	39290.57
646.42	38532.24
646.57	39367.81
646.71	38649.27
646.86	38817.78
647.00	39082.27
647.15	38522.88
647.30	38969.92
647.44	38644.59
647.59	38670.33
647.74	38239.67
647.88	38328.61
648.03	38611.82
648.17	38267.76
648.32	38422.23
648.47	38469.04
648.61	38522.88
648.76	38829.49
648.90	38515.86
649.05	38466.70
649.20	38883.32
649.34	38511.17
649.49	37895.61
649.63	38167.12
649.78	38600.12
649.92	37876.89
650.07	38288.82
650.21	38202.22
650.36	38003.28
650.51	37816.04
650.65	38850.55
650.80	38637.56
650.94	38218.61
651.09	38532.24
651.23	38227.97
651.38	37963.49
651.52	37724.75
651.67	38181.16
651.81	38298.19
651.96	37900.29
652.10	38071.15
652.25	38047.75
652.39	37900.29
652.54	37675.60
652.68	38022.00
652.83	37759.86
652.97	37893.27
653.12	37670.92
653.26	37844.12
653.41	37659.22
653.55	37443.89
653.70	37649.86
653.84	37207.50
653.99	37844.12
654.13	37979.87
654.27	37862.85
654.42	37380.70
654.56	37542.19
654.71	37322.18
654.85	37972.85
655.00	37523.47
655.14	37228.56
655.29	37240.26
655.43	37432.19
655.57	37266.01
655.72	36762.79
655.86	36708.96
656.01	37022.59
656.15	36891.52
656.30	37340.91
656.44	37120.90
656.58	37156.00
656.73	36704.28
656.87	36861.10
657.01	36444.48
657.16	36964.08
657.30	36519.38
657.45	36622.36
657.59	36982.80
657.73	36552.15
657.88	37102.17
658.02	36591.94
658.16	36666.83
658.31	36886.84
658.45	36776.84
658.60	36664.49
658.74	36980.46
658.88	36648.11
659.03	36334.48
659.17	36533.42
659.31	36547.47
659.46	36580.23
659.60	36301.71
659.74	36329.80
659.89	35931.90
660.03	36142.55
660.17	36257.24
660.32	36058.29
660.46	36711.30
660.60	36268.94
660.74	36247.88
660.89	36030.21
661.03	36194.04
661.17	35772.75
661.32	35660.40
661.46	36025.53
661.60	35590.19
661.74	35805.52
661.89	35754.02
662.03	35501.25
662.17	35899.14
662.31	35466.14
662.46	35775.09
662.60	35826.58
662.74	35016.75
662.88	35098.67
663.03	35690.83
663.17	35370.18
663.31	35007.39
663.45	35391.24
663.60	35538.69
663.74	35035.48
663.88	34892.71
664.02	34906.75
664.17	35058.88
664.31	34417.58
664.45	34565.03
664.59	35000.37
664.73	34892.71
664.88	34822.49
665.02	34466.73
665.16	34646.95
665.30	34553.33
665.44	34941.86
665.59	34497.16
665.73	34382.47
665.87	34347.36
666.01	34019.69
666.15	33787.97
666.29	34560.35
666.44	34586.10
666.58	34040.75
666.72	34160.12
666.86	34253.74
667.00	34424.60
667.14	34134.37
667.28	33846.49
667.43	33855.85
667.57	34038.41
667.71	33610.09
667.85	33720.10
667.99	33572.64
668.13	33366.68
668.27	33181.77
668.41	33270.72
668.56	33244.97
668.70	33013.26
668.84	33373.70
668.98	33151.35
669.12	33102.20
669.26	33600.73
669.40	33233.27
669.54	32959.42
669.68	33378.38
669.82	32652.81
669.96	32804.95
670.10	32692.60
670.25	32739.41
670.39	33034.32
670.53	32521.74
670.67	32573.24
670.81	32308.76
670.95	32655.15
671.09	32751.12
671.23	32732.39
671.37	32533.45
671.51	32385.99
671.65	32107.47
671.79	32285.35
671.93	32318.12
672.07	32535.79
672.21	32182.37
672.35	31854.69
672.49	31630.00
672.63	31901.50
672.77	31796.18
672.91	31997.46
673.05	31622.98
673.19	31770.43
673.33	31168.91
673.47	31461.48
673.61	31241.47
673.75	31042.53
673.89	30642.29
674.03	31227.43
674.17	30831.88
674.31	31257.85
674.45	30738.26
674.59	30754.64
674.73	30590.80
674.87	30829.54
675.01	30857.62
675.15	30700.81
675.29	30642.29
675.43	30581.44
675.56	30389.52
675.70	30417.60
675.84	30628.25
675.98	29230.95
676.12	30223.34
676.26	29902.68
676.40	29778.64
676.54	29919.07
676.68	29596.07
676.82	29324.57
676.96	29191.16
677.10	29146.69
677.23	29406.49
677.37	29567.99
677.51	29324.57
677.65	29373.72
677.79	29146.69
677.93	28788.59
678.07	28856.46
678.21	28837.74
678.34	28371.97
678.48	28594.32
678.62	28737.10
678.76	28304.10
678.90	28687.95
679.04	28423.47
679.18	28292.40
679.31	28205.80
679.45	27922.59
679.59	27742.37
679.73	27908.55
679.87	28236.22
680.00	27623.00
680.14	27711.94
680.28	27468.53
680.42	27328.10
680.56	27344.48
680.70	27370.22
680.83	27187.66
680.97	27007.44
681.11	26663.38
681.25	26647.00
681.39	26855.31
681.52	26757.00
681.66	26466.78
681.80	26838.92
681.94	26888.07
682.07	26309.96
682.21	26342.73
682.35	26249.11
682.49	26338.05
682.62	26375.50
682.76	25977.61
682.90	25926.11
683.04	26008.03
683.17	25860.58
683.31	25680.36
683.45	25830.15
683.59	25294.17
683.72	25415.88
683.86	25268.42
684.00	25397.15
684.13	25228.63
684.27	25233.32
684.41	25205.23
684.55	24898.62
684.68	24793.29
684.82	24952.45
684.96	24652.86
685.09	24453.92
685.23	24690.31
685.37	24678.61
685.50	24346.25
685.64	24650.52
685.78	24395.40
685.91	24360.30
686.05	24372.00
686.19	23908.57
686.32	24247.95
686.46	23667.50
686.60	23307.05
686.73	23412.38
686.87	23541.11
687.01	23154.92
687.14	23246.20
687.28	23370.25
687.42	22878.74
687.55	23014.49
687.69	22773.41
687.82	22745.33
687.96	22831.93
688.10	22604.89
688.23	22602.55
688.37	22408.29
688.50	22410.63
688.64	22436.38
688.78	22022.10
688.91	22309.99
689.05	22218.71
689.18	22232.75
689.32	21853.58
689.46	22108.70
689.59	21994.01
689.73	22029.12
689.86	21287.17
690.00	21713.15
690.13	21596.12
690.27	21593.78
690.41	21546.97
690.54	21544.63
690.68	21137.38
690.81	21352.71
690.95	21055.46
691.08	21034.39
691.22	21032.05
691.35	20847.15
691.49	20898.64
691.62	20849.49
691.76	20732.47
691.89	20793.32
692.03	20453.94
692.16	20528.84
692.30	20432.88
692.43	20566.29
692.57	20217.55
692.70	20294.79
692.84	20053.71
692.97	19782.21
693.11	20105.20
693.24	19545.81
693.38	19506.02
693.51	19576.24
693.65	19456.87
693.78	19358.57
693.92	19213.46
694.05	19218.14
694.19	19021.53
694.32	19477.94
694.45	19150.26
694.59	18974.72
694.72	18995.79
694.86	18738.33
694.99	18600.24
695.13	18611.94
695.26	18349.80
695.39	18410.65
695.53	18771.10
695.66	18600.24
695.80	18515.98
695.93	18068.94
696.07	18036.17
696.20	18361.50
696.33	18129.79
696.47	17881.69
696.60	17858.29
696.73	17860.63
696.87	17769.35
697.00	17813.82
697.14	17495.50
697.27	17652.32
697.40	17291.88
697.54	17341.03
697.67	17427.63
697.80	16856.54
697.94	17083.57
698.07	17170.17
698.21	16767.60
698.34	17186.55
698.47	16676.32
698.61	16542.91
698.74	16580.36
698.87	16652.91
699.01	16547.59
699.14	16460.99
699.27	16215.23
699.40	16475.03
699.54	16339.28
699.67	16259.70
699.80	16191.83
699.94	16067.78
700.07	16039.69
700.20	15768.19
700.34	16074.80
700.47	15744.78
700.60	15693.29
700.73	15604.35
700.87	15791.59
701.00	15452.22
701.13	15456.90
701.26	15562.22
701.40	15248.59
701.53	15110.50
701.66	15295.40
701.79	15044.96
701.93	15117.52
702.06	14965.39
702.19	14923.26
702.32	14600.26
702.46	14747.72
702.59	14932.62
702.72	14569.83
702.85	14874.10
702.99	14626.01
703.12	14899.85
703.25	14403.66
703.38	14396.64
703.51	14260.88
703.65	14448.13
703.78	14267.91
703.91	14029.17
704.04	14167.26
704.17	14270.25
704.31	14047.90
704.44	13638.30
704.57	13633.62
704.70	13624.26
704.83	13900.44
704.96	13523.62
705.10	13694.47
705.23	13867.67
>>>>>End Processed Spectral Data<<<<<
