SpectraSuite Data File
++++++++++++++++++++++++++++++++++++
Date: Fri Oct 25 10:44:04 EDT 2013
User: price-jones
Dark Spectrum Present: No
Reference Spectrum Present: No
Number of Sampled Component Spectra: 1
Spectrometers: USB2+H05261
Integration Time (usec): 100000 (USB2+H05261)
Spectra Averaged: 1 (USB2+H05261)
Boxcar Smoothing: 0 (USB2+H05261)
Correct for Electrical Dark: No (USB2+H05261)
Strobe/Lamp Enabled: No (USB2+H05261)
Correct for Detector Non-linearity: No (USB2+H05261)
Correct for Stray Light: No (USB2+H05261)
Number of Pixels in Processed Spectrum: 2048
>>>>>Begin Processed Spectral Data<<<<<
365.73	128.73
365.92	128.73
366.12	128.73
366.32	53.83
366.52	4.68
366.72	74.90
366.91	0.00
367.11	16.38
367.31	2.34
367.51	14.04
367.70	21.06
367.90	0.00
368.10	46.81
368.30	102.98
368.49	37.45
368.69	67.88
368.89	67.88
369.09	21.06
369.28	60.85
369.48	4.68
369.68	114.69
369.87	77.24
370.07	42.13
370.27	163.84
370.47	133.41
370.66	379.17
370.86	418.96
371.06	465.77
371.25	397.89
371.45	393.21
371.65	514.92
371.84	470.45
372.04	458.74
372.24	451.72
372.44	465.77
372.63	547.69
372.83	533.64
373.03	456.40
373.22	381.51
373.42	589.82
373.62	491.51
373.81	517.26
374.01	547.69
374.21	470.45
374.40	500.87
374.60	603.86
374.79	608.54
374.99	582.79
375.19	627.26
375.38	568.75
375.58	571.09
375.78	533.64
375.97	514.92
376.17	669.39
376.37	664.71
376.56	641.31
376.76	648.33
376.95	631.94
377.15	643.65
377.35	638.97
377.54	683.44
377.74	629.60
377.93	564.07
378.13	655.35
378.33	709.18
378.52	704.50
378.72	594.50
378.91	681.10
379.11	697.48
379.31	662.37
379.50	648.33
379.70	678.76
379.89	613.22
380.09	674.07
380.28	730.25
380.48	737.27
380.68	760.67
380.87	725.57
381.07	690.46
381.26	702.16
381.46	706.84
381.65	770.04
381.85	777.06
382.04	748.97
382.24	641.31
382.43	594.50
382.63	674.07
382.83	702.16
383.02	774.72
383.22	802.80
383.41	667.05
383.61	767.70
383.80	809.83
384.00	849.61
384.19	812.17
384.39	795.78
384.58	884.72
384.78	861.32
384.97	861.32
385.17	835.57
385.36	842.59
385.56	821.53
385.75	802.80
385.95	847.27
386.14	821.53
386.34	751.31
386.53	908.13
386.72	887.06
386.92	926.85
387.11	938.55
387.31	961.96
387.50	880.04
387.70	812.17
387.89	889.40
388.09	929.19
388.28	954.94
388.48	887.06
388.67	976.00
388.86	926.85
389.06	943.24
389.25	994.73
389.45	1036.86
389.64	1022.81
389.84	1076.65
390.03	966.64
390.22	1022.81
390.42	1090.69
390.61	1020.47
390.81	1116.44
391.00	1081.33
391.19	1167.93
391.39	1025.15
391.58	1146.86
391.78	1123.46
391.97	1153.88
392.16	1100.05
392.36	1139.84
392.55	1006.43
392.75	1032.18
392.94	1020.47
393.13	1034.52
393.33	990.05
393.52	1039.20
393.71	1156.22
393.91	1095.37
394.10	1139.84
394.29	1181.97
394.49	1217.08
394.68	1219.42
394.88	1198.35
395.07	1406.66
395.26	1277.93
395.46	1170.27
395.65	1259.21
395.84	1263.89
396.04	1364.53
396.23	1284.95
396.42	1135.16
396.62	1224.10
396.81	1174.95
397.00	1217.08
397.19	1357.51
397.39	1263.89
397.58	1390.28
397.77	1376.24
397.97	1455.81
398.16	1486.24
398.35	1455.81
398.55	1629.01
398.74	1570.50
398.93	1610.29
399.12	1579.86
399.32	1561.14
399.51	1629.01
399.70	1666.46
399.90	1617.31
400.09	1631.35
400.28	1668.80
400.47	1694.55
400.67	1820.94
400.86	1727.32
401.05	1811.57
401.24	1806.89
401.44	1701.57
401.63	1797.53
401.82	1818.60
402.01	1764.76
402.21	1830.30
402.40	1804.55
402.59	1834.98
402.78	1806.89
402.97	1865.41
403.17	1851.36
403.36	1851.36
403.55	1942.64
403.74	1937.96
403.93	1877.11
404.13	1905.20
404.32	1877.11
404.51	2097.12
404.70	1947.33
404.89	1977.75
405.09	2139.25
405.28	2064.35
405.47	1998.82
405.66	2115.84
405.85	2073.71
406.05	2101.80
406.24	2148.61
406.43	2153.29
406.62	2143.93
406.81	2150.95
407.00	2197.76
407.20	2090.10
407.39	2134.57
407.58	2169.68
407.77	2277.34
407.96	2260.96
408.15	2251.60
408.34	2228.19
408.54	2511.39
408.73	2452.88
408.92	2462.24
409.11	2473.95
409.30	2420.11
409.49	2415.43
409.68	2410.75
409.87	2401.39
410.07	2352.24
410.26	2497.35
410.45	2476.29
410.64	2590.97
410.83	2595.65
411.02	2562.89
411.21	2754.81
411.40	2630.76
411.59	2724.38
411.78	2642.46
411.98	2715.02
412.17	2897.58
412.36	2796.94
412.55	2754.81
412.74	2848.43
412.93	2750.13
413.12	2670.55
413.31	3028.65
413.50	2930.35
413.69	3038.02
413.88	3073.12
414.07	3021.63
414.26	3115.25
414.45	3054.40
414.64	3112.91
414.83	3218.24
415.02	3260.37
415.22	3370.37
415.41	3248.66
415.60	3192.49
415.79	3363.35
415.98	3466.33
416.17	3328.24
416.36	3349.31
416.55	3396.12
416.74	3524.85
416.93	3358.67
417.12	3398.46
417.31	3548.25
417.50	3459.31
417.69	3651.24
417.88	3569.32
418.07	3496.76
418.26	3669.96
418.45	3651.24
418.64	3782.31
418.83	3702.73
419.02	3686.34
419.21	3651.24
419.39	3691.02
419.58	3655.92
419.77	3817.41
419.96	3737.84
420.15	3857.20
420.34	3758.90
420.53	4074.87
420.72	3969.55
420.91	3894.65
421.10	3906.35
421.29	4044.45
421.48	4070.19
421.67	4025.72
421.86	3943.80
422.05	3936.78
422.24	3758.90
422.43	3866.56
422.61	3957.85
422.80	4180.20
422.99	4018.70
423.18	4023.38
423.37	4042.11
423.56	4035.08
423.75	3962.53
423.94	4072.53
424.13	3894.65
424.32	4081.89
424.50	4070.19
424.69	4184.88
424.88	4161.47
425.07	4072.53
425.26	4145.09
425.45	4091.26
425.64	4049.13
425.83	4004.66
426.01	4325.31
426.20	4276.16
426.39	4189.56
426.58	4067.85
426.77	4035.08
426.96	4205.94
427.15	4180.20
427.33	4194.24
427.52	4248.07
427.71	4222.33
427.90	4322.97
428.09	4386.16
428.28	4266.80
428.46	4217.65
428.65	4379.14
428.84	4402.55
429.03	4447.02
429.22	4290.20
429.40	4334.67
429.59	4236.37
429.78	3927.42
429.97	4133.39
430.16	4203.60
430.34	4070.19
430.53	4390.84
430.72	4170.83
430.91	4327.65
431.10	4470.42
431.28	4510.21
431.47	4723.20
431.66	4760.65
431.85	4674.05
432.03	4690.43
432.22	4917.47
432.41	4856.61
432.60	4968.96
432.79	4954.91
432.97	4917.47
433.16	4919.81
433.35	4788.74
433.54	4901.08
433.72	4760.65
433.91	4697.46
434.10	4990.02
434.28	4889.38
434.47	5013.43
434.66	5004.07
434.85	5158.54
435.03	5203.01
435.22	5114.07
435.41	5205.35
435.59	5334.08
435.78	5259.18
435.97	5357.49
436.16	5303.65
436.34	5294.29
436.53	5352.81
436.72	5441.75
436.90	5296.63
437.09	5275.57
437.28	5341.10
437.46	5394.93
437.65	5427.70
437.84	5320.04
438.02	5369.19
438.21	5226.42
438.40	5268.55
438.58	5603.24
438.77	5518.98
438.96	5664.10
439.14	5748.36
439.33	5888.79
439.52	5823.25
439.70	5790.49
439.89	5947.30
440.08	5959.00
440.26	5710.91
440.45	6024.54
440.63	6136.88
440.82	6155.61
441.01	6169.65
441.19	6164.97
441.38	6434.13
441.57	6129.86
441.75	6392.00
441.94	6583.93
442.12	6548.82
442.31	6651.80
442.50	6579.25
442.68	6314.77
442.87	6518.39
443.05	6574.56
443.24	6675.21
443.43	6665.85
443.61	6726.70
443.80	7023.95
443.98	6621.38
444.17	6661.16
444.35	6878.83
444.54	6803.94
444.73	6813.30
444.91	6745.42
445.10	6670.53
445.28	6628.40
445.47	6731.38
445.65	6581.59
445.84	6740.74
446.02	6740.74
446.21	6707.98
446.39	6806.28
446.58	6796.92
446.77	6862.45
446.95	6960.75
447.14	7133.95
447.32	6883.52
447.51	7002.88
447.69	6829.68
447.88	6916.28
448.06	6771.17
448.25	6944.37
448.43	7045.01
448.62	7075.44
448.80	6984.16
448.99	7272.04
449.17	7185.44
449.36	7007.56
449.54	7246.30
449.73	7323.54
449.91	7407.80
450.10	7552.91
450.28	7552.91
450.46	7686.32
450.65	7410.14
450.83	7552.91
451.02	7522.48
451.20	7595.04
451.39	7403.11
451.57	7485.03
451.76	7534.18
451.94	7487.37
452.13	7496.74
452.31	7573.97
452.49	7349.28
452.68	7435.88
452.86	7487.37
453.05	7609.08
453.23	7513.12
453.42	7653.55
453.60	7648.87
453.78	7667.60
453.97	7953.14
454.15	7728.45
454.34	7651.21
454.52	7620.78
454.70	7826.75
454.89	7756.54
455.07	7588.02
455.26	8184.85
455.44	7868.88
455.62	8100.59
455.81	8077.19
455.99	8133.36
456.17	8152.09
456.36	8208.26
456.54	8131.02
456.73	8351.03
456.91	8437.63
457.09	8531.25
457.28	8446.99
457.46	8248.05
457.64	8421.25
457.83	8215.28
458.01	8255.07
458.19	8477.42
458.38	8489.12
458.56	8575.72
458.74	8688.07
458.93	8676.37
459.11	8685.73
459.29	8624.87
459.48	8552.32
459.66	8704.45
459.84	8629.56
460.03	8868.29
460.21	8854.25
460.39	8823.82
460.57	8950.21
460.76	9029.79
460.94	8933.82
461.12	8865.95
461.31	9029.79
461.49	9050.85
461.67	9160.86
461.85	9245.12
462.04	9018.08
462.22	9694.50
462.40	9406.61
462.59	9200.65
462.77	9121.07
462.95	9259.16
463.13	9317.67
463.32	9074.26
463.50	9111.71
463.68	9568.11
463.86	9523.64
464.05	9228.73
464.23	9535.34
464.41	9430.02
464.59	9149.15
464.78	9575.13
464.96	9528.32
465.14	9406.61
465.32	9472.15
465.50	9474.49
465.69	9949.62
465.87	9338.74
466.05	9507.26
466.23	9507.26
466.41	9617.26
466.60	9818.55
466.78	9640.67
466.96	9495.55
467.14	9631.30
467.32	9671.09
467.51	10012.81
467.69	9685.14
467.87	9584.49
468.05	9837.27
468.23	9720.24
468.41	9809.19
468.60	9856.00
468.78	9879.40
468.96	9937.91
469.14	10003.45
469.32	10263.25
469.50	9970.68
469.69	10022.17
469.87	10097.07
470.05	10008.13
470.23	10083.03
470.41	10438.79
470.59	10284.31
470.77	9966.00
470.95	10171.97
471.14	10663.48
471.32	10352.19
471.50	10614.33
471.68	10609.65
471.86	10588.58
472.04	10846.04
472.22	10998.18
472.40	10541.77
472.58	10616.67
472.77	10977.11
472.95	10733.70
473.13	11124.57
473.31	10761.78
473.49	10764.12
473.67	11154.99
473.85	11220.53
474.03	11276.70
474.21	11463.94
474.39	11229.89
474.57	11325.85
474.75	11602.04
474.93	11641.82
475.12	11632.46
475.30	11800.98
475.48	11620.76
475.66	11887.58
475.84	11667.57
476.02	11850.13
476.20	11824.39
476.38	12177.81
476.56	12287.81
476.74	12297.17
476.92	12437.61
477.10	12226.96
477.28	12521.87
477.46	12444.63
477.64	12645.91
477.82	12966.57
478.00	13053.17
478.18	12922.10
478.36	13008.70
478.54	13130.41
478.72	13261.48
478.90	13303.60
479.08	13509.57
479.26	13460.42
479.44	13605.53
479.62	13600.85
479.80	13837.25
479.98	13914.48
480.16	14143.86
480.34	13982.36
480.52	14073.64
480.70	14181.31
480.88	14253.86
481.06	14352.16
481.24	14590.90
481.41	14750.06
481.59	15133.90
481.77	15169.01
481.95	15026.24
482.13	15047.30
482.31	15101.14
482.49	15386.68
482.67	15452.22
482.85	15510.73
483.03	15957.77
483.21	16053.73
483.39	15665.21
483.57	16119.27
483.74	15929.69
483.92	16189.49
484.10	15948.41
484.28	16472.69
484.46	16475.03
484.64	16893.99
484.82	16643.55
485.00	16606.10
485.18	16896.33
485.35	17053.14
485.53	16631.85
485.71	16720.79
485.89	17018.04
486.07	17034.42
486.25	17015.69
486.43	17444.01
486.61	17453.37
486.78	17792.75
486.96	17848.93
487.14	18288.95
487.32	18532.36
487.50	18527.68
487.68	18700.88
487.85	18689.18
488.03	19012.17
488.21	19140.90
488.39	19098.77
488.57	19377.30
488.75	19335.17
488.92	20027.96
489.10	19880.51
489.28	20194.14
489.46	20524.16
489.64	20070.09
489.81	20531.18
489.99	20744.17
490.17	21048.44
490.35	20772.25
490.53	21261.43
490.70	21235.68
490.88	20936.09
491.06	21656.98
491.24	21469.73
491.41	21310.58
491.59	21483.78
491.77	21221.64
491.95	21586.76
492.13	22029.12
492.30	22263.18
492.48	22314.67
492.66	22506.59
492.84	22408.29
493.01	22782.77
493.19	22817.88
493.37	23168.96
493.54	23136.20
493.72	23267.27
493.90	23433.44
494.08	23522.38
494.25	23924.96
494.43	23960.06
494.61	24374.34
494.79	24243.27
494.96	24336.89
495.14	24093.47
495.32	24690.31
495.49	24423.49
495.67	24748.82
495.85	24680.95
496.02	24982.88
496.20	25039.05
496.38	25284.81
496.55	25511.84
496.73	25633.55
496.91	25469.71
497.09	26089.95
497.26	25898.03
497.44	25986.97
497.62	26155.49
497.79	25975.27
497.97	25930.80
498.14	26132.08
498.32	26316.98
498.50	26515.93
498.67	26635.30
498.85	27243.84
499.03	26843.60
499.20	26515.93
499.38	27428.74
499.56	27307.03
499.73	27349.16
499.91	27330.44
500.08	27222.77
500.26	27131.49
500.44	27810.25
500.61	27573.85
500.79	27445.12
500.97	27683.86
501.14	28140.26
501.32	27623.00
501.49	28046.64
501.67	28002.17
501.84	28268.99
502.02	28023.23
502.20	28460.91
502.37	28664.54
502.55	28713.69
502.72	28924.34
502.90	28470.28
503.07	28788.59
503.25	28968.81
503.43	28727.74
503.60	28872.85
503.78	28826.04
503.95	29008.60
504.13	29343.30
504.30	29441.60
504.48	29797.36
504.65	29773.95
504.83	29942.47
505.01	30183.55
505.18	30265.47
505.36	30192.91
505.53	30197.59
505.71	30845.92
505.88	30574.42
506.06	30253.76
506.23	30635.27
506.41	30305.26
506.58	30731.23
506.76	30909.11
506.93	30874.01
507.11	30813.15
507.28	30705.49
507.46	30827.20
507.63	30792.09
507.81	31302.32
507.98	31026.14
508.16	31243.81
508.33	31690.85
508.50	31744.69
508.68	31777.45
508.85	32189.39
509.03	31569.15
509.20	31985.76
509.38	32271.31
509.55	32147.26
509.73	32215.13
509.90	32355.57
510.08	32716.01
510.25	32290.03
510.42	32826.01
510.60	33017.94
510.77	32914.95
510.95	33516.47
511.12	33256.67
511.30	32889.21
511.47	33486.04
511.64	33095.18
511.82	33574.98
511.99	32863.46
512.17	33289.44
512.34	33270.72
512.51	33600.73
512.69	33577.33
512.86	33263.69
513.04	33989.26
513.21	33706.05
513.38	34087.56
513.56	33951.81
513.73	33872.23
513.90	34110.97
514.08	33996.28
514.25	34679.72
514.43	34092.24
514.60	34209.27
514.77	34206.93
514.95	34487.79
515.12	34707.80
515.29	34637.59
515.47	34653.97
515.64	34735.89
515.81	34724.19
515.99	34820.15
516.16	34646.95
516.33	34281.83
516.51	34597.80
516.68	34225.65
516.85	33914.36
517.03	34719.51
517.20	34642.27
517.37	35026.12
517.54	35791.47
517.72	35232.08
517.89	34780.36
518.06	35089.31
518.24	34670.36
518.41	35026.12
518.58	35381.88
518.75	35484.86
518.93	35672.10
519.10	35899.14
519.27	35889.77
519.45	35786.79
519.62	36105.10
519.79	36079.36
519.96	36474.91
520.14	36409.37
520.31	36067.66
520.48	36275.96
520.65	36825.99
520.83	36690.24
521.00	37191.11
521.17	36790.88
521.34	36943.02
521.52	37097.49
521.69	37095.15
521.86	37165.37
522.03	37090.47
522.20	37202.82
522.38	37432.19
522.55	37130.26
522.72	37240.26
522.89	37368.99
523.07	37247.29
523.24	37514.11
523.41	37809.01
523.58	37617.09
523.75	38225.63
523.92	38136.69
524.10	38347.34
524.27	38169.46
524.44	38029.02
524.61	38384.79
524.78	38391.81
524.96	38763.95
525.13	38494.79
525.30	38925.45
525.47	38799.06
525.64	38862.26
525.81	38529.90
525.98	38618.84
526.16	38291.16
526.33	37951.79
526.50	38440.96
526.67	38213.93
526.84	38387.13
527.01	38258.40
527.18	39028.43
527.36	38756.93
527.53	39222.70
527.70	39180.57
527.87	39246.10
528.04	39264.83
528.21	39658.04
528.38	39798.47
528.55	40102.74
528.72	40119.12
528.89	40238.49
529.07	39791.45
529.24	39920.18
529.41	40362.54
529.58	39793.79
529.75	39871.03
529.92	40154.23
530.09	40201.04
530.26	40280.62
530.43	40374.24
530.60	40299.34
530.77	40320.41
530.94	40751.07
531.11	40418.71
531.28	40865.75
531.46	40547.44
531.63	40198.70
531.80	40692.55
531.97	40357.86
532.14	40172.96
532.31	40039.54
532.48	40526.38
532.65	40704.26
532.82	40549.78
532.99	40446.80
533.16	40650.42
533.33	41331.52
533.50	40828.30
533.67	40741.71
533.84	40914.90
534.01	40870.43
534.18	41095.13
534.35	41333.86
534.52	41116.19
534.69	41256.62
534.86	41244.92
535.03	41549.19
535.20	41881.55
535.37	41799.63
535.54	41752.82
535.71	42183.48
535.88	41574.94
536.05	41954.10
536.22	41904.95
536.38	42237.31
536.55	41926.02
536.72	41542.17
536.89	41556.21
537.06	41654.51
537.23	42368.38
537.40	42267.73
537.57	42029.00
537.74	42134.32
537.91	42213.90
538.08	41979.85
538.25	41902.61
538.42	42628.18
538.59	42412.85
538.75	41762.18
538.92	42213.90
539.09	42298.16
539.26	42087.51
539.43	42347.31
539.60	42351.99
539.77	42415.19
539.94	42155.39
540.11	42017.30
540.28	42007.94
540.44	42476.04
540.61	42323.91
540.78	42342.63
540.95	42351.99
541.12	42663.28
541.29	42768.61
541.46	42976.92
541.62	42682.01
541.79	42958.19
541.96	42555.62
542.13	43171.18
542.30	42852.87
542.47	42803.72
542.63	42927.77
542.80	43278.85
542.97	43770.36
543.14	43875.68
543.31	43459.07
543.48	43700.14
543.64	44013.77
543.81	43800.79
543.98	44196.34
544.15	43948.24
544.32	43643.97
544.48	44020.80
544.65	43732.91
544.82	44292.30
544.99	44016.11
545.16	43997.39
545.32	43632.27
545.49	44051.22
545.66	44313.36
545.83	44186.97
546.00	44226.76
546.16	44280.60
546.33	44079.31
546.50	44039.52
546.67	44568.48
546.83	43990.37
547.00	44165.91
547.17	44137.82
547.34	43730.57
547.50	44109.74
547.67	44566.14
547.84	44296.98
548.00	44594.23
548.17	44832.96
548.34	44634.02
548.51	44758.06
548.67	44987.44
548.84	44830.62
549.01	44928.92
549.18	44718.28
549.34	44538.05
549.51	44718.28
549.68	45113.83
549.84	45141.91
550.01	44863.39
550.18	45144.25
550.34	44758.06
550.51	45071.70
550.68	45059.99
550.84	44818.92
551.01	45120.85
551.18	44868.07
551.34	45214.47
551.51	44928.92
551.68	45240.21
551.84	45595.98
552.01	45359.58
552.18	45104.46
552.34	45221.49
552.51	45329.16
552.68	45551.51
552.84	45385.33
553.01	45572.57
553.18	45771.52
553.34	45338.52
553.51	45263.62
553.67	45617.04
553.84	45844.07
554.01	45490.65
554.17	45390.01
554.34	45701.30
554.51	45652.15
554.67	45935.35
554.84	45804.28
555.00	45705.98
555.17	45483.63
555.33	46162.39
555.50	45806.62
555.67	45813.65
555.83	45752.79
556.00	46064.08
556.16	46007.91
556.33	45848.75
556.50	45624.06
556.66	45574.91
556.83	45350.22
556.99	46071.10
557.16	46218.56
557.32	45893.22
557.49	45815.99
557.65	45588.95
557.82	46181.11
557.98	45940.04
558.15	45729.39
558.32	46174.09
558.48	46036.00
558.65	46141.32
558.81	45844.07
558.98	45834.71
559.14	45790.24
559.31	45895.56
559.47	46452.61
559.64	46438.57
559.80	46429.21
559.97	46347.29
560.13	45961.10
560.30	46258.35
560.46	46085.15
560.63	46209.20
560.79	46459.63
560.96	46431.55
561.12	45897.91
561.29	46349.63
561.45	46337.93
561.61	46340.27
561.78	46073.45
561.94	46410.48
562.11	46195.15
562.27	46050.04
562.44	46146.00
562.60	46536.87
562.77	46579.00
562.93	46419.84
563.10	46724.11
563.26	46251.33
563.42	46777.95
563.59	46349.63
563.75	46646.88
563.92	46738.16
564.08	46719.43
564.24	46431.55
564.41	46459.63
564.57	46616.45
564.74	46590.70
564.90	46586.02
565.07	46621.13
565.23	46513.47
565.39	46878.59
565.56	46368.35
565.72	46459.63
565.88	46878.59
566.05	46663.26
566.21	46263.03
566.38	46101.53
566.54	46635.17
566.70	46639.86
566.87	47138.39
567.03	46700.71
567.19	46803.69
567.36	46894.97
567.52	46623.47
567.68	46801.35
567.85	46717.09
568.01	46658.58
568.17	46974.55
568.34	46775.61
568.50	46630.49
568.66	46639.86
568.83	46394.10
568.99	46417.50
569.15	46660.92
569.32	46487.72
569.48	46752.20
569.64	47124.35
569.81	46777.95
569.97	46466.66
570.13	46871.57
570.30	46721.77
570.46	46092.17
570.62	46639.86
570.78	46600.07
570.95	47030.72
571.11	46532.19
571.27	46988.60
571.43	46550.91
571.60	46880.93
571.76	46227.92
571.92	46604.75
572.09	47079.88
572.25	46923.06
572.41	46841.14
572.57	46763.90
572.74	47210.95
572.90	46969.87
573.06	46916.04
573.22	47157.11
573.38	46796.67
573.55	46894.97
573.71	47124.35
573.87	46520.49
574.03	46696.03
574.20	46733.48
574.36	46618.79
574.52	46930.08
574.68	47171.16
574.84	46660.92
575.01	46691.35
575.17	46784.97
575.33	46546.23
575.49	46543.89
575.65	46859.87
575.82	47187.54
575.98	46934.76
576.14	47157.11
576.30	47009.66
576.46	47002.64
576.62	46457.29
576.79	46815.40
576.95	46586.02
577.11	46944.12
577.27	46862.21
577.43	46773.27
577.59	46883.27
577.75	46473.68
577.92	46761.56
578.08	46354.31
578.24	46211.54
578.40	46824.76
578.56	46988.60
578.72	47002.64
578.88	47311.59
579.04	46946.47
579.21	47058.81
579.37	46803.69
579.53	47028.38
579.69	46646.88
579.85	46885.61
580.01	47131.37
580.17	46522.83
580.33	46925.40
580.49	46918.38
580.65	47473.09
580.82	46972.21
580.98	46876.25
581.14	47070.51
581.30	47327.97
581.46	47243.71
581.62	47529.26
581.78	47007.32
581.94	47349.04
582.10	47077.54
582.26	47089.24
582.42	47002.64
582.58	46993.28
582.74	47416.91
582.90	46960.51
583.06	47178.18
583.22	46813.05
583.38	47381.80
583.54	47290.52
583.70	47391.17
583.86	46969.87
584.02	46827.10
584.18	46967.53
584.34	46766.24
584.50	46644.54
584.66	47243.71
584.82	46962.85
584.98	47302.23
585.14	47250.74
585.30	47047.11
585.46	47145.41
585.62	46784.97
585.78	46941.78
585.94	46644.54
586.10	46752.20
586.26	46866.89
586.42	47234.35
586.58	47000.30
586.74	46927.74
586.90	47103.28
587.06	46897.31
587.22	46796.67
587.38	46916.04
587.54	47484.79
587.70	47182.86
587.86	47147.75
588.02	47206.26
588.18	47143.07
588.34	46887.95
588.49	46693.69
588.65	45949.40
588.81	46747.52
588.97	46560.28
589.13	46714.75
589.29	46499.42
589.45	46817.74
589.61	46731.14
589.77	46990.94
589.93	47288.18
590.08	47356.06
590.24	46979.23
590.40	47203.92
590.56	47498.83
590.72	47182.86
590.88	47241.37
591.04	46911.36
591.20	47466.06
591.35	47061.15
591.51	47470.75
591.67	46997.96
591.83	47110.30
591.99	46766.24
592.15	47051.79
592.31	47419.25
592.46	47044.77
592.62	46920.72
592.78	47564.37
592.94	47732.89
593.10	47084.56
593.26	47323.29
593.41	47140.73
593.57	47182.86
593.73	47072.85
593.89	47246.05
594.05	47302.23
594.20	47100.94
594.36	47206.26
594.52	47077.54
594.68	47107.96
594.84	46843.48
594.99	47423.93
595.15	46829.44
595.31	47260.10
595.47	47704.80
595.62	47463.72
595.78	46850.50
595.94	47842.89
596.10	47590.11
596.25	47536.28
596.41	47393.51
596.57	46937.10
596.73	47349.04
596.88	47063.49
597.04	47089.24
597.20	46939.44
597.36	47360.74
597.51	47477.77
597.67	47985.66
597.83	47587.77
597.99	47365.42
598.14	47140.73
598.30	47260.10
598.46	47044.77
598.61	46918.38
598.77	47016.68
598.93	47009.66
599.09	47351.38
599.24	47702.46
599.40	47430.96
599.56	47569.05
599.71	47056.47
599.87	47248.39
600.03	46712.41
600.18	46953.49
600.34	46906.68
600.50	47264.78
600.65	47269.46
600.81	46909.02
600.97	47555.00
601.12	47426.28
601.28	47014.34
601.44	46894.97
601.59	47208.61
601.75	46667.94
601.91	46721.77
602.06	46801.35
602.22	47217.97
602.37	46909.02
602.53	47028.38
602.69	47412.23
602.84	46939.44
603.00	47082.22
603.16	47129.03
603.31	47210.95
603.47	46965.19
603.62	47028.38
603.78	47290.52
603.94	47096.26
604.09	46972.21
604.25	47372.44
604.40	46997.96
604.56	47185.20
604.71	47140.73
604.87	47019.02
605.03	46808.37
605.18	47199.24
605.34	46822.42
605.49	46637.51
605.65	47269.46
605.80	46824.76
605.96	46845.82
606.12	47224.99
606.27	47124.35
606.43	47224.99
606.58	46880.93
606.74	46831.78
606.89	46827.10
607.05	47215.63
607.20	47126.69
607.36	46714.75
607.51	46876.25
607.67	46859.87
607.82	46595.38
607.98	46600.07
608.13	46728.80
608.29	46377.72
608.44	46443.25
608.60	46660.92
608.75	46780.29
608.91	46726.46
609.06	46899.65
609.22	46937.10
609.37	46309.84
609.53	46841.14
609.68	46209.20
609.84	46770.93
609.99	46494.74
610.15	46564.96
610.30	46560.28
610.46	46328.56
610.61	46567.30
610.76	46733.48
610.92	46553.26
611.07	46674.96
611.23	46890.29
611.38	46190.47
611.54	45963.44
611.69	45979.82
611.84	46293.46
612.00	46443.25
612.15	45771.52
612.31	46323.88
612.46	46321.54
612.62	46328.56
612.77	46241.96
612.92	46473.68
613.08	45720.02
613.23	46244.30
613.39	45977.48
613.54	45886.20
613.69	45727.05
613.85	45553.85
614.00	45806.62
614.15	46089.83
614.31	46143.66
614.46	46068.76
614.62	46389.42
614.77	46075.79
614.92	46396.44
615.08	45771.52
615.23	45624.06
615.38	46286.43
615.54	46080.47
615.69	45404.05
615.84	45612.36
616.00	45881.52
616.15	45626.40
616.30	45790.24
616.46	45858.12
616.61	45155.96
616.76	45420.44
616.92	45160.64
617.07	44891.48
617.22	45228.51
617.37	45221.49
617.53	45755.13
617.68	45572.57
617.83	45558.53
617.99	45654.49
618.14	45352.56
618.29	45366.60
618.45	45287.03
618.60	44793.17
618.75	45010.84
618.90	45420.44
619.06	45001.48
619.21	45390.01
619.36	45645.13
619.51	45610.02
619.67	44751.04
619.82	45851.09
619.97	45179.36
620.12	44949.99
620.28	44699.55
620.43	44605.93
620.58	44739.34
620.73	44954.67
620.89	44566.14
621.04	45191.06
621.19	44760.40
621.34	45291.71
621.49	44392.94
621.65	44725.30
621.80	44928.92
621.95	44556.78
622.10	44598.91
622.25	44514.65
622.41	44376.56
622.56	44521.67
622.71	44971.05
622.86	44615.29
623.01	44423.37
623.16	44414.01
623.32	44814.24
623.47	44332.09
623.62	44435.07
623.77	44369.54
623.92	44552.10
624.07	44697.21
624.23	44196.34
624.38	44449.11
624.53	44100.37
624.68	44266.55
624.83	44563.80
624.98	43934.20
625.13	43578.43
625.29	43430.98
625.44	43973.98
625.59	43784.40
625.74	43789.08
625.89	43543.33
626.04	43744.61
626.19	43749.29
626.34	44194.00
626.49	43756.32
626.65	44025.48
626.80	44076.97
626.95	43620.56
627.10	43328.00
627.25	43683.76
627.40	43494.18
627.55	43096.28
627.70	43311.61
627.85	43430.98
628.00	42848.19
628.15	43711.84
628.30	43342.04
628.45	43452.05
628.60	43168.84
628.76	43959.94
628.91	43274.16
629.06	43353.74
629.21	42838.83
629.36	43112.67
629.51	43292.89
629.66	43168.84
629.81	42784.99
629.96	43122.03
630.11	43023.73
630.26	43512.90
630.41	43325.66
630.56	43021.39
630.71	43283.53
630.86	43178.20
631.01	42740.52
631.16	42946.49
631.31	42611.79
631.46	42340.29
631.61	42679.67
631.76	43065.86
631.91	42869.25
632.06	43143.09
632.21	42511.15
632.36	42815.42
632.51	42462.00
632.66	42658.60
632.81	42656.26
632.96	42660.94
633.10	42777.97
633.25	42319.23
633.40	42239.65
633.55	42880.95
633.70	42375.40
633.85	42366.04
634.00	42443.27
634.15	42223.26
634.30	42361.36
634.45	42274.76
634.60	42955.85
634.75	42546.26
634.90	42206.88
635.05	42323.91
635.19	42045.38
635.34	42581.37
635.49	42241.99
635.64	42075.81
635.79	41727.07
635.94	42061.77
636.09	42211.56
636.24	41708.35
636.39	41771.54
636.53	41832.39
636.68	42038.36
636.83	41998.57
636.98	41968.15
637.13	41556.21
637.28	42124.96
637.43	42019.64
637.57	42082.83
637.72	41851.12
637.87	41968.15
638.02	41816.01
638.17	41642.81
638.32	41455.57
638.46	41926.02
638.61	41764.52
638.76	41546.85
638.91	41448.55
639.06	41663.88
639.20	41401.74
639.35	41628.77
639.50	41851.12
639.65	41832.39
639.80	41457.91
639.94	41455.57
640.09	41242.58
640.24	41523.44
640.39	41069.38
640.54	41095.13
640.68	41338.54
640.83	41343.22
640.98	40882.14
641.13	40701.92
641.27	41036.61
641.42	41186.41
641.57	41170.02
641.72	40797.88
641.86	41003.85
642.01	40306.37
642.16	40465.52
642.31	40357.86
642.45	40919.59
642.60	40641.06
642.75	40896.18
642.90	40868.09
643.04	40816.60
643.19	40591.91
643.34	40591.91
643.48	40437.44
643.63	40250.19
643.78	40404.67
643.93	40435.10
644.07	40928.95
644.22	40601.27
644.37	40493.61
644.51	40470.20
644.66	40371.90
644.81	40280.62
644.95	40814.26
645.10	40807.24
645.25	40601.27
645.39	40919.59
645.54	40189.34
645.69	40634.04
645.83	40369.56
645.98	39852.30
646.13	40247.85
646.27	40140.19
646.42	39934.22
646.57	40112.10
646.71	40163.59
646.86	39793.79
647.00	40179.98
647.15	40156.57
647.30	40107.42
647.44	39739.96
647.59	39943.58
647.74	39754.00
647.88	39697.83
648.03	40203.38
648.17	39974.01
648.32	39704.85
648.47	40229.13
648.61	39636.97
648.76	39955.29
648.90	40074.65
649.05	39328.02
649.20	39454.41
649.34	39543.35
649.49	39342.06
649.63	39262.49
649.78	39108.01
649.92	39578.46
650.07	40084.01
650.21	39533.99
650.36	39164.18
650.51	39718.89
650.65	39856.98
650.80	39929.54
650.94	39873.37
651.09	39297.59
651.23	39210.99
651.38	39512.92
651.52	38944.17
651.67	39344.41
651.81	38785.02
651.96	39002.69
652.10	39124.40
652.25	38864.60
652.39	39152.48
652.54	38899.70
652.68	39192.27
652.83	39091.63
652.97	39309.30
653.12	39304.62
653.26	38848.21
653.41	38974.60
653.55	38717.14
653.70	38799.06
653.84	38747.57
653.99	38515.86
654.13	38433.94
654.27	38429.26
654.42	38054.77
654.56	38232.65
654.71	38831.83
654.85	38153.07
655.00	38600.12
655.14	38162.43
655.29	38337.98
655.43	38277.12
655.57	38052.43
655.72	37860.51
655.86	37574.96
656.01	37659.22
656.15	37771.57
656.30	37862.85
656.44	37783.27
656.58	38225.63
656.73	38155.41
656.87	37942.42
657.01	37736.46
657.16	37928.38
657.30	37666.24
657.45	37319.84
657.59	37741.14
657.73	37886.25
657.88	38370.74
658.02	38761.61
658.16	38366.06
658.31	38031.36
658.45	37844.12
658.60	37677.94
658.74	37816.04
658.88	37935.40
659.03	37649.86
659.17	37441.55
659.31	37226.22
659.46	37134.94
659.60	37340.91
659.74	37502.40
659.89	37237.92
660.03	37507.08
660.17	37247.29
660.32	37397.08
660.46	37729.44
660.60	37350.27
660.74	37581.98
660.89	37219.20
661.03	36470.23
661.17	36708.96
661.32	36680.88
661.46	37022.59
661.60	37200.47
661.74	37104.51
661.89	36833.01
662.03	37031.96
662.17	36561.51
662.31	36540.44
662.46	36896.20
662.60	36793.22
662.74	36643.43
662.88	36896.20
663.03	36395.33
663.17	36163.62
663.31	36077.02
663.45	35967.01
663.60	36187.02
663.74	35761.05
663.88	36086.38
664.02	35885.09
664.17	36236.17
664.31	36023.19
664.45	35924.88
664.59	35697.85
664.73	35854.67
664.88	35992.76
665.02	35557.42
665.16	35449.75
665.30	35454.44
665.44	35250.81
665.59	35180.59
665.73	35791.47
665.87	34761.64
666.01	35646.36
666.15	35655.72
666.29	35250.81
666.44	35129.10
666.58	35480.18
666.72	34944.20
666.86	35026.12
667.00	35707.21
667.14	34927.81
667.28	34754.61
667.43	34696.10
667.57	35082.29
667.71	34597.80
667.85	34756.96
667.99	34623.54
668.13	34403.53
668.27	34712.49
668.41	34773.34
668.56	34260.76
668.70	34555.67
668.84	34330.98
668.98	33851.17
669.12	34202.25
669.26	33905.00
669.40	34120.33
669.54	33979.90
669.68	34167.14
669.82	33488.38
669.96	33764.57
670.10	33741.16
670.25	33666.27
670.39	33535.20
670.53	33443.91
670.67	32964.10
670.81	33881.60
670.95	33078.79
671.09	33160.71
671.23	33167.73
671.37	33198.16
671.51	32776.86
671.65	32952.40
671.79	32755.80
671.93	32929.00
672.07	33113.90
672.21	33275.40
672.35	33205.18
672.49	32800.27
672.63	32655.15
672.77	32910.27
672.91	32835.38
673.05	32458.55
673.19	32100.45
673.33	32568.55
673.47	32306.41
673.61	32053.64
673.75	31903.84
673.89	31473.18
674.03	31592.55
674.17	31995.12
674.31	31700.22
674.45	31690.85
674.59	31901.50
674.73	32301.73
674.87	31674.47
675.01	31578.51
675.15	31667.45
675.29	31655.75
675.43	31239.13
675.56	31311.69
675.70	31307.01
675.84	31035.50
675.98	30221.00
676.12	31164.23
676.26	30995.71
676.40	30866.98
676.54	31218.07
676.68	30951.24
676.82	30368.45
676.96	30604.84
677.10	30071.20
677.23	29958.86
677.37	30146.10
677.51	30412.92
677.65	30120.35
677.79	29680.33
677.93	29722.46
678.07	29752.89
678.21	29289.46
678.34	29240.31
678.48	29205.20
678.62	29280.10
678.76	28870.51
678.90	28627.09
679.04	28699.65
679.18	28933.70
679.31	28596.67
679.45	28580.28
679.59	28760.50
679.73	28613.05
679.87	28390.70
680.00	28166.01
680.14	28147.28
680.28	28610.71
680.42	28261.97
680.56	28233.88
680.70	27812.59
680.83	28467.94
680.97	27667.47
681.11	27604.28
681.25	27749.39
681.39	27733.01
681.52	27630.02
681.66	27461.51
681.80	27398.31
681.94	27468.53
682.07	27103.40
682.21	26953.61
682.35	26885.73
682.49	27402.99
682.62	27014.46
682.76	26696.15
682.90	26513.59
683.04	26518.27
683.17	26419.97
683.31	26218.68
683.45	26157.83
683.59	26171.87
683.72	25764.62
683.86	26010.37
684.00	26305.28
684.13	25937.82
684.27	25481.41
684.41	25521.20
684.55	25579.71
684.68	25621.84
684.82	25441.62
684.96	25404.17
685.09	25390.13
685.23	25123.31
685.37	24879.89
685.50	24889.26
685.64	25127.99
685.78	24622.44
685.91	24549.88
686.05	24435.19
686.19	24325.19
686.32	24175.39
686.46	23714.31
686.60	23639.41
686.73	23477.91
686.87	23527.06
687.01	23346.84
687.14	23344.50
687.28	23496.64
687.42	23424.08
687.55	23199.39
687.69	23372.59
687.82	23594.94
687.96	23456.85
688.10	23030.87
688.23	22766.39
688.37	22586.17
688.50	23058.96
688.64	22693.83
688.78	22724.26
688.91	22988.74
689.05	22389.56
689.18	22530.00
689.32	22246.79
689.46	22558.08
689.59	22724.26
689.73	22562.76
689.86	22335.73
690.00	21886.35
690.13	22221.05
690.27	21750.60
690.41	21991.67
690.54	21486.12
690.68	21462.71
690.81	21425.26
690.95	21345.69
691.08	21460.37
691.22	21376.11
691.35	21649.96
691.49	21333.98
691.62	21521.23
691.76	21289.51
691.89	21158.44
692.03	20702.04
692.16	20940.77
692.30	20510.11
692.43	20526.50
692.57	20404.79
692.70	20224.57
692.84	20252.66
692.97	19929.66
693.11	20479.69
693.24	20098.18
693.38	20189.46
693.51	20018.60
693.65	19892.21
693.78	20016.26
693.92	20016.26
694.05	20070.09
694.19	19534.11
694.32	19463.90
694.45	19461.55
694.59	19185.37
694.72	19323.46
694.86	19459.21
694.99	19030.90
695.13	19232.18
695.26	18815.57
695.39	18604.92
695.53	18916.21
695.66	19262.61
695.80	18764.07
695.93	18607.26
696.07	18560.45
696.20	18621.30
696.33	18548.75
696.47	18370.86
696.60	18249.16
696.73	17987.02
696.87	18082.98
697.00	18363.84
697.14	17750.62
697.27	18221.07
697.40	17968.29
697.54	17680.41
697.67	17809.14
697.80	17561.04
697.94	17355.07
698.07	17483.80
698.21	17231.02
698.34	17481.46
698.47	17191.23
698.61	17062.51
698.74	16943.14
698.87	17245.07
699.01	16798.02
699.14	16793.34
699.27	16613.12
699.40	16737.17
699.54	16652.91
699.67	16329.92
699.80	16535.88
699.94	16341.62
700.07	16498.44
700.20	16477.37
700.34	15995.22
700.47	16290.13
700.60	16184.80
700.73	16327.58
700.87	15840.75
701.00	15875.85
701.13	15770.53
701.26	15667.55
701.40	15702.65
701.53	15674.57
701.66	15681.59
701.79	15527.11
701.93	15328.17
702.06	15140.93
702.19	14963.04
702.32	15080.07
702.46	15157.31
702.59	14923.26
702.72	15108.16
702.85	14930.28
702.99	14951.34
703.12	14672.82
703.25	14803.89
703.38	14583.88
703.51	14558.13
703.65	14530.05
703.78	14649.41
703.91	14127.47
704.04	14305.35
704.17	14281.95
704.31	14239.82
704.44	14228.12
704.57	14251.52
704.70	14031.51
704.83	13760.01
704.96	13895.76
705.10	13977.68
705.23	14024.49
>>>>>End Processed Spectral Data<<<<<
