SpectraSuite Data File
++++++++++++++++++++++++++++++++++++
Date: Fri Oct 25 10:44:18 EDT 2013
User: price-jones
Dark Spectrum Present: No
Reference Spectrum Present: No
Number of Sampled Component Spectra: 1
Spectrometers: USB2+H05261
Integration Time (usec): 100000 (USB2+H05261)
Spectra Averaged: 1 (USB2+H05261)
Boxcar Smoothing: 0 (USB2+H05261)
Correct for Electrical Dark: No (USB2+H05261)
Strobe/Lamp Enabled: No (USB2+H05261)
Correct for Detector Non-linearity: No (USB2+H05261)
Correct for Stray Light: No (USB2+H05261)
Number of Pixels in Processed Spectrum: 2048
>>>>>Begin Processed Spectral Data<<<<<
365.73	212.99
365.92	212.99
366.12	212.99
366.32	37.45
366.52	49.15
366.72	84.26
366.91	42.13
367.11	2.34
367.31	0.00
367.51	46.81
367.70	25.75
367.90	53.83
368.10	7.02
368.30	7.02
368.49	35.11
368.69	79.58
368.89	51.49
369.09	35.11
369.28	49.15
369.48	102.98
369.68	74.90
369.87	84.26
370.07	86.60
370.27	175.54
370.47	201.29
370.66	322.99
370.86	379.17
371.06	461.09
371.25	543.00
371.45	507.90
371.65	468.11
371.84	472.79
372.04	468.11
372.24	468.11
372.44	491.51
372.63	517.26
372.83	496.19
373.03	517.26
373.22	458.74
373.42	517.26
373.62	610.88
373.81	531.30
374.01	564.07
374.21	547.69
374.40	503.22
374.60	587.47
374.79	531.30
374.99	550.03
375.19	578.11
375.38	617.90
375.58	571.09
375.78	638.97
375.97	615.56
376.17	662.37
376.37	660.03
376.56	603.86
376.76	585.13
376.95	655.35
377.15	667.05
377.35	645.99
377.54	634.29
377.74	636.63
377.93	613.22
378.13	695.14
378.33	690.46
378.52	664.71
378.72	681.10
378.91	688.12
379.11	615.56
379.31	622.58
379.50	702.16
379.70	688.12
379.89	681.10
380.09	692.80
380.28	753.65
380.48	730.25
380.68	702.16
380.87	774.72
381.07	739.61
381.26	697.48
381.46	664.71
381.65	713.86
381.85	695.14
382.04	725.57
382.24	720.88
382.43	655.35
382.63	713.86
382.83	664.71
383.02	800.46
383.22	835.57
383.41	767.70
383.61	758.33
383.80	711.52
384.00	812.17
384.19	798.12
384.39	926.85
384.58	840.25
384.78	758.33
384.97	842.59
385.17	767.70
385.36	873.02
385.56	823.87
385.75	765.36
385.95	795.78
386.14	840.25
386.34	842.59
386.53	786.42
386.72	849.61
386.92	873.02
387.11	875.36
387.31	826.21
387.50	851.96
387.70	868.34
387.89	908.13
388.09	912.81
388.28	840.25
388.48	873.02
388.67	922.17
388.86	868.34
389.06	945.58
389.25	905.79
389.45	1013.45
389.64	1015.79
389.84	1008.77
390.03	1029.84
390.22	1008.77
390.42	1062.60
390.61	957.28
390.81	1071.97
391.00	1050.90
391.19	1097.71
391.39	1153.88
391.58	1128.14
391.78	1078.99
391.97	1095.37
392.16	1153.88
392.36	1053.24
392.55	1025.15
392.75	1144.52
392.94	966.64
393.13	1020.47
393.33	976.00
393.52	1081.33
393.71	1050.90
393.91	1062.60
394.10	1118.78
394.29	1116.44
394.49	1160.91
394.68	1196.01
394.88	1221.76
395.07	1282.61
395.26	1249.85
395.46	1306.02
395.65	1299.00
395.84	1179.63
396.04	1299.00
396.23	1263.89
396.42	1123.46
396.62	1158.57
396.81	1273.25
397.00	1200.69
397.19	1287.29
397.39	1416.02
397.58	1352.83
397.77	1348.15
397.97	1589.22
398.16	1378.58
398.35	1516.67
398.55	1401.98
398.74	1472.20
398.93	1516.67
399.12	1554.12
399.32	1561.14
399.51	1556.46
399.70	1593.90
399.90	1486.24
400.09	1626.67
400.28	1593.90
400.47	1593.90
400.67	1687.53
400.86	1724.97
401.05	1629.01
401.24	1661.78
401.44	1715.61
401.63	1788.17
401.82	1767.10
402.01	1724.97
402.21	1750.72
402.40	1853.70
402.59	1710.93
402.78	1743.70
402.97	1732.00
403.17	1849.02
403.36	1902.86
403.55	1998.82
403.74	1944.99
403.93	1935.62
404.13	1905.20
404.32	1930.94
404.51	1973.07
404.70	1977.75
404.89	1877.11
405.09	1989.46
405.28	1858.39
405.47	2026.90
405.66	1996.48
405.85	2012.86
406.05	1984.77
406.24	2064.35
406.43	2040.95
406.62	2188.40
406.81	2214.15
407.00	2022.22
407.20	2169.68
407.39	2101.80
407.58	2195.42
407.77	2162.66
407.96	2174.36
408.15	2354.58
408.34	2298.41
408.54	2352.24
408.73	2342.88
408.92	2333.51
409.11	2434.16
409.30	2296.07
409.49	2370.96
409.68	2267.98
409.87	2317.13
410.07	2445.86
410.26	2406.07
410.45	2415.43
410.64	2487.99
410.83	2546.50
411.02	2548.84
411.21	2534.80
411.40	2752.47
411.59	2703.32
411.78	2642.46
411.98	2684.59
412.17	2705.66
412.36	2761.83
412.55	2658.85
412.74	2710.34
412.93	2857.79
413.12	2750.13
413.31	2939.71
413.50	2897.58
413.69	2857.79
413.88	2979.50
414.07	3052.06
414.26	3075.46
414.45	3042.70
414.64	3077.80
414.83	3211.22
415.02	3155.04
415.22	3185.47
415.41	3243.98
415.60	3248.66
415.79	3311.86
415.98	3183.13
416.17	3318.88
416.36	3323.56
416.55	3368.03
416.74	3152.70
416.93	3318.88
417.12	3311.86
417.31	3431.23
417.50	3410.16
417.69	3445.27
417.88	3618.47
418.07	3463.99
418.26	3496.76
418.45	3555.27
418.64	3859.54
418.83	3597.40
419.02	3548.25
419.21	3578.68
419.39	3667.62
419.58	3574.00
419.77	3606.77
419.96	3721.45
420.15	3840.82
420.34	3693.37
420.53	3880.61
420.72	3974.23
420.91	3847.84
421.10	4002.32
421.29	3864.22
421.48	3833.80
421.67	3918.06
421.86	3854.86
422.05	3847.84
422.24	3847.84
422.43	3784.65
422.61	3941.46
422.80	3932.10
422.99	3953.16
423.18	4011.68
423.37	4086.58
423.56	3904.01
423.75	4007.00
423.94	3922.74
424.13	3765.92
424.32	3868.91
424.50	4138.07
424.69	4028.06
424.88	4215.30
425.07	4067.85
425.26	4030.40
425.45	3995.29
425.64	3815.07
425.83	3922.74
426.01	4203.60
426.20	4042.11
426.39	4145.09
426.58	3955.51
426.77	4086.58
426.96	4042.11
427.15	4191.90
427.33	4224.67
427.52	4187.22
427.71	4285.52
427.90	4222.33
428.09	4318.29
428.28	4231.69
428.46	4201.26
428.65	4248.07
428.84	4407.23
429.03	4402.55
429.22	4152.11
429.40	4231.69
429.59	4081.89
429.78	3946.14
429.97	3981.25
430.16	4018.70
430.34	4091.26
430.53	4280.84
430.72	4149.77
430.91	4360.42
431.10	4365.10
431.28	4550.00
431.47	4547.66
431.66	4770.01
431.85	4624.90
432.03	4669.37
432.22	4704.48
432.41	4648.30
432.60	4748.95
432.79	4741.93
432.97	4856.61
433.16	4954.91
433.35	4564.04
433.54	4718.52
433.72	4660.01
433.91	4690.43
434.10	4678.73
434.28	4837.89
434.47	4917.47
434.66	4896.40
434.85	4983.00
435.03	5029.81
435.22	5001.72
435.41	5219.39
435.59	5170.24
435.78	5090.67
435.97	5261.52
436.16	5242.80
436.34	5277.91
436.53	5259.18
436.72	5453.45
436.90	5298.97
437.09	5334.08
437.28	5139.82
437.46	5413.66
437.65	5231.10
437.84	5331.74
438.02	5247.48
438.21	5348.12
438.40	5203.01
438.58	5446.43
438.77	5493.24
438.96	5572.82
439.14	5701.54
439.33	5673.46
439.52	5839.64
439.70	5809.21
439.89	5668.78
440.08	5944.96
440.26	5626.65
440.45	5771.76
440.63	6040.92
440.82	6139.23
441.01	6115.82
441.19	6003.47
441.38	6148.59
441.57	6232.85
441.75	6111.14
441.94	6424.77
442.12	6413.07
442.31	6572.22
442.50	6478.60
442.68	6406.05
442.87	6504.35
443.05	6520.73
443.24	6595.63
443.43	6581.59
443.61	6602.65
443.80	6780.53
443.98	6331.15
444.17	6274.98
444.35	6686.91
444.54	6679.89
444.73	6565.20
444.91	6675.21
445.10	6473.92
445.28	6366.26
445.47	6520.73
445.65	6438.81
445.84	6553.50
446.02	6724.36
446.21	6600.31
446.39	6506.69
446.58	6717.34
446.77	6808.62
446.95	6647.12
447.14	6640.10
447.32	6832.02
447.51	6825.00
447.69	6736.06
447.88	6850.75
448.06	6733.72
448.25	6789.89
448.43	7016.93
448.62	6764.15
448.80	6942.03
448.99	7007.56
449.17	6988.84
449.36	6937.35
449.54	7260.34
449.73	7066.08
449.91	7131.61
450.10	7290.77
450.28	7194.81
450.46	7349.28
450.65	7131.61
450.83	7316.51
451.02	7133.95
451.20	7435.88
451.39	7304.81
451.57	7360.98
451.76	7101.19
451.94	7096.50
452.13	7337.58
452.31	7241.62
452.49	7274.38
452.68	7344.60
452.86	7274.38
453.05	7389.07
453.23	7428.86
453.42	7309.49
453.60	7328.22
453.78	7595.04
453.97	7550.57
454.15	7634.83
454.34	7447.58
454.52	7723.77
454.70	7618.44
454.89	7644.19
455.07	7754.19
455.26	7709.72
455.44	7836.11
455.62	7801.01
455.81	7922.71
455.99	7948.46
456.17	7957.82
456.36	8072.51
456.54	8203.58
456.73	8264.43
456.91	8266.77
457.09	8313.58
457.28	8400.18
457.46	8154.43
457.64	8098.25
457.83	8285.50
458.01	8121.66
458.19	8465.72
458.38	8341.67
458.56	8313.58
458.74	8418.91
458.93	8538.27
459.11	8437.63
459.29	8315.92
459.48	8397.84
459.66	8358.05
459.84	8535.93
460.03	8622.53
460.21	8526.57
460.39	8659.98
460.57	8540.61
460.76	8842.54
460.94	8702.11
461.12	8784.03
461.31	8791.05
461.49	8758.28
461.67	8809.78
461.85	9254.48
462.04	8882.33
462.22	8999.36
462.40	9034.47
462.59	8997.02
462.77	9006.38
462.95	9067.24
463.13	9142.13
463.32	9069.58
463.50	9261.50
463.68	9310.65
463.86	9123.41
464.05	8959.57
464.23	9076.60
464.41	9029.79
464.59	9004.04
464.78	9383.21
464.96	9275.54
465.14	9193.62
465.32	9451.08
465.50	9479.17
465.69	9610.24
465.87	9301.29
466.05	9324.69
466.23	9193.62
466.41	9277.88
466.60	9678.12
466.78	9256.82
466.96	9579.81
467.14	9394.91
467.32	9451.08
467.51	9886.42
467.69	9397.25
467.87	9591.52
468.05	9956.64
468.23	9635.99
468.41	9490.87
468.60	9605.56
468.78	9956.64
468.96	9837.27
469.14	9928.55
469.32	9970.68
469.50	9788.12
469.69	9820.89
469.87	9813.87
470.05	9811.53
470.23	10010.47
470.41	10078.35
470.59	10108.77
470.77	10019.83
470.95	10038.56
471.14	10267.93
471.32	10214.10
471.50	10406.02
471.68	10640.08
471.86	10389.64
472.04	10441.13
472.22	10733.70
472.40	10579.22
472.58	10623.69
472.77	10555.82
472.95	11023.92
473.13	11281.38
473.31	10717.31
473.49	10895.19
473.67	10839.02
473.85	10911.58
474.03	11075.42
474.21	11213.51
474.39	11461.60
474.57	11145.63
474.75	11309.47
474.93	11531.82
475.12	11662.89
475.30	11407.77
475.48	11218.19
475.66	11515.44
475.84	11461.60
476.02	11754.17
476.20	11796.30
476.38	11669.91
476.56	12100.57
476.74	12116.95
476.92	12058.44
477.10	11824.39
477.28	12189.51
477.46	12196.53
477.64	12458.67
477.82	12704.43
478.00	12957.21
478.18	12578.04
478.36	12856.56
478.54	12767.62
478.72	13165.51
478.90	13121.04
479.08	13249.77
479.26	13404.25
479.44	13207.64
479.62	13217.01
479.80	13657.03
479.98	13706.18
480.16	13900.44
480.34	13841.93
480.52	13968.32
480.70	14043.21
480.88	13853.63
481.06	14211.73
481.24	14038.53
481.41	14352.16
481.59	14682.18
481.77	14464.51
481.95	14829.63
482.13	14775.80
482.31	14860.06
482.49	15056.67
482.67	15213.48
482.85	15243.91
483.03	15124.54
483.21	15852.45
483.39	15522.43
483.57	15740.10
483.74	15672.23
483.92	15625.42
484.10	15772.87
484.28	16074.80
484.46	16451.63
484.64	16896.33
484.82	16271.40
485.00	16250.34
485.18	16840.15
485.35	16507.80
485.53	16648.23
485.71	16409.50
485.89	16554.61
486.07	16453.97
486.25	16711.42
486.43	17202.94
486.61	17275.49
486.78	17193.58
486.96	17823.18
487.14	17951.91
487.32	17975.31
487.50	17984.68
487.68	18728.97
487.85	18691.52
488.03	18843.65
488.21	18721.95
488.39	18944.30
488.57	18705.56
488.75	19300.06
488.92	19374.95
489.10	19910.94
489.28	19768.16
489.46	20135.63
489.64	20023.28
489.81	20341.60
489.99	20477.35
490.17	20673.95
490.35	20580.33
490.53	20510.11
490.70	20669.27
490.88	21027.37
491.06	20912.69
491.24	21013.33
491.41	21109.29
491.59	21015.67
491.77	20999.29
491.95	21495.48
492.13	21628.89
492.30	22008.06
492.48	21982.31
492.66	22298.28
492.84	22068.91
493.01	22579.15
493.19	22171.89
493.37	22539.36
493.54	22780.43
493.72	22862.35
493.90	23164.28
494.08	23342.16
494.25	23400.68
494.43	23744.73
494.61	23571.54
494.79	24102.84
494.96	24278.38
495.14	23871.12
495.32	24051.34
495.49	23983.47
495.67	24325.19
495.85	24680.95
496.02	24687.97
496.20	24599.03
496.38	24856.49
496.55	25106.93
496.73	25675.68
496.91	25118.63
497.09	25081.18
497.26	25369.07
497.44	25656.95
497.62	25387.79
497.79	25727.17
497.97	25612.48
498.14	25855.90
498.32	26319.32
498.50	26197.62
498.67	26288.90
498.85	26452.73
499.03	26771.05
499.20	26670.40
499.38	26890.41
499.56	26890.41
499.73	26675.09
499.91	26871.69
500.08	27054.25
500.26	26621.25
500.44	26974.67
500.61	27145.53
500.79	26700.83
500.97	27449.80
501.14	27763.43
501.32	27290.65
501.49	27484.91
501.67	27541.08
501.84	27924.93
502.02	27873.44
502.20	28161.33
502.37	28467.94
502.55	28315.80
502.72	28503.04
502.90	28613.05
503.07	28505.38
503.25	28575.60
503.43	28467.94
503.60	28442.19
503.78	28376.66
503.95	28573.26
504.13	29177.12
504.30	29149.03
504.48	29174.78
504.65	29661.61
504.83	29528.20
505.01	29729.48
505.18	29642.88
505.36	29670.97
505.53	29661.61
505.71	29996.31
505.88	30185.89
506.06	29853.53
506.23	30223.34
506.41	29984.60
506.58	30450.37
506.76	30785.07
506.93	30991.03
507.11	30368.45
507.28	30721.87
507.46	30597.82
507.63	29900.34
507.81	30466.75
507.98	30555.69
508.16	30906.77
508.33	31318.71
508.50	31185.30
508.68	31564.46
508.85	31770.43
509.03	31372.54
509.20	31580.85
509.38	31658.09
509.55	31618.30
509.73	31887.46
509.90	31566.81
510.08	31845.33
510.25	31454.46
510.42	32226.84
510.60	31983.42
510.77	32332.16
510.95	32292.37
511.12	32353.23
511.30	32474.93
511.47	32910.27
511.64	32842.40
511.82	33022.62
511.99	32519.40
512.17	32809.63
512.34	32818.99
512.51	33130.28
512.69	33305.82
512.86	33242.63
513.04	33624.14
513.21	33308.16
513.38	33020.28
513.56	33085.81
513.73	32987.51
513.90	33401.79
514.08	33455.62
514.25	33684.99
514.43	33729.46
514.60	34003.30
514.77	33500.09
514.95	34080.54
515.12	33792.65
515.29	34169.48
515.47	34450.35
515.64	34440.98
515.81	34225.65
515.99	34689.08
516.16	34036.07
516.33	33956.49
516.51	34162.46
516.68	33771.59
516.85	33720.10
517.03	34206.93
517.20	34513.54
517.37	34398.85
517.54	34848.24
517.72	34668.02
517.89	34497.16
518.06	34394.17
518.24	34534.60
518.41	34885.68
518.58	35000.37
518.75	35409.96
518.93	35356.13
519.10	34841.21
519.27	35449.75
519.45	35503.59
519.62	35309.32
519.79	36053.61
519.96	35835.94
520.14	36119.15
520.31	35840.62
520.48	36034.89
520.65	35835.94
520.83	36650.45
521.00	36711.30
521.17	36072.34
521.34	36655.13
521.52	36591.94
521.69	36587.25
521.86	36741.73
522.03	36926.63
522.20	37017.91
522.38	37240.26
522.55	36786.20
522.72	36772.16
522.89	37223.88
523.07	37193.45
523.24	36741.73
523.41	37401.76
523.58	37273.03
523.75	38120.31
523.92	37624.11
524.10	38103.92
524.27	37933.06
524.44	38031.36
524.61	37691.99
524.78	37572.62
524.96	37900.29
525.13	38274.78
525.30	38094.56
525.47	38569.69
525.64	38293.50
525.81	38349.68
525.98	38167.12
526.16	37830.08
526.33	37443.89
526.50	37954.13
526.67	38038.39
526.84	37596.03
527.01	38007.96
527.18	38384.79
527.36	38803.74
527.53	38815.44
527.70	39356.11
527.87	39051.84
528.04	38593.09
528.21	38721.82
528.38	38813.10
528.55	39395.90
528.72	39569.10
528.89	39512.92
529.07	39342.06
529.24	39438.03
529.41	39299.94
529.58	39700.17
529.75	39379.51
529.92	39573.78
530.09	39814.85
530.26	39648.68
530.43	39988.05
530.60	39648.68
530.77	39772.72
530.94	40020.82
531.11	39807.83
531.28	39648.68
531.46	40299.34
531.63	40332.11
531.80	40278.28
531.97	39697.83
532.14	40271.26
532.31	39442.71
532.48	39929.54
532.65	40179.98
532.82	40013.80
532.99	40053.59
533.16	40399.99
533.33	40194.02
533.50	40788.52
533.67	40495.95
533.84	40318.07
534.01	40690.21
534.18	40807.24
534.35	41029.59
534.52	40629.36
534.69	41158.32
534.86	40940.65
535.03	40591.91
535.20	41596.00
535.37	41413.44
535.54	41689.62
535.71	41303.43
535.88	41483.66
536.05	40837.67
536.22	41322.16
536.38	41383.01
536.55	41181.73
536.72	41277.69
536.89	41350.24
537.06	41612.38
537.23	41860.48
537.40	41659.20
537.57	41387.69
537.74	41713.03
537.91	41998.57
538.08	41897.93
538.25	41626.43
538.42	41933.04
538.59	42199.86
538.75	41546.85
538.92	41427.48
539.09	42131.98
539.26	41743.45
539.43	41933.04
539.60	41621.75
539.77	41436.84
539.94	41914.31
540.11	42057.09
540.28	41605.36
540.44	42167.09
540.61	42064.11
540.78	42251.35
540.95	42178.79
541.12	42251.35
541.29	41813.67
541.46	42050.06
541.62	42487.74
541.79	42469.02
541.96	42307.52
542.13	42454.98
542.30	42689.03
542.47	42614.13
542.63	42342.63
542.80	42574.34
542.97	43143.09
543.14	43320.98
543.31	43058.84
543.48	43056.50
543.64	43646.31
543.81	43379.49
543.98	43173.52
544.15	43484.81
544.32	43461.41
544.48	44060.58
544.65	43639.29
544.82	42932.45
544.99	43807.81
545.16	43765.68
545.32	43313.95
545.49	43863.98
545.66	43634.61
545.83	43756.32
546.00	43835.89
546.16	43674.40
546.33	43714.19
546.50	43681.42
546.67	43835.89
546.83	43512.90
547.00	43653.33
547.17	43260.12
547.34	43924.83
547.50	43892.07
547.67	43990.37
547.84	44165.91
548.00	44425.71
548.17	44470.18
548.34	43934.20
548.51	44142.50
548.67	44140.16
548.84	44591.89
549.01	43990.37
549.18	44502.95
549.34	44886.79
549.51	44994.46
549.68	44760.40
549.84	44577.84
550.01	44896.16
550.18	44226.76
550.34	44631.68
550.51	44346.13
550.68	44498.26
550.84	44301.66
551.01	44582.52
551.18	44807.22
551.34	44318.04
551.51	44851.69
551.68	44870.41
551.84	44722.96
552.01	44849.35
552.18	44877.43
552.34	44498.26
552.51	44737.00
552.68	44935.95
552.84	44868.07
553.01	45008.50
553.18	45001.48
553.34	44746.36
553.51	44975.73
553.67	45027.23
553.84	45298.73
554.01	45209.79
554.17	45406.39
554.34	45476.61
554.51	45319.79
554.67	45429.80
554.84	45500.01
555.00	45137.23
555.17	45069.36
555.33	45219.15
555.50	45148.93
555.67	45535.12
555.83	44793.17
556.00	45230.85
556.16	45626.40
556.33	45191.06
556.50	45153.62
556.66	45701.30
556.83	45170.00
556.99	45722.37
557.16	45488.31
557.32	45642.79
557.49	45745.77
557.65	45490.65
557.82	45717.68
557.98	45595.98
558.15	45446.18
558.32	45528.10
558.48	45670.87
558.65	45530.44
558.81	45532.78
558.98	45153.62
559.14	45544.48
559.31	45242.56
559.47	45773.86
559.64	45888.54
559.80	46220.90
559.97	45586.61
560.13	45635.77
560.30	45382.99
560.46	45993.87
560.63	45642.79
560.79	46267.71
560.96	45904.93
561.12	46195.15
561.29	45516.40
561.45	45851.09
561.61	46309.84
561.78	46288.77
561.94	45645.13
562.11	45698.96
562.27	45989.19
562.44	45867.48
562.60	46043.02
562.77	46225.58
562.93	46092.17
563.10	46143.66
563.26	45610.02
563.42	46398.78
563.59	45617.04
563.75	46199.83
563.92	46270.05
564.08	46396.44
564.24	46295.80
564.41	46298.14
564.57	46239.62
564.74	46344.95
564.90	46096.85
565.07	46103.87
565.23	46279.41
565.39	46583.68
565.56	46014.93
565.72	46059.40
565.88	46117.92
566.05	46017.27
566.21	45902.59
566.38	45815.99
566.54	45954.08
566.70	46092.17
566.87	46213.88
567.03	46689.01
567.19	46852.84
567.36	46567.30
567.52	46211.54
567.68	46677.30
567.85	46092.17
568.01	46506.44
568.17	46155.36
568.34	46279.41
568.50	46316.86
568.66	46681.98
568.83	46019.61
568.99	45844.07
569.15	46106.21
569.32	46087.49
569.48	46089.83
569.64	46513.47
569.81	46293.46
569.97	45935.35
570.13	46396.44
570.30	45907.27
570.46	46162.39
570.62	45893.22
570.78	45848.75
570.95	46520.49
571.11	46014.93
571.27	46291.12
571.43	46202.18
571.60	46307.50
571.76	46375.37
571.92	46515.81
572.09	46483.04
572.25	46885.61
572.41	46506.44
572.57	46569.64
572.74	46745.18
572.90	46602.41
573.06	46534.53
573.22	46199.83
573.38	46651.56
573.55	46340.27
573.71	47037.75
573.87	46955.83
574.03	46518.15
574.20	46349.63
574.36	46588.36
574.52	46483.04
574.68	46511.13
574.84	46403.46
575.01	46520.49
575.17	46370.69
575.33	46438.57
575.49	46536.87
575.65	46293.46
575.82	46625.81
575.98	46836.46
576.14	46707.73
576.30	47047.11
576.46	46829.44
576.62	46653.90
576.79	46843.48
576.95	46288.77
577.11	46740.50
577.27	46422.19
577.43	46707.73
577.59	46642.20
577.75	46473.68
577.92	46050.04
578.08	46447.93
578.24	46681.98
578.40	46522.83
578.56	46480.70
578.72	46344.95
578.88	47049.45
579.04	46473.68
579.21	46543.89
579.37	46593.04
579.53	46216.22
579.69	46717.09
579.85	46492.40
580.01	46464.32
580.17	46789.65
580.33	46520.49
580.49	46681.98
580.65	46843.48
580.82	46656.24
580.98	46286.43
581.14	46609.43
581.30	46813.05
581.46	46953.49
581.62	46522.83
581.78	46241.96
581.94	47103.28
582.10	46969.87
582.26	46583.68
582.42	46700.71
582.58	46480.70
582.74	46408.14
582.90	46780.29
583.06	46569.64
583.22	46326.22
583.38	46656.24
583.54	46993.28
583.70	46824.76
583.86	46461.97
584.02	46459.63
584.18	46829.44
584.34	46349.63
584.50	46740.50
584.66	46761.56
584.82	46040.68
584.98	46366.01
585.14	46838.80
585.30	46717.09
585.46	46546.23
585.62	46735.82
585.78	46829.44
585.94	46426.87
586.10	46621.13
586.26	46674.96
586.42	46518.15
586.58	47224.99
586.74	46644.54
586.90	46656.24
587.06	46380.06
587.22	46775.61
587.38	46674.96
587.54	46714.75
587.70	46396.44
587.86	46667.94
588.02	46789.65
588.18	46787.31
588.34	46225.58
588.49	45923.65
588.65	46101.53
588.81	45820.67
588.97	46703.05
589.13	46017.27
589.29	45813.65
589.45	46199.83
589.61	46625.81
589.77	46515.81
589.93	46672.62
590.08	46555.60
590.24	46373.03
590.40	46813.05
590.56	47000.30
590.72	47152.43
590.88	46735.82
591.04	46871.57
591.20	46663.26
591.35	47194.56
591.51	47107.96
591.67	46787.31
591.83	46972.21
591.99	46670.28
592.15	46880.93
592.31	46733.48
592.46	46518.15
592.62	46546.23
592.78	46852.84
592.94	47166.48
593.10	46995.62
593.26	47047.11
593.41	46490.06
593.57	46845.82
593.73	46438.57
593.89	46782.63
594.05	46754.54
594.20	46731.14
594.36	46873.91
594.52	46789.65
594.68	46780.29
594.84	46562.62
594.99	47304.57
595.15	46827.10
595.31	46827.10
595.47	47234.35
595.62	47255.42
595.78	46656.24
595.94	47288.18
596.10	47550.32
596.25	46965.19
596.41	47030.72
596.57	46576.66
596.73	47491.81
596.88	46536.87
597.04	46611.77
597.20	46916.04
597.36	46911.36
597.51	46946.47
597.67	47030.72
597.83	46789.65
597.99	47203.92
598.14	46845.82
598.30	46806.03
598.46	46897.31
598.61	46948.81
598.77	46759.22
598.93	46681.98
599.09	47423.93
599.24	47351.38
599.40	47173.50
599.56	46946.47
599.71	47002.64
599.87	46761.56
600.03	46691.35
600.18	46944.12
600.34	47089.24
600.50	47037.75
600.65	46485.38
600.81	47255.42
600.97	46817.74
601.12	46904.34
601.28	47246.05
601.44	46705.39
601.59	46916.04
601.75	46452.61
601.91	46651.56
602.06	46700.71
602.22	46618.79
602.37	46768.58
602.53	46834.12
602.69	47143.07
602.84	46412.82
603.00	46632.83
603.16	46567.30
603.31	46932.42
603.47	46883.27
603.62	46820.08
603.78	46827.10
603.94	46663.26
604.09	46899.65
604.25	46806.03
604.40	46796.67
604.56	46859.87
604.71	46883.27
604.87	46401.12
605.03	46684.33
605.18	46513.47
605.34	46319.20
605.49	46464.32
605.65	46497.08
605.80	46417.50
605.96	46667.94
606.12	46471.34
606.27	46986.25
606.43	46377.72
606.58	46630.49
606.74	46382.40
606.89	46256.01
607.05	46513.47
607.20	46784.97
607.36	46756.88
607.51	46466.66
607.67	46571.98
607.82	46143.66
607.98	46504.10
608.13	46108.55
608.29	46443.25
608.44	45996.21
608.60	46246.65
608.75	46522.83
608.91	46543.89
609.06	46333.24
609.22	46616.45
609.37	46270.05
609.53	46302.82
609.68	46553.26
609.84	46129.62
609.99	46019.61
610.15	45933.01
610.30	45956.42
610.46	45883.86
610.61	45827.69
610.76	46138.98
610.92	46043.02
611.07	46625.81
611.23	46600.07
611.38	45846.41
611.54	46012.59
611.69	46047.70
611.84	45904.93
612.00	46066.42
612.15	45956.42
612.31	45684.92
612.46	45813.65
612.62	45935.35
612.77	46422.19
612.92	46087.49
613.08	46026.63
613.23	45886.20
613.39	46454.95
613.54	45610.02
613.69	45436.82
613.85	45518.74
614.00	45663.85
614.15	46602.41
614.31	46052.38
614.46	45820.67
614.62	45940.04
614.77	45619.38
614.92	45539.80
615.08	45647.47
615.23	45287.03
615.38	45537.46
615.54	45242.56
615.69	45633.42
615.84	45340.86
616.00	45628.74
616.15	45331.50
616.30	45581.93
616.46	45067.02
616.61	44935.95
616.76	44949.99
616.92	45151.27
617.07	44643.38
617.22	45078.72
617.37	44961.69
617.53	45322.13
617.68	45544.48
617.83	45343.20
617.99	45595.98
618.14	44964.03
618.29	45462.57
618.45	45017.86
618.60	44910.20
618.75	44584.86
618.90	44718.28
619.06	44919.56
619.21	45338.52
619.36	45235.53
619.51	45064.67
619.67	45324.47
619.82	45151.27
619.97	45069.36
620.12	44903.18
620.28	44320.38
620.43	44318.04
620.58	44882.11
620.73	44783.81
620.89	44493.58
621.04	44737.00
621.19	44790.83
621.34	45067.02
621.49	44395.28
621.65	44552.10
621.80	44861.05
621.95	44395.28
622.10	44641.04
622.25	43887.39
622.41	43653.33
622.56	44414.01
622.71	44559.12
622.86	44648.06
623.01	44568.48
623.16	44133.14
623.32	44287.62
623.47	44545.08
623.62	44432.73
623.77	44612.95
623.92	44449.11
624.07	44194.00
624.23	43966.96
624.38	44009.09
624.53	43901.43
624.68	43356.08
624.83	44041.86
624.98	43510.56
625.13	43489.49
625.29	43929.51
625.44	44016.11
625.59	43337.36
625.74	43292.89
625.89	43248.42
626.04	43580.78
626.19	43655.67
626.34	43803.13
626.49	43667.37
626.65	43988.03
626.80	43859.30
626.95	43770.36
627.10	43908.45
627.25	43250.76
627.40	43466.09
627.55	43222.67
627.70	42749.88
627.85	42997.98
628.00	43131.39
628.15	42911.38
628.30	43009.68
628.45	43129.05
628.60	43487.15
628.76	43402.89
628.91	43463.75
629.06	42682.01
629.21	42792.01
629.36	42930.11
629.51	43042.45
629.66	42770.95
629.81	42621.16
629.96	42646.90
630.11	42471.36
630.26	43077.56
630.41	43199.27
630.56	42775.63
630.71	42831.80
630.86	42553.28
631.01	42906.70
631.16	42546.26
631.31	42340.29
631.46	42363.70
631.61	42672.65
631.76	42813.08
631.91	42611.79
632.06	42520.51
632.21	42824.78
632.36	42726.48
632.51	42314.55
632.66	42569.66
632.81	42319.23
632.96	42436.25
633.10	42031.34
633.25	42167.09
633.40	42408.17
633.55	42241.99
633.70	41804.31
633.85	42026.66
634.00	42071.13
634.15	41907.29
634.30	41984.53
634.45	42330.93
634.60	41989.21
634.75	42174.11
634.90	41904.95
635.05	41797.29
635.19	41876.86
635.34	42014.96
635.49	41598.34
635.64	41928.36
635.79	41586.64
635.94	41846.44
636.09	41624.09
636.24	41797.29
636.39	41359.61
636.53	41738.77
636.68	41837.08
636.83	41874.52
636.98	42038.36
637.13	41158.32
637.28	41736.43
637.43	41689.62
637.57	41666.22
637.72	41717.71
637.87	41242.58
638.02	41497.70
638.17	41797.29
638.32	41364.29
638.46	41181.73
638.61	41544.51
638.76	41205.13
638.91	41586.64
639.06	41006.19
639.20	41338.54
639.35	41914.31
639.50	41411.10
639.65	41565.57
639.80	41057.68
639.94	41024.91
640.09	41216.83
640.24	41029.59
640.39	40767.45
640.54	41006.19
640.68	40669.15
640.83	40933.63
640.98	40912.56
641.13	40945.33
641.27	41106.83
641.42	40678.51
641.57	40933.63
641.72	40807.24
641.86	40631.70
642.01	40402.33
642.16	40465.52
642.31	40222.11
642.45	40678.51
642.60	40404.67
642.75	40271.26
642.90	40385.94
643.04	40825.96
643.19	40320.41
643.34	40886.82
643.48	40210.40
643.63	40318.07
643.78	40058.27
643.93	40446.80
644.07	40423.39
644.22	40311.05
644.37	40128.48
644.51	40458.50
644.66	40409.35
644.81	39838.26
644.95	40652.76
645.10	40409.35
645.25	40416.37
645.39	40226.79
645.54	40140.19
645.69	39941.24
645.83	40399.99
645.98	39805.49
646.13	40203.38
646.27	40121.46
646.42	39674.42
646.57	40025.50
646.71	39805.49
646.86	39793.79
647.00	39974.01
647.15	40034.86
647.30	39578.46
647.44	40215.08
647.59	39201.63
647.74	39749.32
647.88	39531.65
648.03	39627.61
648.17	39639.31
648.32	39302.28
648.47	39739.96
648.61	39632.29
648.76	39531.65
648.90	39290.57
649.05	39627.61
649.20	39423.98
649.34	39445.05
649.49	39140.78
649.63	39000.35
649.78	39007.37
649.92	39194.61
650.07	39613.57
650.21	38993.32
650.36	39522.29
650.51	39058.86
650.65	39772.72
650.80	39819.53
650.94	39337.38
651.09	39278.87
651.23	39241.42
651.38	38958.22
651.52	39122.05
651.67	38635.22
651.81	38651.61
651.96	38586.07
652.10	38735.87
652.25	38698.42
652.39	38981.62
652.54	38810.76
652.68	38686.71
652.83	39098.65
652.97	38806.08
653.12	39033.11
653.26	38618.84
653.41	38885.66
653.55	38546.28
653.70	38948.85
653.84	38773.31
653.99	38761.61
654.13	38202.22
654.27	38286.48
654.42	38384.79
654.56	38139.03
654.71	38593.09
654.85	38534.58
655.00	38494.79
655.14	37984.55
655.29	38440.96
655.43	37954.13
655.57	37794.97
655.72	37830.08
655.86	37415.80
656.01	37682.62
656.15	37509.43
656.30	37476.66
656.44	37642.84
656.58	38059.45
656.73	37682.62
656.87	38050.09
657.01	37982.21
657.16	37956.47
657.30	37420.48
657.45	37579.64
657.59	37731.78
657.73	37954.13
657.88	37912.00
658.02	37975.19
658.16	38139.03
658.31	37919.02
658.45	37832.42
658.60	37621.77
658.74	37535.17
658.88	37528.15
659.03	37226.22
659.17	36999.19
659.31	37357.29
659.46	37373.67
659.60	37380.70
659.74	37610.07
659.89	37488.36
660.03	36692.58
660.17	37266.01
660.32	37242.60
660.46	37469.64
660.60	36851.73
660.74	37188.77
660.89	36943.02
661.03	36793.22
661.17	36371.92
661.32	36390.65
661.46	36715.98
661.60	36985.15
661.74	36437.46
661.89	36521.72
662.03	36165.96
662.17	36236.17
662.31	36390.65
662.46	36472.57
662.60	36856.42
662.74	36561.51
662.88	36598.96
663.03	36100.42
663.17	35913.18
663.31	35529.33
663.45	35981.06
663.60	35971.69
663.74	35917.86
663.88	35936.59
664.02	35693.17
664.17	36315.75
664.31	35461.46
664.45	35819.56
664.59	35674.45
664.73	35716.58
664.88	36074.68
665.02	35365.49
665.16	35580.82
665.30	35393.58
665.44	35393.58
665.59	35101.01
665.73	35428.69
665.87	35070.59
666.01	35168.89
666.15	34998.03
666.29	35243.79
666.44	34934.84
666.58	34628.23
666.72	34998.03
666.86	35182.93
667.00	35033.14
667.14	34831.85
667.28	34829.51
667.43	34672.70
667.57	34382.47
667.71	34274.80
667.85	34679.72
667.99	34576.73
668.13	34075.86
668.27	34532.26
668.41	34171.82
668.56	34195.23
668.70	34073.52
668.84	33663.93
668.98	34040.75
669.12	33687.33
669.26	33745.84
669.40	33785.63
669.54	34134.37
669.68	33727.12
669.82	33420.51
669.96	33289.44
670.10	33612.43
670.25	33577.33
670.39	33558.60
670.53	33085.81
670.67	33310.50
670.81	33397.10
670.95	33076.45
671.09	33125.60
671.23	33214.54
671.37	32879.85
671.51	33324.55
671.65	33198.16
671.79	32767.50
671.93	32425.78
672.07	32891.55
672.21	32896.23
672.35	32811.97
672.49	32807.29
672.63	32655.15
672.77	32327.48
672.91	32285.35
673.05	32280.67
673.19	32627.07
673.33	32315.78
673.47	31875.76
673.61	31964.70
673.75	31618.30
673.89	31676.81
674.03	31700.22
674.17	31807.88
674.31	31714.26
674.45	31363.18
674.59	31421.69
674.73	31531.70
674.87	31323.39
675.01	31283.60
675.15	31337.43
675.29	31159.55
675.43	31150.19
675.56	30995.71
675.70	30923.16
675.84	30817.83
675.98	30160.14
676.12	31051.89
676.26	30946.56
676.40	30628.25
676.54	30740.60
676.68	30527.61
676.82	29968.22
676.96	30384.83
677.10	30433.99
677.23	30038.44
677.37	29972.90
677.51	30003.33
677.65	29722.46
677.79	29603.10
677.93	29956.52
678.07	29579.69
678.21	29329.25
678.34	29324.57
678.48	29111.58
678.62	29123.29
678.76	28882.21
678.90	28716.03
679.04	28882.21
679.18	28758.16
679.31	28371.97
679.45	28577.94
679.59	28243.24
679.73	27857.06
679.87	28205.80
680.00	28123.88
680.14	27957.70
680.28	28194.09
680.42	27971.74
680.56	28107.49
680.70	27763.43
680.83	28074.73
680.97	27405.33
681.11	27686.20
681.25	27075.32
681.39	27335.12
681.52	27714.28
681.66	27538.74
681.80	26948.93
681.94	27410.01
682.07	27140.85
682.21	26705.51
682.35	26831.90
682.49	26658.70
682.62	26590.83
682.76	26539.33
682.90	26361.45
683.04	26225.70
683.17	25993.99
683.31	26324.01
683.45	26368.48
683.59	26075.91
683.72	25855.90
683.86	25790.36
684.00	26387.20
684.13	26003.35
684.27	25781.00
684.41	25682.70
684.55	25397.15
684.68	25366.73
684.82	25551.63
684.96	25247.36
685.09	25469.71
685.23	25067.14
685.37	25376.09
685.50	25144.38
685.64	25039.05
685.78	24744.14
685.91	24510.09
686.05	24322.85
686.19	24432.85
686.32	24074.75
686.46	23513.02
686.60	23704.95
686.73	23721.33
686.87	23676.86
687.01	23810.27
687.14	23349.18
687.28	23094.07
687.42	23400.68
687.55	23398.34
687.69	22941.93
687.82	23454.51
687.96	23335.14
688.10	23255.56
688.23	22878.74
688.37	22679.79
688.50	22530.00
688.64	22824.90
688.78	22600.21
688.91	22771.07
689.05	22675.11
689.18	22429.35
689.32	22099.34
689.46	22129.77
689.59	22333.39
689.73	22288.92
689.86	22082.95
690.00	21848.90
690.13	21921.46
690.27	21778.68
690.41	21720.17
690.54	21149.08
690.68	21312.92
690.81	21376.11
690.95	21226.32
691.08	21521.23
691.22	21427.60
691.35	21158.44
691.49	21254.40
691.62	21165.46
691.76	21160.78
691.89	20950.14
692.03	20769.91
692.16	20802.68
692.30	20641.18
692.43	20592.03
692.57	19967.11
692.70	20269.04
692.84	20519.48
692.97	20182.44
693.11	20191.80
693.24	20018.60
693.38	19644.12
693.51	19974.13
693.65	20219.89
693.78	19934.34
693.92	19932.00
694.05	19747.10
694.19	19723.69
694.32	19686.25
694.45	19161.97
694.59	19658.16
694.72	19133.88
694.86	19066.00
694.99	19147.92
695.13	19047.28
695.26	19126.86
695.39	18857.70
695.53	18895.14
695.66	18895.14
695.80	18621.30
695.93	18530.02
696.07	18508.96
696.20	18429.38
696.33	18338.10
696.47	18539.38
696.60	18251.50
696.73	17872.33
696.87	18003.40
697.00	17933.18
697.14	17628.92
697.27	17841.90
697.40	17909.78
697.54	17898.08
697.67	17371.46
697.80	17514.23
697.94	17343.37
698.07	17233.36
698.21	17376.14
698.34	17081.23
698.47	17048.46
698.61	16917.39
698.74	16821.43
698.87	16886.97
699.01	16545.25
699.14	16720.79
699.27	16617.80
699.40	16683.34
699.54	16526.52
699.67	16655.25
699.80	16198.85
699.94	16430.56
700.07	16308.85
700.20	16053.73
700.34	16245.66
700.47	16128.63
700.60	15903.94
700.73	15946.07
700.87	15971.82
701.00	15665.21
701.13	15927.35
701.26	15800.96
701.40	15501.37
701.53	15648.82
701.66	15255.61
701.79	15262.63
701.93	15051.99
702.06	15449.88
702.19	15300.08
702.32	14984.11
702.46	15035.60
702.59	15154.97
702.72	15019.22
702.85	14965.39
702.99	14630.69
703.12	14576.86
703.25	14696.22
703.38	14516.00
703.51	14555.79
703.65	14328.76
703.78	14768.78
703.91	14202.37
704.04	14321.74
704.17	14204.71
704.31	14127.47
704.44	14164.92
704.57	14001.08
704.70	14031.51
704.83	13989.38
704.96	13797.46
705.10	13905.12
705.23	13668.73
>>>>>End Processed Spectral Data<<<<<
