SpectraSuite Data File
++++++++++++++++++++++++++++++++++++
Date: Fri Oct 25 11:33:13 EDT 2013
User: price-jones
Dark Spectrum Present: No
Reference Spectrum Present: No
Number of Sampled Component Spectra: 1
Spectrometers: USB2+H05261
Integration Time (usec): 100000 (USB2+H05261)
Spectra Averaged: 1 (USB2+H05261)
Boxcar Smoothing: 0 (USB2+H05261)
Correct for Electrical Dark: No (USB2+H05261)
Strobe/Lamp Enabled: No (USB2+H05261)
Correct for Detector Non-linearity: No (USB2+H05261)
Correct for Stray Light: No (USB2+H05261)
Number of Pixels in Processed Spectrum: 2048
>>>>>Begin Processed Spectral Data<<<<<
365.73	294.91
365.92	294.91
366.12	294.91
366.32	238.73
366.52	191.92
366.72	236.39
366.91	184.90
367.11	187.24
367.31	180.22
367.51	196.60
367.70	121.71
367.90	201.29
368.10	227.03
368.30	152.13
368.49	147.45
368.69	180.22
368.89	212.99
369.09	198.95
369.28	180.22
369.48	189.58
369.68	287.89
369.87	264.48
370.07	283.20
370.27	339.38
370.47	337.04
370.66	449.38
370.86	545.34
371.06	568.75
371.25	491.51
371.45	486.83
371.65	517.26
371.84	599.18
372.04	559.39
372.24	610.88
372.44	559.39
372.63	559.39
372.83	594.50
373.03	582.79
373.22	580.45
373.42	554.71
373.62	643.65
373.81	557.05
374.01	629.60
374.21	641.31
374.40	587.47
374.60	655.35
374.79	533.64
374.99	662.37
375.19	596.84
375.38	709.18
375.58	571.09
375.78	685.78
375.97	699.82
376.17	676.41
376.37	692.80
376.56	692.80
376.76	681.10
376.95	674.07
377.15	678.76
377.35	702.16
377.54	662.37
377.74	617.90
377.93	699.82
378.13	676.41
378.33	695.14
378.52	690.46
378.72	823.87
378.91	706.84
379.11	791.10
379.31	653.01
379.50	692.80
379.70	791.10
379.89	702.16
380.09	685.78
380.28	772.38
380.48	746.63
380.68	753.65
380.87	744.29
381.07	748.97
381.26	793.44
381.46	793.44
381.65	849.61
381.85	744.29
382.04	812.17
382.24	821.53
382.43	823.87
382.63	730.25
382.83	704.50
383.02	837.91
383.22	800.46
383.41	732.59
383.61	779.40
383.80	828.55
384.00	751.31
384.19	779.40
384.39	800.46
384.58	772.38
384.78	812.17
384.97	772.38
385.17	847.27
385.36	765.36
385.56	809.83
385.75	816.85
385.95	823.87
386.14	816.85
386.34	840.25
386.53	844.93
386.72	828.55
386.92	868.34
387.11	875.36
387.31	940.90
387.50	903.45
387.70	875.36
387.89	894.08
388.09	908.13
388.28	887.06
388.48	870.68
388.67	940.90
388.86	971.32
389.06	854.30
389.25	908.13
389.45	858.98
389.64	854.30
389.84	952.60
390.03	971.32
390.22	945.58
390.42	1006.43
390.61	976.00
390.81	968.98
391.00	1015.79
391.19	1006.43
391.39	976.00
391.58	1018.13
391.78	983.02
391.97	1008.77
392.16	1109.41
392.36	1064.94
392.55	1142.18
392.75	985.37
392.94	1039.20
393.13	1109.41
393.33	1109.41
393.52	1001.75
393.71	1114.10
393.91	1170.27
394.10	1055.58
394.29	1100.05
394.49	1074.31
394.68	1165.59
394.88	1050.90
395.07	1121.12
395.26	1025.15
395.46	1104.73
395.65	1158.57
395.84	1128.14
396.04	1203.04
396.23	1196.01
396.42	1125.80
396.62	1259.21
396.81	1252.19
397.00	1198.35
397.19	1186.65
397.39	1261.55
397.58	1336.45
397.77	1249.85
397.97	1254.53
398.16	1273.25
398.35	1308.36
398.55	1270.91
398.74	1313.04
398.93	1352.83
399.12	1224.10
399.32	1399.64
399.51	1315.38
399.70	1357.51
399.90	1306.02
400.09	1444.11
400.28	1359.85
400.47	1341.13
400.67	1439.43
400.86	1376.24
401.05	1521.35
401.24	1451.13
401.44	1486.24
401.63	1446.45
401.82	1483.90
402.01	1359.85
402.21	1430.07
402.40	1526.03
402.59	1528.37
402.78	1448.79
402.97	1591.56
403.17	1600.93
403.36	1523.69
403.55	1568.16
403.74	1572.84
403.93	1540.07
404.13	1633.69
404.32	1572.84
404.51	1675.82
404.70	1636.03
404.89	1682.85
405.09	1785.83
405.28	1710.93
405.47	1748.38
405.66	1741.36
405.85	1764.76
406.05	1783.49
406.24	1762.42
406.43	1741.36
406.62	1792.85
406.81	1806.89
407.00	1743.70
407.20	1776.47
407.39	1741.36
407.58	1783.49
407.77	1916.90
407.96	1905.20
408.15	1778.81
408.34	1867.75
408.54	1937.96
408.73	2012.86
408.92	1926.26
409.11	1891.15
409.30	2052.65
409.49	2022.22
409.68	2106.48
409.87	2083.08
410.07	2094.78
410.26	2040.95
410.45	2005.84
410.64	2064.35
410.83	2186.06
411.02	2134.57
411.21	2214.15
411.40	2188.40
411.59	2211.81
411.78	2179.04
411.98	2256.28
412.17	2296.07
412.36	2293.72
412.55	2270.32
412.74	2296.07
412.93	2434.16
413.12	2389.69
413.31	2495.01
413.50	2420.11
413.69	2443.52
413.88	2513.74
414.07	2480.97
414.26	2548.84
414.45	2576.93
414.64	2614.38
414.83	2593.31
415.02	2590.97
415.22	2623.74
415.41	2649.49
415.60	2663.53
415.79	2682.25
415.98	2808.64
416.17	2764.17
416.36	2738.43
416.55	2820.35
416.74	2759.49
416.93	2782.90
417.12	2836.73
417.31	2979.50
417.50	2960.78
417.69	3021.63
417.88	2965.46
418.07	2916.31
418.26	3094.19
418.45	3033.33
418.64	3073.12
418.83	3119.93
419.02	2991.20
419.21	3166.74
419.39	3183.13
419.58	3103.55
419.77	3162.06
419.96	3110.57
420.15	3234.62
420.34	3328.24
420.53	3159.72
420.72	3253.34
420.91	3377.39
421.10	3384.41
421.29	3375.05
421.48	3342.28
421.67	3531.87
421.86	3353.99
422.05	3234.62
422.24	3311.86
422.43	3475.70
422.61	3346.97
422.80	3384.41
422.99	3332.92
423.18	3304.84
423.37	3613.79
423.56	3480.38
423.75	3316.54
423.94	3262.71
424.13	3187.81
424.32	3293.13
424.50	3466.33
424.69	3541.23
424.88	3468.67
425.07	3403.14
425.26	3431.23
425.45	3592.72
425.64	3410.16
425.83	3365.69
426.01	3377.39
426.20	3499.10
426.39	3564.64
426.58	3545.91
426.77	3599.74
426.96	3627.83
427.15	3487.40
427.33	3728.47
427.52	3648.90
427.71	3751.88
427.90	3595.06
428.09	3740.18
428.28	3667.62
428.46	3719.11
428.65	3761.24
428.84	3747.20
429.03	3754.22
429.22	3676.98
429.40	3716.77
429.59	3822.09
429.78	3728.47
429.97	3648.90
430.16	3784.65
430.34	3885.29
430.53	3946.14
430.72	3927.42
430.91	3911.04
431.10	3861.88
431.28	3964.87
431.47	3976.57
431.66	4102.96
431.85	3911.04
432.03	4070.19
432.22	4105.30
432.41	4112.32
432.60	4046.79
432.79	4058.49
432.97	4095.94
433.16	4112.32
433.35	4065.51
433.54	4222.33
433.72	4276.16
433.91	4180.20
434.10	4290.20
434.28	4173.18
434.47	4229.35
434.66	4372.12
434.85	4318.29
435.03	4294.88
435.22	4269.14
435.41	4451.70
435.59	4407.23
435.78	4524.26
435.97	4372.12
436.16	4416.59
436.34	4479.79
436.53	4418.93
436.72	4643.62
436.90	4491.49
437.09	4491.49
437.28	4528.94
437.46	4716.18
437.65	4547.66
437.84	4606.17
438.02	4606.17
438.21	4594.47
438.40	4547.66
438.58	4840.23
438.77	4786.40
438.96	4791.08
439.14	4851.93
439.33	4924.49
439.52	4978.32
439.70	4975.98
439.89	5135.14
440.08	5125.77
440.26	5090.67
440.45	4950.23
440.63	5090.67
440.82	5217.05
441.01	5181.95
441.19	5268.55
441.38	5151.52
441.57	5254.50
441.75	5488.56
441.94	5401.96
442.12	5448.77
442.31	5385.57
442.50	5413.66
442.68	5444.09
442.87	5467.49
443.05	5572.82
443.24	5589.20
443.43	5586.86
443.61	5694.52
443.80	5874.74
443.98	5397.28
444.17	5317.70
444.35	5593.88
444.54	5703.89
444.73	5731.97
444.91	5746.02
445.10	5596.22
445.28	5647.71
445.47	5626.65
445.65	5764.74
445.84	5778.78
446.02	5724.95
446.21	5778.78
446.39	5867.72
446.58	5914.53
446.77	5743.67
446.95	5614.95
447.14	5694.52
447.32	5757.72
447.51	5998.79
447.69	5645.37
447.88	5753.04
448.06	5830.27
448.25	5973.05
448.43	5760.06
448.62	5811.55
448.80	5834.96
448.99	5921.56
449.17	6026.88
449.36	5888.79
449.54	6064.33
449.73	6132.20
449.91	6176.67
450.10	6132.20
450.28	6167.31
450.46	6270.30
450.65	6162.63
450.83	6111.14
451.02	6307.74
451.20	6361.58
451.39	6272.64
451.57	6279.66
451.76	6183.70
451.94	6310.08
452.13	6326.47
452.31	6345.19
452.49	6427.11
452.68	6497.33
452.86	6597.97
453.05	6466.90
453.23	6593.29
453.42	6279.66
453.60	6354.55
453.78	6579.25
453.97	6497.33
454.15	6490.31
454.34	6600.31
454.52	6647.12
454.70	6703.29
454.89	6485.62
455.07	6665.85
455.26	6649.46
455.44	6715.00
455.62	6855.43
455.81	6778.19
455.99	6754.79
456.17	6752.45
456.36	6806.28
456.54	6878.83
456.73	6843.73
456.91	6942.03
457.09	6960.75
457.28	7136.29
457.46	7009.90
457.64	7225.23
457.83	7265.02
458.01	7002.88
458.19	7384.39
458.38	7157.36
458.56	7112.89
458.74	7265.02
458.93	7241.62
459.11	7424.18
459.29	7463.97
459.48	7328.22
459.66	7272.04
459.84	7435.88
460.03	7445.24
460.21	7485.03
460.39	7452.27
460.57	7520.14
460.76	7555.25
460.94	7609.08
461.12	7609.08
461.31	7538.87
461.49	7639.51
461.67	7620.78
461.85	7908.67
462.04	7719.09
462.22	8241.03
462.40	7878.24
462.59	7836.11
462.77	7749.51
462.95	7871.22
463.13	7995.27
463.32	7903.99
463.50	7857.18
463.68	7964.84
463.86	7946.12
464.05	7688.66
464.23	8091.23
464.41	8271.45
464.59	7887.61
464.78	8023.36
464.96	8131.02
465.14	8084.21
465.32	8266.77
465.50	8112.30
465.69	8311.24
465.87	8367.42
466.05	8320.60
466.23	8329.97
466.41	8374.44
466.60	8320.60
466.78	8266.77
466.96	8425.93
467.14	8360.39
467.32	8484.44
467.51	8650.62
467.69	8180.17
467.87	8327.63
468.05	8589.77
468.23	8425.93
468.41	8454.02
468.60	8367.42
468.78	8678.71
468.96	8519.55
469.14	8627.21
469.32	8805.10
469.50	8564.02
469.69	8585.08
469.87	8723.18
470.05	8692.75
470.23	8992.34
470.41	8889.35
470.59	9027.45
470.77	8978.30
470.95	9048.51
471.14	9179.58
471.32	8990.00
471.50	9355.12
471.68	9235.75
471.86	9296.61
472.04	9167.88
472.22	9453.42
472.40	9350.44
472.58	9207.67
472.77	9439.38
472.95	9486.19
473.13	9921.53
473.31	9385.55
473.49	9598.54
473.67	9640.67
473.85	9664.07
474.03	10019.83
474.21	9699.18
474.39	9827.91
474.57	9926.21
474.75	9973.02
474.93	10010.47
475.12	10031.54
475.30	10071.33
475.48	9984.73
475.66	10195.37
475.84	10078.35
476.02	10312.40
476.20	10427.09
476.38	10403.68
476.56	10867.11
476.74	10597.95
476.92	10590.92
477.10	10532.41
477.28	10780.51
477.46	10771.15
477.64	10953.71
477.82	11166.70
478.00	11335.21
478.18	11094.14
478.36	11482.67
478.54	11477.99
478.72	11421.81
478.90	11637.14
479.08	11693.32
479.26	11817.36
479.44	11845.45
479.62	11920.35
479.80	12072.48
479.98	12191.85
480.16	12379.09
480.34	12311.22
480.52	12393.14
480.70	12386.12
480.88	12266.75
481.06	12355.69
481.24	12655.28
481.41	12697.41
481.59	12917.42
481.77	13048.49
481.95	12996.99
482.13	12823.80
482.31	13170.19
482.49	13584.47
482.67	13497.87
482.85	13401.91
483.03	13926.19
483.21	13902.78
483.39	14047.90
483.57	13940.23
483.74	14267.91
483.92	14064.28
484.10	14043.21
484.28	14328.76
484.46	14773.46
484.64	14846.02
484.82	14633.03
485.00	15002.83
485.18	15019.22
485.35	15176.03
485.53	15000.49
485.71	15243.91
485.89	15424.13
486.07	15700.31
486.25	15641.80
486.43	15777.55
486.61	15812.66
486.78	16018.63
486.96	15953.09
487.14	16350.98
487.32	16147.36
487.50	16411.84
487.68	16788.66
487.85	16910.37
488.03	16865.90
488.21	17315.28
488.39	17043.78
488.57	17266.13
488.75	17359.75
488.92	17820.84
489.10	17579.76
489.28	17792.75
489.46	18167.24
489.64	17930.84
489.81	18253.84
489.99	18291.29
490.17	18450.44
490.35	18813.23
490.53	18808.54
490.70	18979.40
490.88	18853.02
491.06	19178.35
491.24	19192.39
491.41	19381.98
491.59	19360.91
491.77	19728.38
491.95	19587.94
492.13	19520.07
492.30	20030.30
492.48	19910.94
492.66	20067.75
492.84	19960.09
493.01	20416.49
493.19	20496.07
493.37	20402.45
493.54	20835.45
493.72	20877.58
493.90	20676.29
494.08	21331.64
494.25	21310.58
494.43	21565.70
494.61	21385.47
494.79	21549.31
494.96	21500.16
495.14	21561.02
495.32	22169.55
495.49	22001.04
495.67	21979.97
495.85	22155.51
496.02	22431.69
496.20	22740.64
496.38	22665.75
496.55	22473.82
496.73	23215.77
496.91	23070.66
497.09	23101.09
497.26	23388.97
497.44	23161.94
497.62	23737.71
497.79	24006.87
497.97	23711.97
498.14	24093.47
498.32	24091.13
498.50	23917.93
498.67	24257.31
498.85	23983.47
499.03	24400.08
499.20	24362.64
499.38	24685.63
499.56	24521.79
499.73	24797.98
499.91	24889.26
500.08	25116.29
500.26	24882.24
500.44	24933.73
500.61	24875.21
500.79	24980.54
500.97	25661.63
501.14	25631.21
501.32	25706.10
501.49	25523.54
501.67	26029.10
501.84	26012.71
502.02	25905.05
502.20	26228.04
502.37	26066.55
502.55	25867.60
502.72	26141.44
502.90	26305.28
503.07	26281.88
503.25	26111.02
503.43	26331.03
503.60	26686.79
503.78	26836.58
503.95	26616.57
504.13	26717.22
504.30	27278.94
504.48	26815.52
504.65	26941.91
504.83	27555.13
505.01	27194.68
505.18	27178.30
505.36	27627.68
505.53	27576.19
505.71	28070.04
505.88	27573.85
506.06	27728.33
506.23	28018.55
506.41	28060.68
506.58	27913.23
506.76	28414.10
506.93	28336.87
507.11	28397.72
507.28	28517.09
507.46	28367.29
507.63	28713.69
507.81	28706.67
507.98	28634.11
508.16	28926.68
508.33	28732.42
508.50	29205.20
508.68	28938.38
508.85	29331.59
509.03	29214.57
509.20	29252.02
509.38	29680.33
509.55	29853.53
509.73	29736.51
509.90	29549.26
510.08	29912.05
510.25	30141.42
510.42	29762.25
510.60	30387.18
510.77	29998.65
510.95	30841.24
511.12	30581.44
511.30	30115.67
511.47	30735.92
511.64	30253.76
511.82	30911.46
511.99	30565.06
512.17	31260.20
512.34	30874.01
512.51	30843.58
512.69	31297.64
512.86	31292.96
513.04	31559.78
513.21	31744.69
513.38	31461.48
513.56	31637.02
513.73	31552.76
513.90	31704.90
514.08	31522.34
514.25	31910.86
514.43	31950.65
514.60	32325.14
514.77	32168.32
514.95	32353.23
515.12	32233.86
515.29	32116.83
515.47	32187.05
515.64	32624.73
515.81	32224.50
515.99	32467.91
516.16	32999.21
516.33	32716.01
516.51	32940.70
516.68	32285.35
516.85	32943.04
517.03	33378.38
517.20	33205.18
517.37	33251.99
517.54	33345.61
517.72	33457.96
517.89	33502.43
518.06	33544.56
518.24	33528.17
518.41	33476.68
518.58	33668.61
518.75	33350.29
518.93	34204.59
519.10	33729.46
519.27	34005.64
519.45	33905.00
519.62	34181.18
519.79	34080.54
519.96	34440.98
520.14	34099.26
520.31	34256.08
520.48	34394.17
520.65	34359.06
520.83	34487.79
521.00	34913.77
521.17	34766.32
521.34	35007.39
521.52	34518.22
521.69	34831.85
521.86	35129.10
522.03	34976.97
522.20	35302.30
522.38	35388.90
522.55	35545.72
522.72	35569.12
522.89	35599.55
523.07	35889.77
523.24	35747.00
523.41	35447.41
523.58	36081.70
523.75	36107.44
523.92	35941.27
524.10	35784.45
524.27	35887.43
524.44	36290.01
524.61	36308.73
524.78	36222.13
524.96	36311.07
525.13	36631.72
525.30	36870.46
525.47	36655.13
525.64	36430.44
525.81	36580.23
525.98	36624.70
526.16	36744.07
526.33	36655.13
526.50	36940.68
526.67	36727.69
526.84	36858.76
527.01	37111.53
527.18	37095.15
527.36	37556.24
527.53	37146.64
527.70	37682.62
527.87	37350.27
528.04	36641.09
528.21	37663.90
528.38	37488.36
528.55	37809.01
528.72	37607.73
528.89	37778.59
529.07	37577.30
529.24	37780.93
529.41	37993.92
529.58	38190.52
529.75	37935.40
529.92	37963.49
530.09	38396.49
530.26	38309.89
530.43	37701.35
530.60	37923.70
530.77	37844.12
530.94	38604.80
531.11	38529.90
531.28	38157.75
531.46	38031.36
531.63	38609.48
531.80	38527.56
531.97	38827.15
532.14	38785.02
532.31	38595.43
532.48	38677.35
532.65	39496.54
532.82	39164.18
532.99	39278.87
533.16	38855.23
533.33	39351.43
533.50	39426.32
533.67	38951.20
533.84	39140.78
534.01	38663.31
534.18	39414.62
534.35	40179.98
534.52	39468.45
534.69	40107.42
534.86	40091.04
535.03	39765.70
535.20	39770.38
535.37	39819.53
535.54	40151.89
535.71	40105.08
535.88	40147.21
536.05	40034.86
536.22	40425.73
536.38	40442.12
536.55	40016.14
536.72	40701.92
536.89	40383.60
537.06	40301.68
537.23	40659.79
537.40	39966.99
537.57	40402.33
537.74	40486.59
537.91	40746.39
538.08	40058.27
538.25	40325.09
538.42	40634.04
538.59	40844.69
538.75	40669.15
538.92	40903.20
539.09	41053.00
539.26	41148.96
539.43	40802.56
539.60	40980.44
539.77	41160.66
539.94	41425.14
540.11	41572.60
540.28	41427.48
540.44	41572.60
540.61	41530.47
540.78	41329.18
540.95	41455.57
541.12	41390.03
541.29	41511.74
541.46	41977.51
541.62	41764.52
541.79	41944.74
541.96	41380.67
542.13	41666.22
542.30	41645.15
542.47	41670.90
542.63	41823.03
542.80	42134.32
542.97	42359.02
543.14	42714.78
543.31	42260.71
543.48	42377.74
543.64	42951.17
543.81	42473.70
543.98	42494.77
544.15	42375.40
544.32	42506.47
544.48	42955.85
544.65	42941.81
544.82	43093.94
544.99	42616.47
545.16	42595.41
545.32	42480.72
545.49	43189.91
545.66	43571.41
545.83	42827.12
546.00	42953.51
546.16	43009.68
546.33	43213.31
546.50	43005.00
546.67	43372.47
546.83	42454.98
547.00	43487.15
547.17	42916.06
547.34	43082.24
547.50	43648.65
547.67	44016.11
547.84	43325.66
548.00	43810.15
548.17	43798.44
548.34	43412.26
548.51	43861.64
548.67	44081.65
548.84	43505.88
549.01	43784.40
549.18	43798.44
549.34	44222.08
549.51	43758.66
549.68	43990.37
549.84	43941.22
550.01	44554.44
550.18	44109.74
550.34	44397.62
550.51	44149.53
550.68	44203.36
550.84	43913.13
551.01	44463.16
551.18	44383.58
551.34	44004.41
551.51	44491.24
551.68	44238.47
551.84	44500.61
552.01	44414.01
552.18	44229.10
552.34	44250.17
552.51	43957.60
552.68	44580.18
552.84	44657.42
553.01	44767.43
553.18	44329.75
553.34	44535.71
553.51	44388.26
553.67	44910.20
553.84	44575.50
554.01	44739.34
554.17	44814.24
554.34	45078.72
554.51	44910.20
554.67	44996.80
554.84	45144.25
555.00	45006.16
555.17	45127.87
555.33	45198.09
555.50	45118.51
555.67	45223.83
555.83	45352.56
556.00	45368.94
556.16	45509.38
556.33	45397.03
556.50	45539.80
556.66	45708.32
556.83	45319.79
556.99	45581.93
557.16	45691.94
557.32	45654.49
557.49	45806.62
557.65	45411.07
557.82	46010.25
557.98	45645.13
558.15	45659.17
558.32	45687.26
558.48	45357.24
558.65	45525.76
558.81	45731.73
558.98	45907.27
559.14	45600.66
559.31	45558.53
559.47	45647.47
559.64	46223.24
559.80	45977.48
559.97	46335.59
560.13	45371.28
560.30	45694.28
560.46	46169.41
560.63	46279.41
560.79	46300.48
560.96	46623.47
561.12	46169.41
561.29	46361.33
561.45	46270.05
561.61	46326.22
561.78	45947.06
561.94	46218.56
562.11	46237.28
562.27	46637.51
562.44	46363.67
562.60	46485.38
562.77	46321.54
562.93	46225.58
563.10	46672.62
563.26	45937.69
563.42	46691.35
563.59	46742.84
563.75	45979.82
563.92	46782.63
564.08	46752.20
564.24	46663.26
564.41	46656.24
564.57	46440.91
564.74	46637.51
564.90	46270.05
565.07	46433.89
565.23	46492.40
565.39	46316.86
565.56	46691.35
565.72	46635.17
565.88	46614.11
566.05	46611.77
566.21	46494.74
566.38	46827.10
566.54	46745.18
566.70	46916.04
566.87	46597.73
567.03	46850.50
567.19	46885.61
567.36	46834.12
567.52	46471.34
567.68	47201.58
567.85	47187.54
568.01	47040.09
568.17	47473.09
568.34	47093.92
568.50	47166.48
568.66	46583.68
568.83	46986.25
568.99	47168.82
569.15	46932.42
569.32	46862.21
569.48	46864.55
569.64	47370.10
569.81	46946.47
569.97	47625.22
570.13	47297.55
570.30	46796.67
570.46	47337.33
570.62	47077.54
570.78	47222.65
570.95	46829.44
571.11	47377.12
571.27	47122.01
571.43	47248.39
571.60	46892.63
571.76	47269.46
571.92	47342.02
572.09	47412.23
572.25	47185.20
572.41	47257.76
572.57	47199.24
572.74	47929.49
572.90	47192.22
573.06	47707.14
573.22	47423.93
573.38	47526.92
573.55	47606.50
573.71	47660.33
573.87	47442.66
574.03	47227.33
574.20	47744.59
574.36	47194.56
574.52	47473.09
574.68	47643.94
574.84	47653.31
575.01	47709.48
575.17	47681.39
575.33	47442.66
575.49	47559.69
575.65	47601.82
575.82	47201.58
575.98	47393.51
576.14	47248.39
576.30	47540.96
576.46	47290.52
576.62	47332.65
576.79	47526.92
576.95	47157.11
577.11	47147.75
577.27	47402.87
577.43	47730.54
577.59	47672.03
577.75	47400.53
577.92	47297.55
578.08	47564.37
578.24	47681.39
578.40	47503.51
578.56	47941.19
578.72	47402.87
578.88	47529.26
579.04	47487.13
579.21	47625.22
579.37	47498.83
579.53	47730.54
579.69	47700.12
579.85	47697.78
580.01	47828.85
580.17	47419.25
580.33	48088.65
580.49	47660.33
580.65	47873.32
580.82	47737.57
580.98	48081.63
581.14	47126.69
581.30	48013.75
581.46	47665.01
581.62	47763.31
581.78	47412.23
581.94	47880.34
582.10	47739.91
582.26	47751.61
582.42	47934.17
582.58	47751.61
582.74	47894.38
582.90	47927.15
583.06	47866.30
583.22	47868.64
583.38	47807.78
583.54	47562.03
583.70	47969.28
583.86	47971.62
584.02	47868.64
584.18	48278.23
584.34	47519.90
584.50	47812.46
584.66	48137.80
584.82	47824.17
584.98	48165.88
585.14	47892.04
585.30	48233.76
585.46	48177.59
585.62	47826.51
585.78	47868.64
585.94	47503.51
586.10	47697.78
586.26	47831.19
586.42	47976.30
586.58	48112.05
586.74	47667.35
586.90	47746.93
587.06	47873.32
587.22	48004.39
587.38	48020.77
587.54	48119.07
587.70	47955.24
587.86	48072.26
588.02	48098.01
588.18	47861.61
588.34	47866.30
588.49	47978.64
588.65	47835.87
588.81	47597.13
588.97	48268.87
589.13	48041.84
589.29	47927.15
589.45	48516.96
589.61	48205.67
589.77	48016.09
589.93	48023.11
590.08	48093.33
590.24	48463.13
590.40	48229.08
590.56	48655.06
590.72	48334.40
590.88	48456.11
591.04	48411.64
591.20	48334.40
591.35	48540.37
591.51	48470.15
591.67	48219.72
591.83	48713.57
591.99	48643.35
592.15	47899.06
592.31	48119.07
592.46	48311.00
592.62	47913.11
592.78	48552.07
592.94	48650.38
593.10	48308.66
593.26	48399.94
593.41	48851.66
593.57	48226.74
593.73	48435.05
593.89	49090.40
594.05	48802.51
594.20	48477.18
594.36	48996.77
594.52	48694.85
594.68	48556.75
594.84	48584.84
594.99	48395.26
595.15	48264.19
595.31	48570.80
595.47	48495.90
595.62	48690.16
595.78	48692.50
595.94	48699.53
596.10	48736.98
596.25	48596.54
596.41	48863.36
596.57	48615.27
596.73	48641.01
596.88	48729.95
597.04	49088.06
597.20	48413.98
597.36	48802.51
597.51	48538.03
597.67	48650.38
597.83	48439.73
597.99	48687.82
598.14	48762.72
598.30	48561.44
598.46	48533.35
598.61	49202.74
598.77	48577.82
598.93	48739.32
599.09	48374.19
599.24	48992.09
599.40	48708.89
599.56	49151.25
599.71	49160.61
599.87	49078.69
600.03	49385.30
600.18	48708.89
600.34	48870.39
600.50	48722.93
600.65	48807.19
600.81	49062.31
600.97	48846.98
601.12	48924.22
601.28	48889.11
601.44	48966.35
601.59	48823.58
601.75	48879.75
601.91	49120.82
602.06	48605.91
602.22	49237.85
602.37	48851.66
602.53	49099.76
602.69	49069.33
602.84	48706.55
603.00	48622.29
603.16	48673.78
603.31	49045.93
603.47	49200.40
603.62	49310.41
603.78	49045.93
603.94	48788.47
604.09	48832.94
604.25	48720.59
604.40	48662.08
604.56	48641.01
604.71	48844.64
604.87	48601.22
605.03	48610.59
605.18	48809.53
605.34	49006.14
605.49	48835.28
605.65	48650.38
605.80	48570.80
605.96	48694.85
606.12	48589.52
606.27	48580.16
606.43	48247.80
606.58	48732.29
606.74	48802.51
606.89	48491.22
607.05	48641.01
607.20	48729.95
607.36	48938.26
607.51	48755.70
607.67	48523.99
607.82	48275.89
607.98	48758.04
608.13	48460.79
608.29	48378.87
608.44	48861.02
608.60	48278.23
608.75	48741.66
608.91	48390.58
609.06	48521.65
609.22	48804.85
609.37	48486.54
609.53	48959.33
609.68	48825.92
609.84	48334.40
609.99	48825.92
610.15	48610.59
610.30	48559.09
610.46	48292.27
610.61	48488.88
610.76	48531.01
610.92	48477.18
611.07	48034.81
611.23	48179.93
611.38	48491.22
611.54	48629.31
611.69	48505.26
611.84	48589.52
612.00	48261.85
612.15	48231.42
612.31	48369.51
612.46	48100.35
612.62	48257.17
612.77	48055.88
612.92	48669.10
613.08	48294.61
613.23	48399.94
613.39	48210.35
613.54	48406.96
613.69	48374.19
613.85	48072.26
614.00	47997.37
614.15	48105.03
614.31	48193.97
614.46	48336.74
614.62	47636.92
614.77	48002.05
614.92	47945.87
615.08	47962.26
615.23	47941.19
615.38	47922.47
615.54	48261.85
615.69	48261.85
615.84	48168.22
616.00	48238.44
616.15	47948.21
616.30	48046.52
616.46	47686.07
616.61	47629.90
616.76	47983.32
616.92	47995.03
617.07	47959.92
617.22	47980.98
617.37	47196.90
617.53	48065.24
617.68	47973.96
617.83	48009.07
617.99	48105.03
618.14	48011.41
618.29	47533.94
618.45	47440.32
618.60	47365.42
618.75	47405.21
618.90	47657.99
619.06	47515.22
619.21	47430.96
619.36	47845.23
619.51	47566.71
619.67	47870.98
619.82	47484.79
619.97	47356.06
620.12	47313.93
620.28	47426.28
620.43	48301.64
620.58	47454.36
620.73	47505.85
620.89	48130.78
621.04	47597.13
621.19	47243.71
621.34	47384.15
621.49	47494.15
621.65	47215.63
621.80	47269.46
621.95	47487.13
622.10	47459.04
622.25	47304.57
622.41	47185.20
622.56	47473.09
622.71	47304.57
622.86	47512.88
623.01	47267.12
623.16	47042.43
623.32	47016.68
623.47	47232.01
623.62	47192.22
623.77	47138.39
623.92	46913.70
624.07	46974.55
624.23	47016.68
624.38	47159.45
624.53	46703.05
624.68	46843.48
624.83	46569.64
624.98	47126.69
625.13	46494.74
625.29	46354.31
625.44	46307.50
625.59	47035.41
625.74	46962.85
625.89	46876.25
626.04	46302.82
626.19	46836.46
626.34	46752.20
626.49	46164.73
626.65	46071.10
626.80	46784.97
626.95	46370.69
627.10	46433.89
627.25	46258.35
627.40	46028.98
627.55	46396.44
627.70	46351.97
627.85	46859.87
628.00	46476.02
628.15	46447.93
628.30	45862.80
628.45	46057.06
628.60	46160.05
628.76	46192.81
628.91	46410.48
629.06	46230.26
629.21	45797.26
629.36	46148.34
629.51	45935.35
629.66	46483.04
629.81	45947.06
629.96	46288.77
630.11	46078.13
630.26	45879.18
630.41	46045.36
630.56	45893.22
630.71	46281.75
630.86	45841.73
631.01	45670.87
631.16	45085.74
631.31	45970.46
631.46	45429.80
631.61	45806.62
631.76	46192.81
631.91	46014.93
632.06	45937.69
632.21	45799.60
632.36	45914.29
632.51	46010.25
632.66	46101.53
632.81	45579.59
632.96	45530.44
633.10	45591.30
633.25	45694.28
633.40	45247.24
633.55	45698.96
633.70	45535.12
633.85	45116.17
634.00	45146.59
634.15	45296.39
634.30	45354.90
634.45	45331.50
634.60	45502.35
634.75	45179.36
634.90	45179.36
635.05	45263.62
635.19	45359.58
635.34	45523.42
635.49	45022.54
635.64	45340.86
635.79	45385.33
635.94	45443.84
636.09	45495.33
636.24	45141.91
636.39	45055.31
636.53	45411.07
636.68	45123.19
636.83	44786.15
636.98	44872.75
637.13	44818.92
637.28	44631.68
637.43	44474.86
637.57	44835.30
637.72	44500.61
637.87	45024.89
638.02	44968.71
638.17	44832.96
638.32	44486.56
638.46	44208.04
638.61	44278.25
638.76	44570.82
638.91	44664.44
639.06	44643.38
639.20	44091.01
639.35	44076.97
639.50	44226.76
639.65	44842.32
639.80	44751.04
639.94	44957.01
640.09	44722.96
640.24	44399.96
640.39	44091.01
640.54	43978.67
640.68	44385.92
640.83	44531.03
640.98	43992.71
641.13	44172.93
641.27	44320.38
641.42	44149.53
641.57	44074.63
641.72	43878.02
641.86	44219.74
642.01	44081.65
642.16	43742.27
642.31	43732.91
642.45	44051.22
642.60	43658.01
642.75	43957.60
642.90	43938.88
643.04	43821.85
643.19	43924.83
643.34	44119.10
643.48	43503.54
643.63	43641.63
643.78	43831.21
643.93	44098.03
644.07	43981.01
644.22	43665.03
644.37	43309.27
644.51	44114.42
644.66	43529.28
644.81	43723.55
644.95	43796.10
645.10	43643.97
645.25	43477.79
645.39	43430.98
645.54	43648.65
645.69	43131.39
645.83	42997.98
645.98	43131.39
646.13	43599.50
646.27	43075.22
646.42	43260.12
646.57	43243.74
646.71	43688.44
646.86	43351.40
647.00	43342.04
647.15	43358.42
647.30	43122.03
647.44	43061.18
647.59	43037.77
647.74	42693.71
647.88	43154.80
648.03	43040.11
648.17	43353.74
648.32	43168.84
648.47	42944.15
648.61	43051.81
648.76	43239.06
648.90	42789.67
649.05	43227.35
649.20	42674.99
649.34	42995.64
649.49	43112.67
649.63	43093.94
649.78	43344.38
649.92	43283.53
650.07	43084.58
650.21	43166.50
650.36	42719.46
650.51	42756.91
650.65	43012.02
650.80	42941.81
650.94	42433.91
651.09	42689.03
651.23	42197.52
651.38	42241.99
651.52	42562.64
651.67	42637.54
651.81	42459.66
651.96	42101.56
652.10	42129.64
652.25	42316.89
652.39	42391.78
652.54	42550.94
652.68	42443.27
652.83	42581.37
652.97	42539.24
653.12	42541.58
653.26	41933.04
653.41	41979.85
653.55	42405.83
653.70	42902.02
653.84	42291.14
653.99	42373.06
654.13	42384.76
654.27	41848.78
654.42	42106.24
654.56	41900.27
654.71	41961.12
654.85	41855.80
655.00	42117.94
655.14	42157.73
655.29	42265.39
655.43	42469.02
655.57	42113.26
655.72	41656.85
655.86	41965.81
656.01	41776.22
656.15	41523.44
656.30	41614.72
656.44	41848.78
656.58	41514.08
656.73	42185.82
656.87	41429.82
657.01	41085.76
657.16	41792.61
657.30	41326.84
657.45	41446.21
657.59	41406.42
657.73	41434.50
657.88	40858.73
658.02	41610.04
658.16	41493.02
658.31	40872.78
658.45	41436.84
658.60	41048.32
658.74	41104.49
658.88	41254.28
659.03	41088.10
659.17	41155.98
659.31	40884.48
659.46	40854.05
659.60	41141.94
659.74	40664.47
659.89	40788.52
660.03	40399.99
660.17	41064.70
660.32	40825.96
660.46	40629.36
660.60	40673.83
660.74	40493.61
660.89	40842.35
661.03	40336.79
661.17	40392.97
661.32	39978.69
661.46	40491.27
661.60	39974.01
661.74	40570.85
661.89	39805.49
662.03	39995.07
662.17	40112.10
662.31	40313.39
662.46	39824.22
662.60	39833.58
662.74	39571.44
662.88	39543.35
663.03	39615.91
663.17	39782.09
663.31	39622.93
663.45	39377.17
663.60	39714.21
663.74	39611.23
663.88	39864.00
664.02	39629.95
664.17	39124.40
664.31	39494.20
664.45	39178.23
664.59	38686.71
664.73	39187.59
664.88	38885.66
665.02	38742.89
665.16	38904.38
665.30	38778.00
665.44	38885.66
665.59	38691.40
665.73	38579.05
665.87	38218.61
666.01	38829.49
666.15	38763.95
666.29	38153.07
666.44	38459.68
666.58	38234.99
666.72	38073.49
666.86	38000.94
667.00	38022.00
667.14	38309.89
667.28	38132.01
667.43	38153.07
667.57	38155.41
667.71	38534.58
667.85	37933.06
667.99	37813.70
668.13	37420.48
668.27	37352.61
668.41	37790.29
668.56	37528.15
668.70	37469.64
668.84	37266.01
668.98	36863.44
669.12	37160.69
669.26	37317.50
669.40	37228.56
669.54	37294.10
669.68	37258.99
669.82	37034.30
669.96	36917.27
670.10	35936.59
670.25	36952.38
670.39	36278.30
670.53	37022.59
670.67	36666.83
670.81	36760.45
670.95	36615.34
671.09	36793.22
671.23	36180.00
671.37	36446.82
671.51	35992.76
671.65	36414.05
671.79	35997.44
671.93	35866.37
672.07	36336.82
672.21	36278.30
672.35	35695.51
672.49	35974.03
672.63	35559.76
672.77	35384.22
672.91	35831.26
673.05	35431.03
673.19	35552.74
673.33	35325.71
673.47	35512.95
673.61	35393.58
673.75	35138.46
673.89	35117.40
674.03	34785.04
674.17	34532.26
674.31	34483.11
674.45	34087.56
674.59	34473.75
674.73	34455.03
674.87	34132.03
675.01	34333.32
675.15	33762.23
675.29	33701.37
675.43	34270.12
675.56	34326.30
675.70	33933.09
675.84	33684.99
675.98	32411.74
676.12	33738.82
676.26	33949.47
676.40	33401.79
676.54	33165.39
676.68	33319.87
676.82	32851.76
676.96	32987.51
677.10	33577.33
677.23	32772.18
677.37	33130.28
677.51	32713.67
677.65	33067.09
677.79	32512.38
677.93	32437.48
678.07	32479.61
678.21	32196.41
678.34	32034.91
678.48	31487.23
678.62	31821.92
678.76	32170.66
678.90	31756.39
679.04	31318.71
679.18	32196.41
679.31	31395.95
679.45	30995.71
679.59	31199.34
679.73	31110.40
679.87	30878.69
680.00	31087.00
680.14	31072.95
680.28	30827.20
680.42	30981.67
680.56	30553.35
680.70	30272.49
680.83	30244.40
680.97	30061.84
681.11	30288.87
681.25	29809.06
681.39	29776.30
681.52	29858.21
681.66	29319.89
681.80	29427.56
681.94	29507.13
682.07	29099.88
682.21	29352.66
682.35	29209.89
682.49	29322.23
682.62	29261.38
682.76	28943.06
682.90	28982.85
683.04	28666.88
683.17	28774.55
683.31	28807.31
683.45	28772.21
683.59	28837.74
683.72	28327.50
683.86	28294.74
684.00	27915.57
684.13	28002.17
684.27	27831.31
684.41	27665.13
684.55	27845.35
684.68	27517.68
684.82	27480.23
684.96	27559.81
685.09	27515.34
685.23	27206.39
685.37	27754.07
685.50	27875.78
685.64	27517.68
685.78	26876.37
685.91	26499.55
686.05	26501.89
686.19	26274.85
686.32	26426.99
686.46	26078.25
686.60	25809.09
686.73	26150.81
686.87	25916.75
687.01	25947.18
687.14	25834.83
687.28	25942.50
687.42	25991.65
687.55	25413.54
687.69	25563.33
687.82	25399.49
687.96	25259.06
688.10	25074.16
688.23	25078.84
688.37	25003.94
688.50	25263.74
688.64	24971.18
688.78	25003.94
688.91	24706.70
689.05	24737.12
689.18	24409.45
689.32	23840.70
689.46	24306.46
689.59	24039.64
689.73	24346.25
689.86	24458.60
690.00	24346.25
690.13	24009.22
690.27	23864.10
690.41	23789.20
690.54	23695.58
690.68	23627.71
690.81	23419.40
690.95	23126.83
691.08	23028.53
691.22	23220.45
691.35	22972.36
691.49	23082.36
691.62	22939.59
691.76	22780.43
691.89	22487.87
692.03	22422.33
692.16	22216.36
692.30	22256.15
692.43	21867.63
692.57	21926.14
692.70	21612.51
692.84	22047.85
692.97	21940.18
693.11	21446.33
693.24	21451.01
693.38	21446.33
693.51	21296.53
693.65	21635.91
693.78	21062.48
693.92	20936.09
694.05	20938.43
694.19	21149.08
694.32	20854.17
694.45	20912.69
694.59	20968.86
694.72	21001.63
694.86	20507.77
694.99	20390.75
695.13	20255.00
695.26	19988.18
695.39	19922.64
695.53	20011.58
695.66	19981.15
695.80	19910.94
695.93	19840.72
696.07	19407.72
696.20	19295.38
696.33	19199.41
696.47	19548.15
696.60	19461.55
696.73	19161.97
696.87	19023.87
697.00	19103.45
697.14	19204.10
697.27	18731.31
697.40	19028.56
697.54	18780.46
697.67	18853.02
697.80	18656.41
697.94	18679.82
698.07	18427.04
698.21	18281.92
698.34	18490.23
698.47	18146.17
698.61	17771.69
698.74	17848.93
698.87	17996.38
699.01	17715.51
699.14	17563.38
699.27	17804.46
699.40	17872.33
699.54	17359.75
699.67	17783.39
699.80	17397.20
699.94	17125.70
700.07	17062.51
700.20	17158.47
700.34	16896.33
700.47	17245.07
700.60	17121.02
700.73	16961.86
700.87	16615.46
701.00	16652.91
701.13	16430.56
701.26	16479.71
701.40	16456.31
701.53	16196.51
701.66	16313.53
701.79	16255.02
701.93	15927.35
702.06	15730.74
702.19	15943.73
702.32	16137.99
702.46	15932.03
702.59	15894.58
702.72	15733.08
702.85	15597.33
702.99	15590.31
703.12	15599.67
703.25	15051.99
703.38	15431.15
703.51	15183.06
703.65	14972.41
703.78	14815.59
703.91	14609.62
704.04	14815.59
704.17	14703.25
704.31	14771.12
704.44	14469.19
704.57	14792.19
704.70	14413.02
704.83	14537.07
704.96	14244.50
705.10	14085.34
705.23	14265.57
>>>>>End Processed Spectral Data<<<<<
