SpectraSuite Data File
++++++++++++++++++++++++++++++++++++
Date: Fri Oct 25 11:33:37 EDT 2013
User: price-jones
Dark Spectrum Present: No
Reference Spectrum Present: No
Number of Sampled Component Spectra: 1
Spectrometers: USB2+H05261
Integration Time (usec): 100000 (USB2+H05261)
Spectra Averaged: 1 (USB2+H05261)
Boxcar Smoothing: 0 (USB2+H05261)
Correct for Electrical Dark: No (USB2+H05261)
Strobe/Lamp Enabled: No (USB2+H05261)
Correct for Detector Non-linearity: No (USB2+H05261)
Correct for Stray Light: No (USB2+H05261)
Number of Pixels in Processed Spectrum: 2048
>>>>>Begin Processed Spectral Data<<<<<
365.73	292.57
365.92	292.57
366.12	292.57
366.32	194.26
366.52	145.11
366.72	140.43
366.91	147.45
367.11	170.86
367.31	184.90
367.51	198.95
367.70	191.92
367.90	180.22
368.10	154.48
368.30	145.11
368.49	191.92
368.69	217.67
368.89	175.54
369.09	117.03
369.28	196.60
369.48	227.03
369.68	208.31
369.87	217.67
370.07	231.71
370.27	222.35
370.47	332.36
370.66	512.58
370.86	629.60
371.06	566.41
371.25	547.69
371.45	535.98
371.65	528.96
371.84	557.05
372.04	589.82
372.24	528.96
372.44	620.24
372.63	655.35
372.83	559.39
373.03	550.03
373.22	620.24
373.42	613.22
373.62	615.56
373.81	650.67
374.01	704.50
374.21	615.56
374.40	599.18
374.60	662.37
374.79	678.76
374.99	648.33
375.19	631.94
375.38	674.07
375.58	636.63
375.78	655.35
375.97	688.12
376.17	763.01
376.37	648.33
376.56	697.48
376.76	704.50
376.95	662.37
377.15	671.73
377.35	695.14
377.54	723.23
377.74	725.57
377.93	615.56
378.13	730.25
378.33	709.18
378.52	774.72
378.72	688.12
378.91	697.48
379.11	699.82
379.31	753.65
379.50	697.48
379.70	737.27
379.89	706.84
380.09	702.16
380.28	793.44
380.48	718.54
380.68	650.67
380.87	727.91
381.07	716.20
381.26	732.59
381.46	748.97
381.65	685.78
381.85	760.67
382.04	730.25
382.24	826.21
382.43	748.97
382.63	692.80
382.83	788.76
383.02	814.51
383.22	842.59
383.41	849.61
383.61	837.91
383.80	802.80
384.00	837.91
384.19	856.64
384.39	837.91
384.58	814.51
384.78	732.59
384.97	830.89
385.17	800.46
385.36	805.14
385.56	866.00
385.75	842.59
385.95	894.08
386.14	870.68
386.34	863.66
386.53	875.36
386.72	903.45
386.92	922.17
387.11	851.96
387.31	943.24
387.50	877.70
387.70	858.98
387.89	957.28
388.09	861.32
388.28	861.32
388.48	959.62
388.67	964.30
388.86	1001.75
389.06	903.45
389.25	936.21
389.45	997.07
389.64	987.71
389.84	961.96
390.03	943.24
390.22	896.43
390.42	976.00
390.61	896.43
390.81	954.94
391.00	961.96
391.19	1018.13
391.39	1008.77
391.58	1029.84
391.78	1048.56
391.97	1008.77
392.16	1015.79
392.36	968.98
392.55	1149.20
392.75	1081.33
392.94	1011.11
393.13	1107.07
393.33	999.41
393.52	1104.73
393.71	1188.99
393.91	1053.24
394.10	1149.20
394.29	1184.31
394.49	1139.84
394.68	1123.46
394.88	1088.35
395.07	1081.33
395.26	1093.03
395.46	1114.10
395.65	1132.82
395.84	1179.63
396.04	1205.38
396.23	1125.80
396.42	1160.91
396.62	1245.16
396.81	1240.48
397.00	1163.25
397.19	1245.16
397.39	1306.02
397.58	1252.19
397.77	1196.01
397.97	1284.95
398.16	1249.85
398.35	1345.81
398.55	1214.74
398.74	1306.02
398.93	1277.93
399.12	1270.91
399.32	1301.34
399.51	1275.59
399.70	1383.26
399.90	1378.58
400.09	1371.55
400.28	1425.39
400.47	1373.89
400.67	1455.81
400.86	1441.77
401.05	1366.87
401.24	1430.07
401.44	1448.79
401.63	1507.30
401.82	1460.49
402.01	1488.58
402.21	1483.90
402.40	1427.73
402.59	1514.33
402.78	1544.75
402.97	1561.14
403.17	1446.45
403.36	1610.29
403.55	1504.96
403.74	1645.40
403.93	1638.38
404.13	1624.33
404.32	1633.69
404.51	1533.05
404.70	1657.10
404.89	1626.67
405.09	1715.61
405.28	1687.53
405.47	1743.70
405.66	1633.69
405.85	1729.66
406.05	1659.44
406.24	1795.19
406.43	1776.47
406.62	1774.13
406.81	1919.24
407.00	1853.70
407.20	1767.10
407.39	1734.34
407.58	1753.06
407.77	1818.60
407.96	1853.70
408.15	1919.24
408.34	1849.02
408.54	1916.90
408.73	1858.39
408.92	1966.05
409.11	1933.28
409.30	1949.67
409.49	1998.82
409.68	1916.90
409.87	1980.09
410.07	2062.01
410.26	2069.03
410.45	2057.33
410.64	2122.87
410.83	2111.16
411.02	2162.66
411.21	2134.57
411.40	2113.50
411.59	2108.82
411.78	2190.74
411.98	2104.14
412.17	2221.17
412.36	2270.32
412.55	2267.98
412.74	2352.24
412.93	2298.41
413.12	2289.04
413.31	2450.54
413.50	2424.80
413.69	2452.88
413.88	2504.37
414.07	2443.52
414.26	2445.86
414.45	2616.72
414.64	2450.54
414.83	2562.89
415.02	2597.99
415.22	2593.31
415.41	2703.32
415.60	2590.97
415.79	2759.49
415.98	2827.37
416.17	2640.12
416.36	2810.98
416.55	2696.30
416.74	2708.00
416.93	2925.67
417.12	2892.90
417.31	2906.95
417.50	2822.69
417.69	2946.73
417.88	2899.92
418.07	2850.77
418.26	2993.55
418.45	2869.50
418.64	3183.13
418.83	3145.68
419.02	3042.70
419.21	3059.08
419.39	3005.25
419.58	3080.14
419.77	3110.57
419.96	3178.45
420.15	3138.66
420.34	3152.70
420.53	3096.53
420.72	3112.91
420.91	3279.09
421.10	3190.15
421.29	3260.37
421.48	3220.58
421.67	3225.26
421.86	3288.45
422.05	3218.24
422.24	3269.73
422.43	3361.01
422.61	3417.18
422.80	3379.73
422.99	3344.63
423.18	3454.63
423.37	3548.25
423.56	3295.47
423.75	3543.57
423.94	3330.58
424.13	3279.09
424.32	3248.66
424.50	3405.48
424.69	3550.59
424.88	3604.42
425.07	3349.31
425.26	3316.54
425.45	3440.59
425.64	3414.84
425.83	3456.97
426.01	3417.18
426.20	3478.04
426.39	3613.79
426.58	3471.01
426.77	3550.59
426.96	3442.93
427.15	3595.06
427.33	3693.37
427.52	3630.17
427.71	3653.58
427.90	3599.74
428.09	3527.19
428.28	3712.09
428.46	3676.98
428.65	3651.24
428.84	3805.71
429.03	3784.65
429.22	3693.37
429.40	3653.58
429.59	3868.91
429.78	3688.68
429.97	3698.05
430.16	3829.12
430.34	3733.15
430.53	3852.52
430.72	3978.91
430.91	3896.99
431.10	3843.16
431.28	3936.78
431.47	4007.00
431.66	3992.95
431.85	3936.78
432.03	4241.05
432.22	4091.26
432.41	4128.70
432.60	4002.32
432.79	4016.36
432.97	4208.28
433.16	4112.32
433.35	4147.43
433.54	4180.20
433.72	4227.01
433.91	4278.50
434.10	4065.51
434.28	4276.16
434.47	4222.33
434.66	4175.52
434.85	4266.80
435.03	4379.14
435.22	4360.42
435.41	4381.48
435.59	4550.00
435.78	4423.61
435.97	4322.97
436.16	4386.16
436.34	4344.03
436.53	4444.68
436.72	4568.73
436.90	4507.87
437.09	4596.81
437.28	4528.94
437.46	4557.02
437.65	4627.24
437.84	4498.51
438.02	4521.92
438.21	4510.21
438.40	4580.43
438.58	4727.88
438.77	4802.78
438.96	4648.30
439.14	4840.23
439.33	4840.23
439.52	4997.04
439.70	4903.42
439.89	5013.43
440.08	5050.88
440.26	5029.81
440.45	4954.91
440.63	5130.45
440.82	5214.71
441.01	5090.67
441.19	5156.20
441.38	5205.35
441.57	5249.82
441.75	5387.91
441.94	5406.64
442.12	5404.30
442.31	5406.64
442.50	5357.49
442.68	5593.88
442.87	5504.94
443.05	5605.58
443.24	5521.32
443.43	5472.17
443.61	5504.94
443.80	5673.46
443.98	5469.83
444.17	5308.34
444.35	5516.64
444.54	5621.97
444.73	5631.33
444.91	5692.18
445.10	5661.76
445.28	5668.78
445.47	5659.42
445.65	5741.33
445.84	5734.31
446.02	5699.20
446.21	5731.97
446.39	5668.78
446.58	5717.93
446.77	5575.16
446.95	5526.00
447.14	5797.51
447.32	5895.81
447.51	5816.23
447.69	5776.44
447.88	5944.96
448.06	5909.85
448.25	5654.73
448.43	5738.99
448.62	5783.46
448.80	5760.06
448.99	5844.32
449.17	5919.21
449.36	5987.09
449.54	6008.16
449.73	6171.99
449.91	6059.65
450.10	5970.71
450.28	6054.97
450.46	6244.55
450.65	5996.45
450.83	6188.38
451.02	6139.23
451.20	6328.81
451.39	6179.01
451.57	6132.20
451.76	5996.45
451.94	6319.45
452.13	6417.75
452.31	6284.34
452.49	6235.19
452.68	6480.94
452.86	6471.58
453.05	6272.64
453.23	6445.84
453.42	6445.84
453.60	6518.39
453.78	6394.34
453.97	6436.47
454.15	6244.55
454.34	6352.21
454.52	6628.40
454.70	6703.29
454.89	6502.01
455.07	6466.90
455.26	6588.61
455.44	6754.79
455.62	6836.70
455.81	6686.91
455.99	6813.30
456.17	6675.21
456.36	6773.51
456.54	6897.56
456.73	6853.09
456.91	7166.72
457.09	7040.33
457.28	6881.18
457.46	7105.87
457.64	6991.18
457.83	7014.59
458.01	6925.65
458.19	7265.02
458.38	7157.36
458.56	7255.66
458.74	7279.07
458.93	7131.61
459.11	7108.21
459.29	7220.55
459.48	7215.87
459.66	7155.02
459.84	7234.60
460.03	7363.33
460.21	7417.16
460.39	7339.92
460.57	7515.46
460.76	7644.19
460.94	7681.64
461.12	7463.97
461.31	7412.48
461.49	7550.57
461.67	7407.80
461.85	7695.68
462.04	7576.31
462.22	7906.33
462.40	7929.74
462.59	7880.58
462.77	7730.79
462.95	7836.11
463.13	7929.74
463.32	7791.64
463.50	7906.33
463.68	7850.16
463.86	8093.57
464.05	7836.11
464.23	7810.37
464.41	7922.71
464.59	7840.79
464.78	8257.41
464.96	8107.62
465.14	7782.28
465.32	8088.89
465.50	8196.56
465.69	7992.93
465.87	8177.83
466.05	7995.27
466.23	8196.56
466.41	8105.28
466.60	8355.71
466.78	8463.38
466.96	8198.90
467.14	8191.88
467.32	8257.41
467.51	8348.69
467.69	8175.49
467.87	8468.06
468.05	8568.70
468.23	8465.72
468.41	8463.38
468.60	8402.52
468.78	8304.22
468.96	8477.42
469.14	8482.10
469.32	8753.60
469.50	8491.46
469.69	8924.46
469.87	8767.65
470.05	8739.56
470.23	8919.78
470.41	8896.38
470.59	8943.19
470.77	8868.29
470.95	8826.16
471.14	8919.78
471.32	8975.95
471.50	9191.28
471.68	9130.43
471.86	9088.30
472.04	9125.75
472.22	9455.76
472.40	9083.62
472.58	9280.22
472.77	9298.95
472.95	9537.68
473.13	9671.09
473.31	9242.78
473.49	9219.37
473.67	9320.01
473.85	9734.29
474.03	9839.61
474.21	9727.27
474.39	9846.63
474.57	9926.21
474.75	9940.26
474.93	9886.42
475.12	9834.93
475.30	10083.03
475.48	10003.45
475.66	10106.43
475.84	10125.16
476.02	10321.76
476.20	10333.47
476.38	10384.96
476.56	10600.29
476.74	10630.71
476.92	10396.66
477.10	10602.63
477.28	10696.25
477.46	10640.08
477.64	10799.23
477.82	10918.60
478.00	11246.27
478.18	11007.54
478.36	11129.25
478.54	11398.41
478.72	11316.49
478.90	11583.31
479.08	11705.02
479.26	11693.32
479.44	11709.70
479.62	11808.00
479.80	11707.36
479.98	11967.16
480.16	12166.10
480.34	12264.41
480.52	12325.26
480.70	12299.52
480.88	12107.59
481.06	12416.54
481.24	12549.95
481.41	12587.40
481.59	12755.92
481.77	12922.10
481.95	13055.51
482.13	13083.59
482.31	13172.54
482.49	13252.11
482.67	13329.35
482.85	13444.04
483.03	13422.97
483.21	13645.32
483.39	13895.76
483.57	13776.39
483.74	13844.27
483.92	13989.38
484.10	14003.43
484.28	14272.59
484.46	14656.43
484.64	14726.65
484.82	14443.45
485.00	14497.28
485.18	15040.28
485.35	15194.76
485.53	15206.46
485.71	15307.10
485.89	15602.01
486.07	15480.30
486.25	15695.63
486.43	15594.99
486.61	15906.28
486.78	15695.63
486.96	15770.53
487.14	16196.51
487.32	16020.97
487.50	16400.13
487.68	16336.94
487.85	16451.63
488.03	16947.82
488.21	17099.95
488.39	17043.78
488.57	17167.83
488.75	17092.93
488.92	17469.76
489.10	17603.17
489.28	17823.18
489.46	17790.41
489.64	17860.63
489.81	18207.03
489.99	18185.96
490.17	18401.29
490.35	18420.02
490.53	18633.00
490.70	18682.16
490.88	18574.49
491.06	18946.64
491.24	19112.81
491.41	18984.09
491.59	19470.92
491.77	19110.47
491.95	19281.33
492.13	19885.19
492.30	19538.79
492.48	19857.10
492.66	19381.98
492.84	20102.86
493.01	20610.76
493.19	20320.53
493.37	20276.06
493.54	20084.14
493.72	20624.80
493.90	20341.60
494.08	20765.23
494.25	21153.76
494.43	21015.67
494.61	21130.36
494.79	21570.38
494.96	21289.51
495.14	21289.51
495.32	21666.34
495.49	21694.43
495.67	21804.43
495.85	22183.60
496.02	22270.20
496.20	22586.17
496.38	22583.83
496.55	22520.63
496.73	22860.01
496.91	22738.30
497.09	22944.27
497.26	23147.90
497.44	22885.76
497.62	22813.20
497.79	23183.01
497.97	23459.19
498.14	23510.68
498.32	23620.69
498.50	23608.98
498.67	23978.79
498.85	23777.50
499.03	24135.60
499.20	24231.57
499.38	24280.72
499.56	24786.27
499.73	24397.74
499.91	24584.99
500.08	24643.50
500.26	24407.11
500.44	24519.45
500.61	24730.10
500.79	24711.38
500.97	25266.08
501.14	25329.28
501.32	25158.42
501.49	25118.63
501.67	25254.38
501.84	25766.96
502.02	25771.64
502.20	25633.55
502.37	25766.96
502.55	25584.40
502.72	25853.56
502.90	25883.98
503.07	26148.46
503.25	26185.91
503.43	25972.92
503.60	26326.35
503.78	26419.97
503.95	26656.36
504.13	26469.12
504.30	26649.34
504.48	27182.98
504.65	26696.15
504.83	27187.66
505.01	26867.01
505.18	27218.09
505.36	27103.40
505.53	27300.01
505.71	27435.76
505.88	27487.25
506.06	27232.13
506.23	27723.65
506.41	27484.91
506.58	27442.78
506.76	27747.05
506.93	27817.27
507.11	28217.50
507.28	28058.34
507.46	28151.96
507.63	28367.29
507.81	28287.71
507.98	28257.29
508.16	28573.26
508.33	28348.57
508.50	28720.71
508.68	29032.00
508.85	29186.48
509.03	28968.81
509.20	29134.99
509.38	29535.22
509.55	29350.32
509.73	29284.78
509.90	29883.96
510.08	29572.67
510.25	29289.46
510.42	29743.53
510.60	29607.78
510.77	30459.73
510.95	30218.66
511.12	29998.65
511.30	30185.89
511.47	30008.01
511.64	30164.82
511.82	30129.72
511.99	30228.02
512.17	30293.55
512.34	30607.19
512.51	30696.13
512.69	30916.14
512.86	30658.68
513.04	31075.29
513.21	31094.02
513.38	31321.05
513.56	31552.76
513.73	31051.89
513.90	30979.33
514.08	31332.75
514.25	31878.10
514.43	31356.16
514.60	31281.26
514.77	31660.43
514.95	31732.98
515.12	31868.73
515.29	31796.18
515.47	32130.87
515.64	32240.88
515.81	31948.31
515.99	32217.47
516.16	32774.52
516.33	32409.40
516.51	32610.68
516.68	32500.68
516.85	32711.33
517.03	32596.64
517.20	32849.42
517.37	32807.29
517.54	32620.05
517.72	33041.34
517.89	32795.59
518.06	33031.98
518.24	33336.25
518.41	33170.07
518.58	32835.38
518.75	32905.59
518.93	33425.19
519.10	33411.15
519.27	33514.13
519.45	33266.03
519.62	33600.73
519.79	33897.98
519.96	33724.78
520.14	33912.02
520.31	33916.70
520.48	33736.48
520.65	34195.23
520.83	34132.03
521.00	34698.44
521.17	34176.50
521.34	34607.16
521.52	34555.67
521.69	34857.60
521.86	34890.37
522.03	34665.67
522.20	34742.91
522.38	35323.36
522.55	35225.06
522.72	34742.91
522.89	35070.59
523.07	35391.24
523.24	34937.18
523.41	35646.36
523.58	35253.15
523.75	35524.65
523.92	35536.35
524.10	35653.38
524.27	35711.89
524.44	35974.03
524.61	35784.45
524.78	36119.15
524.96	35559.76
525.13	36212.77
525.30	36224.47
525.47	36549.81
525.64	36367.24
525.81	36645.77
525.98	36463.21
526.16	36615.34
526.33	36404.69
526.50	36545.12
526.67	36229.15
526.84	36825.99
527.01	36371.92
527.18	37165.37
527.36	36662.15
527.53	36891.52
527.70	37319.84
527.87	37556.24
528.04	36858.76
528.21	37525.81
528.38	36973.44
528.55	37614.75
528.72	36865.78
528.89	37275.37
529.07	37158.34
529.24	37127.92
529.41	37312.82
529.58	37654.54
529.75	37455.59
529.92	37813.70
530.09	37600.71
530.26	37818.38
530.43	37757.52
530.60	37776.25
530.77	37462.61
530.94	38080.52
531.11	38029.02
531.28	38033.71
531.46	37951.79
531.63	38045.41
531.80	38356.70
531.97	38293.50
532.14	37904.98
532.31	38300.53
532.48	38363.72
532.65	38813.10
532.82	38707.78
532.99	38354.36
533.16	38808.42
533.33	38873.96
533.50	38754.59
533.67	39056.52
533.84	38572.03
534.01	38897.36
534.18	38780.34
534.35	39543.35
534.52	39236.74
534.69	39302.28
534.86	39782.09
535.03	39021.41
535.20	39702.51
535.37	39328.02
535.54	39604.20
535.71	39571.44
535.88	39658.04
536.05	39431.01
536.22	40172.96
536.38	39950.60
536.55	40048.91
536.72	39716.55
536.89	39400.58
537.06	39894.43
537.23	39920.18
537.40	39896.77
537.57	39873.37
537.74	40016.14
537.91	40491.27
538.08	39955.29
538.25	39938.90
538.42	40285.30
538.59	41146.62
538.75	40559.14
538.92	40746.39
539.09	40538.08
539.26	40187.00
539.43	40690.21
539.60	40584.89
539.77	40964.06
539.94	41558.55
540.11	40603.61
540.28	41067.04
540.44	40765.11
540.61	40690.21
540.78	41198.11
540.95	40535.74
541.12	40549.78
541.29	40832.99
541.46	40856.39
541.62	41125.55
541.79	41406.42
541.96	41067.04
542.13	41214.49
542.30	41359.61
542.47	41397.06
542.63	41720.05
542.80	41717.71
542.97	41633.45
543.14	42047.72
543.31	41790.27
543.48	42178.79
543.64	42274.76
543.81	42234.97
543.98	42412.85
544.15	42117.94
544.32	42227.95
544.48	42869.25
544.65	42389.44
544.82	42443.27
544.99	42394.12
545.16	42464.34
545.32	42251.35
545.49	42745.20
545.66	42780.31
545.83	42789.67
546.00	43178.20
546.16	42363.70
546.33	42349.65
546.50	42787.33
546.67	43091.60
546.83	42829.46
547.00	42265.39
547.17	42953.51
547.34	42820.10
547.50	43005.00
547.67	43594.82
547.84	42974.58
548.00	43405.23
548.17	43243.74
548.34	43426.30
548.51	43529.28
548.67	43278.85
548.84	43210.97
549.01	43599.50
549.18	43337.36
549.34	43805.47
549.51	43749.29
549.68	44100.37
549.84	43505.88
550.01	44280.60
550.18	43484.81
550.34	43498.86
550.51	43838.23
550.68	43793.76
550.84	43187.56
551.01	44339.11
551.18	43604.18
551.34	43578.43
551.51	44083.99
551.68	43838.23
551.84	43688.44
552.01	43896.75
552.18	43690.78
552.34	43910.79
552.51	43704.82
552.68	43847.60
552.84	44339.11
553.01	44329.75
553.18	44233.78
553.34	44257.19
553.51	44245.49
553.67	44451.45
553.84	44542.74
554.01	44425.71
554.17	44289.96
554.34	44718.28
554.51	44769.77
554.67	44898.50
554.84	44617.63
555.00	44795.51
555.17	44905.52
555.33	44755.72
555.50	44533.37
555.67	44823.60
555.83	44591.89
556.00	45160.64
556.16	45132.55
556.33	44641.04
556.50	45036.59
556.66	44760.40
556.83	44596.57
556.99	45291.71
557.16	45270.64
557.32	44744.02
557.49	44868.07
557.65	44919.56
557.82	45226.17
557.98	45249.58
558.15	45633.42
558.32	45188.72
558.48	45361.92
558.65	45340.86
558.81	45361.92
558.98	45310.43
559.14	45209.79
559.31	45544.48
559.47	45003.82
559.64	45790.24
559.80	45509.38
559.97	45984.51
560.13	45368.94
560.30	45612.36
560.46	45993.87
560.63	46073.45
560.79	45507.04
560.96	45883.86
561.12	45813.65
561.29	45610.02
561.45	45717.68
561.61	45869.82
561.78	45364.26
561.94	46024.29
562.11	45848.75
562.27	45769.18
562.44	45612.36
562.60	46157.70
562.77	45993.87
562.93	46234.94
563.10	46052.38
563.26	46326.22
563.42	46312.18
563.59	45834.71
563.75	46143.66
563.92	46368.35
564.08	45759.81
564.24	46347.29
564.41	46092.17
564.57	46108.55
564.74	45975.14
564.90	46216.22
565.07	45851.09
565.23	46256.01
565.39	45979.82
565.56	46373.03
565.72	45830.03
565.88	46043.02
566.05	46164.73
566.21	46340.27
566.38	46361.33
566.54	46700.71
566.70	46696.03
566.87	46515.81
567.03	46417.50
567.19	46623.47
567.36	46473.68
567.52	46251.33
567.68	46679.64
567.85	46728.80
568.01	46473.68
568.17	46787.31
568.34	46700.71
568.50	46766.24
568.66	46440.91
568.83	46417.50
568.99	46445.59
569.15	46279.41
569.32	46096.85
569.48	46394.10
569.64	46712.41
569.81	46691.35
569.97	46635.17
570.13	46780.29
570.30	46607.09
570.46	46600.07
570.62	46897.31
570.78	46644.54
570.95	46733.48
571.11	46944.12
571.27	46724.11
571.43	46663.26
571.60	46649.22
571.76	46401.12
571.92	46698.37
572.09	46909.02
572.25	46553.26
572.41	47079.88
572.57	46855.18
572.74	47412.23
572.90	46557.94
573.06	46834.12
573.22	46801.35
573.38	47182.86
573.55	47126.69
573.71	47058.81
573.87	46969.87
574.03	47222.65
574.20	47164.14
574.36	46784.97
574.52	47206.26
574.68	47157.11
574.84	46997.96
575.01	47370.10
575.17	47381.80
575.33	47016.68
575.49	46859.87
575.65	47522.24
575.82	46852.84
575.98	47143.07
576.14	47201.58
576.30	47201.58
576.46	46969.87
576.62	46904.34
576.79	47182.86
576.95	47077.54
577.11	46478.36
577.27	47023.70
577.43	46726.46
577.59	46815.40
577.75	47330.31
577.92	47117.32
578.08	46857.52
578.24	47009.66
578.40	46852.84
578.56	47459.04
578.72	47208.61
578.88	47466.06
579.04	47217.97
579.21	47035.41
579.37	47098.60
579.53	47217.97
579.69	46923.06
579.85	47309.25
580.01	47187.54
580.17	47302.23
580.33	47098.60
580.49	47114.98
580.65	47079.88
580.82	46621.13
580.98	47117.32
581.14	47070.51
581.30	47342.02
581.46	47206.26
581.62	47367.76
581.78	47395.85
581.94	47508.19
582.10	47199.24
582.26	47084.56
582.42	47288.18
582.58	47040.09
582.74	47452.02
582.90	47557.35
583.06	47449.68
583.22	47297.55
583.38	47351.38
583.54	47344.36
583.70	47264.78
583.86	47557.35
584.02	47433.30
584.18	47737.57
584.34	47889.70
584.50	47777.36
584.66	47332.65
584.82	47978.64
584.98	47901.40
585.14	47250.74
585.30	47306.91
585.46	47267.12
585.62	47538.62
585.78	48011.41
585.94	46920.72
586.10	47452.02
586.26	47224.99
586.42	47054.13
586.58	47508.19
586.74	47040.09
586.90	47203.92
587.06	47372.44
587.22	47753.95
587.38	47470.75
587.54	47578.41
587.70	47526.92
587.86	47360.74
588.02	47309.25
588.18	47166.48
588.34	47257.76
588.49	47531.60
588.65	47423.93
588.81	47454.36
588.97	47821.83
589.13	47334.99
589.29	47728.20
589.45	48034.81
589.61	47842.89
589.77	47927.15
589.93	47377.12
590.08	47430.96
590.24	48196.31
590.40	48090.99
590.56	48177.59
590.72	47796.08
590.88	47767.99
591.04	47683.73
591.20	47976.30
591.35	47679.05
591.51	48257.17
591.67	47988.00
591.83	48374.19
591.99	47854.59
592.15	47627.56
592.31	47938.85
592.46	47973.96
592.62	48011.41
592.78	48264.19
592.94	48210.35
593.10	48301.64
593.26	48222.06
593.41	47985.66
593.57	48378.87
593.73	48406.96
593.89	48708.89
594.05	48025.45
594.20	48095.67
594.36	48437.39
594.52	48360.15
594.68	48313.34
594.84	48215.04
594.99	48587.18
595.15	48002.05
595.31	48416.32
595.47	48374.19
595.62	48259.51
595.78	48582.50
595.94	48203.33
596.10	48048.86
596.25	48081.63
596.41	48580.16
596.57	48404.62
596.73	48423.34
596.88	48044.18
597.04	48287.59
597.20	48259.51
597.36	48210.35
597.51	48397.60
597.67	47945.87
597.83	48076.94
597.99	48067.58
598.14	48318.02
598.30	48093.33
598.46	47910.77
598.61	48350.79
598.77	48095.67
598.93	48507.60
599.09	48388.24
599.24	48306.32
599.40	48516.96
599.56	48680.80
599.71	48748.68
599.87	48601.22
600.03	48315.68
600.18	48795.49
600.34	48367.17
600.50	48528.67
600.65	48189.29
600.81	48753.36
600.97	48760.38
601.12	48179.93
601.28	48126.10
601.44	48413.98
601.59	48259.51
601.75	48224.40
601.91	48502.92
602.06	48306.32
602.22	48514.62
602.37	48348.45
602.53	48259.51
602.69	48285.25
602.84	48233.76
603.00	48428.02
603.16	48449.09
603.31	48165.88
603.47	48327.38
603.62	48566.12
603.78	48357.81
603.94	48421.00
604.09	48238.44
604.25	48390.58
604.40	48179.93
604.56	48236.10
604.71	48774.42
604.87	48561.44
605.03	47924.81
605.18	48236.10
605.34	48390.58
605.49	48222.06
605.65	48594.20
605.80	48210.35
605.96	48086.31
606.12	48051.20
606.27	48425.68
606.43	48233.76
606.58	48275.89
606.74	48130.78
606.89	48385.89
607.05	48692.50
607.20	48381.21
607.36	47892.04
607.51	48332.06
607.67	48343.77
607.82	47943.53
607.98	47983.32
608.13	48626.97
608.29	48245.46
608.44	48428.02
608.60	48301.64
608.75	48549.73
608.91	47718.84
609.06	48034.81
609.22	48526.33
609.37	48385.89
609.53	48058.22
609.68	48130.78
609.84	48112.05
609.99	48165.88
610.15	48002.05
610.30	48048.86
610.46	47831.19
610.61	48112.05
610.76	48655.06
610.92	47945.87
611.07	47789.06
611.23	47695.44
611.38	48264.19
611.54	48137.80
611.69	48456.11
611.84	48481.86
612.00	48182.27
612.15	48006.73
612.31	47812.46
612.46	47232.01
612.62	47557.35
612.77	47702.46
612.92	48142.48
613.08	47742.25
613.23	47882.68
613.39	47501.17
613.54	47641.60
613.69	48264.19
613.85	47812.46
614.00	47873.32
614.15	47913.11
614.31	47372.44
614.46	47512.88
614.62	47342.02
614.77	47388.83
614.92	47690.76
615.08	47625.22
615.23	47807.78
615.38	47999.71
615.54	48062.90
615.69	47718.84
615.84	47356.06
616.00	47695.44
616.15	47505.85
616.30	47536.28
616.46	47215.63
616.61	47456.70
616.76	47861.61
616.92	47232.01
617.07	47611.18
617.22	47381.80
617.37	47215.63
617.53	47533.94
617.68	47782.04
617.83	47320.95
617.99	47784.38
618.14	47786.72
618.29	47140.73
618.45	47093.92
618.60	47398.19
618.75	47077.54
618.90	47042.43
619.06	47545.64
619.21	47503.51
619.36	47489.47
619.51	46890.29
619.67	47079.88
619.82	47440.32
619.97	47477.77
620.12	47318.61
620.28	46618.79
620.43	47260.10
620.58	47234.35
620.73	47157.11
620.89	47143.07
621.04	47114.98
621.19	46958.17
621.34	46782.63
621.49	46766.24
621.65	47075.19
621.80	47049.45
621.95	46663.26
622.10	47131.37
622.25	47068.17
622.41	46698.37
622.56	46841.14
622.71	46674.96
622.86	46642.20
623.01	46871.57
623.16	47103.28
623.32	46745.18
623.47	46707.73
623.62	46347.29
623.77	46820.08
623.92	46855.18
624.07	46534.53
624.23	47304.57
624.38	46433.89
624.53	47133.71
624.68	46021.95
624.83	46600.07
624.98	46047.70
625.13	46274.73
625.29	46356.65
625.44	46256.01
625.59	46391.76
625.74	46185.79
625.89	46075.79
626.04	46120.26
626.19	46007.91
626.34	46265.37
626.49	45542.14
626.65	45591.30
626.80	45982.16
626.95	45928.33
627.10	45724.71
627.25	45799.60
627.40	46227.92
627.55	46138.98
627.70	45949.40
627.85	46600.07
628.00	46082.81
628.15	46124.94
628.30	45546.82
628.45	45326.81
628.60	45380.65
628.76	45106.80
628.91	45752.79
629.06	45500.01
629.21	45368.94
629.36	45425.12
629.51	45483.63
629.66	45813.65
629.81	45893.22
629.96	45677.90
630.11	45656.83
630.26	45734.07
630.41	45542.14
630.56	45228.51
630.71	45640.45
630.86	45439.16
631.01	45258.94
631.16	45301.07
631.31	45586.61
631.46	45284.68
631.61	45310.43
631.76	45535.12
631.91	45413.41
632.06	45350.22
632.21	45502.35
632.36	45710.66
632.51	44779.13
632.66	45354.90
632.81	45228.51
632.96	45263.62
633.10	45223.83
633.25	45375.97
633.40	45399.37
633.55	45310.43
633.70	44919.56
633.85	44680.83
634.00	44762.75
634.15	44985.10
634.30	45078.72
634.45	44879.77
634.60	44910.20
634.75	45254.26
634.90	44800.19
635.05	44959.35
635.19	44753.38
635.34	44797.85
635.49	45081.06
635.64	44678.49
635.79	44978.07
635.94	44945.31
636.09	45088.08
636.24	44935.95
636.39	44987.44
636.53	44774.45
636.68	43971.64
636.83	44069.95
636.98	44414.01
637.13	44339.11
637.28	44151.87
637.43	44163.57
637.57	44678.49
637.72	44177.61
637.87	44598.91
638.02	44463.16
638.17	44435.07
638.32	44243.15
638.46	43915.47
638.61	44271.23
638.76	43798.44
638.91	44306.34
639.06	44217.40
639.20	44142.50
639.35	43693.12
639.50	43817.17
639.65	43978.67
639.80	44170.59
639.94	44219.74
640.09	44334.43
640.24	44168.25
640.39	43901.43
640.54	43686.10
640.68	44114.42
640.83	43819.51
640.98	43730.57
641.13	43180.54
641.27	44322.72
641.42	43578.43
641.57	43681.42
641.72	43356.08
641.86	42892.66
642.01	43449.70
642.16	43714.19
642.31	43381.83
642.45	44119.10
642.60	43119.69
642.75	43257.78
642.90	43779.72
643.04	43047.13
643.19	43276.51
643.34	43185.22
643.48	43351.40
643.63	43618.22
643.78	43220.33
643.93	43356.08
644.07	43517.58
644.22	42918.40
644.37	43166.50
644.51	43023.73
644.66	43407.58
644.81	43194.59
644.95	43145.44
645.10	43028.41
645.25	43098.62
645.39	43051.81
645.54	43089.26
645.69	42944.15
645.83	42340.29
645.98	42733.50
646.13	42712.44
646.27	42885.64
646.42	42684.35
646.57	42974.58
646.71	43035.43
646.86	43171.18
647.00	42487.74
647.15	42712.44
647.30	43112.67
647.44	43246.08
647.59	42068.79
647.74	42487.74
647.88	42913.72
648.03	42689.03
648.17	42965.21
648.32	43103.31
648.47	43065.86
648.61	42478.38
648.76	41904.95
648.90	42258.37
649.05	42590.73
649.20	42504.13
649.34	42508.81
649.49	42305.18
649.63	42752.23
649.78	42536.90
649.92	42436.25
650.07	43210.97
650.21	42810.74
650.36	43030.75
650.51	42534.56
650.65	42731.16
650.80	42754.57
650.94	42288.80
651.09	42143.69
651.23	42017.30
651.38	41883.89
651.52	41769.20
651.67	42192.84
651.81	42183.48
651.96	41820.69
652.10	41827.71
652.25	42288.80
652.39	41635.79
652.54	41883.89
652.68	41596.00
652.83	42117.94
652.97	41975.17
653.12	41689.62
653.26	41834.74
653.41	42066.45
653.55	41958.78
653.70	41862.82
653.84	42375.40
653.99	42000.91
654.13	41764.52
654.27	41460.25
654.42	41771.54
654.56	41811.33
654.71	42031.34
654.85	41645.15
655.00	41937.72
655.14	41689.62
655.29	42146.03
655.43	41745.80
655.57	41193.43
655.72	41235.56
655.86	41282.37
656.01	41184.07
656.15	41057.68
656.30	41017.89
656.44	41343.22
656.58	41165.34
656.73	41088.10
656.87	40800.22
657.01	40968.74
657.16	41345.56
657.30	40931.29
657.45	41343.22
657.59	40849.37
657.73	40659.79
657.88	40938.31
658.02	41235.56
658.16	41167.68
658.31	40769.79
658.45	40921.93
658.60	40711.28
658.74	40802.56
658.88	40704.26
659.03	40772.13
659.17	40655.11
659.31	39999.76
659.46	40210.40
659.60	40863.41
659.74	40095.72
659.89	40137.85
660.03	39559.73
660.17	40325.09
660.32	40245.51
660.46	40423.39
660.60	39763.36
660.74	40187.00
660.89	40231.47
661.03	40149.55
661.17	39798.47
661.32	39922.52
661.46	40205.72
661.60	39578.46
661.74	39651.02
661.89	39679.10
662.03	39796.13
662.17	39578.46
662.31	39611.23
662.46	39686.12
662.60	39711.87
662.74	39264.83
662.88	39248.44
663.03	39023.75
663.17	39079.92
663.31	39126.74
663.45	38852.89
663.60	39138.44
663.74	39611.23
663.88	39208.65
664.02	38438.62
664.17	38747.57
664.31	38597.77
664.45	38527.56
664.59	38476.07
664.73	38602.46
664.88	38909.07
665.02	38768.63
665.16	38738.21
665.30	38017.32
665.44	37944.76
665.59	38195.20
665.73	38052.43
665.87	37780.93
666.01	37914.34
666.15	38040.73
666.29	37926.04
666.44	38073.49
666.58	38572.03
666.72	37710.71
666.86	38024.34
667.00	37682.62
667.14	37729.44
667.28	37251.97
667.43	37514.11
667.57	37703.69
667.71	37507.08
667.85	38146.05
667.99	37745.82
668.13	37497.72
668.27	37329.20
668.41	37242.60
668.56	36910.25
668.70	36947.70
668.84	36907.91
668.98	36910.25
669.12	37022.59
669.26	36655.13
669.40	37160.69
669.54	36893.86
669.68	36596.62
669.82	36603.64
669.96	36348.52
670.10	36039.57
670.25	36423.42
670.39	36004.46
670.53	36863.44
670.67	36187.02
670.81	36650.45
670.95	36172.98
671.09	35952.97
671.23	35845.30
671.37	36346.18
671.51	35885.09
671.65	35576.14
671.79	35686.15
671.93	35805.52
672.07	36144.89
672.21	36058.29
672.35	34749.93
672.49	35496.56
672.63	35342.09
672.77	35103.35
672.91	35248.47
673.05	35044.84
673.19	35079.95
673.33	34670.36
673.47	34768.66
673.61	34895.05
673.75	34471.41
673.89	34408.22
674.03	34469.07
674.17	34773.34
674.31	34026.71
674.45	33706.05
674.59	34490.13
674.73	34092.24
674.87	33900.32
675.01	34125.01
675.15	33853.51
675.29	33659.24
675.43	33558.60
675.56	33752.87
675.70	33331.57
675.84	33460.30
675.98	32156.62
676.12	33301.14
676.26	33336.25
676.40	32870.48
676.54	32669.20
676.68	32746.44
676.82	32577.92
676.96	32521.74
677.10	32629.41
677.23	32772.18
677.37	32463.23
677.51	32376.63
677.65	32833.04
677.79	32053.64
677.93	31721.28
678.07	32079.38
678.21	31541.06
678.34	31784.48
678.48	31264.88
678.62	31213.38
678.76	31335.09
678.90	31555.10
679.04	31227.43
679.18	31468.50
679.31	30810.81
679.45	30827.20
679.59	31101.04
679.73	31091.68
679.87	30546.33
680.00	30731.23
680.14	30614.21
680.28	30600.16
680.42	30532.29
680.56	30312.28
680.70	30387.18
680.83	29795.02
680.97	29773.95
681.11	29659.27
681.25	29834.81
681.39	29357.34
681.52	29535.22
681.66	28964.13
681.80	29273.08
681.94	29144.35
682.07	28982.85
682.21	28868.17
682.35	28669.22
682.49	28643.48
682.62	28900.94
682.76	28875.19
682.90	28369.63
683.04	28531.13
683.17	28449.21
683.31	27929.61
683.45	28077.07
683.59	27903.87
683.72	27971.74
683.86	27946.00
684.00	27889.82
684.13	27803.22
684.27	27213.41
684.41	27410.01
684.55	27412.35
684.68	27119.79
684.82	26965.31
684.96	27222.77
685.09	26979.36
685.23	26768.71
685.37	27449.80
685.50	27023.83
685.64	26621.25
685.78	26677.43
685.91	26099.31
686.05	26394.22
686.19	25827.81
686.32	26099.31
686.46	25865.26
686.60	25582.06
686.73	25984.63
686.87	25692.06
687.01	25830.15
687.14	25788.02
687.28	25596.10
687.42	25359.70
687.55	24994.58
687.69	25029.69
687.82	24767.55
687.96	24996.92
688.10	25020.33
688.23	25046.07
688.37	24886.92
688.50	25228.63
688.64	24547.54
688.78	24802.66
688.91	24304.12
689.05	24360.30
689.18	23995.17
689.32	23630.05
689.46	23943.68
689.59	23791.55
689.73	24203.48
689.86	24257.31
690.00	23850.06
690.13	23831.33
690.27	23489.62
690.41	23403.02
690.54	23332.80
690.68	23267.27
690.81	23023.85
690.95	23000.44
691.08	22934.91
691.22	22434.03
691.35	22644.68
691.49	22803.84
691.62	22948.95
691.76	22717.24
691.89	22120.40
692.03	22129.77
692.16	22171.89
692.30	22017.42
692.43	21907.41
692.57	21731.87
692.70	21469.73
692.84	21610.17
692.97	21614.85
693.11	21682.72
693.24	21226.32
693.38	21331.64
693.51	20982.90
693.65	20952.48
693.78	21020.35
693.92	20439.90
694.05	20678.63
694.19	20886.94
694.32	20643.52
694.45	20589.69
694.59	20648.21
694.72	20444.58
694.86	20311.17
694.99	20229.25
695.13	20121.59
695.26	19857.10
695.39	19433.47
695.53	19803.27
695.66	20051.37
695.80	19522.41
695.93	19578.58
696.07	19218.14
696.20	18888.12
696.33	19098.77
696.47	18937.27
696.60	18979.40
696.73	19061.32
696.87	19016.85
697.00	18684.50
697.14	18937.27
697.27	18633.00
697.40	18438.74
697.54	18405.97
697.67	18633.00
697.80	18342.78
697.94	18567.47
698.07	18387.25
698.21	17783.39
698.34	18157.88
698.47	17769.35
698.61	17645.30
698.74	17664.02
698.87	17750.62
699.01	17518.91
699.14	17743.60
699.27	17481.46
699.40	17600.83
699.54	17149.11
699.67	17488.48
699.80	17401.88
699.94	17097.61
700.07	16985.27
700.20	16830.79
700.34	16699.72
700.47	17125.70
700.60	17200.60
700.73	16673.98
700.87	16283.11
701.00	16437.58
701.13	16458.65
701.26	16301.83
701.40	16215.23
701.53	15807.98
701.66	15903.94
701.79	16051.39
701.93	15674.57
702.06	15611.37
702.19	15412.43
702.32	15330.51
702.46	15587.97
702.59	15871.17
702.72	15627.76
702.85	15765.85
702.99	15367.96
703.12	15288.38
703.25	15253.27
703.38	15192.42
703.51	15007.52
703.65	15042.62
703.78	14899.85
703.91	14677.50
704.04	14644.73
704.17	14553.45
704.31	14640.05
704.44	14382.59
704.57	14434.08
704.70	14335.78
704.83	14185.99
704.96	14134.50
705.10	14031.51
705.23	13884.06
>>>>>End Processed Spectral Data<<<<<
