SpectraSuite Data File
++++++++++++++++++++++++++++++++++++
Date: Fri Oct 25 10:47:44 EDT 2013
User: price-jones
Dark Spectrum Present: No
Reference Spectrum Present: No
Number of Sampled Component Spectra: 1
Spectrometers: USB2+H05261
Integration Time (usec): 100000 (USB2+H05261)
Spectra Averaged: 1 (USB2+H05261)
Boxcar Smoothing: 0 (USB2+H05261)
Correct for Electrical Dark: No (USB2+H05261)
Strobe/Lamp Enabled: No (USB2+H05261)
Correct for Detector Non-linearity: No (USB2+H05261)
Correct for Stray Light: No (USB2+H05261)
Number of Pixels in Processed Spectrum: 2048
>>>>>Begin Processed Spectral Data<<<<<
365.73	159.16
365.92	159.16
366.12	159.16
366.32	70.22
366.52	11.70
366.72	35.11
366.91	49.15
367.11	67.88
367.31	67.88
367.51	81.92
367.70	105.32
367.90	56.17
368.10	86.60
368.30	30.43
368.49	0.00
368.69	84.26
368.89	58.51
369.09	46.81
369.28	112.35
369.48	65.54
369.68	145.11
369.87	145.11
370.07	60.85
370.27	95.96
370.47	177.88
370.66	372.15
370.86	388.53
371.06	451.72
371.25	475.13
371.45	374.49
371.65	451.72
371.84	388.53
372.04	472.79
372.24	498.53
372.44	390.87
372.63	482.15
372.83	587.47
373.03	472.79
373.22	500.87
373.42	465.77
373.62	538.32
373.81	545.34
374.01	545.34
374.21	596.84
374.40	528.96
374.60	566.41
374.79	517.26
374.99	638.97
375.19	580.45
375.38	650.67
375.58	587.47
375.78	519.60
375.97	559.39
376.17	629.60
376.37	575.77
376.56	505.56
376.76	596.84
376.95	559.39
377.15	589.82
377.35	660.03
377.54	585.13
377.74	634.29
377.93	587.47
378.13	667.05
378.33	674.07
378.52	629.60
378.72	573.43
378.91	599.18
379.11	629.60
379.31	613.22
379.50	578.11
379.70	631.94
379.89	638.97
380.09	667.05
380.28	535.98
380.48	692.80
380.68	627.26
380.87	699.82
381.07	685.78
381.26	713.86
381.46	587.47
381.65	732.59
381.85	690.46
382.04	723.23
382.24	727.91
382.43	653.01
382.63	624.92
382.83	767.70
383.02	704.50
383.22	711.52
383.41	697.48
383.61	720.88
383.80	744.29
384.00	627.26
384.19	636.63
384.39	772.38
384.58	723.23
384.78	873.02
384.97	760.67
385.17	791.10
385.36	683.44
385.56	730.25
385.75	699.82
385.95	725.57
386.14	805.14
386.34	760.67
386.53	844.93
386.72	779.40
386.92	873.02
387.11	830.89
387.31	741.95
387.50	772.38
387.70	711.52
387.89	758.33
388.09	826.21
388.28	821.53
388.48	873.02
388.67	861.32
388.86	779.40
389.06	915.15
389.25	854.30
389.45	894.08
389.64	880.04
389.84	896.43
390.03	828.55
390.22	933.87
390.42	854.30
390.61	880.04
390.81	903.45
391.00	954.94
391.19	1015.79
391.39	933.87
391.58	983.02
391.78	1022.81
391.97	1020.47
392.16	882.38
392.36	1008.77
392.55	896.43
392.75	945.58
392.94	915.15
393.13	964.30
393.33	938.55
393.52	980.68
393.71	994.73
393.91	957.28
394.10	933.87
394.29	1111.75
394.49	1053.24
394.68	1111.75
394.88	1083.67
395.07	1050.90
395.26	1097.71
395.46	1095.37
395.65	1135.16
395.84	1086.01
396.04	1207.72
396.23	1111.75
396.42	1142.18
396.62	1165.59
396.81	1160.91
397.00	1174.95
397.19	1179.63
397.39	1137.50
397.58	1247.51
397.77	1303.68
397.97	1275.59
398.16	1275.59
398.35	1280.27
398.55	1228.78
398.74	1275.59
398.93	1336.45
399.12	1270.91
399.32	1329.42
399.51	1327.08
399.70	1273.25
399.90	1364.53
400.09	1409.00
400.28	1348.15
400.47	1409.00
400.67	1514.33
400.86	1378.58
401.05	1451.13
401.24	1392.62
401.44	1572.84
401.63	1540.07
401.82	1488.58
402.01	1476.88
402.21	1582.20
402.40	1441.77
402.59	1530.71
402.78	1607.95
402.97	1586.88
403.17	1612.63
403.36	1540.07
403.55	1577.52
403.74	1638.38
403.93	1671.14
404.13	1603.27
404.32	1633.69
404.51	1694.55
404.70	1638.38
404.89	1708.59
405.09	1764.76
405.28	1673.48
405.47	1710.93
405.66	1699.23
405.85	1703.91
406.05	1825.62
406.24	1640.72
406.43	1774.13
406.62	1818.60
406.81	1849.02
407.00	1753.06
407.20	1856.04
407.39	1891.15
407.58	1877.11
407.77	1919.24
407.96	1984.77
408.15	1834.98
408.34	1977.75
408.54	2010.52
408.73	2010.52
408.92	1930.94
409.11	2012.86
409.30	2026.90
409.49	2038.61
409.68	2080.74
409.87	2008.18
410.07	2064.35
410.26	2094.78
410.45	2054.99
410.64	2054.99
410.83	2186.06
411.02	2218.83
411.21	2354.58
411.40	2258.62
411.59	2279.68
411.78	2256.28
411.98	2246.91
412.17	2335.85
412.36	2244.57
412.55	2422.45
412.74	2399.05
412.93	2422.45
413.12	2373.30
413.31	2626.08
413.50	2464.58
413.69	2576.93
413.88	2567.57
414.07	2555.86
414.26	2562.89
414.45	2516.08
414.64	2768.85
414.83	2644.81
415.02	2607.36
415.22	2693.96
415.41	2801.62
415.60	2656.51
415.79	2773.53
415.98	2815.66
416.17	2862.48
416.36	2691.62
416.55	2792.26
416.74	2904.60
416.93	2829.71
417.12	2956.10
417.31	2923.33
417.50	2885.88
417.69	3098.87
417.88	3110.57
418.07	3056.74
418.26	2981.84
418.45	3190.15
418.64	3199.51
418.83	3122.27
419.02	3122.27
419.21	3251.00
419.39	3096.53
419.58	3138.66
419.77	3110.57
419.96	3290.79
420.15	3255.69
420.34	3201.85
420.53	3248.66
420.72	3391.44
420.91	3459.31
421.10	3417.18
421.29	3438.25
421.48	3405.48
421.67	3365.69
421.86	3368.03
422.05	3248.66
422.24	3389.10
422.43	3555.27
422.61	3391.44
422.80	3585.70
422.99	3482.72
423.18	3506.12
423.37	3492.08
423.56	3508.46
423.75	3515.48
423.94	3442.93
424.13	3323.56
424.32	3323.56
424.50	3480.38
424.69	3541.23
424.88	3562.30
425.07	3440.59
425.26	3524.85
425.45	3501.44
425.64	3597.40
425.83	3609.11
426.01	3655.92
426.20	3424.20
426.39	3522.51
426.58	3485.06
426.77	3424.20
426.96	3531.87
427.15	3585.70
427.33	3611.45
427.52	3604.42
427.71	3744.86
427.90	3695.71
428.09	3698.05
428.28	3672.30
428.46	3789.33
428.65	3695.71
428.84	3786.99
429.03	3934.44
429.22	3775.28
429.40	3772.94
429.59	3873.59
429.78	3779.97
429.97	3623.15
430.16	3768.26
430.34	3798.69
430.53	3812.73
430.72	3892.31
430.91	3978.91
431.10	3948.48
431.28	4030.40
431.47	4065.51
431.66	4117.00
431.85	4067.85
432.03	4105.30
432.22	4072.53
432.41	4077.21
432.60	4238.71
432.79	4077.21
432.97	4205.94
433.16	4100.62
433.35	4191.90
433.54	4203.60
433.72	4154.45
433.91	4208.28
434.10	4194.24
434.28	4325.31
434.47	4294.88
434.66	4365.10
434.85	4475.10
435.03	4444.68
435.22	4475.10
435.41	4507.87
435.59	4463.40
435.78	4465.74
435.97	4444.68
436.16	4503.19
436.34	4599.15
436.53	4498.51
436.72	4770.01
436.90	4645.96
437.09	4615.54
437.28	4470.42
437.46	4613.20
437.65	4564.04
437.84	4772.35
438.02	4589.79
438.21	4809.80
438.40	4648.30
438.58	4938.53
438.77	4875.34
438.96	4767.67
439.14	5083.64
439.33	5043.85
439.52	5123.43
439.70	4851.93
439.89	5027.47
440.08	5039.17
440.26	5020.45
440.45	5069.60
440.63	5268.55
440.82	5394.93
441.01	5219.39
441.19	5186.63
441.38	5252.16
441.57	5341.10
441.75	5378.55
441.94	5448.77
442.12	5465.15
442.31	5621.97
442.50	5495.58
442.68	5638.35
442.87	5724.95
443.05	5671.12
443.24	5746.02
443.43	5551.75
443.61	5778.78
443.80	5977.73
443.98	5703.89
444.17	5547.07
444.35	5727.29
444.54	5825.59
444.73	5776.44
444.91	5991.77
445.10	5701.54
445.28	5790.49
445.47	5776.44
445.65	5942.62
445.84	5849.00
446.02	5891.13
446.21	5823.25
446.39	5839.64
446.58	5907.51
446.77	5912.19
446.95	5823.25
447.14	5886.45
447.32	6132.20
447.51	5951.98
447.69	5825.59
447.88	6080.71
448.06	6069.01
448.25	6204.76
448.43	5989.43
448.62	5998.79
448.80	6071.35
448.99	6127.52
449.17	6094.76
449.36	6043.26
449.54	6174.33
449.73	6122.84
449.91	6303.06
450.10	6169.65
450.28	6361.58
450.46	6324.13
450.65	6499.67
450.83	6415.41
451.02	6387.32
451.20	6382.64
451.39	6296.04
451.57	6436.47
451.76	6193.06
451.94	6459.88
452.13	6534.78
452.31	6534.78
452.49	6438.81
452.68	6574.56
452.86	6377.96
453.05	6525.41
453.23	6537.12
453.42	6462.22
453.60	6410.73
453.78	6602.65
453.97	6490.31
454.15	6576.91
454.34	6703.29
454.52	6745.42
454.70	6649.46
454.89	6619.04
455.07	6562.86
455.26	6703.29
455.44	6937.35
455.62	6846.07
455.81	6932.67
455.99	6956.07
456.17	7026.29
456.36	6778.19
456.54	6977.14
456.73	7119.91
456.91	7192.47
457.09	7143.32
457.28	7377.37
457.46	7152.68
457.64	7084.80
457.83	7293.11
458.01	7049.69
458.19	7445.24
458.38	7389.07
458.56	7360.98
458.74	7445.24
458.93	7295.45
459.11	7461.63
459.29	7356.30
459.48	7325.88
459.66	7332.90
459.84	7534.18
460.03	7604.40
460.21	7712.07
460.39	7557.59
460.57	7648.87
460.76	7618.44
460.94	7796.32
461.12	7812.71
461.31	7847.82
461.49	7726.11
461.67	7740.15
461.85	7913.35
462.04	7737.81
462.22	8322.94
462.40	8114.64
462.59	8002.29
462.77	7889.95
462.95	8112.30
463.13	8028.04
463.32	7964.84
463.50	8121.66
463.68	8065.49
463.86	8163.79
464.05	7976.55
464.23	7974.21
464.41	8135.70
464.59	8060.80
464.78	8138.04
464.96	8105.28
465.14	8140.38
465.32	8161.45
465.50	8322.94
465.69	8250.39
465.87	8332.31
466.05	8374.44
466.23	8407.20
466.41	8381.46
466.60	8400.18
466.78	8248.05
466.96	8095.91
467.14	8224.64
467.32	8379.12
467.51	8634.24
467.69	8229.32
467.87	8407.20
468.05	8395.50
468.23	8620.19
468.41	8528.91
468.60	8510.19
468.78	8645.94
468.96	8636.58
469.14	8538.27
469.32	8915.10
469.50	8564.02
469.69	8697.43
469.87	8828.50
470.05	8861.27
470.23	8868.29
470.41	8840.20
470.59	8943.19
470.77	8847.22
470.95	8739.56
471.14	8945.53
471.32	8903.40
471.50	9210.01
471.68	9069.58
471.86	9350.44
472.04	9369.16
472.22	9465.13
472.40	9275.54
472.58	9273.20
472.77	9188.94
472.95	9664.07
473.13	9696.84
473.31	9511.94
473.49	9589.17
473.67	9490.87
473.85	9769.40
474.03	9935.57
474.21	9863.02
474.39	10129.84
474.57	9987.07
474.75	10003.45
474.93	10129.84
475.12	10232.82
475.30	10076.01
475.48	10052.60
475.66	10359.21
475.84	10061.96
476.02	10174.31
476.20	10113.45
476.38	10455.17
476.56	10658.80
476.74	10675.18
476.92	10532.41
477.10	10724.33
477.28	10878.81
477.46	10834.34
477.64	11295.43
477.82	11089.46
478.00	11442.88
478.18	11119.89
478.36	11309.47
478.54	11428.84
478.72	11442.88
478.90	11747.15
479.08	11686.29
479.26	11826.73
479.44	12020.99
479.62	11854.81
479.80	12102.91
479.98	12142.70
480.16	12353.35
480.34	11910.99
480.52	12386.12
480.70	12372.07
480.88	12266.75
481.06	12484.42
481.24	12453.99
481.41	12737.20
481.59	13090.62
481.77	12959.55
481.95	12940.82
482.13	13301.26
482.31	13186.58
482.49	13441.70
482.67	13355.10
482.85	13486.17
483.03	13907.46
483.21	13439.36
483.39	13893.42
483.57	13991.72
483.74	14237.48
483.92	14340.46
484.10	14298.33
484.28	14143.86
484.46	14618.99
484.64	14663.46
484.82	14611.96
485.00	14967.73
485.18	15080.07
485.35	14946.66
485.53	14941.98
485.71	15056.67
485.89	15410.09
486.07	15044.96
486.25	15398.38
486.43	15286.04
486.61	15697.97
486.78	15922.66
486.96	16123.95
487.14	16163.74
487.32	16285.45
487.50	16437.58
487.68	16533.54
487.85	16482.05
488.03	16751.21
488.21	17011.01
488.39	16901.01
488.57	17198.26
488.75	17341.03
488.92	17509.55
489.10	17497.84
489.28	17666.36
489.46	17961.27
489.64	17977.65
489.81	18412.99
489.99	18148.51
490.17	18195.32
490.35	18417.68
490.53	18499.59
490.70	18656.41
490.88	18778.12
491.06	19042.60
491.24	19140.90
491.41	19147.92
491.59	18934.93
491.77	19414.74
491.95	19290.70
492.13	19538.79
492.30	19742.42
492.48	19934.34
492.66	19843.06
492.84	20058.39
493.01	20163.72
493.19	20098.18
493.37	20432.88
493.54	20315.85
493.72	20924.39
493.90	20676.29
494.08	21109.29
494.25	21003.97
494.43	20943.11
494.61	21495.48
494.79	21191.21
494.96	20884.60
495.14	21458.03
495.32	21656.98
495.49	21561.02
495.67	21745.92
495.85	22108.70
496.02	22015.08
496.20	22218.71
496.38	22178.92
496.55	22429.35
496.73	22892.78
496.91	22560.42
497.09	22937.25
497.26	22951.29
497.44	22806.18
497.62	22876.40
497.79	23236.84
497.97	22864.69
498.14	23494.30
498.32	23414.72
498.50	23150.24
498.67	23590.26
498.85	23796.23
499.03	23960.06
499.20	24222.20
499.38	24163.69
499.56	24060.71
499.73	24170.71
499.91	24379.02
500.08	24676.27
500.26	24357.96
500.44	24411.79
500.61	24713.72
500.79	24364.98
500.97	24814.36
501.14	24924.36
501.32	24903.30
501.49	25322.26
501.67	25472.05
501.84	25441.62
502.02	25006.28
502.20	25275.45
502.37	25532.90
502.55	25577.37
502.72	25862.92
502.90	25715.47
503.07	25771.64
503.25	25968.24
503.43	25891.01
503.60	25949.52
503.78	26178.89
503.95	26134.42
504.13	26373.16
504.30	26309.96
504.48	26209.32
504.65	26469.12
504.83	26995.74
505.01	26815.52
505.18	26848.29
505.36	27122.13
505.53	27016.80
505.71	27515.34
505.88	27159.58
506.06	26892.76
506.23	27513.00
506.41	27206.39
506.58	27412.35
506.76	27580.87
506.93	28058.34
507.11	27817.27
507.28	27644.07
507.46	27875.78
507.63	27845.35
507.81	28020.89
507.98	27988.13
508.16	28020.89
508.33	28004.51
508.50	28161.33
508.68	28353.25
508.85	28629.43
509.03	28439.85
509.20	28851.78
509.38	29219.25
509.55	28992.22
509.73	29179.46
509.90	28769.86
510.08	28797.95
510.25	28917.32
510.42	29116.26
510.60	29537.56
510.77	29600.76
510.95	29752.89
511.12	29685.01
511.30	29479.05
511.47	30183.55
511.64	30272.49
511.82	29851.19
511.99	30176.53
512.17	29820.77
512.34	29713.10
512.51	30373.13
512.69	30225.68
512.86	30635.27
513.04	30529.95
513.21	30677.40
513.38	30087.59
513.56	30604.84
513.73	30508.88
513.90	31307.01
514.08	30604.84
514.25	30883.37
514.43	30756.98
514.60	30696.13
514.77	30728.89
514.95	31257.85
515.12	31360.84
515.29	31407.65
515.47	31384.24
515.64	31817.24
515.81	31087.00
515.99	31379.56
516.16	31728.30
516.33	31697.88
516.51	31777.45
516.68	31395.95
516.85	31470.84
517.03	31653.40
517.20	31922.57
517.37	32180.03
517.54	32175.34
517.72	32135.56
517.89	32130.87
518.06	31971.72
518.24	32161.30
518.41	32245.56
518.58	32304.07
518.75	32247.90
518.93	32477.27
519.10	32463.23
519.27	32982.83
519.45	32823.67
519.62	32842.40
519.79	32924.32
519.96	32982.83
520.14	33020.28
520.31	33146.67
520.48	33113.90
520.65	33013.26
520.83	33448.60
521.00	33474.34
521.17	33284.76
521.34	33333.91
521.52	33577.33
521.69	33919.04
521.86	33895.64
522.03	33982.24
522.20	34103.95
522.38	33984.58
522.55	34237.36
522.72	34742.91
522.89	34099.26
523.07	34291.19
523.24	34089.90
523.41	34471.41
523.58	33783.29
523.75	35037.82
523.92	34932.50
524.10	34546.31
524.27	34574.39
524.44	35030.80
524.61	34862.28
524.78	35253.15
524.96	35175.91
525.13	35000.37
525.30	35204.00
525.47	35419.33
525.64	35379.54
525.81	35608.91
525.98	34988.67
526.16	35632.32
526.33	34946.54
526.50	35351.45
526.67	35281.24
526.84	35325.71
527.01	35620.61
527.18	36126.17
527.36	35955.31
527.53	35749.34
527.70	36187.02
527.87	36065.31
528.04	35920.20
528.21	36004.46
528.38	35789.13
528.55	36247.88
528.72	36318.09
528.89	36601.30
529.07	36498.31
529.24	36147.23
529.41	36158.94
529.58	36264.26
529.75	36320.43
529.92	36521.72
530.09	36704.28
530.26	36666.83
530.43	36577.89
530.60	36730.03
530.77	36613.00
530.94	36767.48
531.11	36858.76
531.28	37060.04
531.46	37001.53
531.63	37163.03
531.80	36968.76
531.97	37411.12
532.14	37027.28
532.31	36879.82
532.48	37345.59
532.65	37368.99
532.82	37340.91
532.99	37598.37
533.16	37425.17
533.33	37516.45
533.50	37778.59
533.67	37694.33
533.84	37378.36
534.01	37773.91
534.18	37933.06
534.35	38209.25
534.52	37902.64
534.69	38068.81
534.86	38443.30
535.03	37785.61
535.20	38380.10
535.37	38550.96
535.54	38394.15
535.71	38085.20
535.88	38382.45
536.05	38976.94
536.22	38129.67
536.38	38745.23
536.55	38333.29
536.72	38293.50
536.89	38455.00
537.06	38127.33
537.23	38291.16
537.40	38660.97
537.57	38389.47
537.74	38946.51
537.91	39515.26
538.08	38937.15
538.25	38419.89
538.42	38951.20
538.59	39187.59
538.75	38829.49
538.92	38859.91
539.09	39030.77
539.26	39274.19
539.43	39297.59
539.60	39402.92
539.77	39335.04
539.94	39463.77
540.11	39388.88
540.28	39358.45
540.44	39498.88
540.61	39297.59
540.78	39056.52
540.95	39428.66
541.12	39344.41
541.29	39508.24
541.46	39758.68
541.62	39981.03
541.79	39803.15
541.96	38927.79
542.13	39971.67
542.30	39433.35
542.47	40095.72
542.63	39866.34
542.80	40011.46
542.97	40147.21
543.14	40540.42
543.31	40325.09
543.48	40327.43
543.64	40809.58
543.81	40868.09
543.98	40109.76
544.15	40657.45
544.32	40671.49
544.48	40917.25
544.65	40568.51
544.82	40664.47
544.99	40357.86
545.16	40456.16
545.32	40535.74
545.49	40715.96
545.66	41123.21
545.83	40844.69
546.00	41495.36
546.16	40893.84
546.33	40978.10
546.50	40706.60
546.67	40835.33
546.83	40837.67
547.00	40940.65
547.17	41378.33
547.34	41015.55
547.50	41303.43
547.67	41881.55
547.84	41614.72
548.00	41268.33
548.17	41436.84
548.34	41895.59
548.51	41652.17
548.67	41148.96
548.84	41708.35
549.01	41855.80
549.18	41277.69
549.34	41923.68
549.51	42251.35
549.68	41617.07
549.84	41483.66
550.01	42139.00
550.18	41647.49
550.34	42103.90
550.51	41801.97
550.68	42244.33
550.84	41937.72
551.01	41954.10
551.18	42040.70
551.34	41823.03
551.51	42270.08
551.68	42089.85
551.84	42529.87
552.01	41785.58
552.18	42026.66
552.34	41673.24
552.51	42330.93
552.68	42174.11
552.84	42731.16
553.01	42656.26
553.18	42258.37
553.34	42377.74
553.51	42099.22
553.67	42326.25
553.84	42770.95
554.01	42382.42
554.17	42682.01
554.34	42768.61
554.51	42852.87
554.67	43147.78
554.84	42712.44
555.00	42375.40
555.17	42700.73
555.33	42735.84
555.50	42567.32
555.67	42492.43
555.83	43182.88
556.00	42855.21
556.16	43110.33
556.33	43220.33
556.50	43196.93
556.66	43435.66
556.83	42742.86
556.99	43007.34
557.16	43028.41
557.32	43021.39
557.49	43077.56
557.65	42667.97
557.82	42850.53
557.98	43133.73
558.15	43297.57
558.32	42822.44
558.48	43070.54
558.65	43093.94
558.81	43161.82
558.98	43194.59
559.14	43309.27
559.31	43363.11
559.47	43442.68
559.64	43786.74
559.80	43674.40
559.97	43597.16
560.13	43409.92
560.30	43159.48
560.46	43274.16
560.63	43185.22
560.79	43686.10
560.96	43730.57
561.12	43496.52
561.29	43814.83
561.45	43393.53
561.61	43679.08
561.78	43501.20
561.94	43510.56
562.11	43346.72
562.27	43304.59
562.44	43529.28
562.60	44243.15
562.77	44037.18
562.93	43466.09
563.10	43770.36
563.26	43786.74
563.42	43934.20
563.59	43365.45
563.75	43470.77
563.92	44114.42
564.08	43803.13
564.24	44278.25
564.41	44072.29
564.57	43840.57
564.74	43639.29
564.90	43941.22
565.07	44245.49
565.23	43878.02
565.39	44105.06
565.56	44039.52
565.72	43704.82
565.88	43695.46
566.05	43805.47
566.21	43959.94
566.38	43805.47
566.54	43894.41
566.70	43995.05
566.87	44533.37
567.03	44264.21
567.19	43950.58
567.36	44034.84
567.52	43763.34
567.68	44004.41
567.85	43742.27
568.01	44444.43
568.17	43871.00
568.34	44304.00
568.50	44205.70
568.66	43629.93
568.83	44378.90
568.99	43981.01
569.15	43985.69
569.32	44100.37
569.48	43648.65
569.64	44502.95
569.81	44236.12
569.97	43971.64
570.13	44421.03
570.30	43906.11
570.46	44123.78
570.62	43903.77
570.78	44222.08
570.95	44425.71
571.11	44313.36
571.27	44079.31
571.43	44184.63
571.60	44381.24
571.76	44526.35
571.92	44327.41
572.09	44299.32
572.25	44402.30
572.41	44196.34
572.57	44236.12
572.74	44734.66
572.90	44566.14
573.06	44395.28
573.22	44641.04
573.38	44414.01
573.55	44179.95
573.71	44521.67
573.87	44414.01
574.03	44259.53
574.20	44233.78
574.36	44395.28
574.52	44582.52
574.68	44430.39
574.84	44353.15
575.01	44299.32
575.17	44446.77
575.33	44399.96
575.49	44753.38
575.65	44776.79
575.82	44589.55
575.98	44725.30
576.14	44921.90
576.30	44516.99
576.46	44311.02
576.62	44608.27
576.79	44591.89
576.95	43887.39
577.11	44264.21
577.27	44734.66
577.43	44612.95
577.59	44191.65
577.75	44278.25
577.92	44446.77
578.08	44535.71
578.24	44137.82
578.40	44715.93
578.56	44636.36
578.72	44367.20
578.88	44767.43
579.04	44509.97
579.21	44591.89
579.37	44409.32
579.53	44638.70
579.69	44163.57
579.85	44715.93
580.01	44519.33
580.17	44781.47
580.33	44594.23
580.49	44542.74
580.65	44538.05
580.82	44603.59
580.98	44266.55
581.14	44229.10
581.30	44664.44
581.46	44421.03
581.62	44376.56
581.78	44685.51
581.94	44502.95
582.10	44163.57
582.26	44987.44
582.42	44797.85
582.58	44612.95
582.74	44643.38
582.90	44617.63
583.06	44734.66
583.22	44395.28
583.38	44622.31
583.54	44854.03
583.70	44624.65
583.86	44421.03
584.02	44041.86
584.18	44467.84
584.34	44748.70
584.50	44533.37
584.66	44507.63
584.82	44624.65
584.98	44392.94
585.14	44673.81
585.30	44341.45
585.46	44795.51
585.62	44638.70
585.78	44889.13
585.94	44428.05
586.10	44444.43
586.26	44868.07
586.42	44793.17
586.58	44811.90
586.74	44662.10
586.90	44849.35
587.06	44364.85
587.22	44699.55
587.38	44406.98
587.54	45160.64
587.70	44985.10
587.86	44935.95
588.02	44935.95
588.18	44795.51
588.34	44818.92
588.49	44671.46
588.65	44259.53
588.81	44474.86
588.97	44975.73
589.13	44493.58
589.29	44397.62
589.45	44964.03
589.61	44341.45
589.77	44893.82
589.93	44662.10
590.08	44774.45
590.24	45095.10
590.40	45312.77
590.56	45027.23
590.72	44940.63
590.88	44444.43
591.04	44924.24
591.20	45132.55
591.35	44718.28
591.51	45118.51
591.67	44856.37
591.83	44964.03
591.99	44968.71
592.15	44395.28
592.31	44634.02
592.46	44952.33
592.62	44655.08
592.78	45261.28
592.94	44612.95
593.10	44999.14
593.26	45331.50
593.41	44914.88
593.57	44856.37
593.73	45006.16
593.89	45118.51
594.05	45090.42
594.20	45226.17
594.36	45102.12
594.52	45298.73
594.68	45076.38
594.84	44940.63
594.99	45415.76
595.15	44957.01
595.31	45312.77
595.47	44720.62
595.62	45008.50
595.78	45193.40
595.94	45205.11
596.10	45230.85
596.25	45069.36
596.41	45244.90
596.57	45165.32
596.73	45214.47
596.88	44975.73
597.04	45092.76
597.20	44924.24
597.36	44987.44
597.51	45336.18
597.67	45041.27
597.83	45151.27
597.99	45289.37
598.14	44973.39
598.30	45352.56
598.46	44971.05
598.61	45092.76
598.77	44938.29
598.93	44622.31
599.09	45090.42
599.24	45251.92
599.40	45102.12
599.56	45565.55
599.71	45010.84
599.87	45642.79
600.03	45399.37
600.18	45385.33
600.34	45324.47
600.50	45008.50
600.65	45074.04
600.81	45373.63
600.97	45237.87
601.12	45525.76
601.28	45240.21
601.44	44783.81
601.59	44875.09
601.75	45076.38
601.91	45097.44
602.06	44697.21
602.22	45207.45
602.37	45155.96
602.53	45287.03
602.69	45556.19
602.84	45015.52
603.00	44856.37
603.16	45078.72
603.31	44708.91
603.47	44964.03
603.62	45172.34
603.78	45277.66
603.94	44989.78
604.09	45474.27
604.25	45392.35
604.40	44781.47
604.56	44917.22
604.71	45165.32
604.87	44973.39
605.03	45254.26
605.18	44863.39
605.34	44634.02
605.49	44605.93
605.65	45242.56
605.80	44879.77
605.96	44870.41
606.12	45282.34
606.27	45242.56
606.43	44800.19
606.58	45137.23
606.74	44776.79
606.89	44729.98
607.05	44968.71
607.20	44989.78
607.36	45144.25
607.51	45160.64
607.67	44821.26
607.82	45052.97
607.98	44811.90
608.13	44921.90
608.29	44727.64
608.44	44336.77
608.60	44470.18
608.75	44748.70
608.91	44477.20
609.06	44762.75
609.22	44383.58
609.37	44355.49
609.53	44442.09
609.68	44708.91
609.84	44509.97
609.99	44781.47
610.15	44243.15
610.30	44949.99
610.46	44816.58
610.61	44828.28
610.76	44519.33
610.92	44935.95
611.07	44636.36
611.23	44458.48
611.38	44442.09
611.54	44547.42
611.69	44561.46
611.84	44161.23
612.00	44444.43
612.15	44648.06
612.31	44414.01
612.46	44538.05
612.62	44353.15
612.77	44128.46
612.92	44697.21
613.08	43969.30
613.23	44395.28
613.39	43952.92
613.54	44067.61
613.69	44172.93
613.85	44048.88
614.00	44334.43
614.15	44374.22
614.31	44154.21
614.46	44570.82
614.62	44079.31
614.77	44165.91
614.92	44201.02
615.08	43859.30
615.23	44247.83
615.38	44154.21
615.54	43571.41
615.69	44105.06
615.84	43777.38
616.00	43765.68
616.15	44041.86
616.30	43973.98
616.46	43627.59
616.61	43632.27
616.76	43632.27
616.92	43672.06
617.07	43550.35
617.22	43866.32
617.37	43737.59
617.53	43873.34
617.68	44320.38
617.83	44041.86
617.99	44109.74
618.14	43606.52
618.29	43346.72
618.45	43704.82
618.60	43550.35
618.75	43718.87
618.90	43599.50
619.06	43854.62
619.21	43505.88
619.36	43594.82
619.51	43487.15
619.67	43711.84
619.82	43615.88
619.97	43555.03
620.12	43274.16
620.28	43302.25
620.43	43445.02
620.58	43356.08
620.73	43159.48
620.89	43360.76
621.04	43386.51
621.19	42880.95
621.34	43166.50
621.49	43189.91
621.65	43178.20
621.80	43393.53
621.95	43016.71
622.10	43084.58
622.25	42824.78
622.41	43180.54
622.56	42536.90
622.71	43213.31
622.86	43089.26
623.01	42869.25
623.16	43225.01
623.32	43173.52
623.47	43482.47
623.62	43026.07
623.77	42518.17
623.92	42962.87
624.07	42752.23
624.23	42995.64
624.38	42450.30
624.53	42480.72
624.68	42703.07
624.83	42880.95
624.98	42532.22
625.13	42600.09
625.29	42665.63
625.44	42569.66
625.59	42288.80
625.74	42270.08
625.89	42167.09
626.04	42087.51
626.19	42586.05
626.34	42256.03
626.49	42246.67
626.65	42389.44
626.80	42405.83
626.95	42066.45
627.10	42106.24
627.25	42092.19
627.40	41570.25
627.55	41745.80
627.70	41436.84
627.85	41490.68
628.00	42143.69
628.15	41928.36
628.30	41808.99
628.45	41926.02
628.60	42029.00
628.76	42288.80
628.91	42183.48
629.06	41645.15
629.21	42333.27
629.36	41984.53
629.51	41865.16
629.66	41710.69
629.81	41516.42
629.96	41588.98
630.11	41790.27
630.26	41855.80
630.41	41743.45
630.56	41495.36
630.71	41724.73
630.86	41755.16
631.01	41308.11
631.16	41633.45
631.31	41324.50
631.46	40767.45
631.61	41298.75
631.76	41434.50
631.91	41408.76
632.06	41078.74
632.21	41415.78
632.36	41895.59
632.51	41116.19
632.66	41406.42
632.81	40933.63
632.96	40669.15
633.10	41078.74
633.25	40877.46
633.40	40830.65
633.55	41273.01
633.70	40985.12
633.85	40741.71
634.00	41092.79
634.15	40610.64
634.30	40849.37
634.45	40825.96
634.60	41045.97
634.75	41411.10
634.90	40921.93
635.05	40781.49
635.19	40739.36
635.34	41174.70
635.49	41085.76
635.64	40404.67
635.79	40467.86
635.94	40657.45
636.09	40821.28
636.24	40341.47
636.39	40332.11
636.53	40463.18
636.68	40381.26
636.83	40439.78
636.98	40603.61
637.13	40350.84
637.28	40395.31
637.43	40519.35
637.57	40397.65
637.72	40453.82
637.87	40458.50
638.02	40320.41
638.17	40135.51
638.32	40037.20
638.46	40023.16
638.61	40538.08
638.76	40268.92
638.91	40346.15
639.06	40299.34
639.20	40098.06
639.35	40168.27
639.50	40154.23
639.65	40065.29
639.80	40467.86
639.94	40229.13
640.09	40177.64
640.24	39995.07
640.39	39751.66
640.54	39849.96
640.68	39269.51
640.83	40378.92
640.98	40194.02
641.13	39632.29
641.27	39639.31
641.42	39749.32
641.57	39768.04
641.72	39627.61
641.86	39257.81
642.01	39697.83
642.16	39512.92
642.31	39093.97
642.45	39318.66
642.60	39250.78
642.75	39049.50
642.90	39344.41
643.04	39068.22
643.19	39203.97
643.34	39246.10
643.48	39386.54
643.63	39840.60
643.78	38728.84
643.93	38979.28
644.07	39108.01
644.22	39063.54
644.37	38824.81
644.51	38944.17
644.66	39007.37
644.81	39210.99
644.95	39402.92
645.10	39206.31
645.25	39290.57
645.39	39173.55
645.54	39264.83
645.69	39171.21
645.83	38859.91
645.98	38649.27
646.13	39089.29
646.27	39005.03
646.42	38672.67
646.57	38871.62
646.71	38946.51
646.86	39103.33
647.00	38700.76
647.15	39473.13
647.30	39131.42
647.44	39035.45
647.59	38974.60
647.74	38562.67
647.88	38270.10
648.03	38637.56
648.17	38246.69
648.32	38429.26
648.47	38359.04
648.61	38272.44
648.76	38340.32
648.90	38342.66
649.05	38815.44
649.20	38478.41
649.34	38904.38
649.49	38415.21
649.63	38419.89
649.78	38373.08
649.92	38181.16
650.07	38859.91
650.21	38518.20
650.36	38242.01
650.51	38660.97
650.65	38663.31
650.80	38501.81
650.94	37993.92
651.09	38431.60
651.23	38389.47
651.38	38450.32
651.52	37794.97
651.67	38122.65
651.81	38143.71
651.96	37947.11
652.10	37537.51
652.25	37942.42
652.39	37579.64
652.54	37642.84
652.68	37991.58
652.83	37832.42
652.97	37689.65
653.12	37773.91
653.26	37806.67
653.41	37935.40
653.55	37287.07
653.70	37277.71
653.84	37851.14
653.99	37940.08
654.13	37591.34
654.27	37462.61
654.42	37699.01
654.56	37720.07
654.71	37876.89
654.85	37624.11
655.00	37544.53
655.14	36814.29
655.29	37226.22
655.43	37233.24
655.57	36664.49
655.72	36847.05
655.86	36971.10
656.01	37139.62
656.15	37092.81
656.30	37228.56
656.44	37181.75
656.58	36825.99
656.73	36847.05
656.87	36807.26
657.01	36650.45
657.16	36435.12
657.30	36580.23
657.45	36545.12
657.59	37088.13
657.73	36711.30
657.88	36996.85
658.02	36952.38
658.16	37291.76
658.31	36711.30
658.45	37170.05
658.60	36678.54
658.74	36926.63
658.88	36538.10
659.03	36627.04
659.17	36163.62
659.31	36325.11
659.46	36561.51
659.60	36503.00
659.74	36135.53
659.89	36175.32
660.03	36261.92
660.17	36367.24
660.32	36390.65
660.46	36613.00
660.60	36144.89
660.74	36732.37
660.89	36308.73
661.03	36175.32
661.17	35498.91
661.32	35606.57
661.46	36016.16
661.60	35526.99
661.74	35552.74
661.89	35587.85
662.03	35754.02
662.17	35660.40
662.31	35220.38
662.46	35489.54
662.60	35346.77
662.74	35370.18
662.88	35173.57
663.03	35491.88
663.17	35388.90
663.31	35201.66
663.45	35421.67
663.60	35360.81
663.74	34754.61
663.88	35009.73
664.02	35187.61
664.17	35028.46
664.31	34646.95
664.45	35063.57
664.59	35290.60
664.73	35084.63
664.88	34761.64
665.02	34227.99
665.16	34600.14
665.30	34902.07
665.44	34380.13
665.59	34117.99
665.73	34003.30
665.87	34338.00
666.01	34082.88
666.15	34235.02
666.29	34185.86
666.44	34422.26
666.58	34029.05
666.72	34227.99
666.86	34305.23
667.00	34312.25
667.14	34539.29
667.28	33853.51
667.43	33853.51
667.57	33614.77
667.71	33631.16
667.85	33886.28
667.99	33586.69
668.13	33635.84
668.27	33357.32
668.41	33509.45
668.56	33235.61
668.70	33488.38
668.84	33301.14
668.98	32964.10
669.12	32947.72
669.26	33331.57
669.40	32842.40
669.54	33081.13
669.68	32720.69
669.82	32739.41
669.96	32767.50
670.10	32627.07
670.25	32737.07
670.39	33081.13
670.53	32606.00
670.67	32205.77
670.81	32924.32
670.95	32601.32
671.09	32896.23
671.23	32449.19
671.37	32783.88
671.51	32353.23
671.65	32224.50
671.79	32018.53
671.93	31777.45
672.07	32229.18
672.21	32318.12
672.35	31936.61
672.49	31924.91
672.63	31845.33
672.77	32163.64
672.91	32023.21
673.05	31491.91
673.19	31599.57
673.33	31494.25
673.47	31367.86
673.61	31112.74
673.75	30801.45
673.89	31150.19
674.03	30845.92
674.17	31054.23
674.31	30969.97
674.45	31229.77
674.59	30813.15
674.73	31372.54
674.87	30778.04
675.01	30792.09
675.15	30972.31
675.29	30871.67
675.43	30548.67
675.56	30483.14
675.70	30391.86
675.84	30368.45
675.98	29537.56
676.12	30108.65
676.26	29933.11
676.40	29659.27
676.54	29951.84
676.68	29827.79
676.82	29532.88
676.96	29317.55
677.10	29170.10
677.23	29359.68
677.37	29366.70
677.51	29209.89
677.65	29064.77
677.79	28774.55
677.93	29130.31
678.07	28636.45
678.21	28863.49
678.34	28910.30
678.48	28566.24
678.62	28634.11
678.76	28191.75
678.90	28407.08
679.04	28348.57
679.18	28767.52
679.31	27871.10
679.45	27775.14
679.59	27655.77
679.73	28013.87
679.87	27873.44
680.00	28203.46
680.14	27414.69
680.28	27700.24
680.42	27274.26
680.56	27555.13
680.70	27271.92
680.83	27143.19
680.97	27274.26
681.11	27047.23
681.25	26565.08
681.39	26885.73
681.52	27026.17
681.66	26958.29
681.80	26885.73
681.94	26632.96
682.07	26464.44
682.21	26586.15
682.35	26162.51
682.49	26422.31
682.62	26167.19
682.76	26080.59
682.90	26178.89
683.04	26188.25
683.17	26178.89
683.31	25942.50
683.45	25881.64
683.59	25645.25
683.72	25106.93
683.86	25071.82
684.00	25165.44
684.13	25474.39
684.27	25273.10
684.41	25144.38
684.55	25177.14
684.68	24814.36
684.82	24620.10
684.96	24900.96
685.09	24812.02
685.23	24491.37
685.37	24592.01
685.50	24460.94
685.64	24545.20
685.78	24276.04
685.91	23976.45
686.05	23988.15
686.19	23520.04
686.32	23754.10
686.46	23599.62
686.60	23183.01
686.73	23543.45
686.87	23517.70
687.01	23417.06
687.14	23236.84
687.28	23253.22
687.42	22869.37
687.55	22881.08
687.69	23044.91
687.82	22944.27
687.96	22686.81
688.10	22618.94
688.23	22487.87
688.37	22089.98
688.50	22141.47
688.64	22181.26
688.78	22471.48
688.91	22300.62
689.05	22181.26
689.18	22288.92
689.32	21823.16
689.46	21972.95
689.59	22209.34
689.73	22085.30
689.86	21823.16
690.00	21638.25
690.13	21872.31
690.27	21528.25
690.41	21617.19
690.54	21233.34
690.68	21195.89
690.81	20898.64
690.95	21266.11
691.08	21135.04
691.22	20933.75
691.35	20800.34
691.49	21043.76
691.62	20900.98
691.76	20713.74
691.89	20760.55
692.03	20299.47
692.16	20400.11
692.30	20187.12
692.43	20315.85
692.57	20058.39
692.70	20276.06
692.84	20322.87
692.97	19810.29
693.11	19730.72
693.24	19585.60
693.38	19374.95
693.51	19267.29
693.65	19538.79
693.78	19367.93
693.92	19459.21
694.05	19501.34
694.19	19499.00
694.32	19342.19
694.45	19082.39
694.59	19143.24
694.72	18860.04
694.86	18977.06
694.99	18616.62
695.13	18469.17
695.26	18384.91
695.39	18012.76
695.53	18424.70
695.66	18515.98
695.80	18618.96
695.93	18019.78
696.07	18270.22
696.20	17963.61
696.33	18134.47
696.47	17783.39
696.60	17853.61
696.73	17806.80
696.87	17844.24
697.00	17818.50
697.14	18073.62
697.27	17584.44
697.40	17242.73
697.54	17392.52
697.67	17081.23
697.80	17102.29
697.94	17261.45
698.07	17074.21
698.21	17163.15
698.34	17118.68
698.47	16915.05
698.61	16798.02
698.74	16517.16
698.87	16498.44
699.01	16386.09
699.14	16339.28
699.27	16369.71
699.40	16428.22
699.54	16135.65
699.67	16271.40
699.80	16191.83
699.94	16027.99
700.07	16093.52
700.20	15992.88
700.34	15646.48
700.47	15782.23
700.60	15936.71
700.73	15709.68
700.87	15836.06
701.00	15744.78
701.13	15351.57
701.26	15323.49
701.40	15494.35
701.53	15274.34
701.66	15222.84
701.79	15264.97
701.93	15073.05
702.06	14626.01
702.19	15000.49
702.32	14941.98
702.46	14771.12
702.59	14609.62
702.72	14705.59
702.85	14595.58
702.99	14757.08
703.12	14810.91
703.25	14647.07
703.38	14373.23
703.51	14310.04
703.65	14146.20
703.78	14349.82
703.91	14075.98
704.04	14115.77
704.17	13982.36
704.31	13844.27
704.44	13699.16
704.57	13462.76
704.70	13507.23
704.83	13799.80
704.96	13540.00
705.10	13619.58
705.23	13640.64
>>>>>End Processed Spectral Data<<<<<
