SpectraSuite Data File
++++++++++++++++++++++++++++++++++++
Date: Fri Oct 25 10:47:21 EDT 2013
User: price-jones
Dark Spectrum Present: No
Reference Spectrum Present: No
Number of Sampled Component Spectra: 1
Spectrometers: USB2+H05261
Integration Time (usec): 100000 (USB2+H05261)
Spectra Averaged: 1 (USB2+H05261)
Boxcar Smoothing: 0 (USB2+H05261)
Correct for Electrical Dark: No (USB2+H05261)
Strobe/Lamp Enabled: No (USB2+H05261)
Correct for Detector Non-linearity: No (USB2+H05261)
Correct for Stray Light: No (USB2+H05261)
Number of Pixels in Processed Spectrum: 2048
>>>>>Begin Processed Spectral Data<<<<<
365.73	112.35
365.92	112.35
366.12	112.35
366.32	70.22
366.52	0.00
366.72	49.15
366.91	30.43
367.11	30.43
367.31	46.81
367.51	128.73
367.70	25.75
367.90	42.13
368.10	0.00
368.30	72.56
368.49	4.68
368.69	110.01
368.89	0.00
369.09	49.15
369.28	0.00
369.48	88.94
369.68	56.17
369.87	81.92
370.07	60.85
370.27	93.62
370.47	205.97
370.66	393.21
370.86	430.66
371.06	383.85
371.25	507.90
371.45	414.27
371.65	468.11
371.84	376.83
372.04	498.53
372.24	496.19
372.44	454.06
372.63	512.58
372.83	409.59
373.03	552.37
373.22	475.13
373.42	545.34
373.62	561.73
373.81	582.79
374.01	587.47
374.21	571.09
374.40	547.69
374.60	554.71
374.79	554.71
374.99	482.15
375.19	545.34
375.38	533.64
375.58	568.75
375.78	550.03
375.97	526.62
376.17	568.75
376.37	601.52
376.56	512.58
376.76	566.41
376.95	601.52
377.15	566.41
377.35	557.05
377.54	662.37
377.74	664.71
377.93	674.07
378.13	599.18
378.33	568.75
378.52	671.73
378.72	631.94
378.91	713.86
379.11	610.88
379.31	557.05
379.50	636.63
379.70	671.73
379.89	624.92
380.09	641.31
380.28	674.07
380.48	634.29
380.68	706.84
380.87	664.71
381.07	664.71
381.26	664.71
381.46	617.90
381.65	681.10
381.85	662.37
382.04	643.65
382.24	681.10
382.43	737.27
382.63	695.14
382.83	725.57
383.02	702.16
383.22	779.40
383.41	678.76
383.61	723.23
383.80	751.31
384.00	732.59
384.19	730.25
384.39	844.93
384.58	807.48
384.78	844.93
384.97	772.38
385.17	699.82
385.36	828.55
385.56	739.61
385.75	723.23
385.95	795.78
386.14	837.91
386.34	763.01
386.53	767.70
386.72	844.93
386.92	800.46
387.11	786.42
387.31	807.48
387.50	802.80
387.70	798.12
387.89	844.93
388.09	828.55
388.28	840.25
388.48	823.87
388.67	847.27
388.86	844.93
389.06	877.70
389.25	882.38
389.45	924.51
389.64	840.25
389.84	926.85
390.03	870.68
390.22	1001.75
390.42	821.53
390.61	882.38
390.81	957.28
391.00	1036.86
391.19	1029.84
391.39	1001.75
391.58	1067.28
391.78	973.66
391.97	964.30
392.16	999.41
392.36	1011.11
392.55	994.73
392.75	954.94
392.94	945.58
393.13	985.37
393.33	1060.26
393.52	1011.11
393.71	1083.67
393.91	983.02
394.10	1013.45
394.29	1001.75
394.49	1130.48
394.68	1069.62
394.88	1086.01
395.07	1191.33
395.26	1088.35
395.46	1130.48
395.65	1067.28
395.84	1102.39
396.04	1137.50
396.23	1078.99
396.42	1142.18
396.62	1076.65
396.81	1200.69
397.00	1114.10
397.19	1221.76
397.39	1240.48
397.58	1219.42
397.77	1252.19
397.97	1256.87
398.16	1207.72
398.35	1378.58
398.55	1308.36
398.74	1338.79
398.93	1296.66
399.12	1331.76
399.32	1273.25
399.51	1357.51
399.70	1397.30
399.90	1352.83
400.09	1394.96
400.28	1441.77
400.47	1406.66
400.67	1504.96
400.86	1430.07
401.05	1500.28
401.24	1528.37
401.44	1416.02
401.63	1523.69
401.82	1561.14
402.01	1509.65
402.21	1509.65
402.40	1507.30
402.59	1561.14
402.78	1593.90
402.97	1483.90
403.17	1619.65
403.36	1666.46
403.55	1671.14
403.74	1640.72
403.93	1722.63
404.13	1614.97
404.32	1631.35
404.51	1614.97
404.70	1685.19
404.89	1746.04
405.09	1680.50
405.28	1659.44
405.47	1687.53
405.66	1729.66
405.85	1748.38
406.05	1823.28
406.24	1797.53
406.43	1797.53
406.62	1919.24
406.81	1923.92
407.00	1849.02
407.20	1774.13
407.39	1830.30
407.58	1877.11
407.77	1898.17
407.96	1977.75
408.15	1935.62
408.34	1921.58
408.54	1996.48
408.73	2033.93
408.92	2033.93
409.11	2047.97
409.30	2099.46
409.49	2069.03
409.68	2017.54
409.87	2064.35
410.07	2125.21
410.26	2078.40
410.45	2181.38
410.64	2080.74
410.83	2146.27
411.02	2134.57
411.21	2260.96
411.40	2298.41
411.59	2349.90
411.78	2305.43
411.98	2242.23
412.17	2239.89
412.36	2242.23
412.55	2324.15
412.74	2448.20
412.93	2497.35
413.12	2471.61
413.31	2588.63
413.50	2502.03
413.69	2614.38
413.88	2560.55
414.07	2583.95
414.26	2548.84
414.45	2644.81
414.64	2691.62
414.83	2665.87
415.02	2656.51
415.22	2726.72
415.41	2813.32
415.60	2717.36
415.79	2789.92
415.98	2892.90
416.17	2853.11
416.36	2942.05
416.55	2885.88
416.74	2857.79
416.93	2906.95
417.12	2888.22
417.31	2939.71
417.50	3007.59
417.69	3000.57
417.88	3014.61
418.07	3075.46
418.26	2949.08
418.45	3234.62
418.64	3178.45
418.83	3059.08
419.02	3187.81
419.21	3215.90
419.39	3267.39
419.58	3215.90
419.77	3157.38
419.96	3148.02
420.15	3321.22
420.34	3265.05
420.53	3356.33
420.72	3428.88
420.91	3379.73
421.10	3370.37
421.29	3475.70
421.48	3321.22
421.67	3461.65
421.86	3365.69
422.05	3494.42
422.24	3433.57
422.43	3344.63
422.61	3417.18
422.80	3524.85
422.99	3637.19
423.18	3611.45
423.37	3606.77
423.56	3475.70
423.75	3445.27
423.94	3426.54
424.13	3400.80
424.32	3351.65
424.50	3552.93
424.69	3581.02
424.88	3559.95
425.07	3485.06
425.26	3531.87
425.45	3588.04
425.64	3569.32
425.83	3555.27
426.01	3655.92
426.20	3658.26
426.39	3707.41
426.58	3559.95
426.77	3524.85
426.96	3599.74
427.15	3625.49
427.33	3676.98
427.52	3637.19
427.71	3559.95
427.90	3688.68
428.09	3913.38
428.28	3873.59
428.46	3733.15
428.65	3861.88
428.84	3889.97
429.03	3798.69
429.22	3805.71
429.40	3885.29
429.59	3669.96
429.78	3648.90
429.97	3695.71
430.16	3784.65
430.34	3838.48
430.53	3894.65
430.72	3866.56
430.91	3988.27
431.10	3955.51
431.28	4191.90
431.47	4065.51
431.66	4273.82
431.85	4042.11
432.03	4112.32
432.22	4322.97
432.41	4219.99
432.60	4292.54
432.79	4252.75
432.97	4308.93
433.16	4262.12
433.35	4142.75
433.54	4114.66
433.72	4409.57
433.91	4390.84
434.10	4257.43
434.28	4227.01
434.47	4292.54
434.66	4538.30
434.85	4531.28
435.03	4491.49
435.22	4308.93
435.41	4507.87
435.59	4725.54
435.78	4566.39
435.97	4582.77
436.16	4592.13
436.34	4533.62
436.53	4660.01
436.72	4645.96
436.90	4589.79
437.09	4758.31
437.28	4524.26
437.46	4664.69
437.65	4685.75
437.84	4699.80
438.02	4716.18
438.21	4671.71
438.40	4732.56
438.58	4938.53
438.77	4894.06
438.96	4849.59
439.14	4975.98
439.33	4985.34
439.52	4938.53
439.70	5093.01
439.89	5088.32
440.08	5055.56
440.26	5210.03
440.45	5203.01
440.63	5303.65
440.82	5259.18
441.01	5343.44
441.19	5434.72
441.38	5479.19
441.57	5425.36
441.75	5619.63
441.94	5687.50
442.12	5757.72
442.31	5657.07
442.50	5774.10
442.68	5825.59
442.87	5692.18
443.05	5757.72
443.24	5816.23
443.43	5930.92
443.61	5856.02
443.80	5804.53
443.98	5806.87
444.17	5643.03
444.35	5951.98
444.54	5951.98
444.73	5973.05
444.91	5689.84
445.10	5865.38
445.28	5750.70
445.47	5919.21
445.65	5689.84
445.84	5851.34
446.02	6015.18
446.21	5849.00
446.39	5823.25
446.58	5947.30
446.77	5975.39
446.95	5769.42
447.14	6099.44
447.32	6115.82
447.51	5961.34
447.69	5991.77
447.88	6216.46
448.06	6050.28
448.25	6064.33
448.43	6066.67
448.62	5966.03
448.80	6001.13
448.99	6022.20
449.17	6076.03
449.36	6022.20
449.54	6363.92
449.73	6221.14
449.91	6300.72
450.10	6551.16
450.28	6675.21
450.46	6424.77
450.65	6471.58
450.83	6389.66
451.02	6375.62
451.20	6335.83
451.39	6623.72
451.57	6504.35
451.76	6403.71
451.94	6499.67
452.13	6623.72
452.31	6520.73
452.49	6457.54
452.68	6544.14
452.86	6471.58
453.05	6773.51
453.23	6553.50
453.42	6485.62
453.60	6572.22
453.78	6672.87
453.97	6609.67
454.15	6583.93
454.34	6576.91
454.52	6778.19
454.70	6836.70
454.89	6960.75
455.07	6913.94
455.26	6707.98
455.44	6850.75
455.62	6909.26
455.81	7033.31
455.99	6981.82
456.17	7129.27
456.36	6930.33
456.54	7089.48
456.73	7143.32
456.91	7267.36
457.09	7424.18
457.28	7468.65
457.46	7021.61
457.64	7325.88
457.83	7335.24
458.01	7199.49
458.19	7648.87
458.38	7328.22
458.56	7566.95
458.74	7569.29
458.93	7356.30
459.11	7368.01
459.29	7438.22
459.48	7627.81
459.66	7597.38
459.84	7592.70
460.03	7646.53
460.21	7613.76
460.39	7817.39
460.57	7693.34
460.76	7660.57
460.94	7793.98
461.12	7719.09
461.31	7999.95
461.49	7676.96
461.67	7756.54
461.85	7911.01
462.04	7793.98
462.22	8484.44
462.40	7889.95
462.59	7999.95
462.77	8060.80
462.95	7915.69
463.13	8011.65
463.32	7845.48
463.50	8095.91
463.68	8161.45
463.86	8278.47
464.05	8159.11
464.23	8145.06
464.41	8196.56
464.59	7960.16
464.78	8292.52
464.96	8217.62
465.14	8088.89
465.32	8428.27
465.50	8416.57
465.69	8416.57
465.87	8409.54
466.05	8278.47
466.23	8376.78
466.41	8325.29
466.60	8512.53
466.78	8355.71
466.96	8411.89
467.14	8526.57
467.32	8446.99
467.51	8566.36
467.69	8332.31
467.87	8594.45
468.05	8879.99
468.23	8528.91
468.41	8606.15
468.60	8688.07
468.78	8774.67
468.96	8603.81
469.14	8985.32
469.32	8901.06
469.50	8608.49
469.69	8697.43
469.87	8898.72
470.05	8805.10
470.23	8891.70
470.41	8919.78
470.59	8898.72
470.77	9121.07
470.95	9139.79
471.14	9415.98
471.32	9043.83
471.50	9301.29
471.68	9404.27
471.86	9563.43
472.04	9467.47
472.22	9483.85
472.40	9198.31
472.58	9479.17
472.77	9294.27
472.95	9795.14
473.13	9877.06
473.31	9692.16
473.49	9624.28
473.67	9673.43
473.85	9673.43
474.03	9846.63
474.21	9776.42
474.39	10043.24
474.57	9991.75
474.75	10162.61
474.93	10228.14
475.12	10052.60
475.30	10207.08
475.48	10279.63
475.66	10129.84
475.84	10235.16
476.02	10298.36
476.20	10340.49
476.38	10707.95
476.56	10949.03
476.74	10775.83
476.92	10698.59
477.10	10827.32
477.28	10951.37
477.46	11000.52
477.64	11019.24
477.82	11208.83
478.00	11386.71
478.18	11452.24
478.36	11302.45
478.54	11515.44
478.72	11676.93
478.90	11754.17
479.08	11913.33
479.26	11831.41
479.44	11997.59
479.62	12053.76
479.80	12215.26
479.98	12379.09
480.16	12519.53
480.34	12299.52
480.52	12453.99
480.70	12603.78
480.88	12372.07
481.06	12610.81
481.24	12947.84
481.41	12915.08
481.59	13280.20
481.77	13034.44
481.95	13231.05
482.13	13188.92
482.31	13238.07
482.49	13600.85
482.67	13479.15
482.85	13640.64
483.03	13933.21
483.21	14080.66
483.39	14061.94
483.57	14094.71
483.74	14176.62
483.92	14169.60
484.10	14574.52
484.28	14457.49
484.46	14745.38
484.64	14897.51
484.82	14785.16
485.00	14881.13
485.18	15002.83
485.35	15161.99
485.53	14960.70
485.71	15129.22
485.89	15241.57
486.07	15197.10
486.25	15597.33
486.43	15522.43
486.61	15756.49
486.78	15803.30
486.96	16166.08
487.14	16470.35
487.32	16482.05
487.50	16472.69
487.68	16404.81
487.85	16898.67
488.03	17160.81
488.21	16971.22
488.39	16936.12
488.57	17411.25
488.75	17057.82
488.92	17738.92
489.10	18038.51
489.28	17729.56
489.46	18331.08
489.64	18094.68
489.81	18415.34
489.99	18527.68
490.17	18403.63
490.35	19140.90
490.53	18728.97
490.70	18820.25
490.88	18939.62
491.06	19206.44
491.24	19075.37
491.41	19073.03
491.59	19133.88
491.77	19112.81
491.95	19609.01
492.13	19807.95
492.30	19878.17
492.48	19866.47
492.66	19882.85
492.84	20109.88
493.01	20144.99
493.19	20313.51
493.37	20458.62
493.54	20671.61
493.72	20718.42
493.90	20746.51
494.08	21223.98
494.25	21336.32
494.43	21329.30
494.61	21579.74
494.79	21472.07
494.96	21479.10
495.14	21319.94
495.32	21528.25
495.49	21872.31
495.67	21977.63
495.85	22155.51
496.02	22452.76
496.20	22483.19
496.38	22670.43
496.55	22614.26
496.73	23332.80
496.91	22693.83
497.09	23253.22
497.26	23463.87
497.44	23239.18
497.62	23138.54
497.79	23726.01
497.97	23552.81
498.14	23522.38
498.32	23531.75
498.50	23690.90
498.67	23887.51
498.85	24041.98
499.03	24210.50
499.20	24386.04
499.38	24290.08
499.56	24346.25
499.73	24430.51
499.91	24662.22
500.08	24566.26
500.26	24666.91
500.44	24819.04
500.61	24823.72
500.79	25193.53
500.97	24957.13
501.14	25015.65
501.32	25490.77
501.49	25226.29
501.67	25439.28
501.84	25315.23
502.02	25518.86
502.20	25715.47
502.37	25638.23
502.55	26052.50
502.72	25961.22
502.90	25961.22
503.07	25731.85
503.25	26096.97
503.43	26106.34
503.60	26544.02
503.78	26511.25
503.95	26342.73
504.13	26331.03
504.30	26450.39
504.48	26969.99
504.65	26906.80
504.83	27204.05
505.01	27241.50
505.18	27051.91
505.36	27426.40
505.53	27449.80
505.71	27566.83
505.88	27615.98
506.06	27283.62
506.23	27374.91
506.41	27709.60
506.58	27583.21
506.76	27665.13
506.93	28079.41
507.11	27995.15
507.28	27931.95
507.46	27931.95
507.63	27875.78
507.81	28533.47
507.98	27882.80
508.16	28173.03
508.33	28601.35
508.50	28671.56
508.68	28582.62
508.85	28961.79
509.03	28884.55
509.20	28404.74
509.38	28765.18
509.55	29390.11
509.73	29062.43
509.90	29247.33
510.08	29542.24
510.25	29275.42
510.42	29422.87
510.60	29860.55
510.77	29563.31
510.95	29736.51
511.12	29654.59
511.30	29640.54
511.47	30010.35
511.64	29933.11
511.82	30370.79
511.99	30363.77
512.17	30272.49
512.34	30197.59
512.51	30595.48
512.69	30787.41
512.86	31105.72
513.04	30738.26
513.21	30534.63
513.38	30534.63
513.56	30892.73
513.73	30684.42
513.90	30850.60
514.08	30991.03
514.25	31225.09
514.43	31035.50
514.60	31360.84
514.77	31311.69
514.95	31426.37
515.12	31580.85
515.29	31662.77
515.47	31889.80
515.64	31679.15
515.81	31967.04
515.99	31885.12
516.16	31873.42
516.33	31732.98
516.51	31508.29
516.68	31709.58
516.85	31552.76
517.03	31765.75
517.20	32486.64
517.37	32315.78
517.54	32510.04
517.72	32137.90
517.89	32121.51
518.06	32283.01
518.24	32219.81
518.41	32400.04
518.58	32772.18
518.75	32849.42
518.93	32964.10
519.10	32669.20
519.27	33158.37
519.45	32907.93
519.62	33118.58
519.79	33462.64
519.96	33706.05
520.14	33804.36
520.31	33338.59
520.48	33387.74
520.65	33638.18
520.83	34246.72
521.00	33855.85
521.17	34059.48
521.34	33752.87
521.52	33722.44
521.69	33745.84
521.86	33841.81
522.03	33900.32
522.20	34026.71
522.38	34265.44
522.55	34550.99
522.72	34672.70
522.89	34094.58
523.07	34206.93
523.24	34099.26
523.41	34377.79
523.58	34792.06
523.75	35058.88
523.92	35019.10
524.10	34679.72
524.27	35461.46
524.44	35154.85
524.61	35108.04
524.78	35475.50
524.96	35306.98
525.13	35393.58
525.30	35725.94
525.47	35592.53
525.64	35288.26
525.81	35405.28
525.98	35667.42
526.16	35435.71
526.33	35143.14
526.50	35779.77
526.67	35601.89
526.84	35641.68
527.01	35700.19
527.18	35941.27
527.36	36165.96
527.53	36196.38
527.70	36381.29
527.87	36313.41
528.04	36205.75
528.21	36470.23
528.38	36268.94
528.55	36655.13
528.72	36648.11
528.89	37123.24
529.07	36449.16
529.24	36535.76
529.41	36535.76
529.58	36559.17
529.75	36598.96
529.92	37354.95
530.09	36926.63
530.26	36964.08
530.43	36868.12
530.60	36907.91
530.77	36877.48
530.94	37177.07
531.11	37160.69
531.28	37202.82
531.46	37537.51
531.63	37399.42
531.80	37207.50
531.97	37380.70
532.14	37553.90
532.31	37476.66
532.48	37343.25
532.65	37483.68
532.82	37432.19
532.99	38169.46
533.16	37507.08
533.33	37502.40
533.50	37982.21
533.67	37914.34
533.84	37600.71
534.01	38211.59
534.18	38272.44
534.35	38274.78
534.52	38164.78
534.69	38099.24
534.86	38637.56
535.03	37610.07
535.20	38546.28
535.37	38817.78
535.54	38625.86
535.71	38855.23
535.88	38541.60
536.05	38782.68
536.22	38705.44
536.38	38923.11
536.55	38885.66
536.72	38604.80
536.89	38522.88
537.06	38649.27
537.23	38796.72
537.40	39070.56
537.57	38644.59
537.74	39126.74
537.91	39412.28
538.08	39349.09
538.25	39213.34
538.42	39016.73
538.59	39070.56
538.75	39126.74
538.92	39091.63
539.09	39442.71
539.26	39042.48
539.43	39264.83
539.60	39519.95
539.77	39536.33
539.94	39152.48
540.11	39077.58
540.28	39599.52
540.44	39744.64
540.61	40030.18
540.78	39810.17
540.95	39868.69
541.12	39910.82
541.29	39590.16
541.46	39859.32
541.62	39798.47
541.79	40039.54
541.96	39585.48
542.13	39838.26
542.30	40325.09
542.47	39749.32
542.63	40039.54
542.80	40456.16
542.97	40690.21
543.14	40629.36
543.31	40942.99
543.48	40631.70
543.64	41123.21
543.81	40996.82
543.98	40832.99
544.15	40727.66
544.32	41233.22
544.48	41179.39
544.65	40924.27
544.82	41471.95
544.99	40704.26
545.16	40882.14
545.32	40961.72
545.49	41291.73
545.66	41055.34
545.83	41268.33
546.00	41797.29
546.16	40861.07
546.33	41062.36
546.50	40814.26
546.67	41418.12
546.83	40957.03
547.00	41317.48
547.17	41265.99
547.34	41511.74
547.50	41078.74
547.67	41783.24
547.84	41773.88
548.00	41642.81
548.17	42113.26
548.34	41979.85
548.51	42155.39
548.67	42146.03
548.84	42040.70
549.01	41659.20
549.18	41696.64
549.34	42185.82
549.51	41834.74
549.68	41694.30
549.84	42127.30
550.01	42174.11
550.18	41989.21
550.34	42045.38
550.51	42408.17
550.68	41773.88
550.84	41698.98
551.01	41996.23
551.18	42230.29
551.34	42202.20
551.51	42101.56
551.68	42543.92
551.84	42347.31
552.01	42433.91
552.18	42337.95
552.34	41876.86
552.51	42857.55
552.68	42586.05
552.84	42848.19
553.01	43096.28
553.18	42452.64
553.34	42403.49
553.51	42356.67
553.67	42932.45
553.84	42651.58
554.01	42923.08
554.17	42909.04
554.34	42897.34
554.51	42792.01
554.67	42766.27
554.84	43107.99
555.00	42738.18
555.17	42831.80
555.33	43349.06
555.50	43217.99
555.67	43136.07
555.83	43012.02
556.00	42651.58
556.16	43512.90
556.33	43056.50
556.50	43033.09
556.66	43264.80
556.83	43262.46
556.99	43662.69
557.16	43463.75
557.32	43105.65
557.49	43276.51
557.65	42749.88
557.82	43344.38
557.98	43428.64
558.15	43332.68
558.32	43573.75
558.48	43236.72
558.65	43278.85
558.81	43430.98
558.98	43512.90
559.14	43393.53
559.31	43552.69
559.47	43421.62
559.64	43852.28
559.80	43711.84
559.97	43775.04
560.13	43332.68
560.30	43318.64
560.46	43309.27
560.63	43695.46
560.79	44172.93
560.96	44037.18
561.12	43290.55
561.29	43854.62
561.45	44091.01
561.61	43381.83
561.78	43583.12
561.94	43899.09
562.11	43948.24
562.27	43477.79
562.44	43880.36
562.60	43751.63
562.77	43749.29
562.93	43934.20
563.10	43934.20
563.26	43784.40
563.42	43997.39
563.59	43880.36
563.75	43915.47
563.92	43941.22
564.08	43852.28
564.24	43988.03
564.41	44311.02
564.57	44268.89
564.74	44226.76
564.90	44346.13
565.07	43981.01
565.23	44194.00
565.39	43983.35
565.56	43969.30
565.72	44196.34
565.88	44119.10
566.05	44318.04
566.21	44177.61
566.38	43981.01
566.54	44100.37
566.70	44339.11
566.87	44975.73
567.03	44292.30
567.19	44734.66
567.36	44126.12
567.52	44205.70
567.68	44355.49
567.85	44217.40
568.01	44381.24
568.17	44603.59
568.34	44701.89
568.50	44301.66
568.66	44067.61
568.83	43861.64
568.99	44343.79
569.15	44706.57
569.32	43995.05
569.48	44275.91
569.64	44460.82
569.81	44877.43
569.97	44624.65
570.13	44399.96
570.30	44493.58
570.46	44238.47
570.62	44135.48
570.78	43913.13
570.95	44334.43
571.11	44692.53
571.27	44165.91
571.43	44605.93
571.60	44404.64
571.76	44116.76
571.92	44446.77
572.09	44507.63
572.25	44863.39
572.41	44088.67
572.57	44439.75
572.74	45027.23
572.90	44524.01
573.06	44737.00
573.22	44659.76
573.38	44629.34
573.55	44678.49
573.71	45095.10
573.87	44446.77
574.03	44285.28
574.20	44603.59
574.36	44673.81
574.52	44713.59
574.68	45050.63
574.84	44678.49
575.01	44378.90
575.17	44589.55
575.33	44383.58
575.49	44240.81
575.65	44942.97
575.82	45240.21
575.98	44591.89
576.14	45141.91
576.30	44928.92
576.46	44591.89
576.62	44800.19
576.79	44910.20
576.95	44151.87
577.11	44865.73
577.27	44659.76
577.43	44985.10
577.59	44612.95
577.75	44832.96
577.92	44554.44
578.08	44498.26
578.24	44814.24
578.40	44355.49
578.56	44814.24
578.72	44505.29
578.88	44790.83
579.04	44795.51
579.21	44596.57
579.37	44921.90
579.53	44460.82
579.69	44641.04
579.85	44676.15
580.01	44729.98
580.17	45052.97
580.33	44762.75
580.49	44641.04
580.65	44849.35
580.82	44793.17
580.98	44542.74
581.14	44596.57
581.30	45095.10
581.46	45085.74
581.62	44966.37
581.78	45233.19
581.94	45109.14
582.10	45045.95
582.26	44898.50
582.42	44877.43
582.58	44945.31
582.74	45209.79
582.90	45268.30
583.06	45130.21
583.22	45104.46
583.38	45191.06
583.54	45090.42
583.70	44797.85
583.86	44619.97
584.02	44343.79
584.18	44699.55
584.34	44877.43
584.50	44964.03
584.66	44732.32
584.82	44346.13
584.98	45228.51
585.14	44954.67
585.30	44514.65
585.46	44987.44
585.62	44669.12
585.78	44910.20
585.94	44439.75
586.10	44664.44
586.26	45036.59
586.42	44912.54
586.58	45141.91
586.74	45020.20
586.90	44687.85
587.06	44659.76
587.22	44921.90
587.38	44484.22
587.54	45226.17
587.70	45214.47
587.86	45333.84
588.02	44793.17
588.18	45329.16
588.34	45242.56
588.49	44882.11
588.65	44421.03
588.81	44652.74
588.97	44659.76
589.13	44500.61
589.29	44987.44
589.45	44678.49
589.61	45476.61
589.77	44992.12
589.93	45366.60
590.08	45471.93
590.24	45256.60
590.40	45595.98
590.56	45130.21
590.72	45170.00
590.88	44982.76
591.04	45364.26
591.20	45731.73
591.35	45485.97
591.51	45867.48
591.67	45280.00
591.83	44959.35
591.99	45291.71
592.15	45195.74
592.31	44893.82
592.46	45240.21
592.62	45366.60
592.78	45394.69
592.94	45181.70
593.10	45343.20
593.26	45570.23
593.41	45415.76
593.57	45347.88
593.73	45221.49
593.89	45469.59
594.05	44898.50
594.20	45364.26
594.36	45308.09
594.52	45284.68
594.68	45436.82
594.84	45104.46
594.99	45390.01
595.15	45139.57
595.31	45280.00
595.47	45301.07
595.62	45659.17
595.78	45448.52
595.94	45207.45
596.10	45235.53
596.25	45378.31
596.41	45556.19
596.57	45209.79
596.73	45455.54
596.88	45244.90
597.04	45249.58
597.20	45172.34
597.36	45457.88
597.51	45565.55
597.67	45572.57
597.83	45347.88
597.99	45450.86
598.14	45546.82
598.30	45574.91
598.46	44722.96
598.61	45490.65
598.77	45162.98
598.93	45647.47
599.09	45254.26
599.24	45818.33
599.40	45275.32
599.56	45340.86
599.71	45467.25
599.87	45797.26
600.03	45593.64
600.18	45373.63
600.34	45333.84
600.50	45174.68
600.65	45408.73
600.81	45397.03
600.97	45823.01
601.12	45595.98
601.28	45584.27
601.44	45167.66
601.59	45303.41
601.75	45256.60
601.91	45244.90
602.06	45099.78
602.22	45366.60
602.37	45088.08
602.53	45097.44
602.69	45745.77
602.84	45490.65
603.00	45448.52
603.16	45186.38
603.31	45148.93
603.47	45235.53
603.62	45240.21
603.78	45495.33
603.94	45425.12
604.09	45439.16
604.25	45237.87
604.40	45282.34
604.56	45411.07
604.71	45013.18
604.87	45191.06
605.03	45404.05
605.18	45354.90
605.34	45057.65
605.49	45165.32
605.65	45324.47
605.80	45261.28
605.96	45382.99
606.12	45448.52
606.27	45642.79
606.43	45022.54
606.58	45682.58
606.74	45198.09
606.89	44935.95
607.05	45043.61
607.20	45397.03
607.36	45132.55
607.51	45331.50
607.67	45013.18
607.82	45235.53
607.98	45013.18
608.13	44800.19
608.29	44638.70
608.44	44563.80
608.60	44638.70
608.75	44472.52
608.91	44767.43
609.06	44673.81
609.22	45336.18
609.37	44582.52
609.53	44837.64
609.68	44903.18
609.84	45043.61
609.99	44882.11
610.15	45083.40
610.30	44949.99
610.46	44734.66
610.61	44608.27
610.76	44638.70
610.92	44650.40
611.07	44790.83
611.23	44406.98
611.38	44442.09
611.54	44016.11
611.69	44662.10
611.84	44605.93
612.00	44687.85
612.15	44294.64
612.31	45067.02
612.46	44509.97
612.62	44484.22
612.77	44519.33
612.92	44907.86
613.08	44172.93
613.23	44428.05
613.39	44360.17
613.54	44486.56
613.69	44266.55
613.85	44231.44
614.00	44596.57
614.15	44816.58
614.31	44783.81
614.46	44875.09
614.62	44481.88
614.77	44488.90
614.92	44109.74
615.08	44348.47
615.23	43971.64
615.38	44058.24
615.54	44023.14
615.69	44224.42
615.84	43978.67
616.00	44137.82
616.15	43597.16
616.30	44081.65
616.46	43800.79
616.61	43688.44
616.76	43906.11
616.92	44039.52
617.07	43948.24
617.22	43519.92
617.37	43622.90
617.53	44004.41
617.68	43711.84
617.83	44116.76
617.99	44128.46
618.14	43707.16
618.29	44137.82
618.45	44098.03
618.60	43791.42
618.75	44009.09
618.90	43969.30
619.06	43985.69
619.21	43735.25
619.36	44128.46
619.51	43819.51
619.67	43438.00
619.82	44098.03
619.97	43761.00
620.12	43463.75
620.28	43182.88
620.43	43784.40
620.58	43187.56
620.73	43772.70
620.89	43367.79
621.04	43292.89
621.19	43349.06
621.34	43386.51
621.49	43164.16
621.65	43311.61
621.80	43271.82
621.95	42745.20
622.10	43320.98
622.25	43005.00
622.41	43344.38
622.56	42885.64
622.71	43353.74
622.86	43171.18
623.01	43433.32
623.16	43367.79
623.32	43395.87
623.47	43023.73
623.62	43281.19
623.77	42761.59
623.92	43030.75
624.07	42590.73
624.23	42717.12
624.38	42256.03
624.53	43112.67
624.68	42937.13
624.83	43091.60
624.98	43056.50
625.13	42574.34
625.29	42803.72
625.44	42672.65
625.59	42677.33
625.74	42607.11
625.89	41909.63
626.04	42270.08
626.19	42471.36
626.34	42541.58
626.49	42548.60
626.65	42211.56
626.80	42499.45
626.95	42204.54
627.10	42316.89
627.25	42366.04
627.40	42050.06
627.55	41675.58
627.70	41706.01
627.85	41701.32
628.00	42174.11
628.15	42579.03
628.30	42033.68
628.45	42309.86
628.60	42143.69
628.76	42595.41
628.91	42351.99
629.06	42335.61
629.21	41818.35
629.36	42359.02
629.51	41883.89
629.66	41888.57
629.81	41804.31
629.96	41975.17
630.11	41848.78
630.26	42237.31
630.41	42047.72
630.56	41689.62
630.71	41860.48
630.86	41628.77
631.01	41776.22
631.16	41935.38
631.31	41242.58
631.46	41235.56
631.61	42057.09
631.76	41734.09
631.91	41530.47
632.06	41450.89
632.21	41478.97
632.36	41872.18
632.51	41401.74
632.66	41481.31
632.81	40919.59
632.96	41654.51
633.10	40828.30
633.25	41497.70
633.40	41415.78
633.55	41198.11
633.70	41717.71
633.85	40882.14
634.00	41383.01
634.15	40849.37
634.30	40961.72
634.45	41092.79
634.60	41160.66
634.75	41062.36
634.90	40715.96
635.05	40973.42
635.19	40872.78
635.34	41258.96
635.49	41282.37
635.64	40849.37
635.79	40776.81
635.94	40741.71
636.09	40449.14
636.24	40748.73
636.39	40182.32
636.53	40877.46
636.68	40313.39
636.83	40783.83
636.98	41008.53
637.13	40364.88
637.28	40783.83
637.43	40711.28
637.57	40816.60
637.72	41134.92
637.87	40577.87
638.02	40390.62
638.17	40177.64
638.32	40282.96
638.46	40336.79
638.61	40470.20
638.76	40460.84
638.91	40297.00
639.06	40311.05
639.20	40491.27
639.35	40247.85
639.50	40336.79
639.65	40175.30
639.80	40620.00
639.94	40034.86
640.09	40032.52
640.24	39775.06
640.39	39412.28
640.54	39924.86
640.68	40612.98
640.83	39981.03
640.98	39707.19
641.13	39461.43
641.27	39950.60
641.42	39985.71
641.57	40128.48
641.72	40226.79
641.86	40105.08
642.01	39845.28
642.16	39363.13
642.31	39115.03
642.45	39948.26
642.60	39529.31
642.75	39704.85
642.90	39964.65
643.04	39725.91
643.19	39386.54
643.34	39739.96
643.48	39260.15
643.63	39339.72
643.78	39164.18
643.93	38773.31
644.07	39250.78
644.22	39005.03
644.37	39143.12
644.51	39103.33
644.66	39180.57
644.81	39484.84
644.95	39194.61
645.10	39311.64
645.25	39143.12
645.39	39367.81
645.54	39398.24
645.69	38873.96
645.83	38911.41
645.98	38955.88
646.13	39213.34
646.27	39210.99
646.42	39257.81
646.57	38967.58
646.71	39201.63
646.86	38911.41
647.00	39515.26
647.15	38878.64
647.30	39243.76
647.44	38785.02
647.59	38597.77
647.74	38864.60
647.88	38574.37
648.03	38967.58
648.17	38476.07
648.32	38494.79
648.47	38534.58
648.61	38719.48
648.76	38979.28
648.90	38656.29
649.05	38878.64
649.20	38983.96
649.34	38314.57
649.49	38785.02
649.63	38749.91
649.78	38590.75
649.92	38543.94
650.07	38939.49
650.21	38408.19
650.36	38302.87
650.51	38595.43
650.65	38557.99
650.80	38810.76
650.94	38555.64
651.09	38766.29
651.23	38457.34
651.38	38363.72
651.52	38108.60
651.67	38349.68
651.81	38361.38
651.96	37813.70
652.10	38195.20
652.25	37940.08
652.39	37713.05
652.54	37893.27
652.68	38089.88
652.83	38061.79
652.97	38359.04
653.12	38059.45
653.26	37975.19
653.41	38377.76
653.55	38000.94
653.70	37670.92
653.84	37834.76
653.99	37474.32
654.13	37879.23
654.27	38050.09
654.42	37656.88
654.56	37593.68
654.71	37841.78
654.85	37851.14
655.00	37900.29
655.14	37350.27
655.29	37275.37
655.43	37352.61
655.57	37120.90
655.72	36959.40
655.86	37535.17
656.01	36814.29
656.15	37649.86
656.30	36950.04
656.44	37420.48
656.58	36835.35
656.73	37219.20
656.87	36919.61
657.01	37064.72
657.16	37008.55
657.30	36678.54
657.45	37046.00
657.59	37017.91
657.73	36872.80
657.88	37280.05
658.02	36875.14
658.16	37106.85
658.31	36940.68
658.45	37060.04
658.60	36491.29
658.74	36837.69
658.88	36643.43
659.03	36823.65
659.17	36048.93
659.31	36748.75
659.46	36589.59
659.60	36304.05
659.74	36634.06
659.89	36456.18
660.03	36390.65
660.17	36404.69
660.32	36460.87
660.46	36484.27
660.60	36486.61
660.74	36503.00
660.89	36290.01
661.03	35496.56
661.17	36088.72
661.32	35868.71
661.46	35735.30
661.60	35534.01
661.74	36011.48
661.89	35718.92
662.03	35660.40
662.17	35903.82
662.31	35543.38
662.46	35613.59
662.60	35889.77
662.74	35580.82
662.88	35538.69
663.03	35672.10
663.17	35449.75
663.31	35007.39
663.45	35775.09
663.60	35484.86
663.74	35157.19
663.88	35304.64
664.02	34983.99
664.17	35370.18
664.31	34548.65
664.45	35269.53
664.59	35166.55
664.73	35323.36
664.88	34930.16
665.02	34487.79
665.16	34873.98
665.30	34859.94
665.44	34199.91
665.59	34052.45
665.73	34354.38
665.87	34017.35
666.01	34342.68
666.15	34132.03
666.29	34440.98
666.44	34450.35
666.58	34239.70
666.72	34251.40
666.86	34380.13
667.00	34129.69
667.14	33944.79
667.28	33897.98
667.43	33715.42
667.57	33816.06
667.71	34150.76
667.85	33577.33
667.99	33577.33
668.13	33565.62
668.27	33883.94
668.41	33701.37
668.56	33493.07
668.70	33275.40
668.84	33303.48
668.98	33467.32
669.12	33357.32
669.26	33589.03
669.40	33195.82
669.54	33188.80
669.68	33001.55
669.82	32985.17
669.96	33015.60
670.10	32933.68
670.25	33371.36
670.39	32643.45
670.53	32975.81
670.67	32320.46
670.81	32730.05
670.95	33167.73
671.09	33064.75
671.23	32613.02
671.37	32940.70
671.51	32283.01
671.65	32371.95
671.79	32652.81
671.93	32287.69
672.07	32563.87
672.21	32261.94
672.35	31798.52
672.49	32332.16
672.63	32009.17
672.77	31828.95
672.91	31995.12
673.05	31976.40
673.19	32034.91
673.33	31576.17
673.47	31377.22
673.61	31180.62
673.75	31108.06
673.89	31358.50
674.03	31213.38
674.17	31124.44
674.31	31424.03
674.45	30752.30
674.59	30911.46
674.73	31229.77
674.87	30951.24
675.01	31253.17
675.15	31098.70
675.29	31005.08
675.43	30946.56
675.56	30576.76
675.70	30490.16
675.84	30527.61
675.98	29809.06
676.12	29986.94
676.26	30338.02
676.40	29916.73
676.54	29956.52
676.68	29724.80
676.82	29184.14
676.96	29659.27
677.10	29799.70
677.23	29654.59
677.37	29495.43
677.51	29214.57
677.65	29120.95
677.79	29226.27
677.93	29050.73
678.07	28905.62
678.21	28594.32
678.34	28479.64
678.48	28774.55
678.62	28741.78
678.76	28435.17
678.90	28357.93
679.04	28964.13
679.18	28245.58
679.31	28030.26
679.45	27960.04
679.59	27779.82
679.73	28203.46
679.87	27812.59
680.00	27669.81
680.14	27864.08
680.28	27625.34
680.42	27456.82
680.56	27470.87
680.70	27199.37
680.83	27468.53
680.97	27419.38
681.11	27042.55
681.25	27023.83
681.39	27281.28
681.52	27037.87
681.66	27190.00
681.80	26684.45
681.94	26611.89
682.07	26939.57
682.21	26644.66
682.35	26342.73
682.49	26293.58
682.62	26419.97
682.76	26012.71
682.90	26307.62
683.04	25869.94
683.17	25825.47
683.31	25865.26
683.45	25930.80
683.59	25685.04
683.72	25556.31
683.86	25429.92
684.00	25137.35
684.13	25495.46
684.27	25350.34
684.41	25315.23
684.55	25013.31
684.68	24844.79
684.82	24552.22
684.96	24879.89
685.09	24711.38
685.23	24442.21
685.37	24549.88
685.50	24222.20
685.64	24453.92
685.78	24664.57
685.91	24510.09
686.05	24140.29
686.19	24004.53
686.32	24159.01
686.46	23634.73
686.60	23311.74
686.73	23644.09
686.87	23552.81
687.01	23466.21
687.14	23091.73
687.28	23035.55
687.42	23218.11
687.55	23019.17
687.69	23199.39
687.82	22909.16
687.96	22953.63
688.10	22750.01
688.23	22890.44
688.37	22546.38
688.50	22499.57
688.64	22574.47
688.78	22338.07
688.91	22644.68
689.05	22298.28
689.18	21986.99
689.32	21708.47
689.46	21947.20
689.59	22078.27
689.73	22309.99
689.86	21872.31
690.00	21666.34
690.13	21790.39
690.27	21469.73
690.41	21488.46
690.54	21179.51
690.68	21467.39
690.81	21502.50
690.95	20727.78
691.08	21046.10
691.22	21118.65
691.35	21036.74
691.49	21020.35
691.62	20957.16
691.76	20744.17
691.89	20606.08
692.03	20606.08
692.16	20390.75
692.30	20355.64
692.43	20372.02
692.57	20215.21
692.70	20006.90
692.84	20313.51
692.97	19948.39
693.11	19728.38
693.24	19770.51
693.38	19796.25
693.51	19845.40
693.65	19763.48
693.78	19524.75
693.92	19538.79
694.05	19524.75
694.19	19456.87
694.32	19232.18
694.45	19396.02
694.59	18862.38
694.72	19115.16
694.86	18864.72
694.99	18588.53
695.13	18658.75
695.26	18382.57
695.39	18267.88
695.53	18588.53
695.66	18448.10
695.80	18431.72
695.93	18281.92
696.07	18050.21
696.20	18267.88
696.33	18134.47
696.47	18031.49
696.60	18155.54
696.73	17551.68
696.87	17539.97
697.00	18015.10
697.14	17734.24
697.27	17827.86
697.40	17453.37
697.54	17848.93
697.67	17317.62
697.80	17579.76
697.94	17193.58
698.07	17025.06
698.21	16980.59
698.34	17156.13
698.47	17158.47
698.61	16702.06
698.74	16631.85
698.87	16666.95
699.01	16453.97
699.14	16456.31
699.27	16388.43
699.40	16355.66
699.54	16039.69
699.67	16098.20
699.80	16035.01
699.94	16341.62
700.07	16140.33
700.20	16170.76
700.34	15927.35
700.47	15815.00
700.60	15793.94
700.73	15889.90
700.87	15482.64
701.00	15690.95
701.13	15501.37
701.26	15578.61
701.40	15665.21
701.53	15398.38
701.66	15187.74
701.79	15009.86
701.93	15255.61
702.06	14710.27
702.19	14860.06
702.32	15171.35
702.46	14831.97
702.59	14956.02
702.72	14883.47
702.85	14813.25
702.99	14525.36
703.12	14682.18
703.25	14981.77
703.38	14864.74
703.51	14333.44
703.65	14403.66
703.78	14263.22
703.91	14263.22
704.04	14272.59
704.17	14132.15
704.31	13923.85
704.44	13462.76
704.57	13689.79
704.70	13584.47
704.83	13745.97
704.96	13481.49
705.10	13949.59
705.23	13626.60
>>>>>End Processed Spectral Data<<<<<
