SpectraSuite Data File
++++++++++++++++++++++++++++++++++++
Date: Fri Oct 25 11:33:28 EDT 2013
User: price-jones
Dark Spectrum Present: No
Reference Spectrum Present: No
Number of Sampled Component Spectra: 1
Spectrometers: USB2+H05261
Integration Time (usec): 100000 (USB2+H05261)
Spectra Averaged: 1 (USB2+H05261)
Boxcar Smoothing: 0 (USB2+H05261)
Correct for Electrical Dark: No (USB2+H05261)
Strobe/Lamp Enabled: No (USB2+H05261)
Correct for Detector Non-linearity: No (USB2+H05261)
Correct for Stray Light: No (USB2+H05261)
Number of Pixels in Processed Spectrum: 2048
>>>>>Begin Processed Spectral Data<<<<<
365.73	269.16
365.92	269.16
366.12	269.16
366.32	201.29
366.52	182.56
366.72	182.56
366.91	107.66
367.11	163.84
367.31	126.39
367.51	224.69
367.70	187.24
367.90	180.22
368.10	105.32
368.30	100.64
368.49	138.09
368.69	294.91
368.89	227.03
369.09	217.67
369.28	257.46
369.48	205.97
369.68	241.08
369.87	203.63
370.07	227.03
370.27	252.78
370.47	339.38
370.66	442.36
370.86	463.43
371.06	507.90
371.25	568.75
371.45	526.62
371.65	535.98
371.84	613.22
372.04	543.00
372.24	575.77
372.44	578.11
372.63	580.45
372.83	627.26
373.03	547.69
373.22	538.32
373.42	594.50
373.62	580.45
373.81	657.69
374.01	631.94
374.21	615.56
374.40	599.18
374.60	638.97
374.79	641.31
374.99	695.14
375.19	629.60
375.38	685.78
375.58	622.58
375.78	636.63
375.97	655.35
376.17	753.65
376.37	678.76
376.56	734.93
376.76	697.48
376.95	645.99
377.15	624.92
377.35	669.39
377.54	725.57
377.74	669.39
377.93	662.37
378.13	690.46
378.33	699.82
378.52	676.41
378.72	730.25
378.91	667.05
379.11	765.36
379.31	706.84
379.50	704.50
379.70	711.52
379.89	706.84
380.09	739.61
380.28	748.97
380.48	786.42
380.68	786.42
380.87	795.78
381.07	697.48
381.26	793.44
381.46	772.38
381.65	697.48
381.85	746.63
382.04	753.65
382.24	840.25
382.43	739.61
382.63	765.36
382.83	702.16
383.02	779.40
383.22	856.64
383.41	767.70
383.61	777.06
383.80	861.32
384.00	851.96
384.19	819.19
384.39	807.48
384.58	858.98
384.78	826.21
384.97	887.06
385.17	849.61
385.36	840.25
385.56	791.10
385.75	814.51
385.95	844.93
386.14	842.59
386.34	784.08
386.53	866.00
386.72	823.87
386.92	875.36
387.11	992.39
387.31	884.72
387.50	938.55
387.70	889.40
387.89	875.36
388.09	943.24
388.28	929.19
388.48	903.45
388.67	933.87
388.86	1041.54
389.06	929.19
389.25	877.70
389.45	882.38
389.64	896.43
389.84	954.94
390.03	978.34
390.22	961.96
390.42	957.28
390.61	952.60
390.81	957.28
391.00	980.68
391.19	1006.43
391.39	1001.75
391.58	950.26
391.78	1034.52
391.97	1069.62
392.16	1020.47
392.36	992.39
392.55	1093.03
392.75	1074.31
392.94	980.68
393.13	929.19
393.33	1022.81
393.52	1036.86
393.71	1135.16
393.91	1083.67
394.10	1090.69
394.29	1109.41
394.49	1107.07
394.68	1083.67
394.88	1116.44
395.07	1181.97
395.26	1231.12
395.46	1142.18
395.65	1188.99
395.84	1102.39
396.04	1200.69
396.23	1109.41
396.42	1135.16
396.62	1184.31
396.81	1212.40
397.00	1146.86
397.19	1163.25
397.39	1231.12
397.58	1205.38
397.77	1181.97
397.97	1191.33
398.16	1203.04
398.35	1163.25
398.55	1235.80
398.74	1205.38
398.93	1266.23
399.12	1249.85
399.32	1387.94
399.51	1334.11
399.70	1322.40
399.90	1387.94
400.09	1273.25
400.28	1376.24
400.47	1336.45
400.67	1474.54
400.86	1500.28
401.05	1437.09
401.24	1448.79
401.44	1418.36
401.63	1437.09
401.82	1448.79
402.01	1465.18
402.21	1547.09
402.40	1430.07
402.59	1460.49
402.78	1509.65
402.97	1579.86
403.17	1476.88
403.36	1593.90
403.55	1568.16
403.74	1619.65
403.93	1610.29
404.13	1617.31
404.32	1540.07
404.51	1643.06
404.70	1561.14
404.89	1629.01
405.09	1734.34
405.28	1652.42
405.47	1612.63
405.66	1727.32
405.85	1739.02
406.05	1694.55
406.24	1638.38
406.43	1863.07
406.62	1774.13
406.81	1778.81
407.00	1708.59
407.20	1757.74
407.39	1820.94
407.58	1907.54
407.77	1823.28
407.96	1905.20
408.15	1825.62
408.34	1846.68
408.54	1909.88
408.73	1891.15
408.92	1886.47
409.11	1994.14
409.30	2022.22
409.49	2031.58
409.68	2038.61
409.87	2022.22
410.07	2094.78
410.26	2047.97
410.45	1982.43
410.64	2146.27
410.83	2066.69
411.02	2101.80
411.21	2125.21
411.40	2113.50
411.59	2115.84
411.78	2190.74
411.98	2101.80
412.17	2298.41
412.36	2270.32
412.55	2284.36
412.74	2291.38
412.93	2345.22
413.12	2373.30
413.31	2377.98
413.50	2401.39
413.69	2466.92
413.88	2464.58
414.07	2551.18
414.26	2572.25
414.45	2628.42
414.64	2464.58
414.83	2640.12
415.02	2605.02
415.22	2642.46
415.41	2558.21
415.60	2661.19
415.79	2626.08
415.98	2827.37
416.17	2752.47
416.36	2686.94
416.55	2789.92
416.74	2799.28
416.93	2822.69
417.12	2780.56
417.31	2820.35
417.50	2871.84
417.69	3152.70
417.88	3009.93
418.07	3019.29
418.26	3052.06
418.45	2993.55
418.64	3049.72
418.83	3019.29
419.02	3105.89
419.21	3047.38
419.39	3089.51
419.58	3052.06
419.77	2935.03
419.96	3052.06
420.15	3084.83
420.34	3119.93
420.53	3199.51
420.72	3253.34
420.91	3162.06
421.10	3276.75
421.29	3318.88
421.48	3295.47
421.67	3243.98
421.86	3316.54
422.05	3274.41
422.24	3288.45
422.43	3389.10
422.61	3255.69
422.80	3475.70
422.99	3337.60
423.18	3358.67
423.37	3480.38
423.56	3496.76
423.75	3386.76
423.94	3297.81
424.13	3169.09
424.32	3300.16
424.50	3574.00
424.69	3527.19
424.88	3447.61
425.07	3337.60
425.26	3391.44
425.45	3452.29
425.64	3440.59
425.83	3412.50
426.01	3557.61
426.20	3499.10
426.39	3576.34
426.58	3503.78
426.77	3447.61
426.96	3578.68
427.15	3454.63
427.33	3674.64
427.52	3695.71
427.71	3756.56
427.90	3728.47
428.09	3623.15
428.28	3606.77
428.46	3702.73
428.65	3679.32
428.84	3662.94
429.03	3880.61
429.22	3576.34
429.40	3756.56
429.59	3700.39
429.78	3658.26
429.97	3478.04
430.16	3641.87
430.34	3812.73
430.53	3948.48
430.72	3763.58
430.91	3829.12
431.10	3751.88
431.28	3925.08
431.47	4152.11
431.66	4070.19
431.85	3847.84
432.03	4058.49
432.22	4187.22
432.41	4056.15
432.60	4058.49
432.79	4067.85
432.97	4067.85
433.16	4168.49
433.35	4086.58
433.54	4159.13
433.72	4119.34
433.91	4215.30
434.10	4231.69
434.28	4194.24
434.47	4175.52
434.66	4276.16
434.85	4297.22
435.03	4271.48
435.22	4273.82
435.41	4367.44
435.59	4425.95
435.78	4442.34
435.97	4430.63
436.16	4461.06
436.34	4404.89
436.53	4449.36
436.72	4535.96
436.90	4489.15
437.09	4648.30
437.28	4325.31
437.46	4589.79
437.65	4566.39
437.84	4613.20
438.02	4533.62
438.21	4596.81
438.40	4547.66
438.58	4814.48
438.77	4793.42
438.96	4748.95
439.14	4819.16
439.33	4954.91
439.52	4858.95
439.70	4978.32
439.89	4964.28
440.08	4959.60
440.26	4931.51
440.45	4961.94
440.63	5090.67
440.82	5242.80
441.01	5123.43
441.19	5259.18
441.38	5329.40
441.57	5170.24
441.75	5317.70
441.94	5413.66
442.12	5458.13
442.31	5324.72
442.50	5603.24
442.68	5310.68
442.87	5579.84
443.05	5469.83
443.24	5638.35
443.43	5528.35
443.61	5462.81
443.80	5636.01
443.98	5394.93
444.17	5355.15
444.35	5528.35
444.54	5654.73
444.73	5584.52
444.91	5689.84
445.10	5713.25
445.28	5713.25
445.47	5568.13
445.65	5511.96
445.84	5678.14
446.02	5689.84
446.21	5799.85
446.39	5823.25
446.58	5762.40
446.77	5731.97
446.95	5703.89
447.14	5809.21
447.32	5881.77
447.51	5921.56
447.69	5811.55
447.88	5694.52
448.06	5841.98
448.25	5753.04
448.43	5884.11
448.62	5657.07
448.80	5853.68
448.99	5921.56
449.17	5865.38
449.36	5792.83
449.54	6038.58
449.73	6045.60
449.91	6136.88
450.10	6069.01
450.28	6113.48
450.46	6033.90
450.65	6092.41
450.83	6033.90
451.02	6047.94
451.20	6176.67
451.39	6303.06
451.57	6272.64
451.76	6099.44
451.94	6399.02
452.13	6319.45
452.31	6300.72
452.49	6277.32
452.68	6410.73
452.86	6408.39
453.05	6382.64
453.23	6436.47
453.42	6200.08
453.60	6314.77
453.78	6452.86
453.97	6431.79
454.15	6424.77
454.34	6239.87
454.52	6569.88
454.70	6544.14
454.89	6527.75
455.07	6682.23
455.26	6619.04
455.44	6663.51
455.62	6656.48
455.81	6679.89
455.99	6745.42
456.17	6839.05
456.36	6729.04
456.54	6787.55
456.73	7045.01
456.91	7026.29
457.09	6904.58
457.28	6951.39
457.46	7129.27
457.64	7164.38
457.83	7138.63
458.01	7016.93
458.19	7197.15
458.38	7080.12
458.56	7204.17
458.74	7105.87
458.93	7318.86
459.11	7028.63
459.29	7225.23
459.48	7379.71
459.66	7250.98
459.84	7391.41
460.03	7501.42
460.21	7316.51
460.39	7368.01
460.57	7449.93
460.76	7384.39
460.94	7578.65
461.12	7508.44
461.31	7466.31
461.49	7384.39
461.67	7552.91
461.85	7864.20
462.04	7449.93
462.22	8093.57
462.40	7831.43
462.59	7658.23
462.77	7817.39
462.95	7808.03
463.13	7707.38
463.32	7889.95
463.50	7714.41
463.68	7990.59
463.86	8018.68
464.05	7761.22
464.23	7992.93
464.41	7978.89
464.59	7751.85
464.78	8049.10
464.96	8177.83
465.14	7915.69
465.32	7932.08
465.50	8035.06
465.69	8238.69
465.87	8042.08
466.05	8112.30
466.23	8156.77
466.41	8145.06
466.60	8156.77
466.78	8238.69
466.96	8128.68
467.14	8234.00
467.32	8475.08
467.51	8491.46
467.69	8056.12
467.87	8428.27
468.05	8491.46
468.23	8430.61
468.41	8463.38
468.60	8585.08
468.78	8432.95
468.96	8414.23
469.14	8542.96
469.32	8812.12
469.50	8489.12
469.69	8685.73
469.87	8966.59
470.05	8828.50
470.23	8990.00
470.41	8781.69
470.59	8943.19
470.77	8812.12
470.95	8975.95
471.14	9076.60
471.32	8793.39
471.50	9123.41
471.68	9074.26
471.86	9015.74
472.04	9036.81
472.22	9434.70
472.40	9387.89
472.58	9249.80
472.77	9231.07
472.95	9530.66
473.13	9804.50
473.31	9327.03
473.49	9341.08
473.67	9348.10
473.85	9530.66
474.03	9832.59
474.21	9474.49
474.39	9893.44
474.57	9888.76
474.75	9844.29
474.93	9980.04
475.12	10005.79
475.30	10298.36
475.48	10101.75
475.66	10195.37
475.84	9935.57
476.02	10279.63
476.20	10153.24
476.38	10289.00
476.56	10363.89
476.74	10560.50
476.92	10604.97
477.10	10611.99
477.28	10637.73
477.46	10539.43
477.64	10740.72
477.82	10937.32
478.00	11213.51
478.18	11171.38
478.36	11143.29
478.54	11384.37
478.72	11414.79
478.90	11559.91
479.08	11477.99
479.26	11756.51
479.44	11758.85
479.62	11964.82
479.80	11805.66
479.98	12006.95
480.16	12339.30
480.34	12023.33
480.52	12194.19
480.70	12320.58
480.88	12149.72
481.06	12442.29
481.24	12348.67
481.41	12493.78
481.59	12821.45
481.77	12940.82
481.95	13041.46
482.13	12996.99
482.31	12950.18
482.49	13441.70
482.67	13338.71
482.85	13635.96
483.03	13488.51
483.21	14078.32
483.39	13790.44
483.57	13783.41
483.74	14003.43
483.92	14047.90
484.10	13837.25
484.28	14317.06
484.46	14239.82
484.64	14714.95
484.82	14555.79
485.00	14553.45
485.18	14881.13
485.35	15066.03
485.53	15084.75
485.71	15293.06
485.89	15452.22
486.07	15133.90
486.25	15459.24
486.43	15695.63
486.61	15695.63
486.78	15875.85
486.96	16116.93
487.14	16154.38
487.32	16198.85
487.50	16444.60
487.68	16606.10
487.85	16606.10
488.03	16706.74
488.21	17083.57
488.39	16968.88
488.57	17240.39
488.75	17355.07
488.92	17378.48
489.10	17635.94
489.28	17774.03
489.46	17987.02
489.64	17785.73
489.81	18256.18
489.99	18417.68
490.17	18050.21
490.35	18450.44
490.53	18342.78
490.70	18874.08
490.88	18604.92
491.06	19028.56
491.24	19171.33
491.41	19131.54
491.59	19201.76
491.77	19360.91
491.95	19440.49
492.13	19482.62
492.30	19515.39
492.48	19749.44
492.66	19939.02
492.84	19728.38
493.01	20395.43
493.19	20301.81
493.37	20458.62
493.54	20585.01
493.72	20744.17
493.90	20882.26
494.08	20994.61
494.25	21067.16
494.43	21324.62
494.61	21170.15
494.79	21312.92
494.96	20968.86
495.14	21685.06
495.32	21891.03
495.49	21610.17
495.67	21909.75
495.85	22022.10
496.02	22284.24
496.20	22370.84
496.38	22338.07
496.55	22520.63
496.73	23159.60
496.91	22904.48
497.09	22920.87
497.26	23152.58
497.44	22820.22
497.62	23173.64
497.79	23510.68
497.97	23419.40
498.14	23538.77
498.32	23992.83
498.50	23576.22
498.67	24051.34
498.85	24013.90
499.03	23871.12
499.20	24540.52
499.38	24208.16
499.56	24491.37
499.73	24559.24
499.91	24524.13
500.08	24823.72
500.26	24828.40
500.44	24917.34
500.61	24907.98
500.79	24790.95
500.97	25088.20
501.14	25256.72
501.32	25757.60
501.49	25156.08
501.67	25259.06
501.84	25476.73
502.02	25322.26
502.20	25788.02
502.37	25748.23
502.55	25682.70
502.72	25860.58
502.90	25930.80
503.07	25577.37
503.25	26230.38
503.43	26122.72
503.60	26672.74
503.78	26565.08
503.95	26759.34
504.13	26668.06
504.30	26939.57
504.48	26948.93
504.65	26771.05
504.83	27241.50
505.01	27091.70
505.18	27122.13
505.36	27335.12
505.53	27749.39
505.71	27445.12
505.88	27351.50
506.06	27442.78
506.23	27934.29
506.41	27630.02
506.58	27976.42
506.76	27917.91
506.93	28191.75
507.11	27810.25
507.28	27920.25
507.46	28266.65
507.63	28439.85
507.81	28449.21
507.98	28486.66
508.16	28442.19
508.33	28421.13
508.50	28767.52
508.68	28603.69
508.85	29186.48
509.03	28959.45
509.20	28734.76
509.38	29118.60
509.55	29560.97
509.73	29181.80
509.90	29563.31
510.08	29340.96
510.25	29811.40
510.42	29898.00
510.60	29722.46
510.77	29926.09
510.95	29979.92
511.12	30036.09
511.30	30389.52
511.47	29731.83
511.64	29965.88
511.82	30684.42
511.99	29612.46
512.17	30614.21
512.34	30876.35
512.51	30817.83
512.69	30618.89
512.86	30735.92
513.04	30852.94
513.21	31180.62
513.38	31054.23
513.56	31112.74
513.73	31072.95
513.90	31262.54
514.08	31468.50
514.25	31337.43
514.43	31868.73
514.60	31466.16
514.77	31316.37
514.95	31709.58
515.12	31442.76
515.29	31730.64
515.47	32130.87
515.64	31978.74
515.81	31821.92
515.99	31988.10
516.16	32283.01
516.33	32201.09
516.51	32790.91
516.68	31854.69
516.85	32334.50
517.03	32765.16
517.20	32676.22
517.37	32877.51
517.54	32692.60
517.72	32849.42
517.89	32765.16
518.06	32875.16
518.24	33006.23
518.41	33560.94
518.58	32954.74
518.75	33387.74
518.93	33359.66
519.10	32919.63
519.27	33612.43
519.45	33701.37
519.62	33570.30
519.79	33888.62
519.96	33574.98
520.14	33937.77
520.31	33427.53
520.48	34082.88
520.65	34298.21
520.83	34312.25
521.00	34686.74
521.17	34457.37
521.34	34543.97
521.52	34464.39
521.69	34288.85
521.86	34820.15
522.03	34831.85
522.20	35206.34
522.38	35175.91
522.55	35332.73
522.72	35143.14
522.89	35276.55
523.07	35550.40
523.24	35452.09
523.41	35283.58
523.58	35042.50
523.75	35484.86
523.92	35199.32
524.10	35732.96
524.27	35475.50
524.44	35639.34
524.61	36016.16
524.78	35880.41
524.96	35957.65
525.13	35917.86
525.30	36465.55
525.47	36460.87
525.64	36336.82
525.81	36088.72
525.98	36938.33
526.16	36378.95
526.33	36313.41
526.50	36591.94
526.67	36690.24
526.84	36641.09
527.01	36301.71
527.18	36797.90
527.36	37174.73
527.53	37376.01
527.70	37275.37
527.87	37010.89
528.04	37029.62
528.21	36945.36
528.38	37174.73
528.55	37514.11
528.72	37514.11
528.89	37099.83
529.07	37174.73
529.24	37074.09
529.41	37581.98
529.58	37586.66
529.75	37474.32
529.92	37741.14
530.09	37886.25
530.26	38054.77
530.43	37954.13
530.60	37436.87
530.77	37792.63
530.94	37989.24
531.11	37844.12
531.28	37874.55
531.46	37968.17
531.63	38396.49
531.80	38356.70
531.97	38754.59
532.14	38742.89
532.31	38492.45
532.48	38333.29
532.65	38782.68
532.82	38632.88
532.99	38576.71
533.16	38813.10
533.33	38667.99
533.50	38885.66
533.67	38873.96
533.84	38600.12
534.01	39033.11
534.18	39002.69
534.35	39580.80
534.52	39241.42
534.69	39821.87
534.86	39339.72
535.03	39058.86
535.20	39601.86
535.37	39812.51
535.54	39786.77
535.71	39400.58
535.88	39735.27
536.05	39573.78
536.22	39971.67
536.38	39803.15
536.55	40004.44
536.72	39768.04
536.89	39660.38
537.06	40357.86
537.23	40133.17
537.40	40072.31
537.57	39887.41
537.74	40437.44
537.91	40023.16
538.08	39920.18
538.25	39908.47
538.42	40744.05
538.59	40194.02
538.75	40217.43
538.92	40313.39
539.09	40727.66
539.26	40650.42
539.43	40683.19
539.60	40891.50
539.77	40479.57
539.94	40790.86
540.11	40786.18
540.28	40896.18
540.44	40961.72
540.61	40800.22
540.78	41186.41
540.95	41471.95
541.12	40708.94
541.29	41064.70
541.46	41284.71
541.62	40818.94
541.79	41684.94
541.96	41155.98
542.13	41198.11
542.30	41436.84
542.47	41483.66
542.63	41104.49
542.80	41717.71
542.97	41820.69
543.14	42335.61
543.31	41729.41
543.48	42014.96
543.64	42415.19
543.81	42319.23
543.98	42134.32
544.15	42277.10
544.32	42806.06
544.48	42649.24
544.65	42256.03
544.82	42806.06
544.99	41921.34
545.16	42211.56
545.32	42429.23
545.49	42326.25
545.66	42843.51
545.83	42658.60
546.00	42726.48
546.16	42880.95
546.33	42436.25
546.50	42707.76
546.67	43037.77
546.83	42443.27
547.00	42483.06
547.17	42731.16
547.34	42513.49
547.50	42951.17
547.67	43147.78
547.84	42972.24
548.00	43255.44
548.17	43241.40
548.34	43435.66
548.51	43292.89
548.67	43215.65
548.84	43501.20
549.01	43718.87
549.18	43433.32
549.34	43597.16
549.51	43971.64
549.68	43526.94
549.84	43569.07
550.01	43681.42
550.18	43803.13
550.34	43639.29
550.51	44034.84
550.68	43597.16
550.84	43115.01
551.01	43672.06
551.18	43702.48
551.34	43667.37
551.51	44016.11
551.68	43943.56
551.84	43901.43
552.01	43529.28
552.18	44191.65
552.34	43758.66
552.51	44128.46
552.68	43938.88
552.84	44163.57
553.01	44512.31
553.18	44165.91
553.34	44432.73
553.51	44093.35
553.67	44325.07
553.84	44631.68
554.01	44334.43
554.17	44385.92
554.34	44694.87
554.51	44179.95
554.67	45029.57
554.84	44685.51
555.00	44650.40
555.17	44711.25
555.33	45219.15
555.50	44882.11
555.67	44678.49
555.83	44554.44
556.00	45242.56
556.16	45228.51
556.33	44872.75
556.50	45198.09
556.66	44919.56
556.83	44837.64
556.99	45153.62
557.16	45256.60
557.32	45387.67
557.49	45404.05
557.65	45347.88
557.82	45277.66
557.98	45188.72
558.15	45034.25
558.32	45158.30
558.48	45315.11
558.65	45015.52
558.81	45481.29
558.98	45207.45
559.14	45333.84
559.31	45406.39
559.47	45057.65
559.64	45755.13
559.80	45265.96
559.97	45832.37
560.13	45216.81
560.30	45422.78
560.46	45830.03
560.63	45249.58
560.79	45713.00
560.96	45872.16
561.12	45855.78
561.29	45677.90
561.45	45914.29
561.61	45902.59
561.78	45647.47
561.94	45401.71
562.11	45425.12
562.27	45888.54
562.44	45638.11
562.60	45888.54
562.77	46248.99
562.93	45689.60
563.10	46209.20
563.26	45897.91
563.42	46117.92
563.59	45830.03
563.75	46141.32
563.92	46213.88
564.08	46085.15
564.24	46293.46
564.41	46024.29
564.57	46185.79
564.74	46293.46
564.90	45860.46
565.07	46253.67
565.23	46148.34
565.39	46146.00
565.56	46358.99
565.72	45855.78
565.88	46349.63
566.05	46459.63
566.21	46532.19
566.38	46195.15
566.54	46366.01
566.70	46478.36
566.87	45841.73
567.03	46326.22
567.19	46799.01
567.36	46824.76
567.52	46902.00
567.68	47133.71
567.85	47042.43
568.01	46834.12
568.17	46106.21
568.34	46571.98
568.50	46574.32
568.66	46216.22
568.83	46866.89
568.99	46485.38
569.15	46864.55
569.32	46635.17
569.48	46714.75
569.64	46955.83
569.81	46649.22
569.97	47122.01
570.13	47077.54
570.30	46253.67
570.46	46155.36
570.62	46681.98
570.78	46717.09
570.95	46904.34
571.11	47072.85
571.27	46590.70
571.43	46469.00
571.60	46787.31
571.76	46962.85
571.92	46775.61
572.09	46815.40
572.25	46422.19
572.41	46597.73
572.57	46536.87
572.74	47185.20
572.90	46937.10
573.06	47309.25
573.22	47159.45
573.38	46953.49
573.55	46747.52
573.71	47243.71
573.87	47185.20
574.03	46754.54
574.20	47136.05
574.36	47229.67
574.52	47217.97
574.68	47299.89
574.84	47384.15
575.01	47349.04
575.17	47189.88
575.33	46857.52
575.49	46845.82
575.65	47236.69
575.82	47014.34
575.98	46965.19
576.14	47356.06
576.30	47379.46
576.46	47416.91
576.62	46951.15
576.79	47550.32
576.95	46773.27
577.11	47019.02
577.27	47236.69
577.43	47292.86
577.59	47555.00
577.75	46813.05
577.92	46878.59
578.08	46829.44
578.24	47400.53
578.40	47501.17
578.56	47016.68
578.72	46880.93
578.88	47929.49
579.04	47255.42
579.21	47096.26
579.37	46932.42
579.53	47480.11
579.69	47332.65
579.85	47070.51
580.01	47564.37
580.17	47166.48
580.33	47093.92
580.49	46976.89
580.65	47199.24
580.82	47089.24
580.98	46972.21
581.14	47112.64
581.30	47096.26
581.46	46796.67
581.62	47239.03
581.78	46976.89
581.94	47318.61
582.10	46855.18
582.26	47285.84
582.42	47253.08
582.58	47180.52
582.74	47732.89
582.90	47316.27
583.06	47409.89
583.22	47587.77
583.38	47437.98
583.54	47342.02
583.70	47491.81
583.86	47758.63
584.02	47498.83
584.18	47437.98
584.34	47690.76
584.50	47728.20
584.66	47433.30
584.82	47461.38
584.98	47845.23
585.14	47646.29
585.30	47203.92
585.46	47306.91
585.62	47229.67
585.78	47285.84
585.94	47012.00
586.10	47606.50
586.26	47129.03
586.42	47590.11
586.58	47353.72
586.74	47449.68
586.90	47739.91
587.06	47313.93
587.22	47763.31
587.38	47281.16
587.54	47576.07
587.70	47868.64
587.86	48044.18
588.02	47487.13
588.18	47278.82
588.34	47442.66
588.49	47531.60
588.65	47442.66
588.81	47653.31
588.97	47592.45
589.13	47482.45
589.29	47739.91
589.45	47735.23
589.61	47660.33
589.77	47798.42
589.93	47957.58
590.08	47990.34
590.24	47751.61
590.40	47901.40
590.56	48095.67
590.72	48233.76
590.88	47856.93
591.04	47742.25
591.20	48233.76
591.35	47976.30
591.51	48409.30
591.67	48369.51
591.83	48193.97
591.99	47873.32
592.15	48140.14
592.31	47629.90
592.46	47749.27
592.62	47959.92
592.78	47950.56
592.94	48172.91
593.10	48203.33
593.26	48472.49
593.41	48385.89
593.57	47805.44
593.73	48285.25
593.89	48266.53
594.05	48467.81
594.20	48053.54
594.36	48931.24
594.52	48495.90
594.68	48287.59
594.84	48491.22
594.99	48299.30
595.15	48229.08
595.31	48046.52
595.47	48163.54
595.62	47894.38
595.78	48193.97
595.94	48339.08
596.10	48247.80
596.25	48563.78
596.41	48643.35
596.57	48210.35
596.73	48676.12
596.88	48121.41
597.04	48226.74
597.20	48406.96
597.36	48088.65
597.51	48493.56
597.67	48053.54
597.83	48170.57
597.99	48236.10
598.14	48343.77
598.30	48376.53
598.46	48217.38
598.61	48828.26
598.77	47959.92
598.93	48376.53
599.09	48526.33
599.24	48669.10
599.40	48683.14
599.56	48432.71
599.71	48701.87
599.87	48856.34
600.03	49001.46
600.18	48348.45
600.34	48388.24
600.50	48355.47
600.65	48332.06
600.81	48762.72
600.97	48603.56
601.12	48395.26
601.28	48502.92
601.44	48074.60
601.59	48383.55
601.75	48409.30
601.91	48458.45
602.06	48692.50
602.22	48956.99
602.37	48786.13
602.53	48535.69
602.69	48673.78
602.84	48439.73
603.00	48404.62
603.16	48531.01
603.31	48336.74
603.47	48610.59
603.62	48367.17
603.78	48570.80
603.94	48322.70
604.09	48378.87
604.25	48488.88
604.40	48727.61
604.56	48631.65
604.71	48720.59
604.87	48362.49
605.03	48318.02
605.18	48301.64
605.34	48694.85
605.49	48072.26
605.65	48299.30
605.80	48402.28
605.96	48081.63
606.12	48460.79
606.27	48189.29
606.43	48002.05
606.58	48446.75
606.74	48123.75
606.89	48184.61
607.05	48512.28
607.20	48390.58
607.36	48486.54
607.51	48231.42
607.67	48383.55
607.82	48088.65
607.98	48032.47
608.13	48301.64
608.29	48102.69
608.44	48374.19
608.60	48156.52
608.75	48428.02
608.91	48348.45
609.06	47789.06
609.22	48392.92
609.37	47791.40
609.53	48264.19
609.68	48254.82
609.84	48163.54
609.99	48381.21
610.15	48236.10
610.30	48505.26
610.46	48156.52
610.61	48100.35
610.76	48402.28
610.92	47814.80
611.07	48025.45
611.23	47976.30
611.38	48273.55
611.54	47861.61
611.69	48367.17
611.84	47908.43
612.00	47892.04
612.15	47988.00
612.31	48142.48
612.46	47917.79
612.62	47711.82
612.77	47718.84
612.92	48353.13
613.08	47845.23
613.23	47756.29
613.39	47704.80
613.54	47330.31
613.69	48048.86
613.85	47608.84
614.00	47742.25
614.15	47641.60
614.31	47255.42
614.46	47980.98
614.62	47641.60
614.77	47859.27
614.92	47402.87
615.08	47517.56
615.23	47580.75
615.38	47988.00
615.54	47775.02
615.69	47503.51
615.84	47428.62
616.00	47756.29
616.15	47405.21
616.30	47868.64
616.46	47852.25
616.61	47248.39
616.76	47613.52
616.92	47222.65
617.07	47559.69
617.22	47454.36
617.37	46972.21
617.53	47260.10
617.68	47384.15
617.83	47760.97
617.99	47875.66
618.14	47508.19
618.29	47131.37
618.45	47449.68
618.60	47140.73
618.75	46965.19
618.90	46806.03
619.06	47004.98
619.21	47246.05
619.36	47414.57
619.51	46726.46
619.67	46916.04
619.82	46927.74
619.97	47232.01
620.12	47360.74
620.28	47077.54
620.43	47363.08
620.58	47185.20
620.73	47164.14
620.89	47503.51
621.04	47122.01
621.19	47274.14
621.34	47126.69
621.49	46817.74
621.65	47550.32
621.80	47201.58
621.95	46894.97
622.10	47196.90
622.25	47028.38
622.41	46281.75
622.56	46923.06
622.71	47007.32
622.86	47075.19
623.01	47147.75
623.16	46787.31
623.32	46726.46
623.47	46553.26
623.62	46665.60
623.77	46887.95
623.92	46513.47
624.07	46454.95
624.23	47168.82
624.38	46775.61
624.53	46820.08
624.68	46410.48
624.83	46714.75
624.98	46794.33
625.13	46525.17
625.29	46464.32
625.44	46188.13
625.59	46487.72
625.74	46092.17
625.89	46092.17
626.04	46300.48
626.19	46436.23
626.34	46321.54
626.49	45951.74
626.65	46298.14
626.80	46557.94
626.95	45560.87
627.10	45940.04
627.25	45820.67
627.40	46167.07
627.55	45977.48
627.70	46270.05
627.85	45773.86
628.00	46038.34
628.15	46284.09
628.30	45441.50
628.45	45397.03
628.60	45446.18
628.76	46021.95
628.91	45652.15
629.06	45612.36
629.21	45429.80
629.36	45397.03
629.51	45558.53
629.66	45848.75
629.81	45642.79
629.96	45748.11
630.11	45677.90
630.26	45579.59
630.41	45081.06
630.56	45645.13
630.71	45741.09
630.86	45436.82
631.01	45471.93
631.16	45205.11
631.31	45205.11
631.46	45350.22
631.61	45483.63
631.76	45560.87
631.91	45748.11
632.06	45453.20
632.21	45535.12
632.36	45617.04
632.51	45022.54
632.66	45617.04
632.81	45317.45
632.96	45233.19
633.10	45207.45
633.25	45205.11
633.40	45518.74
633.55	45401.71
633.70	44715.93
633.85	44912.54
634.00	45287.03
634.15	44519.33
634.30	44903.18
634.45	44971.05
634.60	45172.34
634.75	44980.42
634.90	45031.91
635.05	45038.93
635.19	44774.45
635.34	44924.24
635.49	44727.64
635.64	44919.56
635.79	44779.13
635.94	44828.28
636.09	44589.55
636.24	44832.96
636.39	44741.68
636.53	44655.08
636.68	44568.48
636.83	44378.90
636.98	44430.39
637.13	44568.48
637.28	44451.45
637.43	44568.48
637.57	44528.69
637.72	44165.91
637.87	43917.81
638.02	44254.85
638.17	44126.12
638.32	44074.63
638.46	44154.21
638.61	43856.96
638.76	44147.18
638.91	44144.84
639.06	44130.80
639.20	43784.40
639.35	43849.94
639.50	43835.89
639.65	44072.29
639.80	44444.43
639.94	44212.72
640.09	43948.24
640.24	44289.96
640.39	43674.40
640.54	43393.53
640.68	43402.89
640.83	44074.63
640.98	43643.97
641.13	43269.48
641.27	44280.60
641.42	43861.64
641.57	43152.46
641.72	43871.00
641.86	43709.50
642.01	43529.28
642.16	43906.11
642.31	43133.73
642.45	43641.63
642.60	43171.18
642.75	43430.98
642.90	43540.99
643.04	43777.38
643.19	43503.54
643.34	43302.25
643.48	43344.38
643.63	43391.19
643.78	43246.08
643.93	43674.40
644.07	43594.82
644.22	43447.36
644.37	43185.22
644.51	43613.54
644.66	43665.03
644.81	42967.55
644.95	43199.27
645.10	43739.93
645.25	43430.98
645.39	42703.07
645.54	43187.56
645.69	42862.23
645.83	42843.51
645.98	42932.45
646.13	42705.41
646.27	42834.14
646.42	43002.66
646.57	42988.62
646.71	43304.59
646.86	43313.95
647.00	43192.25
647.15	43466.09
647.30	42796.70
647.44	42941.81
647.59	42555.62
647.74	42906.70
647.88	42916.06
648.03	43100.97
648.17	43180.54
648.32	43061.18
648.47	42906.70
648.61	42691.37
648.76	42710.10
648.90	42436.25
649.05	42579.03
649.20	42438.59
649.34	42639.88
649.49	42759.25
649.63	42703.07
649.78	42543.92
649.92	43133.73
650.07	43082.24
650.21	42595.41
650.36	42864.57
650.51	42614.13
650.65	42773.29
650.80	42710.10
650.94	42351.99
651.09	42822.44
651.23	41794.95
651.38	41982.19
651.52	41830.05
651.67	42162.41
651.81	42115.60
651.96	42010.28
652.10	41879.21
652.25	42054.75
652.39	41731.75
652.54	42190.50
652.68	41816.01
652.83	41886.23
652.97	41820.69
653.12	41865.16
653.26	41642.81
653.41	41521.10
653.55	41429.82
653.70	41834.74
653.84	42422.21
653.99	41996.23
654.13	41591.32
654.27	41942.40
654.42	41397.06
654.56	41626.43
654.71	41743.45
654.85	41586.64
655.00	41560.89
655.14	41406.42
655.29	41682.60
655.43	41806.65
655.57	41406.42
655.72	41277.69
655.86	41172.36
656.01	41350.24
656.15	41322.16
656.30	41345.56
656.44	41525.78
656.58	41375.99
656.73	41277.69
656.87	40844.69
657.01	41064.70
657.16	41170.02
657.30	41050.66
657.45	41132.57
657.59	40999.16
657.73	40596.59
657.88	40636.38
658.02	41242.58
658.16	41317.48
658.31	41111.51
658.45	41235.56
658.60	40952.35
658.74	40825.96
658.88	40554.46
659.03	40840.01
659.17	40594.25
659.31	40554.46
659.46	40161.25
659.60	40526.38
659.74	40236.15
659.89	40016.14
660.03	40517.01
660.17	40622.34
660.32	40268.92
660.46	40329.77
660.60	40018.48
660.74	40184.66
660.89	39798.47
661.03	39793.79
661.17	39840.60
661.32	39728.25
661.46	40100.40
661.60	39599.52
661.74	39758.68
661.89	39725.91
662.03	39522.29
662.17	39445.05
662.31	39571.44
662.46	39742.30
662.60	39461.43
662.74	39096.31
662.88	39512.92
663.03	38979.28
663.17	39222.70
663.31	38976.94
663.45	38808.42
663.60	39225.04
663.74	38803.74
663.88	39098.65
664.02	38822.47
664.17	38712.46
664.31	39182.91
664.45	38499.47
664.59	38909.07
664.73	38625.86
664.88	38759.27
665.02	38359.04
665.16	38632.88
665.30	38352.02
665.44	38534.58
665.59	37942.42
665.73	37979.87
665.87	38059.45
666.01	38377.76
666.15	38260.74
666.29	38155.41
666.44	38405.85
666.58	37888.59
666.72	37731.78
666.86	37809.01
667.00	37979.87
667.14	38012.64
667.28	37448.57
667.43	37619.43
667.57	37965.83
667.71	38099.24
667.85	37776.25
667.99	37823.06
668.13	37209.84
668.27	37663.90
668.41	37071.75
668.56	36659.81
668.70	36868.12
668.84	37158.34
668.98	36914.93
669.12	37104.51
669.26	36772.16
669.40	36980.46
669.54	36940.68
669.68	36982.80
669.82	36797.90
669.96	36715.98
670.10	36275.96
670.25	36238.51
670.39	36362.56
670.53	36336.82
670.67	36236.17
670.81	36549.81
670.95	36325.11
671.09	36037.23
671.23	35990.42
671.37	36407.03
671.51	35871.05
671.65	35831.26
671.79	35873.39
671.93	35903.82
672.07	35786.79
672.21	35854.67
672.35	35475.50
672.49	35618.27
672.63	35086.97
672.77	35278.89
672.91	35550.40
673.05	35285.92
673.19	35084.63
673.33	35161.87
673.47	34761.64
673.61	35014.41
673.75	34415.24
673.89	34326.30
674.03	34492.47
674.17	33827.76
674.31	34230.33
674.45	34129.69
674.59	34038.41
674.73	34089.90
674.87	33584.35
675.01	33509.45
675.15	33619.46
675.29	33677.97
675.43	33628.82
675.56	33523.49
675.70	33635.84
675.84	33684.99
675.98	32524.08
676.12	33359.66
676.26	33418.17
676.40	32879.85
676.54	33422.85
676.68	32950.06
676.82	32348.54
676.96	32484.30
677.10	32929.00
677.23	32781.54
677.37	32362.59
677.51	32622.39
677.65	32414.08
677.79	32219.81
677.93	32144.92
678.07	32315.78
678.21	32463.23
678.34	31817.24
678.48	31503.61
678.62	31641.70
678.76	31316.37
678.90	31278.92
679.04	31569.15
679.18	31201.68
679.31	30850.60
679.45	31007.42
679.59	31000.40
679.73	30742.94
679.87	30785.07
680.00	30768.68
680.14	30471.43
680.28	30731.23
680.42	30661.02
680.56	30277.17
680.70	29975.24
680.83	30129.72
680.97	29986.94
681.11	30218.66
681.25	29776.30
681.39	29460.32
681.52	29806.72
681.66	29347.98
681.80	29322.23
681.94	28882.21
682.07	29020.30
682.21	28882.21
682.35	28690.29
682.49	28769.86
682.62	28952.43
682.76	28924.34
682.90	28606.03
683.04	28657.52
683.17	28343.89
683.31	28292.40
683.45	27992.81
683.59	28341.55
683.72	27494.27
683.86	28065.36
684.00	27744.71
684.13	27718.96
684.27	27653.43
684.41	27407.67
684.55	27608.96
684.68	27384.27
684.82	27035.53
684.96	27248.52
685.09	27065.96
685.23	27344.48
685.37	27431.08
685.50	27227.45
685.64	26794.45
685.78	26794.45
685.91	26670.40
686.05	26052.50
686.19	25984.63
686.32	26434.01
686.46	25568.01
686.60	25771.64
686.73	26047.82
686.87	26003.35
687.01	25776.32
687.14	25443.96
687.28	25247.36
687.42	25355.02
687.55	24886.92
687.69	25165.44
687.82	25067.14
687.96	25165.44
688.10	24847.13
688.23	25184.16
688.37	25048.41
688.50	25153.74
688.64	24830.74
688.78	24372.00
688.91	24659.88
689.05	24334.55
689.18	24034.96
689.32	23861.76
689.46	23786.86
689.59	23697.92
689.73	24044.32
689.86	24002.19
690.00	23646.43
690.13	23817.29
690.27	23531.75
690.41	23466.21
690.54	23285.99
690.68	23337.48
690.81	23213.43
690.95	22927.89
691.08	23012.15
691.22	22742.99
691.35	23087.04
691.49	22902.14
691.62	22679.79
691.76	22473.82
691.89	22068.91
692.03	22415.31
692.16	21888.69
692.30	22029.12
692.43	22120.40
692.57	21820.81
692.70	21830.18
692.84	21848.90
692.97	21453.35
693.11	21385.47
693.24	21291.85
693.38	21266.11
693.51	21301.22
693.65	21184.19
693.78	20978.22
693.92	20917.37
694.05	21118.65
694.19	20755.87
694.32	20886.94
694.45	20933.75
694.59	20870.56
694.72	20821.41
694.86	20491.39
694.99	20269.04
695.13	20119.24
695.26	20020.94
695.39	19997.54
695.53	19878.17
695.66	19850.08
695.80	20002.22
695.93	19704.97
696.07	19304.74
696.20	19026.21
696.33	19166.65
696.47	19115.16
696.60	19049.62
696.73	19176.01
696.87	19300.06
697.00	18555.77
697.14	18661.09
697.27	18855.36
697.40	18869.40
697.54	18824.93
697.67	18527.68
697.80	18682.16
697.94	18427.04
698.07	18253.84
698.21	18040.85
698.34	18293.63
698.47	17816.16
698.61	17619.55
698.74	17811.48
698.87	17619.55
699.01	17429.97
699.14	17659.34
699.27	17289.54
699.40	17476.78
699.54	17635.94
699.67	17296.56
699.80	17390.18
699.94	16903.35
700.07	17106.98
700.20	17111.66
700.34	17092.93
700.47	16823.77
700.60	16947.82
700.73	16847.18
700.87	16666.95
701.00	16238.64
701.13	16133.31
701.26	16264.38
701.40	16362.69
701.53	15985.86
701.66	15922.66
701.79	16126.29
701.93	15683.93
702.06	15714.36
702.19	15587.97
702.32	15627.76
702.46	15751.81
702.59	15655.84
702.72	15740.10
702.85	15236.89
702.99	15463.92
703.12	15372.64
703.25	15080.07
703.38	14839.00
703.51	14951.34
703.65	14839.00
703.78	14750.06
703.91	14530.05
704.04	14626.01
704.17	14633.03
704.31	14736.01
704.44	14354.51
704.57	14401.32
704.70	14504.30
704.83	14295.99
704.96	13886.40
705.10	13886.40
705.23	13848.95
>>>>>End Processed Spectral Data<<<<<
