SpectraSuite Data File
++++++++++++++++++++++++++++++++++++
Date: Fri Oct 25 10:44:48 EDT 2013
User: price-jones
Dark Spectrum Present: No
Reference Spectrum Present: No
Number of Sampled Component Spectra: 1
Spectrometers: USB2+H05261
Integration Time (usec): 100000 (USB2+H05261)
Spectra Averaged: 1 (USB2+H05261)
Boxcar Smoothing: 0 (USB2+H05261)
Correct for Electrical Dark: No (USB2+H05261)
Strobe/Lamp Enabled: No (USB2+H05261)
Correct for Detector Non-linearity: No (USB2+H05261)
Correct for Stray Light: No (USB2+H05261)
Number of Pixels in Processed Spectrum: 2048
>>>>>Begin Processed Spectral Data<<<<<
365.73	117.03
365.92	117.03
366.12	117.03
366.32	4.68
366.52	60.85
366.72	131.07
366.91	39.79
367.11	0.00
367.31	2.34
367.51	0.00
367.70	131.07
367.90	72.56
368.10	0.00
368.30	0.00
368.49	0.00
368.69	49.15
368.89	72.56
369.09	23.41
369.28	9.36
369.48	67.88
369.68	154.48
369.87	117.03
370.07	70.22
370.27	112.35
370.47	222.35
370.66	266.82
370.86	428.32
371.06	465.77
371.25	451.72
371.45	458.74
371.65	472.79
371.84	402.57
372.04	538.32
372.24	468.11
372.44	428.32
372.63	498.53
372.83	472.79
373.03	512.58
373.22	512.58
373.42	475.13
373.62	493.85
373.81	554.71
374.01	613.22
374.21	517.26
374.40	521.94
374.60	535.98
374.79	592.16
374.99	489.17
375.19	550.03
375.38	587.47
375.58	559.39
375.78	526.62
375.97	613.22
376.17	528.96
376.37	592.16
376.56	547.69
376.76	554.71
376.95	517.26
377.15	571.09
377.35	531.30
377.54	613.22
377.74	550.03
377.93	620.24
378.13	573.43
378.33	575.77
378.52	594.50
378.72	578.11
378.91	601.52
379.11	575.77
379.31	664.71
379.50	641.31
379.70	709.18
379.89	643.65
380.09	690.46
380.28	624.92
380.48	606.20
380.68	662.37
380.87	643.65
381.07	655.35
381.26	727.91
381.46	641.31
381.65	695.14
381.85	709.18
382.04	716.20
382.24	704.50
382.43	547.69
382.63	636.63
382.83	758.33
383.02	669.39
383.22	601.52
383.41	723.23
383.61	657.69
383.80	688.12
384.00	767.70
384.19	784.08
384.39	657.69
384.58	791.10
384.78	760.67
384.97	678.76
385.17	683.44
385.36	751.31
385.56	713.86
385.75	772.38
385.95	702.16
386.14	858.98
386.34	772.38
386.53	798.12
386.72	828.55
386.92	828.55
387.11	844.93
387.31	816.85
387.50	737.27
387.70	734.93
387.89	763.01
388.09	866.00
388.28	760.67
388.48	767.70
388.67	840.25
388.86	816.85
389.06	901.11
389.25	912.81
389.45	875.36
389.64	870.68
389.84	870.68
390.03	837.91
390.22	924.51
390.42	917.49
390.61	844.93
390.81	884.72
391.00	1013.45
391.19	910.47
391.39	954.94
391.58	912.81
391.78	851.96
391.97	976.00
392.16	917.49
392.36	1050.90
392.55	987.71
392.75	987.71
392.94	898.77
393.13	926.85
393.33	952.60
393.52	943.24
393.71	936.21
393.91	1109.41
394.10	999.41
394.29	992.39
394.49	1055.58
394.68	1020.47
394.88	1144.52
395.07	1123.46
395.26	1142.18
395.46	1146.86
395.65	1266.23
395.84	1210.06
396.04	1156.22
396.23	1057.92
396.42	1123.46
396.62	1139.84
396.81	1139.84
397.00	1090.69
397.19	1086.01
397.39	1198.35
397.58	1214.74
397.77	1259.21
397.97	1146.86
398.16	1228.78
398.35	1299.00
398.55	1313.04
398.74	1191.33
398.93	1341.13
399.12	1268.57
399.32	1249.85
399.51	1289.64
399.70	1476.88
399.90	1301.34
400.09	1343.47
400.28	1343.47
400.47	1383.26
400.67	1519.01
400.86	1448.79
401.05	1577.52
401.24	1432.41
401.44	1451.13
401.63	1469.86
401.82	1434.75
402.01	1507.30
402.21	1493.26
402.40	1516.67
402.59	1530.71
402.78	1519.01
402.97	1551.78
403.17	1612.63
403.36	1603.27
403.55	1547.09
403.74	1640.72
403.93	1584.54
404.13	1638.38
404.32	1682.85
404.51	1589.22
404.70	1760.08
404.89	1706.25
405.09	1750.72
405.28	1682.85
405.47	1755.40
405.66	1771.79
405.85	1785.83
406.05	1792.85
406.24	1799.87
406.43	1806.89
406.62	1893.49
406.81	1900.52
407.00	1788.17
407.20	1706.25
407.39	1823.28
407.58	1942.64
407.77	1998.82
407.96	1919.24
408.15	2012.86
408.34	1975.41
408.54	2019.88
408.73	1919.24
408.92	2059.67
409.11	2024.56
409.30	2029.24
409.49	1973.07
409.68	2132.23
409.87	2092.44
410.07	2031.58
410.26	2127.55
410.45	2085.42
410.64	2239.89
410.83	2143.93
411.02	2139.25
411.21	2246.91
411.40	2282.02
411.59	2314.79
411.78	2296.07
411.98	2382.67
412.17	2352.24
412.36	2396.71
412.55	2415.43
412.74	2443.52
412.93	2396.71
413.12	2434.16
413.31	2609.70
413.50	2565.23
413.69	2490.33
413.88	2635.44
414.07	2523.10
414.26	2630.76
414.45	2658.85
414.64	2672.89
414.83	2705.66
415.02	2745.45
415.22	2719.70
415.41	2813.32
415.60	2813.32
415.79	2668.21
415.98	2923.33
416.17	2942.05
416.36	2843.75
416.55	2977.16
416.74	2806.30
416.93	2918.65
417.12	3019.29
417.31	2930.35
417.50	2867.16
417.69	3180.79
417.88	3049.72
418.07	3082.49
418.26	3002.91
418.45	3068.44
418.64	3197.17
418.83	3185.47
419.02	3159.72
419.21	3087.17
419.39	3152.70
419.58	3176.11
419.77	3145.68
419.96	3267.39
420.15	3260.37
420.34	3258.03
420.53	3258.03
420.72	3368.03
420.91	3435.91
421.10	3330.58
421.29	3466.33
421.48	3281.43
421.67	3496.76
421.86	3342.28
422.05	3431.23
422.24	3513.14
422.43	3386.76
422.61	3421.86
422.80	3445.27
422.99	3515.48
423.18	3459.31
423.37	3585.70
423.56	3574.00
423.75	3543.57
423.94	3403.14
424.13	3375.05
424.32	3459.31
424.50	3684.00
424.69	3637.19
424.88	3531.87
425.07	3510.80
425.26	3447.61
425.45	3566.98
425.64	3513.14
425.83	3618.47
426.01	3749.54
426.20	3613.79
426.39	3667.62
426.58	3585.70
426.77	3545.91
426.96	3693.37
427.15	3555.27
427.33	3782.31
427.52	3669.96
427.71	3723.79
427.90	3779.97
428.09	3815.07
428.28	3772.94
428.46	3854.86
428.65	3763.58
428.84	3831.46
429.03	4074.87
429.22	3801.03
429.40	3749.54
429.59	3808.05
429.78	3761.24
429.97	3637.19
430.16	3763.58
430.34	3772.94
430.53	3801.03
430.72	3775.28
430.91	3934.44
431.10	3899.33
431.28	4091.26
431.47	4212.96
431.66	4147.43
431.85	4121.68
432.03	4271.48
432.22	4119.34
432.41	4243.39
432.60	4205.94
432.79	4210.62
432.97	4372.12
433.16	4257.43
433.35	4156.79
433.54	4390.84
433.72	4285.52
433.91	4208.28
434.10	4372.12
434.28	4402.55
434.47	4400.21
434.66	4229.35
434.85	4374.46
435.03	4489.15
435.22	4491.49
435.41	4512.55
435.59	4571.07
435.78	4624.90
435.97	4564.04
436.16	4641.28
436.34	4645.96
436.53	4552.34
436.72	4657.67
436.90	4667.03
437.09	4690.43
437.28	4631.92
437.46	4727.88
437.65	4727.88
437.84	4643.62
438.02	4772.35
438.21	4720.86
438.40	4847.25
438.58	4856.61
438.77	4912.78
438.96	4891.72
439.14	5027.47
439.33	5104.71
439.52	5118.75
439.70	5146.84
439.89	5107.05
440.08	5095.35
440.26	5305.99
440.45	5193.65
440.63	5359.83
440.82	5291.95
441.01	5261.52
441.19	5437.06
441.38	5497.92
441.57	5467.49
441.75	5514.30
441.94	5591.54
442.12	5542.39
442.31	5554.09
442.50	5849.00
442.68	5778.78
442.87	5701.54
443.05	5612.60
443.24	5841.98
443.43	5799.85
443.61	5839.64
443.80	5837.30
443.98	5795.17
444.17	5621.97
444.35	5755.38
444.54	5947.30
444.73	5884.11
444.91	5804.53
445.10	5926.24
445.28	5795.17
445.47	5785.80
445.65	5834.96
445.84	5926.24
446.02	5916.87
446.21	6057.31
446.39	5837.30
446.58	6043.26
446.77	5919.21
446.95	5809.21
447.14	6090.07
447.32	6066.67
447.51	6001.13
447.69	5954.32
447.88	6160.29
448.06	6071.35
448.25	6136.88
448.43	6160.29
448.62	5963.68
448.80	6069.01
448.99	6040.92
449.17	6047.94
449.36	6099.44
449.54	6314.77
449.73	6387.32
449.91	6338.17
450.10	6312.42
450.28	6415.41
450.46	6544.14
450.65	6595.63
450.83	6211.78
451.02	6427.11
451.20	6394.34
451.39	6691.59
451.57	6569.88
451.76	6532.44
451.94	6480.94
452.13	6448.18
452.31	6518.39
452.49	6502.01
452.68	6485.62
452.86	6471.58
453.05	6516.05
453.23	6719.68
453.42	6600.31
453.60	6520.73
453.78	6576.91
453.97	6642.44
454.15	6693.93
454.34	6626.06
454.52	6757.13
454.70	6846.07
454.89	6764.15
455.07	6895.22
455.26	7105.87
455.44	6862.45
455.62	6897.56
455.81	6939.69
455.99	6942.03
456.17	7047.35
456.36	7166.72
456.54	7225.23
456.73	7042.67
456.91	7309.49
457.09	7122.25
457.28	7452.27
457.46	7255.66
457.64	7236.94
457.83	7400.77
458.01	7119.91
458.19	7564.61
458.38	7204.17
458.56	7492.05
458.74	7414.82
458.93	7386.73
459.11	7555.25
459.29	7508.44
459.48	7683.98
459.66	7541.21
459.84	7501.42
460.03	7770.58
460.21	7695.68
460.39	7548.23
460.57	7672.28
460.76	7571.63
460.94	7702.70
461.12	7850.16
461.31	7803.35
461.49	7873.56
461.67	7925.05
461.85	8138.04
462.04	8072.51
462.22	7950.80
462.40	8140.38
462.59	7997.61
462.77	8006.97
462.95	8042.08
463.13	8177.83
463.32	8138.04
463.50	8142.72
463.68	8114.64
463.86	8224.64
464.05	8035.06
464.23	8042.08
464.41	8208.26
464.59	7988.25
464.78	8351.03
464.96	8386.14
465.14	8215.28
465.32	8491.46
465.50	8283.16
465.69	8468.06
465.87	8217.62
466.05	8390.82
466.23	8297.20
466.41	8510.19
466.60	8592.11
466.78	8369.76
466.96	8407.20
467.14	8311.24
467.32	8386.14
467.51	8875.31
467.69	8439.97
467.87	8538.27
468.05	8720.84
468.23	8727.86
468.41	8601.47
468.60	8713.81
468.78	8762.97
468.96	8519.55
469.14	8835.52
469.32	8889.35
469.50	8624.87
469.69	8985.32
469.87	8954.89
470.05	8872.97
470.23	9064.89
470.41	9069.58
470.59	9013.40
470.77	9057.87
470.95	9092.98
471.14	9308.31
471.32	9224.05
471.50	9338.74
471.68	9343.42
471.86	9448.74
472.04	9352.78
472.22	9696.84
472.40	9441.72
472.58	9495.55
472.77	9535.34
472.95	9462.79
473.13	9912.17
473.31	9607.90
473.49	9638.33
473.67	9640.67
473.85	9888.76
474.03	10019.83
474.21	9792.80
474.39	10066.64
474.57	10235.16
474.75	10164.95
474.93	10197.71
475.12	10218.78
475.30	10373.25
475.48	10300.70
475.66	10277.29
475.84	10207.08
476.02	10389.64
476.20	10567.52
476.38	10677.52
476.56	10803.91
476.74	10684.55
476.92	10750.08
477.10	10796.89
477.28	11122.23
477.46	10864.77
477.64	11049.67
477.82	11265.00
478.00	11623.10
478.18	11543.52
478.36	11178.40
478.54	11494.37
478.72	11772.89
478.90	11716.72
479.08	11527.14
479.26	11824.39
479.44	11843.11
479.62	12079.50
479.80	12058.44
479.98	11960.14
480.16	12594.42
480.34	12231.64
480.52	12594.42
480.70	12685.70
480.88	12685.70
481.06	12664.64
481.24	12809.75
481.41	12854.22
481.59	12945.50
481.77	13118.70
481.95	13158.49
482.13	13345.73
482.31	13284.88
482.49	13671.07
482.67	13523.62
482.85	13537.66
483.03	13673.41
483.21	14106.41
483.39	14045.55
483.57	14265.57
483.74	14286.63
483.92	14185.99
484.10	14284.29
484.28	14382.59
484.46	14829.63
484.64	15007.52
484.82	14745.38
485.00	14930.28
485.18	15140.93
485.35	15358.60
485.53	14934.96
485.71	15016.88
485.89	15379.66
486.07	15365.62
486.25	15297.74
486.43	15599.67
486.61	15620.74
486.78	16128.63
486.96	15864.15
487.14	16313.53
487.32	16278.43
487.50	16556.95
487.68	16589.72
487.85	16919.73
488.03	16791.00
488.21	17071.87
488.39	17191.23
488.57	17216.98
488.75	17296.56
488.92	17795.09
489.10	17673.39
489.28	17736.58
489.46	18288.95
489.64	18164.90
489.81	18469.17
489.99	18562.79
490.17	18604.92
490.35	18686.84
490.53	18696.20
490.70	19030.90
490.88	18972.38
491.06	19379.64
491.24	19101.11
491.41	18768.76
491.59	18948.98
491.77	19534.11
491.95	19639.44
492.13	19487.30
492.30	19791.57
492.48	19866.47
492.66	19688.59
492.84	19859.45
493.01	20088.82
493.19	20301.81
493.37	20552.24
493.54	20638.84
493.72	20610.76
493.90	20868.22
494.08	20933.75
494.25	21205.25
494.43	21645.27
494.61	21563.36
494.79	21261.43
494.96	21097.59
495.14	21633.57
495.32	21743.58
495.49	22022.10
495.67	22146.15
495.85	22089.98
496.02	22398.93
496.20	22485.53
496.38	22541.70
496.55	22459.78
496.73	22831.93
496.91	22740.64
497.09	23199.39
497.26	23229.82
497.44	22981.72
497.62	23208.75
497.79	23463.87
497.97	23211.09
498.14	23669.84
498.32	23536.43
498.50	23948.36
498.67	24163.69
498.85	24276.04
499.03	24149.65
499.20	24240.93
499.38	24510.09
499.56	24353.27
499.73	24498.39
499.91	24556.90
500.08	24790.95
500.26	24549.88
500.44	24676.27
500.61	24552.22
500.79	24758.19
500.97	25436.94
501.14	25612.48
501.32	25343.32
501.49	25263.74
501.67	25427.58
501.84	25446.30
502.02	25572.69
502.20	25619.50
502.37	25986.97
502.55	25839.51
502.72	25883.98
502.90	26101.65
503.07	26125.06
503.25	26352.09
503.43	26312.30
503.60	26359.11
503.78	26099.31
503.95	26295.92
504.13	26267.83
504.30	26527.63
504.48	26806.16
504.65	26899.78
504.83	26892.76
505.01	26775.73
505.18	27019.14
505.36	27194.68
505.53	27250.86
505.71	27410.01
505.88	27510.66
506.06	27206.39
506.23	27501.29
506.41	27131.49
506.58	27365.54
506.76	27718.96
506.93	27728.33
507.11	27847.69
507.28	27777.48
507.46	27660.45
507.63	28261.97
507.81	28173.03
507.98	28053.66
508.16	28379.00
508.33	28301.76
508.50	28432.83
508.68	28687.95
508.85	28804.97
509.03	28613.05
509.20	29006.26
509.38	29095.20
509.55	29177.12
509.73	28779.23
509.90	29249.67
510.08	29017.96
510.25	28987.53
510.42	29743.53
510.60	29745.87
510.77	29708.42
510.95	29883.96
511.12	29797.36
511.30	29516.50
511.47	30026.73
511.64	30040.78
511.82	30153.12
511.99	30143.76
512.17	29783.32
512.34	29982.26
512.51	30349.73
512.69	30635.27
512.86	30541.65
513.04	31026.14
513.21	30829.54
513.38	30487.82
513.56	30806.13
513.73	30543.99
513.90	30820.17
514.08	30948.90
514.25	30927.84
514.43	30742.94
514.60	31115.08
514.77	31175.94
514.95	31571.49
515.12	31136.15
515.29	31417.01
515.47	31569.15
515.64	32231.52
515.81	31503.61
515.99	31487.23
516.16	31641.70
516.33	31718.94
516.51	31969.38
516.68	31639.36
516.85	31828.95
517.03	31845.33
517.20	32245.56
517.37	32175.34
517.54	32479.61
517.72	32098.11
517.89	31730.64
518.06	32053.64
518.24	32205.77
518.41	32442.17
518.58	32549.83
518.75	32144.92
518.93	32507.70
519.10	32491.32
519.27	32886.87
519.45	32730.05
519.62	32931.34
519.79	33181.77
519.96	33418.17
520.14	33530.51
520.31	33029.64
520.48	33310.50
520.65	33359.66
520.83	33839.47
521.00	33614.77
521.17	33895.64
521.34	33422.85
521.52	33846.49
521.69	34005.64
521.86	33958.83
522.03	33888.62
522.20	34433.96
522.38	34670.36
522.55	34333.32
522.72	34129.69
522.89	34473.75
523.07	34480.77
523.24	34330.98
523.41	35005.05
523.58	34696.10
523.75	35138.46
523.92	35086.97
524.10	35122.08
524.27	34969.94
524.44	35152.51
524.61	35145.48
524.78	35246.13
524.96	35283.58
525.13	35318.68
525.30	35468.48
525.47	35372.52
525.64	35391.24
525.81	35395.92
525.98	35075.27
526.16	35208.68
526.33	35314.00
526.50	35442.73
526.67	35555.08
526.84	35655.72
527.01	35014.41
527.18	36027.87
527.36	36163.62
527.53	35971.69
527.70	36500.65
527.87	36102.76
528.04	36137.87
528.21	36149.57
528.38	36533.42
528.55	36491.29
528.72	36325.11
528.89	36666.83
529.07	36261.92
529.24	36692.58
529.41	36409.37
529.58	36680.88
529.75	36315.75
529.92	36486.61
530.09	36730.03
530.26	36748.75
530.43	36774.50
530.60	36971.10
530.77	36627.04
530.94	37001.53
531.11	37127.92
531.28	37102.17
531.46	37209.84
531.63	37411.12
531.80	37366.65
531.97	37081.11
532.14	37296.44
532.31	37160.69
532.48	37619.43
532.65	37322.18
532.82	37944.76
532.99	37376.01
533.16	37378.36
533.33	37766.88
533.50	37968.17
533.67	37771.57
533.84	37682.62
534.01	38057.11
534.18	37738.80
534.35	38155.41
534.52	38031.36
534.69	38520.54
534.86	38260.74
535.03	38342.66
535.20	38506.49
535.37	38754.59
535.54	38588.41
535.71	38242.01
535.88	38766.29
536.05	38586.07
536.22	38466.70
536.38	38349.68
536.55	38712.46
536.72	38684.37
536.89	38473.73
537.06	38366.06
537.23	38990.98
537.40	38857.57
537.57	38438.62
537.74	38951.20
537.91	38796.72
538.08	39276.53
538.25	38621.18
538.42	38941.83
538.59	39386.54
538.75	38780.34
538.92	39255.46
539.09	39491.86
539.26	38909.07
539.43	39222.70
539.60	39152.48
539.77	39306.96
539.94	39515.26
540.11	39597.18
540.28	39452.07
540.44	39819.53
540.61	39353.77
540.78	39564.42
540.95	39545.69
541.12	39470.79
541.29	39800.81
541.46	39927.20
541.62	39854.64
541.79	39604.20
541.96	39594.84
542.13	40172.96
542.30	40002.10
542.47	40076.99
542.63	39688.46
542.80	40374.24
542.97	40196.36
543.14	41170.02
543.31	40322.75
543.48	40521.69
543.64	40900.86
543.81	40781.49
543.98	40992.14
544.15	40725.32
544.32	40896.18
544.48	41198.11
544.65	41010.87
544.82	40561.48
544.99	40488.93
545.16	40966.40
545.32	41123.21
545.49	41598.34
545.66	41235.56
545.83	41191.09
546.00	41207.47
546.16	41350.24
546.33	41111.51
546.50	40680.85
546.67	41413.44
546.83	40924.27
547.00	41251.94
547.17	41216.83
547.34	41237.90
547.50	41244.92
547.67	41624.09
547.84	41326.84
548.00	42054.75
548.17	41610.04
548.34	41546.85
548.51	42209.22
548.67	41888.57
548.84	41497.70
549.01	41715.37
549.18	41448.55
549.34	41764.52
549.51	41993.89
549.68	41596.00
549.84	41525.78
550.01	41783.24
550.18	41961.12
550.34	41937.72
550.51	41771.54
550.68	41911.97
550.84	41598.34
551.01	42398.80
551.18	41858.14
551.34	42134.32
551.51	41860.48
551.68	42141.35
551.84	42103.90
552.01	41991.55
552.18	42050.06
552.34	42274.76
552.51	42415.19
552.68	42094.53
552.84	42607.11
553.01	42429.23
553.18	42497.11
553.34	42183.48
553.51	42291.14
553.67	42415.19
553.84	43086.92
554.01	42518.17
554.17	42607.11
554.34	42801.38
554.51	43056.50
554.67	42813.08
554.84	42429.23
555.00	42497.11
555.17	42871.59
555.33	42515.83
555.50	42792.01
555.67	42337.95
555.83	42703.07
556.00	43070.54
556.16	43171.18
556.33	43161.82
556.50	42513.49
556.66	43271.82
556.83	42485.40
556.99	43255.44
557.16	43398.21
557.32	43239.06
557.49	42892.66
557.65	42731.16
557.82	42981.60
557.98	43208.63
558.15	43264.80
558.32	43859.30
558.48	43597.16
558.65	43058.84
558.81	43519.92
558.98	42824.78
559.14	43379.49
559.31	43522.26
559.47	43522.26
559.64	43910.79
559.80	43597.16
559.97	43367.79
560.13	43255.44
560.30	42918.40
560.46	43002.66
560.63	43702.48
560.79	43571.41
560.96	44051.22
561.12	43473.11
561.29	43482.47
561.45	43398.21
561.61	44009.09
561.78	43473.11
561.94	43695.46
562.11	43885.04
562.27	43496.52
562.44	43414.60
562.60	43714.19
562.77	43676.74
562.93	43594.82
563.10	43854.62
563.26	43571.41
563.42	43803.13
563.59	43650.99
563.75	43812.49
563.92	43779.72
564.08	43859.30
564.24	43819.51
564.41	43669.72
564.57	44072.29
564.74	43831.21
564.90	43725.89
565.07	43920.15
565.23	44023.14
565.39	43658.01
565.56	44219.74
565.72	43679.08
565.88	44058.24
566.05	44086.33
566.21	44264.21
566.38	44521.67
566.54	43969.30
566.70	44198.68
566.87	44402.30
567.03	44032.50
567.19	44762.75
567.36	44128.46
567.52	43973.98
567.68	44212.72
567.85	43854.62
568.01	44428.05
568.17	44236.12
568.34	43833.55
568.50	43716.53
568.66	43971.64
568.83	44034.84
568.99	43580.78
569.15	43817.17
569.32	43828.87
569.48	43821.85
569.64	44224.42
569.81	44325.07
569.97	44264.21
570.13	44116.76
570.30	44165.91
570.46	43945.90
570.62	43995.05
570.78	43817.17
570.95	44109.74
571.11	44280.60
571.27	44360.17
571.43	43817.17
571.60	44605.93
571.76	43887.39
571.92	43999.73
572.09	44315.70
572.25	44072.29
572.41	44268.89
572.57	44308.68
572.74	44732.32
572.90	44194.00
573.06	44126.12
573.22	44329.75
573.38	44711.25
573.55	44355.49
573.71	44250.17
573.87	44580.18
574.03	44591.89
574.20	44402.30
574.36	44086.33
574.52	44552.10
574.68	44690.19
574.84	44172.93
575.01	43903.77
575.17	44556.78
575.33	43962.28
575.49	44130.80
575.65	45008.50
575.82	44776.79
575.98	44135.48
576.14	44449.11
576.30	44463.16
576.46	44217.40
576.62	44474.86
576.79	44900.84
576.95	44165.91
577.11	44774.45
577.27	44435.07
577.43	44868.07
577.59	44657.42
577.75	44502.95
577.92	44154.21
578.08	44212.72
578.24	44224.42
578.40	44208.04
578.56	44547.42
578.72	44287.62
578.88	44797.85
579.04	44648.06
579.21	44439.75
579.37	44182.29
579.53	44516.99
579.69	43959.94
579.85	44926.58
580.01	44896.16
580.17	44559.12
580.33	44542.74
580.49	44601.25
580.65	44608.27
580.82	44442.09
580.98	44645.72
581.14	44374.22
581.30	44687.85
581.46	44891.48
581.62	44964.03
581.78	44790.83
581.94	44856.37
582.10	44271.23
582.26	44940.63
582.42	44531.03
582.58	44868.07
582.74	44465.50
582.90	44779.13
583.06	44601.25
583.22	44980.42
583.38	44856.37
583.54	44776.79
583.70	45198.09
583.86	44652.74
584.02	44418.69
584.18	44751.04
584.34	44615.29
584.50	44516.99
584.66	44397.62
584.82	44076.97
584.98	44978.07
585.14	44802.53
585.30	44687.85
585.46	44849.35
585.62	44603.59
585.78	44268.89
585.94	43903.77
586.10	44418.69
586.26	44832.96
586.42	44917.22
586.58	45050.63
586.74	44430.39
586.90	44531.03
587.06	44498.26
587.22	44484.22
587.38	44088.67
587.54	44573.16
587.70	44713.59
587.86	44870.41
588.02	44563.80
588.18	45038.93
588.34	44350.81
588.49	44589.55
588.65	43936.54
588.81	44587.21
588.97	44636.36
589.13	44545.08
589.29	44645.72
589.45	44538.05
589.61	44615.29
589.77	44933.60
589.93	44722.96
590.08	45048.29
590.24	44919.56
590.40	44957.01
590.56	45212.13
590.72	45102.12
590.88	44954.67
591.04	44697.21
591.20	45155.96
591.35	45317.45
591.51	45223.83
591.67	44910.20
591.83	45045.95
591.99	44938.29
592.15	44526.35
592.31	44968.71
592.46	44554.44
592.62	44774.45
592.78	45064.67
592.94	44966.37
593.10	44797.85
593.26	45057.65
593.41	44634.02
593.57	44994.46
593.73	45354.90
593.89	44889.13
594.05	44636.36
594.20	45015.52
594.36	44893.82
594.52	44928.92
594.68	44800.19
594.84	45031.91
594.99	45120.85
595.15	45076.38
595.31	45240.21
595.47	44811.90
595.62	45177.02
595.78	44765.09
595.94	45031.91
596.10	44973.39
596.25	45102.12
596.41	45654.49
596.57	45010.84
596.73	44971.05
596.88	44837.64
597.04	44774.45
597.20	45558.53
597.36	45102.12
597.51	45261.28
597.67	45338.52
597.83	45153.62
597.99	45352.56
598.14	45233.19
598.30	45029.57
598.46	45123.19
598.61	44954.67
598.77	44816.58
598.93	44699.55
599.09	45223.83
599.24	45640.45
599.40	45539.80
599.56	45010.84
599.71	45020.20
599.87	45106.80
600.03	44910.20
600.18	45125.53
600.34	44844.66
600.50	45113.83
600.65	44954.67
600.81	44973.39
600.97	44781.47
601.12	45195.74
601.28	45392.35
601.44	44708.91
601.59	45102.12
601.75	44484.22
601.91	45085.74
602.06	44720.62
602.22	45095.10
602.37	44701.89
602.53	45048.29
602.69	45710.66
602.84	44711.25
603.00	44942.97
603.16	45088.08
603.31	44758.06
603.47	44985.10
603.62	44959.35
603.78	45010.84
603.94	44961.69
604.09	45333.84
604.25	45518.74
604.40	45556.19
604.56	44858.71
604.71	45322.13
604.87	44463.16
605.03	44856.37
605.18	44795.51
605.34	44737.00
605.49	44596.57
605.65	44942.97
605.80	44694.87
605.96	44502.95
606.12	44715.93
606.27	44732.32
606.43	44828.28
606.58	44680.83
606.74	45104.46
606.89	44678.49
607.05	44793.17
607.20	44865.73
607.36	44992.12
607.51	45240.21
607.67	45165.32
607.82	45102.12
607.98	44830.62
608.13	44662.10
608.29	44615.29
608.44	44341.45
608.60	44538.05
608.75	44793.17
608.91	44406.98
609.06	44444.43
609.22	45027.23
609.37	44430.39
609.53	44662.10
609.68	44467.84
609.84	44088.67
609.99	44694.87
610.15	44428.05
610.30	44357.83
610.46	44041.86
610.61	44524.01
610.76	44514.65
610.92	44772.11
611.07	44098.03
611.23	44594.23
611.38	44629.34
611.54	44346.13
611.69	44083.99
611.84	44039.52
612.00	44371.88
612.15	43805.47
612.31	44081.65
612.46	43955.26
612.62	44598.91
612.77	44622.31
612.92	45067.02
613.08	43826.53
613.23	44414.01
613.39	44205.70
613.54	43784.40
613.69	44179.95
613.85	44076.97
614.00	44016.11
614.15	44575.50
614.31	44123.78
614.46	44208.04
614.62	44055.90
614.77	44023.14
614.92	44009.09
615.08	43779.72
615.23	43679.08
615.38	43758.66
615.54	43910.79
615.69	43477.79
615.84	43587.80
616.00	44226.76
616.15	43964.62
616.30	43557.37
616.46	43358.42
616.61	43377.15
616.76	43885.04
616.92	43335.02
617.07	43248.42
617.22	43459.07
617.37	43433.32
617.53	43945.90
617.68	43416.94
617.83	44102.71
617.99	43709.50
618.14	43646.31
618.29	43786.74
618.45	43100.97
618.60	43498.86
618.75	43796.10
618.90	43690.78
619.06	43398.21
619.21	43770.36
619.36	43543.33
619.51	43440.34
619.67	43320.98
619.82	43276.51
619.97	43243.74
620.12	43103.31
620.28	43225.01
620.43	43288.21
620.58	43206.29
620.73	43496.52
620.89	43269.48
621.04	43199.27
621.19	42820.10
621.34	43367.79
621.49	42958.19
621.65	43019.05
621.80	43175.86
621.95	42590.73
622.10	42948.83
622.25	42768.61
622.41	43044.79
622.56	42553.28
622.71	43288.21
622.86	42939.47
623.01	42733.50
623.16	42883.30
623.32	42616.47
623.47	42754.57
623.62	42127.30
623.77	42473.70
623.92	42731.16
624.07	42590.73
624.23	42408.17
624.38	42366.04
624.53	42103.90
624.68	42263.05
624.83	42347.31
624.98	42337.95
625.13	42251.35
625.29	42368.38
625.44	42447.96
625.59	42043.04
625.74	42106.24
625.89	41603.02
626.04	42075.81
626.19	42054.75
626.34	42134.32
626.49	42122.62
626.65	42728.82
626.80	42710.10
626.95	42120.28
627.10	41881.55
627.25	41853.46
627.40	42026.66
627.55	41563.23
627.70	41928.36
627.85	41628.77
628.00	41689.62
628.15	42021.98
628.30	41469.61
628.45	42005.59
628.60	41893.25
628.76	41769.20
628.91	41642.81
629.06	41326.84
629.21	41514.08
629.36	41673.24
629.51	41511.74
629.66	41240.24
629.81	41570.25
629.96	40996.82
630.11	41549.19
630.26	41514.08
630.41	41865.16
630.56	41390.03
630.71	41696.64
630.86	40975.76
631.01	41160.66
631.16	41338.54
631.31	41280.03
631.46	40790.86
631.61	41064.70
631.76	41184.07
631.91	41486.00
632.06	41237.90
632.21	41387.69
632.36	41333.86
632.51	40978.10
632.66	40875.12
632.81	40690.21
632.96	40762.77
633.10	40519.35
633.25	41043.63
633.40	41134.92
633.55	41120.87
633.70	40643.40
633.85	40411.69
634.00	40257.21
634.15	41277.69
634.30	40889.16
634.45	40875.12
634.60	40727.66
634.75	40463.18
634.90	40552.12
635.05	40460.84
635.19	39889.75
635.34	40552.12
635.49	40825.96
635.64	40662.13
635.79	40484.25
635.94	40397.65
636.09	40271.26
636.24	40748.73
636.39	40502.97
636.53	40416.37
636.68	40381.26
636.83	39807.83
636.98	40727.66
637.13	39936.56
637.28	40517.01
637.43	40456.16
637.57	40678.51
637.72	40023.16
637.87	39966.99
638.02	40327.43
638.17	40006.78
638.32	40076.99
638.46	40086.36
638.61	40025.50
638.76	39896.77
638.91	39966.99
639.06	39988.05
639.20	39833.58
639.35	40397.65
639.50	39800.81
639.65	40411.69
639.80	40158.91
639.94	39531.65
640.09	39728.25
640.24	39976.35
640.39	39154.82
640.54	39435.69
640.68	39571.44
640.83	39339.72
640.98	39239.08
641.13	38906.73
641.27	40088.70
641.42	39133.76
641.57	39330.36
641.72	39714.21
641.86	38892.68
642.01	38906.73
642.16	38904.38
642.31	38859.91
642.45	39393.56
642.60	38831.83
642.75	39049.50
642.90	39297.59
643.04	39374.83
643.19	39463.77
643.34	39150.14
643.48	38883.32
643.63	39250.78
643.78	38927.79
643.93	38766.29
644.07	38780.34
644.22	39339.72
644.37	38614.16
644.51	38583.73
644.66	38904.38
644.81	38972.26
644.95	38656.29
645.10	39058.86
645.25	39115.03
645.39	39147.80
645.54	38941.83
645.69	38677.35
645.83	38602.46
645.98	38712.46
646.13	38663.31
646.27	38752.25
646.42	38256.06
646.57	38925.45
646.71	38871.62
646.86	38778.00
647.00	38794.38
647.15	38539.26
647.30	38368.40
647.44	38302.87
647.59	38635.22
647.74	38314.57
647.88	38443.30
648.03	38314.57
648.17	38279.46
648.32	37972.85
648.47	38302.87
648.61	38408.19
648.76	38080.52
648.90	38499.47
649.05	38469.04
649.20	38373.08
649.34	38122.65
649.49	38073.49
649.63	37801.99
649.78	38033.71
649.92	38007.96
650.07	38096.90
650.21	37539.85
650.36	37991.58
650.51	37904.98
650.65	38490.11
650.80	38410.53
650.94	38160.09
651.09	38117.96
651.23	37902.64
651.38	37851.14
651.52	37741.14
651.67	38089.88
651.81	37846.46
651.96	37263.67
652.10	37483.68
652.25	37572.62
652.39	37785.61
652.54	37844.12
652.68	37958.81
652.83	37504.74
652.97	38043.07
653.12	38050.09
653.26	37244.94
653.41	37308.14
653.55	37553.90
653.70	37254.31
653.84	37453.25
653.99	37413.46
654.13	37301.12
654.27	37427.51
654.42	37226.22
654.56	37053.02
654.71	37324.52
654.85	37600.71
655.00	37160.69
655.14	37017.91
655.29	37062.38
655.43	37113.87
655.57	36793.22
655.72	37200.47
655.86	36680.88
656.01	36755.77
656.15	36851.73
656.30	36900.89
656.44	36947.70
656.58	37053.02
656.73	36730.03
656.87	37205.16
657.01	36753.43
657.16	36903.23
657.30	36407.03
657.45	36800.24
657.59	36481.93
657.73	36816.63
657.88	37010.89
658.02	36734.71
658.16	36760.45
658.31	36797.90
658.45	36418.74
658.60	36357.88
658.74	36292.35
658.88	36519.38
659.03	36566.19
659.17	36070.00
659.31	36273.62
659.46	35889.77
659.60	36521.72
659.74	36327.45
659.89	36334.48
660.03	36250.22
660.17	36217.45
660.32	36062.97
660.46	36268.94
660.60	36266.60
660.74	36039.57
660.89	36172.98
661.03	35461.46
661.17	36055.95
661.32	35597.21
661.46	35475.50
661.60	35601.89
661.74	35641.68
661.89	35594.87
662.03	35386.56
662.17	35349.11
662.31	35381.88
662.46	35061.22
662.60	35304.64
662.74	35416.99
662.88	35166.55
663.03	34799.08
663.17	34689.08
663.31	35009.73
663.45	34829.51
663.60	34897.39
663.74	35103.35
663.88	34934.84
664.02	35047.18
664.17	35026.12
664.31	34782.70
664.45	34639.93
664.59	34490.13
664.73	34352.04
664.88	34590.78
665.02	34520.56
665.16	34572.05
665.30	34321.62
665.44	33907.34
665.59	34043.09
665.73	34029.05
665.87	34129.69
666.01	34038.41
666.15	33825.42
666.29	33986.92
666.44	34040.75
666.58	33949.47
666.72	33914.36
666.86	33766.91
667.00	34071.18
667.14	33539.88
667.28	33642.86
667.43	33413.49
667.57	33642.86
667.71	33383.06
667.85	33380.72
667.99	33305.82
668.13	33266.03
668.27	33006.23
668.41	33432.21
668.56	33060.07
668.70	33394.76
668.84	33223.90
668.98	32919.63
669.12	32734.73
669.26	32388.33
669.40	32718.35
669.54	32617.71
669.68	32931.34
669.82	32449.19
669.96	32322.80
670.10	32538.13
670.25	32641.11
670.39	32304.07
670.53	32383.65
670.67	32301.73
670.81	32694.94
670.95	32671.54
671.09	32280.67
671.23	31978.74
671.37	32074.70
671.51	32299.39
671.65	32006.83
671.79	31559.78
671.93	31716.60
672.07	32079.38
672.21	32236.20
672.35	31587.87
672.49	31957.67
672.63	31782.13
672.77	31700.22
672.91	31608.93
673.05	31477.86
673.19	31447.44
673.33	31199.34
673.47	31477.86
673.61	30920.82
673.75	30775.70
673.89	30916.14
674.03	31023.80
674.17	30806.13
674.31	30965.29
674.45	31040.18
674.59	31021.46
674.73	31075.29
674.87	30651.66
675.01	30455.05
675.15	30773.36
675.29	30593.14
675.43	30408.24
675.56	30281.85
675.70	30038.44
675.84	30080.56
675.98	29308.19
676.12	29926.09
676.26	29944.81
676.40	29708.42
676.54	29645.23
676.68	29979.92
676.82	28844.76
676.96	29610.12
677.10	29589.05
677.23	29362.02
677.37	29123.29
677.51	28978.17
677.65	29153.71
677.79	28512.41
677.93	28994.56
678.07	28776.89
678.21	28332.18
678.34	28570.92
678.48	28325.16
678.62	28243.24
678.76	28051.32
678.90	28084.09
679.04	28119.20
679.18	27688.54
679.31	27695.56
679.45	27527.04
679.59	27487.25
679.73	27576.19
679.87	27674.49
680.00	27051.91
680.14	27094.04
680.28	27484.91
680.42	27285.97
680.56	27487.25
680.70	27337.46
680.83	27508.32
680.97	27288.31
681.11	27040.21
681.25	26789.77
681.39	26508.91
681.52	26628.27
681.66	26637.64
681.80	26574.44
681.94	26593.17
682.07	26672.74
682.21	26426.99
682.35	26019.74
682.49	26258.47
682.62	25951.86
682.76	26094.63
682.90	25853.56
683.04	25837.17
683.17	25579.71
683.31	25467.37
683.45	25862.92
683.59	25025.01
683.72	25268.42
683.86	25048.41
684.00	25200.55
684.13	25017.99
684.27	25015.65
684.41	24950.11
684.55	24807.34
684.68	24922.02
684.82	24601.37
684.96	24664.57
685.09	24561.58
685.23	24470.30
685.37	24641.16
685.50	24191.78
685.64	24013.90
685.78	24222.20
685.91	24058.37
686.05	23623.03
686.19	23805.59
686.32	23447.49
686.46	23384.29
686.60	23400.68
686.73	23285.99
686.87	23377.27
687.01	23190.03
687.14	23119.81
687.28	22995.76
687.42	22831.93
687.55	23119.81
687.69	23192.37
687.82	22602.55
687.96	22920.87
688.10	22551.06
688.23	22703.20
688.37	22216.36
688.50	22274.88
688.64	22087.64
688.78	21928.48
688.91	21631.23
689.05	22183.60
689.18	22092.32
689.32	21624.21
689.46	21935.50
689.59	21731.87
689.73	21680.38
689.86	21769.32
690.00	21502.50
690.13	21647.61
690.27	21460.37
690.41	21209.93
690.54	21156.10
690.68	21034.39
690.81	20865.88
690.95	20861.19
691.08	20957.16
691.22	20793.32
691.35	20746.51
691.49	20547.56
691.62	20697.36
691.76	20512.46
691.89	20643.52
692.03	20236.27
692.16	20168.40
692.30	20243.29
692.43	19875.83
692.57	19929.66
692.70	20032.65
692.84	19737.74
692.97	19812.63
693.11	19859.45
693.24	19557.52
693.38	19655.82
693.51	19510.71
693.65	19218.14
693.78	19644.12
693.92	19417.08
694.05	19398.36
694.19	19445.17
694.32	19145.58
694.45	18761.73
694.59	18717.26
694.72	18738.33
694.86	18663.43
694.99	18405.97
695.13	18394.27
695.26	18321.71
695.39	18551.09
695.53	18274.90
695.66	18246.82
695.80	18401.29
695.93	18148.51
696.07	17841.90
696.20	18312.35
696.33	17975.31
696.47	18125.11
696.60	17869.99
696.73	17886.37
696.87	17596.15
697.00	17734.24
697.14	17493.16
697.27	17331.67
697.40	17497.84
697.54	17460.40
697.67	17221.66
697.80	17324.65
697.94	16861.22
698.07	16952.50
698.21	16741.85
698.34	16926.75
698.47	16636.53
698.61	16435.24
698.74	16369.71
698.87	16058.42
699.01	16400.13
699.14	16217.57
699.27	16334.60
699.40	16210.55
699.54	15878.19
699.67	16044.37
699.80	15939.05
699.94	15756.49
700.07	16016.29
700.20	15817.34
700.34	15658.18
700.47	15761.17
700.60	15845.43
700.73	16173.10
700.87	15562.22
701.00	15410.09
701.13	15419.45
701.26	15257.95
701.40	15227.53
701.53	15096.46
701.66	14972.41
701.79	15424.13
701.93	14981.77
702.06	15075.39
702.19	14768.78
702.32	14787.50
702.46	14555.79
702.59	14572.18
702.72	14764.10
702.85	14626.01
702.99	14473.87
703.12	14410.68
703.25	14064.28
703.38	14279.61
703.51	13935.55
703.65	14094.71
703.78	14164.92
703.91	14059.60
704.04	14050.24
704.17	13961.30
704.31	13935.55
704.44	13694.47
704.57	13865.33
704.70	13685.11
704.83	13788.10
704.96	13514.25
705.10	13540.00
705.23	13568.09
>>>>>End Processed Spectral Data<<<<<
