SpectraSuite Data File
++++++++++++++++++++++++++++++++++++
Date: Fri Oct 25 10:47:53 EDT 2013
User: price-jones
Dark Spectrum Present: No
Reference Spectrum Present: No
Number of Sampled Component Spectra: 1
Spectrometers: USB2+H05261
Integration Time (usec): 100000 (USB2+H05261)
Spectra Averaged: 1 (USB2+H05261)
Boxcar Smoothing: 0 (USB2+H05261)
Correct for Electrical Dark: No (USB2+H05261)
Strobe/Lamp Enabled: No (USB2+H05261)
Correct for Detector Non-linearity: No (USB2+H05261)
Correct for Stray Light: No (USB2+H05261)
Number of Pixels in Processed Spectrum: 2048
>>>>>Begin Processed Spectral Data<<<<<
365.73	84.26
365.92	84.26
366.12	84.26
366.32	30.43
366.52	23.41
366.72	112.35
366.91	70.22
367.11	72.56
367.31	0.00
367.51	0.00
367.70	91.28
367.90	51.49
368.10	42.13
368.30	63.19
368.49	93.62
368.69	39.79
368.89	77.24
369.09	81.92
369.28	102.98
369.48	128.73
369.68	100.64
369.87	135.75
370.07	161.50
370.27	177.88
370.47	208.31
370.66	386.19
370.86	440.02
371.06	437.68
371.25	421.30
371.45	376.83
371.65	505.56
371.84	402.57
372.04	458.74
372.24	472.79
372.44	458.74
372.63	465.77
372.83	470.45
373.03	538.32
373.22	514.92
373.42	500.87
373.62	550.03
373.81	561.73
374.01	526.62
374.21	500.87
374.40	543.00
374.60	585.13
374.79	507.90
374.99	592.16
375.19	578.11
375.38	564.07
375.58	561.73
375.78	573.43
375.97	519.60
376.17	643.65
376.37	568.75
376.56	545.34
376.76	571.09
376.95	634.29
377.15	627.26
377.35	594.50
377.54	615.56
377.74	648.33
377.93	613.22
378.13	603.86
378.33	624.92
378.52	599.18
378.72	667.05
378.91	622.58
379.11	578.11
379.31	571.09
379.50	613.22
379.70	711.52
379.89	699.82
380.09	594.50
380.28	596.84
380.48	671.73
380.68	641.31
380.87	645.99
381.07	603.86
381.26	674.07
381.46	610.88
381.65	674.07
381.85	641.31
382.04	713.86
382.24	669.39
382.43	674.07
382.63	608.54
382.83	709.18
383.02	744.29
383.22	784.08
383.41	624.92
383.61	709.18
383.80	718.54
384.00	645.99
384.19	758.33
384.39	784.08
384.58	713.86
384.78	786.42
384.97	734.93
385.17	753.65
385.36	725.57
385.56	671.73
385.75	751.31
385.95	809.83
386.14	788.76
386.34	823.87
386.53	809.83
386.72	814.51
386.92	791.10
387.11	851.96
387.31	793.44
387.50	763.01
387.70	786.42
387.89	889.40
388.09	858.98
388.28	744.29
388.48	809.83
388.67	887.06
388.86	807.48
389.06	809.83
389.25	882.38
389.45	954.94
389.64	830.89
389.84	936.21
390.03	943.24
390.22	912.81
390.42	973.66
390.61	959.62
390.81	1036.86
391.00	1006.43
391.19	999.41
391.39	964.30
391.58	976.00
391.78	992.39
391.97	1041.54
392.16	931.53
392.36	1027.50
392.55	1064.94
392.75	1025.15
392.94	1006.43
393.13	1004.09
393.33	1020.47
393.52	887.06
393.71	992.39
393.91	1086.01
394.10	994.73
394.29	1093.03
394.49	1050.90
394.68	1076.65
394.88	1086.01
395.07	1128.14
395.26	1132.82
395.46	1135.16
395.65	1146.86
395.84	1114.10
396.04	1160.91
396.23	1090.69
396.42	1123.46
396.62	1198.35
396.81	1186.65
397.00	1172.61
397.19	1224.10
397.39	1196.01
397.58	1245.16
397.77	1226.44
397.97	1233.46
398.16	1336.45
398.35	1228.78
398.55	1242.82
398.74	1303.68
398.93	1338.79
399.12	1320.06
399.32	1310.70
399.51	1385.60
399.70	1434.75
399.90	1289.64
400.09	1378.58
400.28	1387.94
400.47	1448.79
400.67	1533.05
400.86	1376.24
401.05	1411.34
401.24	1397.30
401.44	1551.78
401.63	1561.14
401.82	1636.03
402.01	1565.82
402.21	1554.12
402.40	1495.60
402.59	1514.33
402.78	1575.18
402.97	1614.97
403.17	1582.20
403.36	1607.95
403.55	1647.74
403.74	1664.12
403.93	1603.27
404.13	1619.65
404.32	1561.14
404.51	1621.99
404.70	1685.19
404.89	1703.91
405.09	1790.51
405.28	1907.54
405.47	1734.34
405.66	1717.95
405.85	1729.66
406.05	1729.66
406.24	1703.91
406.43	1708.59
406.62	1842.00
406.81	1860.73
407.00	1921.58
407.20	1813.92
407.39	1914.56
407.58	1935.62
407.77	1856.04
407.96	1900.52
408.15	1954.35
408.34	1956.69
408.54	1968.39
408.73	1952.01
408.92	2031.58
409.11	2050.31
409.30	1975.41
409.49	1975.41
409.68	2059.67
409.87	2026.90
410.07	2195.42
410.26	2101.80
410.45	2090.10
410.64	2073.71
410.83	2193.08
411.02	2223.51
411.21	2218.83
411.40	2317.13
411.59	2244.57
411.78	2174.36
411.98	2331.17
412.17	2392.03
412.36	2370.96
412.55	2303.09
412.74	2394.37
412.93	2480.97
413.12	2480.97
413.31	2497.35
413.50	2546.50
413.69	2492.67
413.88	2462.24
414.07	2532.46
414.26	2478.63
414.45	2619.06
414.64	2649.49
414.83	2532.46
415.02	2684.59
415.22	2658.85
415.41	2785.24
415.60	2822.69
415.79	2885.88
415.98	2841.41
416.17	2801.62
416.36	2869.50
416.55	2803.96
416.74	2815.66
416.93	2885.88
417.12	2993.55
417.31	2850.77
417.50	2953.76
417.69	3007.59
417.88	3040.36
418.07	3061.42
418.26	3059.08
418.45	3009.93
418.64	3105.89
418.83	3155.04
419.02	3178.45
419.21	3211.22
419.39	3311.86
419.58	3082.49
419.77	3199.51
419.96	3302.50
420.15	3290.79
420.34	3260.37
420.53	3365.69
420.72	3454.63
420.91	3438.25
421.10	3386.76
421.29	3456.97
421.48	3461.65
421.67	3463.99
421.86	3328.24
422.05	3440.59
422.24	3384.41
422.43	3435.91
422.61	3529.53
422.80	3517.83
422.99	3501.44
423.18	3574.00
423.37	3543.57
423.56	3489.74
423.75	3513.14
423.94	3461.65
424.13	3180.79
424.32	3239.30
424.50	3522.51
424.69	3618.47
424.88	3524.85
425.07	3524.85
425.26	3473.36
425.45	3508.46
425.64	3562.30
425.83	3747.20
426.01	3662.94
426.20	3520.17
426.39	3611.45
426.58	3667.62
426.77	3538.89
426.96	3616.13
427.15	3721.45
427.33	3641.87
427.52	3716.77
427.71	3716.77
427.90	3716.77
428.09	3758.90
428.28	3702.73
428.46	3742.52
428.65	3730.81
428.84	3836.14
429.03	3772.94
429.22	3894.65
429.40	3829.12
429.59	3803.37
429.78	3756.56
429.97	3627.83
430.16	3726.13
430.34	3946.14
430.53	3906.35
430.72	3768.26
430.91	4056.15
431.10	3971.89
431.28	4030.40
431.47	4102.96
431.66	4170.83
431.85	3999.98
432.03	4219.99
432.22	4177.86
432.41	4124.02
432.60	4248.07
432.79	4191.90
432.97	4278.50
433.16	4205.94
433.35	4311.27
433.54	4196.58
433.72	4273.82
433.91	4135.73
434.10	4486.81
434.28	4437.66
434.47	4381.48
434.66	4409.57
434.85	4589.79
435.03	4472.76
435.22	4400.21
435.41	4613.20
435.59	4482.13
435.78	4631.92
435.97	4641.28
436.16	4521.92
436.34	4484.47
436.53	4596.81
436.72	4648.30
436.90	4594.47
437.09	4657.67
437.28	4566.39
437.46	4713.84
437.65	4545.32
437.84	4615.54
438.02	4748.95
438.21	4760.65
438.40	4704.48
438.58	4980.66
438.77	4877.68
438.96	4952.57
439.14	5041.51
439.33	5011.09
439.52	5053.22
439.70	5057.90
439.89	5081.30
440.08	5015.77
440.26	5296.63
440.45	5158.54
440.63	5139.82
440.82	5320.04
441.01	5366.85
441.19	5387.91
441.38	5331.74
441.57	5476.85
441.75	5472.17
441.94	5647.71
442.12	5671.12
442.31	5731.97
442.50	5628.99
442.68	5724.95
442.87	5675.80
443.05	5720.27
443.24	5844.32
443.43	5949.64
443.61	5982.41
443.80	5884.11
443.98	5776.44
444.17	5483.88
444.35	5589.20
444.54	5959.00
444.73	5757.72
444.91	5837.30
445.10	5748.36
445.28	5708.57
445.47	5720.27
445.65	5760.06
445.84	5720.27
446.02	6010.50
446.21	5853.68
446.39	5900.49
446.58	5966.03
446.77	5961.34
446.95	5792.83
447.14	5900.49
447.32	6136.88
447.51	5966.03
447.69	6024.54
447.88	5987.09
448.06	5923.90
448.25	6017.52
448.43	6043.26
448.62	5921.56
448.80	5951.98
448.99	6061.99
449.17	6146.25
449.36	6036.24
449.54	6258.59
449.73	6260.93
449.91	6244.55
450.10	6326.47
450.28	6502.01
450.46	6195.40
450.65	6296.04
450.83	6370.94
451.02	6445.84
451.20	6396.68
451.39	6370.94
451.57	6448.18
451.76	6483.28
451.94	6574.56
452.13	6527.75
452.31	6471.58
452.49	6368.60
452.68	6424.77
452.86	6450.52
453.05	6518.39
453.23	6829.68
453.42	6565.20
453.60	6588.61
453.78	6658.82
453.97	6637.76
454.15	6661.16
454.34	6771.17
454.52	6876.49
454.70	6820.32
454.89	6949.05
455.07	6590.95
455.26	6881.18
455.44	7023.95
455.62	6817.98
455.81	6909.26
455.99	7073.10
456.17	7009.90
456.36	6960.75
456.54	7112.89
456.73	7150.34
456.91	7407.80
457.09	7300.13
457.28	7599.72
457.46	7126.93
457.64	7241.62
457.83	7316.51
458.01	7098.84
458.19	7573.97
458.38	7201.83
458.56	7499.08
458.74	7335.24
458.93	7421.84
459.11	7527.16
459.29	7447.58
459.48	7534.18
459.66	7485.03
459.84	7541.21
460.03	7501.42
460.21	7611.42
460.39	7676.96
460.57	7606.74
460.76	7662.91
460.94	7754.19
461.12	7803.35
461.31	7864.20
461.49	7819.73
461.67	7716.75
461.85	7999.95
462.04	7651.21
462.22	8285.50
462.40	7971.86
462.59	7941.44
462.77	8056.12
462.95	7903.99
463.13	8105.28
463.32	7950.80
463.50	8105.28
463.68	8002.29
463.86	8081.87
464.05	7805.69
464.23	7967.18
464.41	8208.26
464.59	8009.31
464.78	8301.88
464.96	8341.67
465.14	8238.69
465.32	8128.68
465.50	8264.43
465.69	8383.80
465.87	8318.26
466.05	8355.71
466.23	8325.29
466.41	8297.20
466.60	8676.37
466.78	8168.47
466.96	8465.72
467.14	8180.17
467.32	8650.62
467.51	8589.77
467.69	8187.19
467.87	8681.05
468.05	8585.08
468.23	8641.26
468.41	8683.39
468.60	8781.69
468.78	8713.81
468.96	8585.08
469.14	8676.37
469.32	8650.62
469.50	8734.88
469.69	8910.42
469.87	8961.91
470.05	8887.01
470.23	8952.55
470.41	8800.41
470.59	9074.26
470.77	8994.68
470.95	9039.15
471.14	9151.49
471.32	9085.96
471.50	9231.07
471.68	9198.31
471.86	9490.87
472.04	9315.33
472.22	9490.87
472.40	9420.66
472.58	9275.54
472.77	9533.00
472.95	9568.11
473.13	9820.89
473.31	9495.55
473.49	9490.87
473.67	9652.37
473.85	9870.04
474.03	9930.89
474.21	9830.25
474.39	9930.89
474.57	10057.28
474.75	10026.86
474.93	10139.20
475.12	10160.27
475.30	10139.20
475.48	10099.41
475.66	10490.28
475.84	10373.25
476.02	10619.01
476.20	10289.00
476.38	10565.18
476.56	10740.72
476.74	10537.09
476.92	10714.97
477.10	10857.75
477.28	10785.19
477.46	10927.96
477.64	10944.34
477.82	11309.47
478.00	11260.32
478.18	11396.07
478.36	11311.81
478.54	11440.54
478.72	11609.06
478.90	11667.57
479.08	11810.34
479.26	11955.46
479.44	11971.84
479.62	11922.69
479.80	12126.32
479.98	12128.66
480.16	12276.11
480.34	12217.60
480.52	12322.92
480.70	12196.53
480.88	12269.09
481.06	12507.82
481.24	12585.06
481.41	13001.68
481.59	13132.75
481.77	13099.98
481.95	12940.82
482.13	13217.01
482.31	13226.37
482.49	13483.83
482.67	13408.93
482.85	13575.11
483.03	13830.23
483.21	13879.38
483.39	14015.13
483.57	14104.07
483.74	14122.79
483.92	14260.88
484.10	14202.37
484.28	14384.93
484.46	14951.34
484.64	15059.01
484.82	14525.36
485.00	14834.32
485.18	15215.82
485.35	14925.60
485.53	14981.77
485.71	15105.82
485.89	15276.68
486.07	15262.63
486.25	15274.34
486.43	15417.11
486.61	15679.25
486.78	15929.69
486.96	15747.12
487.14	16329.92
487.32	16280.77
487.50	16594.40
487.68	16704.40
487.85	16898.67
488.03	16779.30
488.21	17317.62
488.39	17090.59
488.57	17053.14
488.75	17329.33
488.92	17589.13
489.10	17561.04
489.28	17577.42
489.46	18094.68
489.64	17958.93
489.81	18431.72
489.99	18356.82
490.17	18445.76
490.35	18405.97
490.53	18485.55
490.70	18934.93
490.88	19154.94
491.06	19267.29
491.24	19061.32
491.41	18864.72
491.59	19297.72
491.77	18890.46
491.95	19625.39
492.13	19543.47
492.30	19875.83
492.48	19836.04
492.66	19939.02
492.84	19796.25
493.01	19976.47
493.19	20236.27
493.37	20688.00
493.54	20601.40
493.72	20540.54
493.90	20769.91
494.08	20982.90
494.25	21146.74
494.43	21104.61
494.61	21652.30
494.79	21376.11
494.96	21458.03
495.14	21364.41
495.32	21561.02
495.49	22057.21
495.67	21846.56
495.85	22218.71
496.02	22265.52
496.20	22221.05
496.38	22410.63
496.55	22703.20
496.73	23194.71
496.91	22759.37
497.09	22721.92
497.26	22834.27
497.44	22581.49
497.62	22932.57
497.79	23330.46
497.97	23538.77
498.14	23606.64
498.32	23604.30
498.50	23761.12
498.67	23826.65
498.85	24357.96
499.03	24175.39
499.20	24212.84
499.38	24264.33
499.56	24343.91
499.73	24376.68
499.91	24453.92
500.08	24819.04
500.26	24407.11
500.44	24580.31
500.61	24624.78
500.79	24915.00
500.97	25027.35
501.14	25411.20
501.32	25366.73
501.49	25221.61
501.67	25500.14
501.84	25390.13
502.02	25579.71
502.20	25390.13
502.37	25619.50
502.55	25762.28
502.72	25851.22
502.90	25781.00
503.07	25841.85
503.25	26181.23
503.43	26199.96
503.60	26515.93
503.78	26338.05
503.95	26075.91
504.13	26316.98
504.30	26391.88
504.48	26436.35
504.65	26764.03
504.83	26518.27
505.01	26848.29
505.18	26965.31
505.36	27108.08
505.53	27012.12
505.71	27555.13
505.88	27466.19
506.06	27190.00
506.23	27557.47
506.41	27372.57
506.58	27620.66
506.76	27564.49
506.93	27894.50
507.11	27796.20
507.28	28109.83
507.46	27960.04
507.63	28088.77
507.81	27878.12
507.98	28451.55
508.16	28072.39
508.33	28189.41
508.50	28678.58
508.68	28409.42
508.85	28570.92
509.03	29149.03
509.20	28788.59
509.38	29099.88
509.55	28971.15
509.73	28971.15
509.90	29195.84
510.08	28849.44
510.25	29120.95
510.42	29357.34
510.60	29694.38
510.77	29427.56
510.95	29600.76
511.12	29432.24
511.30	29560.97
511.47	29841.83
511.64	30005.67
511.82	30103.97
511.99	29724.80
512.17	30511.22
512.34	29954.18
512.51	30267.81
512.69	30553.35
512.86	30710.17
513.04	30726.55
513.21	30375.47
513.38	30820.17
513.56	30703.15
513.73	30686.76
513.90	30960.61
514.08	30583.78
514.25	30799.11
514.43	31173.60
514.60	31033.16
514.77	31145.51
514.95	31374.88
515.12	31129.12
515.29	31660.43
515.47	31810.22
515.64	31702.56
515.81	31402.97
515.99	31459.14
516.16	31529.36
516.33	31709.58
516.51	31702.56
516.68	31510.63
516.85	31409.99
517.03	31857.03
517.20	31716.60
517.37	31751.71
517.54	32273.65
517.72	32208.11
517.89	32425.78
518.06	32648.13
518.24	32243.22
518.41	32407.06
518.58	32254.92
518.75	32357.91
518.93	32503.02
519.10	32891.55
519.27	32657.49
519.45	32842.40
519.62	33127.94
519.79	33130.28
519.96	33088.15
520.14	33593.71
520.31	33170.07
520.48	33553.92
520.65	33720.10
520.83	33333.91
521.00	34078.20
521.17	33495.41
521.34	33432.21
521.52	34176.50
521.69	34153.10
521.86	33879.25
522.03	34464.39
522.20	34188.21
522.38	34312.25
522.55	34663.33
522.72	33975.22
522.89	34431.62
523.07	34110.97
523.24	33914.36
523.41	34567.37
523.58	34579.07
523.75	34876.32
523.92	34258.42
524.10	34794.40
524.27	34733.55
524.44	34738.23
524.61	34960.58
524.78	35175.91
524.96	35688.49
525.13	35384.22
525.30	35407.62
525.47	35505.93
525.64	35552.74
525.81	35306.98
525.98	35683.81
526.16	35484.86
526.33	35136.12
526.50	35580.82
526.67	35550.40
526.84	35849.99
527.01	35447.41
527.18	35824.24
527.36	35906.16
527.53	36128.51
527.70	36444.48
527.87	35999.78
528.04	36062.97
528.21	36062.97
528.38	36275.96
528.55	36301.71
528.72	36151.91
528.89	36847.05
529.07	36573.21
529.24	36500.65
529.41	36758.11
529.58	36807.26
529.75	36624.70
529.92	36821.31
530.09	36664.49
530.26	36800.24
530.43	36683.22
530.60	36952.38
530.77	36725.35
530.94	37390.06
531.11	37074.09
531.28	37031.96
531.46	36973.44
531.63	37570.28
531.80	37296.44
531.97	37184.09
532.14	37188.77
532.31	37345.59
532.48	37694.33
532.65	37991.58
532.82	37605.39
532.99	38000.94
533.16	37696.67
533.33	38012.64
533.50	38019.66
533.67	37729.44
533.84	38000.94
534.01	37809.01
534.18	38038.39
534.35	38349.68
534.52	38139.03
534.69	38607.14
534.86	38405.85
535.03	37893.27
535.20	38366.06
535.37	38356.70
535.54	38401.17
535.71	37944.76
535.88	38230.31
536.05	38471.39
536.22	38553.30
536.38	38609.48
536.55	38794.38
536.72	38377.76
536.89	38543.94
537.06	39002.69
537.23	38876.30
537.40	38726.50
537.57	38948.85
537.74	39051.84
537.91	39246.10
538.08	39220.36
538.25	39049.50
538.42	38969.92
538.59	39283.55
538.75	39005.03
538.92	39082.27
539.09	39285.89
539.26	39196.95
539.43	38965.24
539.60	39323.34
539.77	39339.72
539.94	39447.39
540.11	39466.11
540.28	39412.28
540.44	39239.08
540.61	39805.49
540.78	39325.68
540.95	39339.72
541.12	39321.00
541.29	39632.29
541.46	39742.30
541.62	39903.79
541.79	39772.72
541.96	39784.43
542.13	39821.87
542.30	40247.85
542.47	40079.33
542.63	40133.17
542.80	39873.37
542.97	40428.07
543.14	40711.28
543.31	40407.01
543.48	40751.07
543.64	40849.37
543.81	40879.80
543.98	40467.86
544.15	40629.36
544.32	40711.28
544.48	40811.92
544.65	40889.16
544.82	40458.50
544.99	40521.69
545.16	41088.10
545.32	41207.47
545.49	41029.59
545.66	41174.70
545.83	41137.26
546.00	41230.88
546.16	41214.49
546.33	40879.80
546.50	40957.03
546.67	41006.19
546.83	40804.90
547.00	40818.94
547.17	41144.28
547.34	40959.38
547.50	41450.89
547.67	41500.04
547.84	41612.38
548.00	41727.07
548.17	41661.54
548.34	41453.23
548.51	41708.35
548.67	41858.14
548.84	41769.20
549.01	41581.96
549.18	41439.18
549.34	42000.91
549.51	42010.28
549.68	41780.90
549.84	42316.89
550.01	42050.06
550.18	41670.90
550.34	41860.48
550.51	41900.27
550.68	41986.87
550.84	41794.95
551.01	42234.97
551.18	42082.83
551.34	41923.68
551.51	42635.20
551.68	42466.68
551.84	42506.47
552.01	41979.85
552.18	41958.78
552.34	41844.10
552.51	42384.76
552.68	41785.58
552.84	42476.04
553.01	43040.11
553.18	42492.43
553.34	42527.53
553.51	42136.66
553.67	42813.08
553.84	42824.78
554.01	42997.98
554.17	42831.80
554.34	43299.91
554.51	42923.08
554.67	42974.58
554.84	42740.52
555.00	42572.00
555.17	42569.66
555.33	42827.12
555.50	42850.53
555.67	42845.85
555.83	42717.12
556.00	42672.65
556.16	43363.11
556.33	42983.94
556.50	42873.93
556.66	43292.89
556.83	43187.56
556.99	43033.09
557.16	43290.55
557.32	43428.64
557.49	43227.35
557.65	42962.87
557.82	43208.63
557.98	43063.52
558.15	43180.54
558.32	43370.13
558.48	43292.89
558.65	43400.55
558.81	43082.24
558.98	43615.88
559.14	43182.88
559.31	43072.88
559.47	43393.53
559.64	43648.65
559.80	43842.92
559.97	43372.47
560.13	43746.95
560.30	43023.73
560.46	43332.68
560.63	43531.62
560.79	43489.49
560.96	44289.96
561.12	43821.85
561.29	43791.42
561.45	43697.80
561.61	43768.02
561.78	43096.28
561.94	43540.99
562.11	43676.74
562.27	43548.01
562.44	43920.15
562.60	43807.81
562.77	43873.34
562.93	44091.01
563.10	43969.30
563.26	43758.66
563.42	44009.09
563.59	43498.86
563.75	43917.81
563.92	44205.70
564.08	44027.82
564.24	44439.75
564.41	44023.14
564.57	43863.98
564.74	43924.83
564.90	44294.64
565.07	43917.81
565.23	44105.06
565.39	44156.55
565.56	44306.34
565.72	43992.71
565.88	43856.96
566.05	43934.20
566.21	44079.31
566.38	43536.30
566.54	43796.10
566.70	44100.37
566.87	44444.43
567.03	44259.53
567.19	44364.85
567.36	44289.96
567.52	44229.10
567.68	44385.92
567.85	44032.50
568.01	44186.97
568.17	44172.93
568.34	44526.35
568.50	44020.80
568.66	44039.52
568.83	44229.10
568.99	44170.59
569.15	44390.60
569.32	44126.12
569.48	43831.21
569.64	44488.90
569.81	44697.21
569.97	44428.05
570.13	44205.70
570.30	43931.86
570.46	43910.79
570.62	44367.20
570.78	44151.87
570.95	44509.97
571.11	44617.63
571.27	44325.07
571.43	44453.79
571.60	44472.52
571.76	44233.78
571.92	44514.65
572.09	44472.52
572.25	44493.58
572.41	44238.47
572.57	44968.71
572.74	44678.49
572.90	44411.67
573.06	44655.08
573.22	44718.28
573.38	44582.52
573.55	44233.78
573.71	44505.29
573.87	44299.32
574.03	44027.82
574.20	44589.55
574.36	44507.63
574.52	44568.48
574.68	45272.98
574.84	44652.74
575.01	44765.09
575.17	44631.68
575.33	44421.03
575.49	44449.11
575.65	44629.34
575.82	44741.68
575.98	44568.48
576.14	44514.65
576.30	44521.67
576.46	44329.75
576.62	44191.65
576.79	44201.02
576.95	43828.87
577.11	44222.08
577.27	44304.00
577.43	44540.39
577.59	44783.81
577.75	44383.58
577.92	44893.82
578.08	44186.97
578.24	44383.58
578.40	44549.76
578.56	44472.52
578.72	44009.09
578.88	44877.43
579.04	44133.14
579.21	44556.78
579.37	44622.31
579.53	44650.40
579.69	43983.35
579.85	44388.26
580.01	44051.22
580.17	44748.70
580.33	45116.17
580.49	44783.81
580.65	44397.62
580.82	45132.55
580.98	44921.90
581.14	44957.01
581.30	44521.67
581.46	44409.32
581.62	44900.84
581.78	44296.98
581.94	44893.82
582.10	44938.29
582.26	44954.67
582.42	44664.44
582.58	44514.65
582.74	44224.42
582.90	44746.36
583.06	45029.57
583.22	44783.81
583.38	44931.26
583.54	45045.95
583.70	44697.21
583.86	44847.00
584.02	44533.37
584.18	44802.53
584.34	44617.63
584.50	45029.57
584.66	44538.05
584.82	44762.75
584.98	44992.12
585.14	44692.53
585.30	44767.43
585.46	44905.52
585.62	44634.02
585.78	44516.99
585.94	44294.64
586.10	44432.73
586.26	44626.99
586.42	45134.89
586.58	44910.20
586.74	44767.43
586.90	44549.76
587.06	44587.21
587.22	44928.92
587.38	44821.26
587.54	44872.75
587.70	45399.37
587.86	45024.89
588.02	44795.51
588.18	45155.96
588.34	45038.93
588.49	44727.64
588.65	44540.39
588.81	44912.54
588.97	44266.55
589.13	44439.75
589.29	44779.13
589.45	45198.09
589.61	45317.45
589.77	44954.67
589.93	45619.38
590.08	45003.82
590.24	45242.56
590.40	45153.62
590.56	45240.21
590.72	44961.69
590.88	44807.22
591.04	45298.73
591.20	45226.17
591.35	45277.66
591.51	45336.18
591.67	44973.39
591.83	45123.19
591.99	44570.82
592.15	44872.75
592.31	45298.73
592.46	45509.38
592.62	44304.00
592.78	45205.11
592.94	45338.52
593.10	44744.02
593.26	44809.56
593.41	44919.56
593.57	45240.21
593.73	45319.79
593.89	44989.78
594.05	44940.63
594.20	44975.73
594.36	45357.24
594.52	45008.50
594.68	45045.95
594.84	45064.67
594.99	45394.69
595.15	44978.07
595.31	45067.02
595.47	45048.29
595.62	45013.18
595.78	45331.50
595.94	45216.81
596.10	45467.25
596.25	45244.90
596.41	45146.59
596.57	44985.10
596.73	45099.78
596.88	44828.28
597.04	45352.56
597.20	45158.30
597.36	45656.83
597.51	45659.17
597.67	45109.14
597.83	45495.33
597.99	45631.08
598.14	44891.48
598.30	45186.38
598.46	45317.45
598.61	45170.00
598.77	44952.33
598.93	45228.51
599.09	45404.05
599.24	45495.33
599.40	45338.52
599.56	45542.14
599.71	45689.60
599.87	45595.98
600.03	45214.47
600.18	45284.68
600.34	45352.56
600.50	45457.88
600.65	44917.22
600.81	45315.11
600.97	45914.29
601.12	45724.71
601.28	45492.99
601.44	44971.05
601.59	45713.00
601.75	44994.46
601.91	45050.63
602.06	45167.66
602.22	44947.65
602.37	45294.05
602.53	45310.43
602.69	45312.77
602.84	45474.27
603.00	45029.57
603.16	45162.98
603.31	45488.31
603.47	44903.18
603.62	45059.99
603.78	45507.04
603.94	45134.89
604.09	45507.04
604.25	45361.92
604.40	45031.91
604.56	45270.64
604.71	45368.94
604.87	44818.92
605.03	44882.11
605.18	45034.25
605.34	45167.66
605.49	44830.62
605.65	45162.98
605.80	44884.45
605.96	45038.93
606.12	45027.23
606.27	45308.09
606.43	45361.92
606.58	45322.13
606.74	45120.85
606.89	44921.90
607.05	45162.98
607.20	45326.81
607.36	44870.41
607.51	45497.67
607.67	45095.10
607.82	44882.11
607.98	44664.44
608.13	44879.77
608.29	45015.52
608.44	44549.76
608.60	44210.38
608.75	44416.35
608.91	44680.83
609.06	44966.37
609.22	44924.24
609.37	44549.76
609.53	44987.44
609.68	44879.77
609.84	44821.26
609.99	44919.56
610.15	44327.41
610.30	44779.13
610.46	44650.40
610.61	44479.54
610.76	44634.02
610.92	44634.02
611.07	44795.51
611.23	44652.74
611.38	44690.19
611.54	44519.33
611.69	44673.81
611.84	44341.45
612.00	44275.91
612.15	44215.06
612.31	44940.63
612.46	44690.19
612.62	44683.17
612.77	44641.04
612.92	44456.14
613.08	44083.99
613.23	44470.18
613.39	44306.34
613.54	44020.80
613.69	44311.02
613.85	44210.38
614.00	44332.09
614.15	44699.55
614.31	44486.56
614.46	44554.44
614.62	44065.27
614.77	43449.70
614.92	44016.11
615.08	43861.64
615.23	43959.94
615.38	43751.63
615.54	43746.95
615.69	43950.58
615.84	43442.68
616.00	44397.62
616.15	44549.76
616.30	44392.94
616.46	43868.66
616.61	43646.31
616.76	43676.74
616.92	43353.74
617.07	43901.43
617.22	43601.84
617.37	43700.14
617.53	44034.84
617.68	44086.33
617.83	44030.16
617.99	43901.43
618.14	43817.17
618.29	43749.29
618.45	43662.69
618.60	43910.79
618.75	43391.19
618.90	43550.35
619.06	43606.52
619.21	43641.63
619.36	43611.20
619.51	43414.60
619.67	43449.70
619.82	43501.20
619.97	43746.95
620.12	43559.71
620.28	43173.52
620.43	43363.11
620.58	43328.00
620.73	43531.62
620.89	43519.92
621.04	43948.24
621.19	43194.59
621.34	43070.54
621.49	43791.42
621.65	43199.27
621.80	43276.51
621.95	43002.66
622.10	43517.58
622.25	43056.50
622.41	42696.05
622.56	42822.44
622.71	43014.37
622.86	43288.21
623.01	43217.99
623.16	43150.12
623.32	43232.04
623.47	43363.11
623.62	43253.10
623.77	42721.80
623.92	42934.79
624.07	42930.11
624.23	42724.14
624.38	42766.27
624.53	42731.16
624.68	42429.23
624.83	42878.61
624.98	42857.55
625.13	42817.76
625.29	42333.27
625.44	42623.50
625.59	42073.47
625.74	42487.74
625.89	42506.47
626.04	41897.93
626.19	42227.95
626.34	42586.05
626.49	42574.34
626.65	42330.93
626.80	42710.10
626.95	42213.90
627.10	42167.09
627.25	41867.50
627.40	42066.45
627.55	42054.75
627.70	41727.07
627.85	42134.32
628.00	42234.97
628.15	41741.11
628.30	41806.65
628.45	42415.19
628.60	42337.95
628.76	42148.37
628.91	42557.96
629.06	41907.29
629.21	41656.85
629.36	41673.24
629.51	41581.96
629.66	41691.96
629.81	41596.00
629.96	41780.90
630.11	41448.55
630.26	42454.98
630.41	41596.00
630.56	41518.76
630.71	41256.62
630.86	41841.76
631.01	41275.35
631.16	41425.14
631.31	41198.11
631.46	41120.87
631.61	41116.19
631.76	41778.56
631.91	41413.44
632.06	41911.97
632.21	41488.34
632.36	41825.37
632.51	41394.71
632.66	41291.73
632.81	40971.08
632.96	41109.17
633.10	41099.81
633.25	41191.09
633.40	41027.25
633.55	41486.00
633.70	41656.85
633.85	41177.04
634.00	41048.32
634.15	40954.69
634.30	41090.44
634.45	41408.76
634.60	40825.96
634.75	40847.03
634.90	41167.68
635.05	40884.48
635.19	40708.94
635.34	40959.38
635.49	40451.48
635.64	40671.49
635.79	40912.56
635.94	40851.71
636.09	40542.76
636.24	40582.55
636.39	40446.80
636.53	40734.68
636.68	40041.88
636.83	40533.40
636.98	40737.02
637.13	40268.92
637.28	40364.88
637.43	40713.62
637.57	40807.24
637.72	40329.77
637.87	40376.58
638.02	40818.94
638.17	40807.24
638.32	40086.36
638.46	39864.00
638.61	40582.55
638.76	40154.23
638.91	40514.67
639.06	40383.60
639.20	40453.82
639.35	40652.76
639.50	39892.09
639.65	40554.46
639.80	40250.19
639.94	40149.55
640.09	40100.40
640.24	39882.73
640.39	39555.05
640.54	39608.89
640.68	39856.98
640.83	39690.80
640.98	39646.33
641.13	39962.31
641.27	40041.88
641.42	39852.30
641.57	40432.75
641.72	39665.06
641.86	39756.34
642.01	39372.49
642.16	39714.21
642.31	39360.79
642.45	39676.76
642.60	39014.39
642.75	39454.41
642.90	39412.28
643.04	39566.76
643.19	39517.60
643.34	39604.20
643.48	39849.96
643.63	39550.37
643.78	39393.56
643.93	39477.82
644.07	39159.50
644.22	39168.87
644.37	39061.20
644.51	39309.30
644.66	39173.55
644.81	39239.08
644.95	39271.85
645.10	39328.02
645.25	39414.62
645.39	39667.40
645.54	39199.29
645.69	39318.66
645.83	38836.51
645.98	38878.64
646.13	38792.04
646.27	39119.71
646.42	38897.36
646.57	39199.29
646.71	39173.55
646.86	39192.27
647.00	39306.96
647.15	38944.17
647.30	39175.89
647.44	38614.16
647.59	38841.19
647.74	38799.06
647.88	38941.83
648.03	38728.84
648.17	38878.64
648.32	38340.32
648.47	38541.60
648.61	38483.09
648.76	39304.62
648.90	38675.01
649.05	38590.75
649.20	38677.35
649.34	38274.78
649.49	38658.63
649.63	38445.64
649.78	38415.21
649.92	38281.80
650.07	39199.29
650.21	37972.85
650.36	38478.41
650.51	38092.22
650.65	38675.01
650.80	38742.89
650.94	38337.98
651.09	38412.87
651.23	37764.54
651.38	38412.87
651.52	38555.64
651.67	38024.34
651.81	38169.46
651.96	38190.52
652.10	38291.16
652.25	38132.01
652.39	37521.13
652.54	38040.73
652.68	38134.35
652.83	38190.52
652.97	37970.51
653.12	37799.65
653.26	37855.82
653.41	38197.54
653.55	37214.52
653.70	37904.98
653.84	37682.62
653.99	37729.44
654.13	37254.31
654.27	37727.10
654.42	37675.60
654.56	37333.89
654.71	38033.71
654.85	37563.26
655.00	37792.63
655.14	37099.83
655.29	37146.64
655.43	37305.80
655.57	36910.25
655.72	36835.35
655.86	36954.72
656.01	37347.93
656.15	37024.93
656.30	36898.55
656.44	37144.30
656.58	37130.26
656.73	36556.83
656.87	36687.90
657.01	36730.03
657.16	37301.12
657.30	36598.96
657.45	36350.86
657.59	36849.39
657.73	36938.33
657.88	37237.92
658.02	36591.94
658.16	36657.47
658.31	36524.06
658.45	36992.17
658.60	36659.81
658.74	36945.36
658.88	36503.00
659.03	36685.56
659.17	36514.70
659.31	36423.42
659.46	36194.04
659.60	36870.46
659.74	36589.59
659.89	36367.24
660.03	36313.41
660.17	36783.86
660.32	36622.36
660.46	36407.03
660.60	36198.73
660.74	36435.12
660.89	36577.89
661.03	35679.13
661.17	35967.01
661.32	35882.75
661.46	35285.92
661.60	35976.37
661.74	35718.92
661.89	35833.60
662.03	35302.30
662.17	35559.76
662.31	35814.88
662.46	35548.06
662.60	35639.34
662.74	35428.69
662.88	35531.67
663.03	35683.81
663.17	35543.38
663.31	35426.35
663.45	35395.92
663.60	35136.12
663.74	35140.80
663.88	34705.46
664.02	34738.23
664.17	35534.01
664.31	34763.98
664.45	34944.20
664.59	35072.93
664.73	34815.47
664.88	35084.63
665.02	34653.97
665.16	35000.37
665.30	34813.13
665.44	34565.03
665.59	34464.39
665.73	34099.26
665.87	34192.89
666.01	34396.51
666.15	34333.32
666.29	34017.35
666.44	34565.03
666.58	33977.56
666.72	33958.83
666.86	34459.71
667.00	34756.96
667.14	34089.90
667.28	34101.61
667.43	34015.01
667.57	33806.70
667.71	33649.88
667.85	33626.48
667.99	33666.27
668.13	33488.38
668.27	33532.86
668.41	33443.91
668.56	33205.18
668.70	33764.57
668.84	33530.51
668.98	33284.76
669.12	33787.97
669.26	33207.52
669.40	32531.11
669.54	32818.99
669.68	33319.87
669.82	33429.87
669.96	32921.98
670.10	32580.26
670.25	32943.04
670.39	32643.45
670.53	32402.38
670.67	32882.19
670.81	32760.48
670.95	32730.05
671.09	32748.78
671.23	32655.15
671.37	32568.55
671.51	32474.93
671.65	32343.86
671.79	31990.44
671.93	31793.84
672.07	32306.41
672.21	32224.50
672.35	31838.31
672.49	32084.06
672.63	32074.70
672.77	32079.38
672.91	31608.93
673.05	31665.11
673.19	31601.91
673.33	31496.59
673.47	31613.62
673.61	31232.11
673.75	31384.24
673.89	31096.36
674.03	31105.72
674.17	31016.78
674.31	31339.77
674.45	30866.98
674.59	31068.27
674.73	30691.44
674.87	31236.79
675.01	30349.73
675.15	30536.97
675.29	30899.75
675.43	30761.66
675.56	30843.58
675.70	30675.06
675.84	30230.36
675.98	29422.87
676.12	30181.21
676.26	30218.66
676.40	29764.59
676.54	29617.14
676.68	30110.99
676.82	29282.44
676.96	29689.70
677.10	29682.67
677.23	29142.01
677.37	29446.28
677.51	29266.06
677.65	29181.80
677.79	29092.86
677.93	29219.25
678.07	28961.79
678.21	28900.94
678.34	28503.04
678.48	28402.40
678.62	28486.66
678.76	28521.77
678.90	28435.17
679.04	28521.77
679.18	28582.62
679.31	28053.66
679.45	27960.04
679.59	28053.66
679.73	28285.37
679.87	28264.31
680.00	27545.76
680.14	28072.39
680.28	27388.95
680.42	27522.36
680.56	27496.61
680.70	27461.51
680.83	27215.75
680.97	26962.97
681.11	27190.00
681.25	26785.09
681.39	26719.56
681.52	26871.69
681.66	26993.40
681.80	26422.31
681.94	26431.67
682.07	26359.11
682.21	26281.88
682.35	26321.66
682.49	26171.87
682.62	26377.84
682.76	26370.82
682.90	26087.61
683.04	25898.03
683.17	25755.26
683.31	25820.79
683.45	26253.79
683.59	25940.16
683.72	25401.83
683.86	25017.99
684.00	25284.81
684.13	25399.49
684.27	25399.49
684.41	25582.06
684.55	24910.32
684.68	25041.39
684.82	24840.11
684.96	24809.68
685.09	24814.36
685.23	24641.16
685.37	24367.32
685.50	24584.99
685.64	24643.50
685.78	24514.77
685.91	24329.87
686.05	24114.54
686.19	24049.00
686.32	24182.42
686.46	23695.58
686.60	23908.57
686.73	23459.19
686.87	23552.81
687.01	23388.97
687.14	23323.44
687.28	23080.02
687.42	23175.98
687.55	22963.00
687.69	23091.73
687.82	22974.70
687.96	22806.18
688.10	22675.11
688.23	22703.20
688.37	22661.07
688.50	22373.18
688.64	22518.29
688.78	22410.63
688.91	22040.82
689.05	22244.45
689.18	22029.12
689.32	21694.43
689.46	21916.78
689.59	22295.94
689.73	22101.68
689.86	21745.92
690.00	21708.47
690.13	21876.99
690.27	21308.24
690.41	21825.50
690.54	21254.40
690.68	21392.50
690.81	21282.49
690.95	20994.61
691.08	21277.81
691.22	20908.01
691.35	20882.26
691.49	20631.82
691.62	21207.59
691.76	20741.83
691.89	20706.72
692.03	20273.72
692.16	20444.58
692.30	20388.41
692.43	20514.80
692.57	20163.72
692.70	20217.55
692.84	20318.19
692.97	19758.80
693.11	19679.22
693.24	19578.58
693.38	19770.51
693.51	19484.96
693.65	19571.56
693.78	19728.38
693.92	19587.94
694.05	19264.95
694.19	19096.43
694.32	19229.84
694.45	19377.30
694.59	18979.40
694.72	19016.85
694.86	19061.32
694.99	18754.71
695.13	18408.31
695.26	18518.32
695.39	18008.08
695.53	18675.13
695.66	18523.00
695.80	18335.76
695.93	18183.62
696.07	18249.16
696.20	18237.45
696.33	18087.66
696.47	18050.21
696.60	18293.63
696.73	18111.07
696.87	17839.56
697.00	17748.28
697.14	17865.31
697.27	17383.16
697.40	17525.93
697.54	17308.26
697.67	17245.07
697.80	17305.92
697.94	17172.51
698.07	16767.60
698.21	17186.55
698.34	17036.76
698.47	16854.20
698.61	16762.92
698.74	16475.03
698.87	16814.41
699.01	16018.63
699.14	16760.58
699.27	16624.83
699.40	16503.12
699.54	16210.55
699.67	16322.90
699.80	16238.64
699.94	16435.24
700.07	16095.86
700.20	16149.70
700.34	16046.71
700.47	15520.09
700.60	15807.98
700.73	16049.05
700.87	15775.21
701.00	15576.27
701.13	15515.41
701.26	15353.91
701.40	15363.28
701.53	15335.19
701.66	15344.55
701.79	15077.73
701.93	15091.77
702.06	14705.59
702.19	14677.50
702.32	14881.13
702.46	14878.79
702.59	14796.87
702.72	14668.14
702.85	15059.01
702.99	14904.53
703.12	14417.70
703.25	14450.47
703.38	14513.66
703.51	14291.31
703.65	14436.42
703.78	14087.68
703.91	14108.75
704.04	14029.17
704.17	13947.25
704.31	14047.90
704.44	13537.66
704.57	13584.47
704.70	13556.38
704.83	13862.99
704.96	14005.77
705.10	13540.00
705.23	13703.84
>>>>>End Processed Spectral Data<<<<<
