SpectraSuite Data File
++++++++++++++++++++++++++++++++++++
Date: Fri Oct 25 10:44:42 EDT 2013
User: price-jones
Dark Spectrum Present: No
Reference Spectrum Present: No
Number of Sampled Component Spectra: 1
Spectrometers: USB2+H05261
Integration Time (usec): 100000 (USB2+H05261)
Spectra Averaged: 1 (USB2+H05261)
Boxcar Smoothing: 0 (USB2+H05261)
Correct for Electrical Dark: No (USB2+H05261)
Strobe/Lamp Enabled: No (USB2+H05261)
Correct for Detector Non-linearity: No (USB2+H05261)
Correct for Stray Light: No (USB2+H05261)
Number of Pixels in Processed Spectrum: 2048
>>>>>Begin Processed Spectral Data<<<<<
365.73	110.01
365.92	110.01
366.12	110.01
366.32	63.19
366.52	23.41
366.72	105.32
366.91	114.69
367.11	0.00
367.31	21.06
367.51	2.34
367.70	46.81
367.90	79.58
368.10	105.32
368.30	0.00
368.49	9.36
368.69	32.77
368.89	0.00
369.09	79.58
369.28	46.81
369.48	81.92
369.68	79.58
369.87	100.64
370.07	32.77
370.27	175.54
370.47	147.45
370.66	344.06
370.86	472.79
371.06	433.00
371.25	430.66
371.45	409.59
371.65	411.93
371.84	433.00
372.04	395.55
372.24	440.02
372.44	470.45
372.63	538.32
372.83	484.49
373.03	484.49
373.22	468.11
373.42	463.43
373.62	510.24
373.81	552.37
374.01	587.47
374.21	545.34
374.40	578.11
374.60	519.60
374.79	564.07
374.99	543.00
375.19	557.05
375.38	557.05
375.58	594.50
375.78	552.37
375.97	554.71
376.17	622.58
376.37	559.39
376.56	547.69
376.76	540.66
376.95	550.03
377.15	610.88
377.35	585.13
377.54	559.39
377.74	578.11
377.93	601.52
378.13	629.60
378.33	631.94
378.52	601.52
378.72	636.63
378.91	636.63
379.11	636.63
379.31	514.92
379.50	547.69
379.70	660.03
379.89	660.03
380.09	653.01
380.28	650.67
380.48	667.05
380.68	718.54
380.87	676.41
381.07	664.71
381.26	751.31
381.46	704.50
381.65	594.50
381.85	620.24
382.04	702.16
382.24	662.37
382.43	582.79
382.63	671.73
382.83	624.92
383.02	657.69
383.22	723.23
383.41	739.61
383.61	737.27
383.80	772.38
384.00	631.94
384.19	746.63
384.39	720.88
384.58	716.20
384.78	741.95
384.97	777.06
385.17	882.38
385.36	840.25
385.56	777.06
385.75	837.91
385.95	798.12
386.14	718.54
386.34	837.91
386.53	753.65
386.72	784.08
386.92	842.59
387.11	819.19
387.31	758.33
387.50	755.99
387.70	793.44
387.89	835.57
388.09	858.98
388.28	798.12
388.48	767.70
388.67	798.12
388.86	901.11
389.06	884.72
389.25	933.87
389.45	1025.15
389.64	866.00
389.84	847.27
390.03	919.83
390.22	966.64
390.42	894.08
390.61	908.13
390.81	961.96
391.00	908.13
391.19	917.49
391.39	929.19
391.58	1022.81
391.78	971.32
391.97	980.68
392.16	973.66
392.36	976.00
392.55	933.87
392.75	952.60
392.94	990.05
393.13	968.98
393.33	903.45
393.52	966.64
393.71	1041.54
393.91	917.49
394.10	1013.45
394.29	978.34
394.49	990.05
394.68	1081.33
394.88	1057.92
395.07	1086.01
395.26	1160.91
395.46	1116.44
395.65	1053.24
395.84	1156.22
396.04	1179.63
396.23	1069.62
396.42	994.73
396.62	1125.80
396.81	1142.18
397.00	1172.61
397.19	1149.20
397.39	1184.31
397.58	1277.93
397.77	1226.44
397.97	1224.10
398.16	1228.78
398.35	1350.49
398.55	1369.21
398.74	1345.81
398.93	1350.49
399.12	1306.02
399.32	1327.08
399.51	1284.95
399.70	1465.18
399.90	1315.38
400.09	1282.61
400.28	1394.96
400.47	1411.34
400.67	1486.24
400.86	1511.99
401.05	1554.12
401.24	1420.71
401.44	1516.67
401.63	1493.26
401.82	1528.37
402.01	1455.81
402.21	1577.52
402.40	1387.94
402.59	1540.07
402.78	1509.65
402.97	1568.16
403.17	1568.16
403.36	1664.12
403.55	1666.46
403.74	1708.59
403.93	1720.29
404.13	1678.16
404.32	1598.59
404.51	1687.53
404.70	1689.87
404.89	1680.50
405.09	1762.42
405.28	1703.91
405.47	1741.36
405.66	1736.68
405.85	1830.30
406.05	1657.10
406.24	1621.99
406.43	1748.38
406.62	1825.62
406.81	1879.45
407.00	1799.87
407.20	1884.13
407.39	1856.04
407.58	2003.50
407.77	1959.03
407.96	2024.56
408.15	1947.33
408.34	1930.94
408.54	2104.14
408.73	1996.48
408.92	2080.74
409.11	2146.27
409.30	2113.50
409.49	2010.52
409.68	1996.48
409.87	2064.35
410.07	2026.90
410.26	2045.63
410.45	2090.10
410.64	2078.40
410.83	2150.95
411.02	2263.30
411.21	2172.02
411.40	2275.00
411.59	2310.11
411.78	2307.77
411.98	2260.96
412.17	2310.11
412.36	2345.22
412.55	2438.84
412.74	2480.97
412.93	2473.95
413.12	2429.48
413.31	2499.69
413.50	2403.73
413.69	2532.46
413.88	2696.30
414.07	2672.89
414.26	2562.89
414.45	2663.53
414.64	2509.05
414.83	2675.23
415.02	2579.27
415.22	2607.36
415.41	2839.07
415.60	2719.70
415.79	2759.49
415.98	2883.54
416.17	2944.39
416.36	2864.82
416.55	2916.31
416.74	2946.73
416.93	2925.67
417.12	2904.60
417.31	2874.18
417.50	2834.39
417.69	3082.49
417.88	3148.02
418.07	3087.17
418.26	3159.72
418.45	3117.59
418.64	3180.79
418.83	3089.51
419.02	3208.87
419.21	3173.77
419.39	3251.00
419.58	3180.79
419.77	3251.00
419.96	3215.90
420.15	3239.30
420.34	3316.54
420.53	3265.05
420.72	3459.31
420.91	3339.94
421.10	3435.91
421.29	3335.26
421.48	3370.37
421.67	3473.36
421.86	3475.70
422.05	3403.14
422.24	3396.12
422.43	3449.95
422.61	3473.36
422.80	3630.17
422.99	3510.80
423.18	3559.95
423.37	3548.25
423.56	3522.51
423.75	3595.06
423.94	3543.57
424.13	3353.99
424.32	3562.30
424.50	3581.02
424.69	3555.27
424.88	3618.47
425.07	3665.28
425.26	3599.74
425.45	3618.47
425.64	3707.41
425.83	3456.97
426.01	3590.38
426.20	3609.11
426.39	3574.00
426.58	3588.04
426.77	3480.38
426.96	3536.55
427.15	3585.70
427.33	3721.45
427.52	3609.11
427.71	3758.90
427.90	3674.64
428.09	3791.67
428.28	3744.86
428.46	3861.88
428.65	3777.62
428.84	3885.29
429.03	3925.08
429.22	3747.20
429.40	3829.12
429.59	3772.94
429.78	3679.32
429.97	3506.12
430.16	3737.84
430.34	3948.48
430.53	3810.39
430.72	3843.16
430.91	3831.46
431.10	3997.64
431.28	3969.55
431.47	4198.92
431.66	4032.74
431.85	4074.87
432.03	4156.79
432.22	4241.05
432.41	4212.96
432.60	4236.37
432.79	3981.25
432.97	4346.37
433.16	4290.20
433.35	4266.80
433.54	4248.07
433.72	4231.69
433.91	4271.48
434.10	4348.72
434.28	4266.80
434.47	4407.23
434.66	4285.52
434.85	4587.45
435.03	4397.87
435.22	4505.53
435.41	4592.13
435.59	4603.83
435.78	4634.26
435.97	4535.96
436.16	4542.98
436.34	4496.17
436.53	4638.94
436.72	4650.64
436.90	4554.68
437.09	4760.65
437.28	4678.73
437.46	4627.24
437.65	4608.51
437.84	4746.61
438.02	4727.88
438.21	4655.33
438.40	4716.18
438.58	4779.37
438.77	4748.95
438.96	4898.74
439.14	4973.64
439.33	5020.45
439.52	5043.85
439.70	5153.86
439.89	5203.01
440.08	5149.18
440.26	5280.25
440.45	5273.23
440.63	5275.57
440.82	5359.83
441.01	5362.17
441.19	5408.98
441.38	5420.68
441.57	5380.89
441.75	5481.53
441.94	5720.27
442.12	5626.65
442.31	5661.76
442.50	5558.77
442.68	5589.20
442.87	5638.35
443.05	5533.03
443.24	5664.10
443.43	5666.44
443.61	5694.52
443.80	5956.66
443.98	5748.36
444.17	5659.42
444.35	5816.23
444.54	5909.85
444.73	6019.86
444.91	5987.09
445.10	5909.85
445.28	5809.21
445.47	5872.40
445.65	5788.14
445.84	5741.33
446.02	5954.32
446.21	5937.94
446.39	5914.53
446.58	6125.18
446.77	5987.09
446.95	5823.25
447.14	6012.84
447.32	6031.56
447.51	6069.01
447.69	6071.35
447.88	6015.18
448.06	6001.13
448.25	6036.24
448.43	6221.14
448.62	5935.60
448.80	6099.44
448.99	6017.52
449.17	6076.03
449.36	6155.61
449.54	6183.70
449.73	6195.40
449.91	6448.18
450.10	6279.66
450.28	6436.47
450.46	6459.88
450.65	6251.57
450.83	6394.34
451.02	6408.39
451.20	6560.52
451.39	6368.60
451.57	6663.51
451.76	6408.39
451.94	6520.73
452.13	6450.52
452.31	6480.94
452.49	6370.94
452.68	6534.78
452.86	6497.33
453.05	6518.39
453.23	6530.09
453.42	6654.14
453.60	6499.67
453.78	6487.96
453.97	6619.04
454.15	6574.56
454.34	6595.63
454.52	6656.48
454.70	6834.36
454.89	6775.85
455.07	6771.17
455.26	6860.11
455.44	7019.27
455.62	6939.69
455.81	6993.52
455.99	6998.20
456.17	6995.86
456.36	7087.14
456.54	7110.55
456.73	7297.79
456.91	7267.36
457.09	7213.53
457.28	7386.73
457.46	7269.70
457.64	7236.94
457.83	7302.47
458.01	7176.08
458.19	7344.60
458.38	7438.22
458.56	7470.99
458.74	7307.15
458.93	7201.83
459.11	7538.87
459.29	7480.35
459.48	7552.91
459.66	7393.75
459.84	7548.23
460.03	7768.24
460.21	7646.53
460.39	7644.19
460.57	7585.68
460.76	7672.28
460.94	7604.40
461.12	7744.83
461.31	7789.30
461.49	7726.11
461.67	7859.52
461.85	7939.10
462.04	7964.84
462.22	7995.27
462.40	8100.59
462.59	7929.74
462.77	8140.38
462.95	8290.18
463.13	8182.51
463.32	7929.74
463.50	8002.29
463.68	8088.89
463.86	8042.08
464.05	7985.91
464.23	7932.08
464.41	7981.23
464.59	7964.84
464.78	8318.26
464.96	8292.52
465.14	8198.90
465.32	8156.77
465.50	8341.67
465.69	8348.69
465.87	8322.94
466.05	8191.88
466.23	8454.02
466.41	8456.36
466.60	8250.39
466.78	8390.82
466.96	8250.39
467.14	8383.80
467.32	8463.38
467.51	8547.64
467.69	8241.03
467.87	8449.33
468.05	8699.77
468.23	8615.51
468.41	8638.92
468.60	8557.00
468.78	8655.30
468.96	8657.64
469.14	8795.73
469.32	8882.33
469.50	8809.78
469.69	8898.72
469.87	8844.88
470.05	8997.02
470.23	9046.17
470.41	9064.89
470.59	8922.12
470.77	8950.21
470.95	9249.80
471.14	9188.94
471.32	9011.06
471.50	9399.59
471.68	9310.65
471.86	9380.87
472.04	9254.48
472.22	9413.63
472.40	9394.91
472.58	9394.91
472.77	9582.15
472.95	9659.39
473.13	9738.97
473.31	9514.28
473.49	9809.19
473.67	9774.08
473.85	9678.12
474.03	9863.02
474.21	9916.85
474.39	9937.91
474.57	10066.64
474.75	9947.28
474.93	10235.16
475.12	9991.75
475.30	10207.08
475.48	10202.40
475.66	10389.64
475.84	10356.87
476.02	10593.26
476.20	10281.97
476.38	10693.91
476.56	10651.78
476.74	10778.17
476.92	10857.75
477.10	10668.16
477.28	11117.54
477.46	10871.79
477.64	11225.21
477.82	11239.25
478.00	11456.92
478.18	11248.61
478.36	11410.11
478.54	11576.29
478.72	11597.35
478.90	11726.08
479.08	11833.75
479.26	11782.26
479.44	12002.27
479.62	11974.18
479.80	12201.21
479.98	12177.81
480.16	12437.61
480.34	12416.54
480.52	12517.18
480.70	12442.29
480.88	12355.69
481.06	12613.15
481.24	12711.45
481.41	13022.74
481.59	13097.64
481.77	13050.83
481.95	13160.83
482.13	13331.69
482.31	13289.56
482.49	13671.07
482.67	13415.95
482.85	13678.09
483.03	13884.06
483.21	14029.17
483.39	14003.43
483.57	13965.98
483.74	13867.67
483.92	14160.24
484.10	14277.27
484.28	14445.79
484.46	14628.35
484.64	15250.93
484.82	14644.73
485.00	14780.48
485.18	14684.52
485.35	15236.89
485.53	14724.31
485.71	15103.48
485.89	15105.82
486.07	15264.97
486.25	15382.00
486.43	15499.03
486.61	15522.43
486.78	15697.97
486.96	15948.41
487.14	16369.71
487.32	16402.47
487.50	16315.87
487.68	16606.10
487.85	16762.92
488.03	17036.76
488.21	17268.47
488.39	17053.14
488.57	17135.06
488.75	17263.79
488.92	17376.14
489.10	17689.77
489.28	17689.77
489.46	17848.93
489.64	17951.91
489.81	18356.82
489.99	18305.33
490.17	18363.84
490.35	18609.60
490.53	18466.83
490.70	18920.89
490.88	18761.73
491.06	18927.91
491.24	19087.07
491.41	19091.75
491.59	19323.46
491.77	19396.02
491.95	19239.20
492.13	19693.27
492.30	19843.06
492.48	19824.34
492.66	20196.48
492.84	19882.85
493.01	19971.79
493.19	20161.37
493.37	20680.97
493.54	20182.44
493.72	20716.08
493.90	20545.22
494.08	20875.24
494.25	20922.05
494.43	21198.23
494.61	21455.69
494.79	21811.45
494.96	21460.37
495.14	21411.22
495.32	21928.48
495.49	21694.43
495.67	21741.24
495.85	22148.49
496.02	22043.17
496.20	22452.76
496.38	22518.29
496.55	22555.74
496.73	22799.16
496.91	22817.88
497.09	22644.68
497.26	22881.08
497.44	23073.00
497.62	23487.28
497.79	23468.55
497.97	23194.71
498.14	23379.61
498.32	23482.59
498.50	23531.75
498.67	24037.30
498.85	23798.57
499.03	23779.84
499.20	24053.69
499.38	24170.71
499.56	24229.23
499.73	24891.60
499.91	24332.21
500.08	24615.41
500.26	24386.04
500.44	24718.40
500.61	24577.97
500.79	24734.78
500.97	24896.28
501.14	25390.13
501.32	25399.49
501.49	25099.90
501.67	25312.89
501.84	25170.12
502.02	25598.44
502.20	25605.46
502.37	25902.71
502.55	25766.96
502.72	25472.05
502.90	25912.07
503.07	25832.49
503.25	26153.15
503.43	25993.99
503.60	26438.69
503.78	26129.74
503.95	26539.33
504.13	26508.91
504.30	26230.38
504.48	26321.66
504.65	26848.29
504.83	26813.18
505.01	26768.71
505.18	27323.41
505.36	27171.28
505.53	27316.39
505.71	27520.02
505.88	27480.23
506.06	27300.01
506.23	27735.35
506.41	27115.11
506.58	27721.30
506.76	27311.71
506.93	27826.63
507.11	27821.95
507.28	27995.15
507.46	27873.44
507.63	28233.88
507.81	27941.32
507.98	28077.07
508.16	28208.14
508.33	28538.15
508.50	28830.72
508.68	28481.98
508.85	28793.27
509.03	28540.49
509.20	28748.80
509.38	28842.42
509.55	29060.09
509.73	29008.60
509.90	29008.60
510.08	29207.55
510.25	29050.73
510.42	29259.04
510.60	29338.62
510.77	29596.07
510.95	29944.81
511.12	29715.44
511.30	30103.97
511.47	30054.82
511.64	30274.83
511.82	30181.21
511.99	29984.60
512.17	29790.34
512.34	29776.30
512.51	30513.56
512.69	30487.82
512.86	30293.55
513.04	30614.21
513.21	30478.46
513.38	30253.76
513.56	30628.25
513.73	30684.42
513.90	30998.06
514.08	30857.62
514.25	31061.25
514.43	30932.52
514.60	31049.55
514.77	31019.12
514.95	31676.81
515.12	31299.98
515.29	30955.93
515.47	31908.52
515.64	31641.70
515.81	31548.08
515.99	31772.77
516.16	31964.70
516.33	31449.78
516.51	31845.33
516.68	31658.09
516.85	31452.12
517.03	31515.31
517.20	31960.02
517.37	31758.73
517.54	32013.85
517.72	32105.13
517.89	32004.49
518.06	32308.76
518.24	32130.87
518.41	32180.03
518.58	32224.50
518.75	32432.80
518.93	32603.66
519.10	32510.04
519.27	32617.71
519.45	32332.16
519.62	33308.16
519.79	33188.80
519.96	33228.59
520.14	33191.14
520.31	33212.20
520.48	33268.37
520.65	33338.59
520.83	33598.39
521.00	33645.20
521.17	33589.03
521.34	33340.93
521.52	33624.14
521.69	33610.09
521.86	34057.14
522.03	34195.23
522.20	33912.02
522.38	34426.94
522.55	34227.99
522.72	34178.84
522.89	34108.63
523.07	34361.40
523.24	34136.71
523.41	34881.00
523.58	34047.77
523.75	34845.90
523.92	34642.27
524.10	35014.41
524.27	35117.40
524.44	34686.74
524.61	35185.27
524.78	35379.54
524.96	35351.45
525.13	35468.48
525.30	35662.74
525.47	35672.10
525.64	35290.60
525.81	35089.31
525.98	35641.68
526.16	35175.91
526.33	34799.08
526.50	35379.54
526.67	35019.10
526.84	35466.14
527.01	35175.91
527.18	35681.47
527.36	35524.65
527.53	35756.36
527.70	36044.25
527.87	36488.95
528.04	36301.71
528.21	36212.77
528.38	36065.31
528.55	36711.30
528.72	36334.48
528.89	36624.70
529.07	36435.12
529.24	36376.61
529.41	36437.46
529.58	36121.49
529.75	36201.07
529.92	36554.49
530.09	36575.55
530.26	36446.82
530.43	36617.68
530.60	36753.43
530.77	36797.90
530.94	36938.33
531.11	37013.23
531.28	36610.66
531.46	36940.68
531.63	37001.53
531.80	36884.50
531.97	37195.79
532.14	37186.43
532.31	37448.57
532.48	37212.18
532.65	37617.09
532.82	37364.31
532.99	37914.34
533.16	37312.82
533.33	37748.16
533.50	38087.54
533.67	37900.29
533.84	37677.94
534.01	37614.75
534.18	37584.32
534.35	38218.61
534.52	37640.50
534.69	38387.13
534.86	38249.03
535.03	38022.00
535.20	38485.43
535.37	38656.29
535.54	38705.44
535.71	38574.37
535.88	38272.44
536.05	37860.51
536.22	38396.49
536.38	38150.73
536.55	38366.06
536.72	38370.74
536.89	38497.13
537.06	38600.12
537.23	38852.89
537.40	38689.06
537.57	38759.27
537.74	38705.44
537.91	39262.49
538.08	39126.74
538.25	38974.60
538.42	38738.21
538.59	38873.96
538.75	38555.64
538.92	38862.26
539.09	39026.09
539.26	39082.27
539.43	39328.02
539.60	39269.51
539.77	39098.65
539.94	39353.77
540.11	39271.85
540.28	38944.17
540.44	39526.97
540.61	39311.64
540.78	39400.58
540.95	39157.16
541.12	38789.70
541.29	39531.65
541.46	39332.70
541.62	39889.75
541.79	39756.34
541.96	39442.71
542.13	39772.72
542.30	39917.84
542.47	39962.31
542.63	39669.74
542.80	39660.38
542.97	40217.43
543.14	40954.69
543.31	40133.17
543.48	40243.17
543.64	40964.06
543.81	40254.87
543.98	40725.32
544.15	40573.19
544.32	40598.93
544.48	40727.66
544.65	40910.22
544.82	40238.49
544.99	40732.34
545.16	40870.43
545.32	40666.81
545.49	40961.72
545.66	41584.30
545.83	40982.78
546.00	41329.18
546.16	40861.07
546.33	40840.01
546.50	40547.44
546.67	41202.79
546.83	40980.44
547.00	41078.74
547.17	40980.44
547.34	41305.77
547.50	41198.11
547.67	41570.25
547.84	41476.63
548.00	41017.89
548.17	41443.87
548.34	41390.03
548.51	41537.49
548.67	41670.90
548.84	41567.91
549.01	41116.19
549.18	41787.92
549.34	41663.88
549.51	41801.97
549.68	41682.60
549.84	41359.61
550.01	42162.41
550.18	41656.85
550.34	41965.81
550.51	41998.57
550.68	41785.58
550.84	41607.70
551.01	41993.89
551.18	42073.47
551.34	42007.94
551.51	42419.87
551.68	41640.47
551.84	42572.00
552.01	42148.37
552.18	41965.81
552.34	42169.43
552.51	41804.31
552.68	41846.44
552.84	42218.58
553.01	42227.95
553.18	42284.12
553.34	42230.29
553.51	41956.44
553.67	42377.74
553.84	42646.90
554.01	42377.74
554.17	42590.73
554.34	42443.27
554.51	42932.45
554.67	42660.94
554.84	42419.87
555.00	42436.25
555.17	42658.60
555.33	42557.96
555.50	42532.22
555.67	42462.00
555.83	42417.53
556.00	42990.96
556.16	43260.12
556.33	42967.55
556.50	42682.01
556.66	42902.02
556.83	43030.75
556.99	43552.69
557.16	43377.15
557.32	42719.46
557.49	43033.09
557.65	42885.64
557.82	42895.00
557.98	43119.69
558.15	43061.18
558.32	43372.47
558.48	42906.70
558.65	42796.70
558.81	42878.61
558.98	43131.39
559.14	43157.14
559.31	43131.39
559.47	43299.91
559.64	43332.68
559.80	43777.38
559.97	43133.73
560.13	43042.45
560.30	43189.91
560.46	43112.67
560.63	43091.60
560.79	43615.88
560.96	43901.43
561.12	43487.15
561.29	42969.90
561.45	43608.86
561.61	43491.83
561.78	43540.99
561.94	43391.19
562.11	43304.59
562.27	43564.39
562.44	43126.71
562.60	43587.80
562.77	43290.55
562.93	43117.35
563.10	43508.22
563.26	43269.48
563.42	44100.37
563.59	43442.68
563.75	43288.21
563.92	43817.17
564.08	43632.27
564.24	43929.51
564.41	43777.38
564.57	43522.26
564.74	43618.22
564.90	43711.84
565.07	43716.53
565.23	43564.39
565.39	43892.07
565.56	43950.58
565.72	43419.28
565.88	43779.72
566.05	43491.83
566.21	44053.56
566.38	43559.71
566.54	43749.29
566.70	43798.44
566.87	44215.06
567.03	43676.74
567.19	44348.47
567.36	44184.63
567.52	44030.16
567.68	44144.84
567.85	44058.24
568.01	44041.86
568.17	44039.52
568.34	43833.55
568.50	44147.18
568.66	43728.23
568.83	44325.07
568.99	43503.54
569.15	44107.40
569.32	43732.91
569.48	44030.16
569.64	43683.76
569.81	44102.71
569.97	44081.65
570.13	44289.96
570.30	43955.26
570.46	44184.63
570.62	44037.18
570.78	43805.47
570.95	43739.93
571.11	43863.98
571.27	44020.80
571.43	44278.25
571.60	44397.62
571.76	43655.67
571.92	44282.94
572.09	44559.12
572.25	44044.20
572.41	44556.78
572.57	44170.59
572.74	44505.29
572.90	43686.10
573.06	44343.79
573.22	44163.57
573.38	44058.24
573.55	43672.06
573.71	44463.16
573.87	43959.94
574.03	43863.98
574.20	44411.67
574.36	43948.24
574.52	44528.69
574.68	44425.71
574.84	44041.86
575.01	44278.25
575.17	43945.90
575.33	43852.28
575.49	43936.54
575.65	44861.05
575.82	44112.08
575.98	44296.98
576.14	44474.86
576.30	44439.75
576.46	44542.74
576.62	43812.49
576.79	44289.96
576.95	44196.34
577.11	44313.36
577.27	44355.49
577.43	44456.14
577.59	44060.58
577.75	44360.17
577.92	43964.62
578.08	43889.73
578.24	44032.50
578.40	44093.35
578.56	44091.01
578.72	44313.36
578.88	44589.55
579.04	44624.65
579.21	44282.94
579.37	44133.14
579.53	44140.16
579.69	44046.54
579.85	44414.01
580.01	44552.10
580.17	44425.71
580.33	44383.58
580.49	44507.63
580.65	44406.98
580.82	44444.43
580.98	44217.40
581.14	44430.39
581.30	44514.65
581.46	44538.05
581.62	44280.60
581.78	44837.64
581.94	44535.71
582.10	44428.05
582.26	44498.26
582.42	44465.50
582.58	43971.64
582.74	44219.74
582.90	44868.07
583.06	44224.42
583.22	44926.58
583.38	44847.00
583.54	44430.39
583.70	44446.77
583.86	44697.21
584.02	43887.39
584.18	44666.78
584.34	44371.88
584.50	44711.25
584.66	44678.49
584.82	44404.64
584.98	44526.35
585.14	44687.85
585.30	44636.36
585.46	44189.31
585.62	44287.62
585.78	44865.73
585.94	44158.89
586.10	44545.08
586.26	44437.41
586.42	45078.72
586.58	44769.77
586.74	44528.69
586.90	44442.09
587.06	44722.96
587.22	44350.81
587.38	44374.22
587.54	44596.57
587.70	44746.36
587.86	44832.96
588.02	44903.18
588.18	44886.79
588.34	44423.37
588.49	44201.02
588.65	43959.94
588.81	44091.01
588.97	44334.43
589.13	44250.17
589.29	44175.27
589.45	44304.00
589.61	44271.23
589.77	44460.82
589.93	44641.04
590.08	44968.71
590.24	44683.17
590.40	44676.15
590.56	45102.12
590.72	44865.73
590.88	44713.59
591.04	44917.22
591.20	45371.28
591.35	45029.57
591.51	44556.78
591.67	44547.42
591.83	44940.63
591.99	44877.43
592.15	44690.19
592.31	45003.82
592.46	44802.53
592.62	44816.58
592.78	44896.16
592.94	44767.43
593.10	44238.47
593.26	44847.00
593.41	44744.02
593.57	45015.52
593.73	44889.13
593.89	44839.98
594.05	44891.48
594.20	44769.77
594.36	44863.39
594.52	44781.47
594.68	44921.90
594.84	44774.45
594.99	44872.75
595.15	45069.36
595.31	45492.99
595.47	44821.26
595.62	44769.77
595.78	44495.92
595.94	44839.98
596.10	45001.48
596.25	45308.09
596.41	44884.45
596.57	45151.27
596.73	45064.67
596.88	44428.05
597.04	44608.27
597.20	44662.10
597.36	44329.75
597.51	44779.13
597.67	45083.40
597.83	44580.18
597.99	45118.51
598.14	44737.00
598.30	44638.70
598.46	44746.36
598.61	44540.39
598.77	44926.58
598.93	44610.61
599.09	44949.99
599.24	45357.24
599.40	45097.44
599.56	44879.77
599.71	45048.29
599.87	45382.99
600.03	45041.27
600.18	44559.12
600.34	44720.62
600.50	45345.54
600.65	44175.27
600.81	45027.23
600.97	45172.34
601.12	45029.57
601.28	44786.15
601.44	44685.51
601.59	44713.59
601.75	44598.91
601.91	44631.68
602.06	44907.86
602.22	44828.28
602.37	45045.95
602.53	44737.00
602.69	45127.87
602.84	44516.99
603.00	44460.82
603.16	44781.47
603.31	44931.26
603.47	44629.34
603.62	44809.56
603.78	44774.45
603.94	44505.29
604.09	44741.68
604.25	44657.42
604.40	44870.41
604.56	44575.50
604.71	44741.68
604.87	44376.56
605.03	44828.28
605.18	44399.96
605.34	44697.21
605.49	44739.34
605.65	44872.75
605.80	44641.04
605.96	45006.16
606.12	45272.98
606.27	44947.65
606.43	44664.44
606.58	44556.78
606.74	44638.70
606.89	44594.23
607.05	44605.93
607.20	44910.20
607.36	45001.48
607.51	44893.82
607.67	44825.94
607.82	44388.26
607.98	44882.11
608.13	44048.88
608.29	44481.88
608.44	44278.25
608.60	44570.82
608.75	44289.96
608.91	44516.99
609.06	44100.37
609.22	44493.58
609.37	44493.58
609.53	44538.05
609.68	44500.61
609.84	44479.54
609.99	44095.69
610.15	44142.50
610.30	44210.38
610.46	44247.83
610.61	44573.16
610.76	44217.40
610.92	44367.20
611.07	44460.82
611.23	44458.48
611.38	44540.39
611.54	44201.02
611.69	44367.20
611.84	43971.64
612.00	44149.53
612.15	44004.41
612.31	44030.16
612.46	44116.76
612.62	43929.51
612.77	44575.50
612.92	44793.17
613.08	44334.43
613.23	44081.65
613.39	44179.95
613.54	43810.15
613.69	44224.42
613.85	44133.14
614.00	43693.12
614.15	44189.31
614.31	44147.18
614.46	44315.70
614.62	44121.44
614.77	43856.96
614.92	43854.62
615.08	43674.40
615.23	43805.47
615.38	43594.82
615.54	43428.64
615.69	43592.48
615.84	43789.08
616.00	44100.37
616.15	43473.11
616.30	43718.87
616.46	43173.52
616.61	43210.97
616.76	43239.06
616.92	43119.69
617.07	43012.02
617.22	43061.18
617.37	43047.13
617.53	43320.98
617.68	43454.39
617.83	43594.82
617.99	43442.68
618.14	43470.77
618.29	43447.36
618.45	42995.64
618.60	43227.35
618.75	42803.72
618.90	43253.10
619.06	43435.66
619.21	43419.28
619.36	43896.75
619.51	43402.89
619.67	43138.41
619.82	43098.62
619.97	43538.65
620.12	43358.42
620.28	42815.42
620.43	42817.76
620.58	43267.14
620.73	42892.66
620.89	42918.40
621.04	43248.42
621.19	42705.41
621.34	43026.07
621.49	42630.52
621.65	43068.20
621.80	43040.11
621.95	42534.56
622.10	42398.80
622.25	42546.26
622.41	42539.24
622.56	42431.57
622.71	42836.48
622.86	42370.72
623.01	42600.09
623.16	42813.08
623.32	42611.79
623.47	42646.90
623.62	42459.66
623.77	42033.68
623.92	42628.18
624.07	42021.98
624.23	42071.13
624.38	42667.97
624.53	42380.08
624.68	42670.31
624.83	42377.74
624.98	41738.77
625.13	42017.30
625.29	41574.94
625.44	41965.81
625.59	41808.99
625.74	41918.99
625.89	41603.02
626.04	41720.05
626.19	42141.35
626.34	42169.43
626.49	42515.83
626.65	42082.83
626.80	42497.11
626.95	42057.09
627.10	42057.09
627.25	42005.59
627.40	41755.16
627.55	41249.60
627.70	41207.47
627.85	41420.46
628.00	41319.82
628.15	41975.17
628.30	41361.95
628.45	41614.72
628.60	41621.75
628.76	41598.34
628.91	41567.91
629.06	41518.76
629.21	41631.11
629.36	41490.68
629.51	41099.81
629.66	41429.82
629.81	41076.40
629.96	41319.82
630.11	41378.33
630.26	41844.10
630.41	41677.92
630.56	41303.43
630.71	41062.36
630.86	41099.81
631.01	41027.25
631.16	40722.98
631.31	41275.35
631.46	40491.27
631.61	40889.16
631.76	40781.49
631.91	41090.44
632.06	41151.30
632.21	41476.63
632.36	40952.35
632.51	40980.44
632.66	40781.49
632.81	40545.10
632.96	40587.23
633.10	40416.37
633.25	40704.26
633.40	40514.67
633.55	41146.62
633.70	40751.07
633.85	40706.60
634.00	40540.42
634.15	40779.15
634.30	40320.41
634.45	40502.97
634.60	40575.53
634.75	40882.14
634.90	40311.05
635.05	40910.22
635.19	39910.82
635.34	40502.97
635.49	40706.60
635.64	40250.19
635.79	40091.04
635.94	40453.82
636.09	40432.75
636.24	39983.37
636.39	40051.25
636.53	39744.64
636.68	39868.69
636.83	40086.36
636.98	40058.27
637.13	39651.02
637.28	40081.67
637.43	40409.35
637.57	40065.29
637.72	39901.45
637.87	39950.60
638.02	39952.94
638.17	39779.74
638.32	40009.12
638.46	39800.81
638.61	39814.85
638.76	39709.53
638.91	39810.17
639.06	39669.74
639.20	40020.82
639.35	39894.43
639.50	39676.76
639.65	39662.72
639.80	40140.19
639.94	39695.49
640.09	39475.48
640.24	39763.36
640.39	39063.54
640.54	39210.99
640.68	39449.73
640.83	39573.78
640.98	39342.06
641.13	39019.07
641.27	39316.32
641.42	39599.52
641.57	39950.60
641.72	39290.57
641.86	39241.42
642.01	38967.58
642.16	39288.23
642.31	38623.52
642.45	38976.94
642.60	38726.50
642.75	39227.38
642.90	39213.34
643.04	38888.00
643.19	38726.50
643.34	39042.48
643.48	38948.85
643.63	38869.28
643.78	38941.83
643.93	38340.32
644.07	38506.49
644.22	38581.39
644.37	38663.31
644.51	38888.00
644.66	38754.59
644.81	38876.30
644.95	38782.68
645.10	38787.36
645.25	38923.11
645.39	39028.43
645.54	38976.94
645.69	38979.28
645.83	38703.10
645.98	38892.68
646.13	39030.77
646.27	38653.95
646.42	39126.74
646.57	38749.91
646.71	38611.82
646.86	38583.73
647.00	38778.00
647.15	38239.67
647.30	38155.41
647.44	38511.17
647.59	38305.21
647.74	38410.53
647.88	38045.41
648.03	38609.48
648.17	38607.14
648.32	38293.50
648.47	38218.61
648.61	37968.17
648.76	38120.31
648.90	38141.37
649.05	38274.78
649.20	37989.24
649.34	38176.48
649.49	38106.26
649.63	37883.91
649.78	37668.58
649.92	37663.90
650.07	38429.26
650.21	37801.99
650.36	37502.40
650.51	37872.21
650.65	37851.14
650.80	37993.92
650.94	37989.24
651.09	38501.81
651.23	37862.85
651.38	37720.07
651.52	36928.97
651.67	37383.04
651.81	37593.68
651.96	37322.18
652.10	37240.26
652.25	37441.55
652.39	37682.62
652.54	37579.64
652.68	37574.96
652.83	37539.85
652.97	37659.22
653.12	37010.89
653.26	37233.24
653.41	38099.24
653.55	37095.15
653.70	37062.38
653.84	37153.66
653.99	37235.58
654.13	37226.22
654.27	37010.89
654.42	36823.65
654.56	37516.45
654.71	36891.52
654.85	37132.60
655.00	37081.11
655.14	36744.07
655.29	36825.99
655.43	36833.01
655.57	36570.87
655.72	36287.67
655.86	36285.33
656.01	36938.33
656.15	36484.27
656.30	36669.17
656.44	36802.58
656.58	36594.28
656.73	36423.42
656.87	36421.08
657.01	36589.59
657.16	36669.17
657.30	36510.02
657.45	36144.89
657.59	36486.61
657.73	36285.33
657.88	36318.09
658.02	36935.99
658.16	36985.15
658.31	36779.18
658.45	36348.52
658.60	36259.58
658.74	36720.66
658.88	36142.55
659.03	36161.28
659.17	35908.50
659.31	35969.35
659.46	35798.49
659.60	36240.86
659.74	36463.21
659.89	35269.53
660.03	35812.54
660.17	35695.51
660.32	36034.89
660.46	35934.24
660.60	35744.66
660.74	35541.03
660.89	35756.36
661.03	35772.75
661.17	35391.24
661.32	35262.51
661.46	35512.95
661.60	35651.04
661.74	35386.56
661.89	35578.48
662.03	35342.09
662.17	35061.22
662.31	35351.45
662.46	35309.32
662.60	35433.37
662.74	35391.24
662.88	34993.35
663.03	34630.57
663.17	34415.24
663.31	34937.18
663.45	34920.79
663.60	34958.24
663.74	35089.31
663.88	34394.17
664.02	34497.16
664.17	34663.33
664.31	34286.51
664.45	34752.27
664.59	34471.41
664.73	34628.23
664.88	34464.39
665.02	34429.28
665.16	34029.05
665.30	34239.70
665.44	33914.36
665.59	33956.49
665.73	34148.42
665.87	33731.80
666.01	33872.23
666.15	33872.23
666.29	33879.25
666.44	33914.36
666.58	33621.80
666.72	33755.21
666.86	33666.27
667.00	34000.96
667.14	33450.94
667.28	33399.44
667.43	32978.15
667.57	33261.35
667.71	32954.74
667.85	33322.21
667.99	33298.80
668.13	33184.12
668.27	33237.95
668.41	33390.08
668.56	32584.94
668.70	33104.54
668.84	32821.33
668.98	32673.88
669.12	32746.44
669.26	32842.40
669.40	32751.12
669.54	32765.16
669.68	32868.14
669.82	32348.54
669.96	32545.15
670.10	32732.39
670.25	32531.11
670.39	32540.47
670.53	32093.43
670.67	32322.80
670.81	32650.47
670.95	32098.11
671.09	32063.00
671.23	31751.71
671.37	31676.81
671.51	32233.86
671.65	31728.30
671.79	31786.82
671.93	31480.21
672.07	31934.27
672.21	31929.59
672.35	31681.49
672.49	31573.83
672.63	31695.53
672.77	31524.68
672.91	31234.45
673.05	31503.61
673.19	31208.70
673.33	31145.51
673.47	31250.83
673.61	30820.17
673.75	30941.88
673.89	31054.23
674.03	30866.98
674.17	30551.01
674.31	30761.66
674.45	30675.06
674.59	30665.70
674.73	30824.86
674.87	30876.35
675.01	30649.32
675.15	30670.38
675.29	30108.65
675.43	30363.77
675.56	30457.39
675.70	30239.72
675.84	30155.46
675.98	29275.42
676.12	30368.45
676.26	30171.85
676.40	29685.01
676.54	30043.12
676.68	29640.54
676.82	29095.20
676.96	29750.55
677.10	29619.48
677.23	29062.43
677.37	29022.64
677.51	28863.49
677.65	28907.96
677.79	28521.77
677.93	28851.78
678.07	28540.49
678.21	28350.91
678.34	28472.62
678.48	28051.32
678.62	28390.70
678.76	27833.65
678.90	27723.65
679.04	27611.30
679.18	28044.30
679.31	27599.60
679.45	27941.32
679.59	27473.21
679.73	27154.90
679.87	27381.93
680.00	27484.91
680.14	27157.24
680.28	27030.85
680.42	27269.58
680.56	27061.27
680.70	26911.48
680.83	27557.47
680.97	26724.24
681.11	26864.67
681.25	26607.21
681.39	26391.88
681.52	26649.34
681.66	26588.49
681.80	26682.11
681.94	26244.43
682.07	26345.07
682.21	26099.31
682.35	25926.11
682.49	25989.31
682.62	25827.81
682.76	25692.06
682.90	26057.18
683.04	25467.37
683.17	25439.28
683.31	25764.62
683.45	25427.58
683.59	25151.40
683.72	25343.32
683.86	25118.63
684.00	25245.02
684.13	25539.93
684.27	24793.29
684.41	24652.86
684.55	24362.64
684.68	24694.99
684.82	24561.58
684.96	24474.98
685.09	24442.21
685.23	24397.74
685.37	24299.44
685.50	24067.73
685.64	23967.09
685.78	24041.98
685.91	23517.70
686.05	23733.03
686.19	23459.19
686.32	23522.38
686.46	23281.31
686.60	22918.53
686.73	23147.90
686.87	23150.24
687.01	22998.10
687.14	22913.84
687.28	22698.52
687.42	23201.73
687.55	23021.51
687.69	22923.21
687.82	22635.32
687.96	22897.46
688.10	22525.32
688.23	22345.09
688.37	22092.32
688.50	22059.55
688.64	22150.83
688.78	21905.07
688.91	22178.92
689.05	22178.92
689.18	21996.35
689.32	21514.20
689.46	21781.03
689.59	21823.16
689.73	21956.57
689.86	21282.49
690.00	21228.66
690.13	21434.63
690.27	21298.88
690.41	21053.12
690.54	20938.43
690.68	20730.12
690.81	20915.03
690.95	20793.32
691.08	20580.33
691.22	20755.87
691.35	20711.40
691.49	20503.09
691.62	20772.25
691.76	20058.39
691.89	20444.58
692.03	20332.23
692.16	20067.75
692.30	20133.29
692.43	19955.41
692.57	19625.39
692.70	19859.45
692.84	19709.65
692.97	19707.31
693.11	19550.49
693.24	19466.24
693.38	19426.45
693.51	19140.90
693.65	19365.59
693.78	19548.15
693.92	19286.01
694.05	19225.16
694.19	19122.18
694.32	18799.18
694.45	18679.82
694.59	18796.84
694.72	18288.95
694.86	18586.19
694.99	18597.90
695.13	18572.15
695.26	18373.21
695.39	18012.76
695.53	18207.03
695.66	18211.71
695.80	18319.37
695.93	18176.60
696.07	18181.28
696.20	17954.25
696.33	17811.48
696.47	17628.92
696.60	18012.76
696.73	17837.22
696.87	17518.91
697.00	17734.24
697.14	17664.02
697.27	17432.31
697.40	17453.37
697.54	17280.18
697.67	17341.03
697.80	16961.86
697.94	16898.67
698.07	16671.64
698.21	16367.37
698.34	16767.60
698.47	16737.17
698.61	16545.25
698.74	16437.58
698.87	16308.85
699.01	15941.39
699.14	15831.38
699.27	16042.03
699.40	15838.41
699.54	15847.77
699.67	15749.46
699.80	15807.98
699.94	15955.43
700.07	15873.51
700.20	15716.70
700.34	15747.12
700.47	15798.62
700.60	15875.85
700.73	15889.90
700.87	15637.12
701.00	15311.78
701.13	15374.98
701.26	15147.95
701.40	15108.16
701.53	15019.22
701.66	15117.52
701.79	15075.39
701.93	15000.49
702.06	14738.35
702.19	14754.74
702.32	14820.27
702.46	14916.23
702.59	14705.59
702.72	14651.75
702.85	14860.06
702.99	14602.60
703.12	14586.22
703.25	14361.53
703.38	13891.08
703.51	14064.28
703.65	14010.45
703.78	14221.10
703.91	13968.32
704.04	13776.39
704.17	14129.81
704.31	13844.27
704.44	13783.41
704.57	13710.86
704.70	13584.47
704.83	13628.94
704.96	13507.23
705.10	13467.44
705.23	13467.44
>>>>>End Processed Spectral Data<<<<<
