SpectraSuite Data File
++++++++++++++++++++++++++++++++++++
Date: Fri Oct 25 11:34:45 EDT 2013
User: price-jones
Dark Spectrum Present: No
Reference Spectrum Present: No
Number of Sampled Component Spectra: 1
Spectrometers: USB2+H05261
Integration Time (usec): 100000 (USB2+H05261)
Spectra Averaged: 1 (USB2+H05261)
Boxcar Smoothing: 0 (USB2+H05261)
Correct for Electrical Dark: No (USB2+H05261)
Strobe/Lamp Enabled: No (USB2+H05261)
Correct for Detector Non-linearity: No (USB2+H05261)
Correct for Stray Light: No (USB2+H05261)
Number of Pixels in Processed Spectrum: 2048
>>>>>Begin Processed Spectral Data<<<<<
365.73	301.93
365.92	301.93
366.12	301.93
366.32	198.95
366.52	124.05
366.72	201.29
366.91	184.90
367.11	257.46
367.31	149.79
367.51	252.78
367.70	173.20
367.90	194.26
368.10	184.90
368.30	210.65
368.49	236.39
368.69	273.84
368.89	135.75
369.09	187.24
369.28	208.31
369.48	210.65
369.68	198.95
369.87	259.80
370.07	266.82
370.27	327.68
370.47	379.17
370.66	402.57
370.86	484.49
371.06	564.07
371.25	557.05
371.45	482.15
371.65	601.52
371.84	528.96
372.04	582.79
372.24	496.19
372.44	697.48
372.63	557.05
372.83	592.16
373.03	620.24
373.22	580.45
373.42	573.43
373.62	592.16
373.81	601.52
374.01	624.92
374.21	662.37
374.40	557.05
374.60	699.82
374.79	594.50
374.99	627.26
375.19	667.05
375.38	648.33
375.58	603.86
375.78	655.35
375.97	613.22
376.17	746.63
376.37	589.82
376.56	667.05
376.76	606.20
376.95	578.11
377.15	657.69
377.35	667.05
377.54	657.69
377.74	678.76
377.93	676.41
378.13	664.71
378.33	720.88
378.52	648.33
378.72	671.73
378.91	685.78
379.11	695.14
379.31	699.82
379.50	631.94
379.70	765.36
379.89	720.88
380.09	711.52
380.28	720.88
380.48	690.46
380.68	716.20
380.87	702.16
381.07	751.31
381.26	774.72
381.46	720.88
381.65	676.41
381.85	667.05
382.04	732.59
382.24	791.10
382.43	734.93
382.63	669.39
382.83	784.08
383.02	767.70
383.22	741.95
383.41	732.59
383.61	844.93
383.80	870.68
384.00	828.55
384.19	765.36
384.39	786.42
384.58	849.61
384.78	854.30
384.97	837.91
385.17	851.96
385.36	816.85
385.56	814.51
385.75	753.65
385.95	847.27
386.14	889.40
386.34	889.40
386.53	840.25
386.72	873.02
386.92	805.14
387.11	898.77
387.31	812.17
387.50	870.68
387.70	875.36
387.89	877.70
388.09	826.21
388.28	894.08
388.48	854.30
388.67	840.25
388.86	840.25
389.06	868.34
389.25	915.15
389.45	894.08
389.64	950.26
389.84	873.02
390.03	901.11
390.22	910.47
390.42	917.49
390.61	959.62
390.81	910.47
391.00	990.05
391.19	966.64
391.39	891.74
391.58	983.02
391.78	917.49
391.97	933.87
392.16	980.68
392.36	1057.92
392.55	894.08
392.75	971.32
392.94	1046.22
393.13	959.62
393.33	1046.22
393.52	999.41
393.71	1025.15
393.91	1027.50
394.10	1069.62
394.29	1043.88
394.49	999.41
394.68	1146.86
394.88	1086.01
395.07	1114.10
395.26	1078.99
395.46	1128.14
395.65	1114.10
395.84	1074.31
396.04	1181.97
396.23	1034.52
396.42	1043.88
396.62	1212.40
396.81	1181.97
397.00	1104.73
397.19	1142.18
397.39	1186.65
397.58	1214.74
397.77	1149.20
397.97	1149.20
398.16	1174.95
398.35	1252.19
398.55	1132.82
398.74	1205.38
398.93	1245.16
399.12	1336.45
399.32	1247.51
399.51	1203.04
399.70	1322.40
399.90	1179.63
400.09	1327.08
400.28	1439.43
400.47	1376.24
400.67	1350.49
400.86	1350.49
401.05	1322.40
401.24	1313.04
401.44	1287.29
401.63	1341.13
401.82	1401.98
402.01	1327.08
402.21	1390.28
402.40	1465.18
402.59	1413.68
402.78	1310.70
402.97	1481.56
403.17	1486.24
403.36	1448.79
403.55	1434.75
403.74	1565.82
403.93	1544.75
404.13	1537.73
404.32	1486.24
404.51	1521.35
404.70	1572.84
404.89	1540.07
405.09	1638.38
405.28	1511.99
405.47	1650.08
405.66	1624.33
405.85	1685.19
406.05	1645.40
406.24	1790.51
406.43	1668.80
406.62	1753.06
406.81	1666.46
407.00	1710.93
407.20	1685.19
407.39	1729.66
407.58	1746.04
407.77	1764.76
407.96	1818.60
408.15	1809.23
408.34	1764.76
408.54	1921.58
408.73	1811.57
408.92	1849.02
409.11	1823.28
409.30	1966.05
409.49	1907.54
409.68	1914.56
409.87	1818.60
410.07	1916.90
410.26	1895.83
410.45	1937.96
410.64	1912.22
410.83	2052.65
411.02	1994.14
411.21	2015.20
411.40	1944.99
411.59	2118.18
411.78	2165.00
411.98	2157.97
412.17	2157.97
412.36	2176.70
412.55	2202.44
412.74	2195.42
412.93	2246.91
413.12	2157.97
413.31	2172.02
413.50	2221.17
413.69	2181.38
413.88	2445.86
414.07	2258.62
414.26	2326.49
414.45	2385.01
414.64	2422.45
414.83	2417.77
415.02	2509.05
415.22	2602.68
415.41	2459.90
415.60	2525.44
415.79	2555.86
415.98	2553.52
416.17	2590.97
416.36	2567.57
416.55	2541.82
416.74	2597.99
416.93	2661.19
417.12	2670.55
417.31	2672.89
417.50	2794.60
417.69	2810.98
417.88	2775.88
418.07	2761.83
418.26	2892.90
418.45	2789.92
418.64	2895.24
418.83	2832.05
419.02	2904.60
419.21	2839.07
419.39	2935.03
419.58	2932.69
419.77	2799.28
419.96	3056.74
420.15	2958.44
420.34	2986.52
420.53	3049.72
420.72	3019.29
420.91	3131.64
421.10	3091.85
421.29	3197.17
421.48	3117.59
421.67	3152.70
421.86	3122.27
422.05	3096.53
422.24	3105.89
422.43	3096.53
422.61	3229.94
422.80	3241.64
422.99	3251.00
423.18	3215.90
423.37	3295.47
423.56	3215.90
423.75	3248.66
423.94	3234.62
424.13	3164.40
424.32	3035.67
424.50	3239.30
424.69	3419.52
424.88	3335.26
425.07	3307.18
425.26	3185.47
425.45	3148.02
425.64	3176.11
425.83	3262.71
426.01	3428.88
426.20	3283.77
426.39	3265.05
426.58	3358.67
426.77	3337.60
426.96	3201.85
427.15	3356.33
427.33	3375.05
427.52	3300.16
427.71	3426.54
427.90	3403.14
428.09	3424.20
428.28	3480.38
428.46	3557.61
428.65	3442.93
428.84	3700.39
429.03	3616.13
429.22	3609.11
429.40	3569.32
429.59	3599.74
429.78	3471.01
429.97	3501.44
430.16	3637.19
430.34	3637.19
430.53	3669.96
430.72	3737.84
430.91	3700.39
431.10	3566.98
431.28	3695.71
431.47	3742.52
431.66	3833.80
431.85	3630.17
432.03	3754.22
432.22	3859.54
432.41	3861.88
432.60	3796.35
432.79	3988.27
432.97	3992.95
433.16	3946.14
433.35	3936.78
433.54	3948.48
433.72	4004.66
433.91	3976.57
434.10	4095.94
434.28	3974.23
434.47	3985.93
434.66	4086.58
434.85	4117.00
435.03	4142.75
435.22	4039.76
435.41	4234.03
435.59	4187.22
435.78	4311.27
435.97	4166.15
436.16	4187.22
436.34	4205.94
436.53	4091.26
436.72	4362.76
436.90	4051.47
437.09	4397.87
437.28	4114.66
437.46	4161.47
437.65	4210.62
437.84	4306.59
438.02	4353.40
438.21	4379.14
438.40	4369.78
438.58	4409.57
438.77	4500.85
438.96	4484.47
439.14	4587.45
439.33	4704.48
439.52	4634.26
439.70	4737.24
439.89	4739.58
440.08	4770.01
440.26	4746.61
440.45	4695.11
440.63	4830.87
440.82	4873.00
441.01	4793.42
441.19	4891.72
441.38	5107.05
441.57	4983.00
441.75	5114.07
441.94	5226.42
442.12	5228.76
442.31	5057.90
442.50	5111.73
442.68	5083.64
442.87	5308.34
443.05	5163.22
443.24	5315.36
443.43	5116.41
443.61	5275.57
443.80	5488.56
443.98	5172.58
444.17	5039.17
444.35	5240.46
444.54	5437.06
444.73	5287.27
444.91	5298.97
445.10	5338.76
445.28	5240.46
445.47	5364.51
445.65	5334.08
445.84	5336.42
446.02	5420.68
446.21	5420.68
446.39	5390.25
446.58	5526.00
446.77	5233.44
446.95	5425.36
447.14	5355.15
447.32	5341.10
447.51	5404.30
447.69	5376.21
447.88	5526.00
448.06	5537.71
448.25	5203.01
448.43	5416.00
448.62	5390.25
448.80	5469.83
448.99	5434.72
449.17	5696.86
449.36	5633.67
449.54	5469.83
449.73	5778.78
449.91	5748.36
450.10	5746.02
450.28	5706.23
450.46	5846.66
450.65	5790.49
450.83	5830.27
451.02	5818.57
451.20	5951.98
451.39	5720.27
451.57	5806.87
451.76	5832.62
451.94	5863.04
452.13	5877.09
452.31	5837.30
452.49	6003.47
452.68	5970.71
452.86	5968.37
453.05	6122.84
453.23	6094.76
453.42	5895.81
453.60	6026.88
453.78	6129.86
453.97	6038.58
454.15	6073.69
454.34	6078.37
454.52	6101.78
454.70	6157.95
454.89	6115.82
455.07	6120.50
455.26	6284.34
455.44	6146.25
455.62	6183.70
455.81	6406.05
455.99	6448.18
456.17	6328.81
456.36	6377.96
456.54	6609.67
456.73	6506.69
456.91	6808.62
457.09	6537.12
457.28	6642.44
457.46	6661.16
457.64	6677.55
457.83	6684.57
458.01	6562.86
458.19	6792.23
458.38	6532.44
458.56	6822.66
458.74	6581.59
458.93	6920.96
459.11	6757.13
459.29	6881.18
459.48	6937.35
459.66	6895.22
459.84	6974.80
460.03	6930.33
460.21	6832.02
460.39	6949.05
460.57	7246.30
460.76	7183.10
460.94	7101.19
461.12	7002.88
461.31	7005.22
461.49	7023.95
461.67	7234.60
461.85	7227.57
462.04	7089.48
462.22	7290.77
462.40	7332.90
462.59	7133.95
462.77	7372.69
462.95	7368.01
463.13	7346.94
463.32	7410.14
463.50	7442.90
463.68	7435.88
463.86	7737.81
464.05	7314.17
464.23	7571.63
464.41	7592.70
464.59	7426.52
464.78	7564.61
464.96	7691.00
465.14	7639.51
465.32	7702.70
465.50	7522.48
465.69	7557.59
465.87	7555.25
466.05	7606.74
466.23	7681.64
466.41	7838.45
466.60	7747.17
466.78	7672.28
466.96	7742.49
467.14	7777.60
467.32	7709.72
467.51	7843.14
467.69	7683.98
467.87	7810.37
468.05	7868.88
468.23	7737.81
468.41	7709.72
468.60	8128.68
468.78	7859.52
468.96	8042.08
469.14	8088.89
469.32	8135.70
469.50	8126.34
469.69	8140.38
469.87	8358.05
470.05	8159.11
470.23	8259.75
470.41	8306.56
470.59	8224.64
470.77	8271.45
470.95	8341.67
471.14	8641.26
471.32	8224.64
471.50	8786.37
471.68	8374.44
471.86	8505.51
472.04	8571.04
472.22	8744.24
472.40	8676.37
472.58	8549.98
472.77	8734.88
472.95	8788.71
473.13	9064.89
473.31	8767.65
473.49	8809.78
473.67	9170.22
473.85	9015.74
474.03	9095.32
474.21	9252.14
474.39	9242.78
474.57	9123.41
474.75	9231.07
474.93	9135.11
475.12	9357.46
475.30	9584.49
475.48	9462.79
475.66	9582.15
475.84	9666.41
476.02	9771.74
476.20	9556.41
476.38	9741.31
476.56	9928.55
476.74	10017.49
476.92	9930.89
477.10	10136.86
477.28	10218.78
477.46	10097.07
477.64	10157.92
477.82	10214.10
478.00	10436.45
478.18	10391.98
478.36	10572.20
478.54	10789.87
478.72	10750.08
478.90	10883.49
479.08	10991.16
479.26	10832.00
479.44	11103.50
479.62	11147.97
479.80	11192.44
479.98	11274.36
480.16	11655.87
480.34	11517.78
480.52	11431.18
480.70	11522.46
480.88	11604.38
481.06	11585.65
481.24	11777.58
481.41	11850.13
481.59	11976.52
481.77	12149.72
481.95	12304.20
482.13	12315.90
482.31	12423.56
482.49	12432.93
482.67	12706.77
482.85	12648.26
483.03	12854.22
483.21	12896.35
483.39	12886.99
483.57	13083.59
483.74	13055.51
483.92	13071.89
484.10	13095.30
484.28	13678.09
484.46	13818.52
484.64	13940.23
484.82	13563.40
485.00	13795.12
485.18	14115.77
485.35	14099.39
485.53	14111.09
485.71	14136.84
485.89	14448.13
486.07	14445.79
486.25	14249.18
486.43	14693.88
486.61	14726.65
486.78	14974.75
486.96	14967.73
487.14	15023.90
487.32	15176.03
487.50	15463.92
487.68	15550.52
487.85	15779.89
488.03	15793.94
488.21	16053.73
488.39	15737.76
488.57	16053.73
488.75	16219.91
488.92	16554.61
489.10	16835.47
489.28	16339.28
489.46	16601.42
489.64	16959.52
489.81	17261.45
489.99	16922.07
490.17	17261.45
490.35	17554.02
490.53	17406.56
490.70	17841.90
490.88	17486.14
491.06	17661.68
491.24	17937.87
491.41	18099.36
491.59	18059.57
491.77	17975.31
491.95	18485.55
492.13	18527.68
492.30	18579.17
492.48	18434.06
492.66	18824.93
492.84	18504.28
493.01	19028.56
493.19	18831.95
493.37	19014.51
493.54	19218.14
493.72	19396.02
493.90	19386.66
494.08	19625.39
494.25	19449.85
494.43	19859.45
494.61	19852.42
494.79	20013.92
494.96	19814.98
495.14	20217.55
495.32	20542.88
495.49	20599.05
495.67	20439.90
495.85	20798.00
496.02	20713.74
496.20	21123.33
496.38	20989.92
496.55	21212.28
496.73	21598.46
496.91	21394.84
497.09	21476.76
497.26	21589.10
497.44	21404.20
497.62	21528.25
497.79	21979.97
497.97	22071.25
498.14	22061.89
498.32	22387.22
498.50	22249.13
498.67	22410.63
498.85	22485.53
499.03	22656.39
499.20	22609.58
499.38	22834.27
499.56	22904.48
499.73	23129.17
499.91	23197.05
500.08	23484.94
500.26	23044.91
500.44	23323.44
500.61	23248.54
500.79	23122.15
500.97	23754.10
501.14	23810.27
501.32	23562.17
501.49	23711.97
501.67	24226.89
501.84	24240.93
502.02	24238.59
502.20	23995.17
502.37	24297.10
502.55	24219.86
502.72	24297.10
502.90	24362.64
503.07	24100.50
503.25	24486.68
503.43	24533.50
503.60	24926.71
503.78	24364.98
503.95	24915.00
504.13	25057.78
504.30	25095.22
504.48	24795.64
504.65	25158.42
504.83	25165.44
505.01	25560.99
505.18	25488.43
505.36	25830.15
505.53	25640.57
505.71	25893.35
505.88	25759.94
506.06	26185.91
506.23	26010.37
506.41	26022.08
506.58	25926.11
506.76	26349.75
506.93	26623.59
507.11	26211.66
507.28	26429.33
507.46	26443.37
507.63	26714.87
507.81	26534.65
507.98	26359.11
508.16	26883.39
508.33	27395.97
508.50	27056.59
508.68	27264.90
508.85	27253.20
509.03	27178.30
509.20	26972.33
509.38	27515.34
509.55	27693.22
509.73	27733.01
509.90	27843.01
510.08	27599.60
510.25	27690.88
510.42	27934.29
510.60	28154.30
510.77	28308.78
510.95	28226.86
511.12	28144.94
511.30	28261.97
511.47	28580.28
511.64	28168.35
511.82	28620.07
511.99	28603.69
512.17	28402.40
512.34	28863.49
512.51	29057.75
512.69	28851.78
512.86	28844.76
513.04	28996.90
513.21	29191.16
513.38	29551.60
513.56	29067.11
513.73	29376.06
513.90	29631.18
514.08	29221.59
514.25	29479.05
514.43	29907.37
514.60	29905.02
514.77	29844.17
514.95	29998.65
515.12	29713.10
515.29	29654.59
515.47	29930.77
515.64	30099.29
515.81	30068.86
515.99	30024.39
516.16	30429.30
516.33	30515.90
516.51	30352.07
516.68	30703.15
516.85	30272.49
517.03	30696.13
517.20	30813.15
517.37	31075.29
517.54	30972.31
517.72	30930.18
517.89	30551.01
518.06	31325.73
518.24	30913.80
518.41	31178.28
518.58	31061.25
518.75	31187.64
518.93	31281.26
519.10	31786.82
519.27	31854.69
519.45	31529.36
519.62	31789.16
519.79	32032.57
519.96	31463.82
520.14	32187.05
520.31	31571.49
520.48	32039.59
520.65	31983.42
520.83	32297.05
521.00	32662.18
521.17	32261.94
521.34	32449.19
521.52	32070.02
521.69	32463.23
521.86	32491.32
522.03	32797.93
522.20	32783.88
522.38	32975.81
522.55	32737.07
522.72	32940.70
522.89	33186.46
523.07	33586.69
523.24	32964.10
523.41	33151.35
523.58	33158.37
523.75	33528.17
523.92	33752.87
524.10	33422.85
524.27	33692.01
524.44	33823.08
524.61	33556.26
524.78	33656.90
524.96	33954.15
525.13	33888.62
525.30	34019.69
525.47	34377.79
525.64	34108.63
525.81	34022.03
525.98	34153.10
526.16	34199.91
526.33	33500.09
526.50	34419.92
526.67	34174.16
526.84	33977.56
527.01	34382.47
527.18	34445.66
527.36	34553.33
527.53	34625.89
527.70	34775.68
527.87	34700.78
528.04	34845.90
528.21	35014.41
528.38	34668.02
528.55	35014.41
528.72	35395.92
528.89	34960.58
529.07	34609.50
529.24	35136.12
529.41	35452.09
529.58	35241.45
529.75	35526.99
529.92	35316.34
530.09	35283.58
530.26	35569.12
530.43	35952.97
530.60	35615.93
530.77	35271.87
530.94	35323.36
531.11	35257.83
531.28	35599.55
531.46	35379.54
531.63	35831.26
531.80	36189.36
531.97	35749.34
532.14	36135.53
532.31	35908.50
532.48	36425.76
532.65	36275.96
532.82	36156.60
532.99	36170.64
533.16	36025.53
533.33	36582.57
533.50	36327.45
533.67	36786.20
533.84	36114.47
534.01	36598.96
534.18	36664.49
534.35	37020.25
534.52	36966.42
534.69	37184.09
534.86	36968.76
535.03	36842.37
535.20	37099.83
535.37	37598.37
535.54	37099.83
535.71	36868.12
535.88	37191.11
536.05	37537.51
536.22	37305.80
536.38	36996.85
536.55	37242.60
536.72	36980.46
536.89	37404.10
537.06	37457.93
537.23	37907.32
537.40	37525.81
537.57	37481.34
537.74	37214.52
537.91	38089.88
538.08	37743.48
538.25	37539.85
538.42	37940.08
538.59	37867.53
538.75	37940.08
538.92	38143.71
539.09	38146.05
539.26	38211.59
539.43	37895.61
539.60	38188.18
539.77	38183.50
539.94	38712.46
540.11	38281.80
540.28	38515.86
540.44	38340.32
540.61	38375.42
540.78	38064.13
540.95	38293.50
541.12	38314.57
541.29	38445.64
541.46	38705.44
541.62	38642.24
541.79	38543.94
541.96	38134.35
542.13	38630.54
542.30	38600.12
542.47	38869.28
542.63	38824.81
542.80	39339.72
542.97	39482.50
543.14	39257.81
543.31	39171.21
543.48	38866.94
543.64	39887.41
543.81	39775.06
543.98	39330.36
544.15	39934.22
544.32	39222.70
544.48	40184.66
544.65	40030.18
544.82	39866.34
544.99	39618.25
545.16	39529.31
545.32	40165.93
545.49	40201.04
545.66	40231.47
545.83	40079.33
546.00	40016.14
546.16	39859.32
546.33	40142.53
546.50	39798.47
546.67	40224.45
546.83	39885.07
547.00	39845.28
547.17	40423.39
547.34	40023.16
547.50	40378.92
547.67	40832.99
547.84	40655.11
548.00	40297.00
548.17	40650.42
548.34	40453.82
548.51	40676.17
548.67	40767.45
548.84	40872.78
549.01	40474.88
549.18	40563.82
549.34	40917.25
549.51	41254.28
549.68	41043.63
549.84	40823.62
550.01	40996.82
550.18	40584.89
550.34	40954.69
550.51	41062.36
550.68	41305.77
550.84	41006.19
551.01	41193.43
551.18	40741.71
551.34	41125.55
551.51	40889.16
551.68	41141.94
551.84	41102.15
552.01	41102.15
552.18	41216.83
552.34	41221.52
552.51	41155.98
552.68	41228.54
552.84	41581.96
553.01	41645.15
553.18	41600.68
553.34	41439.18
553.51	41242.58
553.67	41909.63
553.84	41956.44
554.01	41663.88
554.17	41926.02
554.34	41949.42
554.51	41666.22
554.67	42045.38
554.84	41865.16
555.00	42029.00
555.17	41808.99
555.33	41996.23
555.50	41951.76
555.67	42054.75
555.83	41897.93
556.00	42443.27
556.16	42686.69
556.33	42452.64
556.50	42195.18
556.66	42459.66
556.83	42043.04
556.99	42663.28
557.16	42749.88
557.32	42494.77
557.49	43096.28
557.65	42342.63
557.82	42660.94
557.98	42337.95
558.15	42450.30
558.32	42724.14
558.48	42307.52
558.65	42562.64
558.81	42572.00
558.98	42969.90
559.14	42473.70
559.31	42665.63
559.47	42829.46
559.64	42731.16
559.80	42890.32
559.97	43103.31
560.13	42731.16
560.30	42843.51
560.46	43056.50
560.63	43236.72
560.79	42972.24
560.96	43033.09
561.12	42719.46
561.29	43105.65
561.45	43061.18
561.61	42796.70
561.78	43171.18
561.94	42993.30
562.11	42986.28
562.27	43112.67
562.44	43285.87
562.60	43285.87
562.77	43250.76
562.93	43512.90
563.10	43627.59
563.26	43021.39
563.42	43779.72
563.59	43084.58
563.75	43143.09
563.92	43335.02
564.08	43543.33
564.24	43377.15
564.41	43611.20
564.57	43665.03
564.74	43255.44
564.90	43077.56
565.07	43512.90
565.23	43388.85
565.39	43606.52
565.56	43491.83
565.72	43351.40
565.88	43889.73
566.05	43882.70
566.21	43412.26
566.38	44060.58
566.54	43938.88
566.70	43945.90
566.87	44093.35
567.03	43702.48
567.19	43892.07
567.36	43976.33
567.52	43838.23
567.68	44142.50
567.85	43796.10
568.01	44037.18
568.17	43714.19
568.34	43915.47
568.50	44053.56
568.66	43863.98
568.83	43922.49
568.99	43981.01
569.15	43955.26
569.32	44196.34
569.48	43676.74
569.64	44547.42
569.81	44179.95
569.97	44362.51
570.13	44002.07
570.30	43728.23
570.46	44123.78
570.62	43999.73
570.78	44053.56
570.95	43838.23
571.11	44318.04
571.27	44219.74
571.43	43976.33
571.60	44154.21
571.76	44137.82
571.92	44266.55
572.09	43737.59
572.25	43927.17
572.41	44224.42
572.57	44268.89
572.74	44818.92
572.90	44350.81
573.06	44486.56
573.22	44074.63
573.38	44612.95
573.55	44547.42
573.71	44769.77
573.87	44320.38
574.03	44322.72
574.20	44268.89
574.36	44357.83
574.52	44304.00
574.68	44582.52
574.84	44392.94
575.01	44425.71
575.17	44222.08
575.33	44341.45
575.49	44301.66
575.65	44680.83
575.82	44327.41
575.98	44381.24
576.14	44327.41
576.30	44725.30
576.46	44481.88
576.62	44362.51
576.79	44313.36
576.95	43852.28
577.11	44170.59
577.27	44491.24
577.43	44577.84
577.59	44619.97
577.75	44196.34
577.92	44240.81
578.08	44570.82
578.24	44395.28
578.40	44652.74
578.56	44521.67
578.72	44821.26
578.88	45003.82
579.04	44622.31
579.21	44648.06
579.37	44645.72
579.53	44516.99
579.69	44416.35
579.85	44816.58
580.01	44516.99
580.17	44477.20
580.33	44519.33
580.49	44734.66
580.65	44294.64
580.82	44790.83
580.98	44505.29
581.14	44505.29
581.30	45024.89
581.46	44619.97
581.62	44308.68
581.78	44203.36
581.94	44542.74
582.10	44374.22
582.26	44732.32
582.42	44411.67
582.58	44793.17
582.74	44549.76
582.90	44498.26
583.06	44811.90
583.22	44109.74
583.38	44570.82
583.54	44933.60
583.70	44779.13
583.86	44666.78
584.02	44533.37
584.18	44875.09
584.34	44875.09
584.50	44755.72
584.66	45027.23
584.82	45078.72
584.98	45067.02
585.14	44795.51
585.30	44786.15
585.46	44746.36
585.62	44580.18
585.78	44573.16
585.94	44533.37
586.10	44655.08
586.26	44652.74
586.42	44868.07
586.58	44903.18
586.74	45118.51
586.90	44708.91
587.06	44591.89
587.22	44926.58
587.38	44765.09
587.54	44526.35
587.70	45041.27
587.86	45041.27
588.02	44891.48
588.18	44751.04
588.34	44952.33
588.49	44767.43
588.65	44495.92
588.81	44971.05
588.97	44734.66
589.13	44767.43
589.29	44863.39
589.45	44767.43
589.61	45228.51
589.77	45003.82
589.93	44744.02
590.08	44884.45
590.24	45249.58
590.40	45415.76
590.56	45317.45
590.72	45387.67
590.88	44971.05
591.04	44741.68
591.20	45940.04
591.35	45338.52
591.51	45294.05
591.67	45322.13
591.83	45696.62
591.99	45390.01
592.15	45315.11
592.31	45537.46
592.46	44751.04
592.62	44748.70
592.78	45729.39
592.94	45275.32
593.10	45350.22
593.26	45572.57
593.41	45841.73
593.57	44947.65
593.73	45364.26
593.89	45574.91
594.05	46185.79
594.20	45556.19
594.36	45642.79
594.52	45713.00
594.68	45401.71
594.84	45170.00
594.99	45478.95
595.15	45560.87
595.31	45832.37
595.47	45605.34
595.62	45542.14
595.78	45666.19
595.94	45329.16
596.10	45167.66
596.25	45624.06
596.41	45598.32
596.57	45350.22
596.73	45638.11
596.88	45762.15
597.04	45188.72
597.20	45778.54
597.36	45595.98
597.51	45478.95
597.67	45380.65
597.83	45418.10
597.99	45827.69
598.14	45516.40
598.30	45776.20
598.46	45759.81
598.61	46115.58
598.77	45654.49
598.93	45511.72
599.09	45497.67
599.24	45731.73
599.40	45535.12
599.56	45656.83
599.71	45715.34
599.87	45713.00
600.03	46092.17
600.18	46038.34
600.34	45462.57
600.50	45638.11
600.65	45846.41
600.81	45970.46
600.97	45820.67
601.12	45656.83
601.28	45425.12
601.44	45626.40
601.59	45911.95
601.75	45364.26
601.91	45792.58
602.06	45635.77
602.22	45832.37
602.37	45474.27
602.53	45944.72
602.69	45736.41
602.84	45228.51
603.00	45504.70
603.16	45818.33
603.31	45954.08
603.47	45801.94
603.62	45509.38
603.78	45516.40
603.94	46033.66
604.09	45886.20
604.25	45610.02
604.40	46000.89
604.56	45815.99
604.71	45720.02
604.87	45411.07
605.03	45535.12
605.18	45600.66
605.34	45581.93
605.49	45387.67
605.65	45450.86
605.80	45813.65
605.96	45577.25
606.12	45703.64
606.27	45694.28
606.43	45020.20
606.58	45713.00
606.74	45914.29
606.89	45787.90
607.05	46024.29
607.20	45495.33
607.36	45591.30
607.51	45485.97
607.67	45745.77
607.82	45265.96
607.98	45031.91
608.13	45247.24
608.29	44987.44
608.44	45460.23
608.60	45242.56
608.75	45158.30
608.91	45233.19
609.06	45125.53
609.22	45258.94
609.37	45429.80
609.53	45392.35
609.68	45968.12
609.84	44896.16
609.99	45357.24
610.15	45085.74
610.30	45308.09
610.46	45387.67
610.61	45797.26
610.76	45663.85
610.92	45296.39
611.07	44882.11
611.23	45235.53
611.38	45294.05
611.54	45111.49
611.69	45336.18
611.84	45343.20
612.00	44989.78
612.15	45006.16
612.31	45062.33
612.46	45057.65
612.62	45144.25
612.77	45076.38
612.92	45333.84
613.08	45081.06
613.23	45118.51
613.39	44985.10
613.54	44729.98
613.69	45120.85
613.85	45200.43
614.00	45453.20
614.15	45294.05
614.31	44641.04
614.46	44926.58
614.62	44776.79
614.77	44835.30
614.92	44954.67
615.08	44905.52
615.23	44893.82
615.38	45485.97
615.54	44720.62
615.69	44912.54
615.84	44652.74
616.00	44865.73
616.15	44924.24
616.30	44753.38
616.46	45090.42
616.61	44673.81
616.76	45001.48
616.92	44589.55
617.07	44615.29
617.22	44659.76
617.37	44381.24
617.53	44264.21
617.68	44650.40
617.83	44376.56
617.99	44982.76
618.14	44968.71
618.29	44788.49
618.45	44486.56
618.60	44430.39
618.75	43924.83
618.90	44301.66
619.06	44224.42
619.21	44437.41
619.36	44821.26
619.51	44463.16
619.67	44601.25
619.82	44374.22
619.97	44706.57
620.12	44238.47
620.28	44219.74
620.43	44336.77
620.58	44088.67
620.73	44514.65
620.89	44313.36
621.04	44694.87
621.19	44732.32
621.34	44388.26
621.49	44243.15
621.65	44341.45
621.80	44154.21
621.95	43885.04
622.10	43775.04
622.25	43906.11
622.41	43854.62
622.56	44231.44
622.71	43430.98
622.86	44348.47
623.01	44273.57
623.16	44222.08
623.32	43735.25
623.47	44121.44
623.62	43763.34
623.77	44016.11
623.92	43854.62
624.07	43756.32
624.23	43873.34
624.38	44128.46
624.53	43452.05
624.68	43124.37
624.83	43503.54
624.98	43873.34
625.13	43246.08
625.29	43498.86
625.44	44053.56
625.59	43622.90
625.74	43854.62
625.89	43107.99
626.04	43255.44
626.19	43178.20
626.34	43695.46
626.49	43185.22
626.65	42934.79
626.80	43267.14
626.95	43056.50
627.10	43374.81
627.25	43299.91
627.40	43255.44
627.55	43360.76
627.70	43311.61
627.85	43370.13
628.00	43035.43
628.15	43288.21
628.30	42623.50
628.45	42443.27
628.60	42806.06
628.76	43065.86
628.91	43105.65
629.06	42396.46
629.21	42501.79
629.36	42609.45
629.51	42749.88
629.66	43063.52
629.81	42714.78
629.96	43051.81
630.11	42899.68
630.26	42930.11
630.41	42759.25
630.56	42831.80
630.71	42974.58
630.86	42298.16
631.01	42127.30
631.16	42260.71
631.31	42370.72
631.46	42244.33
631.61	42775.63
631.76	42621.16
631.91	42618.81
632.06	42979.26
632.21	42932.45
632.36	42672.65
632.51	42239.65
632.66	42454.98
632.81	42476.04
632.96	42302.84
633.10	41984.53
633.25	42260.71
633.40	42457.32
633.55	42337.95
633.70	42403.49
633.85	41961.12
634.00	42244.33
634.15	41918.99
634.30	41907.29
634.45	42323.91
634.60	41977.51
634.75	42241.99
634.90	42117.94
635.05	42284.12
635.19	41982.19
635.34	42319.23
635.49	41677.92
635.64	42225.60
635.79	41958.78
635.94	41977.51
636.09	42087.51
636.24	41968.15
636.39	42021.98
636.53	41914.31
636.68	41708.35
636.83	41361.95
636.98	41476.63
637.13	41148.96
637.28	41745.80
637.43	41591.32
637.57	41675.58
637.72	41614.72
637.87	41633.45
638.02	41495.36
638.17	41439.18
638.32	41563.23
638.46	41315.14
638.61	40950.01
638.76	40942.99
638.91	41179.39
639.06	41155.98
639.20	40978.10
639.35	41144.28
639.50	40942.99
639.65	41247.26
639.80	41265.99
639.94	40938.31
640.09	41343.22
640.24	41144.28
640.39	40950.01
640.54	40645.74
640.68	41022.57
640.83	41139.60
640.98	40755.75
641.13	41350.24
641.27	41336.20
641.42	41258.96
641.57	40957.03
641.72	40926.61
641.86	40732.34
642.01	40493.61
642.16	40589.57
642.31	40577.87
642.45	40804.90
642.60	40360.20
642.75	40755.75
642.90	40790.86
643.04	40493.61
643.19	40835.33
643.34	40781.49
643.48	40549.78
643.63	40067.63
643.78	40720.64
643.93	41064.70
644.07	40690.21
644.22	40891.50
644.37	40713.62
644.51	40500.63
644.66	40470.20
644.81	40538.08
644.95	40664.47
645.10	40194.02
645.25	40395.31
645.39	40402.33
645.54	40116.78
645.69	39955.29
645.83	40304.02
645.98	39800.81
646.13	40018.48
646.27	40114.44
646.42	39793.79
646.57	40243.17
646.71	40582.55
646.86	40954.69
647.00	40224.45
647.15	40039.54
647.30	40311.05
647.44	40179.98
647.59	40172.96
647.74	40067.63
647.88	39899.11
648.03	40549.78
648.17	40259.55
648.32	40041.88
648.47	40128.48
648.61	39999.76
648.76	39772.72
648.90	39306.96
649.05	39772.72
649.20	39487.18
649.34	39473.13
649.49	39658.04
649.63	39503.56
649.78	40046.57
649.92	39594.84
650.07	40414.03
650.21	39611.23
650.36	39899.11
650.51	39707.19
650.65	39819.53
650.80	39831.24
650.94	39552.71
651.09	39356.11
651.23	39372.49
651.38	39206.31
651.52	39264.83
651.67	38925.45
651.81	39393.56
651.96	39260.15
652.10	38969.92
652.25	38892.68
652.39	38827.15
652.54	39250.78
652.68	39026.09
652.83	39079.92
652.97	39550.37
653.12	38969.92
653.26	38806.08
653.41	39171.21
653.55	38721.82
653.70	39161.84
653.84	39335.04
653.99	39175.89
654.13	39136.10
654.27	38897.36
654.42	38892.68
654.56	38794.38
654.71	38888.00
654.85	38855.23
655.00	39246.10
655.14	38895.02
655.29	39002.69
655.43	39203.97
655.57	38778.00
655.72	38396.49
655.86	38759.27
656.01	38160.09
656.15	38623.52
656.30	38197.54
656.44	38909.07
656.58	38593.09
656.73	38866.94
656.87	38263.08
657.01	38213.93
657.16	38684.37
657.30	38721.82
657.45	38501.81
657.59	37764.54
657.73	38043.07
657.88	38085.20
658.02	38572.03
658.16	38562.67
658.31	38054.77
658.45	38124.99
658.60	37799.65
658.74	37883.91
658.88	38197.54
659.03	37865.19
659.17	37710.71
659.31	37486.02
659.46	37303.46
659.60	37565.60
659.74	37462.61
659.89	37469.64
660.03	37638.15
660.17	38094.56
660.32	37413.46
660.46	37699.01
660.60	36935.99
660.74	37336.23
660.89	37441.55
661.03	37081.11
661.17	37495.38
661.32	36816.63
661.46	37469.64
661.60	36987.49
661.74	37041.32
661.89	36952.38
662.03	37071.75
662.17	37081.11
662.31	37228.56
662.46	36959.40
662.60	37123.24
662.74	36484.27
662.88	36524.06
663.03	36194.04
663.17	36392.99
663.31	36074.68
663.45	36514.70
663.60	36568.53
663.74	36617.68
663.88	36573.21
664.02	36163.62
664.17	36477.25
664.31	36184.68
664.45	35948.29
664.59	35840.62
664.73	35601.89
664.88	35704.87
665.02	35126.76
665.16	36376.61
665.30	36025.53
665.44	35779.77
665.59	35498.91
665.73	35873.39
665.87	35180.59
666.01	35665.08
666.15	35426.35
666.29	35220.38
666.44	35826.58
666.58	36011.48
666.72	35159.53
666.86	35110.38
667.00	35360.81
667.14	35424.01
667.28	35079.95
667.43	34836.53
667.57	35379.54
667.71	35440.39
667.85	35140.80
667.99	35007.39
668.13	34761.64
668.27	34829.51
668.41	34717.17
668.56	34590.78
668.70	34359.06
668.84	34373.11
668.98	34719.51
669.12	34487.79
669.26	34426.94
669.40	34506.52
669.54	34794.40
669.68	34408.22
669.82	34445.66
669.96	33961.17
670.10	33736.48
670.25	33684.99
670.39	33933.09
670.53	34071.18
670.67	33834.78
670.81	33865.21
670.95	33750.52
671.09	33521.15
671.23	33645.20
671.37	33675.63
671.51	33626.48
671.65	33322.21
671.79	33371.36
671.93	32830.69
672.07	33483.70
672.21	33556.26
672.35	32917.29
672.49	32889.21
672.63	33118.58
672.77	32704.31
672.91	32776.86
673.05	32945.38
673.19	32723.03
673.33	32622.39
673.47	32163.64
673.61	32666.86
673.75	32091.09
673.89	31938.95
674.03	32187.05
674.17	31770.43
674.31	31988.10
674.45	31688.51
674.59	31803.20
674.73	31857.03
674.87	31632.34
675.01	31730.64
675.15	31393.61
675.29	31529.36
675.43	31082.31
675.56	31496.59
675.70	31342.11
675.84	31175.94
675.98	30513.56
676.12	30838.90
676.26	30941.88
676.40	30771.02
676.54	30979.33
676.68	30560.37
676.82	30043.12
676.96	30558.03
677.10	30728.89
677.23	30436.33
677.37	30445.69
677.51	29888.64
677.65	30108.65
677.79	29923.75
677.93	29844.17
678.07	30050.14
678.21	29481.39
678.34	29268.40
678.48	29076.48
678.62	29401.81
678.76	29041.37
678.90	29296.49
679.04	29001.58
679.18	29560.97
679.31	28947.75
679.45	28835.40
679.59	28528.79
679.73	28896.25
679.87	28666.88
680.00	28428.15
680.14	28638.80
680.28	28570.92
680.42	28308.78
680.56	28135.58
680.70	28081.75
680.83	27700.24
680.97	27786.84
681.11	28032.60
681.25	27594.92
681.39	27468.53
681.52	27693.22
681.66	27543.42
681.80	27075.32
681.94	26806.16
682.07	27007.44
682.21	26628.27
682.35	26948.93
682.49	26780.41
682.62	26625.93
682.76	26712.53
682.90	26785.09
683.04	26466.78
683.17	26480.82
683.31	26094.63
683.45	25851.22
683.59	26024.42
683.72	25720.15
683.86	25745.89
684.00	25514.18
684.13	25778.66
684.27	25462.69
684.41	25165.44
684.55	25727.17
684.68	25476.73
684.82	25315.23
684.96	25259.06
685.09	25085.86
685.23	25123.31
685.37	25184.16
685.50	25371.41
685.64	24877.55
685.78	24779.25
685.91	24891.60
686.05	24219.86
686.19	23491.96
686.32	24217.52
686.46	23681.54
686.60	23756.44
686.73	23880.49
686.87	23550.47
687.01	23941.34
687.14	23873.46
687.28	23927.30
687.42	23545.79
687.55	23393.65
687.69	23484.94
687.82	23536.43
687.96	23206.41
688.10	23597.28
688.23	23075.34
688.37	22953.63
688.50	23161.94
688.64	22478.50
688.78	22796.82
688.91	22871.72
689.05	23007.47
689.18	22558.08
689.32	22031.46
689.46	22434.03
689.59	22326.37
689.73	22403.61
689.86	22258.49
690.00	21855.92
690.13	22097.00
690.27	21596.12
690.41	21736.56
690.54	21764.64
690.68	21708.47
690.81	21551.65
690.95	20982.90
691.08	21408.88
691.22	21383.13
691.35	21174.83
691.49	21322.28
691.62	21039.08
691.76	20648.21
691.89	20634.16
692.03	20582.67
692.16	20489.05
692.30	20250.32
692.43	20482.03
692.57	20322.87
692.70	20079.46
692.84	20238.61
692.97	19646.46
693.11	19740.08
693.24	19719.01
693.38	19623.05
693.51	19669.86
693.65	19585.60
693.78	19316.44
693.92	19407.72
694.05	19693.27
694.19	18932.59
694.32	19459.21
694.45	19372.61
694.59	19524.75
694.72	19290.70
694.86	19058.98
694.99	18670.45
695.13	18527.68
695.26	18607.26
695.39	18291.29
695.53	18597.90
695.66	18347.46
695.80	18328.74
695.93	18487.89
696.07	18054.89
696.20	17869.99
696.33	17568.06
696.47	17912.12
696.60	17486.14
696.73	17621.89
696.87	17893.40
697.00	17596.15
697.14	17326.99
697.27	17469.76
697.40	17303.58
697.54	17216.98
697.67	17006.33
697.80	17036.76
697.94	17149.11
698.07	16858.88
698.21	16830.79
698.34	17018.04
698.47	16585.04
698.61	16659.93
698.74	16397.79
698.87	16252.68
699.01	16194.17
699.14	16198.85
699.27	16098.20
699.40	16053.73
699.54	16023.31
699.67	16027.99
699.80	15981.18
699.94	15896.92
700.07	15913.30
700.20	15763.51
700.34	15676.91
700.47	15587.97
700.60	15836.06
700.73	15391.36
700.87	15342.21
701.00	15372.64
701.13	14850.70
701.26	14904.53
701.40	15176.03
701.53	14857.72
701.66	15021.56
701.79	14759.42
701.93	14518.34
702.06	14773.46
702.19	14787.50
702.32	14630.69
702.46	14602.60
702.59	14874.10
702.72	14574.52
702.85	14422.38
702.99	14265.57
703.12	14075.98
703.25	14127.47
703.38	14139.18
703.51	13862.99
703.65	13715.54
703.78	13874.70
703.91	13554.04
704.04	13731.92
704.17	13315.31
704.31	13579.79
704.44	13568.09
704.57	13650.00
704.70	13310.63
704.83	13296.58
704.96	13364.46
705.10	12863.58
705.23	12793.37
>>>>>End Processed Spectral Data<<<<<
