SpectraSuite Data File
++++++++++++++++++++++++++++++++++++
Date: Fri Oct 25 10:47:05 EDT 2013
User: price-jones
Dark Spectrum Present: No
Reference Spectrum Present: No
Number of Sampled Component Spectra: 1
Spectrometers: USB2+H05261
Integration Time (usec): 100000 (USB2+H05261)
Spectra Averaged: 1 (USB2+H05261)
Boxcar Smoothing: 0 (USB2+H05261)
Correct for Electrical Dark: No (USB2+H05261)
Strobe/Lamp Enabled: No (USB2+H05261)
Correct for Detector Non-linearity: No (USB2+H05261)
Correct for Stray Light: No (USB2+H05261)
Number of Pixels in Processed Spectrum: 2048
>>>>>Begin Processed Spectral Data<<<<<
365.73	100.64
365.92	100.64
366.12	100.64
366.32	21.06
366.52	11.70
366.72	124.05
366.91	67.88
367.11	42.13
367.31	30.43
367.51	81.92
367.70	88.94
367.90	21.06
368.10	63.19
368.30	81.92
368.49	65.54
368.69	84.26
368.89	42.13
369.09	32.77
369.28	30.43
369.48	25.75
369.68	100.64
369.87	72.56
370.07	112.35
370.27	152.13
370.47	212.99
370.66	402.57
370.86	475.13
371.06	484.49
371.25	514.92
371.45	500.87
371.65	437.68
371.84	449.38
372.04	449.38
372.24	479.81
372.44	496.19
372.63	433.00
372.83	482.15
373.03	449.38
373.22	463.43
373.42	500.87
373.62	458.74
373.81	496.19
374.01	566.41
374.21	538.32
374.40	528.96
374.60	608.54
374.79	592.16
374.99	552.37
375.19	573.43
375.38	594.50
375.58	650.67
375.78	538.32
375.97	559.39
376.17	578.11
376.37	615.56
376.56	631.94
376.76	568.75
376.95	601.52
377.15	655.35
377.35	624.92
377.54	559.39
377.74	571.09
377.93	564.07
378.13	631.94
378.33	571.09
378.52	641.31
378.72	629.60
378.91	725.57
379.11	592.16
379.31	603.86
379.50	629.60
379.70	524.28
379.89	624.92
380.09	648.33
380.28	620.24
380.48	615.56
380.68	645.99
380.87	667.05
381.07	645.99
381.26	690.46
381.46	713.86
381.65	681.10
381.85	615.56
382.04	653.01
382.24	746.63
382.43	667.05
382.63	723.23
382.83	690.46
383.02	660.03
383.22	755.99
383.41	664.71
383.61	772.38
383.80	744.29
384.00	685.78
384.19	692.80
384.39	760.67
384.58	805.14
384.78	763.01
384.97	751.31
385.17	709.18
385.36	725.57
385.56	730.25
385.75	802.80
385.95	809.83
386.14	737.27
386.34	791.10
386.53	816.85
386.72	770.04
386.92	851.96
387.11	835.57
387.31	823.87
387.50	858.98
387.70	849.61
387.89	894.08
388.09	884.72
388.28	828.55
388.48	873.02
388.67	840.25
388.86	835.57
389.06	917.49
389.25	931.53
389.45	999.41
389.64	840.25
389.84	945.58
390.03	947.92
390.22	922.17
390.42	861.32
390.61	861.32
390.81	910.47
391.00	938.55
391.19	1032.18
391.39	980.68
391.58	952.60
391.78	938.55
391.97	858.98
392.16	973.66
392.36	1060.26
392.55	945.58
392.75	990.05
392.94	966.64
393.13	1020.47
393.33	926.85
393.52	1011.11
393.71	1006.43
393.91	983.02
394.10	973.66
394.29	1116.44
394.49	1102.39
394.68	1083.67
394.88	1224.10
395.07	1163.25
395.26	1125.80
395.46	1097.71
395.65	1029.84
395.84	1191.33
396.04	1186.65
396.23	1137.50
396.42	1090.69
396.62	1153.88
396.81	1198.35
397.00	1235.80
397.19	1177.29
397.39	1200.69
397.58	1156.22
397.77	1228.78
397.97	1277.93
398.16	1249.85
398.35	1320.06
398.55	1371.55
398.74	1322.40
398.93	1390.28
399.12	1289.64
399.32	1226.44
399.51	1387.94
399.70	1399.64
399.90	1441.77
400.09	1444.11
400.28	1437.09
400.47	1441.77
400.67	1526.03
400.86	1432.41
401.05	1500.28
401.24	1509.65
401.44	1504.96
401.63	1570.50
401.82	1511.99
402.01	1469.86
402.21	1605.61
402.40	1652.42
402.59	1643.06
402.78	1465.18
402.97	1544.75
403.17	1563.48
403.36	1596.25
403.55	1694.55
403.74	1664.12
403.93	1713.27
404.13	1729.66
404.32	1614.97
404.51	1703.91
404.70	1809.23
404.89	1724.97
405.09	1757.74
405.28	1820.94
405.47	1811.57
405.66	1680.50
405.85	1706.25
406.05	1771.79
406.24	1792.85
406.43	1893.49
406.62	1788.17
406.81	1989.46
407.00	1834.98
407.20	1895.83
407.39	1844.34
407.58	1973.07
407.77	1987.11
407.96	1919.24
408.15	1994.14
408.34	1891.15
408.54	1942.64
408.73	1984.77
408.92	2106.48
409.11	2167.34
409.30	2031.58
409.49	1987.11
409.68	2141.59
409.87	2115.84
410.07	2108.82
410.26	2073.71
410.45	2115.84
410.64	2076.06
410.83	2118.18
411.02	2370.96
411.21	2244.57
411.40	2392.03
411.59	2319.47
411.78	2235.21
411.98	2303.09
412.17	2284.36
412.36	2338.20
412.55	2413.09
412.74	2448.20
412.93	2509.05
413.12	2375.64
413.31	2569.91
413.50	2490.33
413.69	2654.17
413.88	2523.10
414.07	2483.31
414.26	2637.78
414.45	2818.00
414.64	2644.81
414.83	2686.94
415.02	2691.62
415.22	2864.82
415.41	2813.32
415.60	2780.56
415.79	2780.56
415.98	2899.92
416.17	2925.67
416.36	2911.63
416.55	2843.75
416.74	2958.44
416.93	2988.86
417.12	2960.78
417.31	2981.84
417.50	3026.31
417.69	3030.99
417.88	3059.08
418.07	3028.65
418.26	3234.62
418.45	3178.45
418.64	3185.47
418.83	3187.81
419.02	3155.04
419.21	3173.77
419.39	3309.52
419.58	3112.91
419.77	3105.89
419.96	3218.24
420.15	3213.56
420.34	3318.88
420.53	3251.00
420.72	3403.14
420.91	3410.16
421.10	3478.04
421.29	3524.85
421.48	3382.07
421.67	3482.72
421.86	3412.50
422.05	3435.91
422.24	3435.91
422.43	3445.27
422.61	3442.93
422.80	3583.36
422.99	3576.34
423.18	3562.30
423.37	3536.55
423.56	3604.42
423.75	3574.00
423.94	3475.70
424.13	3307.18
424.32	3456.97
424.50	3637.19
424.69	3641.87
424.88	3606.77
425.07	3449.95
425.26	3562.30
425.45	3660.60
425.64	3583.36
425.83	3489.74
426.01	3595.06
426.20	3644.21
426.39	3566.98
426.58	3480.38
426.77	3494.42
426.96	3581.02
427.15	3602.08
427.33	3754.22
427.52	3688.68
427.71	3662.94
427.90	3744.86
428.09	3901.67
428.28	3812.73
428.46	3857.20
428.65	3913.38
428.84	3964.87
429.03	3936.78
429.22	3784.65
429.40	3899.33
429.59	3955.51
429.78	3658.26
429.97	3679.32
430.16	3843.16
430.34	3847.84
430.53	3819.75
430.72	3957.85
430.91	3906.35
431.10	3932.10
431.28	4058.49
431.47	4159.13
431.66	4156.79
431.85	4177.86
432.03	4241.05
432.22	4313.61
432.41	4236.37
432.60	4262.12
432.79	4210.62
432.97	4292.54
433.16	4383.82
433.35	4117.00
433.54	4280.84
433.72	4327.65
433.91	4219.99
434.10	4437.66
434.28	4255.09
434.47	4411.91
434.66	4423.61
434.85	4388.50
435.03	4482.13
435.22	4505.53
435.41	4664.69
435.59	4669.37
435.78	4610.86
435.97	4578.09
436.16	4545.32
436.34	4552.34
436.53	4784.06
436.72	4858.95
436.90	4510.21
437.09	4767.67
437.28	4578.09
437.46	4652.98
437.65	4681.07
437.84	4702.14
438.02	4880.02
438.21	4613.20
438.40	4814.48
438.58	4887.04
438.77	4830.87
438.96	4889.38
439.14	4990.02
439.33	4898.74
439.52	4945.55
439.70	4966.62
439.89	5097.69
440.08	5256.84
440.26	5060.24
440.45	5195.99
440.63	5437.06
440.82	5453.45
441.01	5172.58
441.19	5383.23
441.38	5530.69
441.57	5418.34
441.75	5579.84
441.94	5582.18
442.12	5696.86
442.31	5668.78
442.50	5806.87
442.68	5774.10
442.87	5699.20
443.05	5605.58
443.24	5762.40
443.43	5813.89
443.61	5849.00
443.80	5827.93
443.98	5820.91
444.17	5664.10
444.35	5870.06
444.54	6108.80
444.73	5982.41
444.91	5970.71
445.10	5884.11
445.28	5844.32
445.47	5856.02
445.65	5975.39
445.84	5900.49
446.02	6024.54
446.21	5961.34
446.39	5907.51
446.58	6071.35
446.77	5963.68
446.95	5713.25
447.14	5947.30
447.32	6127.52
447.51	6099.44
447.69	5947.30
447.88	6036.24
448.06	6029.22
448.25	6160.29
448.43	6174.33
448.62	6029.22
448.80	6071.35
448.99	6015.18
449.17	6225.82
449.36	6101.78
449.54	6270.30
449.73	6317.11
449.91	6279.66
450.10	6424.77
450.28	6457.54
450.46	6366.26
450.65	6532.44
450.83	6483.28
451.02	6408.39
451.20	6497.33
451.39	6420.09
451.57	6523.07
451.76	6452.86
451.94	6377.96
452.13	6516.05
452.31	6628.40
452.49	6396.68
452.68	6574.56
452.86	6478.60
453.05	6752.45
453.23	6480.94
453.42	6544.14
453.60	6677.55
453.78	6731.38
453.97	6604.99
454.15	6768.83
454.34	6684.57
454.52	6836.70
454.70	6825.00
454.89	6862.45
455.07	6733.72
455.26	6853.09
455.44	6972.46
455.62	6888.20
455.81	7040.33
455.99	7087.14
456.17	6970.12
456.36	7054.37
456.54	7159.70
456.73	7279.07
456.91	7573.97
457.09	7232.26
457.28	7606.74
457.46	7293.11
457.64	7548.23
457.83	7494.40
458.01	7314.17
458.19	7550.57
458.38	7360.98
458.56	7421.84
458.74	7485.03
458.93	7449.93
459.11	7456.95
459.29	7613.76
459.48	7691.00
459.66	7456.95
459.84	7609.08
460.03	7777.60
460.21	7742.49
460.39	7770.58
460.57	7833.77
460.76	7822.07
460.94	7747.17
461.12	7763.56
461.31	7950.80
461.49	7754.19
461.67	7873.56
461.85	7873.56
462.04	7887.61
462.22	8290.18
462.40	8009.31
462.59	8039.74
462.77	7829.09
462.95	8196.56
463.13	8074.85
463.32	8063.15
463.50	8266.77
463.68	8196.56
463.86	8234.00
464.05	8028.04
464.23	7985.91
464.41	8145.06
464.59	8011.65
464.78	8322.94
464.96	8404.86
465.14	8234.00
465.32	8390.82
465.50	8470.40
465.69	8320.60
465.87	8414.23
466.05	8294.86
466.23	8451.67
466.41	8280.82
466.60	8582.74
466.78	8503.17
466.96	8163.79
467.14	8336.99
467.32	8493.80
467.51	8812.12
467.69	8393.16
467.87	8564.02
468.05	8561.68
468.23	8514.87
468.41	8713.81
468.60	8709.13
468.78	8826.16
468.96	8688.07
469.14	9013.40
469.32	8943.19
469.50	8603.81
469.69	8835.52
469.87	8901.06
470.05	8968.93
470.23	8952.55
470.41	8809.78
470.59	9167.88
470.77	9006.38
470.95	8868.29
471.14	9303.63
471.32	9053.19
471.50	9486.19
471.68	9364.48
471.86	9338.74
472.04	9357.46
472.22	9614.92
472.40	9327.03
472.58	9397.25
472.77	9479.17
472.95	9811.53
473.13	9879.40
473.31	9525.98
473.49	9837.27
473.67	9549.39
473.85	9710.88
474.03	9968.34
474.21	9991.75
474.39	9966.00
474.57	10289.00
474.75	10040.90
474.93	10164.95
475.12	10057.28
475.30	10462.19
475.48	10389.64
475.66	10443.47
475.84	10513.69
476.02	10284.31
476.20	10478.58
476.38	10649.44
476.56	10967.75
476.74	10920.94
476.92	10738.38
477.10	10771.15
477.28	10888.17
477.46	11124.57
477.64	11119.89
477.82	11169.04
478.00	11623.10
478.18	11452.24
478.36	11543.52
478.54	11513.10
478.72	11527.14
478.90	11852.47
479.08	11999.93
479.26	12152.06
479.44	12013.97
479.62	12329.94
479.80	12231.64
479.98	12287.81
480.16	12514.84
480.34	12442.29
480.52	12538.25
480.70	12603.78
480.88	12622.51
481.06	12676.34
481.24	12896.35
481.41	12954.87
481.59	13123.38
481.77	13303.60
481.95	13116.36
482.13	13188.92
482.31	13380.84
482.49	13460.42
482.67	13654.69
482.85	13577.45
483.03	13996.40
483.21	14197.69
483.39	14052.58
483.57	14218.75
483.74	14260.88
483.92	14281.95
484.10	14420.04
484.28	14588.56
484.46	14808.57
484.64	14904.53
484.82	14707.93
485.00	14827.29
485.18	14956.02
485.35	15014.54
485.53	14846.02
485.71	15304.76
485.89	15463.92
486.07	15358.60
486.25	15199.44
486.43	15838.41
486.61	15922.66
486.78	16137.99
486.96	16086.50
487.14	16491.41
487.32	16568.65
487.50	16313.53
487.68	16688.02
487.85	16842.50
488.03	17034.42
488.21	17114.00
488.39	17109.32
488.57	17186.55
488.75	17474.44
488.92	17413.59
489.10	17816.16
489.28	17720.20
489.46	17947.23
489.64	17980.00
489.81	18441.08
489.99	18401.29
490.17	18455.12
490.35	18913.87
490.53	18600.24
490.70	18824.93
490.88	18806.20
491.06	18995.79
491.24	19213.46
491.41	19016.85
491.59	19096.43
491.77	19171.33
491.95	19651.14
492.13	19854.76
492.30	20058.39
492.48	19819.66
492.66	20084.14
492.84	19955.41
493.01	20444.58
493.19	20222.23
493.37	20379.04
493.54	20449.26
493.72	20830.77
493.90	21095.25
494.08	21104.61
494.25	21472.07
494.43	21268.45
494.61	21460.37
494.79	21521.23
494.96	21497.82
495.14	21546.97
495.32	21823.16
495.49	21949.54
495.67	22171.89
495.85	22047.85
496.02	22471.48
496.20	22412.97
496.38	22225.73
496.55	22504.25
496.73	23082.36
496.91	22874.06
497.09	23283.65
497.26	23672.18
497.44	23161.94
497.62	23197.05
497.79	23557.49
497.97	23637.07
498.14	23608.98
498.32	23697.92
498.50	23438.12
498.67	23700.26
498.85	24425.83
499.03	24306.46
499.20	24154.33
499.38	24238.59
499.56	24655.20
499.73	24582.65
499.91	24767.55
500.08	24641.16
500.26	24622.44
500.44	24891.60
500.61	24840.11
500.79	24842.45
500.97	25392.47
501.14	25223.95
501.32	25263.74
501.49	25352.68
501.67	25465.03
501.84	25804.41
502.02	25689.72
502.20	25661.63
502.37	25942.50
502.55	26122.72
502.72	26045.48
502.90	26022.08
503.07	25919.09
503.25	26141.44
503.43	26106.34
503.60	26544.02
503.78	26520.61
503.95	26487.84
504.13	26501.89
504.30	26859.99
504.48	26375.50
504.65	26941.91
504.83	27164.26
505.01	27395.97
505.18	27058.93
505.36	27325.75
505.53	27782.16
505.71	27330.44
505.88	27730.67
506.06	27447.46
506.23	27716.62
506.41	27697.90
506.58	27660.45
506.76	27826.63
506.93	27981.10
507.11	27962.38
507.28	28198.77
507.46	28189.41
507.63	27702.58
507.81	28470.28
507.98	28009.19
508.16	28643.48
508.33	28514.75
508.50	28308.78
508.68	28802.63
508.85	29158.39
509.03	29074.13
509.20	29291.80
509.38	29160.73
509.55	29184.14
509.73	29228.61
509.90	29294.14
510.08	29252.02
510.25	29383.09
510.42	29610.12
510.60	29654.59
510.77	29631.18
510.95	30022.05
511.12	30050.14
511.30	30061.84
511.47	30724.21
511.64	30080.56
511.82	30221.00
511.99	29998.65
512.17	30366.11
512.34	30253.76
512.51	30253.76
512.69	30831.88
512.86	30796.77
513.04	30981.67
513.21	30724.21
513.38	30878.69
513.56	30834.22
513.73	30721.87
513.90	31035.50
514.08	30976.99
514.25	31365.52
514.43	31225.09
514.60	31094.02
514.77	31267.22
514.95	31442.76
515.12	31498.93
515.29	31524.68
515.47	32063.00
515.64	31725.96
515.81	31578.51
515.99	31807.88
516.16	31978.74
516.33	31960.02
516.51	32095.77
516.68	31922.57
516.85	31964.70
517.03	31789.16
517.20	32339.18
517.37	32371.95
517.54	32687.92
517.72	32350.88
517.89	32636.43
518.06	32112.15
518.24	32287.69
518.41	31985.76
518.58	32407.06
518.75	32804.95
518.93	32844.74
519.10	32844.74
519.27	33013.26
519.45	32931.34
519.62	33319.87
519.79	33322.21
519.96	33439.23
520.14	33912.02
520.31	32985.17
520.48	33303.48
520.65	33684.99
520.83	33792.65
521.00	33694.35
521.17	34068.84
521.34	33617.11
521.52	33944.79
521.69	34110.97
521.86	34258.42
522.03	34363.75
522.20	34342.68
522.38	34527.58
522.55	34417.58
522.72	34651.63
522.89	34359.06
523.07	34991.01
523.24	34272.46
523.41	34810.79
523.58	34838.87
523.75	34909.09
523.92	34649.29
524.10	34976.97
524.27	35143.14
524.44	35002.71
524.61	35454.44
524.78	35143.14
524.96	35433.37
525.13	35306.98
525.30	35859.35
525.47	35700.19
525.64	35941.27
525.81	35669.76
525.98	35768.07
526.16	35676.79
526.33	35814.88
526.50	36301.71
526.67	35583.16
526.84	35578.48
527.01	35491.88
527.18	35819.56
527.36	36182.34
527.53	36006.80
527.70	36343.84
527.87	36215.11
528.04	36367.24
528.21	36573.21
528.38	36133.19
528.55	36678.54
528.72	36568.53
528.89	36690.24
529.07	36720.66
529.24	36428.10
529.41	36795.56
529.58	36739.39
529.75	36774.50
529.92	36978.12
530.09	36858.76
530.26	37160.69
530.43	37006.21
530.60	37034.30
530.77	36861.10
530.94	37078.77
531.11	37043.66
531.28	37258.99
531.46	37331.54
531.63	37893.27
531.80	37219.20
531.97	37439.21
532.14	37357.29
532.31	37415.80
532.48	37537.51
532.65	37645.18
532.82	37832.42
532.99	38115.62
533.16	37284.73
533.33	38146.05
533.50	38141.37
533.67	38328.61
533.84	37844.12
534.01	38078.18
534.18	38029.02
534.35	38476.07
534.52	38337.98
534.69	37989.24
534.86	38455.00
535.03	38160.09
535.20	38770.97
535.37	39012.05
535.54	38841.19
535.71	38756.93
535.88	38602.46
536.05	37968.17
536.22	38693.74
536.38	39007.37
536.55	38651.61
536.72	38859.91
536.89	38536.92
537.06	38944.17
537.23	39002.69
537.40	38862.26
537.57	38866.94
537.74	39370.15
537.91	39442.71
538.08	39571.44
538.25	39166.52
538.42	39037.80
538.59	39309.30
538.75	39239.08
538.92	39381.85
539.09	39618.25
539.26	39388.88
539.43	39438.03
539.60	39360.79
539.77	39255.46
539.94	39555.05
540.11	39470.79
540.28	39866.34
540.44	39639.31
540.61	39632.29
540.78	39398.24
540.95	39842.94
541.12	39606.55
541.29	39512.92
541.46	39990.39
541.62	39660.38
541.79	40037.20
541.96	39864.00
542.13	39943.58
542.30	40177.64
542.47	39885.07
542.63	40388.28
542.80	40374.24
542.97	40608.29
543.14	40694.89
543.31	40495.95
543.48	40282.96
543.64	40928.95
543.81	41305.77
543.98	40844.69
544.15	40973.42
544.32	40982.78
544.48	40907.88
544.65	40718.30
544.82	41177.04
544.99	40514.67
545.16	41350.24
545.32	41031.93
545.49	41308.11
545.66	40975.76
545.83	41383.01
546.00	41502.38
546.16	41251.94
546.33	41291.73
546.50	40720.64
546.67	41256.62
546.83	40847.03
547.00	41588.98
547.17	41099.81
547.34	41565.57
547.50	41598.34
547.67	41865.16
547.84	41584.30
548.00	41565.57
548.17	41652.17
548.34	41794.95
548.51	41787.92
548.67	41918.99
548.84	42127.30
549.01	41820.69
549.18	41886.23
549.34	42312.20
549.51	41890.91
549.68	42202.20
549.84	41827.71
550.01	42188.16
550.18	42115.60
550.34	41872.18
550.51	41862.82
550.68	41977.51
550.84	42050.06
551.01	42658.60
551.18	42564.98
551.34	42183.48
551.51	42230.29
551.68	42607.11
551.84	42293.48
552.01	42387.10
552.18	42330.93
552.34	42246.67
552.51	42485.40
552.68	42195.18
552.84	42689.03
553.01	42721.80
553.18	42763.93
553.34	42553.28
553.51	42417.53
553.67	42623.50
553.84	42644.56
554.01	42815.42
554.17	42981.60
554.34	43367.79
554.51	42759.25
554.67	43456.73
554.84	42920.74
555.00	43337.36
555.17	42777.97
555.33	43239.06
555.50	42855.21
555.67	42941.81
555.83	43239.06
556.00	43051.81
556.16	43365.45
556.33	43159.48
556.50	42869.25
556.66	43625.25
556.83	42792.01
556.99	43536.30
557.16	43274.16
557.32	43189.91
557.49	43746.95
557.65	43379.49
557.82	43320.98
557.98	43412.26
558.15	43232.04
558.32	43491.83
558.48	43370.13
558.65	43555.03
558.81	43187.56
558.98	43847.60
559.14	43524.60
559.31	43693.12
559.47	43412.26
559.64	43845.26
559.80	43814.83
559.97	43955.26
560.13	43718.87
560.30	43838.23
560.46	43849.94
560.63	43882.70
560.79	43941.22
560.96	44088.67
561.12	43824.19
561.29	43573.75
561.45	43416.94
561.61	43821.85
561.78	43351.40
561.94	43639.29
562.11	43569.07
562.27	44067.61
562.44	43732.91
562.60	44067.61
562.77	44437.41
562.93	43646.31
563.10	44102.71
563.26	43400.55
563.42	44119.10
563.59	43573.75
563.75	43882.70
563.92	44442.09
564.08	44596.57
564.24	43789.08
564.41	44102.71
564.57	44154.21
564.74	43976.33
564.90	44271.23
565.07	44353.15
565.23	44301.66
565.39	43873.34
565.56	44287.62
565.72	43866.32
565.88	43880.36
566.05	44261.87
566.21	43901.43
566.38	44034.84
566.54	43648.65
566.70	44320.38
566.87	44680.83
567.03	44467.84
567.19	44769.77
567.36	44189.31
567.52	44233.78
567.68	44617.63
567.85	44194.00
568.01	44013.77
568.17	44215.06
568.34	44500.61
568.50	44432.73
568.66	44238.47
568.83	44161.23
568.99	44275.91
569.15	44435.07
569.32	44765.09
569.48	44060.58
569.64	44598.91
569.81	44388.26
569.97	44280.60
570.13	44573.16
570.30	44149.53
570.46	44224.42
570.62	43901.43
570.78	44245.49
570.95	44268.89
571.11	44713.59
571.27	44563.80
571.43	44339.11
571.60	44774.45
571.76	44308.68
571.92	44418.69
572.09	44456.14
572.25	44734.66
572.41	44327.41
572.57	44507.63
572.74	45076.38
572.90	44781.47
573.06	44444.43
573.22	44809.56
573.38	44563.80
573.55	44266.55
573.71	44713.59
573.87	44261.87
574.03	44341.45
574.20	44275.91
574.36	44793.17
574.52	44912.54
574.68	44575.50
574.84	44662.10
575.01	44769.77
575.17	44854.03
575.33	44788.49
575.49	44830.62
575.65	45008.50
575.82	44713.59
575.98	44671.46
576.14	44900.84
576.30	44568.48
576.46	44729.98
576.62	44060.58
576.79	44444.43
576.95	44149.53
577.11	44865.73
577.27	44516.99
577.43	44952.33
577.59	44673.81
577.75	44383.58
577.92	44687.85
578.08	44662.10
578.24	44402.30
578.40	44758.06
578.56	44863.39
578.72	44626.99
578.88	44800.19
579.04	44617.63
579.21	45074.04
579.37	44889.13
579.53	44390.60
579.69	44559.12
579.85	44788.49
580.01	45092.76
580.17	44949.99
580.33	45174.68
580.49	45088.08
580.65	44563.80
580.82	44917.22
580.98	44701.89
581.14	44240.81
581.30	44942.97
581.46	45034.25
581.62	45104.46
581.78	44816.58
581.94	45265.96
582.10	45146.59
582.26	44690.19
582.42	45104.46
582.58	45048.29
582.74	44484.22
582.90	44711.25
583.06	44697.21
583.22	45298.73
583.38	45254.26
583.54	44662.10
583.70	45031.91
583.86	44430.39
584.02	44577.84
584.18	45003.82
584.34	44949.99
584.50	44905.52
584.66	45092.76
584.82	44687.85
584.98	44978.07
585.14	45155.96
585.30	45085.74
585.46	44978.07
585.62	44856.37
585.78	44762.75
585.94	44524.01
586.10	44891.48
586.26	44650.40
586.42	44872.75
586.58	45291.71
586.74	45177.02
586.90	44973.39
587.06	44800.19
587.22	45132.55
587.38	44807.22
587.54	45326.81
587.70	45036.59
587.86	45254.26
588.02	44985.10
588.18	45422.78
588.34	44744.02
588.49	44697.21
588.65	44411.67
588.81	44957.01
588.97	44912.54
589.13	44725.30
589.29	45001.48
589.45	44849.35
589.61	45167.66
589.77	45392.35
589.93	44996.80
590.08	45130.21
590.24	45387.67
590.40	45057.65
590.56	45591.30
590.72	45485.97
590.88	45233.19
591.04	44673.81
591.20	45078.72
591.35	45441.50
591.51	45411.07
591.67	45457.88
591.83	45050.63
591.99	45235.53
592.15	44917.22
592.31	44980.42
592.46	45485.97
592.62	45092.76
592.78	45390.01
592.94	44994.46
593.10	45085.74
593.26	44746.36
593.41	45251.92
593.57	45036.59
593.73	45289.37
593.89	45127.87
594.05	45390.01
594.20	45240.21
594.36	45654.49
594.52	45230.85
594.68	45338.52
594.84	45469.59
594.99	45329.16
595.15	45792.58
595.31	45771.52
595.47	45394.69
595.62	45397.03
595.78	45193.40
595.94	45820.67
596.10	45490.65
596.25	45553.85
596.41	45483.63
596.57	45497.67
596.73	45603.00
596.88	45272.98
597.04	45050.63
597.20	45081.06
597.36	45663.85
597.51	45574.91
597.67	45373.63
597.83	45322.13
597.99	45495.33
598.14	45408.73
598.30	45397.03
598.46	45373.63
598.61	45144.25
598.77	45226.17
598.93	45394.69
599.09	45687.26
599.24	45640.45
599.40	45736.41
599.56	45289.37
599.71	45186.38
599.87	45670.87
600.03	45675.55
600.18	45067.02
600.34	45675.55
600.50	45031.91
600.65	45532.78
600.81	45387.67
600.97	45647.47
601.12	45986.85
601.28	45705.98
601.44	45181.70
601.59	45481.29
601.75	44987.44
601.91	45291.71
602.06	45074.04
602.22	45448.52
602.37	45277.66
602.53	45130.21
602.69	45401.71
602.84	45305.75
603.00	45455.54
603.16	44870.41
603.31	44877.43
603.47	45139.57
603.62	44985.10
603.78	45528.10
603.94	45455.54
604.09	45722.37
604.25	45443.84
604.40	45085.74
604.56	45446.18
604.71	45331.50
604.87	45155.96
605.03	45382.99
605.18	45095.10
605.34	45193.40
605.49	45209.79
605.65	45443.84
605.80	44982.76
605.96	45483.63
606.12	45226.17
606.27	45584.27
606.43	45322.13
606.58	45188.72
606.74	45151.27
606.89	45106.80
607.05	45277.66
607.20	45366.60
607.36	45116.17
607.51	45469.59
607.67	44851.69
607.82	44980.42
607.98	45141.91
608.13	44907.86
608.29	44978.07
608.44	44818.92
608.60	44673.81
608.75	44481.88
608.91	44538.05
609.06	45024.89
609.22	44694.87
609.37	44414.01
609.53	44992.12
609.68	44975.73
609.84	44772.11
609.99	45155.96
610.15	44793.17
610.30	44788.49
610.46	45078.72
610.61	44662.10
610.76	44596.57
610.92	45045.95
611.07	45008.50
611.23	44605.93
611.38	44739.34
611.54	44521.67
611.69	44559.12
611.84	44098.03
612.00	44849.35
612.15	44495.92
612.31	44905.52
612.46	44376.56
612.62	44285.28
612.77	44795.51
612.92	44772.11
613.08	44275.91
613.23	44456.14
613.39	43985.69
613.54	44053.56
613.69	44411.67
613.85	44254.85
614.00	44467.84
614.15	45221.49
614.31	44292.30
614.46	44900.84
614.62	44301.66
614.77	44348.47
614.92	44360.17
615.08	44341.45
615.23	44418.69
615.38	44215.06
615.54	44093.35
615.69	43971.64
615.84	43913.13
616.00	44189.31
616.15	44264.21
616.30	44371.88
616.46	44156.55
616.61	43863.98
616.76	44165.91
616.92	43821.85
617.07	44083.99
617.22	43679.08
617.37	43957.60
617.53	43978.67
617.68	44158.89
617.83	43856.96
617.99	44149.53
618.14	43871.00
618.29	43943.56
618.45	43583.12
618.60	44039.52
618.75	43840.57
618.90	43669.72
619.06	43941.22
619.21	43655.67
619.36	44229.10
619.51	43384.17
619.67	43948.24
619.82	43438.00
619.97	43913.13
620.12	43159.48
620.28	43360.76
620.43	43473.11
620.58	43959.94
620.73	43775.04
620.89	43377.15
621.04	43695.46
621.19	43374.81
621.34	43449.70
621.49	43330.34
621.65	43597.16
621.80	43405.23
621.95	43154.80
622.10	43339.70
622.25	42946.49
622.41	43086.92
622.56	42810.74
622.71	43098.62
622.86	43538.65
623.01	43328.00
623.16	43335.02
623.32	43374.81
623.47	43133.73
623.62	43129.05
623.77	42885.64
623.92	42883.30
624.07	42927.77
624.23	42923.08
624.38	43021.39
624.53	42682.01
624.68	42717.12
624.83	42794.36
624.98	42857.55
625.13	42246.67
625.29	42742.86
625.44	42525.19
625.59	42403.49
625.74	42541.58
625.89	42171.77
626.04	41832.39
626.19	42731.16
626.34	42663.28
626.49	42555.62
626.65	42396.46
626.80	42646.90
626.95	42188.16
627.10	42202.20
627.25	42099.22
627.40	42501.79
627.55	41560.89
627.70	41907.29
627.85	41748.14
628.00	41979.85
628.15	42366.04
628.30	42447.96
628.45	42150.71
628.60	42349.65
628.76	42075.81
628.91	42005.59
629.06	41996.23
629.21	41942.40
629.36	41816.01
629.51	41483.66
629.66	41928.36
629.81	41273.01
629.96	41897.93
630.11	41858.14
630.26	41933.04
630.41	41780.90
630.56	41804.31
630.71	41514.08
630.86	41883.89
631.01	42071.13
631.16	41741.11
631.31	41530.47
631.46	41116.19
631.61	41626.43
631.76	41457.91
631.91	41727.07
632.06	41488.34
632.21	41415.78
632.36	41918.99
632.51	41603.02
632.66	41287.05
632.81	41155.98
632.96	41654.51
633.10	41102.15
633.25	41371.31
633.40	41380.67
633.55	41888.57
633.70	41050.66
633.85	41216.83
634.00	41308.11
634.15	40957.03
634.30	40823.62
634.45	41247.26
634.60	40790.86
634.75	40914.90
634.90	40959.38
635.05	41053.00
635.19	41048.32
635.34	41214.49
635.49	40861.07
635.64	40694.89
635.79	40470.20
635.94	40821.28
636.09	40470.20
636.24	40399.99
636.39	40910.22
636.53	41076.40
636.68	40245.51
636.83	40526.38
636.98	40657.45
637.13	40250.19
637.28	40620.00
637.43	40570.85
637.57	40741.71
637.72	40446.80
637.87	40751.07
638.02	40683.19
638.17	40584.89
638.32	40205.72
638.46	40182.32
638.61	40004.44
638.76	39700.17
638.91	39704.85
639.06	40102.74
639.20	39957.63
639.35	40676.17
639.50	40086.36
639.65	40463.18
639.80	40662.13
639.94	40376.58
640.09	40123.80
640.24	40404.67
640.39	39981.03
640.54	39768.04
640.68	39814.85
640.83	40088.70
640.98	39578.46
641.13	39711.87
641.27	40311.05
641.42	39473.13
641.57	40027.84
641.72	39859.32
641.86	39384.19
642.01	39622.93
642.16	39962.31
642.31	39477.82
642.45	39686.12
642.60	39192.27
642.75	39524.63
642.90	39676.76
643.04	39803.15
643.19	39601.86
643.34	39344.41
643.48	39629.95
643.63	39367.81
643.78	39377.17
643.93	39358.45
644.07	39112.69
644.22	39402.92
644.37	39016.73
644.51	39201.63
644.66	39007.37
644.81	39278.87
644.95	39063.54
645.10	39454.41
645.25	39185.25
645.39	39161.84
645.54	39026.09
645.69	39297.59
645.83	38962.90
645.98	38675.01
646.13	38656.29
646.27	38958.22
646.42	39531.65
646.57	38927.79
646.71	38988.64
646.86	39501.22
647.00	38932.47
647.15	39058.86
647.30	39122.05
647.44	39131.42
647.59	38588.41
647.74	39140.78
647.88	38525.22
648.03	38810.76
648.17	38623.52
648.32	38850.55
648.47	38611.82
648.61	38529.90
648.76	38714.80
648.90	38335.63
649.05	38667.99
649.20	38923.11
649.34	38941.83
649.49	38316.91
649.63	38071.15
649.78	38761.61
649.92	38817.78
650.07	38761.61
650.21	38473.73
650.36	38139.03
650.51	38307.55
650.65	38525.22
650.80	38623.52
650.94	39093.97
651.09	38424.57
651.23	38094.56
651.38	38342.66
651.52	37762.20
651.67	38279.46
651.81	38024.34
651.96	37958.81
652.10	38096.90
652.25	38010.30
652.39	37949.45
652.54	38183.50
652.68	37944.76
652.83	37691.99
652.97	38239.67
653.12	37509.43
653.26	38024.34
653.41	38195.20
653.55	38382.45
653.70	37818.38
653.84	37715.39
653.99	37930.72
654.13	37546.87
654.27	37881.57
654.42	38031.36
654.56	37699.01
654.71	38162.43
654.85	37862.85
655.00	37401.76
655.14	37535.17
655.29	37343.25
655.43	37436.87
655.57	37216.86
655.72	37287.07
655.86	37275.37
656.01	37130.26
656.15	37113.87
656.30	37156.00
656.44	36952.38
656.58	37015.57
656.73	37312.82
656.87	37055.36
657.01	36968.76
657.16	37144.30
657.30	36507.68
657.45	36575.55
657.59	36692.58
657.73	36678.54
657.88	36875.14
658.02	36486.61
658.16	36580.23
658.31	37198.13
658.45	37294.10
658.60	37242.60
658.74	37081.11
658.88	36952.38
659.03	36741.73
659.17	36596.62
659.31	36547.47
659.46	36477.25
659.60	36430.44
659.74	36512.36
659.89	36378.95
660.03	36079.36
660.17	36533.42
660.32	36306.39
660.46	36467.89
660.60	36357.88
660.74	36332.14
660.89	36287.67
661.03	35779.77
661.17	35957.65
661.32	35732.96
661.46	35826.58
661.60	35416.99
661.74	35810.20
661.89	36034.89
662.03	36149.57
662.17	35398.26
662.31	35580.82
662.46	35487.20
662.60	35517.63
662.74	35800.83
662.88	35332.73
663.03	35222.72
663.17	35622.95
663.31	35482.52
663.45	35559.76
663.60	35175.91
663.74	35175.91
663.88	35091.65
664.02	34944.20
664.17	35407.62
664.31	34775.68
664.45	35037.82
664.59	34827.17
664.73	35049.52
664.88	35218.04
665.02	34431.62
665.16	34609.50
665.30	34677.38
665.44	34476.09
665.59	34354.38
665.73	34251.40
665.87	33869.89
666.01	34195.23
666.15	34136.71
666.29	34120.33
666.44	34892.71
666.58	34333.32
666.72	34338.00
666.86	34125.01
667.00	34415.24
667.14	33846.49
667.28	33869.89
667.43	33853.51
667.57	34064.16
667.71	33612.43
667.85	33722.44
667.99	33462.64
668.13	33331.57
668.27	33120.92
668.41	33975.22
668.56	33574.98
668.70	33926.07
668.84	33186.46
668.98	33193.48
669.12	33298.80
669.26	33221.56
669.40	33067.09
669.54	32776.86
669.68	33230.93
669.82	33228.59
669.96	32884.53
670.10	32615.37
670.25	33001.55
670.39	32844.74
670.53	33022.62
670.67	32826.01
670.81	32835.38
670.95	32517.06
671.09	32730.05
671.23	32835.38
671.37	32488.98
671.51	32514.72
671.65	32119.17
671.79	31978.74
671.93	31913.20
672.07	32318.12
672.21	32016.19
672.35	32048.96
672.49	31983.42
672.63	32048.96
672.77	32053.64
672.91	32093.43
673.05	31644.04
673.19	31503.61
673.33	31218.07
673.47	31388.92
673.61	31260.20
673.75	31276.58
673.89	31124.44
674.03	31028.48
674.17	31089.34
674.31	31304.67
674.45	31299.98
674.59	31115.08
674.73	31248.49
674.87	30745.28
675.01	30787.41
675.15	30869.33
675.29	30635.27
675.43	30841.24
675.56	30944.22
675.70	30548.67
675.84	30139.08
675.98	29376.06
676.12	30103.97
676.26	30211.64
676.40	30235.04
676.54	29909.71
676.68	30258.45
676.82	29366.70
676.96	29462.66
677.10	29411.17
677.23	29455.64
677.37	29773.95
677.51	29439.26
677.65	29053.07
677.79	28912.64
677.93	29378.40
678.07	28739.44
678.21	29041.37
678.34	29134.99
678.48	28697.31
678.62	28811.99
678.76	28685.61
678.90	28383.68
679.04	28591.98
679.18	28453.89
679.31	27740.03
679.45	27852.38
679.59	28039.62
679.73	27370.22
679.87	27974.08
680.00	27665.13
680.14	27896.85
680.28	27814.93
680.42	27536.40
680.56	27363.20
680.70	27424.06
680.83	27505.98
680.97	27229.79
681.11	27419.38
681.25	27056.59
681.39	26799.13
681.52	27044.89
681.66	26668.06
681.80	26651.68
681.94	26576.78
682.07	26321.66
682.21	26529.97
682.35	26649.34
682.49	26635.30
682.62	26174.21
682.76	26410.60
682.90	25977.61
683.04	25933.14
683.17	26111.02
683.31	25951.86
683.45	26391.88
683.59	25790.36
683.72	25530.56
683.86	25448.64
684.00	25139.69
684.13	25507.16
684.27	25680.36
684.41	25240.34
684.55	24776.91
684.68	25029.69
684.82	24835.42
684.96	25212.25
685.09	25067.14
685.23	24353.27
685.37	24423.49
685.50	24802.66
685.64	24397.74
685.78	24299.44
685.91	24379.02
686.05	23931.98
686.19	23728.35
686.32	24208.16
686.46	23960.06
686.60	23672.18
686.73	23536.43
686.87	23278.97
687.01	23681.54
687.14	23339.82
687.28	23082.36
687.42	23339.82
687.55	23143.22
687.69	23124.49
687.82	22822.56
687.96	23147.90
688.10	22906.82
688.23	23009.81
688.37	22604.89
688.50	21963.59
688.64	22335.73
688.78	22431.69
688.91	21928.48
689.05	22431.69
689.18	22466.80
689.32	21649.96
689.46	21846.56
689.59	22335.73
689.73	21972.95
689.86	21961.25
690.00	21851.24
690.13	21970.61
690.27	21774.00
690.41	21249.72
690.54	21195.89
690.68	21015.67
690.81	21231.00
690.95	20727.78
691.08	21205.25
691.22	21125.68
691.35	20793.32
691.49	21120.99
691.62	21362.07
691.76	20648.21
691.89	20989.92
692.03	20720.76
692.16	20362.66
692.30	20343.94
692.43	20322.87
692.57	19873.49
692.70	19861.79
692.84	20126.27
692.97	19913.28
693.11	19924.98
693.24	19407.72
693.38	19510.71
693.51	19379.64
693.65	19868.81
693.78	19545.81
693.92	19611.35
694.05	19384.32
694.19	19522.41
694.32	18719.60
694.45	19232.18
694.59	19211.12
694.72	19030.90
694.86	18794.50
694.99	18668.11
695.13	18913.87
695.26	18583.85
695.39	18204.69
695.53	18115.75
695.66	18562.79
695.80	18415.34
695.93	18155.54
696.07	18071.28
696.20	18195.32
696.33	18050.21
696.47	17991.70
696.60	17762.33
696.73	17830.20
696.87	18090.00
697.00	17851.27
697.14	17673.39
697.27	17891.06
697.40	17736.58
697.54	17509.55
697.67	17334.01
697.80	17226.34
697.94	17135.06
698.07	16823.77
698.21	17214.64
698.34	17167.83
698.47	16875.26
698.61	16725.47
698.74	16540.57
698.87	16762.92
699.01	16849.52
699.14	16535.88
699.27	16269.06
699.40	16009.26
699.54	16184.80
699.67	16109.91
699.80	15946.07
699.94	16180.12
700.07	15791.59
700.20	15934.37
700.34	15875.85
700.47	15885.22
700.60	15983.52
700.73	15777.55
700.87	15646.48
701.00	15674.57
701.13	15234.55
701.26	15564.56
701.40	15204.12
701.53	15161.99
701.66	15548.18
701.79	15157.31
701.93	15112.84
702.06	15150.29
702.19	14958.36
702.32	15019.22
702.46	14740.69
702.59	14750.06
702.72	14963.04
702.85	14700.90
702.99	14642.39
703.12	15087.09
703.25	14574.52
703.38	14539.41
703.51	14361.53
703.65	14349.82
703.78	14291.31
703.91	14146.20
704.04	14036.19
704.17	14319.40
704.31	13994.06
704.44	13827.88
704.57	13429.99
704.70	13563.40
704.83	13549.36
704.96	13631.28
705.10	13916.83
705.23	13603.19
>>>>>End Processed Spectral Data<<<<<
