SpectraSuite Data File
++++++++++++++++++++++++++++++++++++
Date: Fri Oct 25 10:44:23 EDT 2013
User: price-jones
Dark Spectrum Present: No
Reference Spectrum Present: No
Number of Sampled Component Spectra: 1
Spectrometers: USB2+H05261
Integration Time (usec): 100000 (USB2+H05261)
Spectra Averaged: 1 (USB2+H05261)
Boxcar Smoothing: 0 (USB2+H05261)
Correct for Electrical Dark: No (USB2+H05261)
Strobe/Lamp Enabled: No (USB2+H05261)
Correct for Detector Non-linearity: No (USB2+H05261)
Correct for Stray Light: No (USB2+H05261)
Number of Pixels in Processed Spectrum: 2048
>>>>>Begin Processed Spectral Data<<<<<
365.73	128.73
365.92	128.73
366.12	128.73
366.32	65.54
366.52	4.68
366.72	4.68
366.91	51.49
367.11	0.00
367.31	39.79
367.51	25.75
367.70	46.81
367.90	86.60
368.10	65.54
368.30	37.45
368.49	0.00
368.69	14.04
368.89	14.04
369.09	102.98
369.28	30.43
369.48	35.11
369.68	81.92
369.87	86.60
370.07	91.28
370.27	163.84
370.47	154.48
370.66	339.38
370.86	451.72
371.06	489.17
371.25	533.64
371.45	578.11
371.65	468.11
371.84	526.62
372.04	491.51
372.24	491.51
372.44	566.41
372.63	521.94
372.83	514.92
373.03	512.58
373.22	496.19
373.42	575.77
373.62	517.26
373.81	512.58
374.01	571.09
374.21	669.39
374.40	561.73
374.60	622.58
374.79	571.09
374.99	608.54
375.19	575.77
375.38	521.94
375.58	571.09
375.78	641.31
375.97	601.52
376.17	627.26
376.37	599.18
376.56	671.73
376.76	615.56
376.95	599.18
377.15	587.47
377.35	582.79
377.54	681.10
377.74	662.37
377.93	657.69
378.13	636.63
378.33	702.16
378.52	753.65
378.72	667.05
378.91	683.44
379.11	753.65
379.31	629.60
379.50	578.11
379.70	727.91
379.89	748.97
380.09	636.63
380.28	678.76
380.48	748.97
380.68	641.31
380.87	667.05
381.07	711.52
381.26	688.12
381.46	821.53
381.65	730.25
381.85	741.95
382.04	699.82
382.24	688.12
382.43	706.84
382.63	669.39
382.83	809.83
383.02	744.29
383.22	720.88
383.41	744.29
383.61	664.71
383.80	823.87
384.00	702.16
384.19	702.16
384.39	795.78
384.58	903.45
384.78	887.06
384.97	830.89
385.17	919.83
385.36	746.63
385.56	854.30
385.75	774.72
385.95	816.85
386.14	842.59
386.34	936.21
386.53	887.06
386.72	915.15
386.92	854.30
387.11	884.72
387.31	908.13
387.50	840.25
387.70	929.19
387.89	959.62
388.09	887.06
388.28	952.60
388.48	889.40
388.67	945.58
388.86	980.68
389.06	987.71
389.25	1006.43
389.45	1029.84
389.64	1039.20
389.84	1050.90
390.03	1018.13
390.22	938.55
390.42	894.08
390.61	1081.33
390.81	1006.43
391.00	1083.67
391.19	1104.73
391.39	1083.67
391.58	1081.33
391.78	1142.18
391.97	1018.13
392.16	1053.24
392.36	1039.20
392.55	1114.10
392.75	1001.75
392.94	947.92
393.13	1039.20
393.33	1004.09
393.52	1076.65
393.71	1036.86
393.91	1151.54
394.10	1170.27
394.29	1130.48
394.49	1249.85
394.68	1268.57
394.88	1235.80
395.07	1270.91
395.26	1181.97
395.46	1268.57
395.65	1310.70
395.84	1207.72
396.04	1327.08
396.23	1259.21
396.42	1153.88
396.62	1254.53
396.81	1177.29
397.00	1219.42
397.19	1345.81
397.39	1317.72
397.58	1385.60
397.77	1364.53
397.97	1497.94
398.16	1453.47
398.35	1516.67
398.55	1509.65
398.74	1561.14
398.93	1626.67
399.12	1542.41
399.32	1537.73
399.51	1544.75
399.70	1624.33
399.90	1584.54
400.09	1579.86
400.28	1612.63
400.47	1685.19
400.67	1767.10
400.86	1633.69
401.05	1666.46
401.24	1760.08
401.44	1729.66
401.63	1804.55
401.82	1844.34
402.01	1827.96
402.21	1717.95
402.40	1795.19
402.59	1806.89
402.78	1797.53
402.97	1778.81
403.17	1912.22
403.36	1870.09
403.55	1963.71
403.74	2012.86
403.93	1935.62
404.13	1905.20
404.32	1914.56
404.51	1884.13
404.70	1989.46
404.89	2019.88
405.09	2120.53
405.28	1961.37
405.47	2024.56
405.66	2045.63
405.85	2083.08
406.05	1956.69
406.24	2036.27
406.43	2094.78
406.62	2129.89
406.81	2221.17
407.00	2134.57
407.20	2207.13
407.39	2099.46
407.58	2176.70
407.77	2155.63
407.96	2368.62
408.15	2282.02
408.34	2331.17
408.54	2483.31
408.73	2331.17
408.92	2249.25
409.11	2413.09
409.30	2403.73
409.49	2338.20
409.68	2321.81
409.87	2382.67
410.07	2363.94
410.26	2551.18
410.45	2476.29
410.64	2541.82
410.83	2427.14
411.02	2572.25
411.21	2686.94
411.40	2621.40
411.59	2658.85
411.78	2724.38
411.98	2726.72
412.17	2848.43
412.36	2796.94
412.55	2715.02
412.74	2794.60
412.93	2937.37
413.12	2794.60
413.31	2911.63
413.50	3002.91
413.69	3038.02
413.88	3005.25
414.07	2963.12
414.26	2904.60
414.45	3063.76
414.64	3028.65
414.83	3143.34
415.02	3178.45
415.22	3077.80
415.41	3197.17
415.60	3311.86
415.79	3377.39
415.98	3316.54
416.17	3386.76
416.36	3386.76
416.55	3400.80
416.74	3339.94
416.93	3400.80
417.12	3358.67
417.31	3361.01
417.50	3501.44
417.69	3555.27
417.88	3332.92
418.07	3501.44
418.26	3550.59
418.45	3609.11
418.64	3777.62
418.83	3674.64
419.02	3559.95
419.21	3599.74
419.39	3618.47
419.58	3772.94
419.77	3639.53
419.96	3641.87
420.15	3777.62
420.34	3955.51
420.53	3864.22
420.72	3955.51
420.91	3985.93
421.10	4079.55
421.29	4121.68
421.48	3854.86
421.67	3847.84
421.86	4037.42
422.05	4102.96
422.24	3892.31
422.43	4025.72
422.61	3861.88
422.80	3997.64
422.99	4121.68
423.18	4025.72
423.37	4077.21
423.56	4030.40
423.75	4037.42
423.94	3974.23
424.13	3824.44
424.32	3927.42
424.50	4156.79
424.69	4067.85
424.88	4114.66
425.07	4035.08
425.26	4100.62
425.45	3920.40
425.64	3922.74
425.83	4042.11
426.01	4278.50
426.20	4215.30
426.39	4212.96
426.58	4053.81
426.77	4198.92
426.96	4112.32
427.15	4053.81
427.33	4107.64
427.52	4049.13
427.71	4252.75
427.90	4290.20
428.09	4283.18
428.28	4409.57
428.46	4243.39
428.65	4285.52
428.84	4468.08
429.03	4306.59
429.22	4393.19
429.40	4292.54
429.59	4243.39
429.78	4035.08
429.97	3962.53
430.16	4117.00
430.34	4184.88
430.53	4304.25
430.72	4379.14
430.91	4198.92
431.10	4400.21
431.28	4631.92
431.47	4697.46
431.66	4762.99
431.85	4594.47
432.03	4620.22
432.22	4880.02
432.41	4947.89
432.60	4713.84
432.79	4861.29
432.97	4947.89
433.16	4753.63
433.35	4777.03
433.54	4840.23
433.72	4924.49
433.91	4774.69
434.10	4816.82
434.28	4922.15
434.47	5022.79
434.66	5074.28
434.85	5167.90
435.03	5184.29
435.22	5085.98
435.41	5191.31
435.59	5210.03
435.78	5235.78
435.97	5256.84
436.16	5366.85
436.34	5135.14
436.53	5289.61
436.72	5500.26
436.90	5277.91
437.09	5165.56
437.28	5163.22
437.46	5296.63
437.65	5247.48
437.84	5270.89
438.02	5301.31
438.21	5245.14
438.40	5179.61
438.58	5523.66
438.77	5666.44
438.96	5757.72
439.14	5734.31
439.33	5778.78
439.52	5713.25
439.70	5696.86
439.89	5877.09
440.08	5996.45
440.26	5809.21
440.45	5898.15
440.63	5860.70
440.82	6104.12
441.01	6202.42
441.19	6150.93
441.38	6317.11
441.57	6333.49
441.75	6256.25
441.94	6466.90
442.12	6370.94
442.31	6452.86
442.50	6506.69
442.68	6581.59
442.87	6637.76
443.05	6640.10
443.24	6745.42
443.43	6712.66
443.61	6532.44
443.80	6911.60
443.98	6665.85
444.17	6476.26
444.35	6700.95
444.54	6995.86
444.73	6829.68
444.91	6574.56
445.10	6799.26
445.28	6771.17
445.47	6483.28
445.65	6710.32
445.84	6551.16
446.02	7030.97
446.21	6623.72
446.39	6757.13
446.58	6876.49
446.77	6862.45
446.95	6700.95
447.14	6848.41
447.32	6923.30
447.51	6808.62
447.69	6846.07
447.88	6906.92
448.06	6946.71
448.25	6984.16
448.43	7007.56
448.62	6986.50
448.80	7002.88
448.99	7232.26
449.17	7028.63
449.36	7126.93
449.54	7178.42
449.73	7262.68
449.91	7375.03
450.10	7316.51
450.28	7435.88
450.46	7456.95
450.65	7307.15
450.83	7368.01
451.02	7674.62
451.20	7489.71
451.39	7529.50
451.57	7424.18
451.76	7389.07
451.94	7419.50
452.13	7606.74
452.31	7368.01
452.49	7293.11
452.68	7325.88
452.86	7384.39
453.05	7445.24
453.23	7674.62
453.42	7503.76
453.60	7611.42
453.78	7744.83
453.97	7590.36
454.15	7702.70
454.34	7482.69
454.52	7817.39
454.70	7805.69
454.89	7889.95
455.07	7789.30
455.26	7801.01
455.44	7920.37
455.62	8060.80
455.81	8133.36
455.99	8067.83
456.17	7995.27
456.36	8006.97
456.54	8156.77
456.73	8212.94
456.91	8444.65
457.09	8255.07
457.28	8381.46
457.46	8271.45
457.64	8376.78
457.83	8376.78
458.01	8215.28
458.19	8730.20
458.38	8442.31
458.56	8435.29
458.74	8475.08
458.93	8512.53
459.11	8449.33
459.29	8753.60
459.48	8423.59
459.66	8734.88
459.84	8542.96
460.03	8624.87
460.21	8727.86
460.39	8807.44
460.57	8784.03
460.76	8812.12
460.94	8828.50
461.12	8910.42
461.31	8800.41
461.49	8966.59
461.67	8997.02
461.85	9273.20
462.04	8980.64
462.22	9132.77
462.40	9078.94
462.59	9165.54
462.77	9373.85
462.95	9151.49
463.13	9167.88
463.32	9266.18
463.50	9142.13
463.68	9341.08
463.86	9259.16
464.05	9048.51
464.23	9202.99
464.41	9376.19
464.59	9207.67
464.78	9301.29
464.96	9432.36
465.14	9329.38
465.32	9430.02
465.50	9411.29
465.69	9664.07
465.87	9310.65
466.05	9275.54
466.23	9572.79
466.41	9518.96
466.60	9565.77
466.78	9385.55
466.96	9628.96
467.14	9458.10
467.32	9675.77
467.51	9572.79
467.69	9394.91
467.87	9561.09
468.05	9713.22
468.23	9600.88
468.41	9769.40
468.60	9584.49
468.78	9956.64
468.96	9879.40
469.14	9963.66
469.32	9895.78
469.50	9755.35
469.69	10104.09
469.87	10022.17
470.05	10017.49
470.23	10141.54
470.41	10113.45
470.59	10169.63
470.77	10195.37
470.95	10291.34
471.14	10548.79
471.32	10296.02
471.50	10518.37
471.68	10630.71
471.86	10675.18
472.04	10602.63
472.22	10733.70
472.40	10813.28
472.58	10649.44
472.77	10757.10
472.95	10712.63
473.13	11283.72
473.31	10761.78
473.49	10923.28
473.67	10731.36
473.85	11026.26
474.03	11194.78
474.21	11190.10
474.39	11377.34
474.57	11524.80
474.75	11580.97
474.93	11379.68
475.12	11847.79
475.30	11695.66
475.48	11604.38
475.66	11782.26
475.84	11637.14
476.02	11716.72
476.20	11620.76
476.38	11948.43
476.56	12292.49
476.74	12131.00
476.92	12070.14
477.10	12238.66
477.28	12402.50
477.46	12432.93
477.64	12842.52
477.82	12645.91
478.00	12624.85
478.18	12917.42
478.36	12905.71
478.54	12943.16
478.72	12994.65
478.90	13181.90
479.08	13502.55
479.26	13610.22
479.44	13380.84
479.62	13603.19
479.80	13530.64
479.98	13914.48
480.16	14185.99
480.34	13902.78
480.52	14338.12
480.70	14155.56
480.88	13947.25
481.06	14303.01
481.24	14225.78
481.41	14469.19
481.59	14930.28
481.77	14998.15
481.95	14780.48
482.13	15075.39
482.31	15047.30
482.49	15513.07
482.67	15356.25
482.85	15529.45
483.03	15634.78
483.21	15777.55
483.39	15845.43
483.57	16023.31
483.74	16060.76
483.92	15953.09
484.10	16095.86
484.28	16255.02
484.46	16325.24
484.64	16851.86
484.82	16720.79
485.00	16889.31
485.18	16985.27
485.35	16919.73
485.53	16664.61
485.71	16358.00
485.89	17174.85
486.07	16786.32
486.25	17137.40
486.43	17516.57
486.61	17481.46
486.78	17619.55
486.96	17738.92
487.14	18136.81
487.32	18333.42
487.50	18195.32
487.68	18380.23
487.85	18773.44
488.03	18803.86
488.21	18944.30
488.39	18799.18
488.57	19185.37
488.75	19307.08
488.92	19784.55
489.10	19967.11
489.28	19861.79
489.46	20404.79
489.64	20231.59
489.81	20805.02
489.99	20893.96
490.17	20870.56
490.35	20980.56
490.53	20989.92
490.70	21205.25
490.88	20915.03
491.06	21429.94
491.24	21242.70
491.41	21331.64
491.59	21659.32
491.77	21198.23
491.95	21352.71
492.13	21818.47
492.30	21872.31
492.48	22235.09
492.66	22609.58
492.84	22347.44
493.01	22986.40
493.19	22609.58
493.37	22740.64
493.54	22742.99
493.72	23201.73
493.90	23274.29
494.08	23754.10
494.25	23634.73
494.43	24109.86
494.61	24016.24
494.79	24006.87
494.96	24350.93
495.14	23927.30
495.32	24290.08
495.49	24257.31
495.67	24348.59
495.85	24659.88
496.02	25060.12
496.20	24746.48
496.38	25106.93
496.55	25017.99
496.73	25626.53
496.91	25418.22
497.09	25970.58
497.26	26272.51
497.44	25778.66
497.62	25675.68
497.79	26143.78
497.97	26036.12
498.14	26237.41
498.32	26223.36
498.50	26188.25
498.67	26984.04
498.85	26506.57
499.03	27211.07
499.20	27084.68
499.38	27119.79
499.56	26881.05
499.73	26967.65
499.91	27019.14
500.08	27388.95
500.26	27239.15
500.44	27182.98
500.61	27419.38
500.79	27290.65
500.97	27302.35
501.14	27840.67
501.32	27744.71
501.49	27676.83
501.67	27473.21
501.84	27880.46
502.02	28079.41
502.20	28449.21
502.37	28826.04
502.55	28411.76
502.72	28753.48
502.90	28692.63
503.07	28727.74
503.25	28755.82
503.43	29153.71
503.60	28933.70
503.78	29336.27
503.95	28947.75
504.13	29254.36
504.30	29567.99
504.48	29104.56
504.65	29729.48
504.83	29839.49
505.01	29879.28
505.18	29610.12
505.36	30284.19
505.53	30394.20
505.71	30529.95
505.88	30490.16
506.06	30246.74
506.23	30665.70
506.41	30363.77
506.58	30782.73
506.76	31014.44
506.93	31049.55
507.11	30782.73
507.28	30731.23
507.46	30735.92
507.63	30639.95
507.81	31019.12
507.98	31042.53
508.16	31323.39
508.33	31398.29
508.50	31665.11
508.68	31665.11
508.85	31740.00
509.03	32271.31
509.20	31632.34
509.38	31997.46
509.55	31791.50
509.73	32423.44
509.90	32378.97
510.08	32180.03
510.25	32030.23
510.42	32184.71
510.60	32292.37
510.77	32898.57
510.95	32793.25
511.12	32718.35
511.30	33118.58
511.47	33268.37
511.64	33294.12
511.82	32968.79
511.99	33205.18
512.17	33497.75
512.34	32971.13
512.51	33450.94
512.69	33443.91
512.86	33511.79
513.04	34122.67
513.21	33490.73
513.38	33710.74
513.56	33724.78
513.73	33755.21
513.90	34157.78
514.08	33715.42
514.25	33511.79
514.43	33818.40
514.60	33792.65
514.77	34188.21
514.95	34476.09
515.12	34429.28
515.29	34174.16
515.47	34904.41
515.64	34976.97
515.81	34335.66
515.99	34775.68
516.16	34611.84
516.33	34092.24
516.51	34660.99
516.68	33961.17
516.85	33879.25
517.03	34429.28
517.20	34511.20
517.37	35323.36
517.54	34906.75
517.72	35515.29
517.89	35211.02
518.06	34698.44
518.24	34572.05
518.41	35246.13
518.58	35426.35
518.75	35292.94
518.93	35744.66
519.10	35646.36
519.27	35807.86
519.45	35782.11
519.62	36018.50
519.79	36039.57
519.96	36105.10
520.14	36137.87
520.31	35871.05
520.48	36243.20
520.65	36229.15
520.83	36730.03
521.00	37200.47
521.17	36486.61
521.34	37067.06
521.52	37408.78
521.69	36943.02
521.86	37188.77
522.03	37539.85
522.20	37090.47
522.38	37111.53
522.55	37291.76
522.72	37017.91
522.89	36999.19
523.07	37986.89
523.24	37165.37
523.41	37968.17
523.58	37897.95
523.75	38000.94
523.92	38153.07
524.10	37869.87
524.27	38167.12
524.44	38321.59
524.61	38174.14
524.78	38586.07
524.96	38389.47
525.13	38473.73
525.30	38663.31
525.47	38841.19
525.64	38438.62
525.81	38333.29
525.98	38176.48
526.16	37947.11
526.33	38026.68
526.50	38169.46
526.67	38043.07
526.84	38141.37
527.01	38169.46
527.18	38611.82
527.36	39189.93
527.53	39035.45
527.70	39313.98
527.87	39175.89
528.04	39049.50
528.21	38934.81
528.38	39805.49
528.55	39929.54
528.72	40369.56
528.89	39651.02
529.07	39552.71
529.24	39337.38
529.41	39545.69
529.58	39700.17
529.75	39529.31
529.92	39817.19
530.09	40091.04
530.26	40147.21
530.43	40500.63
530.60	40259.55
530.77	39721.23
530.94	40311.05
531.11	40346.15
531.28	40898.52
531.46	40231.47
531.63	40662.13
531.80	40547.44
531.97	40507.65
532.14	40025.50
532.31	39969.33
532.48	40748.73
532.65	40498.29
532.82	40699.58
532.99	40622.34
533.16	40306.37
533.33	40942.99
533.50	40744.05
533.67	40531.06
533.84	40989.80
534.01	40676.17
534.18	40474.88
534.35	41453.23
534.52	41092.79
534.69	41228.54
534.86	41247.26
535.03	41521.10
535.20	41570.25
535.37	41558.55
535.54	42043.04
535.71	41794.95
535.88	41813.67
536.05	42014.96
536.22	41717.71
536.38	41539.83
536.55	41345.56
536.72	41422.80
536.89	41411.10
537.06	41759.84
537.23	41867.50
537.40	41942.40
537.57	41933.04
537.74	41652.17
537.91	42356.67
538.08	42382.42
538.25	41675.58
538.42	41816.01
538.59	42249.01
538.75	42021.98
538.92	42167.09
539.09	42246.67
539.26	42256.03
539.43	42309.86
539.60	42195.18
539.77	41954.10
539.94	41830.05
540.11	42302.84
540.28	42616.47
540.44	42513.49
540.61	42059.43
540.78	42199.86
540.95	42370.72
541.12	42246.67
541.29	42548.60
541.46	42857.55
541.62	43068.20
541.79	42990.96
541.96	42436.25
542.13	42974.58
542.30	42721.80
542.47	42848.19
542.63	42986.28
542.80	43037.77
542.97	43187.56
543.14	43906.11
543.31	43388.85
543.48	43580.78
543.64	43807.81
543.81	43941.22
543.98	43917.81
544.15	43927.17
544.32	43735.25
544.48	43976.33
544.65	44128.46
544.82	44189.31
544.99	43599.50
545.16	43730.57
545.32	44058.24
545.49	44334.43
545.66	44156.55
545.83	44556.78
546.00	44390.60
546.16	43913.13
546.33	44102.71
546.50	43601.84
546.67	44425.71
546.83	44212.72
547.00	44135.48
547.17	44615.29
547.34	43992.71
547.50	44252.51
547.67	44657.42
547.84	44229.10
548.00	44418.69
548.17	44954.67
548.34	44694.87
548.51	44783.81
548.67	44659.76
548.84	44891.48
549.01	44561.46
549.18	44641.04
549.34	44856.37
549.51	44879.77
549.68	44999.14
549.84	45010.84
550.01	44992.12
550.18	44886.79
550.34	44893.82
550.51	44847.00
550.68	44957.01
550.84	44732.32
551.01	44671.46
551.18	44671.46
551.34	44828.28
551.51	45270.64
551.68	44999.14
551.84	45436.82
552.01	44999.14
552.18	44861.05
552.34	44694.87
552.51	45338.52
552.68	44964.03
552.84	45759.81
553.01	45638.11
553.18	45516.40
553.34	45085.74
553.51	44732.32
553.67	45345.54
553.84	45713.00
554.01	45654.49
554.17	45565.55
554.34	45792.58
554.51	45659.17
554.67	46031.32
554.84	45872.16
555.00	45478.95
555.17	45226.17
555.33	45940.04
555.50	45521.08
555.67	45001.48
555.83	45558.53
556.00	45904.93
556.16	45750.45
556.33	45780.88
556.50	45530.44
556.66	45535.12
556.83	45230.85
556.99	45940.04
557.16	46178.77
557.32	46253.67
557.49	45902.59
557.65	46026.63
557.82	45411.07
557.98	46052.38
558.15	46052.38
558.32	45935.35
558.48	45668.53
558.65	45659.17
558.81	46068.76
558.98	45628.74
559.14	45462.57
559.31	46068.76
559.47	45951.74
559.64	46520.49
559.80	46148.34
559.97	46710.07
560.13	45916.63
560.30	46220.90
560.46	46078.13
560.63	46122.60
560.79	45904.93
560.96	46656.24
561.12	46316.86
561.29	46248.99
561.45	46370.69
561.61	46120.26
561.78	46026.63
561.94	46394.10
562.11	46110.89
562.27	46291.12
562.44	46471.34
562.60	46686.67
562.77	46672.62
562.93	46527.51
563.10	46436.23
563.26	46089.83
563.42	46630.49
563.59	45989.19
563.75	46192.81
563.92	46356.65
564.08	46700.71
564.24	46681.98
564.41	46689.01
564.57	46724.11
564.74	46464.32
564.90	46583.68
565.07	46756.88
565.23	46660.92
565.39	46113.23
565.56	46204.52
565.72	46609.43
565.88	46611.77
566.05	46260.69
566.21	46539.21
566.38	46293.46
566.54	46684.33
566.70	46686.67
566.87	46990.94
567.03	46635.17
567.19	47318.61
567.36	46469.00
567.52	46698.37
567.68	46504.10
567.85	46267.71
568.01	46618.79
568.17	46398.78
568.34	47002.64
568.50	46672.62
568.66	46380.06
568.83	46625.81
568.99	46183.45
569.15	46618.79
569.32	46735.82
569.48	46326.22
569.64	46719.43
569.81	46288.77
569.97	46590.70
570.13	46429.21
570.30	46204.52
570.46	46504.10
570.62	46485.38
570.78	46766.24
570.95	46363.67
571.11	46543.89
571.27	46698.37
571.43	46595.38
571.60	46829.44
571.76	46522.83
571.92	46958.17
572.09	46380.06
572.25	46464.32
572.41	46752.20
572.57	46993.28
572.74	47260.10
572.90	46890.29
573.06	47096.26
573.22	47164.14
573.38	46806.03
573.55	46562.62
573.71	47215.63
573.87	46738.16
574.03	46653.90
574.20	46738.16
574.36	46625.81
574.52	46529.85
574.68	46852.84
574.84	46564.96
575.01	46855.18
575.17	46965.19
575.33	46546.23
575.49	46754.54
575.65	46590.70
575.82	46834.12
575.98	46497.08
576.14	47030.72
576.30	46689.01
576.46	46972.21
576.62	46504.10
576.79	46745.18
576.95	46618.79
577.11	47103.28
577.27	46836.46
577.43	46920.72
577.59	46497.08
577.75	46340.27
577.92	46787.31
578.08	46298.14
578.24	46829.44
578.40	46396.44
578.56	46382.40
578.72	46527.51
578.88	46909.02
579.04	46976.89
579.21	47098.60
579.37	46983.91
579.53	46815.40
579.69	46674.96
579.85	46990.94
580.01	47054.13
580.17	46789.65
580.33	47264.78
580.49	46782.63
580.65	47217.97
580.82	47203.92
580.98	46878.59
581.14	46904.34
581.30	47129.03
581.46	46913.70
581.62	47152.43
581.78	47063.49
581.94	46937.10
582.10	46625.81
582.26	47433.30
582.42	47122.01
582.58	46855.18
582.74	46948.81
582.90	47063.49
583.06	47196.90
583.22	47189.88
583.38	47379.46
583.54	46986.25
583.70	47194.56
583.86	47388.83
584.02	46679.64
584.18	46770.93
584.34	46969.87
584.50	47182.86
584.66	46766.24
584.82	46848.16
584.98	47012.00
585.14	47023.70
585.30	46885.61
585.46	46789.65
585.62	46974.55
585.78	47012.00
585.94	46667.94
586.10	47002.64
586.26	46564.96
586.42	47229.67
586.58	47096.26
586.74	47430.96
586.90	46705.39
587.06	46293.46
587.22	46452.61
587.38	46691.35
587.54	46969.87
587.70	47012.00
587.86	47253.08
588.02	47084.56
588.18	47096.26
588.34	47014.34
588.49	46129.62
588.65	46300.48
588.81	46216.22
588.97	46623.47
589.13	46485.38
589.29	46335.59
589.45	46653.90
589.61	46646.88
589.77	46969.87
589.93	46871.57
590.08	47007.32
590.24	47154.77
590.40	47072.85
590.56	46967.53
590.72	47414.57
590.88	46969.87
591.04	47056.47
591.20	47442.66
591.35	47192.22
591.51	47154.77
591.67	47033.07
591.83	47391.17
591.99	46972.21
592.15	47227.33
592.31	46899.65
592.46	46660.92
592.62	47044.77
592.78	47540.96
592.94	47559.69
593.10	46958.17
593.26	47012.00
593.41	47021.36
593.57	47302.23
593.73	46967.53
593.89	47068.17
594.05	46740.50
594.20	46997.96
594.36	47189.88
594.52	46813.05
594.68	46611.77
594.84	46712.41
594.99	47124.35
595.15	46962.85
595.31	47271.80
595.47	47180.52
595.62	46948.81
595.78	46997.96
595.94	47501.17
596.10	47470.75
596.25	47395.85
596.41	47154.77
596.57	47138.39
596.73	47391.17
596.88	46834.12
597.04	47077.54
597.20	46855.18
597.36	47271.80
597.51	47136.05
597.67	47105.62
597.83	47426.28
597.99	47138.39
598.14	47213.29
598.30	47082.22
598.46	46848.16
598.61	47370.10
598.77	46693.69
598.93	47278.82
599.09	47063.49
599.24	47540.96
599.40	47320.95
599.56	46663.26
599.71	46887.95
599.87	47648.63
600.03	46866.89
600.18	47147.75
600.34	47217.97
600.50	47290.52
600.65	47037.75
600.81	47325.63
600.97	47480.11
601.12	47334.99
601.28	47313.93
601.44	47206.26
601.59	47042.43
601.75	46691.35
601.91	46941.78
602.06	47002.64
602.22	47194.56
602.37	46855.18
602.53	46934.76
602.69	47545.64
602.84	47349.04
603.00	46543.89
603.16	46937.10
603.31	47283.50
603.47	46836.46
603.62	46958.17
603.78	47138.39
603.94	47220.31
604.09	47711.82
604.25	47449.68
604.40	47234.35
604.56	47023.70
604.71	47248.39
604.87	46934.76
605.03	46836.46
605.18	47051.79
605.34	47299.89
605.49	46689.01
605.65	47075.19
605.80	47091.58
605.96	47217.97
606.12	46920.72
606.27	47543.30
606.43	47079.88
606.58	47147.75
606.74	46653.90
606.89	47227.33
607.05	47040.09
607.20	46995.62
607.36	46625.81
607.51	46979.23
607.67	47243.71
607.82	46925.40
607.98	46710.07
608.13	46658.58
608.29	46366.01
608.44	46185.79
608.60	46391.76
608.75	46562.62
608.91	46602.41
609.06	46270.05
609.22	46719.43
609.37	46368.35
609.53	46990.94
609.68	46813.05
609.84	46286.43
609.99	46464.32
610.15	46363.67
610.30	46291.12
610.46	46143.66
610.61	46955.83
610.76	46593.04
610.92	46532.19
611.07	46904.34
611.23	46735.82
611.38	46838.80
611.54	46419.84
611.69	46316.86
611.84	46057.06
612.00	46312.18
612.15	46017.27
612.31	46408.14
612.46	46220.90
612.62	46459.63
612.77	46298.14
612.92	46361.33
613.08	46127.28
613.23	46167.07
613.39	45944.72
613.54	45464.91
613.69	45663.85
613.85	45762.15
614.00	45869.82
614.15	46340.27
614.31	46354.31
614.46	46227.92
614.62	46157.70
614.77	45680.24
614.92	45846.41
615.08	45998.55
615.23	45745.77
615.38	45694.28
615.54	45497.67
615.69	45895.56
615.84	45336.18
616.00	45769.18
616.15	45680.24
616.30	45717.68
616.46	45221.49
616.61	45521.08
616.76	44910.20
616.92	45029.57
617.07	45050.63
617.22	45284.68
617.37	45425.12
617.53	45860.46
617.68	45755.13
617.83	45457.88
617.99	45504.70
618.14	45455.54
618.29	45350.22
618.45	45525.76
618.60	45134.89
618.75	45202.77
618.90	44919.56
619.06	45378.31
619.21	45560.87
619.36	45682.58
619.51	45701.30
619.67	45298.73
619.82	45399.37
619.97	45432.14
620.12	44938.29
620.28	44804.88
620.43	44772.11
620.58	45038.93
620.73	44914.88
620.89	44910.20
621.04	44863.39
621.19	44725.30
621.34	45312.77
621.49	44737.00
621.65	44404.64
621.80	44926.58
621.95	44715.93
622.10	44605.93
622.25	44954.67
622.41	44296.98
622.56	43999.73
622.71	44643.38
622.86	44664.44
623.01	44596.57
623.16	44795.51
623.32	44404.64
623.47	44664.44
623.62	44390.60
623.77	44439.75
623.92	44259.53
624.07	44355.49
624.23	43852.28
624.38	44390.60
624.53	43903.77
624.68	44402.30
624.83	44481.88
624.98	44168.25
625.13	43936.54
625.29	44037.18
625.44	43971.64
625.59	43697.80
625.74	43887.39
625.89	43639.29
626.04	43559.71
626.19	43866.32
626.34	43999.73
626.49	43880.36
626.65	43878.02
626.80	44357.83
626.95	43753.97
627.10	43569.07
627.25	43840.57
627.40	43021.39
627.55	43243.74
627.70	42866.91
627.85	43213.31
628.00	43449.70
628.15	43515.24
628.30	43854.62
628.45	43716.53
628.60	43981.01
628.76	43171.18
628.91	43473.11
629.06	43063.52
629.21	42974.58
629.36	42885.64
629.51	43103.31
629.66	43145.44
629.81	42848.19
629.96	42948.83
630.11	43246.08
630.26	43358.42
630.41	43143.09
630.56	42742.86
630.71	42801.38
630.86	42958.19
631.01	43035.43
631.16	42796.70
631.31	43288.21
631.46	42663.28
631.61	42796.70
631.76	42698.39
631.91	42993.30
632.06	42817.76
632.21	42777.97
632.36	42696.05
632.51	42792.01
632.66	42684.35
632.81	42232.63
632.96	42344.97
633.10	42494.77
633.25	42384.76
633.40	42588.39
633.55	42391.78
633.70	42724.14
633.85	42279.44
634.00	42092.19
634.15	42279.44
634.30	42593.07
634.45	42976.92
634.60	42337.95
634.75	42440.93
634.90	42733.50
635.05	42106.24
635.19	41813.67
635.34	42286.46
635.49	42218.58
635.64	42167.09
635.79	41743.45
635.94	41780.90
636.09	42026.66
636.24	41968.15
636.39	41720.05
636.53	41785.58
636.68	42113.26
636.83	42078.15
636.98	41762.18
637.13	41783.24
637.28	41741.11
637.43	42057.09
637.57	41930.70
637.72	42019.64
637.87	42122.62
638.02	41579.62
638.17	42033.68
638.32	41652.17
638.46	41504.72
638.61	41645.15
638.76	41394.71
638.91	41605.36
639.06	41855.80
639.20	41476.63
639.35	41818.35
639.50	41605.36
639.65	41687.28
639.80	41570.25
639.94	41434.50
640.09	41179.39
640.24	41186.41
640.39	41137.26
640.54	40825.96
640.68	41317.48
640.83	41244.92
640.98	41125.55
641.13	40802.56
641.27	41378.33
641.42	40758.09
641.57	40776.81
641.72	40931.29
641.86	40900.86
642.01	40821.28
642.16	40732.34
642.31	40423.39
642.45	41088.10
642.60	40470.20
642.75	40493.61
642.90	40891.50
643.04	40524.04
643.19	40465.52
643.34	40620.00
643.48	40301.68
643.63	40629.36
643.78	40133.17
643.93	40229.13
644.07	40357.86
644.22	40467.86
644.37	40327.43
644.51	40751.07
644.66	40374.24
644.81	40898.52
644.95	40437.44
645.10	40474.88
645.25	40308.71
645.39	40318.07
645.54	40622.34
645.69	40744.05
645.83	40521.69
645.98	40158.91
646.13	40280.62
646.27	40144.87
646.42	40217.43
646.57	40074.65
646.71	40013.80
646.86	40201.04
647.00	40088.70
647.15	40016.14
647.30	39852.30
647.44	39952.94
647.59	39950.60
647.74	39545.69
647.88	40109.76
648.03	39917.84
648.17	39784.43
648.32	39438.03
648.47	39730.59
648.61	39449.73
648.76	39945.92
648.90	39622.93
649.05	39878.05
649.20	39515.26
649.34	39672.08
649.49	39306.96
649.63	39604.20
649.78	39604.20
649.92	39646.33
650.07	39901.45
650.21	39016.73
650.36	39285.89
650.51	39456.75
650.65	39840.60
650.80	40147.21
650.94	39477.82
651.09	39548.03
651.23	39180.57
651.38	38834.17
651.52	38873.96
651.67	38916.09
651.81	39108.01
651.96	38888.00
652.10	39515.26
652.25	38967.58
652.39	39346.75
652.54	38955.88
652.68	39470.79
652.83	39604.20
652.97	38913.75
653.12	39009.71
653.26	39028.43
653.41	39117.37
653.55	39047.16
653.70	38878.64
653.84	39145.46
653.99	39285.89
654.13	38660.97
654.27	38356.70
654.42	38562.67
654.56	38223.29
654.71	38267.76
654.85	38363.72
655.00	39012.05
655.14	37989.24
655.29	38494.79
655.43	38363.72
655.57	38370.74
655.72	37958.81
655.86	37694.33
656.01	37612.41
656.15	37750.50
656.30	37457.93
656.44	37949.45
656.58	37565.60
656.73	38288.82
656.87	37926.04
657.01	37825.40
657.16	37977.53
657.30	38040.73
657.45	37734.12
657.59	37883.91
657.73	37928.38
657.88	37853.48
658.02	38717.14
658.16	38050.09
658.31	38239.67
658.45	38003.28
658.60	37614.75
658.74	37535.17
658.88	37867.53
659.03	37490.70
659.17	37289.42
659.31	37139.62
659.46	37874.55
659.60	37490.70
659.74	37673.26
659.89	37598.37
660.03	37376.01
660.17	37556.24
660.32	37645.18
660.46	37261.33
660.60	37043.66
660.74	37624.11
660.89	37429.85
661.03	36809.61
661.17	37053.02
661.32	36760.45
661.46	36690.24
661.60	36610.66
661.74	36940.68
661.89	37010.89
662.03	37097.49
662.17	36662.15
662.31	36821.31
662.46	37041.32
662.60	37109.19
662.74	36229.15
662.88	36538.10
663.03	35725.94
663.17	36184.68
663.31	35845.30
663.45	36091.06
663.60	36081.70
663.74	36446.82
663.88	36060.63
664.02	36074.68
664.17	36109.78
664.31	35943.61
664.45	36034.89
664.59	35807.86
664.73	35819.56
664.88	35604.23
665.02	35791.47
665.16	35512.95
665.30	35739.98
665.44	35449.75
665.59	35398.26
665.73	35194.64
665.87	35281.24
666.01	35276.55
666.15	35386.56
666.29	34969.94
666.44	35641.68
666.58	35323.36
666.72	34869.30
666.86	35274.21
667.00	35211.02
667.14	35084.63
667.28	34691.42
667.43	34522.90
667.57	34803.77
667.71	34412.90
667.85	34546.31
667.99	34487.79
668.13	34485.45
668.27	34326.30
668.41	34895.05
668.56	34326.30
668.70	34515.88
668.84	34450.35
668.98	33951.81
669.12	33834.78
669.26	34368.43
669.40	33694.35
669.54	33942.45
669.68	34202.25
669.82	33785.63
669.96	33591.37
670.10	33958.83
670.25	33785.63
670.39	33991.60
670.53	33296.46
670.67	33415.83
670.81	33488.38
670.95	33565.62
671.09	33263.69
671.23	33397.10
671.37	33137.30
671.51	33069.43
671.65	32783.88
671.79	32797.93
671.93	32964.10
672.07	33226.24
672.21	32779.20
672.35	32816.65
672.49	33137.30
672.63	33081.13
672.77	32828.35
672.91	32638.77
673.05	32704.31
673.19	32395.35
673.33	32397.70
673.47	32184.71
673.61	32304.07
673.75	32285.35
673.89	31772.77
674.03	31948.31
674.17	31981.08
674.31	31763.41
674.45	31885.12
674.59	31803.20
674.73	31988.10
674.87	31857.03
675.01	31644.04
675.15	31690.85
675.29	31653.40
675.43	30881.03
675.56	31501.27
675.70	31264.88
675.84	31044.87
675.98	30391.86
676.12	31056.57
676.26	31070.61
676.40	30611.87
676.54	30838.90
676.68	31063.59
676.82	29975.24
676.96	30712.51
677.10	30462.07
677.23	30277.17
677.37	30452.71
677.51	29888.64
677.65	29713.10
677.79	29685.01
677.93	29933.11
678.07	30031.41
678.21	29563.31
678.34	29820.77
678.48	29174.78
678.62	29209.89
678.76	28842.42
678.90	28790.93
679.04	28884.55
679.18	29125.63
679.31	28652.84
679.45	28554.54
679.59	28493.68
679.73	28308.78
679.87	28301.76
680.00	28294.74
680.14	28229.20
680.28	28341.55
680.42	27955.36
680.56	28397.72
680.70	27744.71
680.83	28217.50
680.97	28388.36
681.11	27866.42
681.25	27957.70
681.39	27662.79
681.52	27702.58
681.66	27229.79
681.80	27828.97
681.94	27157.24
682.07	27257.88
682.21	26881.05
682.35	27192.34
682.49	26930.20
682.62	27133.83
682.76	26827.22
682.90	26637.64
683.04	26719.56
683.17	25979.95
683.31	26455.08
683.45	26803.82
683.59	25881.64
683.72	26106.34
683.86	25862.92
684.00	25832.49
684.13	26251.45
684.27	25972.92
684.41	25715.47
684.55	25589.08
684.68	25596.10
684.82	25656.95
684.96	25713.13
685.09	25663.97
685.23	25434.60
685.37	24992.24
685.50	25263.74
685.64	25282.47
685.78	24723.08
685.91	24556.90
686.05	24594.35
686.19	24360.30
686.32	24271.36
686.46	24077.09
686.60	23585.58
686.73	23922.62
686.87	23440.47
687.01	23697.92
687.14	23295.35
687.28	23190.03
687.42	23494.30
687.55	23506.00
687.69	23782.18
687.82	23309.40
687.96	23803.25
688.10	23185.35
688.23	23185.35
688.37	22871.72
688.50	22979.38
688.64	22771.07
688.78	22656.39
688.91	22302.96
689.05	22476.16
689.18	22654.05
689.32	22394.25
689.46	22525.32
689.59	22237.43
689.73	21907.41
689.86	22263.18
690.00	22019.76
690.13	22525.32
690.27	21919.12
690.41	21951.88
690.54	21750.60
690.68	21509.52
690.81	21872.31
690.95	21467.39
691.08	21298.88
691.22	21589.10
691.35	21249.72
691.49	21305.90
691.62	21259.09
691.76	21003.97
691.89	21184.19
692.03	20905.66
692.16	20872.90
692.30	20458.62
692.43	20339.26
692.57	20144.99
692.70	20381.38
692.84	20547.56
692.97	20350.96
693.11	20369.68
693.24	20020.94
693.38	20088.82
693.51	19711.99
693.65	19936.68
693.78	20166.06
693.92	19910.94
694.05	19651.14
694.19	19768.16
694.32	19351.55
694.45	19634.75
694.59	19211.12
694.72	19208.78
694.86	19014.51
694.99	19573.90
695.13	19033.24
695.26	18979.40
695.39	18958.34
695.53	19000.47
695.66	19087.07
695.80	18745.35
695.93	18977.06
696.07	18806.20
696.20	18661.09
696.33	18555.77
696.47	18672.79
696.60	18380.23
696.73	18274.90
696.87	17963.61
697.00	18504.28
697.14	18040.85
697.27	17818.50
697.40	17881.69
697.54	17935.53
697.67	17486.14
697.80	17509.55
697.94	17427.63
698.07	17628.92
698.21	17373.80
698.34	17376.14
698.47	17074.21
698.61	16762.92
698.74	16926.75
698.87	16863.56
699.01	16800.37
699.14	16554.61
699.27	16601.42
699.40	16493.76
699.54	16512.48
699.67	16587.38
699.80	16423.54
699.94	16334.60
700.07	16437.58
700.20	16126.29
700.34	16360.34
700.47	16152.04
700.60	16430.56
700.73	16376.73
700.87	16184.80
701.00	16025.65
701.13	16025.65
701.26	15726.06
701.40	15421.79
701.53	15412.43
701.66	15487.32
701.79	15473.28
701.93	15358.60
702.06	15262.63
702.19	15279.02
702.32	15145.61
702.46	15330.51
702.59	15229.87
702.72	15070.71
702.85	15068.37
702.99	15082.41
703.12	14698.56
703.25	14534.73
703.38	14504.30
703.51	14516.00
703.65	14644.73
703.78	14600.26
703.91	14593.24
704.04	14345.14
704.17	14466.85
704.31	14183.65
704.44	14321.74
704.57	13961.30
704.70	14001.08
704.83	14059.60
704.96	14136.84
705.10	13891.08
705.23	13895.76
>>>>>End Processed Spectral Data<<<<<
