SpectraSuite Data File
++++++++++++++++++++++++++++++++++++
Date: Fri Oct 25 11:34:17 EDT 2013
User: price-jones
Dark Spectrum Present: No
Reference Spectrum Present: No
Number of Sampled Component Spectra: 1
Spectrometers: USB2+H05261
Integration Time (usec): 100000 (USB2+H05261)
Spectra Averaged: 1 (USB2+H05261)
Boxcar Smoothing: 0 (USB2+H05261)
Correct for Electrical Dark: No (USB2+H05261)
Strobe/Lamp Enabled: No (USB2+H05261)
Correct for Detector Non-linearity: No (USB2+H05261)
Correct for Stray Light: No (USB2+H05261)
Number of Pixels in Processed Spectrum: 2048
>>>>>Begin Processed Spectral Data<<<<<
365.73	301.93
365.92	301.93
366.12	301.93
366.32	252.78
366.52	170.86
366.72	217.67
366.91	187.24
367.11	210.65
367.31	156.82
367.51	208.31
367.70	159.16
367.90	236.39
368.10	227.03
368.30	166.18
368.49	177.88
368.69	212.99
368.89	234.05
369.09	182.56
369.28	283.20
369.48	180.22
369.68	271.50
369.87	215.33
370.07	259.80
370.27	273.84
370.47	369.80
370.66	486.83
370.86	564.07
371.06	608.54
371.25	592.16
371.45	538.32
371.65	547.69
371.84	561.73
372.04	538.32
372.24	531.30
372.44	571.09
372.63	571.09
372.83	660.03
373.03	622.58
373.22	545.34
373.42	606.20
373.62	573.43
373.81	561.73
374.01	582.79
374.21	592.16
374.40	648.33
374.60	653.01
374.79	631.94
374.99	638.97
375.19	660.03
375.38	631.94
375.58	636.63
375.78	664.71
375.97	655.35
376.17	702.16
376.37	596.84
376.56	690.46
376.76	746.63
376.95	674.07
377.15	653.01
377.35	692.80
377.54	713.86
377.74	737.27
377.93	664.71
378.13	617.90
378.33	753.65
378.52	643.65
378.72	629.60
378.91	748.97
379.11	683.44
379.31	681.10
379.50	702.16
379.70	704.50
379.89	713.86
380.09	697.48
380.28	655.35
380.48	706.84
380.68	746.63
380.87	688.12
381.07	730.25
381.26	767.70
381.46	744.29
381.65	739.61
381.85	676.41
382.04	800.46
382.24	704.50
382.43	723.23
382.63	779.40
382.83	697.48
383.02	842.59
383.22	720.88
383.41	784.08
383.61	788.76
383.80	802.80
384.00	800.46
384.19	774.72
384.39	842.59
384.58	866.00
384.78	779.40
384.97	823.87
385.17	896.43
385.36	800.46
385.56	880.04
385.75	837.91
385.95	748.97
386.14	875.36
386.34	868.34
386.53	875.36
386.72	833.23
386.92	814.51
387.11	830.89
387.31	957.28
387.50	915.15
387.70	873.02
387.89	887.06
388.09	917.49
388.28	898.77
388.48	966.64
388.67	924.51
388.86	961.96
389.06	903.45
389.25	858.98
389.45	910.47
389.64	926.85
389.84	985.37
390.03	994.73
390.22	933.87
390.42	938.55
390.61	959.62
390.81	990.05
391.00	1008.77
391.19	1006.43
391.39	961.96
391.58	1050.90
391.78	1013.45
391.97	999.41
392.16	985.37
392.36	997.07
392.55	952.60
392.75	997.07
392.94	987.71
393.13	1013.45
393.33	1071.97
393.52	1022.81
393.71	1097.71
393.91	1060.26
394.10	1069.62
394.29	1046.22
394.49	1078.99
394.68	1013.45
394.88	1043.88
395.07	1041.54
395.26	1179.63
395.46	1104.73
395.65	1107.07
395.84	1174.95
396.04	1200.69
396.23	1217.08
396.42	1146.86
396.62	1174.95
396.81	1207.72
397.00	1151.54
397.19	1142.18
397.39	1116.44
397.58	1280.27
397.77	1263.89
397.97	1205.38
398.16	1203.04
398.35	1207.72
398.55	1228.78
398.74	1343.47
398.93	1317.72
399.12	1245.16
399.32	1341.13
399.51	1252.19
399.70	1355.17
399.90	1322.40
400.09	1348.15
400.28	1341.13
400.47	1416.02
400.67	1343.47
400.86	1409.00
401.05	1343.47
401.24	1397.30
401.44	1441.77
401.63	1451.13
401.82	1423.05
402.01	1390.28
402.21	1502.62
402.40	1474.54
402.59	1387.94
402.78	1448.79
402.97	1462.83
403.17	1432.41
403.36	1540.07
403.55	1500.28
403.74	1563.48
403.93	1577.52
404.13	1586.88
404.32	1629.01
404.51	1521.35
404.70	1664.12
404.89	1624.33
405.09	1685.19
405.28	1556.46
405.47	1678.16
405.66	1706.25
405.85	1687.53
406.05	1633.69
406.24	1617.31
406.43	1685.19
406.62	1739.02
406.81	1830.30
407.00	1734.34
407.20	1788.17
407.39	1722.63
407.58	1785.83
407.77	1905.20
407.96	1909.88
408.15	1867.75
408.34	1741.36
408.54	1792.85
408.73	1984.77
408.92	1937.96
409.11	1813.92
409.30	1907.54
409.49	1930.94
409.68	2066.69
409.87	1923.92
410.07	1984.77
410.26	2108.82
410.45	1937.96
410.64	2017.54
410.83	1961.37
411.02	2064.35
411.21	2106.48
411.40	2139.25
411.59	2139.25
411.78	2066.69
411.98	2040.95
412.17	2207.13
412.36	2169.68
412.55	2305.43
412.74	2249.25
412.93	2284.36
413.12	2211.81
413.31	2270.32
413.50	2385.01
413.69	2319.47
413.88	2387.35
414.07	2331.17
414.26	2438.84
414.45	2539.48
414.64	2558.21
414.83	2630.76
415.02	2495.01
415.22	2605.02
415.41	2642.46
415.60	2525.44
415.79	2640.12
415.98	2665.87
416.17	2497.35
416.36	2764.17
416.55	2562.89
416.74	2675.23
416.93	2738.43
417.12	2729.06
417.31	2803.96
417.50	2803.96
417.69	2796.94
417.88	2785.24
418.07	2801.62
418.26	2920.99
418.45	2857.79
418.64	2911.63
418.83	2881.20
419.02	2890.56
419.21	2949.08
419.39	2991.20
419.58	2965.46
419.77	2897.58
419.96	3014.61
420.15	2998.23
420.34	3136.32
420.53	3012.27
420.72	3133.98
420.91	3000.57
421.10	3246.32
421.29	3190.15
421.48	3206.53
421.67	3234.62
421.86	3190.15
422.05	3115.25
422.24	3119.93
422.43	3225.26
422.61	3304.84
422.80	3304.84
422.99	3375.05
423.18	3414.84
423.37	3375.05
423.56	3236.96
423.75	3316.54
423.94	3197.17
424.13	3222.92
424.32	3211.22
424.50	3286.11
424.69	3386.76
424.88	3300.16
425.07	3309.52
425.26	3316.54
425.45	3351.65
425.64	3358.67
425.83	3353.99
426.01	3382.07
426.20	3433.57
426.39	3431.23
426.58	3361.01
426.77	3459.31
426.96	3426.54
427.15	3370.37
427.33	3468.67
427.52	3480.38
427.71	3660.60
427.90	3545.91
428.09	3562.30
428.28	3618.47
428.46	3604.42
428.65	3517.83
428.84	3644.21
429.03	3761.24
429.22	3653.58
429.40	3716.77
429.59	3712.09
429.78	3627.83
429.97	3571.66
430.16	3733.15
430.34	3817.41
430.53	3747.20
430.72	3548.25
430.91	3768.26
431.10	3810.39
431.28	3861.88
431.47	3927.42
431.66	3796.35
431.85	3906.35
432.03	3911.04
432.22	4051.47
432.41	4011.68
432.60	3992.95
432.79	3946.14
432.97	3992.95
433.16	3962.53
433.35	4051.47
433.54	3978.91
433.72	4011.68
433.91	4112.32
434.10	4114.66
434.28	4074.87
434.47	4203.60
434.66	4196.58
434.85	4189.56
435.03	4215.30
435.22	4280.84
435.41	4241.05
435.59	4219.99
435.78	4262.12
435.97	4358.08
436.16	4367.44
436.34	4236.37
436.53	4271.48
436.72	4379.14
436.90	4421.27
437.09	4369.78
437.28	4327.65
437.46	4264.46
437.65	4344.03
437.84	4367.44
438.02	4397.87
438.21	4547.66
438.40	4456.38
438.58	4631.92
438.77	4617.88
438.96	4692.77
439.14	4615.54
439.33	4615.54
439.52	4877.68
439.70	4788.74
439.89	4912.78
440.08	4837.89
440.26	4814.48
440.45	4964.28
440.63	4975.98
440.82	5013.43
441.01	4861.29
441.19	5100.03
441.38	5111.73
441.57	5018.11
441.75	5193.65
441.94	5158.54
442.12	5240.46
442.31	5298.97
442.50	5287.27
442.68	5242.80
442.87	5153.86
443.05	5317.70
443.24	5411.32
443.43	5495.58
443.61	5467.49
443.80	5500.26
443.98	5273.23
444.17	5198.33
444.35	5373.87
444.54	5565.79
444.73	5458.13
444.91	5371.53
445.10	5542.39
445.28	5521.32
445.47	5453.45
445.65	5570.48
445.84	5528.35
446.02	5568.13
446.21	5619.63
446.39	5483.88
446.58	5598.56
446.77	5614.95
446.95	5547.07
447.14	5563.45
447.32	5593.88
447.51	5638.35
447.69	5628.99
447.88	5577.50
448.06	5558.77
448.25	5554.09
448.43	5666.44
448.62	5689.84
448.80	5631.33
448.99	5589.20
449.17	5785.80
449.36	5806.87
449.54	5664.10
449.73	5813.89
449.91	5959.00
450.10	5907.51
450.28	5884.11
450.46	5944.96
450.65	5968.37
450.83	5841.98
451.02	5891.13
451.20	6073.69
451.39	5996.45
451.57	6036.24
451.76	5778.78
451.94	6150.93
452.13	6087.73
452.31	6139.23
452.49	5947.30
452.68	6108.80
452.86	6134.54
453.05	6148.59
453.23	6249.23
453.42	6181.35
453.60	6291.36
453.78	6466.90
453.97	6057.31
454.15	6232.85
454.34	6071.35
454.52	6417.75
454.70	6401.37
454.89	6232.85
455.07	6434.13
455.26	6448.18
455.44	6705.63
455.62	6485.62
455.81	6476.26
455.99	6487.96
456.17	6712.66
456.36	6509.03
456.54	6675.21
456.73	6684.57
456.91	6726.70
457.09	6771.17
457.28	7023.95
457.46	6825.00
457.64	6897.56
457.83	6825.00
458.01	6839.05
458.19	6850.75
458.38	6836.70
458.56	6801.60
458.74	7063.74
458.93	6958.41
459.11	6965.43
459.29	7068.42
459.48	7009.90
459.66	7082.46
459.84	7108.21
460.03	7332.90
460.21	7103.53
460.39	7103.53
460.57	7117.57
460.76	7279.07
460.94	7321.20
461.12	7286.09
461.31	7138.63
461.49	7428.86
461.67	7400.77
461.85	7449.93
462.04	7314.17
462.22	7810.37
462.40	7410.14
462.59	7473.33
462.77	7478.01
462.95	7410.14
463.13	7489.71
463.32	7482.69
463.50	7616.10
463.68	7737.81
463.86	7665.25
464.05	7578.65
464.23	7665.25
464.41	7695.68
464.59	7817.39
464.78	7857.18
464.96	7789.30
465.14	7529.50
465.32	7908.67
465.50	7913.35
465.69	7953.14
465.87	7779.94
466.05	7922.71
466.23	7932.08
466.41	7939.10
466.60	8107.62
466.78	7981.23
466.96	7889.95
467.14	7997.61
467.32	8124.00
467.51	8023.36
467.69	7929.74
467.87	8063.15
468.05	8051.44
468.23	8018.68
468.41	8152.09
468.60	8173.15
468.78	8229.32
468.96	8168.47
469.14	8264.43
469.32	8498.49
469.50	8081.87
469.69	8461.04
469.87	8489.12
470.05	8379.12
470.23	8505.51
470.41	8671.68
470.59	8564.02
470.77	8566.36
470.95	8674.03
471.14	8744.24
471.32	8315.92
471.50	8812.12
471.68	8840.20
471.86	8697.43
472.04	8828.50
472.22	9092.98
472.40	8807.44
472.58	9137.45
472.77	9034.47
472.95	9231.07
473.13	9322.35
473.31	9029.79
473.49	9355.12
473.67	9247.46
473.85	9497.89
474.03	9483.85
474.21	9469.81
474.39	9575.13
474.57	9547.05
474.75	9652.37
474.93	9668.75
475.12	9631.30
475.30	9832.59
475.48	9582.15
475.66	9863.02
475.84	9806.84
476.02	9881.74
476.20	9820.89
476.38	10160.27
476.56	10195.37
476.74	10169.63
476.92	10225.80
477.10	10017.49
477.28	10406.02
477.46	10293.68
477.64	10406.02
477.82	10431.77
478.00	10913.92
478.18	10726.68
478.36	10855.40
478.54	10843.70
478.72	10874.13
478.90	11052.01
479.08	11126.91
479.26	11208.83
479.44	11417.13
479.62	11456.92
479.80	11529.48
479.98	11826.73
480.16	12018.65
480.34	11501.39
480.52	11974.18
480.70	11733.11
480.88	11719.06
481.06	11946.09
481.24	12046.74
481.41	12138.02
481.59	12318.24
481.77	12456.33
481.95	12299.52
482.13	12830.82
482.31	12699.75
482.49	12908.05
482.67	13055.51
482.85	13008.70
483.03	13200.62
483.21	13310.63
483.39	13273.18
483.57	13448.72
483.74	13369.14
483.92	13561.06
484.10	13511.91
484.28	13682.77
484.46	14141.52
484.64	14466.85
484.82	14059.60
485.00	14314.72
485.18	14434.08
485.35	14506.64
485.53	14705.59
485.71	14766.44
485.89	14780.48
486.07	14956.02
486.25	14979.43
486.43	15185.40
486.61	15180.71
486.78	15215.82
486.96	15548.18
487.14	15686.27
487.32	15541.16
487.50	15761.17
487.68	15768.19
487.85	16112.25
488.03	16203.53
488.21	16421.20
488.39	16308.85
488.57	16416.52
488.75	16507.80
488.92	16891.65
489.10	17067.19
489.28	17207.62
489.46	17305.92
489.64	17556.36
489.81	17834.88
489.99	17500.19
490.17	17776.37
490.35	17724.88
490.53	18022.12
490.70	18256.18
490.88	17907.44
491.06	18141.49
491.24	18183.62
491.41	18457.46
491.59	18754.71
491.77	18555.77
491.95	18874.08
492.13	18874.08
492.30	18909.19
492.48	19063.66
492.66	19016.85
492.84	19164.31
493.01	19419.42
493.19	19552.84
493.37	19627.73
493.54	19922.64
493.72	19957.75
493.90	20278.40
494.08	19941.36
494.25	20149.67
494.43	20397.77
494.61	20257.34
494.79	20482.03
494.96	20781.62
495.14	20723.10
495.32	21013.33
495.49	21179.51
495.67	21177.17
495.85	21350.37
496.02	21722.51
496.20	21563.36
496.38	21923.80
496.55	21617.19
496.73	22209.34
496.91	22176.58
497.09	21905.07
497.26	22082.95
497.44	22251.47
497.62	22480.85
497.79	22548.72
497.97	22766.39
498.14	22764.05
498.32	22668.09
498.50	23178.33
498.67	22946.61
498.85	22970.02
499.03	23433.44
499.20	23253.22
499.38	23718.99
499.56	23594.94
499.73	23637.07
499.91	23854.74
500.08	24196.46
500.26	23775.16
500.44	23957.72
500.61	24226.89
500.79	24065.39
500.97	24121.56
501.14	24402.43
501.32	24355.61
501.49	24362.64
501.67	24821.38
501.84	24762.87
502.02	24734.78
502.20	24814.36
502.37	24957.13
502.55	25214.59
502.72	25048.41
502.90	25027.35
503.07	25020.33
503.25	25481.41
503.43	25125.65
503.60	25610.14
503.78	25654.61
503.95	25628.87
504.13	25656.95
504.30	25483.75
504.48	25792.70
504.65	26286.56
504.83	26345.07
505.01	26324.01
505.18	26340.39
505.36	26726.58
505.53	26197.62
505.71	26328.69
505.88	26326.35
506.06	26476.14
506.23	27136.17
506.41	26429.33
506.58	26918.50
506.76	26852.97
506.93	27215.75
507.11	27260.22
507.28	27494.27
507.46	27152.55
507.63	27466.19
507.81	27538.74
507.98	27615.98
508.16	27480.23
508.33	27824.29
508.50	27763.43
508.68	27871.10
508.85	27889.82
509.03	27889.82
509.20	27899.19
509.38	28144.94
509.55	28350.91
509.73	28187.07
509.90	28011.53
510.08	28425.81
510.25	28594.32
510.42	28460.91
510.60	28575.60
510.77	28966.47
510.95	29179.46
511.12	28732.42
511.30	28971.15
511.47	29177.12
511.64	29575.01
511.82	29359.68
511.99	29127.97
512.17	29820.77
512.34	29631.18
512.51	29855.87
512.69	30043.12
512.86	29556.28
513.04	30019.71
513.21	30125.04
513.38	30015.03
513.56	30401.22
513.73	30015.03
513.90	30223.34
514.08	30169.51
514.25	30642.29
514.43	30806.13
514.60	30841.24
514.77	30356.75
514.95	30789.75
515.12	30654.00
515.29	30855.28
515.47	31346.79
515.64	31248.49
515.81	30548.67
515.99	31414.67
516.16	31711.92
516.33	31370.20
516.51	31101.04
516.68	31531.70
516.85	31400.63
517.03	31627.66
517.20	31777.45
517.37	31613.62
517.54	31510.63
517.72	31372.54
517.89	31992.78
518.06	31824.26
518.24	32121.51
518.41	31960.02
518.58	32201.09
518.75	31917.89
518.93	32297.05
519.10	32334.50
519.27	32142.58
519.45	32362.59
519.62	32505.36
519.79	32959.42
519.96	32638.77
520.14	32786.22
520.31	32488.98
520.48	32699.62
520.65	32716.01
520.83	33441.57
521.00	33343.27
521.17	33488.38
521.34	33118.58
521.52	32992.19
521.69	33230.93
521.86	33862.87
522.03	33811.38
522.20	33846.49
522.38	33785.63
522.55	33926.07
522.72	34117.99
522.89	33518.81
523.07	34569.71
523.24	33752.87
523.41	34019.69
523.58	34174.16
523.75	34307.57
523.92	34494.82
524.10	34288.85
524.27	34424.60
524.44	34375.45
524.61	34721.85
524.78	34600.14
524.96	34653.97
525.13	34852.92
525.30	35084.63
525.47	35337.41
525.64	35033.14
525.81	35419.33
525.98	35061.22
526.16	35461.46
526.33	35295.28
526.50	34981.65
526.67	35793.81
526.84	35042.50
527.01	35180.59
527.18	35622.95
527.36	35667.42
527.53	35718.92
527.70	36123.83
527.87	36456.18
528.04	35620.61
528.21	35854.67
528.38	35892.12
528.55	36229.15
528.72	35564.44
528.89	36023.19
529.07	36055.95
529.24	35903.82
529.41	36215.11
529.58	35903.82
529.75	36198.73
529.92	36304.05
530.09	36528.74
530.26	36556.83
530.43	36865.78
530.60	36353.20
530.77	36671.51
530.94	36905.57
531.11	36741.73
531.28	36844.71
531.46	36596.62
531.63	36933.65
531.80	37151.32
531.97	36982.80
532.14	36814.29
532.31	36809.61
532.48	37247.29
532.65	37195.79
532.82	37474.32
532.99	37560.92
533.16	37460.27
533.33	37532.83
533.50	37544.53
533.67	37156.00
533.84	37638.15
534.01	37621.77
534.18	37869.87
534.35	37970.51
534.52	38143.71
534.69	38452.66
534.86	38078.18
535.03	37801.99
535.20	37921.36
535.37	37951.79
535.54	38373.08
535.71	38150.73
535.88	38204.56
536.05	38389.47
536.22	38583.73
536.38	38342.66
536.55	38256.06
536.72	38352.02
536.89	38040.73
537.06	38656.29
537.23	39115.03
537.40	38621.18
537.57	38824.81
537.74	38710.12
537.91	38906.73
538.08	38572.03
538.25	38782.68
538.42	38808.42
538.59	39510.58
538.75	38953.54
538.92	39419.30
539.09	39143.12
539.26	39388.88
539.43	39136.10
539.60	39243.76
539.77	39040.14
539.94	39463.77
540.11	39555.05
540.28	39438.03
540.44	39735.27
540.61	39903.79
540.78	39627.61
540.95	39852.30
541.12	39555.05
541.29	39662.72
541.46	39761.02
541.62	39704.85
541.79	39948.26
541.96	39943.58
542.13	40013.80
542.30	39943.58
542.47	39964.65
542.63	40158.91
542.80	39768.04
542.97	40568.51
543.14	40837.67
543.31	40458.50
543.48	40407.01
543.64	40584.89
543.81	40767.45
543.98	40659.79
544.15	40816.60
544.32	40720.64
544.48	40947.67
544.65	40697.24
544.82	40954.69
544.99	40900.86
545.16	41361.95
545.32	40755.75
545.49	41333.86
545.66	41488.34
545.83	40786.18
546.00	41120.87
546.16	40886.82
546.33	41123.21
546.50	40711.28
546.67	41610.04
546.83	40968.74
547.00	41317.48
547.17	41413.44
547.34	41631.11
547.50	41359.61
547.67	42073.47
547.84	41720.05
548.00	42206.88
548.17	42246.67
548.34	41572.60
548.51	41956.44
548.67	41766.86
548.84	42197.52
549.01	42323.91
549.18	41490.68
549.34	41848.78
549.51	41993.89
549.68	41921.34
549.84	42071.13
550.01	42106.24
550.18	41968.15
550.34	42267.73
550.51	41762.18
550.68	42813.08
550.84	41886.23
551.01	42251.35
551.18	42323.91
551.34	42377.74
551.51	42792.01
551.68	42679.67
551.84	42314.55
552.01	42415.19
552.18	42724.14
552.34	42424.55
552.51	42799.04
552.68	42216.24
552.84	42939.47
553.01	42911.38
553.18	42745.20
553.34	42909.04
553.51	42614.13
553.67	43168.84
553.84	43096.28
554.01	43257.78
554.17	42948.83
554.34	43456.73
554.51	43126.71
554.67	43208.63
554.84	43496.52
555.00	43054.15
555.17	42920.74
555.33	43384.17
555.50	43402.89
555.67	43028.41
555.83	43021.39
556.00	43625.25
556.16	43709.50
556.33	43650.99
556.50	43695.46
556.66	43856.96
556.83	43550.35
556.99	43711.84
557.16	43938.88
557.32	43391.19
557.49	43693.12
557.65	43079.90
557.82	43901.43
557.98	43814.83
558.15	43573.75
558.32	44013.77
558.48	43636.95
558.65	43931.86
558.81	43779.72
558.98	44032.50
559.14	43751.63
559.31	44009.09
559.47	43693.12
559.64	43707.16
559.80	44250.17
559.97	44144.84
560.13	43676.74
560.30	44484.22
560.46	44151.87
560.63	43812.49
560.79	44566.14
560.96	44311.02
561.12	44479.54
561.29	44308.68
561.45	44556.78
561.61	44451.45
561.78	44470.18
561.94	44259.53
562.11	44186.97
562.27	44423.37
562.44	44278.25
562.60	44243.15
562.77	44350.81
562.93	44512.31
563.10	44514.65
563.26	44547.42
563.42	44727.64
563.59	44147.18
563.75	44154.21
563.92	44830.62
564.08	44737.00
564.24	44385.92
564.41	44350.81
564.57	44842.32
564.74	44865.73
564.90	44205.70
565.07	44762.75
565.23	45064.67
565.39	44931.26
565.56	44973.39
565.72	44591.89
565.88	44912.54
566.05	44732.32
566.21	44790.83
566.38	44823.60
566.54	45268.30
566.70	44893.82
566.87	45214.47
567.03	44837.64
567.19	45006.16
567.36	45158.30
567.52	45069.36
567.68	45258.94
567.85	44933.60
568.01	45151.27
568.17	44896.16
568.34	45207.45
568.50	44910.20
568.66	44765.09
568.83	45481.29
568.99	45476.61
569.15	44938.29
569.32	45319.79
569.48	44898.50
569.64	45184.04
569.81	45116.17
569.97	45514.06
570.13	44947.65
570.30	45221.49
570.46	45378.31
570.62	45497.67
570.78	45104.46
570.95	45371.28
571.11	45698.96
571.27	44849.35
571.43	45460.23
571.60	44957.01
571.76	45186.38
571.92	45392.35
572.09	45160.64
572.25	45240.21
572.41	45193.40
572.57	45378.31
572.74	45813.65
572.90	45106.80
573.06	45743.43
573.22	45626.40
573.38	45626.40
573.55	45628.74
573.71	46162.39
573.87	45528.10
574.03	45647.47
574.20	45837.05
574.36	45467.25
574.52	45317.45
574.68	46028.98
574.84	45986.85
575.01	46155.36
575.17	45455.54
575.33	45762.15
575.49	45268.30
575.65	45448.52
575.82	46110.89
575.98	45600.66
576.14	45762.15
576.30	45862.80
576.46	45785.56
576.62	45404.05
576.79	45846.41
576.95	45209.79
577.11	45748.11
577.27	45830.03
577.43	45881.52
577.59	45057.65
577.75	45734.07
577.92	45483.63
578.08	45556.19
578.24	45736.41
578.40	45944.72
578.56	45743.43
578.72	45790.24
578.88	45591.30
579.04	45720.02
579.21	45993.87
579.37	46005.57
579.53	45937.69
579.69	45689.60
579.85	45603.00
580.01	45759.81
580.17	45581.93
580.33	45696.62
580.49	46349.63
580.65	46017.27
580.82	45755.13
580.98	45991.53
581.14	45549.17
581.30	45968.12
581.46	45598.32
581.62	45715.34
581.78	45170.00
581.94	45951.74
582.10	45984.51
582.26	46256.01
582.42	46155.36
582.58	46040.68
582.74	45834.71
582.90	45537.46
583.06	45977.48
583.22	45961.10
583.38	45830.03
583.54	45661.51
583.70	46199.83
583.86	45858.12
584.02	45984.51
584.18	45933.01
584.34	46211.54
584.50	46188.13
584.66	46096.85
584.82	45933.01
584.98	46106.21
585.14	46337.93
585.30	45776.20
585.46	46085.15
585.62	46059.40
585.78	45792.58
585.94	45675.55
586.10	46026.63
586.26	45766.84
586.42	46028.98
586.58	46129.62
586.74	45731.73
586.90	45628.74
587.06	46183.45
587.22	46403.46
587.38	45741.09
587.54	46328.56
587.70	46309.84
587.86	45790.24
588.02	46415.16
588.18	46288.77
588.34	46461.97
588.49	46281.75
588.65	45940.04
588.81	45881.52
588.97	46045.36
589.13	46129.62
589.29	46241.96
589.45	46050.04
589.61	46078.13
589.77	46171.75
589.93	46382.40
590.08	46253.67
590.24	46328.56
590.40	46873.91
590.56	46738.16
590.72	46637.51
590.88	46251.33
591.04	46192.81
591.20	46300.48
591.35	46806.03
591.51	46784.97
591.67	46307.50
591.83	46618.79
591.99	46642.20
592.15	46298.14
592.31	46466.66
592.46	46300.48
592.62	46806.03
592.78	46576.66
592.94	46883.27
593.10	46705.39
593.26	46611.77
593.41	47028.38
593.57	46492.40
593.73	46728.80
593.89	46913.70
594.05	46623.47
594.20	46719.43
594.36	47182.86
594.52	46909.02
594.68	46686.67
594.84	46153.02
594.99	47114.98
595.15	46653.90
595.31	47096.26
595.47	46887.95
595.62	46443.25
595.78	47012.00
595.94	46614.11
596.10	46696.03
596.25	47232.01
596.41	46562.62
596.57	46913.70
596.73	47054.13
596.88	46525.17
597.04	46543.89
597.20	47086.90
597.36	47129.03
597.51	46887.95
597.67	46674.96
597.83	46827.10
597.99	46995.62
598.14	46515.81
598.30	46681.98
598.46	46747.52
598.61	46883.27
598.77	46651.56
598.93	46820.08
599.09	46920.72
599.24	47007.32
599.40	46579.00
599.56	47154.77
599.71	46784.97
599.87	47096.26
600.03	47124.35
600.18	47042.43
600.34	46749.86
600.50	46801.35
600.65	47150.09
600.81	47311.59
600.97	47047.11
601.12	47124.35
601.28	46766.24
601.44	46710.07
601.59	47014.34
601.75	46380.06
601.91	47110.30
602.06	46639.86
602.22	47449.68
602.37	46714.75
602.53	47124.35
602.69	47122.01
602.84	46740.50
603.00	47098.60
603.16	46759.22
603.31	46986.25
603.47	47185.20
603.62	46916.04
603.78	46731.14
603.94	46822.42
604.09	47089.24
604.25	46621.13
604.40	46593.04
604.56	47098.60
604.71	47063.49
604.87	46799.01
605.03	46890.29
605.18	46560.28
605.34	46637.51
605.49	46677.30
605.65	47391.17
605.80	46784.97
605.96	46679.64
606.12	46962.85
606.27	46979.23
606.43	46644.54
606.58	47288.18
606.74	46981.57
606.89	46995.62
607.05	46873.91
607.20	46770.93
607.36	46476.02
607.51	46775.61
607.67	46836.46
607.82	46579.00
607.98	46848.16
608.13	46724.11
608.29	47093.92
608.44	46595.38
608.60	46555.60
608.75	46920.72
608.91	46733.48
609.06	46333.24
609.22	46740.50
609.37	46508.79
609.53	46630.49
609.68	46993.28
609.84	46302.82
609.99	46588.36
610.15	46607.09
610.30	46361.33
610.46	46445.59
610.61	46571.98
610.76	46625.81
610.92	46082.81
611.07	46471.34
611.23	46611.77
611.38	46703.05
611.54	46740.50
611.69	46693.69
611.84	46340.27
612.00	46234.94
612.15	46478.36
612.31	46473.68
612.46	45666.19
612.62	46031.32
612.77	46354.31
612.92	46569.64
613.08	46150.68
613.23	46529.85
613.39	46506.44
613.54	46628.15
613.69	46593.04
613.85	46246.65
614.00	46431.55
614.15	46920.72
614.31	46389.42
614.46	46169.41
614.62	46108.55
614.77	46197.49
614.92	46188.13
615.08	46483.04
615.23	46461.97
615.38	46211.54
615.54	46349.63
615.69	46305.16
615.84	45783.22
616.00	46368.35
616.15	46134.30
616.30	46061.74
616.46	45949.40
616.61	45794.92
616.76	46031.32
616.92	45764.49
617.07	45851.09
617.22	45979.82
617.37	45617.04
617.53	45921.31
617.68	45776.20
617.83	45916.63
617.99	46274.73
618.14	46124.94
618.29	45876.84
618.45	45317.45
618.60	45617.04
618.75	45415.76
618.90	45200.43
619.06	45670.87
619.21	45762.15
619.36	46188.13
619.51	45521.08
619.67	45397.03
619.82	45588.95
619.97	45851.09
620.12	45570.23
620.28	45230.85
620.43	45998.55
620.58	45579.59
620.73	45474.27
620.89	45511.72
621.04	45736.41
621.19	45558.53
621.34	45900.25
621.49	45287.03
621.65	45270.64
621.80	45476.61
621.95	45315.11
622.10	45916.63
622.25	45703.64
622.41	45485.97
622.56	45488.31
622.71	45329.16
622.86	45067.02
623.01	45134.89
623.16	45343.20
623.32	45081.06
623.47	45216.81
623.62	45343.20
623.77	45137.23
623.92	45050.63
624.07	45036.59
624.23	45069.36
624.38	45488.31
624.53	44931.26
624.68	44538.05
624.83	44823.60
624.98	45029.57
625.13	44708.91
625.29	44610.61
625.44	44872.75
625.59	44732.32
625.74	44781.47
625.89	44545.08
626.04	44856.37
626.19	44610.61
626.34	44566.14
626.49	44364.85
626.65	44273.57
626.80	44135.48
626.95	44339.11
627.10	44524.01
627.25	44371.88
627.40	44360.17
627.55	44418.69
627.70	44629.34
627.85	44933.60
628.00	44521.67
628.15	44809.56
628.30	44184.63
628.45	43908.45
628.60	43835.89
628.76	44168.25
628.91	44474.86
629.06	43768.02
629.21	43723.55
629.36	44308.68
629.51	44233.78
629.66	44509.97
629.81	43824.19
629.96	43931.86
630.11	44224.42
630.26	44114.42
630.41	44058.24
630.56	43669.72
630.71	43821.85
630.86	43973.98
631.01	43618.22
631.16	43758.66
631.31	43407.58
631.46	43990.37
631.61	44051.22
631.76	43988.03
631.91	44320.38
632.06	44362.51
632.21	43873.34
632.36	44109.74
632.51	43405.23
632.66	43763.34
632.81	43304.59
632.96	43828.87
633.10	43838.23
633.25	43517.58
633.40	43374.81
633.55	43814.83
633.70	43412.26
633.85	43576.09
634.00	43306.93
634.15	42951.17
634.30	43552.69
634.45	43288.21
634.60	43374.81
634.75	43239.06
634.90	43686.10
635.05	43274.16
635.19	43510.56
635.34	43753.97
635.49	43353.74
635.64	43159.48
635.79	43840.57
635.94	43100.97
636.09	43379.49
636.24	43023.73
636.39	43185.22
636.53	43033.09
636.68	42997.98
636.83	42644.56
636.98	42997.98
637.13	42766.27
637.28	42969.90
637.43	42618.81
637.57	42951.17
637.72	42520.51
637.87	42597.75
638.02	43168.84
638.17	42527.53
638.32	42756.91
638.46	42836.48
638.61	42759.25
638.76	42281.78
638.91	42611.79
639.06	42574.34
639.20	42061.77
639.35	42277.10
639.50	42169.43
639.65	42419.87
639.80	42644.56
639.94	42323.91
640.09	42759.25
640.24	42607.11
640.39	42323.91
640.54	42192.84
640.68	42344.97
640.83	42677.33
640.98	42057.09
641.13	42099.22
641.27	42859.89
641.42	42543.92
641.57	42162.41
641.72	42471.36
641.86	42241.99
642.01	41633.45
642.16	41940.06
642.31	41645.15
642.45	42197.52
642.60	41565.57
642.75	42047.72
642.90	42021.98
643.04	42160.07
643.19	41493.02
643.34	42007.94
643.48	41200.45
643.63	41558.55
643.78	41827.71
643.93	42110.92
644.07	41694.30
644.22	42309.86
644.37	42167.09
644.51	41750.48
644.66	41816.01
644.81	41813.67
644.95	41867.50
645.10	41684.94
645.25	41394.71
645.39	41170.02
645.54	41144.28
645.69	41132.57
645.83	41237.90
645.98	40966.40
646.13	41422.80
646.27	41268.33
646.42	40884.48
646.57	41593.66
646.71	41624.09
646.86	41556.21
647.00	41596.00
647.15	41357.27
647.30	41038.95
647.44	41387.69
647.59	41420.46
647.74	40821.28
647.88	41399.40
648.03	41221.52
648.17	41249.60
648.32	41165.34
648.47	41607.70
648.61	40769.79
648.76	40762.77
648.90	40800.22
649.05	40957.03
649.20	41158.32
649.34	41301.09
649.49	41045.97
649.63	41137.26
649.78	41212.15
649.92	40999.16
650.07	41497.70
650.21	41123.21
650.36	41214.49
650.51	40718.30
650.65	40978.10
650.80	40608.29
650.94	40940.65
651.09	40563.82
651.23	40704.26
651.38	40690.21
651.52	40575.53
651.67	40875.12
651.81	40676.17
651.96	40598.93
652.10	40479.57
652.25	40397.65
652.39	40699.58
652.54	40495.95
652.68	40240.83
652.83	40769.79
652.97	40439.78
653.12	40446.80
653.26	40250.19
653.41	40025.50
653.55	40226.79
653.70	40278.28
653.84	40650.42
653.99	40320.41
654.13	40453.82
654.27	40027.84
654.42	40151.89
654.56	40163.59
654.71	40016.14
654.85	40133.17
655.00	40172.96
655.14	40140.19
655.29	40627.02
655.43	40030.18
655.57	39920.18
655.72	39676.76
655.86	40147.21
656.01	39636.97
656.15	39239.08
656.30	39660.38
656.44	39885.07
656.58	39583.14
656.73	39814.85
656.87	39545.69
657.01	39564.42
657.16	39487.18
657.30	39756.34
657.45	39337.38
657.59	39318.66
657.73	39288.23
657.88	39641.65
658.02	39578.46
658.16	39697.83
658.31	39585.48
658.45	39569.10
658.60	39346.75
658.74	39201.63
658.88	39555.05
659.03	38944.17
659.17	38778.00
659.31	38890.34
659.46	38866.94
659.60	39084.61
659.74	39005.03
659.89	38789.70
660.03	38401.17
660.17	38796.72
660.32	38632.88
660.46	38735.87
660.60	38389.47
660.74	38389.47
660.89	38827.15
661.03	38263.08
661.17	38246.69
661.32	38511.17
661.46	38471.39
661.60	38459.68
661.74	38234.99
661.89	38525.22
662.03	38618.84
662.17	38419.89
662.31	38010.30
662.46	38185.84
662.60	38050.09
662.74	38195.20
662.88	37621.77
663.03	37556.24
663.17	37467.30
663.31	37326.86
663.45	37883.91
663.60	38267.76
663.74	37523.47
663.88	37773.91
664.02	37776.25
664.17	37862.85
664.31	37312.82
664.45	37123.24
664.59	37387.72
664.73	37163.03
664.88	37448.57
665.02	37123.24
665.16	37296.44
665.30	37139.62
665.44	36926.63
665.59	36613.00
665.73	36355.54
665.87	36589.59
666.01	37223.88
666.15	36694.92
666.29	36514.70
666.44	37095.15
666.58	36631.72
666.72	36591.94
666.86	36402.35
667.00	36856.42
667.14	36601.30
667.28	36191.70
667.43	36027.87
667.57	36514.70
667.71	36060.63
667.85	36488.95
667.99	36177.66
668.13	35889.77
668.27	35578.48
668.41	35695.51
668.56	35349.11
668.70	35805.52
668.84	35615.93
668.98	35625.29
669.12	35639.34
669.26	35328.05
669.40	35608.91
669.54	35356.13
669.68	35342.09
669.82	35580.82
669.96	34560.35
670.10	35035.48
670.25	34962.92
670.39	34672.70
670.53	35318.68
670.67	34951.22
670.81	35218.04
670.95	34983.99
671.09	34632.91
671.23	34579.07
671.37	34494.82
671.51	34436.30
671.65	34630.57
671.79	34541.63
671.93	34431.62
672.07	34534.60
672.21	34054.79
672.35	33673.29
672.49	34141.39
672.63	34448.00
672.77	33315.19
672.91	34153.10
673.05	33881.60
673.19	33813.72
673.33	33247.31
673.47	33502.43
673.61	33425.19
673.75	33027.30
673.89	33305.82
674.03	32964.10
674.17	32975.81
674.31	32943.04
674.45	32772.18
674.59	32919.63
674.73	32589.62
674.87	32477.27
675.01	32416.42
675.15	32236.20
675.29	32229.18
675.43	32568.55
675.56	32484.30
675.70	32119.17
675.84	32224.50
675.98	31344.45
676.12	31974.06
676.26	32514.72
676.40	31775.11
676.54	31573.83
676.68	31393.61
676.82	31381.90
676.96	31323.39
677.10	31487.23
677.23	31314.03
677.37	31199.34
677.51	31180.62
677.65	30923.16
677.79	30857.62
677.93	30876.35
678.07	30874.01
678.21	30883.37
678.34	30775.70
678.48	30394.20
678.62	30132.06
678.76	30368.45
678.90	29984.60
679.04	30052.48
679.18	30031.41
679.31	29844.17
679.45	29876.94
679.59	29336.27
679.73	29420.53
679.87	29610.12
680.00	29324.57
680.14	29465.00
680.28	29390.11
680.42	28975.83
680.56	28423.47
680.70	29095.20
680.83	28723.05
680.97	28687.95
681.11	28694.97
681.25	28383.68
681.39	28439.85
681.52	28519.43
681.66	28240.90
681.80	27814.93
681.94	27938.97
682.07	27812.59
682.21	28151.96
682.35	27990.47
682.49	28060.68
682.62	27751.73
682.76	27665.13
682.90	27566.83
683.04	27243.84
683.17	27583.21
683.31	27016.80
683.45	27047.23
683.59	26567.42
683.72	26544.02
683.86	26670.40
684.00	26841.26
684.13	26515.93
684.27	26539.33
684.41	26176.55
684.55	26490.18
684.68	26405.92
684.82	25872.28
684.96	25876.96
685.09	25832.49
685.23	26010.37
685.37	26398.90
685.50	26251.45
685.64	26038.46
685.78	25401.83
685.91	25717.81
686.05	25146.72
686.19	24828.40
686.32	24821.38
686.46	24397.74
686.60	24606.05
686.73	24783.93
686.87	24854.15
687.01	25032.03
687.14	24465.62
687.28	24713.72
687.42	24379.02
687.55	24222.20
687.69	24217.52
687.82	24025.60
687.96	24376.68
688.10	24168.37
688.23	23768.14
688.37	24252.63
688.50	23838.36
688.64	23786.86
688.78	23716.65
688.91	23506.00
689.05	23552.81
689.18	22977.04
689.32	22855.33
689.46	22775.75
689.59	23124.49
689.73	23108.11
689.86	23089.38
690.00	22988.74
690.13	22892.78
690.27	22724.26
690.41	22551.06
690.54	22207.00
690.68	22008.06
690.81	22209.34
690.95	22174.24
691.08	21984.65
691.22	22075.93
691.35	21713.15
691.49	21706.13
691.62	21724.85
691.76	21589.10
691.89	21188.87
692.03	21153.76
692.16	21425.26
692.30	21305.90
692.43	20814.38
692.57	20973.54
692.70	20931.41
692.84	20938.43
692.97	20606.08
693.11	20781.62
693.24	20259.68
693.38	20339.26
693.51	20276.06
693.65	20577.99
693.78	20100.52
693.92	19955.41
694.05	20257.34
694.19	19915.62
694.32	20098.18
694.45	20168.40
694.59	19957.75
694.72	20027.96
694.86	19674.54
694.99	19475.60
695.13	19239.20
695.26	19372.61
695.39	18948.98
695.53	19154.94
695.66	19323.46
695.80	18998.13
695.93	19066.00
696.07	18242.14
696.20	18410.65
696.33	18370.86
696.47	18256.18
696.60	18281.92
696.73	18368.52
696.87	18335.76
697.00	18609.60
697.14	18097.02
697.27	17898.08
697.40	17584.44
697.54	17872.33
697.67	17839.56
697.80	17809.14
697.94	17476.78
698.07	17497.84
698.21	17708.49
698.34	17207.62
698.47	17259.11
698.61	16751.21
698.74	16945.48
698.87	16713.77
699.01	16870.58
699.14	16819.09
699.27	16996.97
699.40	16641.21
699.54	16652.91
699.67	16556.95
699.80	16437.58
699.94	16142.67
700.07	16510.14
700.20	16226.93
700.34	15953.09
700.47	15917.98
700.60	16306.51
700.73	15969.48
700.87	15992.88
701.00	15524.77
701.13	15639.46
701.26	15426.47
701.40	15676.91
701.53	15499.03
701.66	15536.48
701.79	15503.71
701.93	15185.40
702.06	15019.22
702.19	15103.48
702.32	15007.52
702.46	14778.14
702.59	15129.22
702.72	15077.73
702.85	15068.37
702.99	14904.53
703.12	14527.71
703.25	14555.79
703.38	14455.15
703.51	14497.28
703.65	14597.92
703.78	14087.68
703.91	14195.35
704.04	14129.81
704.17	13951.93
704.31	13984.70
704.44	14099.39
704.57	13994.06
704.70	13916.83
704.83	13685.11
704.96	13217.01
705.10	13551.70
705.23	13535.32
>>>>>End Processed Spectral Data<<<<<
