SpectraSuite Data File
++++++++++++++++++++++++++++++++++++
Date: Fri Oct 25 11:33:58 EDT 2013
User: price-jones
Dark Spectrum Present: No
Reference Spectrum Present: No
Number of Sampled Component Spectra: 1
Spectrometers: USB2+H05261
Integration Time (usec): 100000 (USB2+H05261)
Spectra Averaged: 1 (USB2+H05261)
Boxcar Smoothing: 0 (USB2+H05261)
Correct for Electrical Dark: No (USB2+H05261)
Strobe/Lamp Enabled: No (USB2+H05261)
Correct for Detector Non-linearity: No (USB2+H05261)
Correct for Stray Light: No (USB2+H05261)
Number of Pixels in Processed Spectrum: 2048
>>>>>Begin Processed Spectral Data<<<<<
365.73	290.23
365.92	290.23
366.12	290.23
366.32	184.90
366.52	121.71
366.72	166.18
366.91	149.79
367.11	163.84
367.31	229.37
367.51	217.67
367.70	180.22
367.90	217.67
368.10	119.37
368.30	215.33
368.49	152.13
368.69	133.41
368.89	203.63
369.09	159.16
369.28	196.60
369.48	198.95
369.68	229.37
369.87	273.84
370.07	166.18
370.27	255.12
370.47	386.19
370.66	582.79
370.86	475.13
371.06	510.24
371.25	561.73
371.45	489.17
371.65	564.07
371.84	470.45
372.04	526.62
372.24	524.28
372.44	601.52
372.63	540.66
372.83	650.67
373.03	596.84
373.22	638.97
373.42	669.39
373.62	685.78
373.81	660.03
374.01	732.59
374.21	599.18
374.40	667.05
374.60	667.05
374.79	669.39
374.99	643.65
375.19	664.71
375.38	573.43
375.58	725.57
375.78	678.76
375.97	723.23
376.17	664.71
376.37	765.36
376.56	657.69
376.76	580.45
376.95	685.78
377.15	610.88
377.35	669.39
377.54	669.39
377.74	645.99
377.93	617.90
378.13	657.69
378.33	699.82
378.52	772.38
378.72	709.18
378.91	788.76
379.11	798.12
379.31	671.73
379.50	720.88
379.70	777.06
379.89	697.48
380.09	723.23
380.28	734.93
380.48	737.27
380.68	763.01
380.87	711.52
381.07	765.36
381.26	725.57
381.46	751.31
381.65	844.93
381.85	777.06
382.04	744.29
382.24	744.29
382.43	744.29
382.63	863.66
382.83	739.61
383.02	819.19
383.22	887.06
383.41	758.33
383.61	802.80
383.80	835.57
384.00	821.53
384.19	755.99
384.39	800.46
384.58	833.23
384.78	800.46
384.97	816.85
385.17	807.48
385.36	894.08
385.56	880.04
385.75	798.12
385.95	819.19
386.14	847.27
386.34	917.49
386.53	901.11
386.72	758.33
386.92	842.59
387.11	945.58
387.31	873.02
387.50	882.38
387.70	943.24
387.89	950.26
388.09	936.21
388.28	966.64
388.48	814.51
388.67	978.34
388.86	894.08
389.06	903.45
389.25	912.81
389.45	903.45
389.64	1011.11
389.84	973.66
390.03	954.94
390.22	957.28
390.42	922.17
390.61	943.24
390.81	973.66
391.00	1013.45
391.19	933.87
391.39	997.07
391.58	1046.22
391.78	1008.77
391.97	1097.71
392.16	917.49
392.36	1057.92
392.55	1022.81
392.75	997.07
392.94	980.68
393.13	1020.47
393.33	959.62
393.52	1018.13
393.71	1153.88
393.91	1116.44
394.10	1165.59
394.29	1142.18
394.49	1135.16
394.68	1086.01
394.88	1104.73
395.07	1130.48
395.26	1100.05
395.46	1212.40
395.65	1097.71
395.84	1191.33
396.04	1210.06
396.23	1158.57
396.42	1174.95
396.62	1191.33
396.81	1268.57
397.00	1207.72
397.19	1165.59
397.39	1254.53
397.58	1228.78
397.77	1207.72
397.97	1287.29
398.16	1174.95
398.35	1343.47
398.55	1252.19
398.74	1289.64
398.93	1315.38
399.12	1376.24
399.32	1387.94
399.51	1235.80
399.70	1289.64
399.90	1247.51
400.09	1418.36
400.28	1401.98
400.47	1329.42
400.67	1397.30
400.86	1397.30
401.05	1343.47
401.24	1409.00
401.44	1441.77
401.63	1397.30
401.82	1521.35
402.01	1479.22
402.21	1409.00
402.40	1511.99
402.59	1458.15
402.78	1570.50
402.97	1528.37
403.17	1488.58
403.36	1530.71
403.55	1507.30
403.74	1537.73
403.93	1570.50
404.13	1579.86
404.32	1533.05
404.51	1633.69
404.70	1687.53
404.89	1664.12
405.09	1689.87
405.28	1535.39
405.47	1722.63
405.66	1717.95
405.85	1650.08
406.05	1673.48
406.24	1664.12
406.43	1774.13
406.62	1783.49
406.81	1849.02
407.00	1746.04
407.20	1753.06
407.39	1729.66
407.58	1865.41
407.77	1823.28
407.96	1867.75
408.15	1881.79
408.34	1942.64
408.54	1881.79
408.73	1886.47
408.92	1818.60
409.11	1996.48
409.30	1902.86
409.49	1928.60
409.68	1877.11
409.87	1942.64
410.07	2050.31
410.26	2066.69
410.45	1984.77
410.64	2010.52
410.83	1970.73
411.02	2019.88
411.21	2106.48
411.40	2087.76
411.59	2118.18
411.78	2204.78
411.98	2165.00
412.17	2193.08
412.36	2317.13
412.55	2326.49
412.74	2389.69
412.93	2361.60
413.12	2289.04
413.31	2422.45
413.50	2385.01
413.69	2480.97
413.88	2492.67
414.07	2413.09
414.26	2499.69
414.45	2469.27
414.64	2464.58
414.83	2581.61
415.02	2572.25
415.22	2560.55
415.41	2677.57
415.60	2590.97
415.79	2747.79
415.98	2644.81
416.17	2647.15
416.36	2654.17
416.55	2752.47
416.74	2862.48
416.93	2862.48
417.12	2754.81
417.31	2881.20
417.50	2733.75
417.69	2808.64
417.88	2906.95
418.07	2932.69
418.26	2949.08
418.45	3075.46
418.64	3091.85
418.83	3014.61
419.02	3009.93
419.21	3059.08
419.39	3171.43
419.58	2942.05
419.77	3002.91
419.96	3117.59
420.15	3131.64
420.34	3033.33
420.53	3162.06
420.72	3316.54
420.91	3204.19
421.10	3318.88
421.29	3342.28
421.48	3150.36
421.67	3321.22
421.86	3197.17
422.05	3262.71
422.24	3215.90
422.43	3435.91
422.61	3396.12
422.80	3368.03
422.99	3328.24
423.18	3456.97
423.37	3382.07
423.56	3353.99
423.75	3279.09
423.94	3225.26
424.13	3136.32
424.32	3393.78
424.50	3361.01
424.69	3400.80
424.88	3410.16
425.07	3405.48
425.26	3349.31
425.45	3353.99
425.64	3435.91
425.83	3482.72
426.01	3417.18
426.20	3452.29
426.39	3461.65
426.58	3456.97
426.77	3527.19
426.96	3543.57
427.15	3421.86
427.33	3517.83
427.52	3393.78
427.71	3522.51
427.90	3616.13
428.09	3637.19
428.28	3681.66
428.46	3742.52
428.65	3562.30
428.84	3815.07
429.03	3866.56
429.22	3590.38
429.40	3742.52
429.59	3693.37
429.78	3733.15
429.97	3712.09
430.16	3824.44
430.34	3770.60
430.53	3922.74
430.72	3868.91
430.91	3815.07
431.10	3761.24
431.28	3934.44
431.47	4030.40
431.66	4053.81
431.85	3868.91
432.03	4002.32
432.22	4124.02
432.41	4046.79
432.60	4042.11
432.79	4060.83
432.97	3990.61
433.16	4152.11
433.35	4145.09
433.54	4051.47
433.72	4285.52
433.91	4175.52
434.10	4170.83
434.28	4095.94
434.47	4100.62
434.66	4184.88
434.85	4255.09
435.03	4287.86
435.22	4269.14
435.41	4479.79
435.59	4383.82
435.78	4374.46
435.97	4390.84
436.16	4397.87
436.34	4498.51
436.53	4327.65
436.72	4444.68
436.90	4425.95
437.09	4547.66
437.28	4521.92
437.46	4561.70
437.65	4418.93
437.84	4568.73
438.02	4435.32
438.21	4533.62
438.40	4510.21
438.58	4730.22
438.77	4755.97
438.96	4812.14
439.14	4732.56
439.33	4880.02
439.52	4861.29
439.70	4725.54
439.89	4994.70
440.08	4987.68
440.26	4973.64
440.45	4954.91
440.63	4875.34
440.82	5083.64
441.01	5090.67
441.19	5235.78
441.38	5193.65
441.57	5219.39
441.75	5217.05
441.94	5401.96
442.12	5378.55
442.31	5399.62
442.50	5444.09
442.68	5341.10
442.87	5289.61
443.05	5453.45
443.24	5556.43
443.43	5441.75
443.61	5570.48
443.80	5736.65
443.98	5266.21
444.17	5371.53
444.35	5518.98
444.54	5476.85
444.73	5462.81
444.91	5486.22
445.10	5675.80
445.28	5631.33
445.47	5661.76
445.65	5554.09
445.84	5729.63
446.02	5584.52
446.21	5689.84
446.39	5591.54
446.58	5736.65
446.77	5778.78
446.95	5551.75
447.14	5437.06
447.32	5650.05
447.51	5565.79
447.69	5760.06
447.88	5811.55
448.06	5802.19
448.25	5699.20
448.43	5877.09
448.62	5778.78
448.80	5715.59
448.99	5682.82
449.17	5816.23
449.36	5825.59
449.54	5926.24
449.73	5888.79
449.91	6026.88
450.10	6017.52
450.28	6008.16
450.46	6050.28
450.65	6099.44
450.83	6122.84
451.02	6076.03
451.20	6314.77
451.39	6094.76
451.57	6200.08
451.76	6143.91
451.94	6031.56
452.13	6258.59
452.31	6263.27
452.49	6118.16
452.68	6314.77
452.86	6193.06
453.05	6361.58
453.23	6396.68
453.42	6249.23
453.60	6307.74
453.78	6396.68
453.97	6141.57
454.15	6420.09
454.34	6326.47
454.52	6326.47
454.70	6427.11
454.89	6466.90
455.07	6483.28
455.26	6483.28
455.44	6684.57
455.62	6579.25
455.81	6597.97
455.99	6684.57
456.17	6815.64
456.36	6686.91
456.54	6696.27
456.73	6658.82
456.91	6951.39
457.09	6993.52
457.28	7073.10
457.46	7005.22
457.64	6984.16
457.83	7101.19
458.01	7059.06
458.19	7180.76
458.38	7023.95
458.56	7084.80
458.74	7082.46
458.93	7063.74
459.11	7049.69
459.29	6995.86
459.48	7073.10
459.66	7375.03
459.84	7384.39
460.03	7466.31
460.21	7454.61
460.39	7389.07
460.57	7410.14
460.76	7342.26
460.94	7676.96
461.12	7421.84
461.31	7316.51
461.49	7456.95
461.67	7407.80
461.85	7543.55
462.04	7487.37
462.22	7960.16
462.40	7763.56
462.59	7609.08
462.77	7716.75
462.95	7740.15
463.13	7688.66
463.32	7721.43
463.50	7829.09
463.68	7730.79
463.86	7817.39
464.05	7742.49
464.23	7976.55
464.41	7934.42
464.59	7625.47
464.78	8035.06
464.96	8044.42
465.14	7906.33
465.32	7911.01
465.50	7922.71
465.69	7889.95
465.87	8053.78
466.05	8098.25
466.23	8187.19
466.41	8028.04
466.60	8219.96
466.78	8065.49
466.96	8116.98
467.14	8079.53
467.32	8194.22
467.51	8145.06
467.69	8177.83
467.87	8025.70
468.05	8372.10
468.23	8234.00
468.41	8407.20
468.60	8442.31
468.78	8634.24
468.96	8269.11
469.14	8486.78
469.32	8746.58
469.50	8456.36
469.69	8557.00
469.87	8617.85
470.05	8608.49
470.23	8844.88
470.41	8667.00
470.59	8695.09
470.77	8634.24
470.95	8606.15
471.14	8828.50
471.32	8861.27
471.50	8952.55
471.68	8849.57
471.86	9015.74
472.04	9224.05
472.22	9184.26
472.40	8973.61
472.58	9186.60
472.77	9397.25
472.95	9530.66
473.13	9657.05
473.31	9137.45
473.49	9387.89
473.67	9486.19
473.85	9439.38
474.03	9626.62
474.21	9647.69
474.39	9696.84
474.57	9830.25
474.75	9748.33
474.93	9977.70
475.12	9617.26
475.30	9909.83
475.48	9923.87
475.66	9944.94
475.84	9944.94
476.02	10122.82
476.20	10193.03
476.38	10284.31
476.56	10665.82
476.74	10377.94
476.92	10361.55
477.10	10516.03
477.28	10719.65
477.46	10530.07
477.64	10806.25
477.82	10965.41
478.00	11023.92
478.18	10712.63
478.36	10911.58
478.54	11147.97
478.72	11248.61
478.90	11339.90
479.08	11412.45
479.26	11721.40
479.44	11658.21
479.62	11824.39
479.80	11838.43
479.98	11833.75
480.16	12238.66
480.34	11967.16
480.52	12271.43
480.70	11995.25
480.88	11995.25
481.06	12222.28
481.24	12219.94
481.41	12629.53
481.59	12615.49
481.77	12828.48
481.95	12772.30
482.13	12676.34
482.31	12774.64
482.49	13343.39
482.67	13090.62
482.85	13334.03
483.03	13710.86
483.21	13811.50
483.39	13706.18
483.57	13624.26
483.74	13764.69
483.92	13947.25
484.10	13727.24
484.28	14036.19
484.46	14321.74
484.64	14354.51
484.82	14162.58
485.00	14504.30
485.18	14984.11
485.35	14923.26
485.53	14721.97
485.71	15115.18
485.89	15197.10
486.07	15066.03
486.25	15634.78
486.43	15524.77
486.61	15597.33
486.78	15728.40
486.96	15992.88
487.14	16013.95
487.32	16159.06
487.50	16255.02
487.68	16343.96
487.85	16332.26
488.03	16521.84
488.21	17006.33
488.39	16772.28
488.57	16898.67
488.75	16910.37
488.92	17191.23
489.10	17406.56
489.28	17436.99
489.46	17806.80
489.64	17460.40
489.81	18113.41
489.99	17736.58
490.17	18286.61
490.35	18183.62
490.53	18113.41
490.70	18216.39
490.88	18342.78
491.06	18754.71
491.24	18712.58
491.41	19190.05
491.59	18972.38
491.77	18766.42
491.95	19335.17
492.13	19564.54
492.30	19297.72
492.48	19548.15
492.66	19639.44
492.84	19557.52
493.01	19955.41
493.19	20121.59
493.37	20215.21
493.54	20264.36
493.72	20540.54
493.90	20465.64
494.08	20498.41
494.25	20631.82
494.43	20552.24
494.61	20744.17
494.79	21167.80
494.96	21245.04
495.14	21242.70
495.32	21490.80
495.49	21565.70
495.67	21642.93
495.85	21631.23
496.02	22192.96
496.20	22162.53
496.38	22197.64
496.55	21865.28
496.73	22670.43
496.91	22487.87
497.09	22611.92
497.26	23005.13
497.44	22576.81
497.62	22808.52
497.79	23414.72
497.97	22860.01
498.14	23580.90
498.32	23506.00
498.50	23798.57
498.67	23576.22
498.85	23756.44
499.03	23995.17
499.20	23821.97
499.38	23733.03
499.56	24161.35
499.73	24287.74
499.91	24699.67
500.08	24486.68
500.26	24212.84
500.44	24439.87
500.61	24507.75
500.79	24671.59
500.97	25027.35
501.14	25249.70
501.32	24917.34
501.49	25460.35
501.67	25144.38
501.84	25032.03
502.02	24826.06
502.20	25610.14
502.37	25298.85
502.55	25319.92
502.72	25893.35
502.90	25893.35
503.07	25759.94
503.25	26111.02
503.43	25940.16
503.60	26150.81
503.78	26218.68
503.95	26134.42
504.13	26162.51
504.30	26274.85
504.48	26363.79
504.65	26513.59
504.83	26808.50
505.01	26852.97
505.18	26663.38
505.36	26937.23
505.53	26541.68
505.71	27417.04
505.88	27267.24
506.06	27124.47
506.23	27538.74
506.41	27440.44
506.58	27417.04
506.76	27648.75
506.93	27548.11
507.11	27583.21
507.28	27786.84
507.46	27709.60
507.63	28067.70
507.81	28175.37
507.98	27995.15
508.16	28304.10
508.33	28247.93
508.50	28320.48
508.68	28566.24
508.85	28737.10
509.03	28591.98
509.20	28634.11
509.38	28940.72
509.55	29153.71
509.73	29259.04
509.90	29130.31
510.08	29233.29
510.25	29125.63
510.42	29230.95
510.60	29759.91
510.77	29432.24
510.95	29914.39
511.12	29963.54
511.30	29853.53
511.47	30038.44
511.64	29584.37
511.82	30359.09
511.99	29837.15
512.17	30300.58
512.34	30136.74
512.51	30609.53
512.69	30801.45
512.86	30534.63
513.04	30857.62
513.21	30356.75
513.38	30939.54
513.56	31185.30
513.73	30665.70
513.90	30719.53
514.08	30305.26
514.25	31360.84
514.43	30953.58
514.60	31761.07
514.77	31569.15
514.95	31494.25
515.12	31101.04
515.29	31412.33
515.47	32112.15
515.64	31768.09
515.81	31583.19
515.99	31913.20
516.16	32360.25
516.33	31936.61
516.51	32208.11
516.68	31812.56
516.85	32100.45
517.03	32542.81
517.20	32893.89
517.37	32240.88
517.54	32437.48
517.72	32458.55
517.89	32596.64
518.06	32833.04
518.24	32692.60
518.41	32910.27
518.58	32985.17
518.75	32636.43
518.93	32900.91
519.10	32744.09
519.27	33230.93
519.45	33160.71
519.62	33507.11
519.79	33537.54
519.96	33668.61
520.14	33699.03
520.31	33179.43
520.48	33860.53
520.65	33617.11
520.83	34253.74
521.00	34054.79
521.17	33362.00
521.34	34328.64
521.52	34047.77
521.69	34328.64
521.86	34223.31
522.03	34323.96
522.20	34714.83
522.38	34562.69
522.55	34536.94
522.72	34672.70
522.89	34436.30
523.07	35049.52
523.24	34728.87
523.41	35065.91
523.58	34906.75
523.75	35262.51
523.92	35047.18
524.10	34808.45
524.27	35297.62
524.44	35421.67
524.61	35201.66
524.78	35880.41
524.96	35761.05
525.13	35732.96
525.30	35941.27
525.47	35763.39
525.64	35908.50
525.81	36074.68
525.98	36102.76
526.16	36180.00
526.33	35922.54
526.50	36212.77
526.67	35861.69
526.84	36133.19
527.01	36378.95
527.18	36823.65
527.36	36093.40
527.53	36437.46
527.70	36940.68
527.87	36758.11
528.04	36484.27
528.21	36715.98
528.38	36617.68
528.55	37212.18
528.72	36854.08
528.89	37003.87
529.07	36821.31
529.24	36928.97
529.41	37083.45
529.58	37230.90
529.75	36926.63
529.92	37418.14
530.09	37383.04
530.26	37247.29
530.43	37755.18
530.60	37106.85
530.77	37558.58
530.94	37230.90
531.11	37574.96
531.28	37661.56
531.46	37645.18
531.63	37523.47
531.80	37787.95
531.97	37893.27
532.14	37839.44
532.31	37666.24
532.48	38122.65
532.65	38265.42
532.82	38265.42
532.99	38532.24
533.16	38033.71
533.33	38455.00
533.50	38403.51
533.67	38494.79
533.84	38108.60
534.01	38267.76
534.18	38319.25
534.35	38990.98
534.52	39089.29
534.69	39058.86
534.86	39157.16
535.03	39077.58
535.20	39356.11
535.37	39353.77
535.54	39239.08
535.71	39019.07
535.88	39643.99
536.05	39292.91
536.22	39196.95
536.38	39325.68
536.55	39168.87
536.72	39526.97
536.89	39199.29
537.06	39360.79
537.23	39449.73
537.40	39578.46
537.57	39489.52
537.74	39431.01
537.91	40072.31
538.08	39934.22
538.25	39702.51
538.42	39814.85
538.59	40112.10
538.75	39779.74
538.92	39782.09
539.09	40105.08
539.26	40252.53
539.43	40187.00
539.60	40371.90
539.77	40114.44
539.94	40627.02
540.11	40446.80
540.28	40718.30
540.44	40208.06
540.61	40524.04
540.78	40507.65
540.95	40261.90
541.12	40306.37
541.29	40444.46
541.46	40713.62
541.62	41050.66
541.79	40938.31
541.96	40474.88
542.13	40381.26
542.30	40868.09
542.47	41062.36
542.63	41284.71
542.80	41523.44
542.97	41764.52
543.14	41258.96
543.31	41315.14
543.48	41497.70
543.64	41457.91
543.81	41869.84
543.98	41635.79
544.15	41872.18
544.32	42012.62
544.48	41666.22
544.65	41909.63
544.82	41909.63
544.99	41834.74
545.16	41673.24
545.32	41628.77
545.49	42134.32
545.66	42272.42
545.83	42323.91
546.00	42438.59
546.16	42263.05
546.33	42040.70
546.50	42176.45
546.67	42796.70
546.83	41839.42
547.00	42253.69
547.17	41954.10
547.34	42670.31
547.50	42522.85
547.67	43278.85
547.84	42927.77
548.00	42789.67
548.17	42967.55
548.34	42850.53
548.51	42965.21
548.67	43131.39
548.84	42897.34
549.01	42777.97
549.18	42246.67
549.34	43550.35
549.51	43129.05
549.68	42724.14
549.84	43093.94
550.01	43817.17
550.18	43077.56
550.34	43405.23
550.51	43529.28
550.68	43590.14
550.84	42740.52
551.01	43363.11
551.18	43208.63
551.34	43599.50
551.51	43672.06
551.68	43690.78
551.84	43400.55
552.01	43559.71
552.18	43746.95
552.34	43140.75
552.51	43253.10
552.68	43110.33
552.84	43430.98
553.01	43749.29
553.18	43711.84
553.34	43814.83
553.51	43833.55
553.67	43796.10
553.84	44044.20
554.01	43952.92
554.17	43655.67
554.34	44006.75
554.51	44114.42
554.67	44215.06
554.84	44353.15
555.00	44058.24
555.17	44086.33
555.33	44411.67
555.50	44048.88
555.67	44259.53
555.83	44280.60
556.00	44847.00
556.16	44954.67
556.33	44507.63
556.50	44486.56
556.66	45024.89
556.83	44479.54
556.99	44952.33
557.16	45052.97
557.32	44788.49
557.49	44893.82
557.65	44240.81
557.82	44664.44
557.98	44685.51
558.15	44502.95
558.32	44751.04
558.48	44783.81
558.65	44395.28
558.81	44690.19
558.98	44903.18
559.14	44666.78
559.31	44837.64
559.47	45216.81
559.64	44875.09
559.80	45202.77
559.97	45354.90
560.13	44769.77
560.30	44847.00
560.46	45090.42
560.63	45270.64
560.79	44996.80
560.96	45282.34
561.12	45359.58
561.29	45228.51
561.45	45291.71
561.61	45560.87
561.78	45595.98
561.94	45249.58
562.11	45282.34
562.27	45191.06
562.44	45411.07
562.60	45495.33
562.77	45511.72
562.93	45298.73
563.10	45633.42
563.26	45607.68
563.42	45607.68
563.59	45532.78
563.75	45806.62
563.92	45729.39
564.08	45394.69
564.24	45549.17
564.41	45872.16
564.57	45645.13
564.74	45387.67
564.90	45532.78
565.07	45553.85
565.23	45242.56
565.39	45357.24
565.56	46019.61
565.72	45401.71
565.88	45991.53
566.05	46227.92
566.21	45907.27
566.38	45560.87
566.54	46183.45
566.70	45902.59
566.87	45806.62
567.03	45813.65
567.19	46038.34
567.36	46040.68
567.52	45993.87
567.68	46241.96
567.85	46218.56
568.01	46380.06
568.17	45785.56
568.34	46234.94
568.50	46497.08
568.66	45794.92
568.83	46040.68
568.99	46021.95
569.15	45958.76
569.32	46239.62
569.48	46246.65
569.64	46206.86
569.81	46019.61
569.97	45872.16
570.13	46700.71
570.30	45937.69
570.46	46031.32
570.62	45989.19
570.78	46003.23
570.95	46550.91
571.11	46220.90
571.27	46057.06
571.43	45865.14
571.60	46162.39
571.76	46408.14
571.92	46108.55
572.09	46211.54
572.25	46153.02
572.41	46389.42
572.57	46160.05
572.74	47107.96
572.90	46429.21
573.06	46689.01
573.22	46691.35
573.38	46513.47
573.55	46834.12
573.71	46604.75
573.87	46686.67
574.03	46169.41
574.20	46649.22
574.36	46447.93
574.52	46436.23
574.68	46213.88
574.84	46696.03
575.01	46712.41
575.17	47079.88
575.33	46780.29
575.49	46461.97
575.65	46756.88
575.82	46660.92
575.98	46672.62
576.14	46993.28
576.30	46913.70
576.46	46920.72
576.62	46450.27
576.79	46930.08
576.95	46213.88
577.11	46260.69
577.27	46742.84
577.43	46916.04
577.59	46920.72
577.75	46756.88
577.92	46295.80
578.08	46490.06
578.24	47007.32
578.40	46714.75
578.56	46916.04
578.72	46384.74
578.88	46829.44
579.04	46679.64
579.21	46775.61
579.37	46841.14
579.53	46656.24
579.69	46440.91
579.85	46576.66
580.01	46791.99
580.17	46696.03
580.33	46674.96
580.49	46962.85
580.65	46674.96
580.82	46813.05
580.98	46422.19
581.14	46513.47
581.30	46754.54
581.46	46752.20
581.62	46890.29
581.78	46438.57
581.94	47040.09
582.10	46712.41
582.26	47063.49
582.42	46923.06
582.58	47110.30
582.74	46782.63
582.90	47187.54
583.06	47222.65
583.22	47070.51
583.38	46855.18
583.54	46784.97
583.70	46986.25
583.86	47009.66
584.02	46995.62
584.18	47466.06
584.34	47316.27
584.50	46703.05
584.66	47133.71
584.82	46958.17
584.98	47552.66
585.14	46932.42
585.30	47122.01
585.46	46913.70
585.62	47072.85
585.78	47012.00
585.94	46696.03
586.10	46735.82
586.26	46616.45
586.42	46894.97
586.58	46887.95
586.74	46862.21
586.90	46630.49
587.06	47126.69
587.22	46824.76
587.38	46761.56
587.54	47512.88
587.70	47199.24
587.86	47339.68
588.02	47047.11
588.18	47185.20
588.34	46944.12
588.49	47063.49
588.65	47054.13
588.81	47313.93
588.97	47292.86
589.13	47463.72
589.29	47381.80
589.45	47559.69
589.61	47129.03
589.77	47503.51
589.93	47510.53
590.08	47250.74
590.24	47533.94
590.40	47423.93
590.56	47732.89
590.72	47086.90
590.88	47217.97
591.04	47143.07
591.20	47737.57
591.35	47395.85
591.51	47988.00
591.67	47332.65
591.83	47681.39
591.99	47253.08
592.15	47323.29
592.31	47395.85
592.46	47171.16
592.62	47463.72
592.78	47709.48
592.94	47859.27
593.10	47379.46
593.26	47777.36
593.41	47578.41
593.57	48161.20
593.73	47318.61
593.89	48090.99
594.05	47817.14
594.20	47402.87
594.36	47943.53
594.52	47852.25
594.68	47604.16
594.84	47737.57
594.99	47999.71
595.15	47770.33
595.31	47756.29
595.47	47901.40
595.62	47793.74
595.78	47416.91
595.94	47922.47
596.10	47760.97
596.25	47983.32
596.41	47835.87
596.57	47571.39
596.73	48088.65
596.88	48142.48
597.04	47775.02
597.20	47868.64
597.36	47489.47
597.51	47817.14
597.67	47995.03
597.83	47697.78
597.99	47798.42
598.14	47889.70
598.30	47538.62
598.46	47456.70
598.61	47707.14
598.77	48044.18
598.93	48039.50
599.09	47955.24
599.24	48390.58
599.40	47917.79
599.56	47887.36
599.71	48638.67
599.87	48390.58
600.03	47899.06
600.18	48126.10
600.34	47941.19
600.50	47941.19
600.65	48037.16
600.81	48367.17
600.97	48200.99
601.12	47707.14
601.28	47995.03
601.44	47688.42
601.59	47978.64
601.75	47920.13
601.91	48156.52
602.06	47962.26
602.22	48189.29
602.37	48093.33
602.53	47796.08
602.69	48044.18
602.84	47622.88
603.00	47702.46
603.16	47995.03
603.31	47941.19
603.47	48245.46
603.62	48027.79
603.78	48142.48
603.94	48041.84
604.09	48182.27
604.25	47878.00
604.40	47711.82
604.56	47847.57
604.71	48165.88
604.87	47519.90
605.03	47971.62
605.18	47587.77
605.34	48046.52
605.49	47648.63
605.65	47934.17
605.80	47866.30
605.96	48039.50
606.12	47817.14
606.27	47985.66
606.43	47725.86
606.58	47657.99
606.74	48039.50
606.89	47835.87
607.05	48200.99
607.20	48011.41
607.36	47915.45
607.51	47875.66
607.67	47564.37
607.82	47812.46
607.98	47632.24
608.13	47494.15
608.29	47997.37
608.44	47880.34
608.60	47564.37
608.75	47878.00
608.91	47533.94
609.06	47704.80
609.22	47765.65
609.37	47423.93
609.53	47655.65
609.68	47767.99
609.84	47524.58
609.99	47564.37
610.15	47695.44
610.30	47711.82
610.46	47562.03
610.61	47545.64
610.76	47920.13
610.92	47428.62
611.07	47515.22
611.23	47423.93
611.38	47599.47
611.54	47782.04
611.69	47611.18
611.84	47508.19
612.00	47234.35
612.15	47709.48
612.31	47634.58
612.46	47468.40
612.62	47416.91
612.77	47634.58
612.92	47657.99
613.08	47164.14
613.23	47491.81
613.39	47409.89
613.54	46969.87
613.69	47419.25
613.85	47250.74
614.00	47215.63
614.15	47334.99
614.31	46843.48
614.46	46932.42
614.62	47250.74
614.77	47138.39
614.92	47206.26
615.08	46909.02
615.23	47524.58
615.38	47122.01
615.54	47522.24
615.69	47131.37
615.84	46862.21
616.00	47503.51
616.15	46838.80
616.30	47171.16
616.46	47035.41
616.61	46939.44
616.76	47203.92
616.92	46696.03
617.07	47021.36
617.22	47229.67
617.37	46813.05
617.53	47009.66
617.68	46756.88
617.83	46829.44
617.99	47288.18
618.14	46962.85
618.29	46761.56
618.45	46815.40
618.60	46478.36
618.75	46248.99
618.90	46684.33
619.06	46738.16
619.21	46693.69
619.36	46740.50
619.51	46857.52
619.67	46295.80
619.82	46522.83
619.97	46815.40
620.12	46710.07
620.28	46230.26
620.43	46363.67
620.58	46712.41
620.73	46773.27
620.89	46724.11
621.04	46459.63
621.19	46232.60
621.34	46504.10
621.49	46518.15
621.65	46735.82
621.80	46518.15
621.95	46618.79
622.10	46927.74
622.25	46569.64
622.41	46277.07
622.56	46197.49
622.71	46333.24
622.86	46639.86
623.01	46176.43
623.16	46248.99
623.32	46183.45
623.47	46302.82
623.62	46087.49
623.77	46691.35
623.92	46143.66
624.07	45705.98
624.23	46274.73
624.38	46398.78
624.53	46227.92
624.68	45876.84
624.83	46192.81
624.98	45713.00
625.13	45401.71
625.29	45727.05
625.44	45998.55
625.59	46183.45
625.74	45617.04
625.89	45579.59
626.04	46129.62
626.19	45780.88
626.34	45303.41
626.49	45392.35
626.65	45668.53
626.80	45406.39
626.95	45614.70
627.10	45413.41
627.25	45408.73
627.40	45717.68
627.55	45783.22
627.70	45528.10
627.85	45874.50
628.00	45420.44
628.15	45497.67
628.30	45366.60
628.45	45144.25
628.60	45015.52
628.76	45366.60
628.91	45282.34
629.06	44804.88
629.21	45104.46
629.36	44711.25
629.51	45052.97
629.66	45537.46
629.81	45336.18
629.96	45165.32
630.11	45130.21
630.26	44821.26
630.41	45085.74
630.56	44893.82
630.71	44891.48
630.86	45010.84
631.01	44343.79
631.16	45015.52
631.31	44914.88
631.46	44921.90
631.61	45254.26
631.76	44973.39
631.91	45144.25
632.06	45120.85
632.21	44919.56
632.36	44800.19
632.51	44334.43
632.66	45172.34
632.81	44676.15
632.96	45160.64
633.10	44638.70
633.25	44636.36
633.40	44308.68
633.55	45045.95
633.70	44737.00
633.85	44240.81
634.00	43938.88
634.15	43997.39
634.30	44737.00
634.45	44135.48
634.60	44311.02
634.75	44657.42
634.90	44708.91
635.05	44282.94
635.19	44163.57
635.34	44250.17
635.49	44011.43
635.64	44149.53
635.79	44528.69
635.94	44339.11
636.09	44102.71
636.24	44364.85
636.39	44186.97
636.53	44123.78
636.68	43983.35
636.83	43517.58
636.98	43863.98
637.13	43632.27
637.28	43386.51
637.43	43779.72
637.57	43374.81
637.72	43419.28
637.87	43737.59
638.02	43966.96
638.17	43775.04
638.32	43576.09
638.46	43358.42
638.61	43697.80
638.76	43676.74
638.91	43753.97
639.06	43306.93
639.20	43398.21
639.35	43358.42
639.50	43288.21
639.65	43723.55
639.80	43660.35
639.94	43863.98
640.09	43285.87
640.24	43615.88
640.39	43203.95
640.54	43288.21
640.68	43615.88
640.83	43646.31
640.98	43157.14
641.13	42644.56
641.27	43562.05
641.42	43669.72
641.57	43278.85
641.72	43243.74
641.86	43194.59
642.01	42859.89
642.16	42981.60
642.31	42707.76
642.45	43388.85
642.60	42590.73
642.75	42937.13
642.90	42974.58
643.04	43442.68
643.19	42373.06
643.34	42923.08
643.48	42740.52
643.63	42969.90
643.78	42873.93
643.93	43278.85
644.07	43206.29
644.22	42918.40
644.37	42473.70
644.51	42632.86
644.66	42726.48
644.81	42562.64
644.95	43241.40
645.10	42649.24
645.25	42195.18
645.39	42415.19
645.54	42239.65
645.69	42387.10
645.83	41904.95
645.98	42293.48
646.13	42122.62
646.27	42185.82
646.42	42169.43
646.57	42045.38
646.71	42370.72
646.86	42476.04
647.00	42380.08
647.15	42445.62
647.30	42670.31
647.44	42351.99
647.59	42064.11
647.74	42099.22
647.88	42450.30
648.03	42506.47
648.17	42672.65
648.32	41991.55
648.47	42843.51
648.61	41961.12
648.76	42281.78
648.90	42169.43
649.05	42206.88
649.20	41888.57
649.34	42122.62
649.49	41825.37
649.63	41911.97
649.78	41970.49
649.92	42342.63
650.07	42450.30
650.21	42284.12
650.36	42527.53
650.51	41916.65
650.65	42127.30
650.80	41940.06
650.94	41883.89
651.09	41907.29
651.23	41460.25
651.38	41460.25
651.52	41495.36
651.67	41200.45
651.81	41301.09
651.96	41392.37
652.10	41422.80
652.25	41053.00
652.39	41546.85
652.54	41736.43
652.68	41331.52
652.83	41715.37
652.97	41373.65
653.12	41441.53
653.26	41280.03
653.41	41102.15
653.55	41453.23
653.70	41558.55
653.84	41804.31
653.99	41455.57
654.13	41097.47
654.27	41221.52
654.42	41537.49
654.56	41017.89
654.71	41277.69
654.85	41270.67
655.00	41413.44
655.14	41273.01
655.29	41099.81
655.43	41106.83
655.57	40760.43
655.72	41090.44
655.86	41120.87
656.01	40423.39
656.15	40629.36
656.30	40727.66
656.44	40837.67
656.58	40900.86
656.73	41029.59
656.87	40074.65
657.01	40533.40
657.16	40809.58
657.30	40463.18
657.45	40102.74
657.59	40786.18
657.73	40069.97
657.88	40573.19
658.02	40484.25
658.16	40842.35
658.31	40914.90
658.45	40566.16
658.60	40196.36
658.74	40081.67
658.88	40112.10
659.03	40093.38
659.17	40032.52
659.31	39934.22
659.46	39674.42
659.60	40229.13
659.74	39978.69
659.89	39718.89
660.03	39313.98
660.17	40058.27
660.32	39412.28
660.46	39861.66
660.60	39103.33
660.74	39861.66
660.89	39648.68
661.03	39405.26
661.17	39175.89
661.32	39494.20
661.46	39510.58
661.60	39079.92
661.74	38939.49
661.89	39098.65
662.03	38946.51
662.17	39147.80
662.31	38728.84
662.46	39005.03
662.60	39257.81
662.74	38527.56
662.88	38546.28
663.03	38646.93
663.17	38686.71
663.31	38244.35
663.45	38785.02
663.60	38944.17
663.74	38944.17
663.88	38635.22
664.02	38422.23
664.17	38653.95
664.31	38391.81
664.45	38099.24
664.59	38501.81
664.73	38188.18
664.88	38443.30
665.02	37759.86
665.16	37949.45
665.30	38244.35
665.44	38279.46
665.59	37663.90
665.73	37413.46
665.87	37481.34
666.01	38103.92
666.15	37713.05
666.29	37687.31
666.44	37546.87
666.58	37443.89
666.72	37212.18
666.86	37677.94
667.00	37273.03
667.14	37495.38
667.28	37315.16
667.43	37436.87
667.57	37172.39
667.71	37546.87
667.85	37425.17
667.99	37085.79
668.13	36715.98
668.27	36833.01
668.41	37071.75
668.56	36446.82
668.70	36587.25
668.84	36165.96
668.98	36439.80
669.12	36205.75
669.26	36465.55
669.40	36430.44
669.54	36388.31
669.68	36339.16
669.82	35915.52
669.96	35941.27
670.10	35964.67
670.25	35599.55
670.39	35915.52
670.53	35969.35
670.67	35866.37
670.81	36018.50
670.95	36023.19
671.09	35885.09
671.23	35857.01
671.37	35573.80
671.51	35236.77
671.65	35016.75
671.79	35328.05
671.93	35688.49
672.07	35220.38
672.21	35077.61
672.35	34806.11
672.49	35328.05
672.63	35110.38
672.77	34515.88
672.91	34906.75
673.05	34895.05
673.19	34600.14
673.33	34005.64
673.47	34293.53
673.61	34558.01
673.75	33785.63
673.89	33855.85
674.03	33982.24
674.17	33858.19
674.31	33617.11
674.45	33860.53
674.59	33748.18
674.73	33467.32
674.87	33757.55
675.01	33193.48
675.15	33301.14
675.29	32837.72
675.43	33366.68
675.56	33322.21
675.70	33209.86
675.84	32676.22
675.98	31775.11
676.12	32896.23
676.26	32734.73
676.40	33060.07
676.54	32596.64
676.68	32198.75
676.82	31707.24
676.96	32577.92
677.10	32318.12
677.23	32341.52
677.37	31981.08
677.51	32023.21
677.65	32044.27
677.79	31840.65
677.93	31765.75
678.07	31496.59
678.21	31409.99
678.34	30909.11
678.48	31117.42
678.62	30864.64
678.76	30871.67
678.90	30806.13
679.04	31058.91
679.18	30871.67
679.31	30630.59
679.45	30438.67
679.59	30288.87
679.73	30586.12
679.87	30129.72
680.00	30450.37
680.14	29865.24
680.28	30356.75
680.42	30551.01
680.56	30022.05
680.70	29397.13
680.83	29500.11
680.97	29518.84
681.11	29773.95
681.25	29259.04
681.39	28814.34
681.52	29212.23
681.66	28858.81
681.80	28423.47
681.94	28613.05
682.07	28226.86
682.21	28058.34
682.35	28318.14
682.49	28638.80
682.62	28304.10
682.76	28088.77
682.90	28437.51
683.04	27969.40
683.17	28060.68
683.31	28109.83
683.45	27564.49
683.59	27803.22
683.72	27599.60
683.86	27737.69
684.00	27461.51
684.13	27484.91
684.27	26981.70
684.41	27136.17
684.55	27208.73
684.68	26705.51
684.82	26473.80
684.96	26794.45
685.09	26544.02
685.23	26459.76
685.37	26855.31
685.50	26817.86
685.64	26249.11
685.78	26295.92
685.91	26127.40
686.05	25984.63
686.19	25422.90
686.32	25582.06
686.46	25259.06
686.60	25289.49
686.73	25764.62
686.87	25289.49
687.01	25170.12
687.14	25256.72
687.28	25553.97
687.42	25200.55
687.55	24938.41
687.69	24725.42
687.82	24458.60
687.96	24482.00
688.10	24538.18
688.23	24444.56
688.37	24847.13
688.50	24767.55
688.64	24456.26
688.78	23931.98
688.91	23924.96
689.05	24004.53
689.18	24006.87
689.32	23506.00
689.46	23611.32
689.59	23431.10
689.73	23608.98
689.86	23931.98
690.00	23396.00
690.13	23489.62
690.27	22911.50
690.41	23208.75
690.54	22930.23
690.68	22923.21
690.81	22717.24
690.95	22787.46
691.08	22497.23
691.22	22190.62
691.35	21996.35
691.49	22539.36
691.62	22483.19
691.76	22075.93
691.89	21965.93
692.03	21558.67
692.16	21638.25
692.30	21699.11
692.43	21958.91
692.57	21387.82
692.70	21743.58
692.84	21446.33
692.97	21319.94
693.11	21177.17
693.24	20861.19
693.38	20826.09
693.51	20760.55
693.65	20690.34
693.78	20727.78
693.92	20287.76
694.05	20336.91
694.19	20577.99
694.32	20552.24
694.45	20435.22
694.59	20266.70
694.72	20390.75
694.86	20154.35
694.99	19836.04
695.13	19674.54
695.26	19634.75
695.39	19754.12
695.53	19304.74
695.66	19658.16
695.80	19384.32
695.93	19428.79
696.07	18700.88
696.20	18869.40
696.33	18637.69
696.47	18499.59
696.60	19026.21
696.73	18951.32
696.87	19033.24
697.00	18913.87
697.14	18459.81
697.27	18359.16
697.40	18270.22
697.54	18546.40
697.67	18176.60
697.80	18249.16
697.94	18178.94
698.07	18106.38
698.21	18003.40
698.34	17942.55
698.47	17816.16
698.61	17177.19
698.74	17256.77
698.87	17483.80
699.01	17144.42
699.14	17233.36
699.27	17233.36
699.40	17247.41
699.54	17111.66
699.67	17043.78
699.80	17041.44
699.94	17050.80
700.07	16704.40
700.20	16498.44
700.34	16585.04
700.47	16650.57
700.60	16702.06
700.73	16365.03
700.87	16353.32
701.00	16112.25
701.13	15943.73
701.26	15822.02
701.40	15943.73
701.53	15962.45
701.66	15861.81
701.79	15602.01
701.93	15824.36
702.06	15379.66
702.19	15543.50
702.32	15538.82
702.46	15594.99
702.59	15517.75
702.72	15300.08
702.85	15463.92
702.99	15187.74
703.12	15063.69
703.25	14686.86
703.38	14787.50
703.51	14927.94
703.65	14527.71
703.78	14293.65
703.91	14263.22
704.04	14415.36
704.17	14335.78
704.31	14324.08
704.44	14183.65
704.57	14111.09
704.70	14073.64
704.83	13781.07
704.96	13900.44
705.10	13781.07
705.23	13888.74
>>>>>End Processed Spectral Data<<<<<
