SpectraSuite Data File
++++++++++++++++++++++++++++++++++++
Date: Fri Oct 25 11:34:45 EDT 2013
User: price-jones
Dark Spectrum Present: No
Reference Spectrum Present: No
Number of Sampled Component Spectra: 1
Spectrometers: USB2+H05261
Integration Time (usec): 100000 (USB2+H05261)
Spectra Averaged: 1 (USB2+H05261)
Boxcar Smoothing: 0 (USB2+H05261)
Correct for Electrical Dark: No (USB2+H05261)
Strobe/Lamp Enabled: No (USB2+H05261)
Correct for Detector Non-linearity: No (USB2+H05261)
Correct for Stray Light: No (USB2+H05261)
Number of Pixels in Processed Spectrum: 2048
>>>>>Begin Processed Spectral Data<<<<<
365.73	297.25
365.92	297.25
366.12	297.25
366.32	166.18
366.52	205.97
366.72	217.67
366.91	201.29
367.11	220.01
367.31	187.24
367.51	210.65
367.70	184.90
367.90	243.42
368.10	177.88
368.30	168.52
368.49	133.41
368.69	208.31
368.89	243.42
369.09	222.35
369.28	189.58
369.48	194.26
369.68	217.67
369.87	255.12
370.07	205.97
370.27	250.44
370.47	341.72
370.66	447.04
370.86	491.51
371.06	578.11
371.25	550.03
371.45	507.90
371.65	535.98
371.84	571.09
372.04	571.09
372.24	575.77
372.44	559.39
372.63	631.94
372.83	589.82
373.03	484.49
373.22	589.82
373.42	620.24
373.62	631.94
373.81	594.50
374.01	669.39
374.21	601.52
374.40	620.24
374.60	681.10
374.79	606.20
374.99	615.56
375.19	641.31
375.38	676.41
375.58	641.31
375.78	641.31
375.97	711.52
376.17	660.03
376.37	634.29
376.56	641.31
376.76	636.63
376.95	636.63
377.15	678.76
377.35	697.48
377.54	664.71
377.74	678.76
377.93	664.71
378.13	683.44
378.33	725.57
378.52	706.84
378.72	643.65
378.91	716.20
379.11	617.90
379.31	657.69
379.50	634.29
379.70	662.37
379.89	720.88
380.09	716.20
380.28	681.10
380.48	758.33
380.68	744.29
380.87	702.16
381.07	744.29
381.26	849.61
381.46	802.80
381.65	655.35
381.85	765.36
382.04	786.42
382.24	784.08
382.43	713.86
382.63	770.04
382.83	763.01
383.02	809.83
383.22	744.29
383.41	734.93
383.61	767.70
383.80	807.48
384.00	814.51
384.19	748.97
384.39	758.33
384.58	809.83
384.78	819.19
384.97	795.78
385.17	849.61
385.36	802.80
385.56	898.77
385.75	814.51
385.95	784.08
386.14	882.38
386.34	767.70
386.53	912.81
386.72	802.80
386.92	868.34
387.11	922.17
387.31	891.74
387.50	875.36
387.70	835.57
387.89	873.02
388.09	898.77
388.28	809.83
388.48	978.34
388.67	922.17
388.86	875.36
389.06	809.83
389.25	952.60
389.45	983.02
389.64	910.47
389.84	950.26
390.03	943.24
390.22	880.04
390.42	961.96
390.61	966.64
390.81	898.77
391.00	947.92
391.19	912.81
391.39	980.68
391.58	950.26
391.78	959.62
391.97	1004.09
392.16	1011.11
392.36	1015.79
392.55	1109.41
392.75	1060.26
392.94	959.62
393.13	959.62
393.33	959.62
393.52	1060.26
393.71	1125.80
393.91	990.05
394.10	1071.97
394.29	1118.78
394.49	1015.79
394.68	1107.07
394.88	1151.54
395.07	1090.69
395.26	1107.07
395.46	1088.35
395.65	1158.57
395.84	1116.44
396.04	1128.14
396.23	1095.37
396.42	1139.84
396.62	1177.29
396.81	1146.86
397.00	1191.33
397.19	1256.87
397.39	1256.87
397.58	1149.20
397.77	1235.80
397.97	1179.63
398.16	1320.06
398.35	1249.85
398.55	1203.04
398.74	1338.79
398.93	1277.93
399.12	1287.29
399.32	1231.12
399.51	1231.12
399.70	1362.19
399.90	1263.89
400.09	1352.83
400.28	1334.11
400.47	1294.32
400.67	1301.34
400.86	1273.25
401.05	1432.41
401.24	1373.89
401.44	1394.96
401.63	1371.55
401.82	1373.89
402.01	1387.94
402.21	1453.47
402.40	1392.62
402.59	1416.02
402.78	1385.60
402.97	1355.17
403.17	1437.09
403.36	1514.33
403.55	1437.09
403.74	1586.88
403.93	1497.94
404.13	1575.18
404.32	1565.82
404.51	1579.86
404.70	1685.19
404.89	1577.52
405.09	1612.63
405.28	1537.73
405.47	1621.99
405.66	1685.19
405.85	1652.42
406.05	1699.23
406.24	1619.65
406.43	1659.44
406.62	1727.32
406.81	1799.87
407.00	1682.85
407.20	1619.65
407.39	1732.00
407.58	1743.70
407.77	1750.72
407.96	1816.26
408.15	1888.81
408.34	1750.72
408.54	1856.04
408.73	1849.02
408.92	1792.85
409.11	1895.83
409.30	1818.60
409.49	1923.92
409.68	1907.54
409.87	1952.01
410.07	1977.75
410.26	1968.39
410.45	1914.56
410.64	1961.37
410.83	2033.93
411.02	1959.03
411.21	2050.31
411.40	1996.48
411.59	2059.67
411.78	2108.82
411.98	2153.29
412.17	2230.53
412.36	2172.02
412.55	2188.40
412.74	2183.72
412.93	2216.49
413.12	2286.70
413.31	2326.49
413.50	2188.40
413.69	2251.60
413.88	2361.60
414.07	2420.11
414.26	2375.64
414.45	2356.92
414.64	2413.09
414.83	2523.10
415.02	2527.78
415.22	2490.33
415.41	2553.52
415.60	2574.59
415.79	2544.16
415.98	2614.38
416.17	2516.08
416.36	2614.38
416.55	2605.02
416.74	2705.66
416.93	2628.42
417.12	2724.38
417.31	2677.57
417.50	2649.49
417.69	2780.56
417.88	2850.77
418.07	2911.63
418.26	2911.63
418.45	2892.90
418.64	2925.67
418.83	2841.41
419.02	2953.76
419.21	3007.59
419.39	3035.67
419.58	2970.14
419.77	2928.01
419.96	2942.05
420.15	3016.95
420.34	2892.90
420.53	2963.12
420.72	3063.76
420.91	3070.78
421.10	3080.14
421.29	3176.11
421.48	3073.12
421.67	3180.79
421.86	3220.58
422.05	3201.85
422.24	3091.85
422.43	3192.49
422.61	3227.60
422.80	3290.79
422.99	3204.19
423.18	3269.73
423.37	3220.58
423.56	3234.62
423.75	3220.58
423.94	3176.11
424.13	2963.12
424.32	3145.68
424.50	3307.18
424.69	3248.66
424.88	3351.65
425.07	3246.32
425.26	3208.87
425.45	3379.73
425.64	3243.98
425.83	3155.04
426.01	3391.44
426.20	3379.73
426.39	3258.03
426.58	3309.52
426.77	3293.13
426.96	3323.56
427.15	3300.16
427.33	3361.01
427.52	3337.60
427.71	3421.86
427.90	3346.97
428.09	3606.77
428.28	3478.04
428.46	3424.20
428.65	3466.33
428.84	3658.26
429.03	3545.91
429.22	3435.91
429.40	3581.02
429.59	3428.88
429.78	3391.44
429.97	3391.44
430.16	3562.30
430.34	3618.47
430.53	3726.13
430.72	3772.94
430.91	3740.18
431.10	3794.01
431.28	3772.94
431.47	3749.54
431.66	3676.98
431.85	3815.07
432.03	3896.99
432.22	3801.03
432.41	3740.18
432.60	3901.67
432.79	3861.88
432.97	3880.61
433.16	3796.35
433.35	4002.32
433.54	4049.13
433.72	3953.16
433.91	3913.38
434.10	3908.69
434.28	3988.27
434.47	3974.23
434.66	4074.87
434.85	4088.92
435.03	4056.15
435.22	4177.86
435.41	4035.08
435.59	4009.34
435.78	4131.05
435.97	4189.56
436.16	4215.30
436.34	4131.05
436.53	3999.98
436.72	4250.41
436.90	4152.11
437.09	4287.86
437.28	4198.92
437.46	4344.03
437.65	4273.82
437.84	4484.47
438.02	4547.66
438.21	4416.59
438.40	4372.12
438.58	4606.17
438.77	4526.60
438.96	4505.53
439.14	4512.55
439.33	4746.61
439.52	4608.51
439.70	4678.73
439.89	4840.23
440.08	4748.95
440.26	4603.83
440.45	4716.18
440.63	4720.86
440.82	4943.21
441.01	4854.27
441.19	4940.87
441.38	4985.34
441.57	5013.43
441.75	4994.70
441.94	5139.82
442.12	5085.98
442.31	5198.33
442.50	5022.79
442.68	5100.03
442.87	5249.82
443.05	5167.90
443.24	5200.67
443.43	5263.86
443.61	5203.01
443.80	5392.59
443.98	5132.79
444.17	5172.58
444.35	5273.23
444.54	5263.86
444.73	5313.02
444.91	5160.88
445.10	5298.97
445.28	5217.05
445.47	5387.91
445.65	5329.40
445.84	5385.57
446.02	5528.35
446.21	5275.57
446.39	5348.12
446.58	5411.32
446.77	5509.62
446.95	5366.85
447.14	5373.87
447.32	5320.04
447.51	5380.89
447.69	5416.00
447.88	5334.08
448.06	5526.00
448.25	5575.16
448.43	5493.24
448.62	5593.88
448.80	5523.66
448.99	5500.26
449.17	5636.01
449.36	5483.88
449.54	5664.10
449.73	5619.63
449.91	5830.27
450.10	5825.59
450.28	5790.49
450.46	5741.33
450.65	5652.39
450.83	5849.00
451.02	5886.45
451.20	5881.77
451.39	5856.02
451.57	5905.17
451.76	5799.85
451.94	5947.30
452.13	5900.49
452.31	5841.98
452.49	5928.58
452.68	6024.54
452.86	5980.07
453.05	6169.65
453.23	6066.67
453.42	5942.62
453.60	5905.17
453.78	6129.86
453.97	5830.27
454.15	5902.83
454.34	5959.00
454.52	6211.78
454.70	6087.73
454.89	6108.80
455.07	6209.44
455.26	6141.57
455.44	6431.79
455.62	6396.68
455.81	6305.40
455.99	6590.95
456.17	6394.34
456.36	6399.02
456.54	6380.30
456.73	6656.48
456.91	6693.93
457.09	6707.98
457.28	6689.25
457.46	6609.67
457.64	6604.99
457.83	6548.82
458.01	6668.19
458.19	6803.94
458.38	6761.81
458.56	6956.07
458.74	6623.72
458.93	6817.98
459.11	6707.98
459.29	6904.58
459.48	6953.73
459.66	6808.62
459.84	6986.50
460.03	7094.16
460.21	7007.56
460.39	6916.28
460.57	7080.12
460.76	7148.00
460.94	7054.37
461.12	7028.63
461.31	7096.50
461.49	7258.00
461.67	7178.42
461.85	7194.81
462.04	7258.00
462.22	7480.35
462.40	7379.71
462.59	7391.41
462.77	7585.68
462.95	7311.83
463.13	7330.56
463.32	7489.71
463.50	7353.96
463.68	7503.76
463.86	7515.46
464.05	7213.53
464.23	7372.69
464.41	7651.21
464.59	7473.33
464.78	7616.10
464.96	7513.12
465.14	7571.63
465.32	7597.38
465.50	7641.85
465.69	7674.62
465.87	7571.63
466.05	7566.95
466.23	7756.54
466.41	7632.49
466.60	7955.48
466.78	7967.18
466.96	7700.36
467.14	7892.29
467.32	7688.66
467.51	7978.89
467.69	7531.84
467.87	7953.14
468.05	7878.24
468.23	7974.21
468.41	7939.10
468.60	7864.20
468.78	8025.70
468.96	8018.68
469.14	8182.51
469.32	8093.57
469.50	7871.22
469.69	8262.09
469.87	8196.56
470.05	8257.41
470.23	8238.69
470.41	8208.26
470.59	8360.39
470.77	8463.38
470.95	8109.96
471.14	8641.26
471.32	8140.38
471.50	8638.92
471.68	8744.24
471.86	8404.86
472.04	8711.47
472.22	8877.65
472.40	8538.27
472.58	8725.52
472.77	8975.95
472.95	8842.54
473.13	9074.26
473.31	8901.06
473.49	8910.42
473.67	8865.95
473.85	8978.30
474.03	9348.10
474.21	9088.30
474.39	9392.57
474.57	9336.40
474.75	9355.12
474.93	9308.31
475.12	9263.84
475.30	9605.56
475.48	9525.98
475.66	9554.07
475.84	9542.36
476.02	9626.62
476.20	9617.26
476.38	9750.67
476.56	10066.64
476.74	10036.22
476.92	9893.44
477.10	9998.77
477.28	10076.01
477.46	10003.45
477.64	10223.46
477.82	10380.28
478.00	10333.47
478.18	10492.62
478.36	10579.22
478.54	10771.15
478.72	10766.46
478.90	10862.43
479.08	11143.29
479.26	10930.30
479.44	11185.42
479.62	11021.58
479.80	11250.96
479.98	11360.96
480.16	11611.40
480.34	11311.81
480.52	11616.08
480.70	11358.62
480.88	11492.03
481.06	11721.40
481.24	11992.90
481.41	11859.49
481.59	11915.67
481.77	12208.23
481.95	12147.38
482.13	12308.88
482.31	12133.34
482.49	12510.16
482.67	12666.98
482.85	12702.09
483.03	13074.23
483.21	12786.35
483.39	13027.42
483.57	13055.51
483.74	13179.56
483.92	13146.79
484.10	13191.26
484.28	13336.37
484.46	13694.47
484.64	13741.29
484.82	13635.96
485.00	13813.84
485.18	14150.88
485.35	14183.65
485.53	14106.41
485.71	14331.10
485.89	14504.30
486.07	14342.80
486.25	14684.52
486.43	14492.60
486.61	14934.96
486.78	14773.46
486.96	14836.66
487.14	15290.72
487.32	15342.21
487.50	15297.74
487.68	15410.09
487.85	15976.50
488.03	15803.30
488.21	16140.33
488.39	16027.99
488.57	16348.64
488.75	15929.69
488.92	16713.77
489.10	16538.23
489.28	16919.73
489.46	16830.79
489.64	17003.99
489.81	16943.14
489.99	17090.59
490.17	17071.87
490.35	17387.84
490.53	17453.37
490.70	17589.13
490.88	17692.11
491.06	17820.84
491.24	17635.94
491.41	18064.25
491.59	18033.83
491.77	18073.62
491.95	18352.14
492.13	18654.07
492.30	18448.10
492.48	18647.05
492.66	18780.46
492.84	18864.72
493.01	19000.47
493.19	19185.37
493.37	19220.48
493.54	19056.64
493.72	19300.06
493.90	19278.99
494.08	19660.50
494.25	20051.37
494.43	20030.30
494.61	19983.49
494.79	20219.89
494.96	20084.14
495.14	20114.56
495.32	20657.57
495.49	20278.40
495.67	20519.48
495.85	20996.95
496.02	20957.16
496.20	21167.80
496.38	20954.82
496.55	21247.38
496.73	21706.13
496.91	21687.40
497.09	21582.08
497.26	21546.97
497.44	21750.60
497.62	21678.04
497.79	21940.18
497.97	21858.26
498.14	22249.13
498.32	22532.34
498.50	22059.55
498.67	22813.20
498.85	22551.06
499.03	22586.17
499.20	22689.15
499.38	22993.42
499.56	23187.69
499.73	23058.96
499.91	22979.38
500.08	23587.92
500.26	23147.90
500.44	23349.18
500.61	23344.50
500.79	23421.74
500.97	23531.75
501.14	23814.95
501.32	23721.33
501.49	23557.49
501.67	24020.92
501.84	24114.54
502.02	24023.26
502.20	24025.60
502.37	24372.00
502.55	24294.76
502.72	24673.93
502.90	24236.25
503.07	24411.79
503.25	24599.03
503.43	24531.15
503.60	24940.75
503.78	25090.54
503.95	24765.21
504.13	25160.76
504.30	25088.20
504.48	25221.61
504.65	25369.07
504.83	25455.67
505.01	25532.90
505.18	25514.18
505.36	26085.27
505.53	25572.69
505.71	26043.14
505.88	25802.07
506.06	25914.41
506.23	25993.99
506.41	26078.25
506.58	25930.80
506.76	26366.13
506.93	26581.46
507.11	26286.56
507.28	26448.05
507.46	26387.20
507.63	26457.42
507.81	26792.11
507.98	26424.65
508.16	26859.99
508.33	27016.80
508.50	27098.72
508.68	27360.86
508.85	26902.12
509.03	27180.64
509.20	27096.38
509.38	27625.34
509.55	27697.90
509.73	27676.83
509.90	27754.07
510.08	27810.25
510.25	28006.85
510.42	27789.18
510.60	28458.57
510.77	28114.52
510.95	28437.51
511.12	27824.29
511.30	28252.61
511.47	28526.45
511.64	28280.69
511.82	28875.19
511.99	28318.14
512.17	29006.26
512.34	28533.47
512.51	29078.82
512.69	29324.57
512.86	28982.85
513.04	28947.75
513.21	29039.03
513.38	29113.92
513.56	29799.70
513.73	29198.18
513.90	29387.77
514.08	29214.57
514.25	29638.20
514.43	29757.57
514.60	29893.32
514.77	29790.34
514.95	29869.92
515.12	29677.99
515.29	29926.09
515.47	30101.63
515.64	30157.80
515.81	30188.23
515.99	30391.86
516.16	30541.65
516.33	30909.11
516.51	30998.06
516.68	30230.36
516.85	30632.93
517.03	30831.88
517.20	30579.10
517.37	30677.40
517.54	30813.15
517.72	31047.21
517.89	31557.44
518.06	31381.90
518.24	30991.03
518.41	31447.44
518.58	31253.17
518.75	31161.89
518.93	31768.09
519.10	31105.72
519.27	31557.44
519.45	31531.70
519.62	31922.57
519.79	31938.95
519.96	31740.00
520.14	32058.32
520.31	31861.71
520.48	32215.13
520.65	31910.86
520.83	32374.29
521.00	32367.27
521.17	32311.10
521.34	32198.75
521.52	32603.66
521.69	32708.99
521.86	32400.04
522.03	32856.44
522.20	33301.14
522.38	33202.84
522.55	33373.70
522.72	33177.09
522.89	33429.87
523.07	33085.81
523.24	33137.30
523.41	33226.24
523.58	33024.96
523.75	33638.18
523.92	33577.33
524.10	33596.05
524.27	33514.13
524.44	33329.23
524.61	33420.51
524.78	33457.96
524.96	33888.62
525.13	33944.79
525.30	34157.78
525.47	34050.11
525.64	34284.17
525.81	34195.23
525.98	34316.93
526.16	34115.65
526.33	34363.75
526.50	34677.38
526.67	34174.16
526.84	34375.45
527.01	34448.00
527.18	34782.70
527.36	34902.07
527.53	34827.17
527.70	35040.16
527.87	35201.66
528.04	34368.43
528.21	35072.93
528.38	35012.07
528.55	35037.82
528.72	35339.75
528.89	35218.04
529.07	35204.00
529.24	34958.24
529.41	35023.78
529.58	35234.42
529.75	34731.21
529.92	35435.71
530.09	35218.04
530.26	35299.96
530.43	35276.55
530.60	35442.73
530.77	35356.13
530.94	35880.41
531.11	35695.51
531.28	35800.83
531.46	35920.20
531.63	35693.17
531.80	35896.80
531.97	36439.80
532.14	35765.73
532.31	36144.89
532.48	36699.60
532.65	36367.24
532.82	36226.81
532.99	36591.94
533.16	36172.98
533.33	36470.23
533.50	36510.02
533.67	36540.44
533.84	36348.52
534.01	36711.30
534.18	36711.30
534.35	36914.93
534.52	37223.88
534.69	36884.50
534.86	37017.91
535.03	36807.26
535.20	37371.33
535.37	37378.36
535.54	37099.83
535.71	37024.93
535.88	37514.11
536.05	37188.77
536.22	37322.18
536.38	37282.39
536.55	37696.67
536.72	37603.05
536.89	37151.32
537.06	37603.05
537.23	37490.70
537.40	37420.48
537.57	37614.75
537.74	37638.15
537.91	37654.54
538.08	37563.26
538.25	38127.33
538.42	37778.59
538.59	37989.24
538.75	37930.72
538.92	38052.43
539.09	38206.90
539.26	38106.26
539.43	38127.33
539.60	38326.27
539.77	38646.93
539.94	38675.01
540.11	38064.13
540.28	38761.61
540.44	38518.20
540.61	38387.13
540.78	37769.22
540.95	38440.96
541.12	38382.45
541.29	38501.81
541.46	38806.08
541.62	38876.30
541.79	38988.64
541.96	38696.08
542.13	39047.16
542.30	38747.57
542.47	38632.88
542.63	39047.16
542.80	39187.59
542.97	39002.69
543.14	40002.10
543.31	39438.03
543.48	39105.67
543.64	39948.26
543.81	39564.42
543.98	39723.57
544.15	39959.97
544.32	40144.87
544.48	39695.49
544.65	39812.51
544.82	39641.65
544.99	39831.24
545.16	40154.23
545.32	39793.79
545.49	40271.26
545.66	40119.12
545.83	40006.78
546.00	40561.48
546.16	39873.37
546.33	40336.79
546.50	40076.99
546.67	40287.64
546.83	40032.52
547.00	40002.10
547.17	40048.91
547.34	40051.25
547.50	40528.72
547.67	40423.39
547.84	40659.79
548.00	40671.49
548.17	41083.42
548.34	40753.41
548.51	40601.27
548.67	41038.95
548.84	40762.77
549.01	40959.38
549.18	40779.15
549.34	41263.64
549.51	41713.03
549.68	40634.04
549.84	41146.62
550.01	41265.99
550.18	41235.56
550.34	40950.01
550.51	41036.61
550.68	41333.86
550.84	41137.26
551.01	41446.21
551.18	41013.21
551.34	40891.50
551.51	41865.16
551.68	41296.41
551.84	41567.91
552.01	41404.08
552.18	41298.75
552.34	41125.55
552.51	41205.13
552.68	41486.00
552.84	41584.30
553.01	41804.31
553.18	41532.81
553.34	41560.89
553.51	40907.88
553.67	41713.03
553.84	42148.37
554.01	41773.88
554.17	42206.88
554.34	42487.74
554.51	41902.61
554.67	41972.83
554.84	42375.40
555.00	42579.03
555.17	41792.61
555.33	42073.47
555.50	42019.64
555.67	42197.52
555.83	42080.49
556.00	42529.87
556.16	42923.08
556.33	42707.76
556.50	42658.60
556.66	42630.52
556.83	41951.76
556.99	42272.42
557.16	42525.19
557.32	42682.01
557.49	42892.66
557.65	42700.73
557.82	41944.74
557.98	42780.31
558.15	42450.30
558.32	42782.65
558.48	42623.50
558.65	42810.74
558.81	43012.02
558.98	42871.59
559.14	42667.97
559.31	42424.55
559.47	42693.71
559.64	42600.09
559.80	42518.17
559.97	43037.77
560.13	42836.48
560.30	43201.61
560.46	43704.82
560.63	43217.99
560.79	43138.41
560.96	42944.15
561.12	42857.55
561.29	43068.20
561.45	43313.95
561.61	43098.62
561.78	42745.20
561.94	43014.37
562.11	43524.60
562.27	43264.80
562.44	43124.37
562.60	43147.78
562.77	43489.49
562.93	43260.12
563.10	43622.90
563.26	43269.48
563.42	44172.93
563.59	43262.46
563.75	43147.78
563.92	43758.66
564.08	43751.63
564.24	43356.08
564.41	43154.80
564.57	43859.30
564.74	42930.11
564.90	43475.45
565.07	43412.26
565.23	43768.02
565.39	43620.56
565.56	43838.23
565.72	43325.66
565.88	43751.63
566.05	43529.28
566.21	43906.11
566.38	43583.12
566.54	43779.72
566.70	43824.19
566.87	43999.73
567.03	43634.61
567.19	44041.86
567.36	43466.09
567.52	43915.47
567.68	44186.97
567.85	43765.68
568.01	44076.97
568.17	43768.02
568.34	44184.63
568.50	43997.39
568.66	43920.15
568.83	43889.73
568.99	43742.27
569.15	43550.35
569.32	43777.38
569.48	43721.21
569.64	43941.22
569.81	44044.20
569.97	44002.07
570.13	44374.22
570.30	43480.13
570.46	43992.71
570.62	44069.95
570.78	44128.46
570.95	43885.04
571.11	44825.94
571.27	44348.47
571.43	44016.11
571.60	44203.36
571.76	43840.57
571.92	44020.80
572.09	44374.22
572.25	44339.11
572.41	44219.74
572.57	44285.28
572.74	44266.55
572.90	44463.16
573.06	44495.92
573.22	44423.37
573.38	44521.67
573.55	43990.37
573.71	44360.17
573.87	44467.84
574.03	44439.75
574.20	44818.92
574.36	44596.57
574.52	44460.82
574.68	44507.63
574.84	44418.69
575.01	44886.79
575.17	44570.82
575.33	44512.31
575.49	44601.25
575.65	44545.08
575.82	44404.64
575.98	44636.36
576.14	44858.71
576.30	44828.28
576.46	44816.58
576.62	44678.49
576.79	44765.09
576.95	44289.96
577.11	44304.00
577.27	44168.25
577.43	44524.01
577.59	44308.68
577.75	44479.54
577.92	44210.38
578.08	44336.77
578.24	44353.15
578.40	44811.90
578.56	44671.46
578.72	44446.77
578.88	44987.44
579.04	45062.33
579.21	44589.55
579.37	44753.38
579.53	44720.62
579.69	44823.60
579.85	44280.60
580.01	44411.67
580.17	44121.44
580.33	44818.92
580.49	44720.62
580.65	44931.26
580.82	44334.43
580.98	44542.74
581.14	44622.31
581.30	44924.24
581.46	44301.66
581.62	44713.59
581.78	44533.37
581.94	44619.97
582.10	44575.50
582.26	44470.18
582.42	44847.00
582.58	44357.83
582.74	44580.18
582.90	44786.15
583.06	44842.32
583.22	44414.01
583.38	44608.27
583.54	44601.25
583.70	44568.48
583.86	44772.11
584.02	44863.39
584.18	44797.85
584.34	44704.23
584.50	44931.26
584.66	45296.39
584.82	44910.20
584.98	44912.54
585.14	44935.95
585.30	44388.26
585.46	44830.62
585.62	44935.95
585.78	45219.15
585.94	44961.69
586.10	44942.97
586.26	44673.81
586.42	44713.59
586.58	45022.54
586.74	44734.66
586.90	44636.36
587.06	45188.72
587.22	45160.64
587.38	44610.61
587.54	45464.91
587.70	45230.85
587.86	44966.37
588.02	44643.38
588.18	44631.68
588.34	44928.92
588.49	45067.02
588.65	44931.26
588.81	44634.02
588.97	44617.63
589.13	45057.65
589.29	44926.58
589.45	45418.10
589.61	45160.64
589.77	45200.43
589.93	44868.07
590.08	45151.27
590.24	44989.78
590.40	45640.45
590.56	45345.54
590.72	45411.07
590.88	44912.54
591.04	45022.54
591.20	45600.66
591.35	45605.34
591.51	45535.12
591.67	45528.10
591.83	45698.96
591.99	45443.84
592.15	45448.52
592.31	44858.71
592.46	45453.20
592.62	45067.02
592.78	45539.80
592.94	45727.05
593.10	45815.99
593.26	45638.11
593.41	45305.75
593.57	45675.55
593.73	45275.32
593.89	45567.89
594.05	45944.72
594.20	46005.57
594.36	45645.13
594.52	45684.92
594.68	45137.23
594.84	45647.47
594.99	45462.57
595.15	45453.20
595.31	45577.25
595.47	45588.95
595.62	45406.39
595.78	45375.97
595.94	45624.06
596.10	45233.19
596.25	45748.11
596.41	46014.93
596.57	45773.86
596.73	45691.94
596.88	45696.62
597.04	45485.97
597.20	46277.07
597.36	45872.16
597.51	45876.84
597.67	45593.64
597.83	46080.47
597.99	45617.04
598.14	45305.75
598.30	45434.48
598.46	45336.18
598.61	45958.76
598.77	45869.82
598.93	45516.40
599.09	45778.54
599.24	45874.50
599.40	45603.00
599.56	45715.34
599.71	46078.13
599.87	46036.00
600.03	45764.49
600.18	45584.27
600.34	45808.96
600.50	45528.10
600.65	45727.05
600.81	45790.24
600.97	46040.68
601.12	45984.51
601.28	45727.05
601.44	45390.01
601.59	45642.79
601.75	45783.22
601.91	45977.48
602.06	45626.40
602.22	45757.47
602.37	45982.16
602.53	45717.68
602.69	45446.18
602.84	45755.13
603.00	45890.88
603.16	45787.90
603.31	45551.51
603.47	45813.65
603.62	45607.68
603.78	45745.77
603.94	45624.06
604.09	45638.11
604.25	45509.38
604.40	45815.99
604.56	45918.97
604.71	46155.36
604.87	45287.03
605.03	45478.95
605.18	45441.50
605.34	45586.61
605.49	45579.59
605.65	45497.67
605.80	45588.95
605.96	45411.07
606.12	45394.69
606.27	45661.51
606.43	45600.66
606.58	45799.60
606.74	45680.24
606.89	45455.54
607.05	45102.12
607.20	45626.40
607.36	45799.60
607.51	45961.10
607.67	45689.60
607.82	46103.87
607.98	45811.31
608.13	45773.86
608.29	45233.19
608.44	45375.97
608.60	45530.44
608.75	45390.01
608.91	45511.72
609.06	45333.84
609.22	45933.01
609.37	45207.45
609.53	45287.03
609.68	45460.23
609.84	45237.87
609.99	44947.65
610.15	45324.47
610.30	45471.93
610.46	45666.19
610.61	45397.03
610.76	45305.75
610.92	45036.59
611.07	44900.84
611.23	44924.24
611.38	45352.56
611.54	45418.10
611.69	45727.05
611.84	45820.67
612.00	45207.45
612.15	45298.73
612.31	45490.65
612.46	45006.16
612.62	45198.09
612.77	45031.91
612.92	45729.39
613.08	45132.55
613.23	45549.17
613.39	45380.65
613.54	44912.54
613.69	45041.27
613.85	45095.10
614.00	45223.83
614.15	45280.00
614.31	44996.80
614.46	44687.85
614.62	44767.43
614.77	44552.10
614.92	44877.43
615.08	45001.48
615.23	45202.77
615.38	45305.75
615.54	44964.03
615.69	44762.75
615.84	45099.78
616.00	45031.91
616.15	44994.46
616.30	45228.51
616.46	44509.97
616.61	45008.50
616.76	45265.96
616.92	44926.58
617.07	44664.44
617.22	44465.50
617.37	44409.32
617.53	44676.15
617.68	44814.24
617.83	44739.34
617.99	45022.54
618.14	45130.21
618.29	44582.52
618.45	44664.44
618.60	44467.84
618.75	44402.30
618.90	44570.82
619.06	44659.76
619.21	44528.69
619.36	44659.76
619.51	44350.81
619.67	44278.25
619.82	44725.30
619.97	44474.86
620.12	44186.97
620.28	44566.14
620.43	44308.68
620.58	44467.84
620.73	44612.95
620.89	44151.87
621.04	45057.65
621.19	44273.57
621.34	44313.36
621.49	44449.11
621.65	44254.85
621.80	44449.11
621.95	44402.30
622.10	44535.71
622.25	44341.45
622.41	44006.75
622.56	43901.43
622.71	44334.43
622.86	43784.40
623.01	44428.05
623.16	44100.37
623.32	44266.55
623.47	43798.44
623.62	44030.16
623.77	44086.33
623.92	43840.57
624.07	43646.31
624.23	43882.70
624.38	44622.31
624.53	43737.59
624.68	43714.19
624.83	43665.03
624.98	43749.29
625.13	42789.67
625.29	43234.38
625.44	43468.43
625.59	44034.84
625.74	43456.73
625.89	43395.87
626.04	43161.82
626.19	43370.13
626.34	43646.31
626.49	43281.19
626.65	43166.50
626.80	43306.93
626.95	43054.15
627.10	43201.61
627.25	43452.05
627.40	43426.30
627.55	43468.43
627.70	43199.27
627.85	43665.03
628.00	43250.76
628.15	43232.04
628.30	42773.29
628.45	42686.69
628.60	42595.41
628.76	42904.36
628.91	42988.62
629.06	42852.87
629.21	43000.32
629.36	42703.07
629.51	43269.48
629.66	43103.31
629.81	42932.45
629.96	42899.68
630.11	43068.20
630.26	42792.01
630.41	42958.19
630.56	42777.97
630.71	42906.70
630.86	42880.95
631.01	42541.58
631.16	42487.74
631.31	42621.16
631.46	42572.00
631.61	42710.10
631.76	42885.64
631.91	42546.26
632.06	42756.91
632.21	42728.82
632.36	42869.25
632.51	42445.62
632.66	42553.28
632.81	42129.64
632.96	42349.65
633.10	42096.88
633.25	41996.23
633.40	42630.52
633.55	42792.01
633.70	42447.96
633.85	42101.56
634.00	42293.48
634.15	42068.79
634.30	42246.67
634.45	42082.83
634.60	42206.88
634.75	42171.77
634.90	42110.92
635.05	42197.52
635.19	41942.40
635.34	42333.27
635.49	41691.96
635.64	42082.83
635.79	42223.26
635.94	41808.99
636.09	42199.86
636.24	42108.58
636.39	41764.52
636.53	42050.06
636.68	41647.49
636.83	41851.12
636.98	41736.43
637.13	41532.81
637.28	41727.07
637.43	41464.93
637.57	41668.56
637.72	41209.81
637.87	41404.08
638.02	41605.36
638.17	41706.01
638.32	41207.47
638.46	41385.35
638.61	41305.77
638.76	41521.10
638.91	41673.24
639.06	41090.44
639.20	40898.52
639.35	41062.36
639.50	41486.00
639.65	41301.09
639.80	41219.17
639.94	41383.01
640.09	41698.98
640.24	41408.76
640.39	40697.24
640.54	40931.29
640.68	40854.05
640.83	41247.26
640.98	41017.89
641.13	40837.67
641.27	41549.19
641.42	40844.69
641.57	40980.44
641.72	40790.86
641.86	40882.14
642.01	40456.16
642.16	41273.01
642.31	40512.33
642.45	40856.39
642.60	40676.17
642.75	40961.72
642.90	41045.97
643.04	40884.48
643.19	40556.80
643.34	40460.84
643.48	40301.68
643.63	40432.75
643.78	40627.02
643.93	40701.92
644.07	40739.36
644.22	40912.56
644.37	40762.77
644.51	40472.54
644.66	40776.81
644.81	40282.96
644.95	40933.63
645.10	40208.06
645.25	39711.87
645.39	40069.97
645.54	40418.71
645.69	40147.21
645.83	40224.45
645.98	40355.52
646.13	39789.11
646.27	40343.81
646.42	39889.75
646.57	40084.01
646.71	40390.62
646.86	40194.02
647.00	40245.51
647.15	40205.72
647.30	40163.59
647.44	40065.29
647.59	40034.86
647.74	40149.55
647.88	40126.14
648.03	39952.94
648.17	40421.05
648.32	40095.72
648.47	40016.14
648.61	39601.86
648.76	39819.53
648.90	39721.23
649.05	40027.84
649.20	39681.44
649.34	40046.57
649.49	39878.05
649.63	39901.45
649.78	39749.32
649.92	39798.47
650.07	40346.15
650.21	39929.54
650.36	39957.63
650.51	39732.93
650.65	39831.24
650.80	39702.51
650.94	39768.04
651.09	39351.43
651.23	39110.35
651.38	39260.15
651.52	39166.52
651.67	39234.40
651.81	39409.94
651.96	39459.09
652.10	39089.29
652.25	39512.92
652.39	39108.01
652.54	39351.43
652.68	39271.85
652.83	39152.48
652.97	39466.11
653.12	39508.24
653.26	39257.81
653.41	38925.45
653.55	39061.20
653.70	39199.29
653.84	39037.80
653.99	39227.38
654.13	38684.37
654.27	39096.31
654.42	39239.08
654.56	38794.38
654.71	38808.42
654.85	38930.13
655.00	39037.80
655.14	38742.89
655.29	38902.04
655.43	39178.23
655.57	38525.22
655.72	38499.47
655.86	38733.53
656.01	38726.50
656.15	38796.72
656.30	38714.80
656.44	38845.87
656.58	38576.71
656.73	38586.07
656.87	37954.13
657.01	37989.24
657.16	38635.22
657.30	38373.08
657.45	38492.45
657.59	38314.57
657.73	37993.92
657.88	38314.57
658.02	38438.62
658.16	38490.11
658.31	38494.79
658.45	38120.31
658.60	38239.67
658.74	38155.41
658.88	38195.20
659.03	38106.26
659.17	38045.41
659.31	37968.17
659.46	37972.85
659.60	37947.11
659.74	37619.43
659.89	37654.54
660.03	37214.52
660.17	37951.79
660.32	37958.81
660.46	37031.96
660.60	37156.00
660.74	37635.81
660.89	37699.01
661.03	37303.46
661.17	37151.32
661.32	37043.66
661.46	37184.09
661.60	37170.05
661.74	37081.11
661.89	37284.73
662.03	37076.43
662.17	36397.67
662.31	37205.16
662.46	36854.08
662.60	36891.52
662.74	36748.75
662.88	36297.03
663.03	36252.56
663.17	36755.77
663.31	36460.87
663.45	36730.03
663.60	36870.46
663.74	36477.25
663.88	36617.68
664.02	36364.90
664.17	36919.61
664.31	36079.36
664.45	36252.56
664.59	36074.68
664.73	36648.11
664.88	36180.00
665.02	36018.50
665.16	36081.70
665.30	36081.70
665.44	35995.10
665.59	35871.05
665.73	35711.89
665.87	35463.80
666.01	35882.75
666.15	35484.86
666.29	35194.64
666.44	35814.88
666.58	35566.78
666.72	35323.36
666.86	35503.59
667.00	35688.49
667.14	35201.66
667.28	35133.78
667.43	35328.05
667.57	35215.70
667.71	34988.67
667.85	35445.07
667.99	34991.01
668.13	35072.93
668.27	34937.18
668.41	34597.80
668.56	34602.48
668.70	34394.17
668.84	34345.02
668.98	34384.81
669.12	34686.74
669.26	34609.50
669.40	34740.57
669.54	34450.35
669.68	34607.16
669.82	34117.99
669.96	33872.23
670.10	33600.73
670.25	33979.90
670.39	34167.14
670.53	34134.37
670.67	34047.77
670.81	33912.02
670.95	34103.95
671.09	34061.82
671.23	33514.13
671.37	33659.24
671.51	33584.35
671.65	33127.94
671.79	33638.18
671.93	33610.09
672.07	33593.71
672.21	33095.18
672.35	32804.95
672.49	33347.95
672.63	32718.35
672.77	32804.95
672.91	32788.56
673.05	32818.99
673.19	32203.43
673.33	32959.42
673.47	32374.29
673.61	32259.60
673.75	31810.22
673.89	32388.33
674.03	32121.51
674.17	32051.30
674.31	32046.62
674.45	31747.03
674.59	31665.11
674.73	32154.28
674.87	31405.31
675.01	31634.68
675.15	31592.55
675.29	31033.16
675.43	31559.78
675.56	31770.43
675.70	31519.99
675.84	31318.71
675.98	30256.11
676.12	31143.17
676.26	31632.34
676.40	30740.60
676.54	30719.53
676.68	30288.87
676.82	30078.22
676.96	30642.29
677.10	30684.42
677.23	30377.81
677.37	30520.59
677.51	30345.05
677.65	30307.60
677.79	30223.34
677.93	29780.98
678.07	30052.48
678.21	29518.84
678.34	29713.10
678.48	29376.06
678.62	29589.05
678.76	29055.41
678.90	29055.41
679.04	29743.53
679.18	29216.91
679.31	29202.86
679.45	28966.47
679.59	28528.79
679.73	28676.24
679.87	28112.17
680.00	29067.11
680.14	28229.20
680.28	28421.13
680.42	28346.23
680.56	28013.87
680.70	28046.64
680.83	27735.35
680.97	27938.97
681.11	27814.93
681.25	27709.60
681.39	27744.71
681.52	27634.71
681.66	27431.08
681.80	26916.16
681.94	26782.75
682.07	26508.91
682.21	26913.82
682.35	26808.50
682.49	26995.74
682.62	26857.65
682.76	26888.07
682.90	26689.13
683.04	26771.05
683.17	26469.12
683.31	26405.92
683.45	25788.02
683.59	25708.44
683.72	25841.85
683.86	25956.54
684.00	25951.86
684.13	25558.65
684.27	25766.96
684.41	25682.70
684.55	25741.21
684.68	25333.96
684.82	25109.27
684.96	25355.02
685.09	25050.75
685.23	25383.11
685.37	25340.98
685.50	25380.77
685.64	25158.42
685.78	24744.14
685.91	24652.86
686.05	24613.07
686.19	23931.98
686.32	24379.02
686.46	24030.28
686.60	23896.87
686.73	24126.24
686.87	23941.34
687.01	24301.78
687.14	24002.19
687.28	23541.11
687.42	23854.74
687.55	23587.92
687.69	23901.55
687.82	23183.01
687.96	23180.67
688.10	23470.89
688.23	23211.09
688.37	23370.25
688.50	23407.70
688.64	22958.31
688.78	22895.12
688.91	22637.66
689.05	22977.04
689.18	22340.41
689.32	22199.98
689.46	22181.26
689.59	22602.55
689.73	22244.45
689.86	22291.26
690.00	22129.77
690.13	21867.63
690.27	21851.24
690.41	22108.70
690.54	21823.16
690.68	21635.91
690.81	21511.86
690.95	21329.30
691.08	21408.88
691.22	20978.22
691.35	21130.36
691.49	21200.57
691.62	21111.63
691.76	20945.45
691.89	20739.49
692.03	20460.96
692.16	20428.20
692.30	20460.96
692.43	20545.22
692.57	20273.72
692.70	20271.38
692.84	20233.93
692.97	19777.53
693.11	20116.90
693.24	19747.10
693.38	19536.45
693.51	19424.11
693.65	19515.39
693.78	19241.54
693.92	19480.28
694.05	19503.68
694.19	19108.13
694.32	19234.52
694.45	19487.30
694.59	19391.34
694.72	19384.32
694.86	18953.66
694.99	18951.32
695.13	18593.22
695.26	18553.43
695.39	18359.16
695.53	18455.12
695.66	18595.56
695.80	18164.90
695.93	18352.14
696.07	18335.76
696.20	18106.38
696.33	17561.04
696.47	17877.01
696.60	17589.13
696.73	17855.95
696.87	17919.14
697.00	17987.02
697.14	17455.72
697.27	17472.10
697.40	17549.34
697.54	17146.76
697.67	17109.32
697.80	17092.93
697.94	17369.12
698.07	17078.89
698.21	16943.14
698.34	16882.28
698.47	16709.08
698.61	16027.99
698.74	16278.43
698.87	16695.04
699.01	16542.91
699.14	16219.91
699.27	16203.53
699.40	16245.66
699.54	16224.59
699.67	16027.99
699.80	16130.97
699.94	15936.71
700.07	15826.70
700.20	15925.00
700.34	15953.09
700.47	15786.91
700.60	15559.88
700.73	15632.44
700.87	15712.02
701.00	15295.40
701.13	15019.22
701.26	15260.29
701.40	14979.43
701.53	14831.97
701.66	15255.61
701.79	14895.17
701.93	14698.56
702.06	14710.27
702.19	14532.39
702.32	14630.69
702.46	14422.38
702.59	14677.50
702.72	14572.18
702.85	14263.22
702.99	14237.48
703.12	14253.86
703.25	14286.63
703.38	13989.38
703.51	14052.58
703.65	13898.10
703.78	13657.03
703.91	13441.70
704.04	13476.80
704.17	13752.99
704.31	13467.44
704.44	13572.77
704.57	13495.53
704.70	13411.27
704.83	13191.26
704.96	13226.37
705.10	12931.46
705.23	13088.28
>>>>>End Processed Spectral Data<<<<<
