SpectraSuite Data File
++++++++++++++++++++++++++++++++++++
Date: Fri Oct 25 10:47:44 EDT 2013
User: price-jones
Dark Spectrum Present: No
Reference Spectrum Present: No
Number of Sampled Component Spectra: 1
Spectrometers: USB2+H05261
Integration Time (usec): 100000 (USB2+H05261)
Spectra Averaged: 1 (USB2+H05261)
Boxcar Smoothing: 0 (USB2+H05261)
Correct for Electrical Dark: No (USB2+H05261)
Strobe/Lamp Enabled: No (USB2+H05261)
Correct for Detector Non-linearity: No (USB2+H05261)
Correct for Stray Light: No (USB2+H05261)
Number of Pixels in Processed Spectrum: 2048
>>>>>Begin Processed Spectral Data<<<<<
365.73	117.03
365.92	117.03
366.12	117.03
366.32	88.94
366.52	28.09
366.72	105.32
366.91	0.00
367.11	65.54
367.31	0.00
367.51	16.38
367.70	0.00
367.90	0.00
368.10	121.71
368.30	44.47
368.49	46.81
368.69	95.96
368.89	58.51
369.09	0.00
369.28	77.24
369.48	100.64
369.68	11.70
369.87	86.60
370.07	86.60
370.27	77.24
370.47	189.58
370.66	360.44
370.86	365.12
371.06	433.00
371.25	451.72
371.45	397.89
371.65	444.70
371.84	437.68
372.04	477.47
372.24	470.45
372.44	461.09
372.63	470.45
372.83	447.04
373.03	538.32
373.22	461.09
373.42	435.34
373.62	463.43
373.81	505.56
374.01	552.37
374.21	545.34
374.40	519.60
374.60	500.87
374.79	582.79
374.99	662.37
375.19	592.16
375.38	531.30
375.58	603.86
375.78	554.71
375.97	589.82
376.17	667.05
376.37	592.16
376.56	615.56
376.76	582.79
376.95	615.56
377.15	564.07
377.35	667.05
377.54	620.24
377.74	510.24
377.93	582.79
378.13	580.45
378.33	582.79
378.52	664.71
378.72	667.05
378.91	575.77
379.11	592.16
379.31	599.18
379.50	664.71
379.70	770.04
379.89	613.22
380.09	629.60
380.28	641.31
380.48	643.65
380.68	601.52
380.87	678.76
381.07	688.12
381.26	573.43
381.46	582.79
381.65	638.97
381.85	648.33
382.04	692.80
382.24	774.72
382.43	734.93
382.63	716.20
382.83	688.12
383.02	631.94
383.22	819.19
383.41	695.14
383.61	683.44
383.80	739.61
384.00	732.59
384.19	706.84
384.39	704.50
384.58	720.88
384.78	821.53
384.97	765.36
385.17	798.12
385.36	786.42
385.56	784.08
385.75	772.38
385.95	751.31
386.14	828.55
386.34	739.61
386.53	828.55
386.72	791.10
386.92	901.11
387.11	784.08
387.31	910.47
387.50	784.08
387.70	809.83
387.89	814.51
388.09	793.44
388.28	849.61
388.48	784.08
388.67	851.96
388.86	833.23
389.06	854.30
389.25	863.66
389.45	976.00
389.64	917.49
389.84	908.13
390.03	947.92
390.22	898.77
390.42	858.98
390.61	823.87
390.81	957.28
391.00	950.26
391.19	940.90
391.39	983.02
391.58	919.83
391.78	882.38
391.97	957.28
392.16	936.21
392.36	983.02
392.55	931.53
392.75	1015.79
392.94	957.28
393.13	931.53
393.33	971.32
393.52	1135.16
393.71	959.62
393.91	997.07
394.10	1022.81
394.29	1076.65
394.49	1076.65
394.68	1001.75
394.88	1086.01
395.07	1090.69
395.26	1128.14
395.46	1071.97
395.65	1137.50
395.84	1158.57
396.04	1118.78
396.23	1128.14
396.42	1067.28
396.62	1102.39
396.81	1125.80
397.00	1280.27
397.19	1186.65
397.39	1245.16
397.58	1296.66
397.77	1156.22
397.97	1256.87
398.16	1163.25
398.35	1275.59
398.55	1238.14
398.74	1240.48
398.93	1331.76
399.12	1308.36
399.32	1376.24
399.51	1320.06
399.70	1329.42
399.90	1256.87
400.09	1390.28
400.28	1444.11
400.47	1338.79
400.67	1502.62
400.86	1462.83
401.05	1425.39
401.24	1528.37
401.44	1528.37
401.63	1481.56
401.82	1497.94
402.01	1598.59
402.21	1511.99
402.40	1584.54
402.59	1586.88
402.78	1483.90
402.97	1507.30
403.17	1577.52
403.36	1582.20
403.55	1561.14
403.74	1633.69
403.93	1624.33
404.13	1664.12
404.32	1652.42
404.51	1607.95
404.70	1589.22
404.89	1652.42
405.09	1755.40
405.28	1811.57
405.47	1720.29
405.66	1727.32
405.85	1771.79
406.05	1834.98
406.24	1769.44
406.43	1757.74
406.62	1764.76
406.81	1856.04
407.00	1708.59
407.20	1764.76
407.39	1888.81
407.58	1827.96
407.77	1895.83
407.96	1928.60
408.15	1982.43
408.34	1914.56
408.54	2064.35
408.73	1961.37
408.92	2054.99
409.11	2078.40
409.30	2001.16
409.49	1994.14
409.68	2029.24
409.87	1968.39
410.07	2050.31
410.26	2092.44
410.45	2153.29
410.64	2242.23
410.83	2120.53
411.02	2272.66
411.21	2303.09
411.40	2260.96
411.59	2282.02
411.78	2225.85
411.98	2293.72
412.17	2237.55
412.36	2328.83
412.55	2289.04
412.74	2321.81
412.93	2342.88
413.12	2410.75
413.31	2373.30
413.50	2317.13
413.69	2644.81
413.88	2661.19
414.07	2537.14
414.26	2633.10
414.45	2499.69
414.64	2548.84
414.83	2747.79
415.02	2719.70
415.22	2656.51
415.41	2715.02
415.60	2668.21
415.79	2754.81
415.98	2888.22
416.17	2787.58
416.36	2780.56
416.55	2855.45
416.74	2743.11
416.93	2913.97
417.12	2902.26
417.31	3009.93
417.50	2986.52
417.69	2967.80
417.88	3028.65
418.07	3045.04
418.26	3122.27
418.45	3115.25
418.64	3293.13
418.83	3162.06
419.02	3075.46
419.21	3112.91
419.39	3117.59
419.58	3138.66
419.77	3103.55
419.96	3309.52
420.15	3314.20
420.34	3311.86
420.53	3276.75
420.72	3304.84
420.91	3382.07
421.10	3407.82
421.29	3529.53
421.48	3449.95
421.67	3396.12
421.86	3405.48
422.05	3435.91
422.24	3222.92
422.43	3445.27
422.61	3330.58
422.80	3396.12
422.99	3363.35
423.18	3496.76
423.37	3489.74
423.56	3361.01
423.75	3449.95
423.94	3375.05
424.13	3297.81
424.32	3459.31
424.50	3480.38
424.69	3475.70
424.88	3597.40
425.07	3431.23
425.26	3520.17
425.45	3485.06
425.64	3529.53
425.83	3468.67
426.01	3712.09
426.20	3524.85
426.39	3536.55
426.58	3433.57
426.77	3597.40
426.96	3712.09
427.15	3744.86
427.33	3651.24
427.52	3667.62
427.71	3637.19
427.90	3794.01
428.09	3782.31
428.28	3709.75
428.46	3639.53
428.65	3836.14
428.84	3763.58
429.03	3922.74
429.22	3819.75
429.40	3805.71
429.59	3822.09
429.78	3592.72
429.97	3618.47
430.16	3700.39
430.34	3805.71
430.53	3716.77
430.72	3786.99
430.91	3749.54
431.10	3894.65
431.28	4084.23
431.47	4088.92
431.66	4161.47
431.85	3922.74
432.03	4128.70
432.22	4168.49
432.41	4215.30
432.60	4196.58
432.79	4311.27
432.97	4196.58
433.16	4334.67
433.35	4187.22
433.54	4107.64
433.72	4273.82
433.91	4131.05
434.10	4273.82
434.28	4311.27
434.47	4428.29
434.66	4266.80
434.85	4299.56
435.03	4475.10
435.22	4423.61
435.41	4660.01
435.59	4526.60
435.78	4566.39
435.97	4601.49
436.16	4643.62
436.34	4540.64
436.53	4706.82
436.72	4624.90
436.90	4608.51
437.09	4692.77
437.28	4561.70
437.46	4779.37
437.65	4688.09
437.84	4582.77
438.02	4636.60
438.21	4641.28
438.40	4685.75
438.58	5060.24
438.77	4943.21
438.96	4762.99
439.14	4990.02
439.33	4950.23
439.52	4922.15
439.70	5036.83
439.89	5008.75
440.08	5139.82
440.26	5064.92
440.45	5032.15
440.63	5181.95
440.82	5334.08
441.01	5378.55
441.19	5408.98
441.38	5411.32
441.57	5275.57
441.75	5479.19
441.94	5495.58
442.12	5621.97
442.31	5605.58
442.50	5614.95
442.68	5584.52
442.87	5603.24
443.05	5577.50
443.24	5675.80
443.43	5795.17
443.61	5727.29
443.80	5834.96
443.98	5650.05
444.17	5661.76
444.35	5888.79
444.54	5874.74
444.73	5834.96
444.91	5795.17
445.10	5781.12
445.28	5741.33
445.47	5689.84
445.65	5633.67
445.84	5837.30
446.02	5919.21
446.21	5825.59
446.39	5933.26
446.58	6001.13
446.77	5839.64
446.95	5846.66
447.14	5919.21
447.32	6015.18
447.51	5846.66
447.69	5767.08
447.88	5893.47
448.06	6024.54
448.25	5905.17
448.43	6015.18
448.62	6071.35
448.80	6001.13
448.99	5994.11
449.17	6190.72
449.36	5961.34
449.54	6104.12
449.73	6190.72
449.91	6312.42
450.10	6282.00
450.28	6298.38
450.46	6370.94
450.65	6305.40
450.83	6438.81
451.02	6359.24
451.20	6497.33
451.39	6396.68
451.57	6431.79
451.76	6356.90
451.94	6560.52
452.13	6487.96
452.31	6457.54
452.49	6326.47
452.68	6569.88
452.86	6576.91
453.05	6640.10
453.23	6597.97
453.42	6483.28
453.60	6558.18
453.78	6450.52
453.97	6530.09
454.15	6801.60
454.34	6513.71
454.52	6780.53
454.70	6731.38
454.89	6736.06
455.07	6719.68
455.26	6752.45
455.44	6984.16
455.62	6916.28
455.81	6778.19
455.99	6977.14
456.17	6963.09
456.36	6855.43
456.54	6871.81
456.73	7119.91
456.91	7157.36
457.09	7192.47
457.28	7302.47
457.46	7220.55
457.64	7407.80
457.83	7265.02
458.01	7103.53
458.19	7332.90
458.38	7258.00
458.56	7379.71
458.74	7447.58
458.93	7468.65
459.11	7403.11
459.29	7314.17
459.48	7566.95
459.66	7522.48
459.84	7536.52
460.03	7679.30
460.21	7576.31
460.39	7604.40
460.57	7681.64
460.76	7644.19
460.94	7625.47
461.12	7749.51
461.31	7700.36
461.49	7714.41
461.67	7564.61
461.85	7779.94
462.04	7749.51
462.22	8149.75
462.40	8102.93
462.59	7922.71
462.77	7939.10
462.95	7896.97
463.13	8168.47
463.32	8030.38
463.50	7913.35
463.68	8058.46
463.86	8051.44
464.05	7899.31
464.23	7903.99
464.41	8112.30
464.59	8077.19
464.78	8236.35
464.96	8198.90
465.14	8028.04
465.32	8339.33
465.50	8273.79
465.69	8388.48
465.87	8379.12
466.05	8191.88
466.23	8252.73
466.41	8336.99
466.60	8526.57
466.78	8454.02
466.96	8573.38
467.14	8341.67
467.32	8444.65
467.51	8631.90
467.69	8332.31
467.87	8430.61
468.05	8482.10
468.23	8493.80
468.41	8435.29
468.60	8662.32
468.78	8758.28
468.96	8554.66
469.14	8688.07
469.32	8774.67
469.50	8608.49
469.69	8652.96
469.87	8905.74
470.05	8887.01
470.23	8784.03
470.41	8814.46
470.59	8854.25
470.77	8929.14
470.95	8896.38
471.14	9247.46
471.32	8872.97
471.50	9219.37
471.68	9184.26
471.86	9240.44
472.04	9121.07
472.22	9635.99
472.40	9174.90
472.58	9329.38
472.77	9413.63
472.95	9603.22
473.13	9657.05
473.31	9472.15
473.49	9530.66
473.67	9458.10
473.85	9720.24
474.03	9570.45
474.21	9907.49
474.39	10083.03
474.57	10139.20
474.75	9966.00
474.93	10190.69
475.12	10050.26
475.30	10125.16
475.48	9989.41
475.66	10286.65
475.84	10230.48
476.02	10441.13
476.20	10249.21
476.38	10417.72
476.56	10789.87
476.74	10750.08
476.92	10775.83
477.10	10684.55
477.28	10850.72
477.46	10691.57
477.64	10869.45
477.82	11117.54
478.00	11255.64
478.18	11501.39
478.36	11171.38
478.54	11527.14
478.72	11510.75
478.90	11562.25
479.08	11527.14
479.26	12013.97
479.44	11805.66
479.62	11859.49
479.80	12049.08
479.98	12163.76
480.16	12388.46
480.34	12259.73
480.52	12374.41
480.70	12320.58
480.88	12386.12
481.06	12435.27
481.24	12592.08
481.41	12966.57
481.59	12851.88
481.77	13029.76
481.95	12959.55
482.13	13294.24
482.31	12943.16
482.49	13425.31
482.67	13509.57
482.85	13509.57
483.03	13764.69
483.21	13497.87
483.39	14031.51
483.57	14129.81
483.74	13958.96
483.92	14113.43
484.10	13928.53
484.28	14663.46
484.46	14871.76
484.64	14719.63
484.82	14511.32
485.00	14853.04
485.18	14993.47
485.35	15215.82
485.53	14941.98
485.71	14871.76
485.89	15234.55
486.07	15234.55
486.25	15176.03
486.43	15405.41
486.61	15529.45
486.78	15953.09
486.96	15864.15
487.14	16130.97
487.32	16252.68
487.50	16238.64
487.68	16552.27
487.85	16720.79
488.03	16933.78
488.21	17099.95
488.39	16912.71
488.57	17092.93
488.75	16924.41
488.92	17326.99
489.10	17628.92
489.28	17902.76
489.46	17572.74
489.64	17898.08
489.81	18302.99
489.99	18263.20
490.17	18298.31
490.35	18614.28
490.53	18501.93
490.70	18806.20
490.88	18647.05
491.06	18843.65
491.24	19033.24
491.41	18700.88
491.59	19023.87
491.77	19037.92
491.95	19513.05
492.13	19716.67
492.30	19524.75
492.48	19527.09
492.66	19791.57
492.84	19917.96
493.01	20250.32
493.19	20269.04
493.37	20610.76
493.54	20786.30
493.72	20783.96
493.90	20418.83
494.08	20795.66
494.25	21118.65
494.43	21343.35
494.61	21532.93
494.79	21266.11
494.96	21544.63
495.14	21429.94
495.32	21926.14
495.49	21909.75
495.67	21790.39
495.85	22111.04
496.02	22024.44
496.20	22398.93
496.38	22338.07
496.55	22408.29
496.73	22820.22
496.91	22789.80
497.09	22675.11
497.26	22820.22
497.44	22824.90
497.62	23068.32
497.79	23276.63
497.97	23328.12
498.14	23178.33
498.32	23417.06
498.50	23716.65
498.67	23901.55
498.85	23868.78
499.03	24039.64
499.20	23709.63
499.38	24166.03
499.56	24142.63
499.73	24381.36
499.91	24287.74
500.08	24554.56
500.26	24091.13
500.44	24318.17
500.61	24617.75
500.79	24503.07
500.97	24950.11
501.14	25158.42
501.32	24987.56
501.49	25230.98
501.67	25355.02
501.84	25502.48
502.02	25256.72
502.20	25582.06
502.37	25291.83
502.55	25757.60
502.72	25891.01
502.90	25530.56
503.07	25319.92
503.25	26003.35
503.43	26108.68
503.60	26225.70
503.78	26068.89
503.95	25993.99
504.13	26366.13
504.30	26368.48
504.48	26087.61
504.65	26817.86
504.83	26560.40
505.01	27253.20
505.18	26972.33
505.36	27180.64
505.53	26923.18
505.71	27536.40
505.88	27405.33
506.06	27033.19
506.23	27157.24
506.41	26937.23
506.58	27096.38
506.76	27641.73
506.93	27931.95
507.11	27915.57
507.28	27721.30
507.46	27953.02
507.63	28009.19
507.81	28184.73
507.98	27819.61
508.16	27875.78
508.33	28126.22
508.50	27835.99
508.68	28240.90
508.85	28774.55
509.03	28589.64
509.20	28786.25
509.38	28957.11
509.55	28748.80
509.73	29088.18
509.90	28917.32
510.08	28847.10
510.25	29104.56
510.42	29252.02
510.60	29696.72
510.77	29394.79
510.95	29722.46
511.12	29390.11
511.30	29855.87
511.47	29862.90
511.64	29944.81
511.82	30118.01
511.99	29865.24
512.17	30047.80
512.34	30022.05
512.51	30176.53
512.69	30286.53
512.86	30089.93
513.04	30366.11
513.21	30595.48
513.38	30558.03
513.56	30469.09
513.73	30565.06
513.90	30536.97
514.08	30850.60
514.25	30960.61
514.43	30771.02
514.60	30817.83
514.77	30955.93
514.95	31129.12
515.12	30932.52
515.29	31346.79
515.47	31321.05
515.64	31519.99
515.81	31594.89
515.99	31498.93
516.16	31637.02
516.33	31751.71
516.51	31772.77
516.68	31398.29
516.85	31491.91
517.03	31772.77
517.20	31910.86
517.37	31819.58
517.54	32086.40
517.72	32404.72
517.89	32105.13
518.06	32304.07
518.24	32093.43
518.41	32425.78
518.58	31842.99
518.75	32048.96
518.93	32395.35
519.10	32568.55
519.27	32854.10
519.45	33125.60
519.62	32772.18
519.79	33083.47
519.96	33013.26
520.14	33392.42
520.31	33294.12
520.48	33090.49
520.65	33502.43
520.83	33546.90
521.00	33699.03
521.17	33425.19
521.34	34312.25
521.52	33858.19
521.69	33811.38
521.86	34101.61
522.03	34040.75
522.20	34103.95
522.38	34185.86
522.55	34188.21
522.72	34012.66
522.89	33977.56
523.07	34637.59
523.24	34195.23
523.41	34506.52
523.58	34251.40
523.75	34693.76
523.92	34763.98
524.10	34852.92
524.27	34895.05
524.44	34698.44
524.61	35065.91
524.78	35316.34
524.96	35283.58
525.13	35136.12
525.30	35512.95
525.47	35562.10
525.64	35260.17
525.81	35604.23
525.98	35182.93
526.16	35014.41
526.33	35096.33
526.50	35622.95
526.67	35129.10
526.84	35407.62
527.01	35611.25
527.18	35580.82
527.36	35552.74
527.53	36247.88
527.70	36453.84
527.87	35964.67
528.04	36240.86
528.21	36168.30
528.38	35943.61
528.55	36477.25
528.72	36126.17
528.89	36704.28
529.07	36713.64
529.24	35859.35
529.41	36568.53
529.58	36451.50
529.75	36486.61
529.92	36624.70
530.09	36989.83
530.26	36416.40
530.43	37263.67
530.60	36613.00
530.77	36802.58
530.94	37399.42
531.11	37113.87
531.28	36938.33
531.46	37179.41
531.63	36760.45
531.80	36870.46
531.97	37221.54
532.14	37191.11
532.31	37202.82
532.48	37425.17
532.65	37633.47
532.82	37179.41
532.99	37385.38
533.16	37338.57
533.33	37682.62
533.50	37528.15
533.67	37413.46
533.84	37467.30
534.01	37668.58
534.18	37450.91
534.35	37916.68
534.52	37984.55
534.69	38061.79
534.86	38185.84
535.03	38036.05
535.20	38742.89
535.37	38380.10
535.54	38251.38
535.71	38452.66
535.88	38124.99
536.05	38216.27
536.22	38363.72
536.38	38487.77
536.55	38560.33
536.72	38501.81
536.89	38396.49
537.06	38698.42
537.23	39110.35
537.40	38532.24
537.57	38576.71
537.74	39414.62
537.91	39365.47
538.08	38665.65
538.25	38593.09
538.42	38543.94
538.59	39005.03
538.75	39372.49
538.92	39047.16
539.09	39386.54
539.26	39714.21
539.43	39100.99
539.60	39269.51
539.77	39262.49
539.94	39353.77
540.11	39182.91
540.28	39311.64
540.44	39519.95
540.61	39281.21
540.78	39115.03
540.95	39442.71
541.12	39353.77
541.29	39435.69
541.46	39426.32
541.62	39285.89
541.79	39938.90
541.96	39306.96
542.13	39503.56
542.30	39484.84
542.47	40076.99
542.63	39543.35
542.80	40135.51
542.97	40500.63
543.14	40201.04
543.31	40416.37
543.48	40495.95
543.64	40863.41
543.81	40531.06
543.98	40201.04
544.15	40350.84
544.32	40903.20
544.48	41280.03
544.65	40865.75
544.82	40657.45
544.99	40608.29
545.16	40605.95
545.32	40517.01
545.49	40971.08
545.66	41333.86
545.83	41090.44
546.00	40657.45
546.16	41097.47
546.33	41317.48
546.50	40690.21
546.67	41144.28
546.83	40549.78
547.00	40912.56
547.17	40989.80
547.34	41045.97
547.50	41109.17
547.67	41656.85
547.84	41247.26
548.00	41500.04
548.17	41645.15
548.34	41186.41
548.51	41640.47
548.67	41741.11
548.84	41998.57
549.01	41411.10
549.18	41383.01
549.34	41921.34
549.51	41769.20
549.68	41528.13
549.84	41928.36
550.01	41996.23
550.18	41633.45
550.34	41874.52
550.51	41865.16
550.68	41834.74
550.84	42176.45
551.01	41769.20
551.18	42284.12
551.34	42431.57
551.51	42178.79
551.68	42064.11
551.84	42260.71
552.01	41759.84
552.18	42309.86
552.34	41900.27
552.51	42316.89
552.68	42061.77
552.84	42057.09
553.01	42660.94
553.18	42281.78
553.34	42548.60
553.51	41968.15
553.67	42356.67
553.84	42518.17
554.01	42752.23
554.17	42895.00
554.34	43138.41
554.51	42768.61
554.67	42553.28
554.84	42794.36
555.00	42316.89
555.17	42389.44
555.33	42976.92
555.50	42602.43
555.67	42946.49
555.83	42466.68
556.00	42852.87
556.16	43220.33
556.33	43416.94
556.50	43339.70
556.66	43009.68
556.83	42862.23
556.99	42890.32
557.16	43012.02
557.32	42784.99
557.49	43278.85
557.65	42899.68
557.82	42745.20
557.98	43232.04
558.15	43145.44
558.32	43360.76
558.48	43367.79
558.65	43093.94
558.81	43391.19
558.98	42923.08
559.14	43435.66
559.31	43171.18
559.47	43372.47
559.64	43370.13
559.80	43552.69
559.97	43522.26
560.13	43405.23
560.30	43505.88
560.46	43487.15
560.63	43449.70
560.79	43510.56
560.96	43798.44
561.12	43590.14
561.29	43550.35
561.45	43599.50
561.61	43835.89
561.78	43313.95
561.94	43239.06
562.11	43590.14
562.27	43402.89
562.44	43281.19
562.60	44058.24
562.77	43793.76
562.93	43484.81
563.10	44172.93
563.26	43508.22
563.42	43636.95
563.59	43735.25
563.75	43594.82
563.92	43978.67
564.08	44156.55
564.24	44217.40
564.41	43660.35
564.57	44149.53
564.74	44016.11
564.90	43786.74
565.07	44376.56
565.23	44133.14
565.39	43821.85
565.56	44212.72
565.72	43697.80
565.88	43819.51
566.05	44135.48
566.21	43725.89
566.38	44238.47
566.54	44222.08
566.70	44767.43
566.87	44570.82
567.03	44023.14
567.19	44301.66
567.36	43955.26
567.52	43721.21
567.68	44182.29
567.85	44102.71
568.01	44245.49
568.17	43981.01
568.34	44481.88
568.50	44100.37
568.66	43817.17
568.83	44257.19
568.99	44538.05
569.15	44137.82
569.32	44257.19
569.48	44044.20
569.64	44350.81
569.81	44065.27
569.97	44025.48
570.13	44444.43
570.30	44357.83
570.46	44615.29
570.62	44004.41
570.78	44027.82
570.95	43632.27
571.11	44215.06
571.27	43899.09
571.43	44477.20
571.60	44329.75
571.76	44552.10
571.92	44156.55
572.09	43812.49
572.25	44652.74
572.41	44245.49
572.57	44364.85
572.74	44587.21
572.90	44561.46
573.06	44519.33
573.22	44615.29
573.38	44512.31
573.55	44030.16
573.71	44458.48
573.87	44191.65
574.03	44453.79
574.20	44554.44
574.36	44306.34
574.52	44414.01
574.68	44346.13
574.84	44582.52
575.01	44406.98
575.17	44512.31
575.33	44456.14
575.49	44538.05
575.65	44704.23
575.82	44540.39
575.98	44669.12
576.14	44917.22
576.30	44322.72
576.46	43981.01
576.62	44577.84
576.79	44268.89
576.95	44186.97
577.11	44790.83
577.27	44189.31
577.43	44179.95
577.59	44610.61
577.75	44694.87
577.92	44399.96
578.08	44512.31
578.24	44355.49
578.40	44399.96
578.56	44931.26
578.72	44257.19
578.88	44809.56
579.04	44528.69
579.21	44322.72
579.37	44341.45
579.53	44659.76
579.69	44514.65
579.85	44556.78
580.01	44725.30
580.17	44409.32
580.33	44945.31
580.49	45148.93
580.65	45193.40
580.82	44666.78
580.98	44870.41
581.14	43821.85
581.30	44942.97
581.46	44687.85
581.62	44336.77
581.78	44856.37
581.94	44706.57
582.10	44774.45
582.26	44535.71
582.42	44301.66
582.58	44842.32
582.74	44423.37
582.90	44549.76
583.06	44500.61
583.22	44584.86
583.38	44814.24
583.54	45001.48
583.70	44769.77
583.86	44734.66
584.02	44566.14
584.18	44388.26
584.34	44505.29
584.50	44828.28
584.66	44758.06
584.82	44374.22
584.98	44734.66
585.14	44854.03
585.30	44622.31
585.46	44851.69
585.62	44315.70
585.78	44594.23
585.94	44683.17
586.10	45038.93
586.26	44222.08
586.42	44781.47
586.58	44701.89
586.74	44488.90
586.90	44409.32
587.06	44678.49
587.22	44921.90
587.38	44610.61
587.54	45090.42
587.70	45237.87
587.86	45134.89
588.02	44631.68
588.18	44624.65
588.34	44619.97
588.49	44645.72
588.65	44378.90
588.81	44339.11
588.97	44570.82
589.13	44587.21
589.29	44711.25
589.45	44650.40
589.61	44645.72
589.77	44769.77
589.93	44949.99
590.08	45111.49
590.24	45085.74
590.40	45031.91
590.56	44816.58
590.72	45078.72
590.88	45219.15
591.04	44704.23
591.20	45518.74
591.35	45041.27
591.51	45521.08
591.67	44662.10
591.83	44767.43
591.99	44514.65
592.15	44928.92
592.31	45022.54
592.46	45366.60
592.62	44912.54
592.78	44964.03
592.94	44758.06
593.10	44861.05
593.26	44566.14
593.41	45067.02
593.57	44603.59
593.73	45052.97
593.89	45387.67
594.05	44945.31
594.20	44964.03
594.36	45139.57
594.52	45209.79
594.68	45120.85
594.84	44795.51
594.99	45502.35
595.15	44825.94
595.31	45324.47
595.47	45755.13
595.62	44729.98
595.78	44858.71
595.94	45272.98
596.10	45319.79
596.25	44816.58
596.41	44931.26
596.57	45237.87
596.73	45511.72
596.88	44664.44
597.04	45043.61
597.20	44928.92
597.36	45305.75
597.51	45677.90
597.67	45146.59
597.83	45120.85
597.99	45432.14
598.14	45315.11
598.30	44992.12
598.46	44914.88
598.61	45031.91
598.77	44816.58
598.93	45027.23
599.09	44912.54
599.24	45069.36
599.40	45200.43
599.56	45144.25
599.71	44954.67
599.87	45303.41
600.03	45090.42
600.18	45193.40
600.34	45368.94
600.50	45167.66
600.65	45055.31
600.81	45411.07
600.97	45640.45
601.12	45443.84
601.28	45343.20
601.44	44722.96
601.59	44978.07
601.75	44760.40
601.91	44624.65
602.06	44727.64
602.22	45284.68
602.37	45287.03
602.53	45471.93
602.69	45223.83
602.84	45240.21
603.00	44641.04
603.16	44886.79
603.31	44942.97
603.47	44947.65
603.62	45132.55
603.78	45366.60
603.94	45221.49
604.09	45439.16
604.25	45202.77
604.40	44596.57
604.56	44886.79
604.71	45158.30
604.87	44767.43
605.03	44643.38
605.18	44928.92
605.34	45518.74
605.49	44617.63
605.65	44982.76
605.80	45298.73
605.96	45015.52
606.12	44914.88
606.27	45371.28
606.43	44516.99
606.58	45607.68
606.74	44828.28
606.89	45242.56
607.05	44795.51
607.20	45254.26
607.36	45071.70
607.51	45235.53
607.67	45071.70
607.82	44907.86
607.98	44683.17
608.13	44949.99
608.29	44540.39
608.44	44341.45
608.60	43885.04
608.75	44643.38
608.91	44563.80
609.06	44975.73
609.22	44828.28
609.37	44704.23
609.53	44624.65
609.68	44793.17
609.84	44594.23
609.99	44790.83
610.15	44514.65
610.30	44182.29
610.46	43903.77
610.61	44495.92
610.76	44526.35
610.92	44945.31
611.07	44208.04
611.23	44119.10
611.38	44194.00
611.54	44275.91
611.69	44444.43
611.84	44329.75
612.00	44357.83
612.15	44474.86
612.31	43992.71
612.46	44261.87
612.62	44435.07
612.77	44498.26
612.92	44477.20
613.08	44528.69
613.23	44175.27
613.39	44320.38
613.54	44306.34
613.69	43821.85
613.85	43782.06
614.00	44275.91
614.15	44626.99
614.31	44322.72
614.46	44397.62
614.62	43988.03
614.77	44098.03
614.92	44336.77
615.08	43861.64
615.23	44114.42
615.38	44098.03
615.54	43555.03
615.69	43655.67
615.84	43871.00
616.00	44032.50
616.15	43796.10
616.30	44416.35
616.46	43405.23
616.61	43711.84
616.76	43573.75
616.92	43667.37
617.07	43772.70
617.22	43611.20
617.37	43594.82
617.53	43775.04
617.68	44083.99
617.83	43856.96
617.99	43952.92
618.14	43650.99
618.29	43342.04
618.45	43459.07
618.60	43260.12
618.75	44154.21
618.90	43641.63
619.06	43695.46
619.21	43636.95
619.36	43454.39
619.51	43285.87
619.67	43697.80
619.82	43674.40
619.97	43648.65
620.12	42974.58
620.28	43042.45
620.43	43398.21
620.58	43068.20
620.73	42871.59
620.89	43250.76
621.04	43189.91
621.19	43203.95
621.34	43077.56
621.49	43178.20
621.65	43196.93
621.80	43021.39
621.95	43129.05
622.10	42955.85
622.25	42810.74
622.41	42808.40
622.56	43084.58
622.71	43356.08
622.86	43098.62
623.01	42672.65
623.16	43150.12
623.32	42883.30
623.47	43044.79
623.62	42967.55
623.77	43056.50
623.92	42742.86
624.07	42871.59
624.23	43091.60
624.38	42579.03
624.53	42541.58
624.68	42639.88
624.83	42923.08
624.98	42923.08
625.13	42471.36
625.29	42590.73
625.44	42761.59
625.59	42160.07
625.74	42380.08
625.89	42141.35
626.04	41928.36
626.19	42321.57
626.34	42368.38
626.49	42384.76
626.65	42176.45
626.80	42471.36
626.95	42326.25
627.10	42127.30
627.25	41890.91
627.40	41832.39
627.55	41982.19
627.70	41464.93
627.85	41818.35
628.00	41638.13
628.15	42330.93
628.30	42272.42
628.45	41860.48
628.60	41865.16
628.76	42021.98
628.91	42146.03
629.06	42351.99
629.21	41848.78
629.36	41935.38
629.51	41834.74
629.66	41942.40
629.81	41441.53
629.96	41757.50
630.11	41486.00
630.26	41846.44
630.41	41947.08
630.56	41724.73
630.71	41462.59
630.86	41310.46
631.01	41378.33
631.16	41312.80
631.31	41069.38
631.46	41034.27
631.61	41542.17
631.76	41500.04
631.91	41921.34
632.06	41523.44
632.21	41263.64
632.36	41504.72
632.51	41139.60
632.66	41397.06
632.81	40896.18
632.96	41160.66
633.10	40751.07
633.25	41067.04
633.40	41092.79
633.55	41055.34
633.70	41441.53
633.85	40793.20
634.00	41207.47
634.15	40985.12
634.30	40732.34
634.45	40673.83
634.60	40701.92
634.75	41167.68
634.90	40610.64
635.05	41188.75
635.19	40832.99
635.34	41170.02
635.49	40521.69
635.64	40877.46
635.79	40165.93
635.94	40222.11
636.09	40451.48
636.24	40285.30
636.39	40304.02
636.53	40231.47
636.68	40545.10
636.83	40453.82
636.98	40556.80
637.13	40123.80
637.28	40622.34
637.43	40638.72
637.57	40547.44
637.72	40601.27
637.87	40341.47
638.02	40378.92
638.17	40158.91
638.32	39981.03
638.46	39906.13
638.61	39971.67
638.76	39950.60
638.91	40051.25
639.06	39856.98
639.20	40046.57
639.35	40282.96
639.50	39985.71
639.65	40208.06
639.80	40187.00
639.94	39859.32
640.09	40048.91
640.24	39952.94
640.39	39597.18
640.54	39955.29
640.68	39826.56
640.83	39920.18
640.98	39426.32
641.13	39508.24
641.27	40023.16
641.42	39459.09
641.57	40030.18
641.72	39735.27
641.86	39564.42
642.01	39538.67
642.16	39580.80
642.31	39215.68
642.45	39412.28
642.60	39683.78
642.75	39508.24
642.90	39463.77
643.04	39412.28
643.19	39449.73
643.34	39182.91
643.48	39494.20
643.63	39288.23
643.78	39229.72
643.93	38660.97
644.07	38946.51
644.22	38843.53
644.37	39203.97
644.51	39084.61
644.66	39009.71
644.81	39161.84
644.95	38806.08
645.10	39225.04
645.25	39304.62
645.39	39384.19
645.54	39526.97
645.69	38967.58
645.83	38958.22
645.98	39117.37
646.13	39117.37
646.27	39030.77
646.42	38768.63
646.57	39110.35
646.71	38569.69
646.86	39021.41
647.00	38895.02
647.15	39187.59
647.30	38965.24
647.44	38967.58
647.59	39000.35
647.74	38602.46
647.88	38696.08
648.03	38677.35
648.17	38263.08
648.32	38665.65
648.47	38766.29
648.61	38323.93
648.76	38274.78
648.90	38529.90
649.05	38745.23
649.20	38735.87
649.34	38272.44
649.49	38539.26
649.63	38293.50
649.78	38146.05
649.92	38354.36
650.07	38651.61
650.21	37961.15
650.36	38920.77
650.51	38080.52
650.65	38693.74
650.80	38621.18
650.94	38625.86
651.09	38274.78
651.23	38359.04
651.38	38384.79
651.52	38176.48
651.67	38150.73
651.81	38471.39
651.96	38026.68
652.10	38052.43
652.25	37703.69
652.39	37862.85
652.54	38043.07
652.68	38108.60
652.83	38106.26
652.97	37663.90
653.12	37895.61
653.26	38047.75
653.41	37708.37
653.55	37574.96
653.70	37373.67
653.84	37827.74
653.99	37617.09
654.13	37677.94
654.27	37577.30
654.42	37429.85
654.56	37518.79
654.71	37680.28
654.85	37261.33
655.00	37591.34
655.14	37347.93
655.29	36865.78
655.43	37097.49
655.57	36708.96
655.72	37331.54
655.86	36952.38
656.01	36971.10
656.15	36982.80
656.30	36840.03
656.44	37118.56
656.58	37223.88
656.73	36671.51
656.87	36959.40
657.01	36659.81
657.16	36744.07
657.30	36444.48
657.45	36357.88
657.59	36758.11
657.73	36423.42
657.88	36966.42
658.02	36793.22
658.16	36861.10
658.31	36900.89
658.45	36713.64
658.60	36734.71
658.74	36697.26
658.88	37191.11
659.03	36231.49
659.17	36589.59
659.31	36699.60
659.46	36084.04
659.60	36336.82
659.74	36151.91
659.89	35845.30
660.03	36079.36
660.17	36453.84
660.32	36098.08
660.46	36201.07
660.60	36275.96
660.74	36032.55
660.89	35718.92
661.03	35838.28
661.17	36011.48
661.32	35714.23
661.46	35543.38
661.60	35590.19
661.74	36123.83
661.89	35885.09
662.03	35660.40
662.17	35604.23
662.31	35775.09
662.46	35587.85
662.60	35505.93
662.74	35314.00
662.88	35604.23
663.03	35246.13
663.17	35700.19
663.31	34775.68
663.45	35835.94
663.60	35091.65
663.74	34946.54
663.88	35072.93
664.02	34927.81
664.17	35367.84
664.31	34724.19
664.45	34565.03
664.59	35211.02
664.73	35063.57
664.88	34534.60
665.02	34541.63
665.16	34768.66
665.30	35030.80
665.44	34588.44
665.59	34309.91
665.73	34562.69
665.87	34295.87
666.01	34501.84
666.15	34321.62
666.29	34492.47
666.44	34335.66
666.58	34220.97
666.72	34103.95
666.86	34363.75
667.00	34361.40
667.14	34323.96
667.28	33661.58
667.43	33392.42
667.57	33919.04
667.71	33411.15
667.85	33834.78
667.99	33827.76
668.13	33663.93
668.27	33233.27
668.41	33834.78
668.56	33013.26
668.70	33476.68
668.84	33408.81
668.98	33116.24
669.12	33010.92
669.26	33034.32
669.40	33111.56
669.54	32989.85
669.68	33118.58
669.82	32631.75
669.96	32844.74
670.10	32322.80
670.25	32833.04
670.39	32973.47
670.53	32701.96
670.67	32584.94
670.81	32481.95
670.95	32765.16
671.09	32545.15
671.23	32655.15
671.37	32737.07
671.51	32465.57
671.65	32332.16
671.79	32044.27
671.93	32173.00
672.07	32538.13
672.21	32271.31
672.35	32133.21
672.49	32025.55
672.63	32175.34
672.77	31695.53
672.91	31604.25
673.05	31281.26
673.19	31285.94
673.33	31281.26
673.47	31606.59
673.61	31536.38
673.75	31215.72
673.89	30932.52
674.03	30775.70
674.17	30991.03
674.31	30948.90
674.45	30808.47
674.59	31199.34
674.73	31110.40
674.87	31002.74
675.01	31070.61
675.15	30972.31
675.29	31199.34
675.43	30518.25
675.56	30810.81
675.70	30272.49
675.84	30181.21
675.98	28959.45
676.12	30417.60
676.26	29900.34
676.40	29947.15
676.54	29722.46
676.68	29809.06
676.82	29399.47
676.96	29577.35
677.10	29565.65
677.23	29628.84
677.37	29186.48
677.51	29413.51
677.65	29329.25
677.79	29127.97
677.93	28774.55
678.07	28781.57
678.21	28739.44
678.34	28327.50
678.48	28364.95
678.62	28479.64
678.76	28276.01
678.90	28280.69
679.04	28400.06
679.18	28645.82
679.31	28163.67
679.45	27819.61
679.59	27711.94
679.73	28009.19
679.87	27644.07
680.00	27882.80
680.14	27473.21
680.28	27592.58
680.42	27597.26
680.56	27307.03
680.70	27473.21
680.83	27143.19
680.97	27131.49
681.11	26859.99
681.25	27068.30
681.39	26958.29
681.52	26871.69
681.66	26766.37
681.80	26855.31
681.94	26476.14
682.07	26459.76
682.21	26382.52
682.35	26384.86
682.49	26764.03
682.62	26253.79
682.76	25963.56
682.90	26244.43
683.04	25706.10
683.17	25921.43
683.31	26211.66
683.45	25795.04
683.59	25577.37
683.72	25343.32
683.86	25046.07
684.00	25340.98
684.13	25509.50
684.27	25336.30
684.41	25408.86
684.55	25132.67
684.68	24730.10
684.82	24879.89
684.96	24566.26
685.09	24465.62
685.23	24367.32
685.37	24339.23
685.50	24362.64
685.64	24100.50
685.78	24287.74
685.91	24315.83
686.05	24074.75
686.19	23630.05
686.32	23864.10
686.46	23463.87
686.60	23508.34
686.73	23784.52
686.87	23035.55
687.01	23517.70
687.14	23164.28
687.28	23241.52
687.42	23267.27
687.55	22771.07
687.69	23147.90
687.82	22913.84
687.96	22740.64
688.10	22665.75
688.23	22890.44
688.37	22506.59
688.50	22354.46
688.64	22600.21
688.78	22326.37
688.91	22384.88
689.05	21963.59
689.18	22040.82
689.32	21465.05
689.46	22075.93
689.59	22288.92
689.73	21970.61
689.86	21692.08
690.00	21706.13
690.13	21879.33
690.27	21631.23
690.41	21736.56
690.54	21212.28
690.68	21170.15
690.81	21041.42
690.95	20702.04
691.08	20589.69
691.22	21076.52
691.35	21013.33
691.49	20734.81
691.62	21179.51
691.76	21025.03
691.89	20753.53
692.03	20189.46
692.16	20388.41
692.30	20292.44
692.43	20294.79
692.57	20727.78
692.70	20299.47
692.84	20086.48
692.97	20032.65
693.11	19831.36
693.24	19452.19
693.38	19555.18
693.51	19534.11
693.65	19704.97
693.78	19606.67
693.92	19379.64
694.05	19466.24
694.19	19346.87
694.32	19229.84
694.45	19178.35
694.59	19145.58
694.72	18918.55
694.86	18918.55
694.99	18757.05
695.13	18401.29
695.26	18403.63
695.39	18366.18
695.53	18408.31
695.66	18415.34
695.80	18459.81
695.93	18082.98
696.07	18073.62
696.20	18162.56
696.33	17776.37
696.47	17727.22
696.60	17851.27
696.73	17802.11
696.87	17771.69
697.00	17940.21
697.14	17750.62
697.27	17589.13
697.40	17600.83
697.54	17231.02
697.67	17228.68
697.80	17465.08
697.94	17102.29
698.07	17226.34
698.21	17177.19
698.34	17095.27
698.47	16702.06
698.61	16561.63
698.74	16243.32
698.87	16751.21
699.01	16573.33
699.14	16430.56
699.27	16486.73
699.40	16411.84
699.54	16102.89
699.67	15981.18
699.80	15962.45
699.94	15927.35
700.07	15906.28
700.20	15922.66
700.34	15768.19
700.47	15927.35
700.60	15756.49
700.73	15854.79
700.87	15508.39
701.00	15576.27
701.13	15513.07
701.26	15360.94
701.40	15473.28
701.53	15171.35
701.66	15639.46
701.79	14906.87
701.93	14944.32
702.06	14927.94
702.19	15047.30
702.32	14920.92
702.46	14710.27
702.59	14501.96
702.72	15012.20
702.85	14792.19
702.99	14951.34
703.12	14855.38
703.25	14846.02
703.38	14579.20
703.51	14389.61
703.65	14312.38
703.78	14455.15
703.91	14036.19
704.04	14080.66
704.17	13891.08
704.31	14024.49
704.44	13738.94
704.57	13645.32
704.70	13710.86
704.83	13558.72
704.96	13556.38
705.10	13692.13
705.23	13678.09
>>>>>End Processed Spectral Data<<<<<
