SpectraSuite Data File
++++++++++++++++++++++++++++++++++++
Date: Fri Oct 25 10:44:07 EDT 2013
User: price-jones
Dark Spectrum Present: No
Reference Spectrum Present: No
Number of Sampled Component Spectra: 1
Spectrometers: USB2+H05261
Integration Time (usec): 100000 (USB2+H05261)
Spectra Averaged: 1 (USB2+H05261)
Boxcar Smoothing: 0 (USB2+H05261)
Correct for Electrical Dark: No (USB2+H05261)
Strobe/Lamp Enabled: No (USB2+H05261)
Correct for Detector Non-linearity: No (USB2+H05261)
Correct for Stray Light: No (USB2+H05261)
Number of Pixels in Processed Spectrum: 2048
>>>>>Begin Processed Spectral Data<<<<<
365.73	107.66
365.92	107.66
366.12	107.66
366.32	70.22
366.52	37.45
366.72	65.54
366.91	11.70
367.11	42.13
367.31	117.03
367.51	49.15
367.70	23.41
367.90	72.56
368.10	49.15
368.30	0.00
368.49	0.00
368.69	11.70
368.89	0.00
369.09	79.58
369.28	49.15
369.48	53.83
369.68	0.00
369.87	81.92
370.07	74.90
370.27	72.56
370.47	168.52
370.66	435.34
370.86	435.34
371.06	442.36
371.25	437.68
371.45	493.85
371.65	458.74
371.84	517.26
372.04	447.04
372.24	582.79
372.44	479.81
372.63	528.96
372.83	517.26
373.03	545.34
373.22	531.30
373.42	557.05
373.62	493.85
373.81	505.56
374.01	540.66
374.21	603.86
374.40	620.24
374.60	559.39
374.79	557.05
374.99	514.92
375.19	613.22
375.38	503.22
375.58	543.00
375.78	610.88
375.97	650.67
376.17	725.57
376.37	557.05
376.56	638.97
376.76	550.03
376.95	528.96
377.15	655.35
377.35	636.63
377.54	688.12
377.74	653.01
377.93	688.12
378.13	638.97
378.33	727.91
378.52	744.29
378.72	723.23
378.91	683.44
379.11	580.45
379.31	739.61
379.50	681.10
379.70	695.14
379.89	655.35
380.09	645.99
380.28	636.63
380.48	697.48
380.68	634.29
380.87	641.31
381.07	798.12
381.26	713.86
381.46	746.63
381.65	741.95
381.85	751.31
382.04	758.33
382.24	720.88
382.43	788.76
382.63	692.80
382.83	732.59
383.02	723.23
383.22	751.31
383.41	753.65
383.61	758.33
383.80	774.72
384.00	788.76
384.19	837.91
384.39	781.74
384.58	777.06
384.78	882.38
384.97	812.17
385.17	816.85
385.36	809.83
385.56	772.38
385.75	767.70
385.95	823.87
386.14	898.77
386.34	830.89
386.53	828.55
386.72	800.46
386.92	858.98
387.11	903.45
387.31	919.83
387.50	833.23
387.70	854.30
387.89	851.96
388.09	854.30
388.28	858.98
388.48	856.64
388.67	1018.13
388.86	933.87
389.06	966.64
389.25	891.74
389.45	997.07
389.64	936.21
389.84	964.30
390.03	973.66
390.22	1025.15
390.42	959.62
390.61	966.64
390.81	997.07
391.00	1083.67
391.19	1055.58
391.39	1022.81
391.58	1041.54
391.78	1069.62
391.97	1046.22
392.16	1043.88
392.36	1088.35
392.55	1046.22
392.75	985.37
392.94	959.62
393.13	1022.81
393.33	1146.86
393.52	1055.58
393.71	1081.33
393.91	1132.82
394.10	1121.12
394.29	1149.20
394.49	1156.22
394.68	1217.08
394.88	1282.61
395.07	1315.38
395.26	1212.40
395.46	1153.88
395.65	1242.82
395.84	1174.95
396.04	1310.70
396.23	1254.53
396.42	1130.48
396.62	1184.31
396.81	1231.12
397.00	1172.61
397.19	1174.95
397.39	1392.62
397.58	1425.39
397.77	1334.11
397.97	1423.05
398.16	1483.90
398.35	1474.54
398.55	1469.86
398.74	1439.43
398.93	1603.27
399.12	1474.54
399.32	1542.41
399.51	1547.09
399.70	1558.80
399.90	1460.49
400.09	1521.35
400.28	1554.12
400.47	1624.33
400.67	1710.93
400.86	1544.75
401.05	1645.40
401.24	1710.93
401.44	1661.78
401.63	1685.19
401.82	1739.02
402.01	1715.61
402.21	1753.06
402.40	1769.44
402.59	1769.44
402.78	1664.12
402.97	1795.19
403.17	1764.76
403.36	1884.13
403.55	1788.17
403.74	1860.73
403.93	1781.15
404.13	1851.36
404.32	1846.68
404.51	1781.15
404.70	1874.77
404.89	1870.09
405.09	1886.47
405.28	2069.03
405.47	2036.27
405.66	1980.09
405.85	1944.99
406.05	1893.49
406.24	1975.41
406.43	2087.76
406.62	2083.08
406.81	2136.91
407.00	2031.58
407.20	2038.61
407.39	2003.50
407.58	2111.16
407.77	2106.48
407.96	2242.23
408.15	2190.74
408.34	2083.08
408.54	2218.83
408.73	2312.45
408.92	2218.83
409.11	2387.35
409.30	2277.34
409.49	2190.74
409.68	2253.94
409.87	2260.96
410.07	2263.30
410.26	2471.61
410.45	2310.11
410.64	2466.92
410.83	2509.05
411.02	2492.67
411.21	2541.82
411.40	2534.80
411.59	2541.82
411.78	2546.50
411.98	2450.54
412.17	2626.08
412.36	2663.53
412.55	2647.15
412.74	2832.05
412.93	2745.45
413.12	2759.49
413.31	2883.54
413.50	2806.30
413.69	2883.54
413.88	2930.35
414.07	2862.48
414.26	2843.75
414.45	2953.76
414.64	2965.46
414.83	3056.74
415.02	3038.02
415.22	3047.38
415.41	3068.44
415.60	3166.74
415.79	3255.69
415.98	3337.60
416.17	3307.18
416.36	3166.74
416.55	3300.16
416.74	3246.32
416.93	3220.58
417.12	3297.81
417.31	3325.90
417.50	3346.97
417.69	3651.24
417.88	3503.78
418.07	3379.73
418.26	3440.59
418.45	3534.21
418.64	3613.79
418.83	3489.74
419.02	3520.17
419.21	3653.58
419.39	3641.87
419.58	3574.00
419.77	3723.79
419.96	3548.25
420.15	3655.92
420.34	3625.49
420.53	3641.87
420.72	3728.47
420.91	3829.12
421.10	3852.52
421.29	3920.40
421.48	3765.92
421.67	3833.80
421.86	3700.39
422.05	3852.52
422.24	3815.07
422.43	3761.24
422.61	3859.54
422.80	3950.82
422.99	3918.06
423.18	3934.44
423.37	4007.00
423.56	4058.49
423.75	3826.78
423.94	3913.38
424.13	3784.65
424.32	3768.26
424.50	3892.31
424.69	4023.38
424.88	4021.04
425.07	3911.04
425.26	3824.44
425.45	3791.67
425.64	3894.65
425.83	3948.48
426.01	4135.73
426.20	4044.45
426.39	4156.79
426.58	3988.27
426.77	3889.97
426.96	3934.44
427.15	4032.74
427.33	4084.23
427.52	4138.07
427.71	4276.16
427.90	4224.67
428.09	4170.83
428.28	4112.32
428.46	4107.64
428.65	4074.87
428.84	4269.14
429.03	4166.15
429.22	4128.70
429.40	4248.07
429.59	4163.81
429.78	3784.65
429.97	3915.72
430.16	3913.38
430.34	4112.32
430.53	4205.94
430.72	4145.09
430.91	4234.03
431.10	4273.82
431.28	4559.36
431.47	4594.47
431.66	4751.29
431.85	4447.02
432.03	4601.49
432.22	4624.90
432.41	4711.50
432.60	4587.45
432.79	4746.61
432.97	4873.00
433.16	4748.95
433.35	4615.54
433.54	4861.29
433.72	4641.28
433.91	4669.37
434.10	4692.77
434.28	4744.27
434.47	4809.80
434.66	4957.25
434.85	4971.30
435.03	4945.55
435.22	4936.19
435.41	4997.04
435.59	4983.00
435.78	5011.09
435.97	5088.32
436.16	5039.17
436.34	5081.30
436.53	5100.03
436.72	5036.83
436.90	4983.00
437.09	5125.77
437.28	4987.68
437.46	5050.88
437.65	5179.61
437.84	5249.82
438.02	5205.35
438.21	5111.73
438.40	5179.61
438.58	5366.85
438.77	5298.97
438.96	5212.37
439.14	5266.21
439.33	5535.37
439.52	5404.30
439.70	5579.84
439.89	5703.89
440.08	5483.88
440.26	5661.76
440.45	5678.14
440.63	5797.51
440.82	5884.11
441.01	5888.79
441.19	6092.41
441.38	6153.27
441.57	6073.69
441.75	6349.87
441.94	6265.61
442.12	6373.28
442.31	6366.26
442.50	6090.07
442.68	6251.57
442.87	6221.14
443.05	6380.30
443.24	6375.62
443.43	6494.99
443.61	6450.52
443.80	6679.89
443.98	6307.74
444.17	6345.19
444.35	6597.97
444.54	6663.51
444.73	6567.54
444.91	6562.86
445.10	6408.39
445.28	6380.30
445.47	6331.15
445.65	6324.13
445.84	6509.03
446.02	6583.93
446.21	6579.25
446.39	6562.86
446.58	6572.22
446.77	6583.93
446.95	6492.65
447.14	6576.91
447.32	6703.29
447.51	6626.06
447.69	6586.27
447.88	6771.17
448.06	6604.99
448.25	6637.76
448.43	6707.98
448.62	6860.11
448.80	6834.36
448.99	7007.56
449.17	6820.32
449.36	6719.68
449.54	6867.13
449.73	7119.91
449.91	7026.29
450.10	7274.38
450.28	7204.17
450.46	7059.06
450.65	7000.54
450.83	7386.73
451.02	7073.10
451.20	7131.61
451.39	7290.77
451.57	7126.93
451.76	7239.28
451.94	7119.91
452.13	7262.68
452.31	7180.76
452.49	6937.35
452.68	7096.50
452.86	6984.16
453.05	7162.04
453.23	7384.39
453.42	7335.24
453.60	7360.98
453.78	7599.72
453.97	7400.77
454.15	7442.90
454.34	7262.68
454.52	7466.31
454.70	7400.77
454.89	7651.21
455.07	7527.16
455.26	7683.98
455.44	7707.38
455.62	7791.64
455.81	7688.66
455.99	7817.39
456.17	7852.50
456.36	7772.92
456.54	7971.86
456.73	7964.84
456.91	8173.15
457.09	8124.00
457.28	8205.92
457.46	8088.89
457.64	8004.63
457.83	8135.70
458.01	7971.86
458.19	8203.58
458.38	8098.25
458.56	8301.88
458.74	8271.45
458.93	8166.13
459.11	8215.28
459.29	8280.82
459.48	8283.16
459.66	8245.71
459.84	8599.13
460.03	8463.38
460.21	8456.36
460.39	8489.12
460.57	8479.76
460.76	8610.83
460.94	8557.00
461.12	8482.10
461.31	8585.08
461.49	8716.16
461.67	8540.61
461.85	8844.88
462.04	8578.06
462.22	9322.35
462.40	8990.00
462.59	8751.26
462.77	8805.10
462.95	9071.92
463.13	8889.35
463.32	8875.31
463.50	9039.15
463.68	8800.41
463.86	9004.04
464.05	8894.04
464.23	8723.18
464.41	9188.94
464.59	8849.57
464.78	9188.94
464.96	9062.55
465.14	8964.25
465.32	9111.71
465.50	9132.77
465.69	9383.21
465.87	9247.46
466.05	9263.84
466.23	9027.45
466.41	9132.77
466.60	9439.38
466.78	9366.82
466.96	9132.77
467.14	9184.26
467.32	9401.93
467.51	9694.50
467.69	9081.28
467.87	9554.07
468.05	9612.58
468.23	9500.23
468.41	9455.76
468.60	9579.81
468.78	9713.22
468.96	9626.62
469.14	9961.32
469.32	9879.40
469.50	9343.42
469.69	9493.21
469.87	9865.36
470.05	9755.35
470.23	9685.14
470.41	10036.22
470.59	9874.72
470.77	10061.96
470.95	9884.08
471.14	9989.41
471.32	10061.96
471.50	10342.83
471.68	10071.33
471.86	10359.21
472.04	10630.71
472.22	10586.24
472.40	10359.21
472.58	10354.53
472.77	10366.23
472.95	10590.92
473.13	10670.50
473.31	10565.18
473.49	10422.41
473.67	10590.92
473.85	10581.56
474.03	10897.53
474.21	11002.86
474.39	11073.07
474.57	11040.31
474.75	11098.82
474.93	11119.89
475.12	11110.52
475.30	11190.10
475.48	11000.52
475.66	11428.84
475.84	11185.42
476.02	11309.47
476.20	11492.03
476.38	11627.78
476.56	11871.20
476.74	11838.43
476.92	11646.51
477.10	11887.58
477.28	11960.14
477.46	11997.59
477.64	12322.92
477.82	12624.85
478.00	12601.44
478.18	12479.74
478.36	12564.00
478.54	12573.36
478.72	12692.73
478.90	12615.49
479.08	13006.36
479.26	13041.46
479.44	12908.05
479.62	12952.52
479.80	13174.88
479.98	13516.59
480.16	13752.99
480.34	13621.92
480.52	13804.48
480.70	13907.46
480.88	13631.28
481.06	13738.94
481.24	13877.04
481.41	14183.65
481.59	14527.71
481.77	14413.02
481.95	14548.77
482.13	14590.90
482.31	14864.74
482.49	14909.21
482.67	14794.53
482.85	14944.32
483.03	15206.46
483.21	15255.61
483.39	15583.29
483.57	15335.19
483.74	15323.49
483.92	15712.02
484.10	15468.60
484.28	15915.64
484.46	16100.55
484.64	16334.60
484.82	16070.12
485.00	16030.33
485.18	16388.43
485.35	16346.30
485.53	16070.12
485.71	16315.87
485.89	16510.14
486.07	16341.62
486.25	16655.25
486.43	16999.31
486.61	17116.34
486.78	17362.09
486.96	17446.35
487.14	17584.44
487.32	17685.09
487.50	18127.45
487.68	18075.96
487.85	18242.14
488.03	18347.46
488.21	18817.91
488.39	18408.31
488.57	18604.92
488.75	19061.32
488.92	18888.12
489.10	19208.78
489.28	19311.76
489.46	19924.98
489.64	19880.51
489.81	20058.39
489.99	20273.72
490.17	20123.93
490.35	20276.06
490.53	20428.20
490.70	20393.09
490.88	20194.14
491.06	20786.30
491.24	20652.89
491.41	20751.19
491.59	21001.63
491.77	20615.44
491.95	21071.84
492.13	21493.14
492.30	21556.33
492.48	21706.13
492.66	21788.05
492.84	22001.04
493.01	22122.74
493.19	21898.05
493.37	22136.79
493.54	22450.42
493.72	22644.68
493.90	22478.50
494.08	22944.27
494.25	23035.55
494.43	23145.56
494.61	23194.71
494.79	23367.91
494.96	23501.32
495.14	23410.04
495.32	23763.46
495.49	24032.62
495.67	23941.34
495.85	24297.10
496.02	23950.70
496.20	24364.98
496.38	24463.28
496.55	24393.06
496.73	25163.10
496.91	24608.39
497.09	24964.15
497.26	25048.41
497.44	24900.96
497.62	24905.64
497.79	25233.32
497.97	25139.69
498.14	25357.36
498.32	25624.18
498.50	25458.01
498.67	25757.60
498.85	26078.25
499.03	25993.99
499.20	26394.22
499.38	26199.96
499.56	26232.72
499.73	26595.51
499.91	26239.75
500.08	26766.37
500.26	26279.54
500.44	26721.90
500.61	26590.83
500.79	26511.25
500.97	26707.85
501.14	27098.72
501.32	27063.61
501.49	27068.30
501.67	27047.23
501.84	27178.30
502.02	27108.08
502.20	27644.07
502.37	28013.87
502.55	27384.27
502.72	28166.01
502.90	27889.82
503.07	28166.01
503.25	27669.81
503.43	27821.95
503.60	28123.88
503.78	27896.85
503.95	28226.86
504.13	28727.74
504.30	28444.53
504.48	28914.98
504.65	28996.90
504.83	29036.69
505.01	29350.32
505.18	28704.33
505.36	29319.89
505.53	29142.01
505.71	29338.62
505.88	29816.08
506.06	29305.85
506.23	29895.66
506.41	29598.41
506.58	29734.17
506.76	29881.62
506.93	29986.94
507.11	29692.04
507.28	30223.34
507.46	30300.58
507.63	29783.32
507.81	30246.74
507.98	29942.47
508.16	30274.83
508.33	30897.41
508.50	30906.77
508.68	30948.90
508.85	31213.38
509.03	30974.65
509.20	31199.34
509.38	31311.69
509.55	31328.07
509.73	31337.43
509.90	31402.97
510.08	31346.79
510.25	31648.72
510.42	31871.07
510.60	31861.71
510.77	32020.87
510.95	32165.98
511.12	31810.22
511.30	32201.09
511.47	32446.85
511.64	32512.38
511.82	32201.09
511.99	32109.81
512.17	32290.03
512.34	32055.98
512.51	32453.87
512.69	33266.03
512.86	32940.70
513.04	32919.63
513.21	32809.63
513.38	33333.91
513.56	33020.28
513.73	32662.18
513.90	33008.58
514.08	32769.84
514.25	33001.55
514.43	33184.12
514.60	33481.36
514.77	33259.01
514.95	33998.62
515.12	33418.17
515.29	33584.35
515.47	34220.97
515.64	34015.01
515.81	33968.19
515.99	34092.24
516.16	33802.02
516.33	33603.07
516.51	33696.69
516.68	33312.84
516.85	33684.99
517.03	33722.44
517.20	33867.55
517.37	34206.93
517.54	34597.80
517.72	34108.63
517.89	33853.51
518.06	34031.39
518.24	34190.55
518.41	34120.33
518.58	34590.78
518.75	34651.63
518.93	35026.12
519.10	35325.71
519.27	35335.07
519.45	35086.97
519.62	35246.13
519.79	35274.21
519.96	35470.82
520.14	35374.86
520.31	35288.26
520.48	35386.56
520.65	35295.28
520.83	35974.03
521.00	36325.11
521.17	35859.35
521.34	35920.20
521.52	35730.62
521.69	36128.51
521.86	36299.37
522.03	36395.33
522.20	36587.25
522.38	36187.02
522.55	36727.69
522.72	36378.95
522.89	36495.97
523.07	36594.28
523.24	37177.07
523.41	36847.05
523.58	36636.41
523.75	37237.92
523.92	37242.60
524.10	37247.29
524.27	37310.48
524.44	37380.70
524.61	37165.37
524.78	37240.26
524.96	37214.52
525.13	37713.05
525.30	37722.41
525.47	37558.58
525.64	37865.19
525.81	37893.27
525.98	37965.83
526.16	37230.90
526.33	36954.72
526.50	38038.39
526.67	37361.97
526.84	37706.03
527.01	37406.44
527.18	37841.78
527.36	38010.30
527.53	37830.08
527.70	38663.31
527.87	38389.47
528.04	38733.53
528.21	38267.76
528.38	38815.44
528.55	38883.32
528.72	38405.85
528.89	39196.95
529.07	38616.50
529.24	38906.73
529.41	38754.59
529.58	38909.07
529.75	38909.07
529.92	38988.64
530.09	39372.49
530.26	39105.67
530.43	39517.60
530.60	38988.64
530.77	39395.90
530.94	39517.60
531.11	39409.94
531.28	39414.62
531.46	39793.79
531.63	39653.36
531.80	39480.16
531.97	39758.68
532.14	39655.70
532.31	39115.03
532.48	39232.06
532.65	39683.78
532.82	39735.27
532.99	40236.15
533.16	39377.17
533.33	40266.58
533.50	40032.52
533.67	39861.66
533.84	39618.25
534.01	40177.64
534.18	40154.23
534.35	39966.99
534.52	40297.00
534.69	40570.85
534.86	40872.78
535.03	40341.47
535.20	40617.66
535.37	40879.80
535.54	40879.80
535.71	40903.20
535.88	41336.20
536.05	40818.94
536.22	40821.28
536.38	40708.94
536.55	40821.28
536.72	40795.54
536.89	40531.06
537.06	41127.89
537.23	41312.80
537.40	40781.49
537.57	40910.22
537.74	41385.35
537.91	41088.10
538.08	41287.05
538.25	41057.68
538.42	41326.84
538.59	41336.20
538.75	41144.28
538.92	41067.04
539.09	41617.07
539.26	41687.28
539.43	41544.51
539.60	41326.84
539.77	41577.28
539.94	41542.17
540.11	41368.97
540.28	41507.06
540.44	41418.12
540.61	41439.18
540.78	41691.96
540.95	41462.59
541.12	41385.35
541.29	41937.72
541.46	41911.97
541.62	42052.41
541.79	41986.87
541.96	41816.01
542.13	42005.59
542.30	41813.67
542.47	41972.83
542.63	41706.01
542.80	42298.16
542.97	42366.04
543.14	42600.09
543.31	42958.19
543.48	42766.27
543.64	43229.69
543.81	43098.62
543.98	42969.90
544.15	42728.82
544.32	43005.00
544.48	43012.02
544.65	43276.51
544.82	42815.42
544.99	42993.30
545.16	42433.91
545.32	43070.54
545.49	43381.83
545.66	43388.85
545.83	43388.85
546.00	43571.41
546.16	42972.24
546.33	43093.94
546.50	42899.68
546.67	43358.42
546.83	42557.96
547.00	43400.55
547.17	43395.87
547.34	43023.73
547.50	43583.12
547.67	43997.39
547.84	43274.16
548.00	43899.09
548.17	43807.81
548.34	43620.56
548.51	43922.49
548.67	43796.10
548.84	44231.44
549.01	43910.79
549.18	43601.84
549.34	43608.86
549.51	44105.06
549.68	44011.43
549.84	44463.16
550.01	44144.84
550.18	44020.80
550.34	43875.68
550.51	43913.13
550.68	44156.55
550.84	43416.94
551.01	43995.05
551.18	44191.65
551.34	44081.65
551.51	43952.92
551.68	44629.34
551.84	44690.19
552.01	44205.70
552.18	44516.99
552.34	44060.58
552.51	44584.86
552.68	44278.25
552.84	44545.08
553.01	44215.06
553.18	44444.43
553.34	44617.63
553.51	44376.56
553.67	44699.55
553.84	44891.48
554.01	44790.83
554.17	44807.22
554.34	44769.77
554.51	44999.14
554.67	45184.04
554.84	44414.01
555.00	44844.66
555.17	44772.11
555.33	44828.28
555.50	44858.71
555.67	44781.47
555.83	44821.26
556.00	44926.58
556.16	45350.22
556.33	44917.22
556.50	45116.17
556.66	44994.46
556.83	44952.33
556.99	45205.11
557.16	45329.16
557.32	45106.80
557.49	45137.23
557.65	44837.64
557.82	45165.32
557.98	45048.29
558.15	45177.02
558.32	45443.84
558.48	44912.54
558.65	45394.69
558.81	45174.68
558.98	45027.23
559.14	45184.04
559.31	45504.70
559.47	45689.60
559.64	45429.80
559.80	45537.46
559.97	45113.83
560.13	45113.83
560.30	45312.77
560.46	45415.76
560.63	45160.64
560.79	45883.86
560.96	45603.00
561.12	45038.93
561.29	45361.92
561.45	45577.25
561.61	45617.04
561.78	45565.55
561.94	45390.01
562.11	45427.46
562.27	45797.26
562.44	45752.79
562.60	45378.31
562.77	45682.58
562.93	45490.65
563.10	45790.24
563.26	45724.71
563.42	45457.88
563.59	45464.91
563.75	45439.16
563.92	45628.74
564.08	45886.20
564.24	46190.47
564.41	45708.32
564.57	45530.44
564.74	45825.35
564.90	45677.90
565.07	45965.78
565.23	45708.32
565.39	45574.91
565.56	45715.34
565.72	45483.63
565.88	45968.12
566.05	45661.51
566.21	45586.61
566.38	45469.59
566.54	45897.91
566.70	45675.55
566.87	46171.75
567.03	45813.65
567.19	46108.55
567.36	45738.75
567.52	46036.00
567.68	45446.18
567.85	45961.10
568.01	46246.65
568.17	45790.24
568.34	46099.19
568.50	46010.25
568.66	46120.26
568.83	45851.09
568.99	45757.47
569.15	45518.74
569.32	45645.13
569.48	45811.31
569.64	46314.52
569.81	45951.74
569.97	46190.47
570.13	45776.20
570.30	45769.18
570.46	46050.04
570.62	45354.90
570.78	45722.37
570.95	45731.73
571.11	46092.17
571.27	45832.37
571.43	45773.86
571.60	45797.26
571.76	45911.95
571.92	46094.51
572.09	46192.81
572.25	45888.54
572.41	45928.33
572.57	46232.60
572.74	46405.80
572.90	45989.19
573.06	46426.87
573.22	46073.45
573.38	46115.58
573.55	46199.83
573.71	46160.05
573.87	46391.76
574.03	46188.13
574.20	46689.01
574.36	46036.00
574.52	45996.21
574.68	46092.17
574.84	45911.95
575.01	45787.90
575.17	45991.53
575.33	45794.92
575.49	46419.84
575.65	46195.15
575.82	46375.37
575.98	46057.06
576.14	46464.32
576.30	46363.67
576.46	46043.02
576.62	45890.88
576.79	46244.30
576.95	45811.31
577.11	46511.13
577.27	46183.45
577.43	46756.88
577.59	46117.92
577.75	46237.28
577.92	45844.07
578.08	46087.49
578.24	45783.22
578.40	46026.63
578.56	46454.95
578.72	46328.56
578.88	46396.44
579.04	46204.52
579.21	46295.80
579.37	46138.98
579.53	46506.44
579.69	46153.02
579.85	46469.00
580.01	46368.35
580.17	46206.86
580.33	46417.50
580.49	46043.02
580.65	46567.30
580.82	46019.61
580.98	46085.15
581.14	46326.22
581.30	46642.20
581.46	46370.69
581.62	46110.89
581.78	46457.29
581.94	46686.67
582.10	46499.42
582.26	46340.27
582.42	46092.17
582.58	46391.76
582.74	46473.68
582.90	46471.34
583.06	46436.23
583.22	46731.14
583.38	46663.26
583.54	46354.31
583.70	46597.73
583.86	46202.18
584.02	45879.18
584.18	46483.04
584.34	46380.06
584.50	46220.90
584.66	46529.85
584.82	46319.20
584.98	46162.39
585.14	46361.33
585.30	46501.76
585.46	46417.50
585.62	46277.07
585.78	46014.93
585.94	45933.01
586.10	45815.99
586.26	45858.12
586.42	46459.63
586.58	47026.04
586.74	46162.39
586.90	46279.41
587.06	46218.56
587.22	46344.95
587.38	45949.40
587.54	46539.21
587.70	46653.90
587.86	46209.20
588.02	46223.24
588.18	46504.10
588.34	46047.70
588.49	45734.07
588.65	45921.31
588.81	45713.00
588.97	45823.01
589.13	45647.47
589.29	45642.79
589.45	45958.76
589.61	46146.00
589.77	46417.50
589.93	46408.14
590.08	46459.63
590.24	46550.91
590.40	46459.63
590.56	47047.11
590.72	46160.05
590.88	46068.76
591.04	46426.87
591.20	47009.66
591.35	46766.24
591.51	46848.16
591.67	46548.57
591.83	46433.89
591.99	46419.84
592.15	46714.75
592.31	46574.32
592.46	46433.89
592.62	46600.07
592.78	46501.76
592.94	46541.55
593.10	46157.70
593.26	46450.27
593.41	46525.17
593.57	46309.84
593.73	46667.94
593.89	46422.19
594.05	46438.57
594.20	46314.52
594.36	46824.76
594.52	46417.50
594.68	46265.37
594.84	46256.01
594.99	46651.56
595.15	46623.47
595.31	46445.59
595.47	46328.56
595.62	46691.35
595.78	45874.50
595.94	46909.02
596.10	46487.72
596.25	46932.42
596.41	46700.71
596.57	46459.63
596.73	46770.93
596.88	46660.92
597.04	46569.64
597.20	46415.16
597.36	46377.72
597.51	46485.38
597.67	46911.36
597.83	46232.60
597.99	47037.75
598.14	46733.48
598.30	46382.40
598.46	46759.22
598.61	46595.38
598.77	46492.40
598.93	46188.13
599.09	46417.50
599.24	47255.42
599.40	46632.83
599.56	46408.14
599.71	46946.47
599.87	46794.33
600.03	46356.65
600.18	46602.41
600.34	46216.22
600.50	46513.47
600.65	46873.91
600.81	46347.29
600.97	46703.05
601.12	46759.22
601.28	46955.83
601.44	46543.89
601.59	46314.52
601.75	46344.95
601.91	46504.10
602.06	46335.59
602.22	46712.41
602.37	46674.96
602.53	46417.50
602.69	46618.79
602.84	46192.81
603.00	46164.73
603.16	46426.87
603.31	46349.63
603.47	46593.04
603.62	46632.83
603.78	46801.35
603.94	46454.95
604.09	46726.46
604.25	46784.97
604.40	46511.13
604.56	46309.84
604.71	46440.91
604.87	46110.89
605.03	46096.85
605.18	46003.23
605.34	46579.00
605.49	46143.66
605.65	46183.45
605.80	46216.22
605.96	46909.02
606.12	46438.57
606.27	46646.88
606.43	46590.70
606.58	46337.93
606.74	46075.79
606.89	45958.76
607.05	46419.84
607.20	46335.59
607.36	45993.87
607.51	46693.69
607.67	46185.79
607.82	46026.63
607.98	46387.08
608.13	46043.02
608.29	46239.62
608.44	46026.63
608.60	45982.16
608.75	45736.41
608.91	46078.13
609.06	45743.43
609.22	46209.20
609.37	45904.93
609.53	45815.99
609.68	45815.99
609.84	45670.87
609.99	45921.31
610.15	45647.47
610.30	45656.83
610.46	45610.02
610.61	45895.56
610.76	46045.36
610.92	46019.61
611.07	46115.58
611.23	45895.56
611.38	45769.18
611.54	45668.53
611.69	45689.60
611.84	45801.94
612.00	45530.44
612.15	45696.62
612.31	45532.78
612.46	45214.47
612.62	45883.86
612.77	45581.93
612.92	45717.68
613.08	45738.75
613.23	45591.30
613.39	45989.19
613.54	45696.62
613.69	45277.66
613.85	45324.47
614.00	45579.59
614.15	46019.61
614.31	45195.74
614.46	45635.77
614.62	45694.28
614.77	45296.39
614.92	45748.11
615.08	45085.74
615.23	45034.25
615.38	44872.75
615.54	44783.81
615.69	44959.35
615.84	45120.85
616.00	44875.09
616.15	45139.57
616.30	45172.34
616.46	44938.29
616.61	45041.27
616.76	44737.00
616.92	44884.45
617.07	44692.53
617.22	44912.54
617.37	44706.57
617.53	45481.29
617.68	45315.11
617.83	45139.57
617.99	44966.37
618.14	44809.56
618.29	45167.66
618.45	44568.48
618.60	44610.61
618.75	44760.40
618.90	44636.36
619.06	45043.61
619.21	45207.45
619.36	44832.96
619.51	44832.96
619.67	44327.41
619.82	44802.53
619.97	44594.23
620.12	44545.08
620.28	44179.95
620.43	44996.80
620.58	44692.53
620.73	44896.16
620.89	44299.32
621.04	44341.45
621.19	44416.35
621.34	44418.69
621.49	44308.68
621.65	44655.08
621.80	44147.18
621.95	43997.39
622.10	44182.29
622.25	43672.06
622.41	43894.41
622.56	43686.10
622.71	44177.61
622.86	44605.93
623.01	44172.93
623.16	43988.03
623.32	44062.93
623.47	44524.01
623.62	43885.04
623.77	44254.85
623.92	43786.74
624.07	44215.06
624.23	43430.98
624.38	43723.55
624.53	43353.74
624.68	43590.14
624.83	43936.54
624.98	43393.53
625.13	43255.44
625.29	43545.67
625.44	43021.39
625.59	43447.36
625.74	43199.27
625.89	43084.58
626.04	43264.80
626.19	43297.57
626.34	42663.28
626.49	43306.93
626.65	43304.59
626.80	43753.97
626.95	43599.50
627.10	43026.07
627.25	43501.20
627.40	42981.60
627.55	42752.23
627.70	42316.89
627.85	42770.95
628.00	42368.38
628.15	42609.45
628.30	42653.92
628.45	42981.60
628.60	42902.02
628.76	43103.31
628.91	42864.57
629.06	42864.57
629.21	42431.57
629.36	42962.87
629.51	42679.67
629.66	42209.22
629.81	42192.84
629.96	42824.78
630.11	42600.09
630.26	42801.38
630.41	42597.75
630.56	42525.19
630.71	42312.20
630.86	42873.93
631.01	42459.66
631.16	42614.13
631.31	42440.93
631.46	41743.45
631.61	41972.83
631.76	42642.22
631.91	42471.36
632.06	42256.03
632.21	42113.26
632.36	42405.83
632.51	42241.99
632.66	42010.28
632.81	41968.15
632.96	42143.69
633.10	41951.76
633.25	42143.69
633.40	42422.21
633.55	42220.92
633.70	41776.22
633.85	42031.34
634.00	42195.18
634.15	42052.41
634.30	41813.67
634.45	41940.06
634.60	41708.35
634.75	41855.80
634.90	41727.07
635.05	42014.96
635.19	41579.62
635.34	41958.78
635.49	41727.07
635.64	41720.05
635.79	41612.38
635.94	41743.45
636.09	41902.61
636.24	41371.31
636.39	40849.37
636.53	41287.05
636.68	41666.22
636.83	41390.03
636.98	41773.88
637.13	41745.80
637.28	41722.39
637.43	41397.06
637.57	41553.87
637.72	41277.69
637.87	41092.79
638.02	41535.15
638.17	41457.91
638.32	41123.21
638.46	41074.06
638.61	41315.14
638.76	40816.60
638.91	41514.08
639.06	40505.31
639.20	41478.97
639.35	41219.17
639.50	41450.89
639.65	41441.53
639.80	41177.04
639.94	40697.24
640.09	40861.07
640.24	40800.22
640.39	40051.25
640.54	40343.81
640.68	40634.04
640.83	40697.24
640.98	40495.95
641.13	40744.05
641.27	40840.01
641.42	40612.98
641.57	40425.73
641.72	40311.05
641.86	40264.24
642.01	40404.67
642.16	40421.05
642.31	39819.53
642.45	40268.92
642.60	40432.75
642.75	40156.57
642.90	40311.05
643.04	40730.00
643.19	40313.39
643.34	40231.47
643.48	40278.28
643.63	39798.47
643.78	39901.45
643.93	40556.80
644.07	39885.07
644.22	40032.52
644.37	39632.29
644.51	39796.13
644.66	40495.95
644.81	39639.31
644.95	40320.41
645.10	40156.57
645.25	39941.24
645.39	39864.00
645.54	39814.85
645.69	39543.35
645.83	39777.40
645.98	39929.54
646.13	39700.17
646.27	40154.23
646.42	39611.23
646.57	39784.43
646.71	39199.29
646.86	39765.70
647.00	39512.92
647.15	39992.73
647.30	39466.11
647.44	39606.55
647.59	39576.12
647.74	39271.85
647.88	39248.44
648.03	39157.16
648.17	39480.16
648.32	39482.50
648.47	39416.96
648.61	38904.38
648.76	39318.66
648.90	39351.43
649.05	39321.00
649.20	39409.94
649.34	39372.49
649.49	38792.04
649.63	38785.02
649.78	38864.60
649.92	39339.72
650.07	39885.07
650.21	39110.35
650.36	39246.10
650.51	39016.73
650.65	39281.21
650.80	39243.76
650.94	39386.54
651.09	38801.40
651.23	38850.55
651.38	38974.60
651.52	39026.09
651.67	38756.93
651.81	38810.76
651.96	38459.68
652.10	38546.28
652.25	38747.57
652.39	38796.72
652.54	38677.35
652.68	39159.50
652.83	38440.96
652.97	38766.29
653.12	38569.69
653.26	38286.48
653.41	38796.72
653.55	37844.12
653.70	38342.66
653.84	38719.48
653.99	38178.82
654.13	38305.21
654.27	37944.76
654.42	38223.29
654.56	37862.85
654.71	38557.99
654.85	38595.43
655.00	38029.02
655.14	37933.06
655.29	37778.59
655.43	37745.82
655.57	37893.27
655.72	37488.36
655.86	37652.20
656.01	37549.21
656.15	37628.79
656.30	37834.76
656.44	38066.47
656.58	37312.82
656.73	37270.69
656.87	37666.24
657.01	37715.39
657.16	37809.01
657.30	37361.97
657.45	37099.83
657.59	37448.57
657.73	37427.51
657.88	37958.81
658.02	37811.35
658.16	37902.64
658.31	37954.13
658.45	37453.25
658.60	37322.18
658.74	37387.72
658.88	37385.38
659.03	37013.23
659.17	36959.40
659.31	36753.43
659.46	37038.98
659.60	37235.58
659.74	36889.18
659.89	36673.85
660.03	36704.28
660.17	37263.67
660.32	36907.91
660.46	36842.37
660.60	36837.69
660.74	36783.86
660.89	36985.15
661.03	36875.14
661.17	36573.21
661.32	36760.45
661.46	36121.49
661.60	36390.65
661.74	36247.88
661.89	36540.44
662.03	36282.98
662.17	36301.71
662.31	35938.93
662.46	36561.51
662.60	36329.80
662.74	36084.04
662.88	36067.66
663.03	35971.69
663.17	36297.03
663.31	35812.54
663.45	35849.99
663.60	35847.64
663.74	35681.47
663.88	35793.81
664.02	35679.13
664.17	35606.57
664.31	35431.03
664.45	35669.76
664.59	35569.12
664.73	35503.59
664.88	35854.67
665.02	35068.25
665.16	35056.54
665.30	34672.70
665.44	35040.16
665.59	35033.14
665.73	35122.08
665.87	35119.74
666.01	34660.99
666.15	35131.44
666.29	35030.80
666.44	34916.11
666.58	34635.25
666.72	34834.19
666.86	34705.46
667.00	34686.74
667.14	34972.28
667.28	34244.38
667.43	34190.55
667.57	34632.91
667.71	34345.02
667.85	34520.56
667.99	34167.14
668.13	34216.29
668.27	34136.71
668.41	34319.28
668.56	33525.83
668.70	34323.96
668.84	33827.76
668.98	33692.01
669.12	33111.56
669.26	33656.90
669.40	33553.92
669.54	33631.16
669.68	33858.19
669.82	33460.30
669.96	33170.07
670.10	33259.01
670.25	33432.21
670.39	33340.93
670.53	33149.01
670.67	32992.19
670.81	33565.62
670.95	33450.94
671.09	33163.05
671.23	32648.13
671.37	32929.00
671.51	32591.96
671.65	32554.51
671.79	32737.07
671.93	32638.77
672.07	32910.27
672.21	32947.72
672.35	32540.47
672.49	32697.28
672.63	32620.05
672.77	32563.87
672.91	32402.38
673.05	32091.09
673.19	32313.44
673.33	32215.13
673.47	32147.26
673.61	32009.17
673.75	31810.22
673.89	31824.26
674.03	31197.00
674.17	31695.53
674.31	31718.94
674.45	31314.03
674.59	31431.05
674.73	31414.67
674.87	31388.92
675.01	31094.02
675.15	30948.90
675.29	31140.83
675.43	31222.75
675.56	31037.84
675.70	30759.32
675.84	30745.28
675.98	30026.73
676.12	30588.46
676.26	30700.81
676.40	30522.93
676.54	31005.08
676.68	30623.57
676.82	29993.97
676.96	30132.06
677.10	30199.93
677.23	30005.67
677.37	29649.91
677.51	29811.40
677.65	29563.31
677.79	29242.65
677.93	29544.58
678.07	29263.72
678.21	28898.59
678.34	28823.70
678.48	28922.00
678.62	28833.06
678.76	28402.40
678.90	28554.54
679.04	28496.02
679.18	28395.38
679.31	28444.53
679.45	27978.76
679.59	28222.18
679.73	27576.19
679.87	27662.79
680.00	28245.58
680.14	27960.04
680.28	27946.00
680.42	27938.97
680.56	27997.49
680.70	27524.70
680.83	27824.29
680.97	27297.67
681.11	27234.47
681.25	27374.91
681.39	26941.91
681.52	27442.78
681.66	27218.09
681.80	27365.54
681.94	27084.68
682.07	26859.99
682.21	26761.69
682.35	26899.78
682.49	26815.52
682.62	26824.88
682.76	26441.03
682.90	26387.20
683.04	26370.82
683.17	26157.83
683.31	26263.15
683.45	26230.38
683.59	26010.37
683.72	25773.98
683.86	25923.77
684.00	26356.77
684.13	25773.98
684.27	25420.56
684.41	25277.79
684.55	25511.84
684.68	25223.95
684.82	25235.66
684.96	25432.26
685.09	25422.90
685.23	24907.98
685.37	24727.76
685.50	24996.92
685.64	24678.61
685.78	24746.48
685.91	24156.67
686.05	24219.86
686.19	23943.68
686.32	24079.43
686.46	23536.43
686.60	23419.40
686.73	23644.09
686.87	23550.47
687.01	23414.72
687.14	23388.97
687.28	23084.70
687.42	23227.48
687.55	23271.95
687.69	23442.81
687.82	23314.08
687.96	23358.55
688.10	23077.68
688.23	22829.59
688.37	22951.29
688.50	22869.37
688.64	22324.03
688.78	22867.03
688.91	22618.94
689.05	22485.53
689.18	22284.24
689.32	22221.05
689.46	22059.55
689.59	22347.44
689.73	22473.82
689.86	22214.02
690.00	21682.72
690.13	22195.30
690.27	21804.43
690.41	21539.95
690.54	21312.92
690.68	21429.94
690.81	21060.14
690.95	21357.39
691.08	21390.16
691.22	21085.89
691.35	21364.41
691.49	21273.13
691.62	21467.39
691.76	21053.12
691.89	20648.21
692.03	20613.10
692.16	21053.12
692.30	20278.40
692.43	20311.17
692.57	20058.39
692.70	20306.49
692.84	20095.84
692.97	20056.05
693.11	20400.11
693.24	19861.79
693.38	19899.23
693.51	19726.04
693.65	19908.60
693.78	19775.19
693.92	19534.11
694.05	19351.55
694.19	19632.41
694.32	19318.78
694.45	19145.58
694.59	18946.64
694.72	18918.55
694.86	19019.19
694.99	18860.04
695.13	18778.12
695.26	18845.99
695.39	18518.32
695.53	18761.73
695.66	18984.09
695.80	18705.56
695.93	18558.11
696.07	18190.64
696.20	18635.35
696.33	18249.16
696.47	18146.17
696.60	18349.80
696.73	17816.16
696.87	17947.23
697.00	18120.43
697.14	17853.61
697.27	17715.51
697.40	17640.62
697.54	17366.78
697.67	17465.08
697.80	17465.08
697.94	17125.70
698.07	17167.83
698.21	17067.19
698.34	17277.83
698.47	17008.67
698.61	16746.53
698.74	16844.84
698.87	16556.95
699.01	16617.80
699.14	16547.59
699.27	16498.44
699.40	16311.19
699.54	16468.01
699.67	16376.73
699.80	16402.47
699.94	16184.80
700.07	16217.57
700.20	16233.96
700.34	16042.03
700.47	16105.23
700.60	16121.61
700.73	16226.93
700.87	15915.64
701.00	15850.11
701.13	15183.06
701.26	15183.06
701.40	15616.05
701.53	15330.51
701.66	15630.10
701.79	15290.72
701.93	15103.48
702.06	15166.67
702.19	15087.09
702.32	15255.61
702.46	15059.01
702.59	14902.19
702.72	14951.34
702.85	14689.20
702.99	14736.01
703.12	14881.13
703.25	14778.14
703.38	14389.61
703.51	14548.77
703.65	14300.67
703.78	14354.51
703.91	14223.44
704.04	14099.39
704.17	13930.87
704.31	13762.35
704.44	14265.57
704.57	13891.08
704.70	13767.03
704.83	13659.37
704.96	13830.23
705.10	13942.57
705.23	13668.73
>>>>>End Processed Spectral Data<<<<<
