SpectraSuite Data File
++++++++++++++++++++++++++++++++++++
Date: Fri Oct 25 10:43:42 EDT 2013
User: price-jones
Dark Spectrum Present: No
Reference Spectrum Present: No
Number of Sampled Component Spectra: 1
Spectrometers: USB2+H05261
Integration Time (usec): 100000 (USB2+H05261)
Spectra Averaged: 1 (USB2+H05261)
Boxcar Smoothing: 0 (USB2+H05261)
Correct for Electrical Dark: No (USB2+H05261)
Strobe/Lamp Enabled: No (USB2+H05261)
Correct for Detector Non-linearity: No (USB2+H05261)
Correct for Stray Light: No (USB2+H05261)
Number of Pixels in Processed Spectrum: 2048
>>>>>Begin Processed Spectral Data<<<<<
365.73	110.01
365.92	110.01
366.12	110.01
366.32	30.43
366.52	81.92
366.72	14.04
366.91	0.00
367.11	0.00
367.31	39.79
367.51	0.00
367.70	21.06
367.90	18.72
368.10	14.04
368.30	30.43
368.49	14.04
368.69	86.60
368.89	2.34
369.09	56.17
369.28	147.45
369.48	60.85
369.68	98.30
369.87	112.35
370.07	147.45
370.27	145.11
370.47	149.79
370.66	365.12
370.86	442.36
371.06	428.32
371.25	512.58
371.45	477.47
371.65	479.81
371.84	479.81
372.04	489.17
372.24	559.39
372.44	484.49
372.63	533.64
372.83	514.92
373.03	519.60
373.22	554.71
373.42	547.69
373.62	554.71
373.81	564.07
374.01	629.60
374.21	571.09
374.40	552.37
374.60	571.09
374.79	571.09
374.99	636.63
375.19	566.41
375.38	564.07
375.58	547.69
375.78	645.99
375.97	521.94
376.17	671.73
376.37	608.54
376.56	622.58
376.76	596.84
376.95	627.26
377.15	587.47
377.35	681.10
377.54	697.48
377.74	650.67
377.93	629.60
378.13	557.05
378.33	709.18
378.52	699.82
378.72	716.20
378.91	725.57
379.11	648.33
379.31	603.86
379.50	695.14
379.70	664.71
379.89	718.54
380.09	690.46
380.28	615.56
380.48	727.91
380.68	674.07
380.87	676.41
381.07	760.67
381.26	683.44
381.46	683.44
381.65	755.99
381.85	713.86
382.04	727.91
382.24	664.71
382.43	629.60
382.63	711.52
382.83	702.16
383.02	650.67
383.22	702.16
383.41	819.19
383.61	779.40
383.80	704.50
384.00	678.76
384.19	805.14
384.39	821.53
384.58	746.63
384.78	784.08
384.97	807.48
385.17	734.93
385.36	751.31
385.56	805.14
385.75	823.87
385.95	842.59
386.14	870.68
386.34	798.12
386.53	807.48
386.72	802.80
386.92	905.79
387.11	828.55
387.31	877.70
387.50	795.78
387.70	847.27
387.89	849.61
388.09	880.04
388.28	840.25
388.48	926.85
388.67	1006.43
388.86	908.13
389.06	837.91
389.25	978.34
389.45	985.37
389.64	985.37
389.84	1025.15
390.03	1013.45
390.22	973.66
390.42	1013.45
390.61	950.26
390.81	1020.47
391.00	1043.88
391.19	1086.01
391.39	1036.86
391.58	1095.37
391.78	994.73
391.97	1034.52
392.16	978.34
392.36	1046.22
392.55	1076.65
392.75	1067.28
392.94	1022.81
393.13	1034.52
393.33	1064.94
393.52	973.66
393.71	1104.73
393.91	1156.22
394.10	1118.78
394.29	1083.67
394.49	1193.67
394.68	1231.12
394.88	1219.42
395.07	1228.78
395.26	1146.86
395.46	1242.82
395.65	1294.32
395.84	1282.61
396.04	1348.15
396.23	1224.10
396.42	1179.63
396.62	1226.44
396.81	1200.69
397.00	1139.84
397.19	1247.51
397.39	1289.64
397.58	1348.15
397.77	1383.26
397.97	1444.11
398.16	1401.98
398.35	1488.58
398.55	1495.60
398.74	1540.07
398.93	1643.06
399.12	1486.24
399.32	1533.05
399.51	1504.96
399.70	1638.38
399.90	1526.03
400.09	1558.80
400.28	1593.90
400.47	1633.69
400.67	1746.04
400.86	1664.12
401.05	1629.01
401.24	1687.53
401.44	1757.74
401.63	1715.61
401.82	1743.70
402.01	1685.19
402.21	1748.38
402.40	1694.55
402.59	1727.32
402.78	1741.36
402.97	1757.74
403.17	1764.76
403.36	1746.04
403.55	1741.36
403.74	1778.81
403.93	1956.69
404.13	1823.28
404.32	1909.88
404.51	1781.15
404.70	1914.56
404.89	1949.67
405.09	2057.33
405.28	2022.22
405.47	1942.64
405.66	1996.48
405.85	2024.56
406.05	1989.46
406.24	1984.77
406.43	1984.77
406.62	2003.50
406.81	2134.57
407.00	2059.67
407.20	2022.22
407.39	2078.40
407.58	2214.15
407.77	2246.91
407.96	2282.02
408.15	2277.34
408.34	2148.61
408.54	2373.30
408.73	2282.02
408.92	2265.64
409.11	2284.36
409.30	2319.47
409.49	2118.18
409.68	2314.79
409.87	2284.36
410.07	2335.85
410.26	2347.56
410.45	2443.52
410.64	2368.62
410.83	2518.42
411.02	2565.23
411.21	2619.06
411.40	2595.65
411.59	2635.44
411.78	2579.27
411.98	2726.72
412.17	2675.23
412.36	2759.49
412.55	2764.17
412.74	2700.98
412.93	2766.51
413.12	2796.94
413.31	2935.03
413.50	2897.58
413.69	2960.78
413.88	2984.18
414.07	3026.31
414.26	3014.61
414.45	3000.57
414.64	2846.09
414.83	3056.74
415.02	2946.73
415.22	3164.40
415.41	3155.04
415.60	3091.85
415.79	3232.28
415.98	3218.24
416.17	3197.17
416.36	3269.73
416.55	3276.75
416.74	3222.92
416.93	3309.52
417.12	3349.31
417.31	3339.94
417.50	3262.71
417.69	3520.17
417.88	3489.74
418.07	3482.72
418.26	3569.32
418.45	3480.38
418.64	3496.76
418.83	3492.08
419.02	3417.18
419.21	3702.73
419.39	3695.71
419.58	3555.27
419.77	3611.45
419.96	3698.05
420.15	3789.33
420.34	3541.23
420.53	3911.04
420.72	3857.20
420.91	3721.45
421.10	3920.40
421.29	3899.33
421.48	3801.03
421.67	3861.88
421.86	3922.74
422.05	3936.78
422.24	3836.14
422.43	3967.21
422.61	3819.75
422.80	4117.00
422.99	3761.24
423.18	3960.19
423.37	4105.30
423.56	3960.19
423.75	4025.72
423.94	3854.86
424.13	3761.24
424.32	3801.03
424.50	3971.89
424.69	4182.54
424.88	4063.17
425.07	3927.42
425.26	3967.21
425.45	4086.58
425.64	3971.89
425.83	3946.14
426.01	4138.07
426.20	3911.04
426.39	4046.79
426.58	4084.23
426.77	4032.74
426.96	3981.25
427.15	3997.64
427.33	4100.62
427.52	3978.91
427.71	4177.86
427.90	4173.18
428.09	4243.39
428.28	4241.05
428.46	4231.69
428.65	4236.37
428.84	4290.20
429.03	4301.90
429.22	4287.86
429.40	4145.09
429.59	4014.02
429.78	3988.27
429.97	3894.65
430.16	3974.23
430.34	4231.69
430.53	4175.52
430.72	4250.41
430.91	4205.94
431.10	4245.73
431.28	4423.61
431.47	4564.04
431.66	4676.39
431.85	4592.13
432.03	4723.20
432.22	4674.05
432.41	4636.60
432.60	4709.16
432.79	4674.05
432.97	4795.76
433.16	4807.46
433.35	4706.82
433.54	4767.67
433.72	4638.94
433.91	4725.54
434.10	4725.54
434.28	4706.82
434.47	5006.41
434.66	4858.95
434.85	4992.36
435.03	4924.49
435.22	4910.44
435.41	5135.14
435.59	5165.56
435.78	5151.52
435.97	5205.35
436.16	5270.89
436.34	5245.14
436.53	5165.56
436.72	5212.37
436.90	5135.14
437.09	5205.35
437.28	5259.18
437.46	5214.71
437.65	5149.18
437.84	5165.56
438.02	5226.42
438.21	5219.39
438.40	5270.89
438.58	5467.49
438.77	5479.19
438.96	5514.30
439.14	5526.00
439.33	5617.29
439.52	5713.25
439.70	5682.82
439.89	5689.84
440.08	5977.73
440.26	5771.76
440.45	5767.08
440.63	5825.59
440.82	6127.52
441.01	5968.37
441.19	6043.26
441.38	6052.63
441.57	6176.67
441.75	6246.89
441.94	6338.17
442.12	6305.40
442.31	6317.11
442.50	6389.66
442.68	6443.49
442.87	6370.94
443.05	6289.02
443.24	6408.39
443.43	6445.84
443.61	6377.96
443.80	6555.84
443.98	6448.18
444.17	6321.79
444.35	6579.25
444.54	6691.59
444.73	6539.46
444.91	6466.90
445.10	6471.58
445.28	6604.99
445.47	6455.20
445.65	6431.79
445.84	6480.94
446.02	6621.38
446.21	6628.40
446.39	6593.29
446.58	6710.32
446.77	6761.81
446.95	6637.76
447.14	6675.21
447.32	6759.47
447.51	6834.36
447.69	6722.02
447.88	6698.61
448.06	6902.24
448.25	6693.93
448.43	6782.87
448.62	6607.33
448.80	6663.51
448.99	6883.52
449.17	6878.83
449.36	6785.21
449.54	7021.61
449.73	7276.73
449.91	7152.68
450.10	7206.51
450.28	7190.13
450.46	7232.26
450.65	7227.57
450.83	7110.55
451.02	7309.49
451.20	7346.94
451.39	7424.18
451.57	7405.46
451.76	7236.94
451.94	7199.49
452.13	7241.62
452.31	7304.81
452.49	7131.61
452.68	7178.42
452.86	7143.32
453.05	7314.17
453.23	7382.05
453.42	7253.32
453.60	7419.50
453.78	7492.05
453.97	7344.60
454.15	7424.18
454.34	7508.44
454.52	7428.86
454.70	7543.55
454.89	7599.72
455.07	7564.61
455.26	7400.77
455.44	7730.79
455.62	7782.28
455.81	7922.71
455.99	7747.17
456.17	7801.01
456.36	7822.07
456.54	7960.16
456.73	7854.84
456.91	8084.21
457.09	8112.30
457.28	8091.23
457.46	7985.91
457.64	8105.28
457.83	8294.86
458.01	8006.97
458.19	8170.81
458.38	8049.10
458.56	8379.12
458.74	8285.50
458.93	8322.94
459.11	8259.75
459.29	8456.36
459.48	8400.18
459.66	8297.20
459.84	8425.93
460.03	8547.64
460.21	8446.99
460.39	8636.58
460.57	8678.71
460.76	8657.64
460.94	8617.85
461.12	8734.88
461.31	8608.49
461.49	8685.73
461.67	8727.86
461.85	8952.55
462.04	8744.24
462.22	9100.00
462.40	8924.46
462.59	8781.69
462.77	8903.40
462.95	8980.64
463.13	8990.00
463.32	8875.31
463.50	9198.31
463.68	8940.85
463.86	8924.46
464.05	8910.42
464.23	9011.06
464.41	9062.55
464.59	8933.82
464.78	9364.48
464.96	9156.18
465.14	9032.13
465.32	9322.35
465.50	9294.27
465.69	9273.20
465.87	9399.59
466.05	9336.40
466.23	9224.05
466.41	9125.75
466.60	9558.75
466.78	9191.28
466.96	9287.25
467.14	9357.46
467.32	9453.42
467.51	9497.89
467.69	9177.24
467.87	9502.58
468.05	9696.84
468.23	9441.72
468.41	9432.36
468.60	9533.00
468.78	9851.31
468.96	9689.82
469.14	9678.12
469.32	9937.91
469.50	9554.07
469.69	9863.02
469.87	9872.38
470.05	9874.72
470.23	9781.10
470.41	9996.43
470.59	9984.73
470.77	9856.00
470.95	9998.77
471.14	10143.88
471.32	10022.17
471.50	10246.87
471.68	10314.74
471.86	10361.55
472.04	10326.44
472.22	10518.37
472.40	10244.52
472.58	10223.46
472.77	10604.97
472.95	10457.51
473.13	11037.97
473.31	10565.18
473.49	10616.67
473.67	10480.92
473.85	10832.00
474.03	11049.67
474.21	10801.57
474.39	11154.99
474.57	11213.51
474.75	10986.47
474.93	11255.64
475.12	11016.90
475.30	11316.49
475.48	11227.55
475.66	11253.30
475.84	11295.43
476.02	11548.20
476.20	11396.07
476.38	11475.65
476.56	12049.08
476.74	11899.28
476.92	12147.38
477.10	11927.37
477.28	12184.83
477.46	12145.04
477.64	12074.82
477.82	12468.03
478.00	12561.66
478.18	12594.42
478.36	12704.43
478.54	12674.00
478.72	12929.12
478.90	12985.29
479.08	13107.00
479.26	13053.17
479.44	13144.45
479.62	13432.33
479.80	13268.50
479.98	13474.46
480.16	13846.61
480.34	13715.54
480.52	14155.56
480.70	13661.71
480.88	13537.66
481.06	14033.85
481.24	13846.61
481.41	14338.12
481.59	14359.19
481.77	14483.24
481.95	14431.74
482.13	14499.62
482.31	14677.50
482.49	14998.15
482.67	14946.66
482.85	15159.65
483.03	15487.32
483.21	15590.31
483.39	15803.30
483.57	15400.72
483.74	15503.71
483.92	15997.56
484.10	15669.89
484.28	15784.57
484.46	16243.32
484.64	16578.01
484.82	16299.49
485.00	16109.91
485.18	16470.35
485.35	16575.67
485.53	16304.17
485.71	16194.17
485.89	16655.25
486.07	16634.19
486.25	16669.30
486.43	17139.74
486.61	17252.09
486.78	17132.72
486.96	17429.97
487.14	17652.32
487.32	17678.07
487.50	18200.01
487.68	18263.20
487.85	18508.96
488.03	18707.90
488.21	18609.60
488.39	18429.38
488.57	18633.00
488.75	18970.04
488.92	19295.38
489.10	19199.41
489.28	19541.13
489.46	19583.26
489.64	19398.36
489.81	20390.75
489.99	20046.69
490.17	20409.47
490.35	20236.27
490.53	20444.58
490.70	20592.03
490.88	20620.12
491.06	20826.09
491.24	20835.45
491.41	20933.75
491.59	20652.89
491.77	20526.50
491.95	21032.05
492.13	21483.78
492.30	21748.26
492.48	21624.21
492.66	21865.28
492.84	21874.65
493.01	22307.65
493.19	21891.03
493.37	22272.54
493.54	22389.56
493.72	22532.34
493.90	22897.46
494.08	22684.47
494.25	23473.23
494.43	23452.17
494.61	23522.38
494.79	23740.05
494.96	23611.32
495.14	23576.22
495.32	24198.80
495.49	23817.29
495.67	24109.86
495.85	24339.23
496.02	24240.93
496.20	24622.44
496.38	24755.85
496.55	24933.73
496.73	24936.07
496.91	25205.23
497.09	24858.83
497.26	25298.85
497.44	24945.43
497.62	25139.69
497.79	25429.92
497.97	25303.53
498.14	25495.46
498.32	25862.92
498.50	26003.35
498.67	26188.25
498.85	26045.48
499.03	26071.23
499.20	26431.67
499.38	26607.21
499.56	26260.81
499.73	26504.23
499.91	26239.75
500.08	26340.39
500.26	26314.64
500.44	26874.03
500.61	26867.01
500.79	26689.13
500.97	27147.87
501.14	27459.16
501.32	27372.57
501.49	27051.91
501.67	27037.87
501.84	27262.56
502.02	27679.18
502.20	27852.38
502.37	27658.11
502.55	28156.64
502.72	28175.37
502.90	27604.28
503.07	28329.84
503.25	28313.46
503.43	28032.60
503.60	28332.18
503.78	27896.85
503.95	28191.75
504.13	28568.58
504.30	28795.61
504.48	28889.23
504.65	29120.95
504.83	29057.75
505.01	29572.67
505.18	29476.71
505.36	29631.18
505.53	29544.58
505.71	29998.65
505.88	29668.63
506.06	29619.48
506.23	29846.51
506.41	29818.42
506.58	30366.11
506.76	30326.32
506.93	30087.59
507.11	30338.02
507.28	30139.08
507.46	30312.28
507.63	29872.26
507.81	30431.65
507.98	30204.61
508.16	30384.83
508.33	30593.14
508.50	30817.83
508.68	30654.00
508.85	31276.58
509.03	30995.71
509.20	31042.53
509.38	31573.83
509.55	31637.02
509.73	31367.86
509.90	31311.69
510.08	31323.39
510.25	31700.22
510.42	31943.63
510.60	31735.32
510.77	31447.44
510.95	32091.09
511.12	31761.07
511.30	32507.70
511.47	32226.84
511.64	32645.79
511.82	32582.60
511.99	32505.36
512.17	32182.37
512.34	32245.56
512.51	32381.31
512.69	33078.79
512.86	33031.98
513.04	33106.88
513.21	33046.02
513.38	32959.42
513.56	33022.62
513.73	33289.44
513.90	33301.14
514.08	32699.62
514.25	33069.43
514.43	33254.33
514.60	33631.16
514.77	33116.24
514.95	34036.07
515.12	33469.66
515.29	33614.77
515.47	34003.30
515.64	34220.97
515.81	34096.92
515.99	33874.57
516.16	34146.08
516.33	33790.31
516.51	33975.22
516.68	33242.63
516.85	33701.37
517.03	33607.75
517.20	34164.80
517.37	34326.30
517.54	34628.23
517.72	34497.16
517.89	33933.09
518.06	34162.46
518.24	34178.84
518.41	34394.17
518.58	34752.27
518.75	34857.60
518.93	34831.85
519.10	35459.12
519.27	35058.88
519.45	34848.24
519.62	35508.27
519.79	35377.20
519.96	35569.12
520.14	35454.44
520.31	35005.05
520.48	35491.88
520.65	35519.97
520.83	36165.96
521.00	35915.52
521.17	35737.64
521.34	36266.60
521.52	36144.89
521.69	36807.26
521.86	36664.49
522.03	36568.53
522.20	36334.48
522.38	36793.22
522.55	36495.97
522.72	36187.02
522.89	36584.91
523.07	36643.43
523.24	36818.97
523.41	36882.16
523.58	36964.08
523.75	37254.31
523.92	37413.46
524.10	37261.33
524.27	37542.19
524.44	37717.73
524.61	37757.52
524.78	37226.22
524.96	37663.90
525.13	37607.73
525.30	38007.96
525.47	38249.03
525.64	37785.61
525.81	37663.90
525.98	37560.92
526.16	37312.82
526.33	37308.14
526.50	37624.11
526.67	36992.17
526.84	37469.64
527.01	37553.90
527.18	37954.13
527.36	38251.38
527.53	38401.17
527.70	39044.82
527.87	38862.26
528.04	38014.98
528.21	38600.12
528.38	38368.40
528.55	38787.36
528.72	38873.96
528.89	39243.76
529.07	38941.83
529.24	38686.71
529.41	39189.93
529.58	38670.33
529.75	38890.34
529.92	39583.14
530.09	39714.21
530.26	38869.28
530.43	39098.65
530.60	39536.33
530.77	39166.52
530.94	39744.64
531.11	39990.39
531.28	39852.30
531.46	40107.42
531.63	39330.36
531.80	39395.90
531.97	39576.12
532.14	39639.31
532.31	39349.09
532.48	39849.96
532.65	40034.86
532.82	39510.58
532.99	39917.84
533.16	39629.95
533.33	39840.60
533.50	40069.97
533.67	40013.80
533.84	39885.07
534.01	39718.89
534.18	39941.24
534.35	40334.45
534.52	39861.66
534.69	40629.36
534.86	40722.98
535.03	40870.43
535.20	41399.40
535.37	41230.88
535.54	40957.03
535.71	40598.93
535.88	40985.12
536.05	41125.55
536.22	41043.63
536.38	40975.76
536.55	41106.83
536.72	41123.21
536.89	40397.65
537.06	40950.01
537.23	41209.81
537.40	40992.14
537.57	41017.89
537.74	41446.21
537.91	41579.62
538.08	41249.60
538.25	41478.97
538.42	41525.78
538.59	41551.53
538.75	40893.84
538.92	41530.47
539.09	41689.62
539.26	41516.42
539.43	41453.23
539.60	41581.96
539.77	41598.34
539.94	41099.81
540.11	41242.58
540.28	42382.42
540.44	41638.13
540.61	41511.74
540.78	41083.42
540.95	41427.48
541.12	41659.20
541.29	41776.22
541.46	41935.38
541.62	42202.20
541.79	42195.18
541.96	42071.13
542.13	42267.73
542.30	41993.89
542.47	42005.59
542.63	42335.61
542.80	42356.67
542.97	42784.99
543.14	42878.61
543.31	42749.88
543.48	42380.08
543.64	43115.01
543.81	42787.33
543.98	42777.97
544.15	42745.20
544.32	43299.91
544.48	43426.30
544.65	42939.47
544.82	43208.63
544.99	42756.91
545.16	42848.19
545.32	43012.02
545.49	43753.97
545.66	43650.99
545.83	43299.91
546.00	43510.56
546.16	43054.15
546.33	43400.55
546.50	43103.31
546.67	43515.24
546.83	42981.60
547.00	43089.26
547.17	43325.66
547.34	43246.08
547.50	43536.30
547.67	43475.45
547.84	43873.34
548.00	43814.83
548.17	44236.12
548.34	43955.26
548.51	44112.08
548.67	44105.06
548.84	43866.32
549.01	43578.43
549.18	43365.45
549.34	43639.29
549.51	44451.45
549.68	44224.42
549.84	43929.51
550.01	44217.40
550.18	43917.81
550.34	44210.38
550.51	43702.48
550.68	44088.67
550.84	43662.69
551.01	44083.99
551.18	44119.10
551.34	44137.82
551.51	44428.05
551.68	44524.01
551.84	44622.31
552.01	44509.97
552.18	44212.72
552.34	43943.56
552.51	44516.99
552.68	44397.62
552.84	44624.65
553.01	44835.30
553.18	44416.35
553.34	44811.90
553.51	44802.53
553.67	44320.38
553.84	45219.15
554.01	45240.21
554.17	44751.04
554.34	44994.46
554.51	44678.49
554.67	44975.73
554.84	44690.19
555.00	44339.11
555.17	44582.52
555.33	45125.53
555.50	44907.86
555.67	44615.29
555.83	44830.62
556.00	45076.38
556.16	45090.42
556.33	44704.23
556.50	45186.38
556.66	44985.10
556.83	44573.16
556.99	45151.27
557.16	45272.98
557.32	45043.61
557.49	45287.03
557.65	45022.54
557.82	44924.24
557.98	45303.41
558.15	45319.79
558.32	45361.92
558.48	45027.23
558.65	45158.30
558.81	44839.98
558.98	44957.01
559.14	45301.07
559.31	44959.35
559.47	45179.36
559.64	45581.93
559.80	45490.65
559.97	45591.30
560.13	45022.54
560.30	45324.47
560.46	45815.99
560.63	45516.40
560.79	45806.62
560.96	45509.38
561.12	45364.26
561.29	45041.27
561.45	45663.85
561.61	45092.76
561.78	45422.78
561.94	45294.05
562.11	45338.52
562.27	45074.04
562.44	45617.04
562.60	45904.93
562.77	45961.10
562.93	45820.67
563.10	45787.90
563.26	45354.90
563.42	45801.94
563.59	45677.90
563.75	45532.78
563.92	45673.21
564.08	45258.94
564.24	46045.36
564.41	45923.65
564.57	45722.37
564.74	45455.54
564.90	45659.17
565.07	45511.72
565.23	45900.25
565.39	45780.88
565.56	45509.38
565.72	45551.51
565.88	45815.99
566.05	45670.87
566.21	45663.85
566.38	45507.04
566.54	45701.30
566.70	46312.18
566.87	46227.92
567.03	45661.51
567.19	46340.27
567.36	46092.17
567.52	45947.06
567.68	46319.20
567.85	45844.07
568.01	46036.00
568.17	46047.70
568.34	46146.00
568.50	45944.72
568.66	45811.31
568.83	45928.33
568.99	45579.59
569.15	45722.37
569.32	45808.96
569.48	46036.00
569.64	46492.40
569.81	46096.85
569.97	46195.15
570.13	45776.20
570.30	45666.19
570.46	45565.55
570.62	45703.64
570.78	45567.89
570.95	45897.91
571.11	46082.81
571.27	45731.73
571.43	45303.41
571.60	45879.18
571.76	45801.94
571.92	45991.53
572.09	46164.73
572.25	46045.36
572.41	46120.26
572.57	46124.94
572.74	46260.69
572.90	46326.22
573.06	46131.96
573.22	45949.40
573.38	46293.46
573.55	46110.89
573.71	46281.75
573.87	46483.04
574.03	46230.26
574.20	46099.19
574.36	46752.20
574.52	46068.76
574.68	46017.27
574.84	45890.88
575.01	45895.56
575.17	46071.10
575.33	46003.23
575.49	46160.05
575.65	46361.33
575.82	46073.45
575.98	46057.06
576.14	46625.81
576.30	46183.45
576.46	45815.99
576.62	45624.06
576.79	45757.47
576.95	45893.22
577.11	46036.00
577.27	45694.28
577.43	46150.68
577.59	45993.87
577.75	45827.69
577.92	45497.67
578.08	45764.49
578.24	45350.22
578.40	46153.02
578.56	45986.85
578.72	46028.98
578.88	46181.11
579.04	46082.81
579.21	45942.38
579.37	45797.26
579.53	46171.75
579.69	45944.72
579.85	46153.02
580.01	46244.30
580.17	46284.09
580.33	45977.48
580.49	46293.46
580.65	46096.85
580.82	46169.41
580.98	46000.89
581.14	45940.04
581.30	46099.19
581.46	46497.08
581.62	46548.57
581.78	46103.87
581.94	46583.68
582.10	46490.06
582.26	46157.70
582.42	46263.03
582.58	46246.65
582.74	46010.25
582.90	46223.24
583.06	46258.35
583.22	46380.06
583.38	46801.35
583.54	46569.64
583.70	46263.03
583.86	46356.65
584.02	45982.16
584.18	46087.49
584.34	46108.55
584.50	46185.79
584.66	46426.87
584.82	46656.24
584.98	46426.87
585.14	46461.97
585.30	46382.40
585.46	46398.78
585.62	45895.56
585.78	46412.82
585.94	45757.47
586.10	46389.42
586.26	46234.94
586.42	46602.41
586.58	46270.05
586.74	46052.38
586.90	46202.18
587.06	46590.70
587.22	46115.58
587.38	46239.62
587.54	46251.33
587.70	46576.66
587.86	46543.89
588.02	46330.90
588.18	46476.02
588.34	45907.27
588.49	45930.67
588.65	45993.87
588.81	45750.45
588.97	45925.99
589.13	46073.45
589.29	45811.31
589.45	46127.28
589.61	46295.80
589.77	46382.40
589.93	46153.02
590.08	46368.35
590.24	46368.35
590.40	46628.15
590.56	46909.02
590.72	46553.26
590.88	46028.98
591.04	46801.35
591.20	46752.20
591.35	46539.21
591.51	46850.50
591.67	46150.68
591.83	46258.35
591.99	46267.71
592.15	46349.63
592.31	46733.48
592.46	46564.96
592.62	46773.27
592.78	46394.10
592.94	46560.28
593.10	46412.82
593.26	46557.94
593.41	46656.24
593.57	46401.12
593.73	46014.93
593.89	46417.50
594.05	46469.00
594.20	46089.83
594.36	46328.56
594.52	46377.72
594.68	46305.16
594.84	45874.50
594.99	46653.90
595.15	45799.60
595.31	46574.32
595.47	46745.18
595.62	46476.02
595.78	46607.09
595.94	46848.16
596.10	46880.93
596.25	46705.39
596.41	46506.44
596.57	46466.66
596.73	46728.80
596.88	46469.00
597.04	45970.46
597.20	46609.43
597.36	46251.33
597.51	46658.58
597.67	46326.22
597.83	46595.38
597.99	46630.49
598.14	46429.21
598.30	46459.63
598.46	46492.40
598.61	46864.55
598.77	46239.62
598.93	46295.80
599.09	46593.04
599.24	46607.09
599.40	46712.41
599.56	46899.65
599.71	46635.17
599.87	46873.91
600.03	46527.51
600.18	46717.09
600.34	46199.83
600.50	46426.87
600.65	46347.29
600.81	46567.30
600.97	46824.76
601.12	46766.24
601.28	46813.05
601.44	45982.16
601.59	46143.66
601.75	46192.81
601.91	46246.65
602.06	46216.22
602.22	46625.81
602.37	46358.99
602.53	46024.29
602.69	46368.35
602.84	46307.50
603.00	46415.16
603.16	46480.70
603.31	46454.95
603.47	46237.28
603.62	46410.48
603.78	46492.40
603.94	46138.98
604.09	46789.65
604.25	46827.10
604.40	46403.46
604.56	46246.65
604.71	46663.26
604.87	46309.84
605.03	45923.65
605.18	45862.80
605.34	46600.07
605.49	46223.24
605.65	46291.12
605.80	46291.12
605.96	46396.44
606.12	46258.35
606.27	46351.97
606.43	46354.31
606.58	46066.42
606.74	46674.96
606.89	45893.22
607.05	46520.49
607.20	46440.91
607.36	46422.19
607.51	46241.96
607.67	45970.46
607.82	46284.09
607.98	46057.06
608.13	45825.35
608.29	46251.33
608.44	45801.94
608.60	45567.89
608.75	45928.33
608.91	46316.86
609.06	45844.07
609.22	46239.62
609.37	45996.21
609.53	45734.07
609.68	46021.95
609.84	45673.21
609.99	45322.13
610.15	45336.18
610.30	45385.33
610.46	45361.92
610.61	45785.56
610.76	45930.67
610.92	46225.58
611.07	45804.28
611.23	45893.22
611.38	45830.03
611.54	45521.08
611.69	45869.82
611.84	45532.78
612.00	45148.93
612.15	45099.78
612.31	45797.26
612.46	45956.42
612.62	45666.19
612.77	45659.17
612.92	45904.93
613.08	45654.49
613.23	45448.52
613.39	45483.63
613.54	45092.76
613.69	45310.43
613.85	45511.72
614.00	45237.87
614.15	45759.81
614.31	45551.51
614.46	45518.74
614.62	45151.27
614.77	45322.13
614.92	45036.59
615.08	45052.97
615.23	45191.06
615.38	45448.52
615.54	44870.41
615.69	44835.30
615.84	44896.16
616.00	45329.16
616.15	45003.82
616.30	45134.89
616.46	44959.35
616.61	44322.72
616.76	44737.00
616.92	44807.22
617.07	44563.80
617.22	45106.80
617.37	45057.65
617.53	44896.16
617.68	44924.24
617.83	45099.78
617.99	44722.96
618.14	44811.90
618.29	44528.69
618.45	44182.29
618.60	44460.82
618.75	44357.83
618.90	44601.25
619.06	44392.94
619.21	44802.53
619.36	44652.74
619.51	44589.55
619.67	44322.72
619.82	44605.93
619.97	44739.34
620.12	44168.25
620.28	44100.37
620.43	44289.96
620.58	44612.95
620.73	44601.25
620.89	44261.87
621.04	44318.04
621.19	44268.89
621.34	44631.68
621.49	44002.07
621.65	44062.93
621.80	44069.95
621.95	44144.84
622.10	44788.49
622.25	44067.61
622.41	44217.40
622.56	43761.00
622.71	44360.17
622.86	43842.92
623.01	44135.48
623.16	43618.22
623.32	43978.67
623.47	43847.60
623.62	43906.11
623.77	43695.46
623.92	43863.98
624.07	43107.99
624.23	43442.68
624.38	43548.01
624.53	43681.42
624.68	43725.89
624.83	43571.41
624.98	43281.19
625.13	43346.72
625.29	43299.91
625.44	43250.76
625.59	42951.17
625.74	43028.41
625.89	42361.36
626.04	43189.91
626.19	43257.78
626.34	43072.88
626.49	43225.01
626.65	43157.14
626.80	43339.70
626.95	42852.87
627.10	42644.56
627.25	43133.73
627.40	42553.28
627.55	42960.53
627.70	42822.44
627.85	42895.00
628.00	42721.80
628.15	43192.25
628.30	43234.38
628.45	42876.27
628.60	43065.86
628.76	42983.94
628.91	42604.77
629.06	42419.87
629.21	42370.72
629.36	42464.34
629.51	42670.31
629.66	42277.10
629.81	42263.05
629.96	42698.39
630.11	42749.88
630.26	42749.88
630.41	42529.87
630.56	42359.02
630.71	42160.07
630.86	42541.58
631.01	42295.82
631.16	42504.13
631.31	41624.09
631.46	41385.35
631.61	42321.57
631.76	42195.18
631.91	42485.40
632.06	42447.96
632.21	42295.82
632.36	42466.68
632.51	42064.11
632.66	42452.64
632.81	41942.40
632.96	41729.41
633.10	41539.83
633.25	42148.37
633.40	41797.29
633.55	42064.11
633.70	41521.10
633.85	41687.28
634.00	42160.07
634.15	41853.46
634.30	41549.19
634.45	41406.42
634.60	41617.07
634.75	41511.74
634.90	41481.31
635.05	41776.22
635.19	41532.81
635.34	41783.24
635.49	41830.05
635.64	41696.64
635.79	41368.97
635.94	41296.41
636.09	41247.26
636.24	41495.36
636.39	41055.34
636.53	41181.73
636.68	40978.10
636.83	40814.26
636.98	41280.03
637.13	41273.01
637.28	41549.19
637.43	41748.14
637.57	41179.39
637.72	41371.31
637.87	40570.85
638.02	41125.55
638.17	41312.80
638.32	41015.55
638.46	41432.16
638.61	40966.40
638.76	40542.76
638.91	40849.37
639.06	40966.40
639.20	41268.33
639.35	41092.79
639.50	41118.53
639.65	41141.94
639.80	40502.97
639.94	41027.25
640.09	40650.42
640.24	40666.81
640.39	40491.27
640.54	40568.51
640.68	40631.70
640.83	40685.53
640.98	40577.87
641.13	40046.57
641.27	40673.83
641.42	40561.48
641.57	40505.31
641.72	40261.90
641.86	40409.35
642.01	40041.88
642.16	40210.40
642.31	40121.46
642.45	40437.44
642.60	39798.47
642.75	40428.07
642.90	40231.47
643.04	40165.93
643.19	39948.26
643.34	40245.51
643.48	40399.99
643.63	40086.36
643.78	39695.49
643.93	39864.00
644.07	40325.09
644.22	40123.80
644.37	39281.21
644.51	39665.06
644.66	40170.61
644.81	40025.50
644.95	40116.78
645.10	39775.06
645.25	39482.50
645.39	39814.85
645.54	39856.98
645.69	39302.28
645.83	39768.04
645.98	39096.31
646.13	39768.04
646.27	39648.68
646.42	39517.60
646.57	39042.48
646.71	38848.21
646.86	39615.91
647.00	39431.01
647.15	39618.25
647.30	39208.65
647.44	38948.85
647.59	39260.15
647.74	39306.96
647.88	39267.17
648.03	39304.62
648.17	39264.83
648.32	39529.31
648.47	39313.98
648.61	38562.67
648.76	39196.95
648.90	39096.31
649.05	39047.16
649.20	38873.96
649.34	39218.02
649.49	39056.52
649.63	38735.87
649.78	39051.84
649.92	39079.92
650.07	39124.40
650.21	38880.98
650.36	39058.86
650.51	38880.98
650.65	38724.16
650.80	38857.57
650.94	38909.07
651.09	38464.36
651.23	38752.25
651.38	38522.88
651.52	38396.49
651.67	38539.26
651.81	38593.09
651.96	38785.02
652.10	38419.89
652.25	38347.34
652.39	38466.70
652.54	38485.43
652.68	38576.71
652.83	38670.33
652.97	38747.57
653.12	38148.39
653.26	38029.02
653.41	38073.49
653.55	38382.45
653.70	38174.14
653.84	38330.95
653.99	38359.04
654.13	37989.24
654.27	37958.81
654.42	38342.66
654.56	38012.64
654.71	37757.52
654.85	37895.61
655.00	38405.85
655.14	38408.19
655.29	37502.40
655.43	37717.73
655.57	37296.44
655.72	37200.47
655.86	37453.25
656.01	37326.86
656.15	37223.88
656.30	37184.09
656.44	37750.50
656.58	37256.65
656.73	37268.35
656.87	37380.70
657.01	37347.93
657.16	37387.72
657.30	37308.14
657.45	36947.70
657.59	36652.79
657.73	37333.89
657.88	37762.20
658.02	37247.29
658.16	37368.99
658.31	37425.17
658.45	37443.89
658.60	37338.57
658.74	37563.26
658.88	37401.76
659.03	37043.66
659.17	36683.22
659.31	37305.80
659.46	36856.42
659.60	36978.12
659.74	36910.25
659.89	36566.19
660.03	36414.05
660.17	37198.13
660.32	36821.31
660.46	36533.42
660.60	36669.17
660.74	36807.26
660.89	36790.88
661.03	36292.35
661.17	37027.28
661.32	36219.79
661.46	36264.26
661.60	36231.49
661.74	35941.27
661.89	36116.81
662.03	36084.04
662.17	36400.01
662.31	35697.85
662.46	36119.15
662.60	36231.49
662.74	36088.72
662.88	35962.33
663.03	35662.74
663.17	35702.53
663.31	35435.71
663.45	35573.80
663.60	35959.99
663.74	35545.72
663.88	35615.93
664.02	35442.73
664.17	35662.74
664.31	35283.58
664.45	35388.90
664.59	35278.89
664.73	35314.00
664.88	35075.27
665.02	34808.45
665.16	35030.80
665.30	35075.27
665.44	35002.71
665.59	34525.24
665.73	34834.19
665.87	34857.60
666.01	34995.69
666.15	35042.50
666.29	34983.99
666.44	35042.50
666.58	34522.90
666.72	34834.19
666.86	34260.76
667.00	34433.96
667.14	34492.47
667.28	34117.99
667.43	34651.63
667.57	34040.75
667.71	34202.25
667.85	34314.59
667.99	34293.53
668.13	34305.23
668.27	34375.45
668.41	34139.05
668.56	33736.48
668.70	33851.17
668.84	33312.84
668.98	33551.58
669.12	33612.43
669.26	33574.98
669.40	33493.07
669.54	33472.00
669.68	33525.83
669.82	33043.68
669.96	33151.35
670.10	33205.18
670.25	33146.67
670.39	33008.58
670.53	33029.64
670.67	32718.35
670.81	32985.17
670.95	33277.74
671.09	33041.34
671.23	32655.15
671.37	32657.49
671.51	32690.26
671.65	32421.10
671.79	32287.69
671.93	32247.90
672.07	32376.63
672.21	32236.20
672.35	32582.60
672.49	32503.02
672.63	32809.63
672.77	32086.40
672.91	32032.57
673.05	31978.74
673.19	32020.87
673.33	31676.81
673.47	31529.36
673.61	31480.21
673.75	31489.57
673.89	31784.48
674.03	31152.53
674.17	31461.48
674.31	31611.28
674.45	31761.07
674.59	31332.75
674.73	31388.92
674.87	31112.74
675.01	31152.53
675.15	31213.38
675.29	30960.61
675.43	30747.62
675.56	30600.16
675.70	30700.81
675.84	30436.33
675.98	29876.94
676.12	30298.23
676.26	30679.74
676.40	30541.65
676.54	30541.65
676.68	30160.14
676.82	30052.48
676.96	29762.25
677.10	29858.21
677.23	29720.12
677.37	29867.58
677.51	29785.66
677.65	29612.46
677.79	29212.23
677.93	29120.95
678.07	28936.04
678.21	29102.22
678.34	28907.96
678.48	28563.90
678.62	28416.44
678.76	28517.09
678.90	28690.29
679.04	28290.06
679.18	28414.10
679.31	27985.79
679.45	28222.18
679.59	28077.07
679.73	28184.73
679.87	27999.83
680.00	28004.51
680.14	27950.68
680.28	27770.46
680.42	27913.23
680.56	27473.21
680.70	27711.94
680.83	27957.70
680.97	27461.51
681.11	27185.32
681.25	27077.66
681.39	27140.85
681.52	26815.52
681.66	27049.57
681.80	26820.20
681.94	26869.35
682.07	26986.38
682.21	26506.57
682.35	26579.12
682.49	26356.77
682.62	26546.36
682.76	25764.62
682.90	26249.11
683.04	26221.02
683.17	26553.38
683.31	26132.08
683.45	26059.52
683.59	25607.80
683.72	25806.75
683.86	26235.06
684.00	25687.38
684.13	25343.32
684.27	25209.91
684.41	25364.39
684.55	25071.82
684.68	24884.58
684.82	25053.09
684.96	25104.59
685.09	25013.31
685.23	24807.34
685.37	24720.74
685.50	24741.80
685.64	24608.39
685.78	24512.43
685.91	24189.44
686.05	24198.80
686.19	23857.08
686.32	24175.39
686.46	23527.06
686.60	23293.01
686.73	23211.09
686.87	23190.03
687.01	23110.45
687.14	23105.77
687.28	23042.57
687.42	22991.08
687.55	22977.04
687.69	22991.08
687.82	23147.90
687.96	23035.55
688.10	22909.16
688.23	22625.96
688.37	22848.31
688.50	22621.28
688.64	22836.61
688.78	22515.95
688.91	22314.67
689.05	22068.91
689.18	21935.50
689.32	21984.65
689.46	22347.44
689.59	22209.34
689.73	22047.85
689.86	21715.49
690.00	21633.57
690.13	21537.61
690.27	21439.31
690.41	21530.59
690.54	21029.71
690.68	21507.18
690.81	21415.90
690.95	21308.24
691.08	21104.61
691.22	21261.43
691.35	21018.01
691.49	21057.80
691.62	21057.80
691.76	20966.52
691.89	21039.08
692.03	20641.18
692.16	20577.99
692.30	19953.07
692.43	20231.59
692.57	20198.82
692.70	20137.97
692.84	20044.35
692.97	19817.32
693.11	19704.97
693.24	19943.70
693.38	19552.84
693.51	19531.77
693.65	19822.00
693.78	19529.43
693.92	19513.05
694.05	19161.97
694.19	19325.80
694.32	19482.62
694.45	19077.71
694.59	19281.33
694.72	19211.12
694.86	18941.96
694.99	18754.71
695.13	18845.99
695.26	18616.62
695.39	18789.82
695.53	18628.32
695.66	18764.07
695.80	18405.97
695.93	18459.81
696.07	18363.84
696.20	18490.23
696.33	18597.90
696.47	18216.39
696.60	17865.31
696.73	17879.35
696.87	17713.17
697.00	17551.68
697.14	17547.00
697.27	17439.33
697.40	17392.52
697.54	17205.28
697.67	17455.72
697.80	17521.25
697.94	17179.53
698.07	17350.39
698.21	17348.05
698.34	17102.29
698.47	17146.76
698.61	16629.51
698.74	16767.60
698.87	16772.28
699.01	16463.33
699.14	16425.88
699.27	16334.60
699.40	16435.24
699.54	16250.34
699.67	16212.89
699.80	16166.08
699.94	16119.27
700.07	15941.39
700.20	15934.37
700.34	16053.73
700.47	15974.16
700.60	15915.64
700.73	16046.71
700.87	15845.43
701.00	15492.01
701.13	15449.88
701.26	15545.84
701.40	15578.61
701.53	15325.83
701.66	15737.76
701.79	15080.07
701.93	15171.35
702.06	14876.44
702.19	14719.63
702.32	14841.34
702.46	15009.86
702.59	14813.25
702.72	14895.17
702.85	14930.28
702.99	14869.42
703.12	14506.64
703.25	14445.79
703.38	14546.43
703.51	14310.04
703.65	14251.52
703.78	14057.26
703.91	14043.21
704.04	14085.34
704.17	14118.11
704.31	14204.71
704.44	13788.10
704.57	13738.94
704.70	13984.70
704.83	13830.23
704.96	13675.75
705.10	13614.90
705.23	13572.77
>>>>>End Processed Spectral Data<<<<<
