SpectraSuite Data File
++++++++++++++++++++++++++++++++++++
Date: Fri Oct 25 10:43:57 EDT 2013
User: price-jones
Dark Spectrum Present: No
Reference Spectrum Present: No
Number of Sampled Component Spectra: 1
Spectrometers: USB2+H05261
Integration Time (usec): 100000 (USB2+H05261)
Spectra Averaged: 1 (USB2+H05261)
Boxcar Smoothing: 0 (USB2+H05261)
Correct for Electrical Dark: No (USB2+H05261)
Strobe/Lamp Enabled: No (USB2+H05261)
Correct for Detector Non-linearity: No (USB2+H05261)
Correct for Stray Light: No (USB2+H05261)
Number of Pixels in Processed Spectrum: 2048
>>>>>Begin Processed Spectral Data<<<<<
365.73	142.77
365.92	142.77
366.12	142.77
366.32	39.79
366.52	79.58
366.72	16.38
366.91	49.15
367.11	0.00
367.31	0.00
367.51	0.00
367.70	79.58
367.90	39.79
368.10	56.17
368.30	32.77
368.49	0.00
368.69	51.49
368.89	58.51
369.09	46.81
369.28	56.17
369.48	91.28
369.68	100.64
369.87	131.07
370.07	95.96
370.27	63.19
370.47	142.77
370.66	330.02
370.86	447.04
371.06	442.36
371.25	521.94
371.45	383.85
371.65	498.53
371.84	491.51
372.04	454.06
372.24	500.87
372.44	505.56
372.63	486.83
372.83	566.41
373.03	528.96
373.22	500.87
373.42	517.26
373.62	538.32
373.81	543.00
374.01	596.84
374.21	554.71
374.40	545.34
374.60	667.05
374.79	610.88
374.99	599.18
375.19	550.03
375.38	566.41
375.58	613.22
375.78	615.56
375.97	667.05
376.17	608.54
376.37	653.01
376.56	526.62
376.76	566.41
376.95	678.76
377.15	657.69
377.35	592.16
377.54	662.37
377.74	669.39
377.93	629.60
378.13	624.92
378.33	631.94
378.52	685.78
378.72	734.93
378.91	699.82
379.11	613.22
379.31	622.58
379.50	660.03
379.70	634.29
379.89	734.93
380.09	716.20
380.28	709.18
380.48	648.33
380.68	655.35
380.87	732.59
381.07	697.48
381.26	690.46
381.46	744.29
381.65	711.52
381.85	772.38
382.04	751.31
382.24	704.50
382.43	624.92
382.63	578.11
382.83	713.86
383.02	786.42
383.22	711.52
383.41	725.57
383.61	791.10
383.80	898.77
384.00	800.46
384.19	812.17
384.39	744.29
384.58	844.93
384.78	884.72
384.97	746.63
385.17	755.99
385.36	833.23
385.56	858.98
385.75	903.45
385.95	861.32
386.14	861.32
386.34	884.72
386.53	844.93
386.72	908.13
386.92	851.96
387.11	922.17
387.31	943.24
387.50	983.02
387.70	887.06
387.89	873.02
388.09	873.02
388.28	910.47
388.48	849.61
388.67	961.96
388.86	1015.79
389.06	905.79
389.25	1027.50
389.45	964.30
389.64	1004.09
389.84	1008.77
390.03	1039.20
390.22	1025.15
390.42	1027.50
390.61	1097.71
390.81	1036.86
391.00	1029.84
391.19	1097.71
391.39	1107.07
391.58	1097.71
391.78	1006.43
391.97	1062.60
392.16	1090.69
392.36	1064.94
392.55	1046.22
392.75	1032.18
392.94	1008.77
393.13	1081.33
393.33	1018.13
393.52	1069.62
393.71	1032.18
393.91	1071.97
394.10	1071.97
394.29	1256.87
394.49	1275.59
394.68	1228.78
394.88	1186.65
395.07	1252.19
395.26	1259.21
395.46	1210.06
395.65	1263.89
395.84	1256.87
396.04	1261.55
396.23	1224.10
396.42	1226.44
396.62	1191.33
396.81	1210.06
397.00	1275.59
397.19	1303.68
397.39	1308.36
397.58	1369.21
397.77	1369.21
397.97	1483.90
398.16	1490.92
398.35	1523.69
398.55	1523.69
398.74	1507.30
398.93	1535.39
399.12	1565.82
399.32	1605.61
399.51	1589.22
399.70	1696.89
399.90	1603.27
400.09	1586.88
400.28	1675.82
400.47	1584.54
400.67	1666.46
400.86	1748.38
401.05	1703.91
401.24	1746.04
401.44	1771.79
401.63	1781.15
401.82	1804.55
402.01	1750.72
402.21	1830.30
402.40	1809.23
402.59	1923.92
402.78	1790.51
402.97	1743.70
403.17	1921.58
403.36	1856.04
403.55	1823.28
403.74	1905.20
403.93	1898.17
404.13	1895.83
404.32	1909.88
404.51	1970.73
404.70	2024.56
404.89	1905.20
405.09	2120.53
405.28	1991.80
405.47	2026.90
405.66	2047.97
405.85	2026.90
406.05	2005.84
406.24	2172.02
406.43	2094.78
406.62	2115.84
406.81	2246.91
407.00	2108.82
407.20	2139.25
407.39	2122.87
407.58	2246.91
407.77	2282.02
407.96	2188.40
408.15	2244.57
408.34	2258.62
408.54	2356.92
408.73	2321.81
408.92	2370.96
409.11	2317.13
409.30	2303.09
409.49	2361.60
409.68	2223.51
409.87	2359.26
410.07	2392.03
410.26	2417.77
410.45	2443.52
410.64	2513.74
410.83	2607.36
411.02	2530.12
411.21	2583.95
411.40	2661.19
411.59	2572.25
411.78	2771.19
411.98	2684.59
412.17	2684.59
412.36	2855.45
412.55	2904.60
412.74	2832.05
412.93	2920.99
413.12	2700.98
413.31	2918.65
413.50	2862.48
413.69	2850.77
413.88	3016.95
414.07	2881.20
414.26	2958.44
414.45	3012.27
414.64	3155.04
414.83	3159.72
415.02	3126.96
415.22	3143.34
415.41	3243.98
415.60	3239.30
415.79	3370.37
415.98	3365.69
416.17	3475.70
416.36	3337.60
416.55	3384.41
416.74	3375.05
416.93	3316.54
417.12	3433.57
417.31	3452.29
417.50	3419.52
417.69	3599.74
417.88	3494.42
418.07	3471.01
418.26	3548.25
418.45	3576.34
418.64	3768.26
418.83	3674.64
419.02	3691.02
419.21	3695.71
419.39	3761.24
419.58	3658.26
419.77	3679.32
419.96	3831.46
420.15	3779.97
420.34	3779.97
420.53	3882.95
420.72	3899.33
420.91	4002.32
421.10	3971.89
421.29	4086.58
421.48	3885.29
421.67	4084.23
421.86	4067.85
422.05	3875.93
422.24	3824.44
422.43	3817.41
422.61	3960.19
422.80	3992.95
422.99	4004.66
423.18	4021.04
423.37	4159.13
423.56	4091.26
423.75	4152.11
423.94	4007.00
424.13	3826.78
424.32	3957.85
424.50	4084.23
424.69	4056.15
424.88	4004.66
425.07	4025.72
425.26	3978.91
425.45	3981.25
425.64	4079.55
425.83	4021.04
426.01	4105.30
426.20	4147.43
426.39	4114.66
426.58	4074.87
426.77	4117.00
426.96	4046.79
427.15	4095.94
427.33	4072.53
427.52	4126.36
427.71	4273.82
427.90	4222.33
428.09	4238.71
428.28	4308.93
428.46	4271.48
428.65	4290.20
428.84	4423.61
429.03	4489.15
429.22	4238.71
429.40	4276.16
429.59	4273.82
429.78	4044.45
429.97	3957.85
430.16	4184.88
430.34	4173.18
430.53	4187.22
430.72	4304.25
430.91	4297.22
431.10	4407.23
431.28	4655.33
431.47	4706.82
431.66	4805.12
431.85	4674.05
432.03	4793.42
432.22	4870.65
432.41	4526.60
432.60	4741.93
432.79	4887.04
432.97	4821.50
433.16	4882.36
433.35	4667.03
433.54	4884.70
433.72	4814.48
433.91	4798.10
434.10	4847.25
434.28	4870.65
434.47	5004.07
434.66	5088.32
434.85	5085.98
435.03	5123.43
435.22	5097.69
435.41	5343.44
435.59	5224.08
435.78	5226.42
435.97	5205.35
436.16	5256.84
436.34	5217.05
436.53	5186.63
436.72	5408.98
436.90	5266.21
437.09	5411.32
437.28	5067.26
437.46	5188.97
437.65	5373.87
437.84	5289.61
438.02	5273.23
438.21	5217.05
438.40	5132.79
438.58	5416.00
438.77	5551.75
438.96	5607.92
439.14	5715.59
439.33	5699.20
439.52	5774.10
439.70	5715.59
439.89	5870.06
440.08	5741.33
440.26	5841.98
440.45	5827.93
440.63	6001.13
440.82	6120.50
441.01	5996.45
441.19	6174.33
441.38	6258.59
441.57	6230.51
441.75	6235.19
441.94	6597.97
442.12	6450.52
442.31	6574.56
442.50	6565.20
442.68	6431.79
442.87	6532.44
443.05	6466.90
443.24	6642.44
443.43	6745.42
443.61	6654.14
443.80	6670.53
443.98	6590.95
444.17	6349.87
444.35	6757.13
444.54	6869.47
444.73	6740.74
444.91	6640.10
445.10	6780.53
445.28	6548.82
445.47	6644.78
445.65	6558.18
445.84	6665.85
446.02	6712.66
446.21	6827.34
446.39	6846.07
446.58	6766.49
446.77	6817.98
446.95	6857.77
447.14	6904.58
447.32	6977.14
447.51	6878.83
447.69	6719.68
447.88	6892.88
448.06	6874.15
448.25	7000.54
448.43	6958.41
448.62	6918.62
448.80	6876.49
448.99	7077.78
449.17	7124.59
449.36	6991.18
449.54	6963.09
449.73	7211.19
449.91	7316.51
450.10	7258.00
450.28	7557.59
450.46	7162.04
450.65	7588.02
450.83	7454.61
451.02	7311.83
451.20	7536.52
451.39	7344.60
451.57	7412.48
451.76	7463.97
451.94	7588.02
452.13	7566.95
452.31	7276.73
452.49	7405.46
452.68	7527.16
452.86	7494.40
453.05	7651.21
453.23	7585.68
453.42	7606.74
453.60	7719.09
453.78	7676.96
453.97	7632.49
454.15	7655.89
454.34	7662.91
454.52	7815.05
454.70	7445.24
454.89	7845.48
455.07	7786.96
455.26	7796.32
455.44	7953.14
455.62	7894.63
455.81	8051.44
455.99	8011.65
456.17	8013.99
456.36	8088.89
456.54	8231.66
456.73	8184.85
456.91	8297.20
457.09	8369.76
457.28	8393.16
457.46	8329.97
457.64	8449.33
457.83	8451.67
458.01	8320.60
458.19	8589.77
458.38	8234.00
458.56	8454.02
458.74	8374.44
458.93	8489.12
459.11	8540.61
459.29	8634.24
459.48	8645.94
459.66	8713.81
459.84	8571.04
460.03	8681.05
460.21	8606.15
460.39	8648.28
460.57	8596.79
460.76	8636.58
460.94	8903.40
461.12	8884.67
461.31	8940.85
461.49	8812.12
461.67	8966.59
461.85	9053.19
462.04	9081.28
462.22	9060.21
462.40	9121.07
462.59	8952.55
462.77	9020.42
462.95	9228.73
463.13	8901.06
463.32	9149.15
463.50	9352.78
463.68	9217.03
463.86	9202.99
464.05	9343.42
464.23	9242.78
464.41	9486.19
464.59	9158.52
464.78	9380.87
464.96	9390.23
465.14	9348.10
465.32	9687.48
465.50	9511.94
465.69	9509.60
465.87	9509.60
466.05	9385.55
466.23	9455.76
466.41	9303.63
466.60	9565.77
466.78	9284.91
466.96	9582.15
467.14	9439.38
467.32	9753.01
467.51	9764.72
467.69	9577.47
467.87	9771.74
468.05	9935.57
468.23	9724.93
468.41	9673.43
468.60	9839.61
468.78	9975.36
468.96	9839.61
469.14	9949.62
469.32	9888.76
469.50	9476.83
469.69	10050.26
469.87	9980.04
470.05	10143.88
470.23	9799.82
470.41	9987.07
470.59	10403.68
470.77	10057.28
470.95	10263.25
471.14	10293.68
471.32	10286.65
471.50	10485.60
471.68	10707.95
471.86	10602.63
472.04	10743.06
472.22	10869.45
472.40	10633.05
472.58	10785.19
472.77	10630.71
472.95	10778.17
473.13	11176.06
473.31	10768.80
473.49	10881.15
473.67	10860.09
473.85	10920.94
474.03	11433.52
474.21	11358.62
474.39	11541.18
474.57	11391.39
474.75	11461.60
474.93	11442.88
475.12	11627.78
475.30	11477.99
475.48	11449.90
475.66	11709.70
475.84	11564.59
476.02	11709.70
476.20	11655.87
476.38	12046.74
476.56	12067.80
476.74	12156.74
476.92	12219.94
477.10	12105.25
477.28	12568.68
477.46	12491.44
477.64	12533.57
477.82	12407.18
478.00	13025.08
478.18	12919.76
478.36	12805.07
478.54	12894.01
478.72	13088.28
478.90	13125.72
479.08	13359.78
479.26	13451.06
479.44	13584.47
479.62	13675.75
479.80	13804.48
479.98	13933.21
480.16	14272.59
480.34	13790.44
480.52	14122.79
480.70	13855.97
480.88	13886.40
481.06	14197.69
481.24	14618.99
481.41	14726.65
481.59	14649.41
481.77	14876.44
481.95	14810.91
482.13	15000.49
482.31	15042.62
482.49	15367.96
482.67	15255.61
482.85	15115.18
483.03	15768.19
483.21	15695.63
483.39	15901.60
483.57	15946.07
483.74	15901.60
483.92	16271.40
484.10	15899.26
484.28	16226.93
484.46	16210.55
484.64	16664.61
484.82	16294.81
485.00	16826.11
485.18	16596.74
485.35	16929.09
485.53	16720.79
485.71	16407.16
485.89	16748.87
486.07	16720.79
486.25	17254.43
486.43	17249.75
486.61	17523.59
486.78	17813.82
486.96	17916.80
487.14	17923.82
487.32	18431.72
487.50	18445.76
487.68	18576.83
487.85	18925.57
488.03	18932.59
488.21	18927.91
488.39	19246.23
488.57	19068.34
488.75	19161.97
488.92	19466.24
489.10	19859.45
489.28	19929.66
489.46	20243.29
489.64	20187.12
489.81	20622.46
489.99	20608.42
490.17	20821.41
490.35	20823.75
490.53	20999.29
490.70	21036.74
490.88	21060.14
491.06	21137.38
491.24	21181.85
491.41	21123.33
491.59	21341.00
491.77	21263.77
491.95	21692.08
492.13	21720.17
492.30	22015.08
492.48	22167.21
492.66	22111.04
492.84	22513.61
493.01	22471.48
493.19	22904.48
493.37	22946.61
493.54	22373.18
493.72	23005.13
493.90	23302.37
494.08	23573.88
494.25	23627.71
494.43	24013.90
494.61	23831.33
494.79	24154.33
494.96	24240.93
495.14	24264.33
495.32	24357.96
495.49	24411.79
495.67	24512.43
495.85	25039.05
496.02	24767.55
496.20	25111.61
496.38	25083.52
496.55	25280.13
496.73	25731.85
496.91	25301.19
497.09	25961.22
497.26	25558.65
497.44	25813.77
497.62	25839.51
497.79	26080.59
497.97	25448.64
498.14	25661.63
498.32	26174.21
498.50	26345.07
498.67	26494.86
498.85	26494.86
499.03	26813.18
499.20	26845.94
499.38	26703.17
499.56	27220.43
499.73	27241.50
499.91	26876.37
500.08	27351.50
500.26	26761.69
500.44	27271.92
500.61	27080.00
500.79	27400.65
500.97	27454.48
501.14	27522.36
501.32	27709.60
501.49	27758.75
501.67	28093.45
501.84	28151.96
502.02	28400.06
502.20	28273.67
502.37	28308.78
502.55	28170.69
502.72	28617.73
502.90	28893.91
503.07	28416.44
503.25	28790.93
503.43	28882.21
503.60	28713.69
503.78	28936.04
503.95	28739.44
504.13	29109.24
504.30	29123.29
504.48	29282.44
504.65	29530.54
504.83	29972.90
505.01	29958.86
505.18	29577.35
505.36	30230.36
505.53	29872.26
505.71	30485.48
505.88	29839.49
506.06	30155.46
506.23	30295.89
506.41	30228.02
506.58	30623.57
506.76	30794.43
506.93	30955.93
507.11	30717.19
507.28	30918.48
507.46	30794.43
507.63	30534.63
507.81	30792.09
507.98	30761.66
508.16	31098.70
508.33	31271.90
508.50	31194.66
508.68	31637.02
508.85	31859.37
509.03	31779.79
509.20	31754.05
509.38	31901.50
509.55	32257.26
509.73	31929.59
509.90	32086.40
510.08	31847.67
510.25	32126.19
510.42	32222.16
510.60	32559.19
510.77	32507.70
510.95	32701.96
511.12	32505.36
511.30	32727.71
511.47	33083.47
511.64	33357.32
511.82	33160.71
511.99	33294.12
512.17	32914.95
512.34	32931.34
512.51	33207.52
512.69	33497.75
512.86	33469.66
513.04	33390.08
513.21	34010.32
513.38	33617.11
513.56	33233.27
513.73	33645.20
513.90	33881.60
514.08	33879.25
514.25	33853.51
514.43	33764.57
514.60	34129.69
514.77	33818.40
514.95	34443.32
515.12	34246.72
515.29	34202.25
515.47	34787.38
515.64	34693.76
515.81	34550.99
515.99	34691.42
516.16	34478.43
516.33	34043.09
516.51	34448.00
516.68	33968.19
516.85	33834.78
517.03	34185.86
517.20	34670.36
517.37	34815.47
517.54	35126.76
517.72	34724.19
517.89	34405.88
518.06	34553.33
518.24	34768.66
518.41	35096.33
518.58	34965.26
518.75	35122.08
518.93	35576.14
519.10	35124.42
519.27	35756.36
519.45	35835.94
519.62	36142.55
519.79	35896.80
519.96	35964.67
520.14	36093.40
520.31	36067.66
520.48	36149.57
520.65	36446.82
520.83	36411.71
521.00	36671.51
521.17	36786.20
521.34	36818.97
521.52	36760.45
521.69	37038.98
521.86	37134.94
522.03	37029.62
522.20	37055.36
522.38	37181.75
522.55	37081.11
522.72	37029.62
522.89	37092.81
523.07	37170.05
523.24	37357.29
523.41	37680.28
523.58	37511.77
523.75	37862.85
523.92	38185.84
524.10	37940.08
524.27	38277.12
524.44	38124.99
524.61	37837.10
524.78	38045.41
524.96	38260.74
525.13	38401.17
525.30	38288.82
525.47	38719.48
525.64	38499.47
525.81	38232.65
525.98	38272.44
526.16	38043.07
526.33	37848.80
526.50	38232.65
526.67	37942.42
526.84	38136.69
527.01	38113.28
527.18	38780.34
527.36	38602.46
527.53	38738.21
527.70	39028.43
527.87	39147.80
528.04	39136.10
528.21	39234.40
528.38	39281.21
528.55	39328.02
528.72	40067.63
528.89	39899.11
529.07	39583.14
529.24	39590.16
529.41	39545.69
529.58	39667.40
529.75	39510.58
529.92	39456.75
530.09	39508.24
530.26	39887.41
530.43	40261.90
530.60	39959.97
530.77	39948.26
530.94	39959.97
531.11	39990.39
531.28	40123.80
531.46	40336.79
531.63	40561.48
531.80	40065.29
531.97	40275.94
532.14	40006.78
532.31	39728.25
532.48	39648.68
532.65	40755.75
532.82	40179.98
532.99	40414.03
533.16	40472.54
533.33	40531.06
533.50	41017.89
533.67	40722.98
533.84	40779.15
534.01	40891.50
534.18	40673.83
534.35	40687.87
534.52	40825.96
534.69	40706.60
534.86	40975.76
535.03	41027.25
535.20	41935.38
535.37	41771.54
535.54	41495.36
535.71	41956.44
535.88	41783.24
536.05	41319.82
536.22	41478.97
536.38	41256.62
536.55	41647.49
536.72	41301.09
536.89	41118.53
537.06	41682.60
537.23	41729.41
537.40	41682.60
537.57	42181.13
537.74	41759.84
537.91	41947.08
538.08	41647.49
538.25	42068.79
538.42	41837.08
538.59	41951.76
538.75	42019.64
538.92	42321.57
539.09	41897.93
539.26	41947.08
539.43	42307.52
539.60	42391.78
539.77	41764.52
539.94	41928.36
540.11	41935.38
540.28	42508.81
540.44	42115.60
540.61	42124.96
540.78	42417.53
540.95	42120.28
541.12	42429.23
541.29	42471.36
541.46	42679.67
541.62	43044.79
541.79	42969.90
541.96	42113.26
542.13	42649.24
542.30	42359.02
542.47	43068.20
542.63	42581.37
542.80	43175.86
542.97	43295.23
543.14	42993.30
543.31	43187.56
543.48	43667.37
543.64	43903.77
543.81	43636.95
543.98	43620.56
544.15	43725.89
544.32	43496.52
544.48	43824.19
544.65	44013.77
544.82	43737.59
544.99	43498.86
545.16	43751.63
545.32	43491.83
545.49	43910.79
545.66	44210.38
545.83	44086.33
546.00	44004.41
546.16	43866.32
546.33	43709.50
546.50	43601.84
546.67	44172.93
546.83	43899.09
547.00	44032.50
547.17	43978.67
547.34	43775.04
547.50	43981.01
547.67	44451.45
547.84	44149.53
548.00	44198.68
548.17	44414.01
548.34	44191.65
548.51	44552.10
548.67	44399.96
548.84	44390.60
549.01	44182.29
549.18	44816.58
549.34	44294.64
549.51	44830.62
549.68	44886.79
549.84	44910.20
550.01	44786.15
550.18	44495.92
550.34	44240.81
550.51	44568.48
550.68	44320.38
550.84	44280.60
551.01	44804.88
551.18	44542.74
551.34	44793.17
551.51	45029.57
551.68	45310.43
551.84	45378.31
552.01	45301.07
552.18	45165.32
552.34	44961.69
552.51	44996.80
552.68	44938.29
552.84	45525.76
553.01	45455.54
553.18	44830.62
553.34	45350.22
553.51	44996.80
553.67	45361.92
553.84	45474.27
554.01	45439.16
554.17	45455.54
554.34	45284.68
554.51	45577.25
554.67	45235.53
554.84	45443.84
555.00	45368.94
555.17	45439.16
555.33	45397.03
555.50	45495.33
555.67	45371.28
555.83	45265.96
556.00	45247.24
556.16	45612.36
556.33	45298.73
556.50	45668.53
556.66	45851.09
556.83	45446.18
556.99	45886.20
557.16	45628.74
557.32	45628.74
557.49	45792.58
557.65	45371.28
557.82	45624.06
557.98	45647.47
558.15	45865.14
558.32	45984.51
558.48	45909.61
558.65	45500.01
558.81	45654.49
558.98	45904.93
559.14	45478.95
559.31	45860.46
559.47	45947.06
559.64	46223.24
559.80	45989.19
559.97	46043.02
560.13	45450.86
560.30	46078.13
560.46	45982.16
560.63	46232.60
560.79	46099.19
560.96	46316.86
561.12	45860.46
561.29	46220.90
561.45	45549.17
561.61	46012.59
561.78	45649.81
561.94	45930.67
562.11	45773.86
562.27	45848.75
562.44	46415.16
562.60	46476.02
562.77	46506.44
562.93	46309.84
563.10	46227.92
563.26	46347.29
563.42	46237.28
563.59	46248.99
563.75	46279.41
563.92	46412.82
564.08	46424.53
564.24	46403.46
564.41	46071.10
564.57	46384.74
564.74	46358.99
564.90	46279.41
565.07	46497.08
565.23	46642.20
565.39	45993.87
565.56	46169.41
565.72	45989.19
565.88	45979.82
566.05	46253.67
566.21	46183.45
566.38	46347.29
566.54	46326.22
566.70	46534.53
566.87	46405.80
567.03	46337.93
567.19	47220.31
567.36	46567.30
567.52	46422.19
567.68	46590.70
567.85	46471.34
568.01	46543.89
568.17	46494.74
568.34	46639.86
568.50	46447.93
568.66	46401.12
568.83	46237.28
568.99	46241.96
569.15	46461.97
569.32	46476.02
569.48	46689.01
569.64	46745.18
569.81	46586.02
569.97	46824.76
570.13	46944.12
570.30	46258.35
570.46	45982.16
570.62	46314.52
570.78	46057.06
570.95	46082.81
571.11	46373.03
571.27	46237.28
571.43	46459.63
571.60	46677.30
571.76	46719.43
571.92	46504.10
572.09	46436.23
572.25	46728.80
572.41	46773.27
572.57	46944.12
572.74	47232.01
572.90	46705.39
573.06	46595.38
573.22	46403.46
573.38	46644.54
573.55	46639.86
573.71	46902.00
573.87	46438.57
574.03	46543.89
574.20	46644.54
574.36	46431.55
574.52	46536.87
574.68	46513.47
574.84	46780.29
575.01	46646.88
575.17	46553.26
575.33	46155.36
575.49	46277.07
575.65	46958.17
575.82	46443.25
575.98	46576.66
576.14	47056.47
576.30	46824.76
576.46	46646.88
576.62	46803.69
576.79	46614.11
576.95	46557.94
577.11	47033.07
577.27	46827.10
577.43	46693.69
577.59	46335.59
577.75	46618.79
577.92	46513.47
578.08	46363.67
578.24	46330.90
578.40	46356.65
578.56	46948.81
578.72	46817.74
578.88	47227.33
579.04	47030.72
579.21	46705.39
579.37	46167.07
579.53	47346.70
579.69	46796.67
579.85	46796.67
580.01	46557.94
580.17	46979.23
580.33	46567.30
580.49	46813.05
580.65	46412.82
580.82	46806.03
580.98	46366.01
581.14	46749.86
581.30	47040.09
581.46	46363.67
581.62	46993.28
581.78	46777.95
581.94	47110.30
582.10	46953.49
582.26	46939.44
582.42	46784.97
582.58	46955.83
582.74	46927.74
582.90	46925.40
583.06	46937.10
583.22	47178.18
583.38	47112.64
583.54	46951.15
583.70	47077.54
583.86	47030.72
584.02	46302.82
584.18	46703.05
584.34	46696.03
584.50	46644.54
584.66	46817.74
584.82	46569.64
584.98	46883.27
585.14	46784.97
585.30	46506.44
585.46	46511.13
585.62	46326.22
585.78	46667.94
585.94	46312.18
586.10	46916.04
586.26	46581.34
586.42	47054.13
586.58	47271.80
586.74	47054.13
586.90	46738.16
587.06	46478.36
587.22	46831.78
587.38	47075.19
587.54	46871.57
587.70	46726.46
587.86	46759.22
588.02	46983.91
588.18	46873.91
588.34	46263.03
588.49	46000.89
588.65	45605.34
588.81	46579.00
588.97	46263.03
589.13	46396.44
589.29	46721.77
589.45	46700.71
589.61	46436.23
589.77	47007.32
589.93	46431.55
590.08	46642.20
590.24	47192.22
590.40	47150.09
590.56	47323.29
590.72	46766.24
590.88	46803.69
591.04	46733.48
591.20	47545.64
591.35	47189.88
591.51	47370.10
591.67	46855.18
591.83	46766.24
591.99	46665.60
592.15	46927.74
592.31	47175.84
592.46	47061.15
592.62	46635.17
592.78	47100.94
592.94	47248.39
593.10	46773.27
593.26	46829.44
593.41	46740.50
593.57	46951.15
593.73	46703.05
593.89	47283.50
594.05	47140.73
594.20	46536.87
594.36	47004.98
594.52	46756.88
594.68	46417.50
594.84	46962.85
594.99	47140.73
595.15	46611.77
595.31	46988.60
595.47	47091.58
595.62	47143.07
595.78	47103.28
595.94	47234.35
596.10	47398.19
596.25	47091.58
596.41	46724.11
596.57	47133.71
596.73	47107.96
596.88	46873.91
597.04	46829.44
597.20	46869.23
597.36	47058.81
597.51	47243.71
597.67	47084.56
597.83	47075.19
597.99	47332.65
598.14	47208.61
598.30	46754.54
598.46	46738.16
598.61	46813.05
598.77	46916.04
598.93	46461.97
599.09	46883.27
599.24	47538.62
599.40	47033.07
599.56	47236.69
599.71	46871.57
599.87	46993.28
600.03	46660.92
600.18	46742.84
600.34	47019.02
600.50	46894.97
600.65	47019.02
600.81	46899.65
600.97	47349.04
601.12	47126.69
601.28	47091.58
601.44	46880.93
601.59	47002.64
601.75	46738.16
601.91	46721.77
602.06	46571.98
602.22	46904.34
602.37	46742.84
602.53	46686.67
602.69	46923.06
602.84	46939.44
603.00	46859.87
603.16	47030.72
603.31	46955.83
603.47	46810.71
603.62	46616.45
603.78	47086.90
603.94	47131.37
604.09	47119.66
604.25	47175.84
604.40	46918.38
604.56	46735.82
604.71	47035.41
604.87	46876.25
605.03	46930.08
605.18	46827.10
605.34	46408.14
605.49	46810.71
605.65	46843.48
605.80	47054.13
605.96	46752.20
606.12	46857.52
606.27	46969.87
606.43	46595.38
606.58	46958.17
606.74	46567.30
606.89	46712.41
607.05	46733.48
607.20	46719.43
607.36	46246.65
607.51	46658.58
607.67	46639.86
607.82	46660.92
607.98	46618.79
608.13	46192.81
608.29	46777.95
608.44	46499.42
608.60	46312.18
608.75	46483.04
608.91	46780.29
609.06	46471.34
609.22	46354.31
609.37	46398.78
609.53	46471.34
609.68	46803.69
609.84	46698.37
609.99	46216.22
610.15	46080.47
610.30	46052.38
610.46	46127.28
610.61	46396.44
610.76	46232.60
610.92	46557.94
611.07	46532.19
611.23	46660.92
611.38	46335.59
611.54	45937.69
611.69	46164.73
611.84	45619.38
612.00	46206.86
612.15	45778.54
612.31	46368.35
612.46	46122.60
612.62	46410.48
612.77	46452.61
612.92	46057.06
613.08	45862.80
613.23	45895.56
613.39	45846.41
613.54	45916.63
613.69	45909.61
613.85	45691.94
614.00	45993.87
614.15	45993.87
614.31	46024.29
614.46	46281.75
614.62	45759.81
614.77	46183.45
614.92	46064.08
615.08	45799.60
615.23	45439.16
615.38	45614.70
615.54	45535.12
615.69	45701.30
615.84	45532.78
616.00	45347.88
616.15	45600.66
616.30	45642.79
616.46	45277.66
616.61	45172.34
616.76	45422.78
616.92	45057.65
617.07	44825.94
617.22	45340.86
617.37	45305.75
617.53	45591.30
617.68	46064.08
617.83	45542.14
617.99	45500.01
618.14	45118.51
618.29	44608.27
618.45	44760.40
618.60	45193.40
618.75	44985.10
618.90	44416.35
619.06	44926.58
619.21	45111.49
619.36	45081.06
619.51	45366.60
619.67	45118.51
619.82	44942.97
619.97	45148.93
620.12	45050.63
620.28	44783.81
620.43	45031.91
620.58	45067.02
620.73	45141.91
620.89	45027.23
621.04	44741.68
621.19	44715.93
621.34	44898.50
621.49	44470.18
621.65	44542.74
621.80	45027.23
621.95	44364.85
622.10	44458.48
622.25	44648.06
622.41	44622.31
622.56	44327.41
622.71	44418.69
622.86	44762.75
623.01	43999.73
623.16	44062.93
623.32	44336.77
623.47	44236.12
623.62	44495.92
623.77	44341.45
623.92	44198.68
624.07	44348.47
624.23	44222.08
624.38	43821.85
624.53	43831.21
624.68	43969.30
624.83	44416.35
624.98	44051.22
625.13	43714.19
625.29	43896.75
625.44	43674.40
625.59	43819.51
625.74	43627.59
625.89	43768.02
626.04	43562.05
626.19	43711.84
626.34	43828.87
626.49	43622.90
626.65	43690.78
626.80	43737.59
626.95	43676.74
627.10	43082.24
627.25	43372.47
627.40	43124.37
627.55	43171.18
627.70	43360.76
627.85	43320.98
628.00	42822.44
628.15	43145.44
628.30	43213.31
628.45	43683.76
628.60	43283.53
628.76	43428.64
628.91	43306.93
629.06	42951.17
629.21	43054.15
629.36	43089.26
629.51	43122.03
629.66	43154.80
629.81	42557.96
629.96	42932.45
630.11	42927.77
630.26	43175.86
630.41	43468.43
630.56	43234.38
630.71	42389.44
630.86	42548.60
631.01	42581.37
631.16	42476.04
631.31	42703.07
631.46	42066.45
631.61	42646.90
631.76	43016.71
631.91	42527.53
632.06	42452.64
632.21	42817.76
632.36	42511.15
632.51	42513.49
632.66	42291.14
632.81	42167.09
632.96	42066.45
633.10	42071.13
633.25	42403.49
633.40	42230.29
633.55	42426.89
633.70	42263.05
633.85	42295.82
634.00	42410.51
634.15	42473.70
634.30	42574.34
634.45	42384.76
634.60	42478.38
634.75	42492.43
634.90	42150.71
635.05	42260.71
635.19	41823.03
635.34	42384.76
635.49	41881.55
635.64	41588.98
635.79	41642.81
635.94	42148.37
636.09	42040.70
636.24	41572.60
636.39	41155.98
636.53	41727.07
636.68	41689.62
636.83	41715.37
636.98	41378.33
637.13	41516.42
637.28	41607.70
637.43	41844.10
637.57	41691.96
637.72	41935.38
637.87	41474.29
638.02	41691.96
638.17	41408.76
638.32	41572.60
638.46	41345.56
638.61	41373.65
638.76	41207.47
638.91	41219.17
639.06	41324.50
639.20	41254.28
639.35	41408.76
639.50	41256.62
639.65	41415.78
639.80	41411.10
639.94	40837.67
640.09	40938.31
640.24	41053.00
640.39	41099.81
640.54	40947.67
640.68	41331.52
640.83	40678.51
640.98	40760.43
641.13	41123.21
641.27	41497.70
641.42	40641.06
641.57	40477.22
641.72	40793.20
641.86	40502.97
642.01	40666.81
642.16	40179.98
642.31	40044.23
642.45	40348.50
642.60	40212.74
642.75	40531.06
642.90	40954.69
643.04	40411.69
643.19	40816.60
643.34	40498.29
643.48	40318.07
643.63	40123.80
643.78	40474.88
643.93	40584.89
644.07	40517.01
644.22	39988.05
644.37	40226.79
644.51	40645.74
644.66	40760.43
644.81	40231.47
644.95	40250.19
645.10	40535.74
645.25	40582.55
645.39	40348.50
645.54	40048.91
645.69	39842.94
645.83	40032.52
645.98	39761.02
646.13	39941.24
646.27	40065.29
646.42	39583.14
646.57	40105.08
646.71	39856.98
646.86	39805.49
647.00	39959.97
647.15	39814.85
647.30	40032.52
647.44	39613.57
647.59	39803.15
647.74	39929.54
647.88	39459.09
648.03	39959.97
648.17	40091.04
648.32	39489.52
648.47	39421.64
648.61	39346.75
648.76	39292.91
648.90	39339.72
649.05	39285.89
649.20	39040.14
649.34	39409.94
649.49	39086.95
649.63	39093.97
649.78	39522.29
649.92	39150.14
650.07	39725.91
650.21	39370.15
650.36	39828.90
650.51	39395.90
650.65	40226.79
650.80	39875.71
650.94	39828.90
651.09	39262.49
651.23	38876.30
651.38	39248.44
651.52	38492.45
651.67	39119.71
651.81	38941.83
651.96	39089.29
652.10	39143.12
652.25	38976.94
652.39	38934.81
652.54	39222.70
652.68	38705.44
652.83	38934.81
652.97	39328.02
653.12	38857.57
653.26	38384.79
653.41	38438.62
653.55	38277.12
653.70	38864.60
653.84	38749.91
653.99	38770.97
654.13	38155.41
654.27	38469.04
654.42	38527.56
654.56	38457.34
654.71	38572.03
654.85	38316.91
655.00	38649.27
655.14	38132.01
655.29	38361.38
655.43	38106.26
655.57	37687.31
655.72	37605.39
655.86	37773.91
656.01	37792.63
656.15	37694.33
656.30	37738.80
656.44	37413.46
656.58	37823.06
656.73	37930.72
656.87	37759.86
657.01	37656.88
657.16	37694.33
657.30	37544.53
657.45	37670.92
657.59	37944.76
657.73	37919.02
657.88	38515.86
658.02	38064.13
658.16	38249.03
658.31	37834.76
658.45	37907.32
658.60	37619.43
658.74	37654.54
658.88	37441.55
659.03	37275.37
659.17	37137.28
659.31	37090.47
659.46	37336.23
659.60	37392.40
659.74	37319.84
659.89	36659.81
660.03	37125.58
660.17	37326.86
660.32	37057.70
660.46	37598.37
660.60	37017.91
660.74	36893.86
660.89	37006.21
661.03	36636.41
661.17	36655.13
661.32	36989.83
661.46	36552.15
661.60	36613.00
661.74	36603.64
661.89	36629.38
662.03	36774.50
662.17	36261.92
662.31	36882.16
662.46	36928.97
662.60	36652.79
662.74	36748.75
662.88	36517.04
663.03	36301.71
663.17	36304.05
663.31	36165.96
663.45	36423.42
663.60	35959.99
663.74	35735.30
663.88	35580.82
664.02	35683.81
664.17	36154.26
664.31	35737.64
664.45	35164.21
664.59	35440.39
664.73	35496.56
664.88	35889.77
665.02	35164.21
665.16	35215.70
665.30	35012.07
665.44	35496.56
665.59	34951.22
665.73	34876.32
665.87	34937.18
666.01	35147.82
666.15	35035.48
666.29	35150.17
666.44	35065.91
666.58	35070.59
666.72	35248.47
666.86	34862.28
667.00	34616.52
667.14	34883.34
667.28	34452.69
667.43	34597.80
667.57	34920.79
667.71	34660.99
667.85	34572.05
667.99	34492.47
668.13	34602.48
668.27	34665.67
668.41	34574.39
668.56	34258.42
668.70	34288.85
668.84	34003.30
668.98	33895.64
669.12	33757.55
669.26	33869.89
669.40	33680.31
669.54	33441.57
669.68	33509.45
669.82	33661.58
669.96	33347.95
670.10	33401.79
670.25	33869.89
670.39	33125.60
670.53	33359.66
670.67	33167.73
670.81	33596.05
670.95	33610.09
671.09	33149.01
671.23	33198.16
671.37	32978.15
671.51	32538.13
671.65	32725.37
671.79	32741.75
671.93	32734.73
672.07	33003.89
672.21	32563.87
672.35	32470.25
672.49	32921.98
672.63	32912.61
672.77	32598.98
672.91	32257.26
673.05	32229.18
673.19	32591.96
673.33	32016.19
673.47	32149.60
673.61	32074.70
673.75	31740.00
673.89	31548.08
674.03	31709.58
674.17	31824.26
674.31	31835.97
674.45	31562.12
674.59	31637.02
674.73	31559.78
674.87	31826.60
675.01	31512.97
675.15	31063.59
675.29	31278.92
675.43	31192.32
675.56	31091.68
675.70	31257.85
675.84	30848.26
675.98	30047.80
676.12	30714.85
676.26	31072.95
676.40	30869.33
676.54	30998.06
676.68	30967.63
676.82	30103.97
676.96	30106.31
677.10	30110.99
677.23	29956.52
677.37	29968.22
677.51	29963.54
677.65	29907.37
677.79	29233.29
677.93	29549.26
678.07	29378.40
678.21	29223.93
678.34	28966.47
678.48	28760.50
678.62	29170.10
678.76	28758.16
678.90	28964.13
679.04	28517.09
679.18	28790.93
679.31	28737.10
679.45	28484.32
679.59	28479.64
679.73	28489.00
679.87	28458.57
680.00	27749.39
680.14	27838.33
680.28	28016.21
680.42	28538.15
680.56	28166.01
680.70	27992.81
680.83	28077.07
680.97	27796.20
681.11	27754.07
681.25	27276.60
681.39	27641.73
681.52	27468.53
681.66	27351.50
681.80	27285.97
681.94	27044.89
682.07	27112.77
682.21	26794.45
682.35	26876.37
682.49	27058.93
682.62	27171.28
682.76	26513.59
682.90	26291.24
683.04	26590.83
683.17	26092.29
683.31	26295.92
683.45	26094.63
683.59	26061.87
683.72	25748.23
683.86	26108.68
684.00	26305.28
684.13	25905.05
684.27	25738.87
684.41	25614.82
684.55	25263.74
684.68	25549.29
684.82	25577.37
684.96	25275.45
685.09	24896.28
685.23	24900.96
685.37	25067.14
685.50	25062.46
685.64	24680.95
685.78	24584.99
685.91	24533.50
686.05	24699.67
686.19	24533.50
686.32	24369.66
686.46	24116.88
686.60	23232.16
686.73	23704.95
686.87	23400.68
687.01	23300.03
687.14	23555.15
687.28	23091.73
687.42	23356.21
687.55	23213.43
687.69	23274.29
687.82	23442.81
687.96	23335.14
688.10	22944.27
688.23	22920.87
688.37	22953.63
688.50	22588.51
688.64	22679.79
688.78	22892.78
688.91	22595.53
689.05	22445.74
689.18	22242.11
689.32	22211.68
689.46	22333.39
689.59	22384.88
689.73	22260.84
689.86	22284.24
690.00	21902.73
690.13	21905.07
690.27	21961.25
690.41	21687.40
690.54	21422.92
690.68	21610.17
690.81	21422.92
690.95	21507.18
691.08	21373.77
691.22	21380.79
691.35	21282.49
691.49	21364.41
691.62	21151.42
691.76	21268.45
691.89	20968.86
692.03	20734.81
692.16	20739.49
692.30	20552.24
692.43	20322.87
692.57	20414.15
692.70	20442.24
692.84	20039.67
692.97	19878.17
693.11	19805.61
693.24	19754.12
693.38	19777.53
693.51	19763.48
693.65	20100.52
693.78	19913.28
693.92	19697.95
694.05	19632.41
694.19	19281.33
694.32	19625.39
694.45	19129.20
694.59	19365.59
694.72	19215.80
694.86	19185.37
694.99	19201.76
695.13	18965.36
695.26	18911.53
695.39	18831.95
695.53	19066.00
695.66	18726.63
695.80	19066.00
695.93	19019.19
696.07	18342.78
696.20	18476.19
696.33	18518.32
696.47	18298.31
696.60	18134.47
696.73	18033.83
696.87	18029.15
697.00	18057.23
697.14	17614.87
697.27	17654.66
697.40	17736.58
697.54	17575.08
697.67	17502.53
697.80	17392.52
697.94	17041.44
698.07	17345.71
698.21	17116.34
698.34	17282.52
698.47	16985.27
698.61	16861.22
698.74	16978.25
698.87	16652.91
699.01	16746.53
699.14	16835.47
699.27	16695.04
699.40	16599.08
699.54	16280.77
699.67	16386.09
699.80	16435.24
699.94	16058.42
700.07	16411.84
700.20	16252.68
700.34	16187.14
700.47	15997.56
700.60	16472.69
700.73	16142.67
700.87	15913.30
701.00	15700.31
701.13	15721.38
701.26	15506.05
701.40	15807.98
701.53	15494.35
701.66	15693.29
701.79	15180.71
701.93	15218.16
702.06	15248.59
702.19	14637.71
702.32	14988.79
702.46	14766.44
702.59	15012.20
702.72	14941.98
702.85	15096.46
702.99	14801.55
703.12	15044.96
703.25	14740.69
703.38	14581.54
703.51	14434.08
703.65	14544.09
703.78	14375.57
703.91	14047.90
704.04	14101.73
704.17	14003.43
704.31	14319.40
704.44	14038.53
704.57	14286.63
704.70	13895.76
704.83	13837.25
704.96	13750.65
705.10	13647.66
705.23	13771.71
>>>>>End Processed Spectral Data<<<<<
