SpectraSuite Data File
++++++++++++++++++++++++++++++++++++
Date: Fri Oct 25 10:44:15 EDT 2013
User: price-jones
Dark Spectrum Present: No
Reference Spectrum Present: No
Number of Sampled Component Spectra: 1
Spectrometers: USB2+H05261
Integration Time (usec): 100000 (USB2+H05261)
Spectra Averaged: 1 (USB2+H05261)
Boxcar Smoothing: 0 (USB2+H05261)
Correct for Electrical Dark: No (USB2+H05261)
Strobe/Lamp Enabled: No (USB2+H05261)
Correct for Detector Non-linearity: No (USB2+H05261)
Correct for Stray Light: No (USB2+H05261)
Number of Pixels in Processed Spectrum: 2048
>>>>>Begin Processed Spectral Data<<<<<
365.73	128.73
365.92	128.73
366.12	128.73
366.32	58.51
366.52	0.00
366.72	63.19
366.91	0.00
367.11	0.00
367.31	88.94
367.51	0.00
367.70	51.49
367.90	14.04
368.10	7.02
368.30	25.75
368.49	56.17
368.69	32.77
368.89	88.94
369.09	32.77
369.28	98.30
369.48	88.94
369.68	93.62
369.87	86.60
370.07	110.01
370.27	159.16
370.47	142.77
370.66	304.27
370.86	416.62
371.06	496.19
371.25	521.94
371.45	407.25
371.65	440.02
371.84	358.10
372.04	507.90
372.24	421.30
372.44	421.30
372.63	568.75
372.83	510.24
373.03	528.96
373.22	489.17
373.42	545.34
373.62	559.39
373.81	578.11
374.01	638.97
374.21	580.45
374.40	601.52
374.60	582.79
374.79	519.60
374.99	568.75
375.19	617.90
375.38	571.09
375.58	643.65
375.78	638.97
375.97	566.41
376.17	699.82
376.37	634.29
376.56	603.86
376.76	617.90
376.95	613.22
377.15	592.16
377.35	678.76
377.54	620.24
377.74	669.39
377.93	681.10
378.13	655.35
378.33	758.33
378.52	627.26
378.72	755.99
378.91	706.84
379.11	547.69
379.31	629.60
379.50	573.43
379.70	716.20
379.89	662.37
380.09	638.97
380.28	737.27
380.48	692.80
380.68	683.44
380.87	709.18
381.07	629.60
381.26	660.03
381.46	681.10
381.65	636.63
381.85	676.41
382.04	683.44
382.24	758.33
382.43	760.67
382.63	692.80
382.83	711.52
383.02	704.50
383.22	791.10
383.41	669.39
383.61	734.93
383.80	779.40
384.00	842.59
384.19	826.21
384.39	816.85
384.58	739.61
384.78	755.99
384.97	732.59
385.17	751.31
385.36	777.06
385.56	812.17
385.75	763.01
385.95	877.70
386.14	781.74
386.34	753.65
386.53	784.08
386.72	863.66
386.92	858.98
387.11	849.61
387.31	931.53
387.50	887.06
387.70	880.04
387.89	929.19
388.09	861.32
388.28	945.58
388.48	882.38
388.67	933.87
388.86	976.00
389.06	828.55
389.25	997.07
389.45	1001.75
389.64	924.51
389.84	1025.15
390.03	1064.94
390.22	938.55
390.42	985.37
390.61	943.24
390.81	1048.56
391.00	1086.01
391.19	1064.94
391.39	1078.99
391.58	1029.84
391.78	1071.97
391.97	1078.99
392.16	994.73
392.36	1043.88
392.55	1015.79
392.75	1022.81
392.94	1025.15
393.13	1025.15
393.33	1011.11
393.52	997.07
393.71	1116.44
393.91	1121.12
394.10	1151.54
394.29	1188.99
394.49	1181.97
394.68	1228.78
394.88	1331.76
395.07	1303.68
395.26	1338.79
395.46	1158.57
395.65	1205.38
395.84	1193.67
396.04	1371.55
396.23	1149.20
396.42	1078.99
396.62	1167.93
396.81	1198.35
397.00	1142.18
397.19	1282.61
397.39	1301.34
397.58	1355.17
397.77	1371.55
397.97	1437.09
398.16	1439.43
398.35	1385.60
398.55	1362.19
398.74	1514.33
398.93	1479.22
399.12	1502.62
399.32	1490.92
399.51	1479.22
399.70	1617.31
399.90	1572.84
400.09	1540.07
400.28	1603.27
400.47	1638.38
400.67	1668.80
400.86	1685.19
401.05	1540.07
401.24	1661.78
401.44	1724.97
401.63	1659.44
401.82	1760.08
402.01	1666.46
402.21	1778.81
402.40	1769.44
402.59	1760.08
402.78	1696.89
402.97	1760.08
403.17	1769.44
403.36	1874.77
403.55	1827.96
403.74	1933.28
403.93	1905.20
404.13	1846.68
404.32	1933.28
404.51	1900.52
404.70	2003.50
404.89	1888.81
405.09	1991.80
405.28	1963.71
405.47	1989.46
405.66	1952.01
405.85	1881.79
406.05	1947.33
406.24	1914.56
406.43	2036.27
406.62	2108.82
406.81	2153.29
407.00	2066.69
407.20	2099.46
407.39	2076.06
407.58	2073.71
407.77	2122.87
407.96	2153.29
408.15	2193.08
408.34	2176.70
408.54	2284.36
408.73	2209.47
408.92	2338.20
409.11	2420.11
409.30	2452.88
409.49	2284.36
409.68	2373.30
409.87	2296.07
410.07	2354.58
410.26	2389.69
410.45	2464.58
410.64	2499.69
410.83	2420.11
411.02	2422.45
411.21	2525.44
411.40	2506.71
411.59	2633.10
411.78	2511.39
411.98	2602.68
412.17	2689.28
412.36	2677.57
412.55	2675.23
412.74	2693.96
412.93	2729.06
413.12	2752.47
413.31	2764.17
413.50	2752.47
413.69	2771.19
413.88	2825.03
414.07	2979.50
414.26	2918.65
414.45	2946.73
414.64	2935.03
414.83	3063.76
415.02	3049.72
415.22	3070.78
415.41	3122.27
415.60	3115.25
415.79	3225.26
415.98	3251.00
416.17	3255.69
416.36	3112.91
416.55	3225.26
416.74	3260.37
416.93	3131.64
417.12	3173.77
417.31	3276.75
417.50	3522.51
417.69	3499.10
417.88	3456.97
418.07	3356.33
418.26	3428.88
418.45	3473.36
418.64	3574.00
418.83	3522.51
419.02	3574.00
419.21	3449.95
419.39	3592.72
419.58	3475.70
419.77	3588.04
419.96	3634.85
420.15	3801.03
420.34	3698.05
420.53	3744.86
420.72	3740.18
420.91	3871.25
421.10	3815.07
421.29	3885.29
421.48	3845.50
421.67	3981.25
421.86	3740.18
422.05	3791.67
422.24	3850.18
422.43	3700.39
422.61	3749.54
422.80	3859.54
422.99	3861.88
423.18	3913.38
423.37	4053.81
423.56	3822.09
423.75	3880.61
423.94	3875.93
424.13	3688.68
424.32	3808.05
424.50	3995.29
424.69	3913.38
424.88	4072.53
425.07	3906.35
425.26	3999.98
425.45	3927.42
425.64	3946.14
425.83	3974.23
426.01	4133.39
426.20	4100.62
426.39	4135.73
426.58	4037.42
426.77	3885.29
426.96	3927.42
427.15	3988.27
427.33	4046.79
427.52	4025.72
427.71	4091.26
427.90	4119.34
428.09	4290.20
428.28	4191.90
428.46	4119.34
428.65	4084.23
428.84	4191.90
429.03	4308.93
429.22	4248.07
429.40	4177.86
429.59	4072.53
429.78	3999.98
429.97	3988.27
430.16	4002.32
430.34	4035.08
430.53	4014.02
430.72	4236.37
430.91	4311.27
431.10	4212.96
431.28	4472.76
431.47	4571.07
431.66	4622.56
431.85	4486.81
432.03	4514.89
432.22	4601.49
432.41	4741.93
432.60	4594.47
432.79	4641.28
432.97	4837.89
433.16	4688.09
433.35	4638.94
433.54	4620.22
433.72	4674.05
433.91	4615.54
434.10	4786.40
434.28	4692.77
434.47	4786.40
434.66	5057.90
434.85	4837.89
435.03	4826.18
435.22	4954.91
435.41	5184.29
435.59	5090.67
435.78	5135.14
435.97	5029.81
436.16	5266.21
436.34	5165.56
436.53	5067.26
436.72	5240.46
436.90	4938.53
437.09	5275.57
437.28	5128.11
437.46	5170.24
437.65	5219.39
437.84	5153.86
438.02	5118.75
438.21	5296.63
438.40	5078.96
438.58	5224.08
438.77	5462.81
438.96	5427.70
439.14	5481.53
439.33	5624.31
439.52	5675.80
439.70	5633.67
439.89	5769.42
440.08	5753.04
440.26	5671.12
440.45	5685.16
440.63	5743.67
440.82	6141.57
441.01	5937.94
441.19	6008.16
441.38	6097.10
441.57	6155.61
441.75	6146.25
441.94	6225.82
442.12	6324.13
442.31	6373.28
442.50	6202.42
442.68	6284.34
442.87	6490.31
443.05	6436.47
443.24	6392.00
443.43	6228.17
443.61	6380.30
443.80	6792.23
443.98	6335.83
444.17	6296.04
444.35	6415.41
444.54	6705.63
444.73	6539.46
444.91	6424.77
445.10	6394.34
445.28	6530.09
445.47	6413.07
445.65	6574.56
445.84	6513.71
446.02	6604.99
446.21	6555.84
446.39	6516.05
446.58	6745.42
446.77	6604.99
446.95	6614.35
447.14	6839.05
447.32	6614.35
447.51	6747.76
447.69	6424.77
447.88	6759.47
448.06	6890.54
448.25	6581.59
448.43	6616.69
448.62	6731.38
448.80	6682.23
448.99	6724.36
449.17	6897.56
449.36	6747.76
449.54	6897.56
449.73	6979.48
449.91	7194.81
450.10	7148.00
450.28	7215.87
450.46	7295.45
450.65	7351.62
450.83	7140.97
451.02	7105.87
451.20	7360.98
451.39	7232.26
451.57	7117.57
451.76	7037.99
451.94	7089.48
452.13	7297.79
452.31	7129.27
452.49	7194.81
452.68	7414.82
452.86	7194.81
453.05	7211.19
453.23	7459.29
453.42	7208.85
453.60	7316.51
453.78	7442.90
453.97	7487.37
454.15	7435.88
454.34	7328.22
454.52	7700.36
454.70	7442.90
454.89	7751.85
455.07	7529.50
455.26	7609.08
455.44	7796.32
455.62	7705.04
455.81	7548.23
455.99	7995.27
456.17	7791.64
456.36	7604.40
456.54	7878.24
456.73	7826.75
456.91	8084.21
457.09	8182.51
457.28	8262.09
457.46	7889.95
457.64	8084.21
457.83	8154.43
458.01	8100.59
458.19	8290.18
458.38	8121.66
458.56	8393.16
458.74	8100.59
458.93	8245.71
459.11	8369.76
459.29	8166.13
459.48	8311.24
459.66	8217.62
459.84	8365.07
460.03	8564.02
460.21	8374.44
460.39	8610.83
460.57	8608.49
460.76	8599.13
460.94	8657.64
461.12	8814.46
461.31	8617.85
461.49	8664.66
461.67	8423.59
461.85	8769.99
462.04	8851.91
462.22	8940.85
462.40	8954.89
462.59	8851.91
462.77	8985.32
462.95	9046.17
463.13	8830.84
463.32	8985.32
463.50	9046.17
463.68	9074.26
463.86	8950.21
464.05	8922.12
464.23	8786.37
464.41	8936.17
464.59	8809.78
464.78	9273.20
464.96	9123.41
465.14	9046.17
465.32	9284.91
465.50	9238.09
465.69	9303.63
465.87	9193.62
466.05	9167.88
466.23	9153.84
466.41	9090.64
466.60	9228.73
466.78	9139.79
466.96	9135.11
467.14	9221.71
467.32	9439.38
467.51	9476.83
467.69	9345.76
467.87	9516.62
468.05	9486.19
468.23	9329.38
468.41	9345.76
468.60	9572.79
468.78	9554.07
468.96	9359.80
469.14	9563.43
469.32	9820.89
469.50	9411.29
469.69	9600.88
469.87	9778.76
470.05	9870.04
470.23	10029.20
470.41	9640.67
470.59	10066.64
470.77	9736.63
470.95	10038.56
471.14	10171.97
471.32	10026.86
471.50	10228.14
471.68	10221.12
471.86	10394.32
472.04	10345.17
472.22	10663.48
472.40	10087.71
472.58	10298.36
472.77	10555.82
472.95	10183.67
473.13	10899.87
473.31	10518.37
473.49	10633.05
473.67	10527.73
473.85	10864.77
474.03	10677.52
474.21	10888.17
474.39	10925.62
474.57	10984.13
474.75	11166.70
474.93	11243.93
475.12	11279.04
475.30	11300.11
475.48	11269.68
475.66	11559.91
475.84	11225.21
476.02	11243.93
476.20	11641.82
476.38	11538.84
476.56	11815.02
476.74	11859.49
476.92	11852.47
477.10	11639.48
477.28	11906.31
477.46	11946.09
477.64	12217.60
477.82	12386.12
478.00	12575.70
478.18	12336.96
478.36	12465.69
478.54	12697.41
478.72	12704.43
478.90	12807.41
479.08	13254.45
479.26	12903.37
479.44	13256.79
479.62	13345.73
479.80	13198.28
479.98	13366.80
480.16	13809.16
480.34	13696.82
480.52	13811.50
480.70	13855.97
480.88	13495.53
481.06	13973.00
481.24	14125.13
481.41	14141.52
481.59	14328.76
481.77	14595.58
481.95	14181.31
482.13	14427.06
482.31	14420.04
482.49	14918.57
482.67	14881.13
482.85	15012.20
483.03	15005.17
483.21	15260.29
483.39	15492.01
483.57	15527.11
483.74	15658.18
483.92	15599.67
484.10	15524.77
484.28	15960.11
484.46	16402.47
484.64	16283.11
484.82	15988.20
485.00	16114.59
485.18	16486.73
485.35	16418.86
485.53	16245.66
485.71	16400.13
485.89	16702.06
486.07	16706.74
486.25	16807.39
486.43	16786.32
486.61	17427.63
486.78	17165.49
486.96	17036.76
487.14	17748.28
487.32	17715.51
487.50	17797.43
487.68	18019.78
487.85	18431.72
488.03	18312.35
488.21	18384.91
488.39	18698.54
488.57	18794.50
488.75	18834.29
488.92	19236.86
489.10	19529.43
489.28	19587.94
489.46	19695.61
489.64	19536.45
489.81	20203.50
489.99	20222.23
490.17	19927.32
490.35	20283.08
490.53	20252.66
490.70	20023.28
490.88	20727.78
491.06	20959.50
491.24	20688.00
491.41	20547.56
491.59	20819.07
491.77	20947.79
491.95	21130.36
492.13	21291.85
492.30	21483.78
492.48	21570.38
492.66	21832.52
492.84	21586.76
493.01	21860.60
493.19	22111.04
493.37	22192.96
493.54	22230.41
493.72	22309.99
493.90	22726.60
494.08	22607.23
494.25	22906.82
494.43	23183.01
494.61	23220.45
494.79	23531.75
494.96	23410.04
495.14	23386.63
495.32	23674.52
495.49	23508.34
495.67	24149.65
495.85	23924.96
496.02	24350.93
496.20	24624.78
496.38	24402.43
496.55	24566.26
496.73	25291.83
496.91	24959.47
497.09	25013.31
497.26	25062.46
497.44	25247.36
497.62	25418.22
497.79	25088.20
497.97	25340.98
498.14	25603.12
498.32	25570.35
498.50	25776.32
498.67	25577.37
498.85	25848.88
499.03	26293.58
499.20	26073.57
499.38	26185.91
499.56	26284.22
499.73	26555.72
499.91	26291.24
500.08	26019.74
500.26	26389.54
500.44	26745.30
500.61	26595.51
500.79	26824.88
500.97	27063.61
501.14	27122.13
501.32	27384.27
501.49	27117.45
501.67	26916.16
501.84	27304.69
502.02	27353.84
502.20	27892.16
502.37	27690.88
502.55	27969.40
502.72	27936.63
502.90	28093.45
503.07	28196.43
503.25	28018.55
503.43	27908.55
503.60	28004.51
503.78	28149.62
503.95	28151.96
504.13	28182.39
504.30	28842.42
504.48	28645.82
504.65	29467.34
504.83	29015.62
505.01	29591.39
505.18	28795.61
505.36	29364.36
505.53	29722.46
505.71	30066.52
505.88	29750.55
506.06	29237.97
506.23	29832.47
506.41	29546.92
506.58	30183.55
506.76	30192.91
506.93	30216.32
507.11	29970.56
507.28	30129.72
507.46	30209.29
507.63	30094.61
507.81	30497.18
507.98	29783.32
508.16	30160.14
508.33	30567.40
508.50	30759.32
508.68	30991.03
508.85	31255.51
509.03	30742.94
509.20	31133.81
509.38	31379.56
509.55	30885.71
509.73	31517.65
509.90	31311.69
510.08	31206.36
510.25	31859.37
510.42	31566.81
510.60	32088.74
510.77	31934.27
510.95	32367.27
511.12	31917.89
511.30	32189.39
511.47	32247.90
511.64	32470.25
511.82	31988.10
511.99	32018.53
512.17	32154.28
512.34	32210.45
512.51	32414.08
512.69	32657.49
512.86	32566.21
513.04	32847.08
513.21	32919.63
513.38	32713.67
513.56	33090.49
513.73	32945.38
513.90	32861.12
514.08	32957.08
514.25	32987.51
514.43	33085.81
514.60	33624.14
514.77	33333.91
514.95	34043.09
515.12	34375.45
515.29	33584.35
515.47	33961.17
515.64	34153.10
515.81	33762.23
515.99	33769.25
516.16	33963.51
516.33	33301.14
516.51	33528.17
516.68	33638.18
516.85	33450.94
517.03	33647.54
517.20	33942.45
517.37	34270.12
517.54	34457.37
517.72	34113.31
517.89	34052.45
518.06	33900.32
518.24	34291.19
518.41	34253.74
518.58	34574.39
518.75	34469.07
518.93	34969.94
519.10	34307.57
519.27	34972.28
519.45	35449.75
519.62	35578.48
519.79	35229.74
519.96	35384.22
520.14	35761.05
520.31	35332.73
520.48	35086.97
520.65	35557.42
520.83	35587.85
521.00	35868.71
521.17	35725.94
521.34	35955.31
521.52	35988.08
521.69	36292.35
521.86	36730.03
522.03	36278.30
522.20	36360.22
522.38	36212.77
522.55	36437.46
522.72	36615.34
522.89	36655.13
523.07	36259.58
523.24	36519.38
523.41	37172.39
523.58	36795.56
523.75	37170.05
523.92	36952.38
524.10	37195.79
524.27	37216.86
524.44	36996.85
524.61	37368.99
524.78	37750.50
524.96	37921.36
525.13	37902.64
525.30	37958.81
525.47	37741.14
525.64	37446.23
525.81	37804.33
525.98	37256.65
526.16	37567.94
526.33	37195.79
526.50	37811.35
526.67	37411.12
526.84	37429.85
527.01	37481.34
527.18	37848.80
527.36	37937.74
527.53	38260.74
527.70	38869.28
527.87	38579.05
528.04	38433.94
528.21	38529.90
528.38	38181.16
528.55	38838.85
528.72	39318.66
528.89	39000.35
529.07	39351.43
529.24	38817.78
529.41	39063.54
529.58	39042.48
529.75	39040.14
529.92	39433.35
530.09	39138.44
530.26	38775.66
530.43	39201.63
530.60	39229.72
530.77	39356.11
530.94	39700.17
531.11	39552.71
531.28	39297.59
531.46	39653.36
531.63	39751.66
531.80	39503.56
531.97	39374.83
532.14	39423.98
532.31	39089.29
532.48	39508.24
532.65	39611.23
532.82	39639.31
532.99	40016.14
533.16	40205.72
533.33	40030.18
533.50	40210.40
533.67	40467.86
533.84	39945.92
534.01	40521.69
534.18	40540.42
534.35	40584.89
534.52	40416.37
534.69	40460.84
534.86	40498.29
535.03	40687.87
535.20	40795.54
535.37	40868.09
535.54	40851.71
535.71	41151.30
535.88	40814.26
536.05	41088.10
536.22	40631.70
536.38	40573.19
536.55	41015.55
536.72	41198.11
536.89	40528.72
537.06	41038.95
537.23	41216.83
537.40	40905.54
537.57	41305.77
537.74	40917.25
537.91	41511.74
538.08	41656.85
538.25	41017.89
538.42	41441.53
538.59	42059.43
538.75	41441.53
538.92	41464.93
539.09	41443.87
539.26	42057.09
539.43	41497.70
539.60	41607.70
539.77	41090.44
539.94	41823.03
540.11	41223.86
540.28	41453.23
540.44	41626.43
540.61	41385.35
540.78	41429.82
540.95	41689.62
541.12	41790.27
541.29	41736.43
541.46	42085.17
541.62	41914.31
541.79	42054.75
541.96	41806.65
542.13	41902.61
542.30	41918.99
542.47	42440.93
542.63	42567.32
542.80	42256.03
542.97	42377.74
543.14	42501.79
543.31	43019.05
543.48	42934.79
543.64	43096.28
543.81	43124.37
543.98	43199.27
544.15	42579.03
544.32	43014.37
544.48	42939.47
544.65	42939.47
544.82	43320.98
544.99	43016.71
545.16	43164.16
545.32	42782.65
545.49	43421.62
545.66	43253.10
545.83	43742.27
546.00	43480.13
546.16	43423.96
546.33	43246.08
546.50	42934.79
546.67	43316.29
546.83	42993.30
547.00	43482.47
547.17	43178.20
547.34	43388.85
547.50	43449.70
547.67	43620.56
547.84	43573.75
548.00	43723.55
548.17	44154.21
548.34	43896.75
548.51	44074.63
548.67	44081.65
548.84	43966.96
549.01	43569.07
549.18	43566.73
549.34	44224.42
549.51	44154.21
549.68	44289.96
549.84	44259.53
550.01	44250.17
550.18	44189.31
550.34	43749.29
550.51	43852.28
550.68	44189.31
550.84	43952.92
551.01	43831.21
551.18	44519.33
551.34	44376.56
551.51	44388.26
551.68	44437.41
551.84	44488.90
552.01	44367.20
552.18	44156.55
552.34	43889.73
552.51	44617.63
552.68	44863.39
552.84	44425.71
553.01	44697.21
553.18	44428.05
553.34	44769.77
553.51	44311.02
553.67	44584.86
553.84	45174.68
554.01	44861.05
554.17	44912.54
554.34	44865.73
554.51	45074.04
554.67	44868.07
554.84	44898.50
555.00	44566.14
555.17	44645.72
555.33	44947.65
555.50	44725.30
555.67	45151.27
555.83	44914.88
556.00	44725.30
556.16	45586.61
556.33	44837.64
556.50	45212.13
556.66	44985.10
556.83	44591.89
556.99	45099.78
557.16	45031.91
557.32	45200.43
557.49	45193.40
557.65	44421.03
557.82	45078.72
557.98	45095.10
558.15	45514.06
558.32	45275.32
558.48	45436.82
558.65	45052.97
558.81	45062.33
558.98	44776.79
559.14	45088.08
559.31	45059.99
559.47	45551.51
559.64	45628.74
559.80	45904.93
559.97	45659.17
560.13	45237.87
560.30	45111.49
560.46	45457.88
560.63	45485.97
560.79	45317.45
560.96	45860.46
561.12	45443.84
561.29	45677.90
561.45	45825.35
561.61	45434.48
561.78	45668.53
561.94	45443.84
562.11	45443.84
562.27	45619.38
562.44	45769.18
562.60	45823.01
562.77	45488.31
562.93	45298.73
563.10	46213.88
563.26	45415.76
563.42	45855.78
563.59	45478.95
563.75	45579.59
563.92	45874.50
564.08	45703.64
564.24	45858.12
564.41	45668.53
564.57	45956.42
564.74	45713.00
564.90	45500.01
565.07	45745.77
565.23	45792.58
565.39	45553.85
565.56	45490.65
565.72	45689.60
565.88	45523.42
566.05	45577.25
566.21	45762.15
566.38	45617.04
566.54	45874.50
566.70	45900.25
566.87	46454.95
567.03	46075.79
567.19	46181.11
567.36	46375.37
567.52	45958.76
567.68	46146.00
567.85	45982.16
568.01	46066.42
568.17	46258.35
568.34	45935.35
568.50	45801.94
568.66	45722.37
568.83	46323.88
568.99	45401.71
569.15	45567.89
569.32	46031.32
569.48	46124.94
569.64	46370.69
569.81	45993.87
569.97	45855.78
570.13	45511.72
570.30	45970.46
570.46	45869.82
570.62	45862.80
570.78	45371.28
570.95	45893.22
571.11	45949.40
571.27	45705.98
571.43	45956.42
571.60	45851.09
571.76	45813.65
571.92	45991.53
572.09	46054.72
572.25	45745.77
572.41	46059.40
572.57	46143.66
572.74	46487.72
572.90	45631.08
573.06	46169.41
573.22	46328.56
573.38	46167.07
573.55	45893.22
573.71	46319.20
573.87	46204.52
574.03	46052.38
574.20	46178.77
574.36	46050.04
574.52	46293.46
574.68	46529.85
574.84	46211.54
575.01	46375.37
575.17	45958.76
575.33	45806.62
575.49	45925.99
575.65	45930.67
575.82	46536.87
575.98	46410.48
576.14	46539.21
576.30	46202.18
576.46	46169.41
576.62	46328.56
576.79	45907.27
576.95	45937.69
577.11	46204.52
577.27	46033.66
577.43	46366.01
577.59	45883.86
577.75	45773.86
577.92	46021.95
578.08	45862.80
578.24	45727.05
578.40	46103.87
578.56	46342.61
578.72	46054.72
578.88	46277.07
579.04	46616.45
579.21	46064.08
579.37	46199.83
579.53	46143.66
579.69	46342.61
579.85	46398.78
580.01	46466.66
580.17	46401.12
580.33	46714.75
580.49	46616.45
580.65	46443.25
580.82	46232.60
580.98	46075.79
581.14	46361.33
581.30	46422.19
581.46	46618.79
581.62	46260.69
581.78	46108.55
581.94	46930.08
582.10	46073.45
582.26	46417.50
582.42	46658.58
582.58	46227.92
582.74	45970.46
582.90	46162.39
583.06	46728.80
583.22	46274.73
583.38	46405.80
583.54	46733.48
583.70	46277.07
583.86	46621.13
584.02	46012.59
584.18	46656.24
584.34	46579.00
584.50	46223.24
584.66	46380.06
584.82	46312.18
584.98	46480.70
585.14	46532.19
585.30	46113.23
585.46	46546.23
585.62	46174.09
585.78	46253.67
585.94	46218.56
586.10	46043.02
586.26	46085.15
586.42	46649.22
586.58	46478.36
586.74	46298.14
586.90	46148.34
587.06	46298.14
587.22	46244.30
587.38	45689.60
587.54	46522.83
587.70	46176.43
587.86	46396.44
588.02	46424.53
588.18	46216.22
588.34	46433.89
588.49	45853.44
588.65	45544.48
588.81	45874.50
588.97	46370.69
589.13	45907.27
589.29	46164.73
589.45	46218.56
589.61	46253.67
589.77	46124.94
589.93	46373.03
590.08	46782.63
590.24	46576.66
590.40	46539.21
590.56	46637.51
590.72	46934.76
590.88	46473.68
591.04	46351.97
591.20	46934.76
591.35	46817.74
591.51	46878.59
591.67	46450.27
591.83	46766.24
591.99	46096.85
592.15	46344.95
592.31	46394.10
592.46	46953.49
592.62	46454.95
592.78	46419.84
592.94	46639.86
593.10	46363.67
593.26	46401.12
593.41	46653.90
593.57	46277.07
593.73	46492.40
593.89	46522.83
594.05	46581.34
594.20	46911.36
594.36	46330.90
594.52	46583.68
594.68	46169.41
594.84	46148.34
594.99	46887.95
595.15	46466.66
595.31	46394.10
595.47	46452.61
595.62	46703.05
595.78	46459.63
595.94	46845.82
596.10	46499.42
596.25	47042.43
596.41	46808.37
596.57	46728.80
596.73	46972.21
596.88	46473.68
597.04	46525.17
597.20	46363.67
597.36	46899.65
597.51	47154.77
597.67	46869.23
597.83	46742.84
597.99	46852.84
598.14	46569.64
598.30	46623.47
598.46	46433.89
598.61	46188.13
598.77	46375.37
598.93	46431.55
599.09	46265.37
599.24	46932.42
599.40	46607.09
599.56	46759.22
599.71	46436.23
599.87	46883.27
600.03	46553.26
600.18	46473.68
600.34	46391.76
600.50	46499.42
600.65	46630.49
600.81	46298.14
600.97	46667.94
601.12	46782.63
601.28	46747.52
601.44	46745.18
601.59	46216.22
601.75	46129.62
601.91	46539.21
602.06	46244.30
602.22	46478.36
602.37	46447.93
602.53	46447.93
602.69	46983.91
602.84	46501.76
603.00	46454.95
603.16	46478.36
603.31	46239.62
603.47	46492.40
603.62	46719.43
603.78	46574.32
603.94	46319.20
604.09	46534.53
604.25	46548.57
604.40	46380.06
604.56	46616.45
604.71	46309.84
604.87	46113.23
605.03	46293.46
605.18	46026.63
605.34	46438.57
605.49	45750.45
605.65	46129.62
605.80	46227.92
605.96	46143.66
606.12	46361.33
606.27	46972.21
606.43	46344.95
606.58	46272.39
606.74	45975.14
606.89	46412.82
607.05	46384.74
607.20	46197.49
607.36	46134.30
607.51	46703.05
607.67	46277.07
607.82	46061.74
607.98	46326.22
608.13	45752.79
608.29	45741.09
608.44	46153.02
608.60	45855.78
608.75	46064.08
608.91	45930.67
609.06	46005.57
609.22	46188.13
609.37	45673.21
609.53	45886.20
609.68	46113.23
609.84	45385.33
609.99	45965.78
610.15	45682.58
610.30	45818.33
610.46	45675.55
610.61	45888.54
610.76	45991.53
610.92	46101.53
611.07	45961.10
611.23	45851.09
611.38	46162.39
611.54	46057.06
611.69	46094.51
611.84	45265.96
612.00	45659.17
612.15	45507.04
612.31	46241.96
612.46	45490.65
612.62	45909.61
612.77	45591.30
612.92	45949.40
613.08	45705.98
613.23	45574.91
613.39	45174.68
613.54	45270.64
613.69	45478.95
613.85	45420.44
614.00	45600.66
614.15	45670.87
614.31	45443.84
614.46	45755.13
614.62	45228.51
614.77	45703.64
614.92	45528.10
615.08	45214.47
615.23	45291.71
615.38	44879.77
615.54	45319.79
615.69	45359.58
615.84	44933.60
616.00	45130.21
616.15	44989.78
616.30	45427.46
616.46	44978.07
616.61	44704.23
616.76	45443.84
616.92	44746.36
617.07	44509.97
617.22	44641.04
617.37	45158.30
617.53	44762.75
617.68	45446.18
617.83	44779.13
617.99	45095.10
618.14	45067.02
618.29	44985.10
618.45	44589.55
618.60	44631.68
618.75	44367.20
618.90	44559.12
619.06	44847.00
619.21	44711.25
619.36	45017.86
619.51	44704.23
619.67	44428.05
619.82	44512.31
619.97	44839.98
620.12	44744.02
620.28	44383.58
620.43	44542.74
620.58	44680.83
620.73	44306.34
620.89	44563.80
621.04	44313.36
621.19	43957.60
621.34	44505.29
621.49	44285.28
621.65	44287.62
621.80	44430.39
621.95	44500.61
622.10	44528.69
622.25	43456.73
622.41	43913.13
622.56	43945.90
622.71	44395.28
622.86	44088.67
623.01	43707.16
623.16	43875.68
623.32	44009.09
623.47	44060.58
623.62	43929.51
623.77	44119.10
623.92	44039.52
624.07	43496.52
624.23	43751.63
624.38	43454.39
624.53	43962.28
624.68	43180.54
624.83	43650.99
624.98	43835.89
625.13	43248.42
625.29	43786.74
625.44	43746.95
625.59	43426.30
625.74	43173.52
625.89	43292.89
626.04	42906.70
626.19	43203.95
626.34	43791.42
626.49	43332.68
626.65	43367.79
626.80	43264.80
626.95	43222.67
627.10	42990.96
627.25	43028.41
627.40	42986.28
627.55	43199.27
627.70	42759.25
627.85	42990.96
628.00	42855.21
628.15	43117.35
628.30	43100.97
628.45	43419.28
628.60	42836.48
628.76	43234.38
628.91	43173.52
629.06	42721.80
629.21	42532.22
629.36	42843.51
629.51	42422.21
629.66	42480.72
629.81	42380.08
629.96	42590.73
630.11	42600.09
630.26	43051.81
630.41	42997.98
630.56	42714.78
630.71	42270.08
630.86	42241.99
631.01	42040.70
631.16	42347.31
631.31	42000.91
631.46	41930.70
631.61	42366.04
631.76	42085.17
631.91	41993.89
632.06	42529.87
632.21	42567.32
632.36	42368.38
632.51	42284.12
632.66	42288.80
632.81	41598.34
632.96	41844.10
633.10	41970.49
633.25	42162.41
633.40	42499.45
633.55	41830.05
633.70	41888.57
633.85	42073.47
634.00	42171.77
634.15	42223.26
634.30	41867.50
634.45	41591.32
634.60	42286.46
634.75	41331.52
634.90	41628.77
635.05	41801.97
635.19	41865.16
635.34	42087.51
635.49	41586.64
635.64	41755.16
635.79	41214.49
635.94	41806.65
636.09	41640.47
636.24	41525.78
636.39	41132.57
636.53	41476.63
636.68	41263.64
636.83	41502.38
636.98	41642.81
637.13	41256.62
637.28	41710.69
637.43	42064.11
637.57	41640.47
637.72	41256.62
637.87	41233.22
638.02	41163.00
638.17	41422.80
638.32	41357.27
638.46	41310.46
638.61	41406.42
638.76	40676.17
638.91	41364.29
639.06	41155.98
639.20	40818.94
639.35	41167.68
639.50	40804.90
639.65	41020.23
639.80	41048.32
639.94	40535.74
640.09	40706.60
640.24	40765.11
640.39	40423.39
640.54	40886.82
640.68	40678.51
640.83	40650.42
640.98	40624.68
641.13	40222.11
641.27	41034.27
641.42	40603.61
641.57	40816.60
641.72	40421.05
641.86	40446.80
642.01	40318.07
642.16	40374.24
642.31	39955.29
642.45	40566.16
642.60	40067.63
642.75	40865.75
642.90	40025.50
643.04	40423.39
643.19	39910.82
643.34	40325.09
643.48	39915.50
643.63	39864.00
643.78	40006.78
643.93	40184.66
644.07	40009.12
644.22	40318.07
644.37	39583.14
644.51	40034.86
644.66	40179.98
644.81	40025.50
644.95	40297.00
645.10	40037.20
645.25	40098.06
645.39	39903.79
645.54	39646.33
645.69	39690.80
645.83	39655.70
645.98	39985.71
646.13	39739.96
646.27	39838.26
646.42	39786.77
646.57	39611.23
646.71	39470.79
646.86	39840.60
647.00	39974.01
647.15	39924.86
647.30	40088.70
647.44	39725.91
647.59	39564.42
647.74	39175.89
647.88	39248.44
648.03	39517.60
648.17	39236.74
648.32	39416.96
648.47	39805.49
648.61	38923.11
648.76	39550.37
648.90	39761.02
649.05	39143.12
649.20	38899.70
649.34	38873.96
649.49	38691.40
649.63	38920.77
649.78	38803.74
649.92	39054.18
650.07	39220.36
650.21	38677.35
650.36	39051.84
650.51	38941.83
650.65	38941.83
650.80	39475.48
650.94	39100.99
651.09	39262.49
651.23	38916.09
651.38	38745.23
651.52	39084.61
651.67	38485.43
651.81	38345.00
651.96	38543.94
652.10	38550.96
652.25	38230.31
652.39	38806.08
652.54	38497.13
652.68	39096.31
652.83	38665.65
652.97	38815.44
653.12	38401.17
653.26	38614.16
653.41	38689.06
653.55	38234.99
653.70	38417.55
653.84	38328.61
653.99	38738.21
654.13	38583.73
654.27	38141.37
654.42	38333.29
654.56	38239.67
654.71	38202.22
654.85	38485.43
655.00	37944.76
655.14	38075.84
655.29	37956.47
655.43	37844.12
655.57	37509.43
655.72	37340.91
655.86	37572.62
656.01	37336.23
656.15	37127.92
656.30	37820.72
656.44	37514.11
656.58	37205.16
656.73	37963.49
656.87	37783.27
657.01	37315.16
657.16	37471.98
657.30	37717.73
657.45	37249.63
657.59	37474.32
657.73	37750.50
657.88	37869.87
658.02	37799.65
658.16	37961.15
658.31	37794.97
658.45	37441.55
658.60	37336.23
658.74	37422.83
658.88	36975.78
659.03	37188.77
659.17	37181.75
659.31	37514.11
659.46	36772.16
659.60	37191.11
659.74	37806.67
659.89	37062.38
660.03	36968.76
660.17	36982.80
660.32	36865.78
660.46	36952.38
660.60	36844.71
660.74	36795.56
660.89	36964.08
661.03	36264.26
661.17	36762.79
661.32	36294.69
661.46	36355.54
661.60	37088.13
661.74	36320.43
661.89	36594.28
662.03	35929.56
662.17	36456.18
662.31	36189.36
662.46	36687.90
662.60	35901.48
662.74	36046.59
662.88	36566.19
663.03	35992.76
663.17	36170.64
663.31	35477.84
663.45	35782.11
663.60	35594.87
663.74	35894.46
663.88	35747.00
664.02	35562.10
664.17	36107.44
664.31	35632.32
664.45	35344.43
664.59	35161.87
664.73	35796.15
664.88	35739.98
665.02	35409.96
665.16	35349.11
665.30	34820.15
665.44	35236.77
665.59	34703.12
665.73	35091.65
665.87	34941.86
666.01	34955.90
666.15	34756.96
666.29	34785.04
666.44	34703.12
666.58	34824.83
666.72	34604.82
666.86	35054.20
667.00	34714.83
667.14	34375.45
667.28	34328.64
667.43	34452.69
667.57	34597.80
667.71	34220.97
667.85	34410.56
667.99	34628.23
668.13	34108.63
668.27	33773.93
668.41	34218.63
668.56	33900.32
668.70	34330.98
668.84	33989.26
668.98	33511.79
669.12	33750.52
669.26	33556.26
669.40	33497.75
669.54	33574.98
669.68	33633.50
669.82	33244.97
669.96	33399.44
670.10	32910.27
670.25	33633.50
670.39	33123.26
670.53	33214.54
670.67	32713.67
670.81	33687.33
670.95	33289.44
671.09	33034.32
671.23	32940.70
671.37	33310.50
671.51	32797.93
671.65	32673.88
671.79	32208.11
671.93	32453.87
672.07	32446.85
672.21	32638.77
672.35	32397.70
672.49	32446.85
672.63	32627.07
672.77	32570.90
672.91	32435.14
673.05	32194.07
673.19	32320.46
673.33	32154.28
673.47	31962.36
673.61	31765.75
673.75	31426.37
673.89	31620.64
674.03	31445.10
674.17	31281.26
674.31	31761.07
674.45	31328.07
674.59	31218.07
674.73	32032.57
674.87	31072.95
675.01	30885.71
675.15	31189.98
675.29	30951.24
675.43	31028.48
675.56	30981.67
675.70	31012.10
675.84	30801.45
675.98	29731.83
676.12	30588.46
676.26	30506.54
676.40	30286.53
676.54	30693.79
676.68	30536.97
676.82	29551.60
676.96	30611.87
677.10	30326.32
677.23	30040.78
677.37	30153.12
677.51	29596.07
677.65	29935.45
677.79	29130.31
677.93	29287.12
678.07	29247.33
678.21	28893.91
678.34	29043.71
678.48	29167.76
678.62	29055.41
678.76	28355.59
678.90	28732.42
679.04	28313.46
679.18	28418.78
679.31	28194.09
679.45	28212.82
679.59	28011.53
679.73	28177.71
679.87	27817.27
680.00	28182.39
680.14	28013.87
680.28	27608.96
680.42	27843.01
680.56	28196.43
680.70	28002.17
680.83	28133.24
680.97	27489.59
681.11	27847.69
681.25	27124.47
681.39	27447.46
681.52	27419.38
681.66	27171.28
681.80	27292.99
681.94	27243.84
682.07	27232.13
682.21	26759.34
682.35	26984.04
682.49	26614.23
682.62	26679.77
682.76	26955.95
682.90	26611.89
683.04	26340.39
683.17	26239.75
683.31	26043.14
683.45	26043.14
683.59	25687.38
683.72	25937.82
683.86	25715.47
684.00	26118.04
684.13	25678.02
684.27	25752.91
684.41	25399.49
684.55	25167.78
684.68	25338.64
684.82	25181.82
684.96	25123.31
685.09	25013.31
685.23	24800.32
685.37	24854.15
685.50	25006.28
685.64	25123.31
685.78	24112.20
685.91	24568.60
686.05	24175.39
686.19	23777.50
686.32	24049.00
686.46	23999.85
686.60	23672.18
686.73	23321.10
686.87	23262.58
687.01	23484.94
687.14	23246.20
687.28	23454.51
687.42	23274.29
687.55	23033.21
687.69	23269.61
687.82	22925.55
687.96	23145.56
688.10	22909.16
688.23	22689.15
688.37	22551.06
688.50	22874.06
688.64	22757.03
688.78	22579.15
688.91	22401.27
689.05	22431.69
689.18	22668.09
689.32	22045.51
689.46	22511.27
689.59	22452.76
689.73	22396.59
689.86	22211.68
690.00	22066.57
690.13	21862.94
690.27	22078.27
690.41	21600.80
690.54	21380.79
690.68	21111.63
690.81	21472.07
690.95	21338.66
691.08	21502.50
691.22	21205.25
691.35	21003.97
691.49	21153.76
691.62	21245.04
691.76	20985.24
691.89	20903.32
692.03	20950.14
692.16	20760.55
692.30	20662.25
692.43	20367.34
692.57	20671.61
692.70	20360.32
692.84	20243.29
692.97	20060.73
693.11	20156.69
693.24	20201.16
693.38	20016.26
693.51	19735.40
693.65	20042.01
693.78	20044.35
693.92	19740.08
694.05	19356.23
694.19	19545.81
694.32	19489.64
694.45	19150.26
694.59	18932.59
694.72	18991.11
694.86	19014.51
694.99	18876.42
695.13	19119.84
695.26	19058.98
695.39	18778.12
695.53	18789.82
695.66	18843.65
695.80	18838.97
695.93	18696.20
696.07	18707.90
696.20	18436.40
696.33	18420.02
696.47	18218.73
696.60	18314.69
696.73	17893.40
696.87	18090.00
697.00	17867.65
697.14	17956.59
697.27	17668.70
697.40	18017.44
697.54	17619.55
697.67	17326.99
697.80	17418.27
697.94	17200.60
698.07	17078.89
698.21	17303.58
698.34	17287.20
698.47	17025.06
698.61	16814.41
698.74	16982.93
698.87	16730.15
699.01	16290.13
699.14	16238.64
699.27	16559.29
699.40	16233.96
699.54	16079.48
699.67	16170.76
699.80	16252.68
699.94	15969.48
700.07	16416.52
700.20	16159.06
700.34	15833.72
700.47	16093.52
700.60	16046.71
700.73	15932.03
700.87	15983.52
701.00	15758.83
701.13	15536.48
701.26	15407.75
701.40	15723.72
701.53	15655.84
701.66	15499.03
701.79	15019.22
701.93	15367.96
702.06	15300.08
702.19	15215.82
702.32	15133.90
702.46	14799.21
702.59	14970.07
702.72	14991.13
702.85	14878.79
702.99	14682.18
703.12	14759.42
703.25	14471.53
703.38	14647.07
703.51	14581.54
703.65	14408.34
703.78	14455.15
703.91	14174.28
704.04	14101.73
704.17	14295.99
704.31	14239.82
704.44	14120.45
704.57	14251.52
704.70	13982.36
704.83	14071.30
704.96	13783.41
705.10	13832.57
705.23	13809.16
>>>>>End Processed Spectral Data<<<<<
