SpectraSuite Data File
++++++++++++++++++++++++++++++++++++
Date: Fri Oct 25 11:33:13 EDT 2013
User: price-jones
Dark Spectrum Present: No
Reference Spectrum Present: No
Number of Sampled Component Spectra: 1
Spectrometers: USB2+H05261
Integration Time (usec): 100000 (USB2+H05261)
Spectra Averaged: 1 (USB2+H05261)
Boxcar Smoothing: 0 (USB2+H05261)
Correct for Electrical Dark: No (USB2+H05261)
Strobe/Lamp Enabled: No (USB2+H05261)
Correct for Detector Non-linearity: No (USB2+H05261)
Correct for Stray Light: No (USB2+H05261)
Number of Pixels in Processed Spectrum: 2048
>>>>>Begin Processed Spectral Data<<<<<
365.73	269.16
365.92	269.16
366.12	269.16
366.32	180.22
366.52	161.50
366.72	224.69
366.91	168.52
367.11	231.71
367.31	217.67
367.51	184.90
367.70	114.69
367.90	184.90
368.10	117.03
368.30	180.22
368.49	168.52
368.69	198.95
368.89	205.97
369.09	191.92
369.28	149.79
369.48	210.65
369.68	198.95
369.87	250.44
370.07	191.92
370.27	330.02
370.47	294.91
370.66	456.40
370.86	477.47
371.06	477.47
371.25	585.13
371.45	491.51
371.65	524.28
371.84	517.26
372.04	514.92
372.24	587.47
372.44	550.03
372.63	594.50
372.83	655.35
373.03	655.35
373.22	554.71
373.42	653.01
373.62	582.79
373.81	573.43
374.01	603.86
374.21	685.78
374.40	582.79
374.60	681.10
374.79	641.31
374.99	669.39
375.19	711.52
375.38	638.97
375.58	629.60
375.78	671.73
375.97	704.50
376.17	781.74
376.37	657.69
376.56	641.31
376.76	643.65
376.95	704.50
377.15	734.93
377.35	690.46
377.54	662.37
377.74	713.86
377.93	681.10
378.13	678.76
378.33	657.69
378.52	713.86
378.72	737.27
378.91	739.61
379.11	685.78
379.31	767.70
379.50	711.52
379.70	730.25
379.89	688.12
380.09	753.65
380.28	779.40
380.48	704.50
380.68	688.12
380.87	737.27
381.07	725.57
381.26	748.97
381.46	746.63
381.65	709.18
381.85	767.70
382.04	819.19
382.24	699.82
382.43	795.78
382.63	833.23
382.83	795.78
383.02	880.04
383.22	880.04
383.41	765.36
383.61	826.21
383.80	732.59
384.00	774.72
384.19	851.96
384.39	840.25
384.58	753.65
384.78	842.59
384.97	795.78
385.17	903.45
385.36	833.23
385.56	882.38
385.75	889.40
385.95	795.78
386.14	793.44
386.34	819.19
386.53	875.36
386.72	870.68
386.92	924.51
387.11	891.74
387.31	929.19
387.50	837.91
387.70	901.11
387.89	791.10
388.09	926.85
388.28	821.53
388.48	882.38
388.67	959.62
388.86	971.32
389.06	882.38
389.25	912.81
389.45	978.34
389.64	1039.20
389.84	1039.20
390.03	1076.65
390.22	971.32
390.42	968.98
390.61	875.36
390.81	1015.79
391.00	1064.94
391.19	1020.47
391.39	1004.09
391.58	1118.78
391.78	1039.20
391.97	1071.97
392.16	947.92
392.36	1104.73
392.55	1064.94
392.75	1071.97
392.94	1067.28
393.13	1062.60
393.33	1025.15
393.52	1165.59
393.71	1137.50
393.91	1146.86
394.10	1048.56
394.29	1123.46
394.49	1104.73
394.68	1114.10
394.88	1090.69
395.07	1146.86
395.26	1172.61
395.46	1130.48
395.65	1226.44
395.84	1196.01
396.04	1235.80
396.23	1214.74
396.42	1156.22
396.62	1221.76
396.81	1277.93
397.00	1149.20
397.19	1172.61
397.39	1217.08
397.58	1289.64
397.77	1158.57
397.97	1294.32
398.16	1266.23
398.35	1322.40
398.55	1270.91
398.74	1184.31
398.93	1355.17
399.12	1254.53
399.32	1308.36
399.51	1310.70
399.70	1352.83
399.90	1385.60
400.09	1467.52
400.28	1423.05
400.47	1364.53
400.67	1406.66
400.86	1394.96
401.05	1387.94
401.24	1409.00
401.44	1486.24
401.63	1476.88
401.82	1549.43
402.01	1348.15
402.21	1460.49
402.40	1502.62
402.59	1497.94
402.78	1509.65
402.97	1514.33
403.17	1530.71
403.36	1621.99
403.55	1586.88
403.74	1575.18
403.93	1593.90
404.13	1526.03
404.32	1614.97
404.51	1603.27
404.70	1673.48
404.89	1680.50
405.09	1696.89
405.28	1586.88
405.47	1600.93
405.66	1661.78
405.85	1825.62
406.05	1732.00
406.24	1659.44
406.43	1776.47
406.62	1785.83
406.81	1909.88
407.00	1914.56
407.20	1776.47
407.39	1893.49
407.58	1675.82
407.77	1900.52
407.96	1928.60
408.15	1949.67
408.34	1977.75
408.54	1916.90
408.73	1912.22
408.92	2012.86
409.11	2026.90
409.30	2019.88
409.49	2038.61
409.68	2090.10
409.87	1963.71
410.07	2040.95
410.26	2038.61
410.45	2073.71
410.64	2176.70
410.83	2125.21
411.02	2108.82
411.21	2197.76
411.40	2216.49
411.59	2333.51
411.78	2200.10
411.98	2167.34
412.17	2291.38
412.36	2394.37
412.55	2263.30
412.74	2387.35
412.93	2300.75
413.12	2349.90
413.31	2537.14
413.50	2333.51
413.69	2399.05
413.88	2548.84
414.07	2562.89
414.26	2532.46
414.45	2572.25
414.64	2513.74
414.83	2656.51
415.02	2628.42
415.22	2670.55
415.41	2677.57
415.60	2768.85
415.79	2747.79
415.98	2803.96
416.17	2867.16
416.36	2834.39
416.55	2745.45
416.74	2850.77
416.93	2862.48
417.12	2906.95
417.31	2904.60
417.50	2855.45
417.69	3021.63
417.88	2967.80
418.07	2967.80
418.26	2998.23
418.45	3019.29
418.64	3023.97
418.83	2995.89
419.02	3035.67
419.21	3206.53
419.39	3164.40
419.58	3101.21
419.77	3089.51
419.96	3115.25
420.15	3164.40
420.34	3094.19
420.53	3129.30
420.72	3365.69
420.91	3337.60
421.10	3342.28
421.29	3363.35
421.48	3176.11
421.67	3318.88
421.86	3283.77
422.05	3435.91
422.24	3281.43
422.43	3372.71
422.61	3410.16
422.80	3496.76
422.99	3438.25
423.18	3545.91
423.37	3492.08
423.56	3499.10
423.75	3412.50
423.94	3492.08
424.13	3208.87
424.32	3225.26
424.50	3351.65
424.69	3630.17
424.88	3630.17
425.07	3405.48
425.26	3461.65
425.45	3545.91
425.64	3442.93
425.83	3424.20
426.01	3599.74
426.20	3590.38
426.39	3686.34
426.58	3506.12
426.77	3494.42
426.96	3644.21
427.15	3557.61
427.33	3630.17
427.52	3604.42
427.71	3639.53
427.90	3674.64
428.09	3726.13
428.28	3606.77
428.46	3707.41
428.65	3686.34
428.84	3737.84
429.03	3794.01
429.22	3831.46
429.40	3922.74
429.59	3735.50
429.78	3751.88
429.97	3747.20
430.16	3641.87
430.34	3887.63
430.53	3843.16
430.72	3985.93
430.91	3906.35
431.10	3955.51
431.28	4051.47
431.47	3999.98
431.66	3971.89
431.85	4049.13
432.03	4098.28
432.22	4126.36
432.41	4002.32
432.60	4009.34
432.79	4119.34
432.97	4060.83
433.16	4065.51
433.35	4175.52
433.54	4252.75
433.72	4205.94
433.91	4138.07
434.10	4269.14
434.28	4198.92
434.47	4212.96
434.66	4461.06
434.85	4407.23
435.03	4322.97
435.22	4285.52
435.41	4458.72
435.59	4500.85
435.78	4465.74
435.97	4472.76
436.16	4449.36
436.34	4528.94
436.53	4533.62
436.72	4552.34
436.90	4475.10
437.09	4601.49
437.28	4465.74
437.46	4542.98
437.65	4695.11
437.84	4601.49
438.02	4669.37
438.21	4713.84
438.40	4793.42
438.58	4805.12
438.77	4912.78
438.96	4795.76
439.14	4887.04
439.33	4898.74
439.52	4971.30
439.70	5034.49
439.89	5018.11
440.08	5076.62
440.26	5055.56
440.45	5036.83
440.63	5151.52
440.82	5310.68
441.01	5156.20
441.19	5163.22
441.38	5228.76
441.57	5277.91
441.75	5341.10
441.94	5577.50
442.12	5504.94
442.31	5416.00
442.50	5483.88
442.68	5411.32
442.87	5455.79
443.05	5458.13
443.24	5727.29
443.43	5540.05
443.61	5654.73
443.80	5916.87
443.98	5469.83
444.17	5472.17
444.35	5755.38
444.54	5865.38
444.73	5640.69
444.91	5561.11
445.10	5785.80
445.28	5769.42
445.47	5706.23
445.65	5713.25
445.84	5846.66
446.02	5944.96
446.21	5696.86
446.39	5633.67
446.58	5898.15
446.77	5729.63
446.95	5647.71
447.14	5844.32
447.32	5966.03
447.51	5792.83
447.69	5912.19
447.88	5888.79
448.06	5900.49
448.25	5853.68
448.43	5874.74
448.62	5935.60
448.80	5795.17
448.99	5951.98
449.17	5956.66
449.36	5884.11
449.54	6094.76
449.73	6160.29
449.91	6221.14
450.10	6099.44
450.28	6146.25
450.46	6076.03
450.65	6108.80
450.83	6256.25
451.02	6097.10
451.20	6267.95
451.39	6249.23
451.57	6520.73
451.76	6260.93
451.94	6235.19
452.13	6319.45
452.31	6211.78
452.49	6195.40
452.68	6523.07
452.86	6513.71
453.05	6553.50
453.23	6525.41
453.42	6406.05
453.60	6401.37
453.78	6516.05
453.97	6476.26
454.15	6647.12
454.34	6375.62
454.52	6607.33
454.70	6619.04
454.89	6651.80
455.07	6747.76
455.26	6778.19
455.44	6855.43
455.62	6883.52
455.81	6768.83
455.99	6799.26
456.17	6806.28
456.36	6686.91
456.54	7049.69
456.73	7073.10
456.91	7077.78
457.09	7152.68
457.28	7098.84
457.46	6881.18
457.64	7250.98
457.83	7084.80
458.01	7052.03
458.19	7297.79
458.38	7119.91
458.56	7288.43
458.74	7171.40
458.93	7232.26
459.11	7400.77
459.29	7255.66
459.48	7363.33
459.66	7454.61
459.84	7531.84
460.03	7466.31
460.21	7358.64
460.39	7417.16
460.57	7571.63
460.76	7573.97
460.94	7637.17
461.12	7648.87
461.31	7700.36
461.49	7588.02
461.67	7524.82
461.85	7728.45
462.04	7569.29
462.22	8175.49
462.40	7772.92
462.59	7920.37
462.77	7719.09
462.95	7939.10
463.13	7911.01
463.32	7789.30
463.50	8051.44
463.68	8126.34
463.86	7981.23
464.05	7911.01
464.23	7925.05
464.41	7974.21
464.59	7808.03
464.78	8252.73
464.96	8273.79
465.14	8049.10
465.32	8107.62
465.50	8142.72
465.69	8093.57
465.87	8255.07
466.05	8229.32
466.23	8046.76
466.41	8278.47
466.60	8411.89
466.78	8236.35
466.96	8386.14
467.14	8177.83
467.32	8510.19
467.51	8566.36
467.69	8114.64
467.87	8266.77
468.05	8540.61
468.23	8358.05
468.41	8437.63
468.60	8374.44
468.78	8629.56
468.96	8430.61
469.14	8730.20
469.32	8678.71
469.50	8526.57
469.69	8772.33
469.87	8727.86
470.05	9004.04
470.23	8938.51
470.41	8933.82
470.59	8650.62
470.77	8753.60
470.95	8872.97
471.14	9160.86
471.32	8901.06
471.50	9078.94
471.68	9039.15
471.86	9109.36
472.04	9327.03
472.22	9437.04
472.40	9193.62
472.58	9425.34
472.77	9507.26
472.95	9376.19
473.13	9844.29
473.31	9525.98
473.49	9533.00
473.67	9406.61
473.85	9795.14
474.03	9919.19
474.21	9750.67
474.39	9895.78
474.57	9958.98
474.75	10038.56
474.93	10162.61
475.12	9905.15
475.30	10239.84
475.48	10026.86
475.66	10272.61
475.84	10094.73
476.02	10221.12
476.20	10270.27
476.38	10499.64
476.56	10794.55
476.74	10616.67
476.92	10546.45
477.10	10572.20
477.28	10789.87
477.46	10998.18
477.64	10881.15
477.82	10934.98
478.00	11400.75
478.18	11232.23
478.36	11583.31
478.54	11564.59
478.72	11536.50
478.90	11602.04
479.08	12049.08
479.26	11620.76
479.44	11885.24
479.62	11955.46
479.80	12133.34
479.98	12100.57
480.16	12191.85
480.34	12184.83
480.52	12006.95
480.70	12390.80
480.88	12100.57
481.06	12575.70
481.24	12629.53
481.41	12830.82
481.59	12926.78
481.77	13001.68
481.95	13315.31
482.13	12989.97
482.31	13167.85
482.49	13610.22
482.67	13214.66
482.85	13633.62
483.03	13752.99
483.21	13858.31
483.39	13729.58
483.57	13867.67
483.74	13970.66
483.92	14277.27
484.10	14066.62
484.28	14546.43
484.46	14499.62
484.64	14876.44
484.82	14420.04
485.00	14635.37
485.18	15169.01
485.35	15356.25
485.53	15246.25
485.71	15068.37
485.89	15679.25
486.07	15623.08
486.25	15803.30
486.43	15864.15
486.61	15946.07
486.78	15936.71
486.96	16126.29
487.14	16147.36
487.32	16112.25
487.50	16699.72
487.68	16636.53
487.85	16615.46
488.03	16933.78
488.21	17027.40
488.39	16922.07
488.57	17434.65
488.75	17399.54
488.92	17556.36
489.10	17757.64
489.28	17804.46
489.46	17893.40
489.64	17965.95
489.81	18459.81
489.99	18284.26
490.17	18515.98
490.35	18829.61
490.53	18831.95
490.70	18834.29
490.88	18864.72
491.06	18941.96
491.24	19447.51
491.41	19140.90
491.59	19501.34
491.77	19506.02
491.95	19637.09
492.13	19852.42
492.30	19667.52
492.48	19768.16
492.66	20170.74
492.84	20044.35
493.01	20350.96
493.19	20458.62
493.37	20563.95
493.54	20613.10
493.72	20922.05
493.90	21001.63
494.08	21345.69
494.25	21605.49
494.43	21490.80
494.61	21523.57
494.79	21687.40
494.96	21483.78
495.14	21827.84
495.32	21771.66
495.49	22225.73
495.67	21994.01
495.85	22302.96
496.02	22436.38
496.20	22235.09
496.38	22785.12
496.55	22724.26
496.73	23068.32
496.91	22705.54
497.09	22991.08
497.26	23075.34
497.44	23103.43
497.62	23112.79
497.79	23477.91
497.97	23515.36
498.14	24102.84
498.32	23983.47
498.50	24201.14
498.67	24372.00
498.85	24276.04
499.03	24416.47
499.20	24732.44
499.38	24489.03
499.56	24856.49
499.73	24570.94
499.91	24781.59
500.08	25230.98
500.26	24980.54
500.44	24847.13
500.61	25373.75
500.79	25125.65
500.97	25593.76
501.14	25202.89
501.32	25640.57
501.49	25565.67
501.67	26043.14
501.84	26237.41
502.02	26302.94
502.20	26169.53
502.37	25895.69
502.55	26012.71
502.72	26270.17
502.90	26562.74
503.07	26008.03
503.25	26651.68
503.43	26457.42
503.60	26773.39
503.78	26211.66
503.95	26948.93
504.13	26867.01
504.30	27117.45
504.48	27281.28
504.65	27232.13
504.83	27262.56
505.01	27798.54
505.18	27447.46
505.36	27765.78
505.53	27358.52
505.71	27585.55
505.88	27597.26
506.06	27985.79
506.23	28044.30
506.41	28063.02
506.58	27716.62
506.76	27969.40
506.93	28311.12
507.11	28507.72
507.28	28706.67
507.46	28215.16
507.63	28694.97
507.81	28877.53
507.98	28547.51
508.16	28620.07
508.33	29149.03
508.50	29235.63
508.68	29322.23
508.85	29095.20
509.03	29244.99
509.20	29305.85
509.38	29670.97
509.55	29748.21
509.73	29710.76
509.90	29846.51
510.08	29567.99
510.25	29612.46
510.42	29928.43
510.60	29731.83
510.77	30515.90
510.95	30457.39
511.12	30389.52
511.30	30464.41
511.47	29956.52
511.64	30183.55
511.82	30707.83
511.99	30658.68
512.17	30745.28
512.34	30672.72
512.51	31182.96
512.69	31211.04
512.86	30927.84
513.04	31206.36
513.21	31601.91
513.38	31590.21
513.56	31236.79
513.73	31611.28
513.90	31676.81
514.08	31473.18
514.25	31791.50
514.43	31754.05
514.60	32177.68
514.77	31931.93
514.95	32744.09
515.12	32055.98
515.29	32077.04
515.47	32407.06
515.64	32673.88
515.81	32524.08
515.99	32725.37
516.16	32877.51
516.33	32507.70
516.51	32821.33
516.68	32601.32
516.85	32877.51
517.03	32645.79
517.20	33179.43
517.37	33177.09
517.54	33104.54
517.72	33394.76
517.89	33106.88
518.06	33692.01
518.24	33432.21
518.41	33666.27
518.58	33460.30
518.75	33392.42
518.93	34223.31
519.10	33832.44
519.27	33703.71
519.45	34017.35
519.62	34494.82
519.79	34000.96
519.96	33975.22
520.14	34225.65
520.31	33993.94
520.48	34747.59
520.65	34792.06
520.83	34501.84
521.00	34649.29
521.17	34497.16
521.34	34841.21
521.52	34609.50
521.69	34785.04
521.86	35143.14
522.03	35285.92
522.20	35206.34
522.38	35817.22
522.55	35269.53
522.72	35576.14
522.89	35770.41
523.07	35611.25
523.24	35477.84
523.41	35627.63
523.58	35772.75
523.75	36156.60
523.92	36084.04
524.10	35854.67
524.27	36184.68
524.44	36009.14
524.61	35955.31
524.78	36556.83
524.96	36196.38
525.13	36032.55
525.30	36435.12
525.47	36713.64
525.64	36486.61
525.81	36561.51
525.98	37263.67
526.16	36615.34
526.33	36950.04
526.50	36971.10
526.67	36711.30
526.84	37148.98
527.01	36879.82
527.18	37097.49
527.36	37134.94
527.53	37181.75
527.70	37539.85
527.87	37436.87
528.04	37237.92
528.21	37507.08
528.38	37495.38
528.55	37652.20
528.72	37811.35
528.89	37724.75
529.07	37727.10
529.24	37364.31
529.41	37867.53
529.58	38054.77
529.75	37546.87
529.92	37853.48
530.09	38436.28
530.26	38153.07
530.43	38309.89
530.60	37794.97
530.77	38038.39
530.94	38541.60
531.11	38026.68
531.28	38932.47
531.46	38195.20
531.63	38756.93
531.80	38630.54
531.97	38871.62
532.14	38670.33
532.31	38930.13
532.48	39344.41
532.65	39056.52
532.82	38646.93
532.99	39346.75
533.16	38925.45
533.33	39157.16
533.50	39189.93
533.67	38941.83
533.84	38916.09
534.01	39545.69
534.18	39342.06
534.35	39962.31
534.52	39662.72
534.69	39618.25
534.86	40100.40
535.03	39707.19
535.20	39772.72
535.37	40123.80
535.54	40004.44
535.71	39622.93
535.88	40210.40
536.05	40259.55
536.22	40505.31
536.38	39636.97
536.55	39995.07
536.72	40095.72
536.89	39739.96
537.06	40409.35
537.23	40437.44
537.40	40072.31
537.57	39899.11
537.74	40322.75
537.91	40500.63
538.08	40238.49
538.25	40322.75
538.42	40538.08
538.59	41174.70
538.75	40739.36
538.92	40896.18
539.09	40954.69
539.26	41298.75
539.43	41015.55
539.60	41205.13
539.77	41116.19
539.94	41200.45
540.11	41331.52
540.28	41301.09
540.44	41003.85
540.61	41408.76
540.78	41134.92
540.95	40772.13
541.12	41734.09
541.29	41380.67
541.46	41361.95
541.62	41528.13
541.79	41883.89
541.96	41493.02
542.13	41551.53
542.30	41869.84
542.47	41624.09
542.63	41684.94
542.80	42176.45
542.97	42466.68
543.14	42684.35
543.31	42089.85
543.48	42384.76
543.64	42494.77
543.81	42686.69
543.98	42382.42
544.15	42265.39
544.32	42469.02
544.48	43262.46
544.65	42855.21
544.82	42857.55
544.99	42520.51
545.16	42714.78
545.32	42415.19
545.49	43344.38
545.66	43435.66
545.83	42866.91
546.00	43466.09
546.16	43154.80
546.33	43021.39
546.50	43098.62
546.67	43227.35
546.83	42948.83
547.00	42990.96
547.17	43274.16
547.34	43433.32
547.50	43349.06
547.67	43707.16
547.84	43517.58
548.00	43695.46
548.17	43903.77
548.34	43503.54
548.51	44212.72
548.67	43777.38
548.84	43477.79
549.01	43730.57
549.18	44046.54
549.34	44282.94
549.51	43775.04
549.68	44023.14
549.84	43761.00
550.01	44676.15
550.18	43761.00
550.34	44189.31
550.51	44203.36
550.68	44500.61
550.84	44062.93
551.01	43702.48
551.18	44013.77
551.34	44100.37
551.51	44591.89
551.68	44692.53
551.84	44470.18
552.01	44282.94
552.18	44364.85
552.34	44414.01
552.51	44203.36
552.68	44465.50
552.84	44591.89
553.01	44423.37
553.18	44477.20
553.34	44896.16
553.51	44531.03
553.67	44685.51
553.84	44975.73
554.01	44863.39
554.17	45052.97
554.34	45462.57
554.51	44755.72
554.67	44987.44
554.84	44914.88
555.00	44905.52
555.17	44835.30
555.33	45097.44
555.50	45148.93
555.67	45762.15
555.83	45249.58
556.00	45607.68
556.16	45464.91
556.33	45432.14
556.50	45736.41
556.66	45364.26
556.83	45621.72
556.99	45560.87
557.16	45617.04
557.32	45612.36
557.49	45813.65
557.65	45141.91
557.82	45303.41
557.98	45214.47
558.15	45628.74
558.32	45918.97
558.48	45745.77
558.65	45474.27
558.81	46131.96
558.98	45734.07
559.14	45858.12
559.31	45436.82
559.47	46167.07
559.64	46038.34
559.80	45736.41
559.97	46033.66
560.13	46124.94
560.30	45729.39
560.46	46382.40
560.63	46068.76
560.79	46527.51
560.96	46265.37
561.12	46469.00
561.29	45881.52
561.45	46349.63
561.61	46387.08
561.78	45848.75
561.94	45982.16
562.11	46153.02
562.27	46244.30
562.44	46141.32
562.60	46314.52
562.77	46298.14
562.93	46036.00
563.10	46478.36
563.26	46153.02
563.42	46473.68
563.59	46223.24
563.75	46550.91
563.92	46586.02
564.08	46473.68
564.24	46728.80
564.41	46803.69
564.57	46508.79
564.74	46768.58
564.90	46562.62
565.07	46457.29
565.23	46600.07
565.39	46223.24
565.56	46590.70
565.72	46436.23
565.88	46497.08
566.05	46424.53
566.21	46553.26
566.38	46529.85
566.54	46810.71
566.70	47129.03
566.87	46726.46
567.03	46958.17
567.19	46679.64
567.36	46574.32
567.52	46967.53
567.68	46855.18
567.85	47096.26
568.01	46930.08
568.17	46803.69
568.34	47416.91
568.50	47227.33
568.66	46600.07
568.83	46890.29
568.99	47061.15
569.15	46815.40
569.32	47143.07
569.48	47196.90
569.64	47138.39
569.81	47159.45
569.97	47248.39
570.13	47325.63
570.30	46986.25
570.46	47180.52
570.62	47459.04
570.78	47114.98
570.95	47061.15
571.11	47353.72
571.27	46829.44
571.43	47278.82
571.60	47437.98
571.76	47234.35
571.92	46784.97
572.09	47267.12
572.25	47044.77
572.41	46803.69
572.57	47299.89
572.74	47533.94
572.90	47547.98
573.06	47470.75
573.22	47346.70
573.38	47325.63
573.55	47540.96
573.71	47475.43
573.87	47657.99
574.03	47381.80
574.20	47353.72
574.36	47253.08
574.52	47688.42
574.68	47744.59
574.84	47643.94
575.01	47323.29
575.17	47138.39
575.33	47594.79
575.49	47674.37
575.65	47536.28
575.82	47639.26
575.98	47463.72
576.14	47475.43
576.30	47775.02
576.46	47526.92
576.62	47360.74
576.79	47538.62
576.95	47524.58
577.11	47370.10
577.27	47599.47
577.43	47037.75
577.59	47316.27
577.75	47681.39
577.92	47150.09
578.08	47459.04
578.24	47227.33
578.40	47817.14
578.56	47309.25
578.72	47585.43
578.88	47721.18
579.04	47540.96
579.21	47728.20
579.37	47482.45
579.53	47920.13
579.69	47419.25
579.85	47662.67
580.01	47742.25
580.17	47559.69
580.33	47782.04
580.49	47929.49
580.65	48051.20
580.82	47847.57
580.98	47669.69
581.14	47592.45
581.30	47892.04
581.46	47433.30
581.62	47767.99
581.78	47456.70
581.94	47217.97
582.10	47456.70
582.26	47835.87
582.42	47782.04
582.58	48011.41
582.74	48048.86
582.90	47943.53
583.06	47988.00
583.22	47721.18
583.38	47915.45
583.54	47870.98
583.70	47835.87
583.86	47615.86
584.02	47562.03
584.18	47735.23
584.34	47803.10
584.50	48083.97
584.66	47929.49
584.82	47903.74
584.98	48390.58
585.14	47892.04
585.30	47821.83
585.46	47798.42
585.62	47723.52
585.78	48179.93
585.94	47536.28
586.10	47861.61
586.26	47393.51
586.42	47973.96
586.58	47957.58
586.74	47805.44
586.90	47665.01
587.06	48081.63
587.22	48055.88
587.38	47700.12
587.54	48039.50
587.70	48336.74
587.86	47885.02
588.02	47873.32
588.18	47419.25
588.34	47732.89
588.49	48128.44
588.65	47887.36
588.81	48322.70
588.97	47887.36
589.13	48081.63
589.29	48041.84
589.45	48280.57
589.61	48123.75
589.77	48830.60
589.93	47934.17
590.08	47980.98
590.24	48268.87
590.40	47945.87
590.56	49008.48
590.72	48446.75
590.88	48273.55
591.04	48069.92
591.20	48369.51
591.35	48732.29
591.51	49066.99
591.67	48561.44
591.83	48413.98
591.99	47948.21
592.15	48133.12
592.31	48137.80
592.46	48177.59
592.62	48229.08
592.78	48758.04
592.94	48732.29
593.10	48453.77
593.26	48500.58
593.41	48825.92
593.57	48289.93
593.73	48353.13
593.89	48556.75
594.05	48807.19
594.20	48540.37
594.36	48980.39
594.52	49045.93
594.68	48648.03
594.84	48456.11
594.99	48224.40
595.15	48741.66
595.31	48816.55
595.47	48582.50
595.62	48376.53
595.78	48456.11
595.94	48311.00
596.10	48774.42
596.25	48886.77
596.41	49090.40
596.57	48736.98
596.73	48687.82
596.88	48727.61
597.04	48645.69
597.20	48378.87
597.36	48629.31
597.51	48631.65
597.67	48261.85
597.83	48495.90
597.99	48846.98
598.14	48552.07
598.30	48465.47
598.46	48495.90
598.61	48973.37
598.77	48713.57
598.93	48786.13
599.09	48823.58
599.24	49125.50
599.40	48523.99
599.56	48568.46
599.71	48945.28
599.87	49111.46
600.03	48987.41
600.18	48900.81
600.34	48512.28
600.50	48816.55
600.65	48765.06
600.81	48996.77
600.97	48980.39
601.12	48931.24
601.28	48793.15
601.44	48870.39
601.59	48830.60
601.75	48610.59
601.91	48905.49
602.06	48914.86
602.22	48893.79
602.37	48568.46
602.53	49249.55
602.69	48994.43
602.84	48442.07
603.00	48566.12
603.16	48802.51
603.31	48477.18
603.47	48835.28
603.62	48591.86
603.78	49331.47
603.94	48863.36
604.09	48683.14
604.25	48931.24
604.40	48727.61
604.56	48713.57
604.71	49097.42
604.87	48807.19
605.03	48416.32
605.18	48748.68
605.34	48765.06
605.49	48893.79
605.65	48980.39
605.80	48835.28
605.96	48442.07
606.12	48863.36
606.27	48641.01
606.43	48509.94
606.58	49015.50
606.74	48886.77
606.89	48725.27
607.05	48964.01
607.20	48788.47
607.36	48549.73
607.51	48680.80
607.67	48519.31
607.82	48708.89
607.98	48406.96
608.13	48865.70
608.29	48699.53
608.44	48575.48
608.60	48186.95
608.75	48456.11
608.91	48500.58
609.06	48643.35
609.22	48413.98
609.37	48418.66
609.53	48708.89
609.68	48783.79
609.84	48498.24
609.99	48488.88
610.15	48622.29
610.30	48463.13
610.46	48636.33
610.61	48678.46
610.76	48446.75
610.92	48318.02
611.07	47885.02
611.23	48453.77
611.38	48362.49
611.54	48278.23
611.69	48484.20
611.84	48542.71
612.00	47896.72
612.15	48203.33
612.31	48086.31
612.46	48151.84
612.62	48095.67
612.77	48381.21
612.92	48449.09
613.08	48186.95
613.23	48591.86
613.39	48191.63
613.54	47913.11
613.69	48271.21
613.85	48210.35
614.00	48271.21
614.15	48268.87
614.31	48058.22
614.46	48130.78
614.62	48116.73
614.77	48163.54
614.92	48151.84
615.08	48336.74
615.23	48114.39
615.38	48123.75
615.54	48200.99
615.69	48392.92
615.84	47821.83
616.00	48474.84
616.15	47971.62
616.30	48147.16
616.46	47917.79
616.61	48023.11
616.76	47936.51
616.92	47786.72
617.07	47840.55
617.22	47426.28
617.37	47136.05
617.53	47901.40
617.68	47510.53
617.83	47952.90
617.99	48090.99
618.14	48095.67
618.29	47927.15
618.45	47442.66
618.60	47332.65
618.75	47405.21
618.90	47281.16
619.06	47463.72
619.21	47849.91
619.36	47870.98
619.51	47360.74
619.67	47618.20
619.82	47660.33
619.97	47620.54
620.12	47281.16
620.28	47454.36
620.43	47456.70
620.58	47327.97
620.73	47316.27
620.89	47931.83
621.04	47489.47
621.19	47587.77
621.34	47232.01
621.49	46944.12
621.65	47657.99
621.80	47227.33
621.95	47402.87
622.10	47798.42
622.25	47456.70
622.41	47276.48
622.56	47201.58
622.71	47164.14
622.86	47260.10
623.01	47021.36
623.16	47243.71
623.32	47000.30
623.47	47164.14
623.62	46997.96
623.77	47086.90
623.92	47051.79
624.07	46960.51
624.23	47346.70
624.38	47023.70
624.53	47084.56
624.68	47042.43
624.83	46934.76
624.98	47007.32
625.13	46681.98
625.29	46525.17
625.44	46799.01
625.59	46511.13
625.74	46717.09
625.89	46770.93
626.04	46649.22
626.19	46607.09
626.34	46913.70
626.49	46204.52
626.65	46014.93
626.80	46955.83
626.95	46693.69
627.10	46153.02
627.25	46632.83
627.40	46703.05
627.55	46763.90
627.70	46209.20
627.85	46499.42
628.00	46663.26
628.15	46548.57
628.30	46000.89
628.45	45794.92
628.60	45687.26
628.76	46270.05
628.91	45989.19
629.06	45792.58
629.21	46129.62
629.36	46241.96
629.51	45942.38
629.66	46845.82
629.81	46286.43
629.96	46358.99
630.11	46213.88
630.26	45722.37
630.41	46064.08
630.56	45869.82
630.71	46078.13
630.86	45584.27
631.01	45476.61
631.16	45691.94
631.31	45483.63
631.46	45713.00
631.61	45790.24
631.76	45818.33
631.91	45961.10
632.06	46499.42
632.21	46036.00
632.36	46419.84
632.51	45478.95
632.66	45993.87
632.81	45296.39
632.96	46043.02
633.10	45226.17
633.25	45633.42
633.40	45280.00
633.55	46005.57
633.70	45467.25
633.85	45338.52
634.00	45198.09
634.15	45188.72
634.30	45062.33
634.45	45483.63
634.60	44924.24
634.75	45301.07
634.90	45406.39
635.05	45500.01
635.19	45359.58
635.34	45565.55
635.49	45045.95
635.64	45141.91
635.79	45270.64
635.94	45130.21
636.09	45155.96
636.24	44741.68
636.39	45752.79
636.53	44994.46
636.68	45099.78
636.83	45195.74
636.98	44467.84
637.13	44371.88
637.28	44495.92
637.43	44865.73
637.57	44868.07
637.72	44325.07
637.87	44790.83
638.02	45015.52
638.17	44484.22
638.32	44966.37
638.46	44280.60
638.61	44877.43
638.76	44460.82
638.91	44194.00
639.06	44430.39
639.20	44158.89
639.35	44299.32
639.50	44327.41
639.65	44605.93
639.80	44432.73
639.94	44823.60
640.09	44795.51
640.24	44369.54
640.39	43831.21
640.54	44289.96
640.68	44156.55
640.83	44435.07
640.98	44402.30
641.13	43936.54
641.27	44683.17
641.42	44182.29
641.57	44222.08
641.72	44357.83
641.86	43782.06
642.01	43512.90
642.16	43833.55
642.31	43243.74
642.45	44233.78
642.60	43686.10
642.75	43606.52
642.90	44172.93
643.04	43849.94
643.19	43533.96
643.34	43746.95
643.48	43349.06
643.63	43976.33
643.78	43871.00
643.93	43758.66
644.07	43412.26
644.22	43866.32
644.37	43599.50
644.51	44091.01
644.66	43620.56
644.81	43676.74
644.95	43761.00
645.10	43370.13
645.25	43400.55
645.39	43438.00
645.54	43665.03
645.69	43358.42
645.83	43007.34
645.98	43187.56
646.13	43409.92
646.27	43540.99
646.42	43040.11
646.57	43346.72
646.71	43744.61
646.86	43189.91
647.00	43313.95
647.15	43636.95
647.30	43313.95
647.44	43098.62
647.59	43126.71
647.74	43019.05
647.88	43363.11
648.03	43089.26
648.17	43765.68
648.32	43129.05
648.47	43079.90
648.61	43360.76
648.76	42916.06
648.90	42880.95
649.05	43136.07
649.20	43079.90
649.34	43360.76
649.49	42965.21
649.63	43225.01
649.78	43358.42
649.92	43267.14
650.07	43283.53
650.21	42951.17
650.36	43213.31
650.51	42586.05
650.65	43091.60
650.80	43079.90
650.94	42834.14
651.09	42286.46
651.23	42286.46
651.38	42342.63
651.52	42185.82
651.67	42555.62
651.81	42784.99
651.96	42445.62
652.10	42560.30
652.25	42543.92
652.39	42192.84
652.54	42230.29
652.68	42368.38
652.83	42698.39
652.97	42560.30
653.12	42277.10
653.26	42113.26
653.41	41862.82
653.55	42260.71
653.70	42527.53
653.84	42932.45
653.99	42740.52
654.13	42153.05
654.27	41612.38
654.42	42148.37
654.56	41825.37
654.71	42131.98
654.85	42239.65
655.00	41895.59
655.14	41769.20
655.29	42106.24
655.43	42553.28
655.57	41820.69
655.72	41841.76
655.86	41801.97
656.01	41333.86
656.15	41188.75
656.30	41158.32
656.44	41565.57
656.58	41813.67
656.73	41652.17
656.87	41350.24
657.01	41172.36
657.16	41771.54
657.30	41493.02
657.45	41305.77
657.59	41207.47
657.73	41411.10
657.88	41457.91
658.02	41790.27
658.16	41352.58
658.31	40907.88
658.45	41242.58
658.60	41345.56
658.74	41509.40
658.88	41118.53
659.03	41347.90
659.17	40575.53
659.31	41202.79
659.46	41212.15
659.60	40900.86
659.74	40582.55
659.89	40811.92
660.03	40924.27
660.17	40676.17
660.32	40577.87
660.46	40821.28
660.60	40098.06
660.74	40395.31
660.89	40697.24
661.03	40252.53
661.17	39761.02
661.32	39805.49
661.46	40215.08
661.60	40329.77
661.74	40079.33
661.89	40357.86
662.03	39845.28
662.17	40053.59
662.31	39321.00
662.46	39948.26
662.60	39763.36
662.74	39622.93
662.88	39761.02
663.03	39416.96
663.17	39503.56
663.31	39227.38
663.45	39487.18
663.60	39475.48
663.74	39702.51
663.88	39267.17
664.02	39267.17
664.17	39583.14
664.31	38890.34
664.45	38888.00
664.59	39147.80
664.73	39012.05
664.88	39103.33
665.02	38504.15
665.16	38745.23
665.30	39187.59
665.44	38663.31
665.59	39005.03
665.73	38370.74
665.87	38195.20
666.01	38328.61
666.15	38614.16
666.29	37954.13
666.44	38293.50
666.58	38227.97
666.72	38335.63
666.86	38148.39
667.00	38218.61
667.14	38244.35
667.28	38237.33
667.43	37940.08
667.57	38113.28
667.71	38148.39
667.85	38129.67
667.99	37799.65
668.13	37532.83
668.27	36964.08
668.41	37366.65
668.56	37235.58
668.70	37345.59
668.84	36884.50
668.98	37017.91
669.12	37053.02
669.26	37530.49
669.40	37153.66
669.54	37401.76
669.68	37017.91
669.82	36912.59
669.96	36868.12
670.10	36538.10
670.25	36828.33
670.39	36465.55
670.53	36718.32
670.67	36498.31
670.81	36755.77
670.95	36584.91
671.09	36561.51
671.23	36254.90
671.37	36481.93
671.51	36180.00
671.65	36514.70
671.79	36070.00
671.93	36308.73
672.07	36158.94
672.21	35732.96
672.35	35377.20
672.49	35534.01
672.63	35491.88
672.77	35576.14
672.91	35569.12
673.05	35613.59
673.19	35180.59
673.33	35379.54
673.47	35377.20
673.61	34707.80
673.75	34838.87
673.89	35068.25
674.03	34888.03
674.17	34691.42
674.31	34279.49
674.45	34178.84
674.59	34689.08
674.73	34195.23
674.87	34211.61
675.01	33984.58
675.15	34000.96
675.29	33965.85
675.43	33591.37
675.56	34190.55
675.70	33759.89
675.84	33762.23
675.98	32987.51
676.12	33748.18
676.26	33745.84
676.40	33345.61
676.54	33390.08
676.68	33113.90
676.82	32734.73
676.96	33333.91
677.10	33099.86
677.23	32861.12
677.37	32711.33
677.51	32444.51
677.65	32493.66
677.79	32334.50
677.93	32294.71
678.07	32170.66
678.21	32175.34
678.34	31508.29
678.48	31711.92
678.62	31845.33
678.76	31718.94
678.90	31915.54
679.04	31735.32
679.18	31456.80
679.31	32013.85
679.45	31365.52
679.59	30946.56
679.73	31299.98
679.87	30843.58
680.00	30897.41
680.14	30417.60
680.28	31199.34
680.42	30958.27
680.56	30366.11
680.70	30251.42
680.83	30209.29
680.97	30277.17
681.11	30284.19
681.25	30181.21
681.39	29933.11
681.52	29851.19
681.66	29886.30
681.80	29331.59
681.94	29322.23
682.07	29003.92
682.21	28999.24
682.35	28683.27
682.49	28957.11
682.62	28912.64
682.76	29139.67
682.90	28821.36
683.04	28694.97
683.17	28643.48
683.31	28692.63
683.45	28224.52
683.59	28198.77
683.72	28100.47
683.86	28439.85
684.00	28137.92
684.13	27953.02
684.27	27681.52
684.41	27826.63
684.55	27812.59
684.68	27461.51
684.82	27718.96
684.96	27201.71
685.09	27477.89
685.23	27110.43
685.37	27751.73
685.50	27662.79
685.64	27213.41
685.78	26794.45
685.91	26663.38
686.05	26623.59
686.19	26221.02
686.32	26242.09
686.46	26141.44
686.60	25975.27
686.73	26309.96
686.87	26092.29
687.01	25907.39
687.14	25883.98
687.28	25998.67
687.42	25532.90
687.55	25509.50
687.69	25202.89
687.82	25479.07
687.96	25717.81
688.10	25191.19
688.23	25118.63
688.37	25413.54
688.50	25050.75
688.64	24898.62
688.78	25076.50
688.91	24812.02
689.05	24552.22
689.18	24432.85
689.32	24051.34
689.46	24107.52
689.59	24133.26
689.73	24046.66
689.86	24346.25
690.00	23997.51
690.13	24306.46
690.27	23786.86
690.41	23969.43
690.54	23503.66
690.68	23569.19
690.81	23447.49
690.95	23307.05
691.08	23412.38
691.22	23222.80
691.35	23082.36
691.49	23211.09
691.62	22876.40
691.76	22721.92
691.89	22462.12
692.03	22604.89
692.16	22352.12
692.30	22164.87
692.43	22214.02
692.57	21996.35
692.70	22146.15
692.84	22134.45
692.97	21561.02
693.11	21469.73
693.24	21341.00
693.38	21397.18
693.51	21233.34
693.65	21116.31
693.78	21308.24
693.92	21331.64
694.05	20886.94
694.19	20938.43
694.32	20697.36
694.45	20858.85
694.59	21113.97
694.72	21139.72
694.86	20477.35
694.99	20432.88
695.13	20208.19
695.26	20489.05
695.39	20018.60
695.53	20027.96
695.66	20077.12
695.80	20133.29
695.93	19721.35
696.07	19613.69
696.20	19410.06
696.33	19140.90
696.47	19484.96
696.60	19290.70
696.73	19363.25
696.87	19414.74
697.00	19634.75
697.14	19058.98
697.27	18871.74
697.40	18721.95
697.54	18857.70
697.67	18520.66
697.80	18988.77
697.94	18398.95
698.07	18223.41
698.21	18700.88
698.34	18108.72
698.47	17862.97
698.61	17968.29
698.74	17703.81
698.87	18237.45
699.01	17853.61
699.14	17755.30
699.27	17474.44
699.40	17516.57
699.54	17539.97
699.67	17516.57
699.80	17479.12
699.94	17235.70
700.07	17652.32
700.20	17046.12
700.34	16940.80
700.47	16964.20
700.60	17041.44
700.73	16922.07
700.87	16341.62
701.00	16423.54
701.13	16510.14
701.26	16388.43
701.40	16248.00
701.53	16123.95
701.66	16035.01
701.79	16322.90
701.93	15838.41
702.06	15583.29
702.19	15836.06
702.32	15733.08
702.46	15995.22
702.59	16140.33
702.72	15672.23
702.85	15562.22
702.99	15712.02
703.12	15609.03
703.25	15140.93
703.38	15286.04
703.51	15150.29
703.65	14909.21
703.78	14771.12
703.91	14693.88
704.04	14658.78
704.17	14813.25
704.31	14743.03
704.44	14443.45
704.57	14593.24
704.70	14464.51
704.83	14569.83
704.96	14541.75
705.10	14321.74
705.23	14394.29
>>>>>End Processed Spectral Data<<<<<
