SpectraSuite Data File
++++++++++++++++++++++++++++++++++++
Date: Fri Oct 25 11:34:22 EDT 2013
User: price-jones
Dark Spectrum Present: No
Reference Spectrum Present: No
Number of Sampled Component Spectra: 1
Spectrometers: USB2+H05261
Integration Time (usec): 100000 (USB2+H05261)
Spectra Averaged: 1 (USB2+H05261)
Boxcar Smoothing: 0 (USB2+H05261)
Correct for Electrical Dark: No (USB2+H05261)
Strobe/Lamp Enabled: No (USB2+H05261)
Correct for Detector Non-linearity: No (USB2+H05261)
Correct for Stray Light: No (USB2+H05261)
Number of Pixels in Processed Spectrum: 2048
>>>>>Begin Processed Spectral Data<<<<<
365.73	276.18
365.92	276.18
366.12	276.18
366.32	212.99
366.52	159.16
366.72	245.76
366.91	203.63
367.11	161.50
367.31	168.52
367.51	229.37
367.70	170.86
367.90	149.79
368.10	222.35
368.30	212.99
368.49	236.39
368.69	177.88
368.89	210.65
369.09	135.75
369.28	231.71
369.48	159.16
369.68	191.92
369.87	287.89
370.07	196.60
370.27	334.70
370.47	369.80
370.66	486.83
370.86	535.98
371.06	578.11
371.25	603.86
371.45	503.22
371.65	578.11
371.84	519.60
372.04	580.45
372.24	535.98
372.44	568.75
372.63	566.41
372.83	596.84
373.03	514.92
373.22	575.77
373.42	634.29
373.62	596.84
373.81	631.94
374.01	636.63
374.21	589.82
374.40	554.71
374.60	655.35
374.79	596.84
374.99	681.10
375.19	676.41
375.38	671.73
375.58	695.14
375.78	660.03
375.97	629.60
376.17	685.78
376.37	641.31
376.56	629.60
376.76	688.12
376.95	664.71
377.15	711.52
377.35	690.46
377.54	669.39
377.74	568.75
377.93	667.05
378.13	706.84
378.33	674.07
378.52	711.52
378.72	704.50
378.91	727.91
379.11	744.29
379.31	667.05
379.50	741.95
379.70	734.93
379.89	636.63
380.09	697.48
380.28	704.50
380.48	741.95
380.68	648.33
380.87	725.57
381.07	723.23
381.26	793.44
381.46	737.27
381.65	699.82
381.85	744.29
382.04	734.93
382.24	746.63
382.43	739.61
382.63	795.78
382.83	849.61
383.02	786.42
383.22	657.69
383.41	849.61
383.61	826.21
383.80	809.83
384.00	746.63
384.19	765.36
384.39	819.19
384.58	770.04
384.78	802.80
384.97	755.99
385.17	873.02
385.36	770.04
385.56	763.01
385.75	823.87
385.95	917.49
386.14	884.72
386.34	919.83
386.53	880.04
386.72	863.66
386.92	823.87
387.11	858.98
387.31	887.06
387.50	873.02
387.70	823.87
387.89	915.15
388.09	901.11
388.28	917.49
388.48	873.02
388.67	884.72
388.86	905.79
389.06	929.19
389.25	917.49
389.45	919.83
389.64	947.92
389.84	964.30
390.03	968.98
390.22	924.51
390.42	976.00
390.61	978.34
390.81	898.77
391.00	894.08
391.19	994.73
391.39	957.28
391.58	936.21
391.78	957.28
391.97	924.51
392.16	987.71
392.36	1022.81
392.55	1034.52
392.75	1076.65
392.94	1057.92
393.13	1013.45
393.33	1027.50
393.52	990.05
393.71	973.66
393.91	1121.12
394.10	1069.62
394.29	1107.07
394.49	957.28
394.68	1165.59
394.88	1071.97
395.07	1151.54
395.26	1088.35
395.46	1104.73
395.65	1121.12
395.84	1146.86
396.04	1245.16
396.23	1174.95
396.42	1153.88
396.62	1249.85
396.81	1156.22
397.00	1196.01
397.19	1179.63
397.39	1205.38
397.58	1231.12
397.77	1191.33
397.97	1247.51
398.16	1256.87
398.35	1341.13
398.55	1263.89
398.74	1273.25
398.93	1348.15
399.12	1301.34
399.32	1238.14
399.51	1299.00
399.70	1245.16
399.90	1268.57
400.09	1273.25
400.28	1371.55
400.47	1371.55
400.67	1378.58
400.86	1373.89
401.05	1287.29
401.24	1411.34
401.44	1406.66
401.63	1535.39
401.82	1462.83
402.01	1387.94
402.21	1369.21
402.40	1502.62
402.59	1432.41
402.78	1413.68
402.97	1533.05
403.17	1439.43
403.36	1451.13
403.55	1519.01
403.74	1535.39
403.93	1598.59
404.13	1514.33
404.32	1486.24
404.51	1533.05
404.70	1558.80
404.89	1554.12
405.09	1675.82
405.28	1643.06
405.47	1659.44
405.66	1680.50
405.85	1734.34
406.05	1643.06
406.24	1788.17
406.43	1762.42
406.62	1652.42
406.81	1701.57
407.00	1696.89
407.20	1734.34
407.39	1746.04
407.58	1743.70
407.77	1832.64
407.96	1870.09
408.15	1804.55
408.34	1813.92
408.54	1930.94
408.73	1788.17
408.92	1923.92
409.11	1884.13
409.30	1879.45
409.49	1886.47
409.68	1982.43
409.87	1973.07
410.07	1959.03
410.26	1872.43
410.45	1947.33
410.64	2015.20
410.83	2019.88
411.02	2092.44
411.21	2200.10
411.40	1994.14
411.59	2146.27
411.78	2162.66
411.98	2078.40
412.17	2183.72
412.36	2183.72
412.55	2211.81
412.74	2296.07
412.93	2324.15
413.12	2277.34
413.31	2476.29
413.50	2256.28
413.69	2321.81
413.88	2443.52
414.07	2335.85
414.26	2349.90
414.45	2462.24
414.64	2352.24
414.83	2448.20
415.02	2485.65
415.22	2429.48
415.41	2663.53
415.60	2616.72
415.79	2609.70
415.98	2698.64
416.17	2768.85
416.36	2700.98
416.55	2623.74
416.74	2595.65
416.93	2635.44
417.12	2726.72
417.31	2700.98
417.50	2803.96
417.69	2878.86
417.88	2885.88
418.07	2813.32
418.26	3026.31
418.45	2932.69
418.64	2979.50
418.83	2972.48
419.02	2972.48
419.21	3070.78
419.39	3068.44
419.58	2928.01
419.77	2944.39
419.96	3155.04
420.15	3063.76
420.34	3089.51
420.53	3030.99
420.72	3159.72
420.91	3138.66
421.10	3136.32
421.29	3208.87
421.48	3098.87
421.67	3117.59
421.86	3150.36
422.05	3138.66
422.24	3131.64
422.43	3171.43
422.61	3337.60
422.80	3281.43
422.99	3283.77
423.18	3166.74
423.37	3328.24
423.56	3361.01
423.75	3274.41
423.94	3262.71
424.13	3075.46
424.32	3143.34
424.50	3309.52
424.69	3365.69
424.88	3379.73
425.07	3318.88
425.26	3297.81
425.45	3206.53
425.64	3370.37
425.83	3330.58
426.01	3372.71
426.20	3407.82
426.39	3442.93
426.58	3330.58
426.77	3365.69
426.96	3494.42
427.15	3438.25
427.33	3520.17
427.52	3386.76
427.71	3471.01
427.90	3456.97
428.09	3613.79
428.28	3595.06
428.46	3625.49
428.65	3475.70
428.84	3562.30
429.03	3674.64
429.22	3534.21
429.40	3709.75
429.59	3688.68
429.78	3487.40
429.97	3562.30
430.16	3728.47
430.34	3709.75
430.53	3779.97
430.72	3758.90
430.91	3810.39
431.10	3791.67
431.28	3798.69
431.47	3943.80
431.66	3943.80
431.85	3859.54
432.03	3838.48
432.22	3908.69
432.41	3976.57
432.60	3988.27
432.79	3906.35
432.97	3981.25
433.16	3969.55
433.35	4004.66
433.54	3957.85
433.72	4093.60
433.91	3999.98
434.10	3999.98
434.28	3918.06
434.47	4007.00
434.66	4142.75
434.85	4227.01
435.03	4170.83
435.22	4210.62
435.41	4222.33
435.59	4250.41
435.78	4329.99
435.97	4337.01
436.16	4215.30
436.34	4210.62
436.53	4191.90
436.72	4475.10
436.90	4170.83
437.09	4198.92
437.28	4315.95
437.46	4447.02
437.65	4383.82
437.84	4454.04
438.02	4311.27
438.21	4400.21
438.40	4404.89
438.58	4542.98
438.77	4517.23
438.96	4542.98
439.14	4737.24
439.33	4676.39
439.52	4688.09
439.70	4777.03
439.89	4835.55
440.08	4826.18
440.26	4905.76
440.45	4807.46
440.63	5004.07
440.82	5100.03
441.01	4980.66
441.19	5118.75
441.38	5055.56
441.57	4915.12
441.75	5039.17
441.94	5245.14
442.12	5123.43
442.31	5254.50
442.50	5327.06
442.68	5032.15
442.87	5284.93
443.05	5174.92
443.24	5359.83
443.43	5203.01
443.61	5296.63
443.80	5481.53
443.98	5151.52
444.17	5193.65
444.35	5359.83
444.54	5511.96
444.73	5380.89
444.91	5369.19
445.10	5249.82
445.28	5495.58
445.47	5305.99
445.65	5394.93
445.84	5366.85
446.02	5607.92
446.21	5570.48
446.39	5474.51
446.58	5572.82
446.77	5518.98
446.95	5268.55
447.14	5551.75
447.32	5767.08
447.51	5430.04
447.69	5411.32
447.88	5425.36
448.06	5650.05
448.25	5479.19
448.43	5755.38
448.62	5598.56
448.80	5509.62
448.99	5699.20
449.17	5568.13
449.36	5781.12
449.54	5769.42
449.73	5792.83
449.91	5961.34
450.10	5860.70
450.28	6092.41
450.46	5820.91
450.65	5811.55
450.83	6045.60
451.02	5858.36
451.20	5930.92
451.39	5914.53
451.57	5977.73
451.76	5921.56
451.94	5991.77
452.13	6132.20
452.31	6125.18
452.49	6071.35
452.68	6057.31
452.86	6050.28
453.05	6214.12
453.23	6157.95
453.42	6162.63
453.60	6183.70
453.78	6122.84
453.97	6179.01
454.15	6104.12
454.34	6057.31
454.52	6171.99
454.70	6382.64
454.89	6349.87
455.07	6244.55
455.26	6284.34
455.44	6296.04
455.62	6544.14
455.81	6408.39
455.99	6626.06
456.17	6483.28
456.36	6415.41
456.54	6565.20
456.73	6569.88
456.91	6686.91
457.09	6663.51
457.28	7012.24
457.46	6736.06
457.64	6841.39
457.83	6729.04
458.01	6663.51
458.19	6885.86
458.38	6850.75
458.56	6825.00
458.74	7105.87
458.93	6855.43
459.11	7012.24
459.29	6867.13
459.48	6909.26
459.66	7091.82
459.84	6967.77
460.03	7281.41
460.21	6981.82
460.39	7000.54
460.57	7117.57
460.76	7159.70
460.94	7229.91
461.12	7101.19
461.31	7286.09
461.49	7286.09
461.67	7255.66
461.85	7555.25
462.04	7295.45
462.22	7768.24
462.40	7592.70
462.59	7641.85
462.77	7520.14
462.95	7836.11
463.13	7454.61
463.32	7485.03
463.50	7480.35
463.68	7803.35
463.86	7761.22
464.05	7375.03
464.23	7627.81
464.41	7590.36
464.59	7510.78
464.78	7791.64
464.96	7770.58
465.14	7714.41
465.32	7803.35
465.50	7810.37
465.69	7960.16
465.87	7756.54
466.05	7770.58
466.23	7868.88
466.41	8032.72
466.60	7971.86
466.78	7929.74
466.96	7887.61
467.14	7845.48
467.32	7880.58
467.51	8081.87
467.69	7648.87
467.87	7918.03
468.05	8189.53
468.23	7901.65
468.41	8159.11
468.60	8182.51
468.78	8147.40
468.96	8095.91
469.14	8297.20
469.32	8250.39
469.50	8210.60
469.69	8336.99
469.87	8564.02
470.05	8290.18
470.23	8428.27
470.41	8608.49
470.59	8524.23
470.77	8444.65
470.95	8439.97
471.14	8688.07
471.32	8613.17
471.50	8702.11
471.68	8608.49
471.86	8580.40
472.04	8821.48
472.22	9125.75
472.40	8695.09
472.58	8812.12
472.77	9006.38
472.95	9001.70
473.13	9116.39
473.31	9095.32
473.49	9083.62
473.67	9121.07
473.85	9025.11
474.03	9385.55
474.21	9266.18
474.39	9303.63
474.57	9465.13
474.75	9444.06
474.93	9657.05
475.12	9533.00
475.30	9418.32
475.48	9652.37
475.66	9715.56
475.84	9565.77
476.02	9928.55
476.20	9886.42
476.38	9930.89
476.56	10127.50
476.74	10197.71
476.92	10090.05
477.10	10054.94
477.28	10204.74
477.46	10324.10
477.64	10373.25
477.82	10424.75
478.00	10733.70
478.18	10663.48
478.36	10724.33
478.54	10956.05
478.72	10934.98
478.90	10988.82
479.08	11276.70
479.26	11187.76
479.44	11124.57
479.62	11398.41
479.80	11438.20
479.98	11220.53
480.16	11800.98
480.34	11716.72
480.52	11822.05
480.70	11864.18
480.88	11730.76
481.06	11892.26
481.24	11894.60
481.41	12386.12
481.59	12058.44
481.77	12173.13
481.95	12423.56
482.13	12669.32
482.31	12603.78
482.49	12830.82
482.67	12812.09
482.85	13008.70
483.03	13177.22
483.21	13217.01
483.39	13432.33
483.57	13303.60
483.74	13404.25
483.92	13495.53
484.10	13465.10
484.28	13785.76
484.46	13900.44
484.64	13820.86
484.82	13902.78
485.00	13916.83
485.18	14331.10
485.35	14654.09
485.53	14281.95
485.71	14523.02
485.89	14956.02
486.07	14757.08
486.25	14469.19
486.43	15145.61
486.61	14843.68
486.78	15360.94
486.96	15206.46
487.14	15267.31
487.32	15508.39
487.50	15651.16
487.68	15925.00
487.85	16037.35
488.03	16215.23
488.21	16287.79
488.39	16318.22
488.57	16353.32
488.75	16526.52
488.92	16723.13
489.10	16989.95
489.28	16856.54
489.46	17177.19
489.64	16999.31
489.81	17649.98
489.99	17603.17
490.17	17090.59
490.35	17809.14
490.53	17839.56
490.70	18010.42
490.88	17825.52
491.06	18059.57
491.24	18256.18
491.41	18169.58
491.59	18305.33
491.77	18396.61
491.95	18520.66
492.13	18930.25
492.30	18974.72
492.48	19063.66
492.66	19068.34
492.84	18871.74
493.01	19140.90
493.19	19365.59
493.37	19604.33
493.54	20025.62
493.72	19763.48
493.90	19866.47
494.08	19805.61
494.25	20013.92
494.43	20299.47
494.61	20407.13
494.79	20601.40
494.96	20526.50
495.14	20606.08
495.32	21001.63
495.49	20915.03
495.67	21027.37
495.85	21214.62
496.02	21341.00
496.20	21689.74
496.38	21165.46
496.55	21764.64
496.73	21900.39
496.91	21827.84
497.09	22036.14
497.26	22127.42
497.44	21986.99
497.62	22148.49
497.79	22537.02
497.97	22431.69
498.14	22642.34
498.32	22712.56
498.50	22691.49
498.67	23005.13
498.85	22801.50
499.03	22998.10
499.20	23058.96
499.38	23410.04
499.56	23524.72
499.73	23470.89
499.91	23290.67
500.08	23550.47
500.26	23683.88
500.44	23793.89
500.61	23658.14
500.79	24002.19
500.97	24112.20
501.14	24556.90
501.32	24109.86
501.49	24315.83
501.67	24224.54
501.84	24601.37
502.02	24584.99
502.20	24718.40
502.37	24669.25
502.55	24655.20
502.72	24858.83
502.90	24875.21
503.07	24870.53
503.25	24994.58
503.43	25055.43
503.60	25172.46
503.78	25415.88
503.95	25591.42
504.13	25654.61
504.30	25579.71
504.48	25628.87
504.65	25947.18
504.83	25975.27
505.01	25933.14
505.18	26139.10
505.36	26176.55
505.53	26089.95
505.71	26115.70
505.88	26576.78
506.06	26188.25
506.23	26742.96
506.41	26548.70
506.58	26850.63
506.76	26520.61
506.93	26934.88
507.11	26745.30
507.28	27262.56
507.46	27201.71
507.63	27089.36
507.81	27505.98
507.98	27325.75
508.16	27379.59
508.33	27445.12
508.50	27637.05
508.68	27559.81
508.85	27590.24
509.03	27615.98
509.20	27529.38
509.38	27915.57
509.55	27948.34
509.73	28435.17
509.90	28346.23
510.08	28135.58
510.25	28587.30
510.42	28540.49
510.60	28479.64
510.77	28774.55
510.95	28760.50
511.12	28608.37
511.30	28783.91
511.47	29069.45
511.64	28680.92
511.82	29202.86
511.99	29076.48
512.17	29490.75
512.34	29226.27
512.51	29802.04
512.69	29659.27
512.86	29575.01
513.04	29663.95
513.21	29507.13
513.38	29970.56
513.56	29848.85
513.73	29937.79
513.90	29776.30
514.08	30050.14
514.25	30113.33
514.43	30691.44
514.60	30455.05
514.77	30092.27
514.95	30366.11
515.12	30373.13
515.29	30684.42
515.47	30710.17
515.64	30773.36
515.81	30600.16
515.99	30906.77
516.16	31601.91
516.33	31033.16
516.51	31409.99
516.68	31323.39
516.85	30654.00
517.03	31302.32
517.20	31611.28
517.37	31473.18
517.54	31407.65
517.72	31667.45
517.89	31323.39
518.06	31854.69
518.24	31669.79
518.41	31622.98
518.58	31419.35
518.75	31662.77
518.93	32224.50
519.10	31917.89
519.27	31887.46
519.45	32011.51
519.62	32393.01
519.79	32306.41
519.96	32287.69
520.14	32760.48
520.31	32781.54
520.48	32453.87
520.65	32407.06
520.83	32800.27
521.00	33263.69
521.17	32662.18
521.34	33399.44
521.52	32980.49
521.69	33364.34
521.86	33130.28
522.03	33448.60
522.20	33457.96
522.38	33425.19
522.55	33610.09
522.72	33778.61
522.89	33670.95
523.07	33909.68
523.24	33947.13
523.41	33809.04
523.58	33586.69
523.75	33816.06
523.92	34050.11
524.10	34330.98
524.27	34129.69
524.44	34185.86
524.61	34658.65
524.78	34504.18
524.96	34457.37
525.13	34763.98
525.30	34965.26
525.47	35089.31
525.64	34827.17
525.81	35082.29
525.98	34937.18
526.16	34976.97
526.33	34623.54
526.50	35672.10
526.67	34988.67
526.84	35105.70
527.01	35044.84
527.18	34824.83
527.36	35440.39
527.53	35377.20
527.70	35887.43
527.87	36034.89
528.04	35756.36
528.21	35611.25
528.38	35484.86
528.55	35555.08
528.72	35580.82
528.89	35819.56
529.07	35908.50
529.24	36058.29
529.41	35849.99
529.58	35985.74
529.75	36158.94
529.92	36194.04
530.09	35697.85
530.26	36491.29
530.43	35906.16
530.60	36100.42
530.77	36294.69
530.94	36339.16
531.11	36435.12
531.28	36683.22
531.46	36664.49
531.63	36781.52
531.80	37067.06
531.97	37013.23
532.14	36811.95
532.31	36844.71
532.48	37371.33
532.65	37141.96
532.82	37326.86
532.99	37497.72
533.16	36753.43
533.33	37282.39
533.50	37331.54
533.67	36910.25
533.84	36833.01
534.01	37373.67
534.18	37462.61
534.35	37383.04
534.52	37748.16
534.69	37916.68
534.86	37642.84
535.03	37785.61
535.20	37830.08
535.37	37605.39
535.54	37998.60
535.71	37827.74
535.88	38085.20
536.05	38010.30
536.22	38185.84
536.38	38171.80
536.55	38438.62
536.72	38242.01
536.89	38143.71
537.06	37961.15
537.23	38384.79
537.40	37996.26
537.57	38433.94
537.74	38356.70
537.91	38658.63
538.08	38223.29
538.25	38424.57
538.42	38721.82
538.59	38597.77
538.75	38679.69
538.92	38904.38
539.09	39218.02
539.26	38864.60
539.43	38705.44
539.60	39028.43
539.77	38857.57
539.94	39133.76
540.11	38981.62
540.28	39115.03
540.44	39225.04
540.61	39161.84
540.78	39129.08
540.95	39126.74
541.12	39210.99
541.29	39108.01
541.46	39370.15
541.62	39613.57
541.79	39739.96
541.96	39138.44
542.13	38998.01
542.30	39468.45
542.47	39597.18
542.63	39789.11
542.80	40030.18
542.97	40095.72
543.14	40353.18
543.31	40032.52
543.48	39943.58
543.64	40388.28
543.81	40402.33
543.98	40297.00
544.15	40336.79
544.32	40542.76
544.48	40669.15
544.65	41071.72
544.82	40938.31
544.99	40397.65
545.16	40662.13
545.32	40222.11
545.49	41015.55
545.66	41411.10
545.83	40961.72
546.00	41603.02
546.16	40891.50
546.33	40856.39
546.50	40992.14
546.67	41041.29
546.83	40381.26
547.00	41200.45
547.17	41069.38
547.34	40624.68
547.50	41453.23
547.67	41460.25
547.84	41338.54
548.00	41745.80
548.17	41518.76
548.34	41525.78
548.51	41944.74
548.67	41722.39
548.84	41474.29
549.01	41289.39
549.18	41661.54
549.34	41614.72
549.51	41762.18
549.68	42115.60
549.84	41872.18
550.01	42033.68
550.18	41621.75
550.34	41689.62
550.51	41673.24
550.68	42387.10
550.84	41549.19
551.01	41785.58
551.18	42335.61
551.34	42024.32
551.51	42417.53
551.68	42146.03
551.84	42232.63
552.01	41797.29
552.18	42426.89
552.34	42160.07
552.51	42190.50
552.68	42244.33
552.84	42223.26
553.01	42536.90
553.18	42543.92
553.34	42941.81
553.51	42462.00
553.67	42628.18
553.84	42997.98
554.01	42686.69
554.17	42843.51
554.34	42754.57
554.51	42572.00
554.67	42876.27
554.84	42967.55
555.00	42965.21
555.17	42768.61
555.33	43056.50
555.50	43044.79
555.67	42969.90
555.83	43107.99
556.00	43180.54
556.16	43395.87
556.33	43079.90
556.50	43166.50
556.66	42843.51
556.83	42979.26
556.99	43667.37
557.16	43480.13
557.32	43447.36
557.49	43440.34
557.65	43419.28
557.82	43313.95
557.98	43634.61
558.15	43344.38
558.32	44041.86
558.48	42976.92
558.65	43440.34
558.81	43690.78
558.98	43398.21
559.14	43498.86
559.31	43618.22
559.47	43590.14
559.64	43814.83
559.80	43573.75
559.97	43828.87
560.13	43611.20
560.30	43517.58
560.46	44147.18
560.63	44100.37
560.79	44088.67
560.96	43765.68
561.12	44053.56
561.29	43936.54
561.45	44231.44
561.61	43978.67
561.78	44299.32
561.94	43615.88
562.11	44142.50
562.27	43901.43
562.44	44123.78
562.60	44318.04
562.77	44177.61
562.93	44126.12
563.10	44165.91
563.26	44161.23
563.42	44683.17
563.59	44392.94
563.75	44388.26
563.92	44327.41
564.08	43955.26
564.24	44659.76
564.41	43807.81
564.57	44748.70
564.74	44285.28
564.90	44257.19
565.07	44350.81
565.23	44397.62
565.39	44453.79
565.56	44533.37
565.72	44231.44
565.88	44224.42
566.05	44678.49
566.21	44828.28
566.38	44327.41
566.54	44301.66
566.70	44664.44
566.87	44423.37
567.03	44690.19
567.19	44748.70
567.36	44505.29
567.52	44870.41
567.68	44776.79
567.85	44837.64
568.01	44746.36
568.17	44610.61
568.34	44856.37
568.50	44928.92
568.66	44692.53
568.83	44844.66
568.99	44655.08
569.15	45078.72
569.32	44875.09
569.48	44322.72
569.64	45705.98
569.81	44968.71
569.97	44725.30
570.13	44690.19
570.30	44713.59
570.46	45020.20
570.62	45219.15
570.78	44748.70
570.95	44877.43
571.11	45111.49
571.27	44725.30
571.43	44868.07
571.60	44898.50
571.76	44634.02
571.92	45148.93
572.09	45272.98
572.25	45301.07
572.41	44828.28
572.57	44746.36
572.74	45308.09
572.90	45099.78
573.06	45148.93
573.22	45406.39
573.38	45315.11
573.55	45270.64
573.71	45853.44
573.87	45120.85
574.03	45146.59
574.20	45411.07
574.36	45003.82
574.52	45380.65
574.68	45324.47
574.84	45902.59
575.01	45317.45
575.17	45476.61
575.33	45483.63
575.49	44905.52
575.65	45162.98
575.82	45556.19
575.98	45120.85
576.14	45483.63
576.30	45462.57
576.46	45141.91
576.62	45254.26
576.79	45371.28
576.95	45265.96
577.11	45240.21
577.27	45059.99
577.43	45113.83
577.59	45577.25
577.75	45141.91
577.92	44949.99
578.08	45455.54
578.24	45160.64
578.40	45724.71
578.56	45584.27
578.72	45219.15
578.88	45570.23
579.04	45343.20
579.21	45219.15
579.37	45783.22
579.53	45106.80
579.69	45127.87
579.85	45347.88
580.01	45640.45
580.17	45453.20
580.33	45624.06
580.49	45598.32
580.65	45488.31
580.82	45317.45
580.98	45338.52
581.14	44907.86
581.30	45551.51
581.46	45277.66
581.62	45427.46
581.78	45691.94
581.94	45502.35
582.10	45361.92
582.26	45329.16
582.42	45904.93
582.58	45977.48
582.74	45783.22
582.90	45668.53
583.06	45928.33
583.22	44961.69
583.38	45673.21
583.54	45696.62
583.70	45715.34
583.86	45963.44
584.02	45579.59
584.18	45897.91
584.34	45617.04
584.50	45935.35
584.66	45928.33
584.82	45794.92
584.98	46092.17
585.14	46010.25
585.30	45429.80
585.46	45783.22
585.62	45720.02
585.78	45715.34
585.94	45523.42
586.10	45439.16
586.26	45551.51
586.42	45488.31
586.58	45902.59
586.74	45815.99
586.90	45600.66
587.06	45305.75
587.22	45902.59
587.38	45720.02
587.54	46129.62
587.70	45984.51
587.86	45652.15
588.02	45874.50
588.18	45577.25
588.34	45937.69
588.49	46059.40
588.65	45832.37
588.81	45996.21
588.97	45656.83
589.13	46176.43
589.29	45881.52
589.45	46174.09
589.61	45998.55
589.77	46202.18
589.93	45979.82
590.08	46277.07
590.24	46134.30
590.40	46040.68
590.56	46101.53
590.72	45787.90
590.88	45979.82
591.04	45724.71
591.20	46223.24
591.35	45799.60
591.51	46913.70
591.67	46681.98
591.83	46335.59
591.99	46220.90
592.15	45954.08
592.31	45823.01
592.46	45989.19
592.62	45869.82
592.78	46440.91
592.94	46469.00
593.10	46686.67
593.26	46230.26
593.41	46358.99
593.57	46541.55
593.73	46389.42
593.89	46806.03
594.05	46719.43
594.20	46335.59
594.36	46581.34
594.52	46436.23
594.68	46050.04
594.84	46230.26
594.99	46443.25
595.15	46288.77
595.31	46534.53
595.47	46190.47
595.62	46515.81
595.78	46401.12
595.94	46616.45
596.10	46450.27
596.25	46363.67
596.41	46431.55
596.57	45972.80
596.73	46698.37
596.88	46894.97
597.04	46279.41
597.20	46155.36
597.36	46293.46
597.51	46787.31
597.67	46000.89
597.83	46609.43
597.99	46632.83
598.14	46316.86
598.30	46356.65
598.46	46131.96
598.61	46955.83
598.77	46663.26
598.93	46562.62
599.09	46171.75
599.24	46820.08
599.40	46394.10
599.56	46696.03
599.71	46684.33
599.87	46976.89
600.03	46979.23
600.18	46944.12
600.34	46747.52
600.50	46555.60
600.65	46721.77
600.81	46794.33
600.97	46604.75
601.12	46604.75
601.28	46670.28
601.44	46913.70
601.59	46588.36
601.75	46508.79
601.91	46698.37
602.06	46628.15
602.22	46759.22
602.37	46747.52
602.53	46527.51
602.69	46808.37
602.84	46291.12
603.00	46745.18
603.16	46829.44
603.31	47033.07
603.47	46663.26
603.62	46644.54
603.78	46667.94
603.94	46892.63
604.09	46445.59
604.25	46300.48
604.40	46050.04
604.56	46405.80
604.71	46986.25
604.87	46431.55
605.03	46103.87
605.18	46810.71
605.34	46384.74
605.49	46712.41
605.65	46454.95
605.80	46471.34
605.96	46417.50
606.12	46560.28
606.27	46267.71
606.43	46274.73
606.58	46635.17
606.74	46361.33
606.89	46518.15
607.05	46813.05
607.20	46691.35
607.36	46513.47
607.51	46239.62
607.67	46225.58
607.82	46157.70
607.98	46312.18
608.13	46382.40
608.29	46344.95
608.44	46766.24
608.60	46080.47
608.75	46604.75
608.91	46073.45
609.06	46267.71
609.22	46490.06
609.37	46204.52
609.53	46340.27
609.68	46146.00
609.84	46651.56
609.99	46553.26
610.15	46478.36
610.30	46260.69
610.46	45837.05
610.61	46209.20
610.76	46663.26
610.92	45837.05
611.07	46181.11
611.23	46080.47
611.38	45914.29
611.54	46120.26
611.69	46246.65
611.84	46358.99
612.00	46096.85
612.15	45815.99
612.31	46564.96
612.46	45949.40
612.62	45675.55
612.77	46036.00
612.92	46337.93
613.08	46183.45
613.23	46040.68
613.39	46092.17
613.54	46349.63
613.69	46234.94
613.85	46024.29
614.00	46150.68
614.15	46553.26
614.31	45759.81
614.46	45600.66
614.62	45759.81
614.77	45977.48
614.92	45998.55
615.08	45853.44
615.23	45382.99
615.38	46045.36
615.54	46209.20
615.69	45853.44
615.84	45748.11
616.00	46127.28
616.15	45612.36
616.30	45996.21
616.46	45790.24
616.61	45895.56
616.76	46010.25
616.92	45600.66
617.07	45488.31
617.22	45368.94
617.37	45193.40
617.53	45982.16
617.68	45584.27
617.83	45586.61
617.99	45888.54
618.14	45684.92
618.29	45392.35
618.45	45221.49
618.60	45331.50
618.75	45118.51
618.90	45352.56
619.06	45212.13
619.21	45301.07
619.36	45860.46
619.51	45123.19
619.67	44573.16
619.82	45422.78
619.97	45502.35
620.12	45354.90
620.28	45193.40
620.43	45139.57
620.58	45097.44
620.73	45310.43
620.89	45390.01
621.04	45483.63
621.19	45277.66
621.34	45263.62
621.49	44903.18
621.65	44938.29
621.80	45202.77
621.95	44706.57
622.10	45139.57
622.25	44847.00
622.41	44985.10
622.56	44664.44
622.71	45024.89
622.86	45013.18
623.01	44992.12
623.16	45392.35
623.32	44964.03
623.47	44811.90
623.62	45214.47
623.77	44928.92
623.92	45052.97
624.07	44505.29
624.23	45038.93
624.38	45329.16
624.53	44655.08
624.68	44594.23
624.83	44858.71
624.98	44889.13
625.13	44367.20
625.29	44318.04
625.44	44399.96
625.59	44587.21
625.74	44498.26
625.89	44201.02
626.04	44311.02
626.19	44832.96
626.34	44453.79
626.49	44491.24
626.65	43786.74
626.80	44479.54
626.95	44016.11
627.10	43854.62
627.25	44182.29
627.40	44500.61
627.55	44161.23
627.70	44247.83
627.85	44179.95
628.00	44100.37
628.15	44201.02
628.30	43765.68
628.45	43695.46
628.60	43871.00
628.76	43737.59
628.91	43842.92
629.06	43370.13
629.21	43646.31
629.36	43840.57
629.51	43950.58
629.66	43964.62
629.81	43789.08
629.96	43842.92
630.11	43576.09
630.26	43498.86
630.41	43735.25
630.56	43709.50
630.71	43667.37
630.86	43475.45
631.01	43299.91
631.16	43173.52
631.31	43438.00
631.46	43189.91
631.61	43768.02
631.76	43021.39
631.91	43515.24
632.06	43473.11
632.21	43828.87
632.36	43222.67
632.51	43611.20
632.66	43597.16
632.81	43171.18
632.96	43143.09
633.10	42880.95
633.25	42995.64
633.40	43388.85
633.55	43529.28
633.70	43241.40
633.85	42717.12
634.00	43131.39
634.15	43040.11
634.30	42740.52
634.45	43016.71
634.60	43096.28
634.75	43049.47
634.90	43126.71
635.05	43283.53
635.19	43096.28
635.34	42726.48
635.49	42754.57
635.64	43044.79
635.79	43220.33
635.94	42895.00
636.09	42960.53
636.24	42581.37
636.39	42836.48
636.53	42831.80
636.68	42260.71
636.83	42359.02
636.98	42857.55
637.13	42368.38
637.28	42555.62
637.43	42113.26
637.57	42824.78
637.72	42232.63
637.87	42157.73
638.02	42841.17
638.17	42359.02
638.32	42527.53
638.46	41972.83
638.61	42101.56
638.76	42164.75
638.91	42707.76
639.06	42368.38
639.20	42410.51
639.35	41750.48
639.50	41741.11
639.65	42244.33
639.80	42054.75
639.94	42227.95
640.09	42153.05
640.24	42356.67
640.39	41603.02
640.54	41771.54
640.68	42209.22
640.83	42223.26
640.98	41808.99
641.13	41766.86
641.27	42288.80
641.42	41624.09
641.57	41560.89
641.72	42117.94
641.86	42141.35
642.01	41586.64
642.16	41787.92
642.31	41333.86
642.45	42010.28
642.60	41427.48
642.75	41813.67
642.90	41755.16
643.04	41357.27
643.19	41713.03
643.34	41539.83
643.48	41495.36
643.63	41511.74
643.78	41989.21
643.93	41839.42
644.07	41528.13
644.22	41462.59
644.37	41015.55
644.51	41883.89
644.66	41509.40
644.81	41429.82
644.95	41495.36
645.10	41706.01
645.25	41186.41
645.39	41261.30
645.54	41017.89
645.69	40540.42
645.83	40556.80
645.98	40774.47
646.13	40924.27
646.27	41141.94
646.42	40624.68
646.57	41029.59
646.71	40992.14
646.86	41305.77
647.00	41397.06
647.15	41343.22
647.30	40928.95
647.44	40907.88
647.59	40699.58
647.74	40720.64
647.88	40795.54
648.03	40837.67
648.17	41113.85
648.32	40994.48
648.47	41441.53
648.61	40692.55
648.76	40587.23
648.90	41022.57
649.05	40603.61
649.20	40692.55
649.34	40460.84
649.49	40711.28
649.63	40669.15
649.78	40538.08
649.92	40533.40
650.07	41244.92
650.21	41055.34
650.36	41060.02
650.51	40488.93
650.65	40947.67
650.80	40617.66
650.94	40491.27
651.09	40732.34
651.23	40128.48
651.38	40289.98
651.52	40025.50
651.67	40128.48
651.81	40170.61
651.96	40463.18
652.10	39754.00
652.25	39913.16
652.39	40418.71
652.54	39962.31
652.68	39784.43
652.83	40226.79
652.97	40388.28
653.12	39971.67
653.26	40048.91
653.41	40025.50
653.55	39817.19
653.70	40140.19
653.84	40147.21
653.99	40409.35
654.13	40133.17
654.27	39594.84
654.42	39957.63
654.56	39746.98
654.71	40034.86
654.85	39634.63
655.00	39789.11
655.14	39882.73
655.29	40137.85
655.43	39817.19
655.57	39533.99
655.72	39063.54
655.86	39655.70
656.01	39278.87
656.15	39353.77
656.30	39339.72
656.44	39445.05
656.58	39746.98
656.73	39311.64
656.87	38525.22
657.01	39115.03
657.16	39255.46
657.30	39660.38
657.45	39292.91
657.59	39171.21
657.73	38866.94
657.88	38939.49
658.02	39182.91
658.16	39147.80
658.31	39086.95
658.45	39089.29
658.60	39026.09
658.74	38822.47
658.88	38581.39
659.03	38834.17
659.17	38794.38
659.31	38525.22
659.46	39019.07
659.60	38913.75
659.74	38506.49
659.89	38583.73
660.03	38333.29
660.17	38127.33
660.32	38426.92
660.46	38356.70
660.60	38405.85
660.74	38309.89
660.89	38134.35
661.03	38359.04
661.17	37769.22
661.32	38110.94
661.46	38328.61
661.60	37900.29
661.74	38085.20
661.89	38038.39
662.03	37947.11
662.17	37801.99
662.31	37797.31
662.46	37799.65
662.60	37453.25
662.74	37691.99
662.88	37338.57
663.03	37001.53
663.17	37324.52
663.31	37401.76
663.45	37303.46
663.60	37603.05
663.74	37764.54
663.88	37258.99
664.02	36875.14
664.17	37338.57
664.31	37413.46
664.45	36919.61
664.59	37371.33
664.73	37139.62
664.88	36856.42
665.02	36627.04
665.16	36699.60
665.30	36945.36
665.44	36788.54
665.59	36603.64
665.73	36378.95
665.87	36133.19
666.01	36870.46
666.15	36290.01
666.29	36203.41
666.44	36411.71
666.58	36231.49
666.72	36357.88
666.86	36259.58
667.00	36425.76
667.14	35962.33
667.28	36009.14
667.43	35866.37
667.57	36402.35
667.71	36325.11
667.85	35838.28
667.99	35889.77
668.13	35999.78
668.27	35407.62
668.41	35381.88
668.56	34916.11
668.70	35096.33
668.84	35274.21
668.98	35044.84
669.12	35438.05
669.26	35002.71
669.40	35346.77
669.54	35065.91
669.68	35220.38
669.82	35065.91
669.96	34384.81
670.10	34326.30
670.25	34700.78
670.39	34637.59
670.53	34771.00
670.67	34581.42
670.81	34714.83
670.95	34621.20
671.09	34377.79
671.23	34202.25
671.37	34307.57
671.51	34068.84
671.65	34162.46
671.79	34192.89
671.93	34003.30
672.07	34150.76
672.21	34232.68
672.35	33570.30
672.49	33624.14
672.63	33893.30
672.77	33701.37
672.91	33364.34
673.05	33846.49
673.19	33324.55
673.33	33352.63
673.47	33020.28
673.61	32914.95
673.75	32779.20
673.89	32716.01
674.03	32620.05
674.17	32931.34
674.31	32383.65
674.45	32444.51
674.59	32765.16
674.73	32004.49
674.87	32051.30
675.01	32362.59
675.15	31747.03
675.29	32327.48
675.43	31882.78
675.56	31601.91
675.70	31955.33
675.84	31992.78
675.98	30932.52
676.12	32119.17
676.26	31819.58
676.40	31695.53
676.54	31206.36
676.68	30888.05
676.82	30597.82
676.96	31487.23
677.10	31211.04
677.23	31122.10
677.37	30958.27
677.51	30991.03
677.65	30874.01
677.79	30682.08
677.93	30895.07
678.07	30513.56
678.21	30543.99
678.34	30040.78
678.48	30277.17
678.62	30508.88
678.76	29708.42
678.90	29916.73
679.04	29965.88
679.18	30333.34
679.31	29940.13
679.45	29432.24
679.59	29455.64
679.73	29418.19
679.87	29008.60
680.00	29024.98
680.14	28940.72
680.28	29034.35
680.42	28987.53
680.56	28666.88
680.70	28332.18
680.83	28835.40
680.97	28701.99
681.11	28505.38
681.25	28018.55
681.39	28009.19
681.52	28189.41
681.66	27896.85
681.80	27349.16
681.94	27702.58
682.07	27793.86
682.21	27688.54
682.35	27402.99
682.49	27445.12
682.62	27405.33
682.76	27644.07
682.90	27405.33
683.04	27211.07
683.17	26918.50
683.31	26733.60
683.45	26752.32
683.59	26759.34
683.72	26579.12
683.86	26539.33
684.00	26019.74
684.13	26602.53
684.27	26431.67
684.41	25930.80
684.55	26111.02
684.68	26211.66
684.82	25914.41
684.96	26043.14
685.09	25799.73
685.23	25748.23
685.37	25940.16
685.50	25853.56
685.64	25565.67
685.78	25500.14
685.91	25467.37
686.05	24889.26
686.19	24999.26
686.32	24620.10
686.46	24823.72
686.60	24467.96
686.73	24797.98
686.87	24306.46
687.01	24582.65
687.14	24343.91
687.28	24666.91
687.42	24224.54
687.55	24175.39
687.69	24177.73
687.82	23655.79
687.96	23861.76
688.10	23896.87
688.23	23796.23
688.37	23866.44
688.50	24025.60
688.64	23531.75
688.78	23674.52
688.91	23353.87
689.05	23206.41
689.18	22785.12
689.32	22909.16
689.46	22778.09
689.59	22796.82
689.73	23192.37
689.86	22827.24
690.00	22703.20
690.13	22764.05
690.27	22593.19
690.41	22710.22
690.54	22305.31
690.68	22111.04
690.81	21855.92
690.95	21727.19
691.08	21678.04
691.22	21706.13
691.35	21605.49
691.49	21874.65
691.62	21518.89
691.76	21132.70
691.89	20950.14
692.03	20943.11
692.16	20814.38
692.30	20828.43
692.43	20959.50
692.57	20929.07
692.70	20463.30
692.84	20877.58
692.97	20327.55
693.11	20259.68
693.24	20353.30
693.38	20257.34
693.51	19871.15
693.65	20173.08
693.78	19871.15
693.92	20039.67
694.05	19812.63
694.19	19805.61
694.32	19480.28
694.45	19957.75
694.59	19822.00
694.72	19728.38
694.86	19473.26
694.99	19431.13
695.13	18892.80
695.26	19204.10
695.39	18993.45
695.53	19002.81
695.66	19243.88
695.80	18757.05
695.93	18604.92
696.07	18515.98
696.20	18207.03
696.33	18298.31
696.47	18171.92
696.60	17984.68
696.73	18244.48
696.87	17989.36
697.00	18080.64
697.14	18052.55
697.27	17738.92
697.40	17769.35
697.54	18075.96
697.67	17558.70
697.80	17619.55
697.94	17137.40
698.07	17310.60
698.21	17357.41
698.34	17202.94
698.47	17151.45
698.61	16769.94
698.74	16636.53
698.87	16882.28
699.01	16528.86
699.14	16325.24
699.27	16767.60
699.40	16280.77
699.54	16498.44
699.67	16350.98
699.80	16444.60
699.94	16264.38
700.07	16116.93
700.20	16042.03
700.34	15962.45
700.47	16231.62
700.60	16009.26
700.73	16189.49
700.87	15950.75
701.00	15660.52
701.13	15466.26
701.26	15293.06
701.40	15391.36
701.53	15536.48
701.66	15342.21
701.79	15173.69
701.93	14927.94
702.06	15028.58
702.19	14909.21
702.32	15211.14
702.46	15047.30
702.59	14780.48
702.72	14726.65
702.85	14785.16
702.99	14801.55
703.12	14483.24
703.25	14469.19
703.38	14075.98
703.51	14441.11
703.65	14183.65
703.78	14075.98
703.91	13951.93
704.04	13996.40
704.17	13970.66
704.31	13837.25
704.44	13919.17
704.57	13554.04
704.70	13603.19
704.83	13488.51
704.96	13565.74
705.10	13504.89
705.23	13462.76
>>>>>End Processed Spectral Data<<<<<
