SpectraSuite Data File
++++++++++++++++++++++++++++++++++++
Date: Fri Oct 25 11:33:40 EDT 2013
User: price-jones
Dark Spectrum Present: No
Reference Spectrum Present: No
Number of Sampled Component Spectra: 1
Spectrometers: USB2+H05261
Integration Time (usec): 100000 (USB2+H05261)
Spectra Averaged: 1 (USB2+H05261)
Boxcar Smoothing: 0 (USB2+H05261)
Correct for Electrical Dark: No (USB2+H05261)
Strobe/Lamp Enabled: No (USB2+H05261)
Correct for Detector Non-linearity: No (USB2+H05261)
Correct for Stray Light: No (USB2+H05261)
Number of Pixels in Processed Spectrum: 2048
>>>>>Begin Processed Spectral Data<<<<<
365.73	341.72
365.92	341.72
366.12	341.72
366.32	255.12
366.52	238.73
366.72	224.69
366.91	149.79
367.11	121.71
367.31	105.32
367.51	133.41
367.70	152.13
367.90	210.65
368.10	182.56
368.30	245.76
368.49	173.20
368.69	154.48
368.89	152.13
369.09	93.62
369.28	201.29
369.48	215.33
369.68	241.08
369.87	194.26
370.07	252.78
370.27	301.93
370.47	332.36
370.66	454.06
370.86	540.66
371.06	491.51
371.25	592.16
371.45	557.05
371.65	514.92
371.84	545.34
372.04	587.47
372.24	648.33
372.44	580.45
372.63	643.65
372.83	662.37
373.03	585.13
373.22	575.77
373.42	627.26
373.62	660.03
373.81	603.86
374.01	610.88
374.21	615.56
374.40	645.99
374.60	720.88
374.79	613.22
374.99	662.37
375.19	606.20
375.38	671.73
375.58	692.80
375.78	692.80
375.97	655.35
376.17	751.31
376.37	692.80
376.56	706.84
376.76	690.46
376.95	575.77
377.15	688.12
377.35	706.84
377.54	706.84
377.74	690.46
377.93	727.91
378.13	685.78
378.33	774.72
378.52	720.88
378.72	786.42
378.91	725.57
379.11	645.99
379.31	678.76
379.50	660.03
379.70	727.91
379.89	772.38
380.09	683.44
380.28	802.80
380.48	784.08
380.68	777.06
380.87	746.63
381.07	774.72
381.26	770.04
381.46	739.61
381.65	760.67
381.85	676.41
382.04	716.20
382.24	734.93
382.43	779.40
382.63	770.04
382.83	746.63
383.02	755.99
383.22	828.55
383.41	767.70
383.61	767.70
383.80	903.45
384.00	786.42
384.19	835.57
384.39	800.46
384.58	828.55
384.78	805.14
384.97	786.42
385.17	858.98
385.36	861.32
385.56	795.78
385.75	826.21
385.95	809.83
386.14	903.45
386.34	912.81
386.53	833.23
386.72	933.87
386.92	912.81
387.11	863.66
387.31	922.17
387.50	837.91
387.70	844.93
387.89	877.70
388.09	875.36
388.28	837.91
388.48	919.83
388.67	929.19
388.86	999.41
389.06	987.71
389.25	966.64
389.45	919.83
389.64	959.62
389.84	945.58
390.03	1036.86
390.22	999.41
390.42	933.87
390.61	964.30
390.81	1006.43
391.00	1055.58
391.19	992.39
391.39	1015.79
391.58	1006.43
391.78	1046.22
391.97	1048.56
392.16	1057.92
392.36	1139.84
392.55	1034.52
392.75	1060.26
392.94	1081.33
393.13	1041.54
393.33	1095.37
393.52	1034.52
393.71	1163.25
393.91	1027.50
394.10	1086.01
394.29	1067.28
394.49	1118.78
394.68	1116.44
394.88	1118.78
395.07	1221.76
395.26	1219.42
395.46	1076.65
395.65	1174.95
395.84	1095.37
396.04	1203.04
396.23	1125.80
396.42	1198.35
396.62	1259.21
396.81	1214.74
397.00	1247.51
397.19	1167.93
397.39	1299.00
397.58	1296.66
397.77	1270.91
397.97	1235.80
398.16	1289.64
398.35	1306.02
398.55	1280.27
398.74	1331.76
398.93	1352.83
399.12	1313.04
399.32	1343.47
399.51	1376.24
399.70	1301.34
399.90	1322.40
400.09	1404.32
400.28	1460.49
400.47	1359.85
400.67	1404.32
400.86	1397.30
401.05	1493.26
401.24	1413.68
401.44	1460.49
401.63	1401.98
401.82	1425.39
402.01	1455.81
402.21	1411.34
402.40	1544.75
402.59	1476.88
402.78	1488.58
402.97	1584.54
403.17	1556.46
403.36	1626.67
403.55	1603.27
403.74	1657.10
403.93	1537.73
404.13	1591.56
404.32	1645.40
404.51	1673.48
404.70	1661.78
404.89	1526.03
405.09	1570.50
405.28	1631.35
405.47	1689.87
405.66	1647.74
405.85	1799.87
406.05	1626.67
406.24	1694.55
406.43	1734.34
406.62	1799.87
406.81	1834.98
407.00	1727.32
407.20	1795.19
407.39	1743.70
407.58	1837.32
407.77	1809.23
407.96	1874.77
408.15	1872.43
408.34	1902.86
408.54	1781.15
408.73	1935.62
408.92	1872.43
409.11	1989.46
409.30	1937.96
409.49	2115.84
409.68	2040.95
409.87	1914.56
410.07	2047.97
410.26	2017.54
410.45	2099.46
410.64	2129.89
410.83	2085.42
411.02	2062.01
411.21	2218.83
411.40	2181.38
411.59	2221.17
411.78	2190.74
411.98	2183.72
412.17	2218.83
412.36	2282.02
412.55	2319.47
412.74	2459.90
412.93	2389.69
413.12	2284.36
413.31	2377.98
413.50	2413.09
413.69	2473.95
413.88	2473.95
414.07	2558.21
414.26	2560.55
414.45	2487.99
414.64	2544.16
414.83	2642.46
415.02	2677.57
415.22	2764.17
415.41	2651.83
415.60	2600.34
415.79	2722.04
415.98	2813.32
416.17	2752.47
416.36	2733.75
416.55	2747.79
416.74	2703.32
416.93	2867.16
417.12	2757.15
417.31	2860.13
417.50	2902.26
417.69	2995.89
417.88	2892.90
418.07	2981.84
418.26	2932.69
418.45	2878.86
418.64	3045.04
418.83	3080.14
419.02	3047.38
419.21	3117.59
419.39	3148.02
419.58	3157.38
419.77	3126.96
419.96	3208.87
420.15	3159.72
420.34	3178.45
420.53	3094.19
420.72	3227.60
420.91	3314.20
421.10	3295.47
421.29	3265.05
421.48	3166.74
421.67	3323.56
421.86	3276.75
422.05	3435.91
422.24	3389.10
422.43	3382.07
422.61	3389.10
422.80	3442.93
422.99	3368.03
423.18	3473.36
423.37	3632.51
423.56	3421.86
423.75	3389.10
423.94	3431.23
424.13	3178.45
424.32	3353.99
424.50	3421.86
424.69	3517.83
424.88	3541.23
425.07	3473.36
425.26	3414.84
425.45	3487.40
425.64	3379.73
425.83	3391.44
426.01	3531.87
426.20	3421.86
426.39	3421.86
426.58	3414.84
426.77	3550.59
426.96	3524.85
427.15	3588.04
427.33	3571.66
427.52	3492.08
427.71	3616.13
427.90	3602.08
428.09	3606.77
428.28	3707.41
428.46	3686.34
428.65	3667.62
428.84	3651.24
429.03	3901.67
429.22	3529.53
429.40	3688.68
429.59	3896.99
429.78	3826.78
429.97	3602.08
430.16	3763.58
430.34	3810.39
430.53	3962.53
430.72	3885.29
430.91	3873.59
431.10	3887.63
431.28	4016.36
431.47	3882.95
431.66	4007.00
431.85	3967.21
432.03	4037.42
432.22	4021.04
432.41	4049.13
432.60	4161.47
432.79	4081.89
432.97	4063.17
433.16	4098.28
433.35	4154.45
433.54	4060.83
433.72	4285.52
433.91	4035.08
434.10	4100.62
434.28	4170.83
434.47	4210.62
434.66	4231.69
434.85	4217.65
435.03	4294.88
435.22	4264.46
435.41	4278.50
435.59	4416.59
435.78	4388.50
435.97	4304.25
436.16	4458.72
436.34	4346.37
436.53	4482.13
436.72	4676.39
436.90	4458.72
437.09	4603.83
437.28	4484.47
437.46	4552.34
437.65	4547.66
437.84	4650.64
438.02	4671.71
438.21	4678.73
438.40	4620.22
438.58	4755.97
438.77	4828.53
438.96	4669.37
439.14	4952.57
439.33	4788.74
439.52	4957.25
439.70	4938.53
439.89	4945.55
440.08	5034.49
440.26	5020.45
440.45	4990.02
440.63	5069.60
440.82	5207.69
441.01	5102.37
441.19	5135.14
441.38	5181.95
441.57	5198.33
441.75	5406.64
441.94	5596.22
442.12	5537.71
442.31	5479.19
442.50	5378.55
442.68	5479.19
442.87	5425.36
443.05	5502.60
443.24	5659.42
443.43	5427.70
443.61	5610.26
443.80	5750.70
443.98	5600.90
444.17	5336.42
444.35	5673.46
444.54	5755.38
444.73	5603.24
444.91	5610.26
445.10	5734.31
445.28	5624.31
445.47	5738.99
445.65	5511.96
445.84	5607.92
446.02	5757.72
446.21	5858.36
446.39	5626.65
446.58	5792.83
446.77	5783.46
446.95	5528.35
447.14	5724.95
447.32	5708.57
447.51	5638.35
447.69	5802.19
447.88	5731.97
448.06	5781.12
448.25	5933.26
448.43	5741.33
448.62	5998.79
448.80	5942.62
448.99	5968.37
449.17	5923.90
449.36	5809.21
449.54	6001.13
449.73	6160.29
449.91	6136.88
450.10	6225.82
450.28	6186.04
450.46	6197.74
450.65	5994.11
450.83	6022.20
451.02	6045.60
451.20	6230.51
451.39	6115.82
451.57	6207.10
451.76	5968.37
451.94	6195.40
452.13	6303.06
452.31	6303.06
452.49	6146.25
452.68	6239.87
452.86	6389.66
453.05	6352.21
453.23	6434.13
453.42	6298.38
453.60	6253.91
453.78	6387.32
453.97	6279.66
454.15	6289.02
454.34	6305.40
454.52	6539.46
454.70	6576.91
454.89	6525.41
455.07	6572.22
455.26	6602.65
455.44	6679.89
455.62	6633.08
455.81	6794.58
455.99	6768.83
456.17	6923.30
456.36	6693.93
456.54	6967.77
456.73	6867.13
456.91	6916.28
457.09	7002.88
457.28	7157.36
457.46	6920.96
457.64	7063.74
457.83	6904.58
458.01	6927.99
458.19	7302.47
458.38	7185.44
458.56	7124.59
458.74	7105.87
458.93	7218.21
459.11	7250.98
459.29	7372.69
459.48	7325.88
459.66	7363.33
459.84	7314.17
460.03	7410.14
460.21	7475.67
460.39	7389.07
460.57	7431.20
460.76	7487.37
460.94	7569.29
461.12	7468.65
461.31	7503.76
461.49	7571.63
461.67	7571.63
461.85	7686.32
462.04	7662.91
462.22	7871.22
462.40	7866.54
462.59	7735.47
462.77	7721.43
462.95	7850.16
463.13	7709.72
463.32	7691.00
463.50	7868.88
463.68	7889.95
463.86	7974.21
464.05	7632.49
464.23	7920.37
464.41	7871.22
464.59	7805.69
464.78	8042.08
464.96	8044.42
465.14	8161.45
465.32	8112.30
465.50	8292.52
465.69	8006.97
465.87	8116.98
466.05	8217.62
466.23	8189.53
466.41	7988.25
466.60	8243.37
466.78	8126.34
466.96	8126.34
467.14	8210.60
467.32	8093.57
467.51	8336.99
467.69	8226.98
467.87	8360.39
468.05	8416.57
468.23	8454.02
468.41	8376.78
468.60	8538.27
468.78	8470.40
468.96	8498.49
469.14	8622.53
469.32	8587.43
469.50	8477.42
469.69	8685.73
469.87	8685.73
470.05	8774.67
470.23	8781.69
470.41	8910.42
470.59	8840.20
470.77	8940.85
470.95	8872.97
471.14	9125.75
471.32	8746.58
471.50	9029.79
471.68	9109.36
471.86	9069.58
472.04	9193.62
472.22	9219.37
472.40	9116.39
472.58	9132.77
472.77	9135.11
472.95	9404.27
473.13	9937.91
473.31	9408.95
473.49	9291.93
473.67	9605.56
473.85	9544.70
474.03	9652.37
474.21	9799.82
474.39	9940.26
474.57	9767.06
474.75	9930.89
474.93	10139.20
475.12	9881.74
475.30	9956.64
475.48	9956.64
475.66	10181.33
475.84	10050.26
476.02	10122.82
476.20	10174.31
476.38	10286.65
476.56	10501.98
476.74	10668.16
476.92	10506.66
477.10	10562.84
477.28	10775.83
477.46	10736.04
477.64	10747.74
477.82	10974.77
478.00	11204.14
478.18	11176.06
478.36	11232.23
478.54	11309.47
478.72	11646.51
478.90	11597.35
479.08	11800.98
479.26	11939.07
479.44	11651.19
479.62	11789.28
479.80	11791.62
479.98	12037.38
480.16	12442.29
480.34	12138.02
480.52	12353.35
480.70	12215.26
480.88	12112.27
481.06	12315.90
481.24	12348.67
481.41	12624.85
481.59	12517.18
481.77	12908.05
481.95	12959.55
482.13	13153.81
482.31	12947.84
482.49	13219.35
482.67	13607.87
482.85	13444.04
483.03	13486.17
483.21	13542.34
483.39	13673.41
483.57	13811.50
483.74	13678.09
483.92	14176.62
484.10	13748.31
484.28	14228.12
484.46	14511.32
484.64	14684.52
484.82	14384.93
485.00	14595.58
485.18	14981.77
485.35	15140.93
485.53	14857.72
485.71	15026.24
485.89	15372.64
486.07	15309.44
486.25	15370.30
486.43	15590.31
486.61	15721.38
486.78	15908.62
486.96	15908.62
487.14	16210.55
487.32	16262.04
487.50	16369.71
487.68	16765.26
487.85	16479.71
488.03	16732.49
488.21	16886.97
488.39	16910.37
488.57	17228.68
488.75	17451.03
488.92	17322.30
489.10	17439.33
489.28	17727.22
489.46	17905.10
489.64	17851.27
489.81	17975.31
489.99	18071.28
490.17	18010.42
490.35	18214.05
490.53	18766.42
490.70	18888.12
490.88	18548.75
491.06	19115.16
491.24	18864.72
491.41	18888.12
491.59	18895.14
491.77	19250.91
491.95	19585.60
492.13	19555.18
492.30	19854.76
492.48	19695.61
492.66	19735.40
492.84	20088.82
493.01	20032.65
493.19	20126.27
493.37	20259.68
493.54	20301.81
493.72	20524.16
493.90	20510.11
494.08	20840.13
494.25	20872.90
494.43	20709.06
494.61	21296.53
494.79	21399.52
494.96	21254.40
495.14	21645.27
495.32	21717.83
495.49	21668.68
495.67	21659.32
495.85	22097.00
496.02	21998.70
496.20	22321.69
496.38	22464.46
496.55	22459.78
496.73	22780.43
496.91	22452.76
497.09	22689.15
497.26	22768.73
497.44	22771.07
497.62	23351.52
497.79	23192.37
497.97	23234.50
498.14	23637.07
498.32	23765.80
498.50	23758.78
498.67	23983.47
498.85	23861.76
499.03	23864.10
499.20	24215.18
499.38	24290.08
499.56	24512.43
499.73	24570.94
499.91	24636.48
500.08	24954.79
500.26	24563.92
500.44	24950.11
500.61	24868.19
500.79	24978.20
500.97	25001.60
501.14	25708.44
501.32	25619.50
501.49	25238.00
501.67	25364.39
501.84	26059.52
502.02	25628.87
502.20	25570.35
502.37	25645.25
502.55	25764.62
502.72	26120.38
502.90	25940.16
503.07	26075.91
503.25	26164.85
503.43	26164.85
503.60	26293.58
503.78	26462.10
503.95	26773.39
504.13	26937.23
504.30	27126.81
504.48	26698.49
504.65	26867.01
504.83	27110.43
505.01	27054.25
505.18	27377.25
505.36	27513.00
505.53	27264.90
505.71	27297.67
505.88	27585.55
506.06	27475.55
506.23	27562.15
506.41	27466.19
506.58	28231.54
506.76	27967.06
506.93	27824.29
507.11	27929.61
507.28	28151.96
507.46	28217.50
507.63	28507.72
507.81	28362.61
507.98	28292.40
508.16	28556.88
508.33	28943.06
508.50	28821.36
508.68	28556.88
508.85	29120.95
509.03	29050.73
509.20	28914.98
509.38	29509.47
509.55	29521.18
509.73	29582.03
509.90	29830.13
510.08	29252.02
510.25	29544.58
510.42	29563.31
510.60	30029.07
510.77	29979.92
510.95	30485.48
511.12	30316.96
511.30	29764.59
511.47	30195.25
511.64	30122.69
511.82	30726.55
511.99	30244.40
512.17	30384.83
512.34	30455.05
512.51	30841.24
512.69	30946.56
512.86	30939.54
513.04	30834.22
513.21	30909.11
513.38	31000.40
513.56	31311.69
513.73	31365.52
513.90	31255.51
514.08	31229.77
514.25	31735.32
514.43	31679.15
514.60	31669.79
514.77	31484.89
514.95	31835.97
515.12	31501.27
515.29	31658.09
515.47	32100.45
515.64	32201.09
515.81	31934.27
515.99	32491.32
516.16	32559.19
516.33	32442.17
516.51	32704.31
516.68	32311.10
516.85	32575.58
517.03	32687.92
517.20	32533.45
517.37	32643.45
517.54	32954.74
517.72	32884.53
517.89	32701.96
518.06	32907.93
518.24	32610.68
518.41	32884.53
518.58	33663.93
518.75	32730.05
518.93	33429.87
519.10	33167.73
519.27	33455.62
519.45	33413.49
519.62	33645.20
519.79	33930.75
519.96	33986.92
520.14	33991.60
520.31	33603.07
520.48	33977.56
520.65	34279.49
520.83	34043.09
521.00	34391.83
521.17	34431.62
521.34	34485.45
521.52	34663.33
521.69	34314.59
521.86	34773.34
522.03	34721.85
522.20	34969.94
522.38	35138.46
522.55	35079.95
522.72	35232.08
522.89	35065.91
523.07	35428.69
523.24	35236.77
523.41	35447.41
523.58	35150.17
523.75	35606.57
523.92	35784.45
524.10	35690.83
524.27	35641.68
524.44	35316.34
524.61	35328.05
524.78	35742.32
524.96	36140.21
525.13	36355.54
525.30	36404.69
525.47	36662.15
525.64	35985.74
525.81	36687.90
525.98	36474.91
526.16	36418.74
526.33	36156.60
526.50	36430.44
526.67	36133.19
526.84	37057.70
527.01	36823.65
527.18	36865.78
527.36	37020.25
527.53	36620.02
527.70	37361.97
527.87	36971.10
528.04	37205.16
528.21	37495.38
528.38	36807.26
528.55	37130.26
528.72	37467.30
528.89	37160.69
529.07	37240.26
529.24	37172.39
529.41	38045.41
529.58	37109.19
529.75	37570.28
529.92	37787.95
530.09	37865.19
530.26	37694.33
530.43	37635.81
530.60	37453.25
530.77	37186.43
530.94	37965.83
531.11	37816.04
531.28	37820.72
531.46	38354.36
531.63	38483.09
531.80	38153.07
531.97	38389.47
532.14	38244.35
532.31	38508.83
532.48	38253.72
532.65	38562.67
532.82	38405.85
532.99	39009.71
533.16	38735.87
533.33	38871.62
533.50	39346.75
533.67	38536.92
533.84	38684.37
534.01	38770.97
534.18	38574.37
534.35	39133.76
534.52	39262.49
534.69	39208.65
534.86	39194.61
535.03	39124.40
535.20	39061.20
535.37	39409.94
535.54	39758.68
535.71	39627.61
535.88	39779.74
536.05	39744.64
536.22	40053.59
536.38	39784.43
536.55	39690.80
536.72	39683.78
536.89	39606.55
537.06	39894.43
537.23	40287.64
537.40	39302.28
537.57	39838.26
537.74	40343.81
537.91	40048.91
538.08	40334.45
538.25	39777.40
538.42	39915.50
538.59	40257.21
538.75	40425.73
538.92	40318.07
539.09	40746.39
539.26	40680.85
539.43	40357.86
539.60	40821.28
539.77	40669.15
539.94	40903.20
540.11	40718.30
540.28	40732.34
540.44	40531.06
540.61	40893.84
540.78	40760.43
540.95	41104.49
541.12	40884.48
541.29	40437.44
541.46	40739.36
541.62	41111.51
541.79	41584.30
541.96	41008.53
542.13	40802.56
542.30	41240.24
542.47	41315.14
542.63	41443.87
542.80	41542.17
542.97	42120.28
543.14	42029.00
543.31	41975.17
543.48	42150.71
543.64	42518.17
543.81	41790.27
543.98	42258.37
544.15	42347.31
544.32	42054.75
544.48	42253.69
544.65	42569.66
544.82	42199.86
544.99	42143.69
545.16	42146.03
545.32	42473.70
545.49	42670.31
545.66	42735.84
545.83	43185.22
546.00	42827.12
546.16	42986.28
546.33	42822.44
546.50	42153.05
546.67	43203.95
546.83	42188.16
547.00	42667.97
547.17	42529.87
547.34	42763.93
547.50	43215.65
547.67	43592.48
547.84	43061.18
548.00	43126.71
548.17	43288.21
548.34	43461.41
548.51	43122.03
548.67	43005.00
548.84	43189.91
549.01	42799.04
549.18	43159.48
549.34	42962.87
549.51	43271.82
549.68	43590.14
549.84	43643.97
550.01	43611.20
550.18	43384.17
550.34	43697.80
550.51	43791.42
550.68	43695.46
550.84	43297.57
551.01	44168.25
551.18	43557.37
551.34	43658.01
551.51	43906.11
551.68	44004.41
551.84	43793.76
552.01	43833.55
552.18	43983.35
552.34	43768.02
552.51	44219.74
552.68	43943.56
552.84	43828.87
553.01	44715.93
553.18	44388.26
553.34	44737.00
553.51	43585.46
553.67	43922.49
553.84	44346.13
554.01	44498.26
554.17	44308.68
554.34	44301.66
554.51	44388.26
554.67	45052.97
554.84	44355.49
555.00	44573.16
555.17	44229.10
555.33	44598.91
555.50	44617.63
555.67	44584.86
555.83	44893.82
556.00	44959.35
556.16	45492.99
556.33	44760.40
556.50	45059.99
556.66	45148.93
556.83	44809.56
556.99	45132.55
557.16	45013.18
557.32	45202.77
557.49	45261.28
557.65	45462.57
557.82	45167.66
557.98	44966.37
558.15	45099.78
558.32	45221.49
558.48	45036.59
558.65	45146.59
558.81	45588.95
558.98	45099.78
559.14	45319.79
559.31	44992.12
559.47	45137.23
559.64	45743.43
559.80	45834.71
559.97	45853.44
560.13	45542.14
560.30	45312.77
560.46	45918.97
560.63	45766.84
560.79	45654.49
560.96	46162.39
561.12	45855.78
561.29	45776.20
561.45	45717.68
561.61	45635.77
561.78	45593.64
561.94	45579.59
562.11	45773.86
562.27	45654.49
562.44	45193.40
562.60	46270.05
562.77	46045.36
562.93	45698.96
563.10	46000.89
563.26	45858.12
563.42	46536.87
563.59	46082.81
563.75	46162.39
563.92	45848.75
564.08	45731.73
564.24	46424.53
564.41	45399.37
564.57	46230.26
564.74	45897.91
564.90	46134.30
565.07	46146.00
565.23	46300.48
565.39	46138.98
565.56	46349.63
565.72	46014.93
565.88	46052.38
566.05	46206.86
566.21	46366.01
566.38	46117.92
566.54	46272.39
566.70	46059.40
566.87	46227.92
567.03	46382.40
567.19	46763.90
567.36	46525.17
567.52	46024.29
567.68	46686.67
567.85	46756.88
568.01	46567.30
568.17	46461.97
568.34	46394.10
568.50	46677.30
568.66	46216.22
568.83	46094.51
568.99	46887.95
569.15	46146.00
569.32	46309.84
569.48	46644.54
569.64	46588.36
569.81	47014.34
569.97	46550.91
570.13	46803.69
570.30	46195.15
570.46	46894.97
570.62	46696.03
570.78	46756.88
570.95	46478.36
571.11	46923.06
571.27	46422.19
571.43	46539.21
571.60	46497.08
571.76	46653.90
571.92	46733.48
572.09	46567.30
572.25	46476.02
572.41	46520.49
572.57	46766.24
572.74	47026.04
572.90	46583.68
573.06	46976.89
573.22	46866.89
573.38	47021.36
573.55	47021.36
573.71	47229.67
573.87	46763.90
574.03	47192.22
574.20	46988.60
574.36	46752.20
574.52	47318.61
574.68	46927.74
574.84	47288.18
575.01	47028.38
575.17	46939.44
575.33	46995.62
575.49	46813.05
575.65	47000.30
575.82	47423.93
575.98	46852.84
576.14	46887.95
576.30	47150.09
576.46	47426.28
576.62	47086.90
576.79	47023.70
576.95	46476.02
577.11	46841.14
577.27	47494.15
577.43	47035.41
577.59	47290.52
577.75	46429.21
577.92	46909.02
578.08	46878.59
578.24	47056.47
578.40	47201.58
578.56	47379.46
578.72	47510.53
578.88	47210.95
579.04	47222.65
579.21	46876.25
579.37	47508.19
579.53	47049.45
579.69	46892.63
579.85	46920.72
580.01	46993.28
580.17	47044.77
580.33	47175.84
580.49	47416.91
580.65	47428.62
580.82	46913.70
580.98	47423.93
581.14	47349.04
581.30	47189.88
581.46	47023.70
581.62	47086.90
581.78	47063.49
581.94	47124.35
582.10	47002.64
582.26	47447.34
582.42	47117.32
582.58	47400.53
582.74	47194.56
582.90	47318.61
583.06	47550.32
583.22	47353.72
583.38	47358.40
583.54	47496.49
583.70	47384.15
583.86	47276.48
584.02	47356.06
584.18	47842.89
584.34	47234.35
584.50	47648.63
584.66	47278.82
584.82	47456.70
584.98	47519.90
585.14	47613.52
585.30	46679.64
585.46	47498.83
585.62	46911.36
585.78	47585.43
585.94	46768.58
586.10	47318.61
586.26	47316.27
586.42	47248.39
586.58	47648.63
586.74	47332.65
586.90	47063.49
587.06	47367.76
587.22	47529.26
587.38	47419.25
587.54	47583.09
587.70	47674.37
587.86	47337.33
588.02	47372.44
588.18	47636.92
588.34	47835.87
588.49	47859.27
588.65	47615.86
588.81	47445.00
588.97	47442.66
589.13	47777.36
589.29	47702.46
589.45	47892.04
589.61	47728.20
589.77	48027.79
589.93	47749.27
590.08	47899.06
590.24	47971.62
590.40	47870.98
590.56	47948.21
590.72	47903.74
590.88	47693.10
591.04	47838.21
591.20	48011.41
591.35	47885.02
591.51	48238.44
591.67	47826.51
591.83	47934.17
591.99	47880.34
592.15	47767.99
592.31	47580.75
592.46	47957.58
592.62	47999.71
592.78	47627.56
592.94	48107.37
593.10	48128.44
593.26	48137.80
593.41	48264.19
593.57	47903.74
593.73	47826.51
593.89	48105.03
594.05	48020.77
594.20	48006.73
594.36	47997.37
594.52	47934.17
594.68	48170.57
594.84	47980.98
594.99	48318.02
595.15	47964.60
595.31	48421.00
595.47	48109.71
595.62	48453.77
595.78	48009.07
595.94	48423.34
596.10	48191.63
596.25	48399.94
596.41	48362.49
596.57	48163.54
596.73	48275.89
596.88	48060.56
597.04	48516.96
597.20	48189.29
597.36	48353.13
597.51	48076.94
597.67	48233.76
597.83	48320.36
597.99	48334.40
598.14	47910.77
598.30	48112.05
598.46	47964.60
598.61	48736.98
598.77	48257.17
598.93	48411.64
599.09	48559.09
599.24	48563.78
599.40	48381.21
599.56	48371.85
599.71	48662.08
599.87	48699.53
600.03	48423.34
600.18	48189.29
600.34	48210.35
600.50	48413.98
600.65	48264.19
600.81	48753.36
600.97	48683.14
601.12	48493.56
601.28	48247.80
601.44	48493.56
601.59	48200.99
601.75	48442.07
601.91	48399.94
602.06	48055.88
602.22	48849.32
602.37	48336.74
602.53	48346.11
602.69	48502.92
602.84	48334.40
603.00	48732.29
603.16	48538.03
603.31	48257.17
603.47	48301.64
603.62	48332.06
603.78	48364.83
603.94	48552.07
604.09	48488.88
604.25	48371.85
604.40	48154.18
604.56	48512.28
604.71	48741.66
604.87	48247.80
605.03	48271.21
605.18	48193.97
605.34	48355.47
605.49	48051.20
605.65	48582.50
605.80	47978.64
605.96	48320.36
606.12	48149.50
606.27	48554.41
606.43	48119.07
606.58	48163.54
606.74	48341.42
606.89	48257.17
607.05	48343.77
607.20	48413.98
607.36	47861.61
607.51	48458.45
607.67	48177.59
607.82	47810.12
607.98	48289.93
608.13	48142.48
608.29	48399.94
608.44	48257.17
608.60	47936.51
608.75	47906.08
608.91	48163.54
609.06	48030.13
609.22	48406.96
609.37	48334.40
609.53	47959.92
609.68	48306.32
609.84	48198.65
609.99	48149.50
610.15	47592.45
610.30	48219.72
610.46	47966.94
610.61	47999.71
610.76	48371.85
610.92	47817.14
611.07	47758.63
611.23	47665.01
611.38	47875.66
611.54	47863.96
611.69	47833.53
611.84	48048.86
612.00	47966.94
612.15	47791.40
612.31	47672.03
612.46	47358.40
612.62	47765.65
612.77	47672.03
612.92	48343.77
613.08	47800.76
613.23	47643.94
613.39	47632.24
613.54	47641.60
613.69	47744.59
613.85	47538.62
614.00	47562.03
614.15	47608.84
614.31	47856.93
614.46	47772.67
614.62	47550.32
614.77	47531.60
614.92	47861.61
615.08	47611.18
615.23	48020.77
615.38	47650.97
615.54	47105.62
615.69	47454.36
615.84	47756.29
616.00	47552.66
616.15	47627.56
616.30	47405.21
616.46	47384.15
616.61	47292.86
616.76	47473.09
616.92	47519.90
617.07	47407.55
617.22	47304.57
617.37	46794.33
617.53	47608.84
617.68	47309.25
617.83	47400.53
617.99	47248.39
618.14	47531.60
618.29	47044.77
618.45	46855.18
618.60	47253.08
618.75	47065.83
618.90	46806.03
619.06	47138.39
619.21	46714.75
619.36	47608.84
619.51	46749.86
619.67	46932.42
619.82	47129.03
619.97	47173.50
620.12	47199.24
620.28	47131.37
620.43	47072.85
620.58	47000.30
620.73	47234.35
620.89	47044.77
621.04	46829.44
621.19	46756.88
621.34	46518.15
621.49	46611.77
621.65	46803.69
621.80	46880.93
621.95	46752.20
622.10	46894.97
622.25	46918.38
622.41	46941.78
622.56	46810.71
622.71	47110.30
622.86	46642.20
623.01	46796.67
623.16	46108.55
623.32	47063.49
623.47	46632.83
623.62	46515.81
623.77	46658.58
623.92	46480.70
624.07	46225.58
624.23	46569.64
624.38	46728.80
624.53	46464.32
624.68	46347.29
624.83	45986.85
624.98	46417.50
625.13	46169.41
625.29	46164.73
625.44	46335.59
625.59	46190.47
625.74	46267.71
625.89	45972.80
626.04	45935.35
626.19	46293.46
626.34	45687.26
626.49	45881.52
626.65	45514.06
626.80	46064.08
626.95	45673.21
627.10	45605.34
627.25	45844.07
627.40	46335.59
627.55	46089.83
627.70	45933.01
627.85	45993.87
628.00	46351.97
628.15	46099.19
628.30	45354.90
628.45	45574.91
628.60	45165.32
628.76	45481.29
628.91	45696.62
629.06	45116.17
629.21	44935.95
629.36	45399.37
629.51	45535.12
629.66	45851.09
629.81	45436.82
629.96	45865.14
630.11	45708.32
630.26	45308.09
630.41	45577.25
630.56	45778.54
630.71	45090.42
630.86	45263.62
631.01	44835.30
631.16	45134.89
631.31	45038.93
631.46	45240.21
631.61	45301.07
631.76	45401.71
631.91	45090.42
632.06	45544.48
632.21	45794.92
632.36	45614.70
632.51	44552.10
632.66	45312.77
632.81	45001.48
632.96	45125.53
633.10	44891.48
633.25	44954.67
633.40	44844.66
633.55	45387.67
633.70	45298.73
633.85	45092.76
634.00	44311.02
634.15	44329.75
634.30	44854.03
634.45	44444.43
634.60	44926.58
634.75	44781.47
634.90	45102.12
635.05	44926.58
635.19	44655.08
635.34	44531.03
635.49	44851.69
635.64	44285.28
635.79	44989.78
635.94	44617.63
636.09	44921.90
636.24	44708.91
636.39	44495.92
636.53	44435.07
636.68	44247.83
636.83	44156.55
636.98	44053.56
637.13	44142.50
637.28	44289.96
637.43	44198.68
637.57	44266.55
637.72	43611.20
637.87	44156.55
638.02	44271.23
638.17	44488.90
638.32	44030.16
638.46	43997.39
638.61	43798.44
638.76	44329.75
638.91	44266.55
639.06	44037.18
639.20	43442.68
639.35	44346.13
639.50	43737.59
639.65	43828.87
639.80	43786.74
639.94	44182.29
640.09	44289.96
640.24	43847.60
640.39	43615.88
640.54	43419.28
640.68	43505.88
640.83	43971.64
640.98	43871.00
641.13	43789.08
641.27	44051.22
641.42	43842.92
641.57	43456.73
641.72	43885.04
641.86	43854.62
642.01	43178.20
642.16	43498.86
642.31	43122.03
642.45	43517.58
642.60	42988.62
642.75	43714.19
642.90	43548.01
643.04	43320.98
643.19	43487.15
643.34	43246.08
643.48	42981.60
643.63	42986.28
643.78	43302.25
643.93	43576.09
644.07	43339.70
644.22	43264.80
644.37	43201.61
644.51	43299.91
644.66	43260.12
644.81	43075.22
644.95	43278.85
645.10	42979.26
645.25	42789.67
645.39	42609.45
645.54	43199.27
645.69	42426.89
645.83	42979.26
645.98	42864.57
646.13	43021.39
646.27	42803.72
646.42	42665.63
646.57	42438.59
646.71	42941.81
646.86	43372.47
647.00	43079.90
647.15	42965.21
647.30	42777.97
647.44	42780.31
647.59	42536.90
647.74	42412.85
647.88	42745.20
648.03	43203.95
648.17	43175.86
648.32	42672.65
648.47	43047.13
648.61	42429.23
648.76	42363.70
648.90	42492.43
649.05	42174.11
649.20	42581.37
649.34	42700.73
649.49	42380.08
649.63	42597.75
649.78	42202.20
649.92	42513.49
650.07	42497.11
650.21	42508.81
650.36	42665.63
650.51	42377.74
650.65	42396.46
650.80	42099.22
650.94	42092.19
651.09	42253.69
651.23	41954.10
651.38	41904.95
651.52	41366.63
651.67	42059.43
651.81	42052.41
651.96	41837.08
652.10	41972.83
652.25	41680.26
652.39	41656.85
652.54	41766.86
652.68	41799.63
652.83	41972.83
652.97	41773.88
653.12	41364.29
653.26	41951.76
653.41	41493.02
653.55	41790.27
653.70	42043.04
653.84	41612.38
653.99	41928.36
654.13	41565.57
654.27	41357.27
654.42	41668.56
654.56	41326.84
654.71	41942.40
654.85	41764.52
655.00	41825.37
655.14	41708.35
655.29	41509.40
655.43	41523.44
655.57	40994.48
655.72	41160.66
655.86	41092.79
656.01	40821.28
656.15	40879.80
656.30	41205.13
656.44	41579.62
656.58	41727.07
656.73	41462.59
656.87	41008.53
657.01	40680.85
657.16	41443.87
657.30	40793.20
657.45	40842.35
657.59	40818.94
657.73	40259.55
657.88	41064.70
658.02	40952.35
658.16	40643.40
658.31	40781.49
658.45	40783.83
658.60	40364.88
658.74	40844.69
658.88	40762.77
659.03	40308.71
659.17	40395.31
659.31	40601.27
659.46	40458.50
659.60	40664.47
659.74	40151.89
659.89	39864.00
660.03	40360.20
660.17	40470.20
660.32	40208.06
660.46	40205.72
660.60	40222.11
660.74	40025.50
660.89	40278.28
661.03	39552.71
661.17	39997.41
661.32	40135.51
661.46	39622.93
661.60	39669.74
661.74	39559.73
661.89	39936.56
662.03	39952.94
662.17	39374.83
662.31	39108.01
662.46	39796.13
662.60	39391.22
662.74	39086.95
662.88	39494.20
663.03	38871.62
663.17	39309.30
663.31	38941.83
663.45	38829.49
663.60	39210.99
663.74	39021.41
663.88	39037.80
664.02	38799.06
664.17	39143.12
664.31	38892.68
664.45	38469.04
664.59	38543.94
664.73	39023.75
664.88	38679.69
665.02	38199.88
665.16	38534.58
665.30	38347.34
665.44	37825.40
665.59	38447.98
665.73	38754.59
665.87	37970.51
666.01	37972.85
666.15	38096.90
666.29	37914.34
666.44	38181.16
666.58	37787.95
666.72	37752.84
666.86	37914.34
667.00	37593.68
667.14	37254.31
667.28	37516.45
667.43	37347.93
667.57	38057.11
667.71	38012.64
667.85	37729.44
667.99	37275.37
668.13	37258.99
668.27	37074.09
668.41	36708.96
668.56	37141.96
668.70	36753.43
668.84	36521.72
668.98	36540.44
669.12	36751.09
669.26	36690.24
669.40	37151.32
669.54	36870.46
669.68	36545.12
669.82	36297.03
669.96	36488.95
670.10	36013.82
670.25	36224.47
670.39	36423.42
670.53	36304.05
670.67	35651.04
670.81	36229.15
670.95	36416.40
671.09	35950.63
671.23	36385.97
671.37	35407.62
671.51	35538.69
671.65	36350.86
671.79	35800.83
671.93	35629.98
672.07	35435.71
672.21	35501.25
672.35	35192.30
672.49	35358.47
672.63	35714.23
672.77	34862.28
672.91	35550.40
673.05	35391.24
673.19	34911.43
673.33	34852.92
673.47	34890.37
673.61	34532.26
673.75	34780.36
673.89	34473.75
674.03	34256.08
674.17	34314.59
674.31	34410.56
674.45	34061.82
674.59	34398.85
674.73	34197.57
674.87	33806.70
675.01	33642.86
675.15	33469.66
675.29	33317.53
675.43	33394.76
675.56	33902.66
675.70	33268.37
675.84	33652.22
675.98	32175.34
676.12	33284.76
676.26	33558.60
676.40	32950.06
676.54	32734.73
676.68	33031.98
676.82	32503.02
676.96	32589.62
677.10	32964.10
677.23	32617.71
677.37	32439.82
677.51	32460.89
677.65	32266.63
677.79	32348.54
677.93	32023.21
678.07	31817.24
678.21	31597.23
678.34	31660.43
678.48	31409.99
678.62	31548.08
678.76	31299.98
678.90	30946.56
679.04	31779.79
679.18	31367.86
679.31	31028.48
679.45	30927.84
679.59	31049.55
679.73	30733.57
679.87	30684.42
680.00	30213.98
680.14	30607.19
680.28	30515.90
680.42	30511.22
680.56	30181.21
680.70	30094.61
680.83	29699.06
680.97	29890.98
681.11	29689.70
681.25	29619.48
681.39	29156.05
681.52	29469.69
681.66	29109.24
681.80	28683.27
681.94	28809.65
682.07	28858.81
682.21	28589.64
682.35	28968.81
682.49	28851.78
682.62	28816.68
682.76	28856.46
682.90	28952.43
683.04	28470.28
683.17	28381.34
683.31	28231.54
683.45	28360.27
683.59	27915.57
683.72	27721.30
683.86	27599.60
684.00	27662.79
684.13	27723.65
684.27	27274.26
684.41	27276.60
684.55	27428.74
684.68	27255.54
684.82	26909.14
684.96	27393.63
685.09	27201.71
685.23	27016.80
685.37	27445.12
685.50	26913.82
685.64	26747.64
685.78	26749.98
685.91	26075.91
686.05	26221.02
686.19	25972.92
686.32	26089.95
686.46	25572.69
686.60	25682.70
686.73	25984.63
686.87	25738.87
687.01	25666.31
687.14	25488.43
687.28	25504.82
687.42	25481.41
687.55	24964.15
687.69	24933.73
687.82	24936.07
687.96	24823.72
688.10	24936.07
688.23	24966.49
688.37	24842.45
688.50	24945.43
688.64	24854.15
688.78	24404.77
688.91	24706.70
689.05	24439.87
689.18	23702.61
689.32	23969.43
689.46	23861.76
689.59	23726.01
689.73	24023.26
689.86	23828.99
690.00	23445.15
690.13	23660.48
690.27	23520.04
690.41	23339.82
690.54	23260.24
690.68	22995.76
690.81	23009.81
690.95	23281.31
691.08	22955.97
691.22	22682.13
691.35	22403.61
691.49	22845.97
691.62	22771.07
691.76	22178.92
691.89	22178.92
692.03	22309.99
692.16	21881.67
692.30	21869.97
692.43	21902.73
692.57	21621.87
692.70	21528.25
692.84	21263.77
692.97	21490.80
693.11	21392.50
693.24	21270.79
693.38	21238.02
693.51	20959.50
693.65	20929.07
693.78	20610.76
693.92	20833.11
694.05	20428.20
694.19	20730.12
694.32	20601.40
694.45	20762.89
694.59	20606.08
694.72	20685.65
694.86	20304.15
694.99	19899.23
695.13	20044.35
695.26	20049.03
695.39	19782.21
695.53	19754.12
695.66	19831.36
695.80	19573.90
695.93	19536.45
696.07	19173.67
696.20	18993.45
696.33	19164.31
696.47	18841.31
696.60	19033.24
696.73	19014.51
696.87	19103.45
697.00	18967.70
697.14	18862.38
697.27	18508.96
697.40	18501.93
697.54	18530.02
697.67	18368.52
697.80	18305.33
697.94	18469.17
698.07	17970.63
698.21	17781.05
698.34	18284.26
698.47	17734.24
698.61	17612.53
698.74	17820.84
698.87	17792.75
699.01	17352.73
699.14	17486.14
699.27	17537.63
699.40	17401.88
699.54	17406.56
699.67	17336.35
699.80	17298.90
699.94	17067.19
700.07	16868.24
700.20	16844.84
700.34	16863.56
700.47	16971.22
700.60	17025.06
700.73	16781.64
700.87	16496.10
701.00	16423.54
701.13	16243.32
701.26	16369.71
701.40	16224.59
701.53	15887.56
701.66	16205.87
701.79	15967.13
701.93	15510.73
702.06	15667.55
702.19	15529.45
702.32	15768.19
702.46	15613.71
702.59	15775.21
702.72	15700.31
702.85	15552.86
702.99	15468.60
703.12	15215.82
703.25	15192.42
703.38	14913.89
703.51	14717.29
703.65	14869.42
703.78	14553.45
703.91	14457.49
704.04	14616.65
704.17	14438.76
704.31	14747.72
704.44	14719.63
704.57	14422.38
704.70	14237.48
704.83	14349.82
704.96	13930.87
705.10	14104.07
705.23	13916.83
>>>>>End Processed Spectral Data<<<<<
