SpectraSuite Data File
++++++++++++++++++++++++++++++++++++
Date: Fri Oct 25 10:43:15 EDT 2013
User: price-jones
Dark Spectrum Present: No
Reference Spectrum Present: No
Number of Sampled Component Spectra: 1
Spectrometers: USB2+H05261
Integration Time (usec): 100000 (USB2+H05261)
Spectra Averaged: 1 (USB2+H05261)
Boxcar Smoothing: 0 (USB2+H05261)
Correct for Electrical Dark: No (USB2+H05261)
Strobe/Lamp Enabled: No (USB2+H05261)
Correct for Detector Non-linearity: No (USB2+H05261)
Correct for Stray Light: No (USB2+H05261)
Number of Pixels in Processed Spectrum: 2048
>>>>>Begin Processed Spectral Data<<<<<
365.73	124.05
365.92	124.05
366.12	124.05
366.32	28.09
366.52	0.00
366.72	0.00
366.91	0.00
367.11	32.77
367.31	0.00
367.51	44.47
367.70	25.75
367.90	35.11
368.10	0.00
368.30	0.00
368.49	25.75
368.69	53.83
368.89	30.43
369.09	30.43
369.28	60.85
369.48	37.45
369.68	0.00
369.87	65.54
370.07	110.01
370.27	135.75
370.47	210.65
370.66	290.23
370.86	409.59
371.06	512.58
371.25	519.60
371.45	428.32
371.65	461.09
371.84	526.62
372.04	461.09
372.24	477.47
372.44	465.77
372.63	517.26
372.83	475.13
373.03	449.38
373.22	409.59
373.42	491.51
373.62	552.37
373.81	543.00
374.01	500.87
374.21	540.66
374.40	603.86
374.60	582.79
374.79	575.77
374.99	620.24
375.19	500.87
375.38	610.88
375.58	603.86
375.78	582.79
375.97	650.67
376.17	636.63
376.37	561.73
376.56	587.47
376.76	582.79
376.95	587.47
377.15	650.67
377.35	636.63
377.54	695.14
377.74	627.26
377.93	662.37
378.13	631.94
378.33	547.69
378.52	645.99
378.72	678.76
378.91	699.82
379.11	685.78
379.31	662.37
379.50	629.60
379.70	655.35
379.89	608.54
380.09	636.63
380.28	688.12
380.48	709.18
380.68	713.86
380.87	620.24
381.07	704.50
381.26	667.05
381.46	617.90
381.65	711.52
381.85	690.46
382.04	688.12
382.24	664.71
382.43	739.61
382.63	720.88
382.83	725.57
383.02	744.29
383.22	732.59
383.41	695.14
383.61	807.48
383.80	823.87
384.00	777.06
384.19	772.38
384.39	877.70
384.58	781.74
384.78	767.70
384.97	819.19
385.17	851.96
385.36	704.50
385.56	805.14
385.75	805.14
385.95	795.78
386.14	842.59
386.34	866.00
386.53	851.96
386.72	887.06
386.92	821.53
387.11	854.30
387.31	819.19
387.50	849.61
387.70	819.19
387.89	938.55
388.09	896.43
388.28	891.74
388.48	835.57
388.67	954.94
388.86	952.60
389.06	964.30
389.25	952.60
389.45	968.98
389.64	910.47
389.84	1027.50
390.03	997.07
390.22	980.68
390.42	1011.11
390.61	940.90
390.81	964.30
391.00	1046.22
391.19	1006.43
391.39	1036.86
391.58	1039.20
391.78	1064.94
391.97	1050.90
392.16	957.28
392.36	1069.62
392.55	1078.99
392.75	966.64
392.94	961.96
393.13	987.71
393.33	943.24
393.52	1062.60
393.71	1046.22
393.91	1114.10
394.10	1149.20
394.29	1160.91
394.49	1139.84
394.68	1146.86
394.88	1228.78
395.07	1151.54
395.26	1259.21
395.46	1249.85
395.65	1261.55
395.84	1266.23
396.04	1249.85
396.23	1149.20
396.42	1102.39
396.62	1287.29
396.81	1203.04
397.00	1125.80
397.19	1226.44
397.39	1294.32
397.58	1366.87
397.77	1385.60
397.97	1500.28
398.16	1411.34
398.35	1481.56
398.55	1401.98
398.74	1434.75
398.93	1554.12
399.12	1579.86
399.32	1488.58
399.51	1483.90
399.70	1551.78
399.90	1577.52
400.09	1600.93
400.28	1624.33
400.47	1701.57
400.67	1596.25
400.86	1598.59
401.05	1696.89
401.24	1682.85
401.44	1750.72
401.63	1708.59
401.82	1783.49
402.01	1753.06
402.21	1762.42
402.40	1774.13
402.59	1753.06
402.78	1685.19
402.97	1682.85
403.17	1802.21
403.36	1750.72
403.55	1816.26
403.74	1865.41
403.93	1858.39
404.13	1902.86
404.32	1874.77
404.51	1987.11
404.70	1863.07
404.89	1940.30
405.09	1954.35
405.28	1928.60
405.47	2040.95
405.66	1977.75
405.85	1823.28
406.05	1930.94
406.24	1895.83
406.43	2047.97
406.62	2113.50
406.81	2118.18
407.00	2019.88
407.20	2022.22
407.39	2153.29
407.58	2167.34
407.77	2221.17
407.96	2256.28
408.15	2282.02
408.34	2275.00
408.54	2342.88
408.73	2338.20
408.92	2214.15
409.11	2188.40
409.30	2312.45
409.49	2312.45
409.68	2317.13
409.87	2368.62
410.07	2392.03
410.26	2401.39
410.45	2370.96
410.64	2450.54
410.83	2392.03
411.02	2436.50
411.21	2502.03
411.40	2457.56
411.59	2705.66
411.78	2626.08
411.98	2590.97
412.17	2722.04
412.36	2740.77
412.55	2689.28
412.74	2672.89
412.93	2747.79
413.12	2794.60
413.31	2815.66
413.50	2918.65
413.69	2930.35
413.88	2953.76
414.07	2867.16
414.26	3005.25
414.45	2984.18
414.64	2946.73
414.83	3077.80
415.02	2974.82
415.22	3070.78
415.41	3190.15
415.60	3187.81
415.79	3122.27
415.98	3190.15
416.17	3316.54
416.36	3220.58
416.55	3363.35
416.74	3276.75
416.93	3269.73
417.12	3307.18
417.31	3309.52
417.50	3339.94
417.69	3471.01
417.88	3330.58
418.07	3417.18
418.26	3433.57
418.45	3424.20
418.64	3463.99
418.83	3440.59
419.02	3545.91
419.21	3552.93
419.39	3646.55
419.58	3541.23
419.77	3534.21
419.96	3693.37
420.15	3705.07
420.34	3754.22
420.53	3751.88
420.72	3911.04
420.91	3911.04
421.10	3779.97
421.29	3941.46
421.48	3941.46
421.67	3808.05
421.86	3740.18
422.05	3819.75
422.24	3789.33
422.43	3861.88
422.61	3840.82
422.80	3969.55
422.99	3873.59
423.18	3852.52
423.37	3925.08
423.56	4002.32
423.75	3911.04
423.94	3798.69
424.13	3726.13
424.32	3894.65
424.50	3960.19
424.69	4056.15
424.88	3955.51
425.07	3927.42
425.26	3854.86
425.45	3950.82
425.64	3990.61
425.83	3943.80
426.01	4009.34
426.20	4023.38
426.39	3941.46
426.58	4049.13
426.77	3974.23
426.96	3995.29
427.15	3941.46
427.33	4077.21
427.52	4152.11
427.71	4072.53
427.90	4100.62
428.09	4203.60
428.28	4241.05
428.46	4236.37
428.65	4077.21
428.84	4217.65
429.03	4173.18
429.22	4079.55
429.40	4056.15
429.59	4049.13
429.78	3857.20
429.97	3817.41
430.16	3995.29
430.34	3978.91
430.53	4105.30
430.72	4168.49
430.91	4266.80
431.10	4280.84
431.28	4542.98
431.47	4533.62
431.66	4601.49
431.85	4521.92
432.03	4596.81
432.22	4554.68
432.41	4587.45
432.60	4641.28
432.79	4699.80
432.97	4833.21
433.16	4873.00
433.35	4606.17
433.54	4652.98
433.72	4699.80
433.91	4631.92
434.10	4760.65
434.28	4772.35
434.47	4975.98
434.66	4896.40
434.85	4901.08
435.03	4887.04
435.22	5004.07
435.41	5006.41
435.59	5132.79
435.78	5128.11
435.97	5004.07
436.16	4992.36
436.34	5242.80
436.53	5214.71
436.72	5195.99
436.90	5062.58
437.09	5210.03
437.28	5123.43
437.46	5163.22
437.65	5282.59
437.84	5135.14
438.02	5109.39
438.21	5198.33
438.40	5107.05
438.58	5383.23
438.77	5385.57
438.96	5500.26
439.14	5523.66
439.33	5760.06
439.52	5757.72
439.70	5596.22
439.89	5673.46
440.08	5521.32
440.26	5774.10
440.45	5645.37
440.63	5736.65
440.82	5968.37
441.01	5837.30
441.19	5926.24
441.38	6043.26
441.57	6148.59
441.75	6136.88
441.94	6520.73
442.12	6256.25
442.31	6282.00
442.50	6375.62
442.68	6249.23
442.87	6282.00
443.05	6349.87
443.24	6338.17
443.43	6384.98
443.61	6569.88
443.80	6490.31
443.98	6349.87
444.17	6216.46
444.35	6485.62
444.54	6614.35
444.73	6553.50
444.91	6366.26
445.10	6555.84
445.28	6377.96
445.47	6569.88
445.65	6525.41
445.84	6523.07
446.02	6499.67
446.21	6434.13
446.39	6651.80
446.58	6597.97
446.77	6586.27
446.95	6392.00
447.14	6810.96
447.32	6967.77
447.51	6759.47
447.69	6588.61
447.88	6759.47
448.06	6672.87
448.25	6560.52
448.43	6689.25
448.62	6530.09
448.80	6806.28
448.99	6768.83
449.17	7002.88
449.36	6832.02
449.54	6979.48
449.73	7087.14
449.91	7162.04
450.10	7028.63
450.28	7204.17
450.46	7068.42
450.65	7157.36
450.83	7241.62
451.02	7225.23
451.20	7243.96
451.39	7211.19
451.57	7204.17
451.76	7080.12
451.94	7232.26
452.13	7218.21
452.31	7227.57
452.49	7155.02
452.68	7243.96
452.86	7101.19
453.05	7318.86
453.23	7307.15
453.42	7293.11
453.60	7318.86
453.78	7403.11
453.97	7323.54
454.15	7548.23
454.34	7360.98
454.52	7578.65
454.70	7672.28
454.89	7473.33
455.07	7639.51
455.26	7623.12
455.44	7859.52
455.62	7740.15
455.81	7845.48
455.99	7777.60
456.17	7824.41
456.36	7878.24
456.54	7906.33
456.73	8187.19
456.91	8032.72
457.09	8081.87
457.28	8369.76
457.46	8112.30
457.64	8147.40
457.83	8161.45
458.01	7892.29
458.19	8124.00
458.38	8053.78
458.56	8362.73
458.74	8212.94
458.93	8156.77
459.11	8224.64
459.29	8044.42
459.48	8325.29
459.66	8196.56
459.84	8491.46
460.03	8479.76
460.21	8437.63
460.39	8669.34
460.57	8348.69
460.76	8622.53
460.94	8486.78
461.12	8655.30
461.31	8430.61
461.49	8772.33
461.67	8828.50
461.85	8645.94
462.04	8877.65
462.22	9280.22
462.40	8849.57
462.59	8882.33
462.77	8950.21
462.95	8821.48
463.13	8882.33
463.32	8945.53
463.50	9048.51
463.68	9170.22
463.86	8896.38
464.05	8973.61
464.23	8968.93
464.41	9036.81
464.59	8720.84
464.78	9076.60
464.96	9008.72
465.14	9238.09
465.32	9188.94
465.50	9324.69
465.69	9090.64
465.87	9092.98
466.05	9160.86
466.23	9193.62
466.41	9331.72
466.60	9376.19
466.78	9128.09
466.96	9060.21
467.14	9364.48
467.32	9355.12
467.51	9490.87
467.69	9184.26
467.87	9561.09
468.05	9551.73
468.23	9357.46
468.41	9610.24
468.60	9385.55
468.78	9296.61
468.96	9640.67
469.14	9731.95
469.32	9870.04
469.50	9273.20
469.69	9511.94
469.87	9696.84
470.05	9881.74
470.23	9767.06
470.41	9795.14
470.59	9975.36
470.77	9935.57
470.95	9888.76
471.14	9898.13
471.32	10045.58
471.50	10471.56
471.68	10047.92
471.86	10286.65
472.04	10373.25
472.22	10504.32
472.40	10312.40
472.58	10326.44
472.77	10328.78
472.95	10537.09
473.13	10850.72
473.31	10469.22
473.49	10541.77
473.67	10581.56
473.85	10611.99
474.03	10899.87
474.21	10998.18
474.39	11049.67
474.57	11180.74
474.75	10895.19
474.93	11096.48
475.12	11016.90
475.30	11435.86
475.48	11101.16
475.66	11201.80
475.84	11101.16
476.02	11410.11
476.20	11386.71
476.38	11805.66
476.56	11667.57
476.74	11646.51
476.92	11506.07
477.10	11887.58
477.28	12175.47
477.46	12147.38
477.64	12259.73
477.82	12453.99
478.00	12571.02
478.18	12269.09
478.36	12678.68
478.54	12657.62
478.72	12926.78
478.90	12931.46
479.08	13254.45
479.26	13385.52
479.44	13027.42
479.62	13247.43
479.80	13104.66
479.98	13469.78
480.16	13652.34
480.34	13675.75
480.52	13502.55
480.70	13589.15
480.88	13659.37
481.06	13628.94
481.24	13752.99
481.41	14171.94
481.59	14370.89
481.77	14394.29
481.95	14523.02
482.13	14492.60
482.31	14387.27
482.49	14979.43
482.67	15012.20
482.85	14977.09
483.03	15316.47
483.21	15154.97
483.39	15541.16
483.57	15009.86
483.74	15660.52
483.92	15562.22
484.10	15683.93
484.28	15903.94
484.46	15887.56
484.64	16219.91
484.82	16065.44
485.00	16255.02
485.18	16137.99
485.35	16725.47
485.53	16142.67
485.71	16128.63
485.89	16453.97
486.07	16229.27
486.25	16655.25
486.43	16908.03
486.61	16989.95
486.78	17118.68
486.96	17069.53
487.14	17537.63
487.32	17701.47
487.50	17837.22
487.68	18033.83
487.85	18214.05
488.03	18448.10
488.21	18558.11
488.39	18684.50
488.57	18565.13
488.75	18670.45
488.92	19047.28
489.10	19389.00
489.28	19660.50
489.46	19747.10
489.64	19480.28
489.81	20247.97
489.99	20020.94
490.17	19868.81
490.35	20397.77
490.53	19999.88
490.70	20362.66
490.88	20482.03
491.06	20549.90
491.24	20837.79
491.41	20849.49
491.59	20638.84
491.77	20741.83
491.95	20989.92
492.13	21088.23
492.30	21579.74
492.48	21530.59
492.66	21535.27
492.84	21895.71
493.01	21898.05
493.19	22169.55
493.37	22129.77
493.54	22265.52
493.72	22375.52
493.90	22483.19
494.08	23033.21
494.25	22944.27
494.43	22920.87
494.61	23122.15
494.79	23363.23
494.96	23630.05
495.14	23358.55
495.32	23917.93
495.49	23770.48
495.67	23840.70
495.85	23608.98
496.02	24137.94
496.20	24339.23
496.38	24666.91
496.55	24491.37
496.73	24844.79
496.91	24907.98
497.09	24734.78
497.26	24835.42
497.44	25029.69
497.62	24856.49
497.79	25177.14
497.97	25340.98
498.14	25579.71
498.32	25729.51
498.50	25666.31
498.67	25729.51
498.85	25778.66
499.03	26244.43
499.20	26162.51
499.38	26391.88
499.56	26534.65
499.73	26232.72
499.91	26295.92
500.08	26462.10
500.26	26319.32
500.44	26616.57
500.61	26693.81
500.79	26487.84
500.97	26752.32
501.14	26892.76
501.32	26981.70
501.49	27119.79
501.67	27136.17
501.84	27316.39
502.02	27758.75
502.20	27285.97
502.37	27686.20
502.55	27632.36
502.72	27899.19
502.90	27800.88
503.07	27730.67
503.25	28191.75
503.43	28133.24
503.60	27817.27
503.78	27948.34
503.95	28128.56
504.13	28517.09
504.30	28594.32
504.48	28739.44
504.65	28713.69
504.83	28868.17
505.01	29383.09
505.18	29181.80
505.36	29453.30
505.53	29064.77
505.71	29504.79
505.88	29366.70
506.06	29656.93
506.23	29481.39
506.41	29743.53
506.58	30127.38
506.76	29600.76
506.93	29930.77
507.11	29666.29
507.28	30204.61
507.46	29715.44
507.63	29771.61
507.81	29853.53
507.98	29991.62
508.16	30433.99
508.33	30349.73
508.50	30539.31
508.68	30244.40
508.85	30965.29
509.03	31108.06
509.20	31063.59
509.38	30876.35
509.55	31267.22
509.73	30775.70
509.90	31138.49
510.08	31133.81
510.25	31304.67
510.42	31648.72
510.60	31688.51
510.77	31852.35
510.95	31859.37
511.12	31749.37
511.30	31754.05
511.47	32383.65
511.64	32315.78
511.82	32430.46
511.99	31908.52
512.17	32430.46
512.34	32247.90
512.51	32664.52
512.69	32891.55
512.86	32561.53
513.04	32442.17
513.21	32753.46
513.38	32779.20
513.56	32683.24
513.73	32416.42
513.90	32514.72
514.08	33048.36
514.25	32917.29
514.43	33179.43
514.60	33116.24
514.77	33062.41
514.95	33472.00
515.12	33589.03
515.29	33780.95
515.47	32912.61
515.64	34253.74
515.81	33706.05
515.99	33839.47
516.16	33523.49
516.33	33682.65
516.51	33401.79
516.68	32994.53
516.85	33010.92
517.03	33621.80
517.20	33982.24
517.37	34127.35
517.54	34485.45
517.72	34082.88
517.89	33846.49
518.06	34139.05
518.24	33832.44
518.41	34253.74
518.58	34251.40
518.75	34139.05
518.93	34700.78
519.10	34808.45
519.27	34876.32
519.45	34808.45
519.62	35232.08
519.79	35173.57
519.96	35491.88
520.14	35681.47
520.31	34822.49
520.48	35103.35
520.65	35653.38
520.83	35473.16
521.00	35849.99
521.17	35405.28
521.34	35805.52
521.52	36374.27
521.69	35732.96
521.86	36226.81
522.03	36142.55
522.20	36163.62
522.38	36133.19
522.55	36631.72
522.72	36374.27
522.89	36119.15
523.07	36617.68
523.24	36425.76
523.41	36840.03
523.58	36800.24
523.75	37193.45
523.92	37350.27
524.10	37261.33
524.27	36781.52
524.44	37198.13
524.61	37078.77
524.78	37153.66
524.96	37256.65
525.13	37315.16
525.30	37376.01
525.47	37996.26
525.64	37617.09
525.81	37247.29
525.98	37127.92
526.16	37191.11
526.33	37254.31
526.50	37642.84
526.67	37022.59
526.84	37380.70
527.01	37067.06
527.18	37809.01
527.36	37771.57
527.53	38019.66
527.70	38106.26
527.87	38148.39
528.04	37893.27
528.21	38450.32
528.38	38660.97
528.55	38609.48
528.72	38518.20
528.89	38635.22
529.07	38342.66
529.24	38103.92
529.41	38412.87
529.58	38555.64
529.75	38806.08
529.92	38946.51
530.09	38925.45
530.26	38855.23
530.43	38616.50
530.60	38892.68
530.77	39147.80
530.94	39302.28
531.11	39140.78
531.28	39115.03
531.46	39316.32
531.63	39641.65
531.80	39070.56
531.97	39140.78
532.14	39576.12
532.31	38925.45
532.48	39016.73
532.65	39594.84
532.82	39388.88
532.99	39754.00
533.16	39426.32
533.33	39943.58
533.50	39934.22
533.67	39276.53
533.84	39910.82
534.01	39824.22
534.18	40091.04
534.35	40144.87
534.52	40156.57
534.69	40046.57
534.86	40458.50
535.03	40289.98
535.20	40383.60
535.37	40797.88
535.54	40938.31
535.71	40238.49
535.88	40566.16
536.05	40392.97
536.22	40318.07
536.38	40292.32
536.55	40905.54
536.72	40594.25
536.89	39861.66
537.06	40353.18
537.23	40823.62
537.40	41055.34
537.57	40891.50
537.74	41230.88
537.91	41277.69
538.08	41216.83
538.25	40655.11
538.42	41013.21
538.59	41605.36
538.75	40601.27
538.92	41294.07
539.09	41371.31
539.26	40961.72
539.43	41195.77
539.60	41085.76
539.77	41095.13
539.94	41060.02
540.11	41544.51
540.28	41532.81
540.44	41413.44
540.61	41361.95
540.78	40800.22
540.95	41048.32
541.12	41013.21
541.29	41392.37
541.46	41731.75
541.62	41759.84
541.79	41869.84
541.96	41268.33
542.13	41937.72
542.30	41729.41
542.47	41666.22
542.63	41766.86
542.80	41816.01
542.97	42363.70
543.14	42691.37
543.31	42520.51
543.48	42403.49
543.64	42436.25
543.81	42787.33
543.98	42799.04
544.15	42326.25
544.32	42567.32
544.48	43051.81
544.65	42789.67
544.82	42078.15
544.99	42272.42
545.16	42869.25
545.32	42548.60
545.49	42965.21
545.66	43320.98
545.83	42644.56
546.00	43042.45
546.16	42834.14
546.33	42960.53
546.50	42656.26
546.67	43318.64
546.83	42904.36
547.00	42815.42
547.17	42658.60
547.34	42773.29
547.50	43044.79
547.67	43370.13
547.84	43185.22
548.00	43318.64
548.17	43543.33
548.34	43213.31
548.51	43849.94
548.67	43428.64
548.84	43377.15
549.01	43360.76
549.18	42850.53
549.34	43196.93
549.51	43543.33
549.68	43620.56
549.84	43934.20
550.01	43751.63
550.18	43473.11
550.34	43592.48
550.51	43761.00
550.68	43718.87
550.84	43442.68
551.01	44013.77
551.18	43934.20
551.34	43707.16
551.51	43871.00
551.68	44133.14
551.84	44004.41
552.01	44041.86
552.18	44210.38
552.34	43943.56
552.51	44023.14
552.68	43693.12
552.84	44315.70
553.01	44346.13
553.18	44093.35
553.34	44519.33
553.51	44137.82
553.67	44495.92
553.84	44879.77
554.01	44320.38
554.17	44612.95
554.34	44435.07
554.51	44437.41
554.67	44708.91
554.84	44318.04
555.00	44226.76
555.17	44320.38
555.33	44577.84
555.50	44470.18
555.67	44266.55
555.83	44854.03
556.00	44837.64
556.16	44818.92
556.33	44727.64
556.50	44332.09
556.66	44332.09
556.83	44212.72
556.99	44378.90
557.16	44959.35
557.32	44720.62
557.49	44772.11
557.65	44516.99
557.82	44762.75
557.98	44657.42
558.15	45059.99
558.32	45022.54
558.48	44612.95
558.65	44699.55
558.81	44741.68
558.98	44371.88
559.14	44912.54
559.31	44903.18
559.47	44844.66
559.64	44811.90
559.80	44973.39
559.97	45013.18
560.13	44662.10
560.30	44856.37
560.46	45263.62
560.63	45160.64
560.79	45209.79
560.96	45661.51
561.12	44861.05
561.29	44928.92
561.45	45315.11
561.61	45268.30
561.78	45071.70
561.94	44779.13
562.11	45090.42
562.27	45059.99
562.44	45558.53
562.60	44966.37
562.77	45282.34
562.93	45284.68
563.10	45343.20
563.26	45399.37
563.42	45558.53
563.59	45298.73
563.75	45205.11
563.92	45301.07
564.08	45434.48
564.24	45361.92
564.41	45331.50
564.57	44971.05
564.74	45127.87
564.90	45638.11
565.07	45750.45
565.23	45411.07
565.39	45144.25
565.56	45331.50
565.72	45198.09
565.88	45247.24
566.05	45455.54
566.21	45317.45
566.38	45378.31
566.54	45865.14
566.70	45287.03
566.87	45968.12
567.03	45485.97
567.19	46429.21
567.36	45921.31
567.52	45818.33
567.68	45904.93
567.85	45151.27
568.01	45434.48
568.17	45598.32
568.34	45542.14
568.50	46021.95
568.66	45125.53
568.83	45888.54
568.99	45518.74
569.15	45420.44
569.32	45738.75
569.48	45357.24
569.64	46057.06
569.81	46211.54
569.97	45530.44
570.13	45827.69
570.30	45471.93
570.46	45507.04
570.62	45158.30
570.78	44989.78
570.95	45212.13
571.11	45804.28
571.27	45584.27
571.43	45539.80
571.60	45656.83
571.76	45755.13
571.92	45380.65
572.09	45516.40
572.25	45900.25
572.41	46415.16
572.57	46246.65
572.74	46012.59
572.90	45792.58
573.06	46059.40
573.22	45663.85
573.38	45610.02
573.55	45888.54
573.71	46014.93
573.87	45406.39
574.03	45008.50
574.20	45687.26
574.36	45457.88
574.52	45984.51
574.68	45474.27
574.84	45413.41
575.01	45928.33
575.17	45497.67
575.33	45549.17
575.49	45572.57
575.65	45958.76
575.82	45698.96
575.98	45890.88
576.14	45951.74
576.30	45914.29
576.46	45443.84
576.62	45633.42
576.79	45610.02
576.95	45806.62
577.11	45923.65
577.27	46087.49
577.43	45806.62
577.59	45691.94
577.75	45380.65
577.92	45610.02
578.08	45481.29
578.24	45184.04
578.40	45881.52
578.56	45511.72
578.72	45792.58
578.88	46267.71
579.04	45865.14
579.21	45490.65
579.37	45710.66
579.53	45635.77
579.69	45621.72
579.85	45673.21
580.01	45757.47
580.17	45654.49
580.33	45897.91
580.49	45911.95
580.65	46333.24
580.82	46028.98
580.98	45897.91
581.14	45481.29
581.30	45909.61
581.46	45701.30
581.62	46248.99
581.78	46024.29
581.94	46279.41
582.10	45975.14
582.26	46096.85
582.42	46096.85
582.58	46178.77
582.74	45904.93
582.90	46314.52
583.06	46087.49
583.22	46127.28
583.38	46272.39
583.54	45780.88
583.70	46487.72
583.86	45684.92
584.02	45502.35
584.18	46148.34
584.34	45801.94
584.50	46160.05
584.66	46047.70
584.82	46391.76
584.98	45729.39
585.14	46071.10
585.30	45933.01
585.46	45713.00
585.62	45521.08
585.78	46010.25
585.94	45734.07
586.10	45652.15
586.26	45834.71
586.42	46618.79
586.58	45954.08
586.74	46064.08
586.90	45965.78
587.06	45748.11
587.22	46106.21
587.38	45684.92
587.54	46122.60
587.70	46251.33
587.86	45998.55
588.02	45670.87
588.18	46141.32
588.34	45710.66
588.49	45303.41
588.65	45324.47
588.81	45361.92
588.97	45715.34
589.13	45013.18
589.29	45216.81
589.45	45549.17
589.61	45762.15
589.77	45933.01
589.93	45539.80
590.08	45944.72
590.24	45773.86
590.40	46174.09
590.56	46609.43
590.72	45935.35
590.88	45708.32
591.04	45792.58
591.20	46342.61
591.35	46204.52
591.51	46415.16
591.67	46094.51
591.83	45633.42
591.99	45785.56
592.15	45954.08
592.31	46330.90
592.46	45921.31
592.62	46089.83
592.78	46080.47
592.94	46108.55
593.10	46057.06
593.26	45771.52
593.41	45958.76
593.57	46028.98
593.73	45956.42
593.89	46508.79
594.05	46080.47
594.20	45731.73
594.36	45907.27
594.52	46260.69
594.68	46192.81
594.84	45752.79
594.99	46059.40
595.15	45970.46
595.31	46291.12
595.47	46185.79
595.62	46237.28
595.78	45940.04
595.94	46375.37
596.10	45890.88
596.25	46150.68
596.41	46019.61
596.57	46298.14
596.73	45904.93
596.88	46054.72
597.04	46265.37
597.20	46284.09
597.36	46171.75
597.51	46443.25
597.67	46181.11
597.83	46019.61
597.99	45923.65
598.14	46124.94
598.30	46064.08
598.46	46358.99
598.61	46396.44
598.77	45827.69
598.93	46146.00
599.09	46330.90
599.24	46560.28
599.40	46511.13
599.56	46157.70
599.71	45830.03
599.87	46227.92
600.03	46295.80
600.18	45933.01
600.34	45731.73
600.50	46157.70
600.65	45998.55
600.81	46342.61
600.97	46012.59
601.12	46206.86
601.28	46260.69
601.44	46366.01
601.59	46134.30
601.75	45968.12
601.91	46085.15
602.06	45872.16
602.22	46253.67
602.37	46265.37
602.53	46073.45
602.69	46323.88
602.84	45855.78
603.00	45977.48
603.16	46543.89
603.31	45846.41
603.47	45904.93
603.62	46237.28
603.78	46127.28
603.94	46078.13
604.09	46564.96
604.25	45951.74
604.40	46216.22
604.56	45923.65
604.71	46431.55
604.87	45876.84
605.03	45977.48
605.18	45921.31
605.34	46108.55
605.49	45823.01
605.65	45963.44
605.80	45813.65
605.96	45603.00
606.12	45879.18
606.27	46199.83
606.43	45933.01
606.58	45993.87
606.74	45785.56
606.89	45605.34
607.05	45895.56
607.20	46216.22
607.36	46117.92
607.51	45979.82
607.67	45975.14
607.82	45621.72
607.98	45958.76
608.13	45745.77
608.29	45717.68
608.44	45219.15
608.60	45298.73
608.75	45705.98
608.91	45579.59
609.06	45490.65
609.22	45801.94
609.37	45413.41
609.53	45844.07
609.68	45586.61
609.84	45497.67
609.99	45425.12
610.15	45516.40
610.30	44863.39
610.46	45069.36
610.61	45172.34
610.76	45797.26
610.92	45324.47
611.07	45455.54
611.23	45015.52
611.38	45511.72
611.54	45478.95
611.69	45488.31
611.84	44739.34
612.00	45249.58
612.15	44940.63
612.31	45352.56
612.46	45390.01
612.62	44928.92
612.77	45272.98
612.92	45200.43
613.08	45331.50
613.23	44973.39
613.39	44671.46
613.54	44542.74
613.69	45130.21
613.85	44783.81
614.00	45179.36
614.15	44978.07
614.31	44776.79
614.46	44832.96
614.62	44807.22
614.77	44741.68
614.92	45052.97
615.08	44729.98
615.23	44760.40
615.38	44643.38
615.54	44528.69
615.69	44631.68
615.84	44589.55
616.00	44610.61
616.15	44886.79
616.30	44685.51
616.46	44779.13
616.61	44388.26
616.76	44357.83
616.92	44027.82
617.07	44369.54
617.22	44172.93
617.37	43957.60
617.53	44762.75
617.68	44699.55
617.83	44163.57
617.99	44383.58
618.14	44524.01
618.29	44247.83
618.45	44357.83
618.60	44121.44
618.75	44027.82
618.90	43718.87
619.06	43892.07
619.21	43863.98
619.36	43810.15
619.51	44121.44
619.67	43761.00
619.82	43988.03
619.97	43606.52
620.12	43995.05
620.28	43819.51
620.43	44023.14
620.58	44170.59
620.73	43672.06
620.89	43665.03
621.04	44126.12
621.19	44018.46
621.34	43526.94
621.49	43356.08
621.65	43555.03
621.80	44009.09
621.95	43449.70
622.10	43899.09
622.25	43742.27
622.41	43915.47
622.56	43480.13
622.71	43463.75
622.86	43894.41
623.01	43536.30
623.16	43641.63
623.32	43377.15
623.47	43454.39
623.62	43168.84
623.77	43318.64
623.92	43278.85
624.07	42838.83
624.23	43122.03
624.38	43269.48
624.53	43143.09
624.68	43328.00
624.83	43229.69
624.98	43271.82
625.13	42813.08
625.29	43138.41
625.44	43264.80
625.59	42595.41
625.74	42773.29
625.89	42677.33
626.04	42969.90
626.19	43260.12
626.34	42913.72
626.49	42623.50
626.65	42735.84
626.80	42806.06
626.95	42653.92
627.10	42581.37
627.25	42298.16
627.40	42525.19
627.55	42199.86
627.70	42623.50
627.85	42288.80
628.00	42368.38
628.15	42682.01
628.30	42555.62
628.45	42590.73
628.60	42279.44
628.76	42359.02
628.91	42548.60
629.06	42373.06
629.21	42188.16
629.36	42202.20
629.51	41921.34
629.66	42188.16
629.81	42408.17
629.96	42120.28
630.11	42089.85
630.26	42059.43
630.41	42202.20
630.56	41801.97
630.71	42265.39
630.86	41649.83
631.01	41518.76
631.16	42010.28
631.31	41837.08
631.46	41635.79
631.61	41691.96
631.76	41876.86
631.91	41801.97
632.06	41792.61
632.21	41397.06
632.36	41839.42
632.51	41366.63
632.66	41806.65
632.81	41134.92
632.96	41867.50
633.10	41188.75
633.25	41394.71
633.40	41584.30
633.55	41490.68
633.70	41453.23
633.85	41532.81
634.00	41530.47
634.15	41219.17
634.30	41331.52
634.45	41598.34
634.60	41141.94
634.75	41043.63
634.90	40992.14
635.05	41338.54
635.19	41432.16
635.34	41319.82
635.49	41514.08
635.64	40870.43
635.79	41207.47
635.94	40751.07
636.09	41141.94
636.24	40589.57
636.39	40631.70
636.53	40896.18
636.68	40741.71
636.83	40568.51
636.98	40989.80
637.13	41017.89
637.28	40835.33
637.43	40992.14
637.57	41095.13
637.72	40877.46
637.87	41177.04
638.02	40711.28
638.17	41191.09
638.32	41221.52
638.46	40404.67
638.61	40100.40
638.76	40385.94
638.91	40694.89
639.06	40456.16
639.20	41104.49
639.35	40556.80
639.50	40407.01
639.65	40046.57
639.80	40662.13
639.94	40179.98
640.09	39997.41
640.24	40470.20
640.39	40423.39
640.54	40247.85
640.68	39913.16
640.83	39978.69
640.98	40182.32
641.13	40353.18
641.27	40060.61
641.42	39533.99
641.57	40355.52
641.72	40385.94
641.86	39868.69
642.01	39770.38
642.16	39971.67
642.31	39566.76
642.45	40505.31
642.60	39178.23
642.75	39550.37
642.90	40004.44
643.04	39920.18
643.19	39927.20
643.34	39683.78
643.48	39599.52
643.63	39517.60
643.78	39779.74
643.93	39789.11
644.07	39435.69
644.22	39342.06
644.37	39447.39
644.51	39744.64
644.66	39777.40
644.81	39463.77
644.95	39466.11
645.10	39351.43
645.25	39449.73
645.39	39175.89
645.54	39728.25
645.69	39667.40
645.83	39239.08
645.98	38864.60
646.13	39365.47
646.27	39393.56
646.42	39147.80
646.57	39112.69
646.71	39119.71
646.86	39122.05
647.00	38976.94
647.15	39014.39
647.30	39037.80
647.44	39175.89
647.59	39180.57
647.74	38621.18
647.88	38731.18
648.03	39384.19
648.17	38897.36
648.32	38857.57
648.47	38976.94
648.61	39005.03
648.76	38211.59
648.90	38752.25
649.05	38548.62
649.20	38625.86
649.34	38136.69
649.49	38396.49
649.63	38888.00
649.78	38473.73
649.92	38464.36
650.07	38602.46
650.21	38473.73
650.36	38642.24
650.51	38670.33
650.65	38850.55
650.80	39274.19
650.94	38623.52
651.09	38190.52
651.23	38211.59
651.38	38539.26
651.52	37790.29
651.67	38239.67
651.81	38127.33
651.96	38061.79
652.10	38438.62
652.25	38038.39
652.39	38085.20
652.54	38323.93
652.68	37619.43
652.83	37989.24
652.97	38319.25
653.12	38419.89
653.26	37794.97
653.41	38101.58
653.55	38127.33
653.70	37624.11
653.84	37897.95
653.99	37677.94
654.13	38108.60
654.27	38075.84
654.42	38155.41
654.56	37956.47
654.71	37581.98
654.85	37799.65
655.00	37734.12
655.14	37273.03
655.29	37490.70
655.43	37333.89
655.57	37294.10
655.72	37230.90
655.86	37294.10
656.01	37338.57
656.15	36493.63
656.30	37163.03
656.44	37256.65
656.58	37333.89
656.73	36683.22
656.87	37266.01
657.01	36966.42
657.16	36964.08
657.30	36634.06
657.45	37172.39
657.59	36795.56
657.73	37022.59
657.88	36854.08
658.02	37013.23
658.16	37017.91
658.31	37352.61
658.45	37130.26
658.60	36907.91
658.74	37038.98
658.88	37048.34
659.03	36950.04
659.17	36673.85
659.31	36538.10
659.46	36175.32
659.60	36610.66
659.74	36397.67
659.89	36285.33
660.03	36247.88
660.17	36400.01
660.32	36505.34
660.46	36467.89
660.60	35983.40
660.74	36065.31
660.89	36238.51
661.03	35941.27
661.17	35775.09
661.32	35992.76
661.46	36233.83
661.60	35934.24
661.74	35494.22
661.89	36109.78
662.03	35866.37
662.17	36217.45
662.31	35896.80
662.46	35852.33
662.60	36149.57
662.74	35641.68
662.88	35693.17
663.03	35583.16
663.17	35363.15
663.31	35187.61
663.45	35344.43
663.60	35023.78
663.74	35372.52
663.88	35157.19
664.02	35140.80
664.17	35421.67
664.31	35138.46
664.45	34806.11
664.59	35103.35
664.73	34859.94
664.88	34885.68
665.02	34745.25
665.16	34679.72
665.30	34050.11
665.44	34153.10
665.59	34529.92
665.73	34417.58
665.87	34141.39
666.01	34352.04
666.15	34314.59
666.29	33975.22
666.44	34576.73
666.58	33797.34
666.72	34314.59
666.86	34541.63
667.00	34132.03
667.14	34094.58
667.28	34089.90
667.43	34174.16
667.57	33865.21
667.71	34066.50
667.85	33975.22
667.99	34143.74
668.13	34071.18
668.27	33642.86
668.41	33682.65
668.56	33525.83
668.70	33249.65
668.84	33605.41
668.98	33240.29
669.12	33230.93
669.26	33729.46
669.40	32854.10
669.54	33221.56
669.68	32758.14
669.82	32781.54
669.96	32575.58
670.10	32889.21
670.25	32957.08
670.39	32563.87
670.53	32671.54
670.67	33031.98
670.81	32402.38
670.95	32306.41
671.09	32790.91
671.23	32418.76
671.37	32793.25
671.51	32238.54
671.65	32514.72
671.79	31835.97
671.93	31910.86
672.07	31955.33
672.21	31910.86
672.35	32093.43
672.49	31873.42
672.63	32067.68
672.77	31660.43
672.91	31386.58
673.05	31576.17
673.19	31812.56
673.33	31545.74
673.47	31438.08
673.61	31484.89
673.75	31028.48
673.89	31140.83
674.03	31040.18
674.17	31122.10
674.31	30906.77
674.45	31236.79
674.59	30897.41
674.73	31468.50
674.87	30934.86
675.01	30857.62
675.15	31070.61
675.29	30885.71
675.43	30780.39
675.56	30590.80
675.70	30347.39
675.84	30827.20
675.98	29443.94
676.12	30534.63
676.26	30588.46
676.40	30567.40
676.54	30068.86
676.68	29778.64
676.82	28943.06
676.96	29773.95
677.10	29921.41
677.23	29748.21
677.37	29570.33
677.51	29481.39
677.65	28919.66
677.79	28769.86
677.93	28891.57
678.07	28982.85
678.21	28535.81
678.34	28627.09
678.48	28037.28
678.62	28474.96
678.76	28381.34
678.90	27992.81
679.04	28353.25
679.18	28074.73
679.31	27833.65
679.45	27693.22
679.59	27693.22
679.73	28133.24
679.87	27623.00
680.00	27491.93
680.14	27866.42
680.28	27248.52
680.42	27307.03
680.56	27290.65
680.70	27480.23
680.83	27227.45
680.97	27044.89
681.11	26780.41
681.25	27290.65
681.39	26888.07
681.52	26951.27
681.66	26572.10
681.80	26529.97
681.94	26632.96
682.07	26167.19
682.21	26274.85
682.35	26506.57
682.49	26192.94
682.62	26115.70
682.76	25685.04
682.90	26054.84
683.04	25869.94
683.17	25804.41
683.31	25369.07
683.45	25909.73
683.59	25591.42
683.72	25795.04
683.86	25593.76
684.00	25301.19
684.13	25076.50
684.27	25067.14
684.41	24875.21
684.55	25032.03
684.68	25020.33
684.82	24678.61
684.96	24720.74
685.09	24446.90
685.23	24477.32
685.37	24439.87
685.50	23812.61
685.64	24350.93
685.78	23850.06
685.91	23672.18
686.05	24123.90
686.19	23630.05
686.32	23597.28
686.46	23681.54
686.60	22888.10
686.73	23477.91
686.87	22981.72
687.01	22829.59
687.14	22768.73
687.28	22817.88
687.42	22995.76
687.55	22658.73
687.69	22965.34
687.82	22691.49
687.96	22885.76
688.10	22373.18
688.23	22314.67
688.37	22359.14
688.50	22401.27
688.64	22555.74
688.78	22139.13
688.91	21909.75
689.05	22040.82
689.18	21759.96
689.32	21846.56
689.46	22045.51
689.59	22099.34
689.73	21731.87
689.86	21898.05
690.00	21539.95
690.13	21500.16
690.27	21305.90
690.41	20973.54
690.54	21142.06
690.68	21069.50
690.81	21207.59
690.95	21043.76
691.08	20751.19
691.22	20954.82
691.35	20762.89
691.49	20688.00
691.62	20500.75
691.76	20510.11
691.89	20610.76
692.03	20439.90
692.16	20484.37
692.30	20152.01
692.43	20269.04
692.57	19779.87
692.70	19719.01
692.84	19754.12
692.97	19438.15
693.11	19440.49
693.24	19412.40
693.38	19599.65
693.51	19569.22
693.65	19337.51
693.78	19307.08
693.92	19459.21
694.05	19054.30
694.19	19098.77
694.32	19225.16
694.45	19197.07
694.59	18967.70
694.72	19073.03
694.86	18691.52
694.99	18441.08
695.13	18429.38
695.26	18246.82
695.39	18497.25
695.53	18745.35
695.66	18539.38
695.80	18375.55
695.93	18066.60
696.07	17811.48
696.20	18277.24
696.33	18040.85
696.47	17874.67
696.60	17862.97
696.73	17860.63
696.87	17685.09
697.00	17448.69
697.14	17521.25
697.27	17399.54
697.40	17458.06
697.54	17312.94
697.67	16905.69
697.80	16915.05
697.94	17057.82
698.07	16886.97
698.21	17209.96
698.34	17099.95
698.47	17003.99
698.61	16491.41
698.74	16821.43
698.87	16512.48
699.01	16383.75
699.14	16208.21
699.27	16444.60
699.40	16276.09
699.54	16156.72
699.67	15831.38
699.80	16009.26
699.94	15925.00
700.07	16159.06
700.20	16109.91
700.34	15805.64
700.47	15487.32
700.60	15590.31
700.73	15887.56
700.87	15550.52
701.00	15499.03
701.13	15260.29
701.26	15620.74
701.40	15307.10
701.53	14986.45
701.66	14986.45
701.79	14719.63
701.93	14782.82
702.06	14670.48
702.19	14703.25
702.32	14937.30
702.46	14864.74
702.59	14785.16
702.72	14553.45
702.85	14618.99
702.99	14553.45
703.12	14235.14
703.25	14380.25
703.38	14527.71
703.51	14125.13
703.65	13898.10
703.78	13858.31
703.91	13804.48
704.04	13872.36
704.17	13750.65
704.31	13839.59
704.44	13549.36
704.57	13352.76
704.70	13605.53
704.83	13628.94
704.96	13624.26
705.10	13284.88
705.23	13317.65
>>>>>End Processed Spectral Data<<<<<
