SpectraSuite Data File
++++++++++++++++++++++++++++++++++++
Date: Fri Oct 25 10:47:07 EDT 2013
User: price-jones
Dark Spectrum Present: No
Reference Spectrum Present: No
Number of Sampled Component Spectra: 1
Spectrometers: USB2+H05261
Integration Time (usec): 100000 (USB2+H05261)
Spectra Averaged: 1 (USB2+H05261)
Boxcar Smoothing: 0 (USB2+H05261)
Correct for Electrical Dark: No (USB2+H05261)
Strobe/Lamp Enabled: No (USB2+H05261)
Correct for Detector Non-linearity: No (USB2+H05261)
Correct for Stray Light: No (USB2+H05261)
Number of Pixels in Processed Spectrum: 2048
>>>>>Begin Processed Spectral Data<<<<<
365.73	177.88
365.92	177.88
366.12	177.88
366.32	63.19
366.52	0.00
366.72	70.22
366.91	35.11
367.11	72.56
367.31	0.00
367.51	46.81
367.70	37.45
367.90	46.81
368.10	65.54
368.30	126.39
368.49	35.11
368.69	128.73
368.89	11.70
369.09	44.47
369.28	2.34
369.48	86.60
369.68	119.37
369.87	112.35
370.07	93.62
370.27	119.37
370.47	201.29
370.66	346.40
370.86	395.55
371.06	409.59
371.25	493.85
371.45	414.27
371.65	393.21
371.84	458.74
372.04	454.06
372.24	451.72
372.44	461.09
372.63	421.30
372.83	571.09
373.03	491.51
373.22	416.62
373.42	484.49
373.62	507.90
373.81	498.53
374.01	559.39
374.21	477.47
374.40	456.40
374.60	535.98
374.79	575.77
374.99	545.34
375.19	592.16
375.38	543.00
375.58	493.85
375.78	526.62
375.97	550.03
376.17	535.98
376.37	550.03
376.56	578.11
376.76	603.86
376.95	636.63
377.15	617.90
377.35	613.22
377.54	615.56
377.74	533.64
377.93	552.37
378.13	585.13
378.33	589.82
378.52	547.69
378.72	624.92
378.91	667.05
379.11	582.79
379.31	704.50
379.50	587.47
379.70	587.47
379.89	650.67
380.09	650.67
380.28	669.39
380.48	645.99
380.68	648.33
380.87	636.63
381.07	620.24
381.26	720.88
381.46	674.07
381.65	674.07
381.85	645.99
382.04	692.80
382.24	655.35
382.43	711.52
382.63	657.69
382.83	617.90
383.02	709.18
383.22	711.52
383.41	777.06
383.61	674.07
383.80	702.16
384.00	791.10
384.19	695.14
384.39	699.82
384.58	683.44
384.78	732.59
384.97	847.27
385.17	791.10
385.36	737.27
385.56	772.38
385.75	791.10
385.95	814.51
386.14	809.83
386.34	737.27
386.53	802.80
386.72	760.67
386.92	844.93
387.11	873.02
387.31	875.36
387.50	837.91
387.70	866.00
387.89	814.51
388.09	830.89
388.28	826.21
388.48	828.55
388.67	765.36
388.86	854.30
389.06	809.83
389.25	887.06
389.45	887.06
389.64	926.85
389.84	940.90
390.03	896.43
390.22	863.66
390.42	833.23
390.61	842.59
390.81	828.55
391.00	889.40
391.19	1008.77
391.39	884.72
391.58	917.49
391.78	950.26
391.97	891.74
392.16	954.94
392.36	1011.11
392.55	905.79
392.75	959.62
392.94	917.49
393.13	912.81
393.33	847.27
393.52	929.19
393.71	1006.43
393.91	994.73
394.10	987.71
394.29	1062.60
394.49	1074.31
394.68	1102.39
394.88	1069.62
395.07	1057.92
395.26	1114.10
395.46	1104.73
395.65	1135.16
395.84	1083.67
396.04	1111.75
396.23	1064.94
396.42	1151.54
396.62	1200.69
396.81	1163.25
397.00	1097.71
397.19	1247.51
397.39	1160.91
397.58	1235.80
397.77	1261.55
397.97	1245.16
398.16	1261.55
398.35	1245.16
398.55	1289.64
398.74	1310.70
398.93	1266.23
399.12	1299.00
399.32	1306.02
399.51	1280.27
399.70	1439.43
399.90	1434.75
400.09	1306.02
400.28	1378.58
400.47	1345.81
400.67	1528.37
400.86	1373.89
401.05	1474.54
401.24	1430.07
401.44	1427.73
401.63	1392.62
401.82	1359.85
402.01	1572.84
402.21	1458.15
402.40	1542.41
402.59	1540.07
402.78	1495.60
402.97	1603.27
403.17	1589.22
403.36	1535.39
403.55	1533.05
403.74	1575.18
403.93	1596.25
404.13	1732.00
404.32	1629.01
404.51	1668.80
404.70	1661.78
404.89	1612.63
405.09	1689.87
405.28	1638.38
405.47	1746.04
405.66	1633.69
405.85	1696.89
406.05	1682.85
406.24	1699.23
406.43	1717.95
406.62	1809.23
406.81	1961.37
407.00	1774.13
407.20	1724.97
407.39	1874.77
407.58	1818.60
407.77	1851.36
407.96	1916.90
408.15	1919.24
408.34	1825.62
408.54	1928.60
408.73	1998.82
408.92	1923.92
409.11	2019.88
409.30	1942.64
409.49	1912.22
409.68	1968.39
409.87	2036.27
410.07	2015.20
410.26	2064.35
410.45	2036.27
410.64	2134.57
410.83	2202.44
411.02	2129.89
411.21	2167.34
411.40	2260.96
411.59	2237.55
411.78	2282.02
411.98	2286.70
412.17	2434.16
412.36	2289.04
412.55	2321.81
412.74	2349.90
412.93	2424.80
413.12	2338.20
413.31	2392.03
413.50	2401.39
413.69	2485.65
413.88	2518.42
414.07	2579.27
414.26	2597.99
414.45	2544.16
414.64	2562.89
414.83	2672.89
415.02	2668.21
415.22	2663.53
415.41	2698.64
415.60	2724.38
415.79	2731.41
415.98	2740.77
416.17	2918.65
416.36	2747.79
416.55	2825.03
416.74	2796.94
416.93	2862.48
417.12	2930.35
417.31	2986.52
417.50	2815.66
417.69	2899.92
417.88	2944.39
418.07	3019.29
418.26	2988.86
418.45	2981.84
418.64	3178.45
418.83	3133.98
419.02	3091.85
419.21	3164.40
419.39	3028.65
419.58	3098.87
419.77	3138.66
419.96	3119.93
420.15	3199.51
420.34	3213.56
420.53	3211.22
420.72	3307.18
420.91	3363.35
421.10	3300.16
421.29	3314.20
421.48	3393.78
421.67	3368.03
421.86	3288.45
422.05	3349.31
422.24	3365.69
422.43	3485.06
422.61	3330.58
422.80	3492.08
422.99	3449.95
423.18	3485.06
423.37	3548.25
423.56	3489.74
423.75	3368.03
423.94	3456.97
424.13	3183.13
424.32	3304.84
424.50	3510.80
424.69	3571.66
424.88	3557.61
425.07	3494.42
425.26	3499.10
425.45	3578.68
425.64	3391.44
425.83	3365.69
426.01	3527.19
426.20	3492.08
426.39	3534.21
426.58	3499.10
426.77	3431.23
426.96	3597.40
427.15	3588.04
427.33	3515.48
427.52	3655.92
427.71	3534.21
427.90	3611.45
428.09	3798.69
428.28	3763.58
428.46	3599.74
428.65	3653.58
428.84	3854.86
429.03	3845.50
429.22	3651.24
429.40	3660.60
429.59	3698.05
429.78	3700.39
429.97	3660.60
430.16	3674.64
430.34	3728.47
430.53	3885.29
430.72	3840.82
430.91	3892.31
431.10	3871.25
431.28	4067.85
431.47	3999.98
431.66	3995.29
431.85	4109.98
432.03	3997.64
432.22	4065.51
432.41	4100.62
432.60	4173.18
432.79	4124.02
432.97	4166.15
433.16	4259.78
433.35	4196.58
433.54	4170.83
433.72	4201.26
433.91	4236.37
434.10	4337.01
434.28	4063.17
434.47	4231.69
434.66	4383.82
434.85	4404.89
435.03	4351.06
435.22	4367.44
435.41	4435.32
435.59	4631.92
435.78	4344.03
435.97	4479.79
436.16	4393.19
436.34	4409.57
436.53	4489.15
436.72	4727.88
436.90	4500.85
437.09	4538.30
437.28	4463.40
437.46	4376.80
437.65	4400.21
437.84	4573.41
438.02	4671.71
438.21	4631.92
438.40	4669.37
438.58	4643.62
438.77	4870.65
438.96	4819.16
439.14	4990.02
439.33	4915.12
439.52	4922.15
439.70	4905.76
439.89	5064.92
440.08	4966.62
440.26	5050.88
440.45	5107.05
440.63	5132.79
440.82	5039.17
441.01	5156.20
441.19	5336.42
441.38	5350.46
441.57	5296.63
441.75	5336.42
441.94	5551.75
442.12	5518.98
442.31	5558.77
442.50	5636.01
442.68	5696.86
442.87	5603.24
443.05	5591.54
443.24	5631.33
443.43	5643.03
443.61	5706.23
443.80	5867.72
443.98	5563.45
444.17	5423.02
444.35	5799.85
444.54	5760.06
444.73	5696.86
444.91	5834.96
445.10	5600.90
445.28	5596.22
445.47	5614.95
445.65	5633.67
445.84	5851.34
446.02	5771.76
446.21	5809.21
446.39	5804.53
446.58	6078.37
446.77	5996.45
446.95	5731.97
447.14	5865.38
447.32	5973.05
447.51	5951.98
447.69	5898.15
447.88	5996.45
448.06	6022.20
448.25	5837.30
448.43	5921.56
448.62	5919.21
448.80	5778.78
448.99	5940.28
449.17	5970.71
449.36	5912.19
449.54	6071.35
449.73	6164.97
449.91	6164.97
450.10	6335.83
450.28	6387.32
450.46	6218.80
450.65	6298.38
450.83	6347.53
451.02	6183.70
451.20	6263.27
451.39	6277.32
451.57	6207.10
451.76	6310.08
451.94	6392.00
452.13	6420.09
452.31	6342.85
452.49	6246.89
452.68	6256.25
452.86	6384.98
453.05	6307.74
453.23	6672.87
453.42	6516.05
453.60	6307.74
453.78	6593.29
453.97	6473.92
454.15	6459.88
454.34	6544.14
454.52	6703.29
454.70	6553.50
454.89	6693.93
455.07	6677.55
455.26	6806.28
455.44	6726.70
455.62	6693.93
455.81	6668.19
455.99	6834.36
456.17	6913.94
456.36	6843.73
456.54	6855.43
456.73	6895.22
456.91	7124.59
457.09	7091.82
457.28	7384.39
457.46	6874.15
457.64	7173.74
457.83	7297.79
458.01	7091.82
458.19	7239.28
458.38	7190.13
458.56	7234.60
458.74	7222.89
458.93	7110.55
459.11	7236.94
459.29	7372.69
459.48	7566.95
459.66	7239.28
459.84	7391.41
460.03	7761.22
460.21	7581.00
460.39	7588.02
460.57	7550.57
460.76	7592.70
460.94	7496.74
461.12	7740.15
461.31	7798.66
461.49	7845.48
461.67	7627.81
461.85	7892.29
462.04	7581.00
462.22	8079.53
462.40	7913.35
462.59	7669.94
462.77	7936.76
462.95	7971.86
463.13	7915.69
463.32	7772.92
463.50	7988.25
463.68	8035.06
463.86	7932.08
464.05	7950.80
464.23	7808.03
464.41	8074.85
464.59	7934.42
464.78	8191.88
464.96	8093.57
465.14	8091.23
465.32	8138.04
465.50	8210.60
465.69	8280.82
465.87	8079.53
466.05	8201.24
466.23	8168.47
466.41	8119.32
466.60	8212.94
466.78	8175.49
466.96	8208.26
467.14	8348.69
467.32	8224.64
467.51	8243.37
467.69	8088.89
467.87	8390.82
468.05	8505.51
468.23	8446.99
468.41	8533.59
468.60	8634.24
468.78	8655.30
468.96	8388.48
469.14	8720.84
469.32	8936.17
469.50	8517.21
469.69	8769.99
469.87	8643.60
470.05	8624.87
470.23	8814.46
470.41	8774.67
470.59	8734.88
470.77	8765.31
470.95	9018.08
471.14	9020.42
471.32	8945.53
471.50	9111.71
471.68	9331.72
471.86	9149.15
472.04	9022.77
472.22	9233.41
472.40	9231.07
472.58	9249.80
472.77	9287.25
472.95	9497.89
473.13	9743.65
473.31	9301.29
473.49	9357.46
473.67	9404.27
473.85	9542.36
474.03	9460.45
474.21	9614.92
474.39	9881.74
474.57	9865.36
474.75	9942.60
474.93	9923.87
475.12	9832.59
475.30	9984.73
475.48	9970.68
475.66	10076.01
475.84	10015.15
476.02	10218.78
476.20	10272.61
476.38	10443.47
476.56	10850.72
476.74	10415.38
476.92	10438.79
477.10	10647.10
477.28	10696.25
477.46	10717.31
477.64	10703.27
477.82	11126.91
478.00	11215.85
478.18	11019.24
478.36	11122.23
478.54	11396.07
478.72	11428.84
478.90	11578.63
479.08	11609.06
479.26	11651.19
479.44	11936.73
479.62	11777.58
479.80	12009.29
479.98	11920.35
480.16	12311.22
480.34	12219.94
480.52	12168.45
480.70	12463.35
480.88	12161.42
481.06	12395.48
481.24	12638.89
481.41	12648.26
481.59	12727.83
481.77	12840.18
481.95	12975.93
482.13	13004.02
482.31	12865.92
482.49	13488.51
482.67	13348.08
482.85	13591.49
483.03	13523.62
483.21	13841.93
483.39	13855.97
483.57	13752.99
483.74	13893.42
483.92	14398.98
484.10	13886.40
484.28	14485.58
484.46	14448.13
484.64	14761.76
484.82	14417.70
485.00	14588.56
485.18	14663.46
485.35	14902.19
485.53	14803.89
485.71	14820.27
485.89	15190.08
486.07	14984.11
486.25	15190.08
486.43	15506.05
486.61	15583.29
486.78	15599.67
486.96	15714.36
487.14	15882.88
487.32	16217.57
487.50	16297.15
487.68	16339.28
487.85	16472.69
488.03	16617.80
488.21	16755.90
488.39	16720.79
488.57	16800.37
488.75	17179.53
488.92	17254.43
489.10	17146.76
489.28	17460.40
489.46	17827.86
489.64	17776.37
489.81	18038.51
489.99	18349.80
490.17	18029.15
490.35	18141.49
490.53	18389.59
490.70	18335.76
490.88	18405.97
491.06	18588.53
491.24	18764.07
491.41	18831.95
491.59	18836.63
491.77	19070.68
491.95	19239.20
492.13	19257.93
492.30	19503.68
492.48	19836.04
492.66	19777.53
492.84	19697.95
493.01	19920.30
493.19	19875.83
493.37	20393.09
493.54	20486.71
493.72	20545.22
493.90	20727.78
494.08	20844.81
494.25	20982.90
494.43	20819.07
494.61	20861.19
494.79	21575.06
494.96	21050.78
495.14	21205.25
495.32	21598.46
495.49	21287.17
495.67	21879.33
495.85	21970.61
496.02	21855.92
496.20	22127.42
496.38	22012.74
496.55	22169.55
496.73	22885.76
496.91	22553.40
497.09	22567.45
497.26	22494.89
497.44	22462.12
497.62	22782.77
497.79	22679.79
497.97	23094.07
498.14	23344.50
498.32	23133.86
498.50	23716.65
498.67	23833.68
498.85	23578.56
499.03	24121.56
499.20	23695.58
499.38	23761.12
499.56	23981.13
499.73	23910.91
499.91	24182.42
500.08	24360.30
500.26	24070.07
500.44	24432.85
500.61	24276.04
500.79	24294.76
500.97	24496.05
501.14	25008.62
501.32	24687.97
501.49	24854.15
501.67	25048.41
501.84	24926.71
502.02	25481.41
502.20	25495.46
502.37	25319.92
502.55	25710.78
502.72	25504.82
502.90	25603.12
503.07	25322.26
503.25	25996.33
503.43	25678.02
503.60	25575.03
503.78	25895.69
503.95	25607.80
504.13	25947.18
504.30	26202.30
504.48	26103.99
504.65	26176.55
504.83	26167.19
505.01	26768.71
505.18	26590.83
505.36	26822.54
505.53	26684.45
505.71	26927.86
505.88	27274.26
506.06	27002.76
506.23	26913.82
506.41	26698.49
506.58	27328.10
506.76	27215.75
506.93	27615.98
507.11	27601.94
507.28	27779.82
507.46	27372.57
507.63	27702.58
507.81	27241.50
507.98	27587.89
508.16	27953.02
508.33	28098.13
508.50	28622.41
508.68	28402.40
508.85	28393.04
509.03	28446.87
509.20	28641.14
509.38	28496.02
509.55	28664.54
509.73	28617.73
509.90	29174.78
510.08	28666.88
510.25	28683.27
510.42	28877.53
510.60	29151.37
510.77	29624.16
510.95	29181.80
511.12	29036.69
511.30	29556.28
511.47	29429.90
511.64	29605.44
511.82	29689.70
511.99	29909.71
512.17	29720.12
512.34	30106.31
512.51	30160.14
512.69	29996.31
512.86	30167.16
513.04	30361.43
513.21	30656.34
513.38	30272.49
513.56	30216.32
513.73	30534.63
513.90	30646.97
514.08	30398.88
514.25	30412.92
514.43	30635.27
514.60	31044.87
514.77	30967.63
514.95	30920.82
515.12	30778.04
515.29	30958.27
515.47	31164.23
515.64	31447.44
515.81	31194.66
515.99	31517.65
516.16	31021.46
516.33	31023.80
516.51	31475.52
516.68	31426.37
516.85	31381.90
517.03	31374.88
517.20	31370.20
517.37	31793.84
517.54	31847.67
517.72	31938.95
517.89	32149.60
518.06	31688.51
518.24	31988.10
518.41	31676.81
518.58	32025.55
518.75	32222.16
518.93	32561.53
519.10	32332.16
519.27	32606.00
519.45	32526.42
519.62	32701.96
519.79	32947.72
519.96	32879.85
520.14	33446.26
520.31	33027.30
520.48	33266.03
520.65	32931.34
520.83	33024.96
521.00	33350.29
521.17	33273.06
521.34	33235.61
521.52	33795.00
521.69	33387.74
521.86	33497.75
522.03	33926.07
522.20	33703.71
522.38	34007.98
522.55	33809.04
522.72	33638.18
522.89	33701.37
523.07	34448.00
523.24	34108.63
523.41	33921.38
523.58	33905.00
523.75	34471.41
523.92	34494.82
524.10	34864.62
524.27	34712.49
524.44	35051.86
524.61	34923.13
524.78	34998.03
524.96	34525.24
525.13	35154.85
525.30	34941.86
525.47	35262.51
525.64	34995.69
525.81	35044.84
525.98	34738.23
526.16	35103.35
526.33	34616.52
526.50	35358.47
526.67	35108.04
526.84	35346.77
527.01	35108.04
527.18	35442.73
527.36	35655.72
527.53	35615.93
527.70	35887.43
527.87	35627.63
528.04	35704.87
528.21	36051.27
528.38	35590.19
528.55	36278.30
528.72	36077.02
528.89	36313.41
529.07	36201.07
529.24	36177.66
529.41	36140.21
529.58	36046.59
529.75	35955.31
529.92	36636.41
530.09	36676.19
530.26	36790.88
530.43	36655.13
530.60	36465.55
530.77	36603.64
530.94	36816.63
531.11	36285.33
531.28	36947.70
531.46	36959.40
531.63	36994.51
531.80	36715.98
531.97	37123.24
532.14	36741.73
532.31	36973.44
532.48	37130.26
532.65	37432.19
532.82	36905.57
532.99	37141.96
533.16	37151.32
533.33	37221.54
533.50	37677.94
533.67	37141.96
533.84	37305.80
534.01	37361.97
534.18	37251.97
534.35	38000.94
534.52	37542.19
534.69	37708.37
534.86	37982.21
535.03	38080.52
535.20	37907.32
535.37	38705.44
535.54	38368.40
535.71	38101.58
535.88	37855.82
536.05	37830.08
536.22	38422.23
536.38	38127.33
536.55	38134.35
536.72	38518.20
536.89	37787.95
537.06	38155.41
537.23	38321.59
537.40	38412.87
537.57	38384.79
537.74	38298.19
537.91	39133.76
538.08	38813.10
538.25	38178.82
538.42	38738.21
538.59	38848.21
538.75	38623.52
538.92	39009.71
539.09	38782.68
539.26	38913.75
539.43	38520.54
539.60	38976.94
539.77	38979.28
539.94	39072.90
540.11	38602.46
540.28	39236.74
540.44	38993.32
540.61	39431.01
540.78	38920.77
540.95	38752.25
541.12	38939.49
541.29	39363.13
541.46	39274.19
541.62	39543.35
541.79	39763.36
541.96	39143.12
542.13	39295.25
542.30	39372.49
542.47	39662.72
542.63	39594.84
542.80	39594.84
542.97	39786.77
543.14	39959.97
543.31	40306.37
543.48	40119.12
543.64	40512.33
543.81	40493.61
543.98	40526.38
544.15	40561.48
544.32	40334.45
544.48	40886.82
544.65	40456.16
544.82	40381.26
544.99	39913.16
545.16	40109.76
545.32	40465.52
545.49	40727.66
545.66	40191.68
545.83	41017.89
546.00	40634.04
546.16	40589.57
546.33	40643.40
546.50	40336.79
546.67	40692.55
546.83	40720.64
547.00	40975.76
547.17	40732.34
547.34	40762.77
547.50	40931.29
547.67	40774.47
547.84	41167.68
548.00	41455.57
548.17	41235.56
548.34	40858.73
548.51	41572.60
548.67	41186.41
548.84	41387.69
549.01	41315.14
549.18	41242.58
549.34	41937.72
549.51	41706.01
549.68	41598.34
549.84	41790.27
550.01	41883.89
550.18	41366.63
550.34	41603.02
550.51	41312.80
550.68	41469.61
550.84	41399.40
551.01	41631.11
551.18	41378.33
551.34	41928.36
551.51	41790.27
551.68	42026.66
551.84	41790.27
552.01	41823.03
552.18	41493.02
552.34	41904.95
552.51	42677.33
552.68	42080.49
552.84	42288.80
553.01	42429.23
553.18	41762.18
553.34	41954.10
553.51	41979.85
553.67	41996.23
553.84	42284.12
554.01	42466.68
554.17	42504.13
554.34	42541.58
554.51	42579.03
554.67	42724.14
554.84	42213.90
555.00	42270.08
555.17	42010.28
555.33	42389.44
555.50	42665.63
555.67	42527.53
555.83	42499.45
556.00	42724.14
556.16	43154.80
556.33	43086.92
556.50	42902.02
556.66	43012.02
556.83	42387.10
556.99	43173.52
557.16	42848.19
557.32	43044.79
557.49	42967.55
557.65	42424.55
557.82	42770.95
557.98	42801.38
558.15	42944.15
558.32	43199.27
558.48	42974.58
558.65	43131.39
558.81	42979.26
558.98	43005.00
559.14	43220.33
559.31	43248.42
559.47	42820.10
559.64	43210.97
559.80	43725.89
559.97	43430.98
560.13	43098.62
560.30	43192.25
560.46	43363.11
560.63	42988.62
560.79	43316.29
560.96	43318.64
561.12	43150.12
561.29	43105.65
561.45	43756.32
561.61	42801.38
561.78	43246.08
561.94	43115.01
562.11	43335.02
562.27	43480.13
562.44	42974.58
562.60	43861.64
562.77	43255.44
562.93	43339.70
563.10	43445.02
563.26	43203.95
563.42	43573.75
563.59	43569.07
563.75	43828.87
563.92	43337.36
564.08	43592.48
564.24	44299.32
564.41	43693.12
564.57	43583.12
564.74	43770.36
564.90	43379.49
565.07	43880.36
565.23	43688.44
565.39	43344.38
565.56	43924.83
565.72	43875.68
565.88	43821.85
566.05	43782.06
566.21	43643.97
566.38	43597.16
566.54	43466.09
566.70	43805.47
566.87	44194.00
567.03	43856.96
567.19	44161.23
567.36	43746.95
567.52	43601.84
567.68	44016.11
567.85	44030.16
568.01	43777.38
568.17	43449.70
568.34	44051.22
568.50	43676.74
568.66	43564.39
568.83	44002.07
568.99	43793.76
569.15	43786.74
569.32	43608.86
569.48	43531.62
569.64	44058.24
569.81	43957.60
569.97	43590.14
570.13	43695.46
570.30	43615.88
570.46	43292.89
570.62	43543.33
570.78	43618.22
570.95	44275.91
571.11	44531.03
571.27	43906.11
571.43	44292.30
571.60	44079.31
571.76	44123.78
571.92	43842.92
572.09	44177.61
572.25	44002.07
572.41	43842.92
572.57	44362.51
572.74	44334.43
572.90	44355.49
573.06	43592.48
573.22	44030.16
573.38	44179.95
573.55	43929.51
573.71	43758.66
573.87	44034.84
574.03	44058.24
574.20	44402.30
574.36	44083.99
574.52	44067.61
574.68	44289.96
574.84	43882.70
575.01	44306.34
575.17	44156.55
575.33	43964.62
575.49	44095.69
575.65	44435.07
575.82	44566.14
575.98	44465.50
576.14	44388.26
576.30	44196.34
576.46	44189.31
576.62	43543.33
576.79	44128.46
576.95	43676.74
577.11	44507.63
577.27	44135.48
577.43	44154.21
577.59	44243.15
577.75	43999.73
577.92	44311.02
578.08	44514.65
578.24	43716.53
578.40	44697.21
578.56	44264.21
578.72	44343.79
578.88	44304.00
579.04	44444.43
579.21	44294.64
579.37	44385.92
579.53	44018.46
579.69	43959.94
579.85	44708.91
580.01	44453.79
580.17	44156.55
580.33	44486.56
580.49	44023.14
580.65	44315.70
580.82	44264.21
580.98	44273.57
581.14	44076.97
581.30	44346.13
581.46	44385.92
581.62	44624.65
581.78	44392.94
581.94	44987.44
582.10	43981.01
582.26	44456.14
582.42	44367.20
582.58	44215.06
582.74	43646.31
582.90	44634.02
583.06	44414.01
583.22	44329.75
583.38	44795.51
583.54	44285.28
583.70	44467.84
583.86	44231.44
584.02	44170.59
584.18	44196.34
584.34	44397.62
584.50	44385.92
584.66	44446.77
584.82	44362.51
584.98	44634.02
585.14	44533.37
585.30	44287.62
585.46	44414.01
585.62	44032.50
585.78	44280.60
585.94	43931.86
586.10	44385.92
586.26	44327.41
586.42	44788.49
586.58	44542.74
586.74	44500.61
586.90	44830.62
587.06	44170.59
587.22	44395.28
587.38	44093.35
587.54	44451.45
587.70	44755.72
587.86	44678.49
588.02	44673.81
588.18	45111.49
588.34	44673.81
588.49	43805.47
588.65	44299.32
588.81	44299.32
588.97	44203.36
589.13	44329.75
589.29	44367.20
589.45	44320.38
589.61	44240.81
589.77	44942.97
589.93	44278.25
590.08	44563.80
590.24	44886.79
590.40	45024.89
590.56	44949.99
590.72	44725.30
590.88	44739.34
591.04	44643.38
591.20	44687.85
591.35	44996.80
591.51	45188.72
591.67	44643.38
591.83	44605.93
591.99	44666.78
592.15	44615.29
592.31	45017.86
592.46	44849.35
592.62	44486.56
592.78	44809.56
592.94	45006.16
593.10	44891.48
593.26	44671.46
593.41	44460.82
593.57	44011.43
593.73	44634.02
593.89	44793.17
594.05	44287.62
594.20	44865.73
594.36	44741.68
594.52	44877.43
594.68	44949.99
594.84	44797.85
594.99	44971.05
595.15	44872.75
595.31	45113.83
595.47	45090.42
595.62	44790.83
595.78	44924.24
595.94	44961.69
596.10	44935.95
596.25	44790.83
596.41	44708.91
596.57	45074.04
596.73	44758.06
596.88	44383.58
597.04	44725.30
597.20	44631.68
597.36	44669.12
597.51	45303.41
597.67	45003.82
597.83	45141.91
597.99	44973.39
598.14	44964.03
598.30	45043.61
598.46	45013.18
598.61	45074.04
598.77	44697.21
598.93	45280.00
599.09	45130.21
599.24	45315.11
599.40	45069.36
599.56	45052.97
599.71	44720.62
599.87	45055.31
600.03	44507.63
600.18	44800.19
600.34	44905.52
600.50	44697.21
600.65	44687.85
600.81	45174.68
600.97	45343.20
601.12	45382.99
601.28	45684.92
601.44	44708.91
601.59	44746.36
601.75	44814.24
601.91	44591.89
602.06	44821.26
602.22	45116.17
602.37	44652.74
602.53	45017.86
602.69	44856.37
602.84	44657.42
603.00	45146.59
603.16	45137.23
603.31	45024.89
603.47	44514.65
603.62	44676.15
603.78	44767.43
603.94	44891.48
604.09	45394.69
604.25	44701.89
604.40	44980.42
604.56	45130.21
604.71	45076.38
604.87	44603.59
605.03	45303.41
605.18	44657.42
605.34	45050.63
605.49	44528.69
605.65	44727.64
605.80	44718.28
605.96	44762.75
606.12	44751.04
606.27	45333.84
606.43	44655.08
606.58	44940.63
606.74	44528.69
606.89	44701.89
607.05	44336.77
607.20	44816.58
607.36	44678.49
607.51	45099.78
607.67	44844.66
607.82	44619.97
607.98	44392.94
608.13	44332.09
608.29	44732.32
608.44	44184.63
608.60	44037.18
608.75	44603.59
608.91	44072.29
609.06	44619.97
609.22	44865.73
609.37	44444.43
609.53	44126.12
609.68	44477.20
609.84	44493.58
609.99	44341.45
610.15	44247.83
610.30	44458.48
610.46	44568.48
610.61	44268.89
610.76	44528.69
610.92	44299.32
611.07	44526.35
611.23	43943.56
611.38	44006.75
611.54	44013.77
611.69	44507.63
611.84	44165.91
612.00	44079.31
612.15	44364.85
612.31	44346.13
612.46	44299.32
612.62	43910.79
612.77	44233.78
612.92	44198.68
613.08	43789.08
613.23	43988.03
613.39	44418.69
613.54	43709.50
613.69	44233.78
613.85	43377.15
614.00	44058.24
614.15	44184.63
614.31	44144.84
614.46	44612.95
614.62	43667.37
614.77	43936.54
614.92	43892.07
615.08	43749.29
615.23	43955.26
615.38	43945.90
615.54	43847.60
615.69	43934.20
615.84	43360.76
616.00	43414.60
616.15	43416.94
616.30	43845.26
616.46	43456.73
616.61	43276.51
616.76	43887.39
616.92	43292.89
617.07	43208.63
617.22	43447.36
617.37	43407.58
617.53	43496.52
617.68	43475.45
617.83	43311.61
617.99	43592.48
618.14	43751.63
618.29	43086.92
618.45	43166.50
618.60	43416.94
618.75	43421.62
618.90	43438.00
619.06	43388.85
619.21	43306.93
619.36	43606.52
619.51	43152.46
619.67	43337.36
619.82	43154.80
619.97	43419.28
620.12	42976.92
620.28	42747.54
620.43	42763.93
620.58	43583.12
620.73	43232.04
620.89	43225.01
621.04	43402.89
621.19	42951.17
621.34	42918.40
621.49	42770.95
621.65	42646.90
621.80	42906.70
621.95	42728.82
622.10	43110.33
622.25	42593.07
622.41	42600.09
622.56	42562.64
622.71	42927.77
622.86	42572.00
623.01	42623.50
623.16	42796.70
623.32	43115.01
623.47	42934.79
623.62	42632.86
623.77	42246.67
623.92	42504.13
624.07	41993.89
624.23	42415.19
624.38	41897.93
624.53	42923.08
624.68	42628.18
624.83	42197.52
624.98	42019.64
625.13	42225.60
625.29	42188.16
625.44	42174.11
625.59	41963.46
625.74	41893.25
625.89	41490.68
626.04	42059.43
626.19	42609.45
626.34	42024.32
626.49	42202.20
626.65	42202.20
626.80	41764.52
626.95	41539.83
627.10	41876.86
627.25	42040.70
627.40	41462.59
627.55	41450.89
627.70	41310.46
627.85	41736.43
628.00	41993.89
628.15	42094.53
628.30	41514.08
628.45	42270.08
628.60	41563.23
628.76	42005.59
628.91	41837.08
629.06	41886.23
629.21	41937.72
629.36	41736.43
629.51	41134.92
629.66	41345.56
629.81	41401.74
629.96	41336.20
630.11	41549.19
630.26	41282.37
630.41	41670.90
630.56	41446.21
630.71	40926.61
630.86	41153.64
631.01	41214.49
631.16	41394.71
631.31	40968.74
631.46	40774.47
631.61	41118.53
631.76	40814.26
631.91	41219.17
632.06	41188.75
632.21	41085.76
632.36	41502.38
632.51	41284.71
632.66	41001.50
632.81	40917.25
632.96	40657.45
633.10	40774.47
633.25	40935.97
633.40	40924.27
633.55	40783.83
633.70	41221.52
633.85	40769.79
634.00	40751.07
634.15	40788.52
634.30	40493.61
634.45	40299.34
634.60	40828.30
634.75	40704.26
634.90	40636.38
635.05	40701.92
635.19	40540.42
635.34	40584.89
635.49	41069.38
635.64	40381.26
635.79	40428.07
635.94	40437.44
636.09	40184.66
636.24	39997.41
636.39	39791.45
636.53	40170.61
636.68	39906.13
636.83	40116.78
636.98	40509.99
637.13	39735.27
637.28	40357.86
637.43	40540.42
637.57	40325.09
637.72	40463.18
637.87	40509.99
638.02	40039.54
638.17	40107.42
638.32	39882.73
638.46	39789.11
638.61	39377.17
638.76	39431.01
638.91	39552.71
639.06	39634.63
639.20	40210.40
639.35	39564.42
639.50	39721.23
639.65	40067.63
639.80	39903.79
639.94	39861.66
640.09	39728.25
640.24	39725.91
640.39	39353.77
640.54	39735.27
640.68	39395.90
640.83	39892.09
640.98	39152.48
641.13	39552.71
641.27	39744.64
641.42	39688.46
641.57	39779.74
641.72	39786.77
641.86	39475.48
642.01	39409.94
642.16	39321.00
642.31	39220.36
642.45	39100.99
642.60	39164.18
642.75	39292.91
642.90	39227.38
643.04	38775.66
643.19	39103.33
643.34	39271.85
643.48	39285.89
643.63	39143.12
643.78	38792.04
643.93	39051.84
644.07	39023.75
644.22	38948.85
644.37	39138.44
644.51	38761.61
644.66	38920.77
644.81	38883.32
644.95	39047.16
645.10	39054.18
645.25	39321.00
645.39	38787.36
645.54	38927.79
645.69	38890.34
645.83	38424.57
645.98	38770.97
646.13	39084.61
646.27	38962.90
646.42	38536.92
646.57	38728.84
646.71	38576.71
646.86	38693.74
647.00	38532.24
647.15	38873.96
647.30	38782.68
647.44	38377.76
647.59	38300.53
647.74	38384.79
647.88	38150.73
648.03	38480.75
648.17	38375.42
648.32	38087.54
648.47	37930.72
648.61	38227.97
648.76	38366.06
648.90	38316.91
649.05	38253.72
649.20	38333.29
649.34	38000.94
649.49	38075.84
649.63	38314.57
649.78	38417.55
649.92	37684.97
650.07	38167.12
650.21	37818.38
650.36	38106.26
650.51	37888.59
650.65	38607.14
650.80	38422.23
650.94	38120.31
651.09	38424.57
651.23	37958.81
651.38	37799.65
651.52	38120.31
651.67	37869.87
651.81	37818.38
651.96	37457.93
652.10	37556.24
652.25	37450.91
652.39	37731.78
652.54	37886.25
652.68	37883.91
652.83	37759.86
652.97	37919.02
653.12	37596.03
653.26	37596.03
653.41	37762.20
653.55	37668.58
653.70	37558.58
653.84	37092.81
653.99	37436.87
654.13	37448.57
654.27	37500.06
654.42	37490.70
654.56	37235.58
654.71	37626.45
654.85	37137.28
655.00	37511.77
655.14	37350.27
655.29	36620.02
655.43	36617.68
655.57	36737.05
655.72	36800.24
655.86	36861.10
656.01	37008.55
656.15	37053.02
656.30	37125.58
656.44	36411.71
656.58	36938.33
656.73	36528.74
656.87	36821.31
657.01	36648.11
657.16	36273.62
657.30	36624.70
657.45	36381.29
657.59	36629.38
657.73	36739.39
657.88	36863.44
658.02	36554.49
658.16	36814.29
658.31	36465.55
658.45	36285.33
658.60	36584.91
658.74	37048.34
658.88	36872.80
659.03	36474.91
659.17	35920.20
659.31	36521.72
659.46	36098.08
659.60	36027.87
659.74	35901.48
659.89	35831.26
660.03	35974.03
660.17	36601.30
660.32	35873.39
660.46	36224.47
660.60	36163.62
660.74	36079.36
660.89	35955.31
661.03	35449.75
661.17	35835.94
661.32	35552.74
661.46	35337.41
661.60	34845.90
661.74	35716.58
661.89	35370.18
662.03	35566.78
662.17	35615.93
662.31	35613.59
662.46	35346.77
662.60	35945.95
662.74	35285.92
662.88	35030.80
663.03	35398.26
663.17	35370.18
663.31	35042.50
663.45	34969.94
663.60	35274.21
663.74	34595.46
663.88	34958.24
664.02	34752.27
664.17	34848.24
664.31	34223.31
664.45	34574.39
664.59	34799.08
664.73	34558.01
664.88	34665.67
665.02	34293.53
665.16	34574.39
665.30	34675.04
665.44	34157.78
665.59	34054.79
665.73	33968.19
665.87	33736.48
666.01	34080.54
666.15	33972.88
666.29	33937.77
666.44	34328.64
666.58	34382.47
666.72	34473.75
666.86	34117.99
667.00	33867.55
667.14	34024.37
667.28	33750.52
667.43	33640.52
667.57	33441.57
667.71	33572.64
667.85	33579.67
667.99	33404.13
668.13	33579.67
668.27	33153.69
668.41	33574.98
668.56	32952.40
668.70	33443.91
668.84	33057.73
668.98	33053.05
669.12	33060.07
669.26	33567.96
669.40	33081.13
669.54	32952.40
669.68	33024.96
669.82	32833.04
669.96	32797.93
670.10	32421.10
670.25	32264.28
670.39	33022.62
670.53	32498.34
670.67	32212.79
670.81	32299.39
670.95	32552.17
671.09	32261.94
671.23	32596.64
671.37	32369.61
671.51	32053.64
671.65	32243.22
671.79	31779.79
671.93	31962.36
672.07	32053.64
672.21	32058.32
672.35	31445.10
672.49	31728.30
672.63	31573.83
672.77	31470.84
672.91	31718.94
673.05	31630.00
673.19	31236.79
673.33	31131.47
673.47	31185.30
673.61	31056.57
673.75	30845.92
673.89	30995.71
674.03	30986.35
674.17	30560.37
674.31	30864.64
674.45	30895.07
674.59	30649.32
674.73	31307.01
674.87	31257.85
675.01	30799.11
675.15	30752.30
675.29	30724.21
675.43	30363.77
675.56	30646.97
675.70	30101.63
675.84	30419.94
675.98	29174.78
676.12	29788.00
676.26	30050.14
676.40	29701.40
676.54	29947.15
676.68	29795.02
676.82	29195.84
676.96	29474.37
677.10	29415.85
677.23	29359.68
677.37	29172.44
677.51	29305.85
677.65	28924.34
677.79	28779.23
677.93	28842.42
678.07	28617.73
678.21	28772.21
678.34	28570.92
678.48	28093.45
678.62	28409.42
678.76	28659.86
678.90	28074.73
679.04	28379.00
679.18	28247.93
679.31	28147.28
679.45	27733.01
679.59	27342.14
679.73	27557.47
679.87	27728.33
680.00	27491.93
680.14	27496.61
680.28	27262.56
680.42	27386.61
680.56	27527.04
680.70	27435.76
680.83	27264.90
680.97	27094.04
681.11	26354.43
681.25	26822.54
681.39	26792.11
681.52	27105.74
681.66	26368.48
681.80	26597.85
681.94	26625.93
682.07	26345.07
682.21	26260.81
682.35	26307.62
682.49	26258.47
682.62	26148.46
682.76	25764.62
682.90	25993.99
683.04	26010.37
683.17	25661.63
683.31	26141.44
683.45	25804.41
683.59	25530.56
683.72	25296.51
683.86	25233.32
684.00	25294.17
684.13	25067.14
684.27	25319.92
684.41	25483.75
684.55	24762.87
684.68	24547.54
684.82	24772.23
684.96	24730.10
685.09	24687.97
685.23	24545.20
685.37	24446.90
685.50	24533.50
685.64	24608.39
685.78	24379.02
685.91	24407.11
686.05	24121.56
686.19	23810.27
686.32	23711.97
686.46	23508.34
686.60	23330.46
686.73	23482.59
686.87	23084.70
687.01	23232.16
687.14	23316.42
687.28	23178.33
687.42	22986.40
687.55	22867.03
687.69	22789.80
687.82	22658.73
687.96	22822.56
688.10	22600.21
688.23	22370.84
688.37	22356.80
688.50	22427.01
688.64	22349.78
688.78	22429.35
688.91	21858.26
689.05	22207.00
689.18	21668.68
689.32	21652.30
689.46	21909.75
689.59	22075.93
689.73	22089.98
689.86	21535.27
690.00	21497.82
690.13	21439.31
690.27	21451.01
690.41	21406.54
690.54	21226.32
690.68	21357.39
690.81	21263.77
690.95	20973.54
691.08	20896.30
691.22	21092.91
691.35	20676.29
691.49	21027.37
691.62	20772.25
691.76	20636.50
691.89	20402.45
692.03	20475.01
692.16	20049.03
692.30	20262.02
692.43	20147.33
692.57	19807.95
692.70	20219.89
692.84	19786.89
692.97	19660.50
693.11	19370.27
693.24	19438.15
693.38	19445.17
693.51	19524.75
693.65	19742.42
693.78	19693.27
693.92	19274.31
694.05	19332.82
694.19	19271.97
694.32	18946.64
694.45	19138.56
694.59	18822.59
694.72	19140.90
694.86	18689.18
694.99	18359.16
695.13	18569.81
695.26	18319.37
695.39	18387.25
695.53	18429.38
695.66	18153.20
695.80	18111.07
695.93	18288.95
696.07	17729.56
696.20	17832.54
696.33	17858.29
696.47	17649.98
696.60	17900.42
696.73	17767.01
696.87	17755.30
697.00	17797.43
697.14	17476.78
697.27	17680.41
697.40	17631.26
697.54	17434.65
697.67	17104.64
697.80	17315.28
697.94	17048.46
698.07	17128.04
698.21	16786.32
698.34	16945.48
698.47	16959.52
698.61	16716.11
698.74	16306.51
698.87	16299.49
699.01	16418.86
699.14	16271.40
699.27	16409.50
699.40	16170.76
699.54	15948.41
699.67	15939.05
699.80	16107.57
699.94	15840.75
700.07	15674.57
700.20	15929.69
700.34	15669.89
700.47	15646.48
700.60	16084.16
700.73	15695.63
700.87	15740.10
701.00	15580.95
701.13	15583.29
701.26	15470.94
701.40	15321.15
701.53	15073.05
701.66	15136.24
701.79	15272.00
701.93	14778.14
702.06	14951.34
702.19	15033.26
702.32	14871.76
702.46	14560.47
702.59	14291.31
702.72	14633.03
702.85	14494.94
702.99	14452.81
703.12	14738.35
703.25	14637.71
703.38	14555.79
703.51	14295.99
703.65	14001.08
703.78	14099.39
703.91	14260.88
704.04	14167.26
704.17	14113.43
704.31	13916.83
704.44	13680.43
704.57	13397.23
704.70	13476.80
704.83	13795.12
704.96	13701.50
705.10	13650.00
705.23	13659.37
>>>>>End Processed Spectral Data<<<<<
