SpectraSuite Data File
++++++++++++++++++++++++++++++++++++
Date: Fri Oct 25 10:47:08 EDT 2013
User: price-jones
Dark Spectrum Present: No
Reference Spectrum Present: No
Number of Sampled Component Spectra: 1
Spectrometers: USB2+H05261
Integration Time (usec): 100000 (USB2+H05261)
Spectra Averaged: 1 (USB2+H05261)
Boxcar Smoothing: 0 (USB2+H05261)
Correct for Electrical Dark: No (USB2+H05261)
Strobe/Lamp Enabled: No (USB2+H05261)
Correct for Detector Non-linearity: No (USB2+H05261)
Correct for Stray Light: No (USB2+H05261)
Number of Pixels in Processed Spectrum: 2048
>>>>>Begin Processed Spectral Data<<<<<
365.73	117.03
365.92	117.03
366.12	117.03
366.32	119.37
366.52	4.68
366.72	46.81
366.91	51.49
367.11	63.19
367.31	18.72
367.51	30.43
367.70	28.09
367.90	81.92
368.10	32.77
368.30	0.00
368.49	86.60
368.69	98.30
368.89	77.24
369.09	72.56
369.28	119.37
369.48	81.92
369.68	100.64
369.87	72.56
370.07	95.96
370.27	180.22
370.47	187.24
370.66	294.91
370.86	351.08
371.06	468.11
371.25	437.68
371.45	428.32
371.65	449.38
371.84	388.53
372.04	425.98
372.24	472.79
372.44	470.45
372.63	449.38
372.83	463.43
373.03	531.30
373.22	528.96
373.42	470.45
373.62	568.75
373.81	533.64
374.01	526.62
374.21	526.62
374.40	505.56
374.60	660.03
374.79	538.32
374.99	585.13
375.19	528.96
375.38	559.39
375.58	561.73
375.78	627.26
375.97	585.13
376.17	599.18
376.37	547.69
376.56	559.39
376.76	554.71
376.95	557.05
377.15	564.07
377.35	580.45
377.54	627.26
377.74	641.31
377.93	608.54
378.13	631.94
378.33	643.65
378.52	543.00
378.72	688.12
378.91	592.16
379.11	554.71
379.31	631.94
379.50	636.63
379.70	674.07
379.89	688.12
380.09	645.99
380.28	606.20
380.48	587.47
380.68	580.45
380.87	636.63
381.07	671.73
381.26	695.14
381.46	676.41
381.65	748.97
381.85	695.14
382.04	648.33
382.24	627.26
382.43	664.71
382.63	688.12
382.83	748.97
383.02	664.71
383.22	711.52
383.41	674.07
383.61	725.57
383.80	737.27
384.00	802.80
384.19	709.18
384.39	685.78
384.58	697.48
384.78	744.29
384.97	779.40
385.17	744.29
385.36	716.20
385.56	702.16
385.75	763.01
385.95	793.44
386.14	819.19
386.34	734.93
386.53	739.61
386.72	837.91
386.92	786.42
387.11	734.93
387.31	854.30
387.50	784.08
387.70	807.48
387.89	751.31
388.09	802.80
388.28	812.17
388.48	844.93
388.67	770.04
388.86	819.19
389.06	880.04
389.25	823.87
389.45	887.06
389.64	882.38
389.84	863.66
390.03	964.30
390.22	931.53
390.42	901.11
390.61	936.21
390.81	926.85
391.00	908.13
391.19	1043.88
391.39	903.45
391.58	940.90
391.78	985.37
391.97	933.87
392.16	924.51
392.36	938.55
392.55	966.64
392.75	1055.58
392.94	912.81
393.13	943.24
393.33	1015.79
393.52	1018.13
393.71	1076.65
393.91	1022.81
394.10	945.58
394.29	1036.86
394.49	1090.69
394.68	1053.24
394.88	1114.10
395.07	1142.18
395.26	1167.93
395.46	1074.31
395.65	1109.41
395.84	1071.97
396.04	1196.01
396.23	1137.50
396.42	1123.46
396.62	1149.20
396.81	1116.44
397.00	1104.73
397.19	1055.58
397.39	1179.63
397.58	1275.59
397.77	1261.55
397.97	1238.14
398.16	1345.81
398.35	1277.93
398.55	1177.29
398.74	1249.85
398.93	1317.72
399.12	1296.66
399.32	1296.66
399.51	1334.11
399.70	1313.04
399.90	1273.25
400.09	1322.40
400.28	1490.92
400.47	1364.53
400.67	1462.83
400.86	1453.47
401.05	1448.79
401.24	1366.87
401.44	1322.40
401.63	1448.79
401.82	1493.26
402.01	1535.39
402.21	1462.83
402.40	1511.99
402.59	1523.69
402.78	1563.48
402.97	1565.82
403.17	1437.09
403.36	1624.33
403.55	1561.14
403.74	1540.07
403.93	1598.59
404.13	1633.69
404.32	1673.48
404.51	1678.16
404.70	1729.66
404.89	1633.69
405.09	1795.19
405.28	1689.87
405.47	1647.74
405.66	1699.23
405.85	1755.40
406.05	1842.00
406.24	1696.89
406.43	1858.39
406.62	1743.70
406.81	1806.89
407.00	1760.08
407.20	1898.17
407.39	1823.28
407.58	1853.70
407.77	1959.03
407.96	1966.05
408.15	1909.88
408.34	2012.86
408.54	1830.30
408.73	1914.56
408.92	1989.46
409.11	2031.58
409.30	1994.14
409.49	1942.64
409.68	2078.40
409.87	1944.99
410.07	2148.61
410.26	2132.23
410.45	2052.65
410.64	2129.89
410.83	2101.80
411.02	2237.55
411.21	2216.49
411.40	2221.17
411.59	2366.28
411.78	2256.28
411.98	2232.87
412.17	2279.68
412.36	2293.72
412.55	2275.00
412.74	2492.67
412.93	2434.16
413.12	2443.52
413.31	2466.92
413.50	2452.88
413.69	2410.75
413.88	2574.59
414.07	2422.45
414.26	2530.12
414.45	2595.65
414.64	2656.51
414.83	2602.68
415.02	2640.12
415.22	2780.56
415.41	2715.02
415.60	2757.15
415.79	2738.43
415.98	2862.48
416.17	2782.90
416.36	2729.06
416.55	2827.37
416.74	2942.05
416.93	2874.18
417.12	2864.82
417.31	2892.90
417.50	2911.63
417.69	3066.10
417.88	2951.42
418.07	2993.55
418.26	3082.49
418.45	3002.91
418.64	3136.32
418.83	3159.72
419.02	3023.97
419.21	3038.02
419.39	3164.40
419.58	3091.85
419.77	3075.46
419.96	3288.45
420.15	3194.83
420.34	3255.69
420.53	3159.72
420.72	3283.77
420.91	3211.22
421.10	3377.39
421.29	3410.16
421.48	3375.05
421.67	3426.54
421.86	3251.00
422.05	3353.99
422.24	3335.26
422.43	3494.42
422.61	3485.06
422.80	3581.02
422.99	3407.82
423.18	3410.16
423.37	3478.04
423.56	3529.53
423.75	3508.46
423.94	3316.54
424.13	3267.39
424.32	3323.56
424.50	3487.40
424.69	3555.27
424.88	3574.00
425.07	3417.18
425.26	3538.89
425.45	3468.67
425.64	3302.50
425.83	3510.80
426.01	3559.95
426.20	3571.66
426.39	3545.91
426.58	3475.70
426.77	3595.06
426.96	3426.54
427.15	3510.80
427.33	3592.72
427.52	3611.45
427.71	3529.53
427.90	3623.15
428.09	3801.03
428.28	3777.62
428.46	3634.85
428.65	3637.19
428.84	3922.74
429.03	3770.60
429.22	3784.65
429.40	3695.71
429.59	3730.81
429.78	3585.70
429.97	3606.77
430.16	3712.09
430.34	3648.90
430.53	3761.24
430.72	3857.20
430.91	3908.69
431.10	3868.91
431.28	3943.80
431.47	4084.23
431.66	3992.95
431.85	3981.25
432.03	4079.55
432.22	4196.58
432.41	4084.23
432.60	4152.11
432.79	4042.11
432.97	4234.03
433.16	4093.60
433.35	4201.26
433.54	4138.07
433.72	4280.84
433.91	4339.35
434.10	4154.45
434.28	4315.95
434.47	4313.61
434.66	4339.35
434.85	4489.15
435.03	4479.79
435.22	4411.91
435.41	4440.00
435.59	4489.15
435.78	4557.02
435.97	4510.21
436.16	4571.07
436.34	4479.79
436.53	4489.15
436.72	4723.20
436.90	4461.06
437.09	4594.47
437.28	4503.19
437.46	4617.88
437.65	4610.86
437.84	4711.50
438.02	4615.54
438.21	4582.77
438.40	4540.64
438.58	4798.10
438.77	4919.81
438.96	4770.01
439.14	4875.34
439.33	4877.68
439.52	4931.51
439.70	4802.78
439.89	4999.38
440.08	5181.95
440.26	5221.74
440.45	5090.67
440.63	5036.83
440.82	5205.35
441.01	5305.99
441.19	5282.59
441.38	5261.52
441.57	5359.83
441.75	5441.75
441.94	5474.51
442.12	5418.34
442.31	5628.99
442.50	5572.82
442.68	5518.98
442.87	5591.54
443.05	5675.80
443.24	5650.05
443.43	5724.95
443.61	5551.75
443.80	5811.55
443.98	5703.89
444.17	5504.94
444.35	5865.38
444.54	5734.31
444.73	5685.16
444.91	5708.57
445.10	5792.83
445.28	5584.52
445.47	5738.99
445.65	5776.44
445.84	5760.06
446.02	5818.57
446.21	5944.96
446.39	5734.31
446.58	5902.83
446.77	5973.05
446.95	5694.52
447.14	5966.03
447.32	6001.13
447.51	5851.34
447.69	5867.72
447.88	6080.71
448.06	5966.03
448.25	5994.11
448.43	5898.15
448.62	6029.22
448.80	5891.13
448.99	6038.58
449.17	5942.62
449.36	5991.77
449.54	6181.35
449.73	6076.03
449.91	6211.78
450.10	6214.12
450.28	6260.93
450.46	6368.60
450.65	6256.25
450.83	6438.81
451.02	6235.19
451.20	6321.79
451.39	6361.58
451.57	6394.34
451.76	6258.59
451.94	6312.42
452.13	6590.95
452.31	6450.52
452.49	6366.26
452.68	6415.41
452.86	6420.09
453.05	6420.09
453.23	6583.93
453.42	6303.06
453.60	6399.02
453.78	6417.75
453.97	6670.53
454.15	6764.15
454.34	6434.13
454.52	6590.95
454.70	6590.95
454.89	6752.45
455.07	6850.75
455.26	6698.61
455.44	6839.05
455.62	6817.98
455.81	6832.02
455.99	6993.52
456.17	7105.87
456.36	6874.15
456.54	7014.59
456.73	6869.47
456.91	7211.19
457.09	7070.76
457.28	7171.40
457.46	7094.16
457.64	7283.75
457.83	7206.51
458.01	6946.71
458.19	7281.41
458.38	7192.47
458.56	7136.29
458.74	7365.67
458.93	7192.47
459.11	7527.16
459.29	7279.07
459.48	7449.93
459.66	7304.81
459.84	7599.72
460.03	7562.27
460.21	7424.18
460.39	7480.35
460.57	7379.71
460.76	7691.00
460.94	7728.45
461.12	7808.03
461.31	7676.96
461.49	7557.59
461.67	7861.86
461.85	7878.24
462.04	7805.69
462.22	8393.16
462.40	7702.70
462.59	7833.77
462.77	7988.25
462.95	7784.62
463.13	7850.16
463.32	7868.88
463.50	7922.71
463.68	8028.04
463.86	7873.56
464.05	7747.17
464.23	7918.03
464.41	7946.12
464.59	7934.42
464.78	8353.37
464.96	8262.09
465.14	8077.19
465.32	8224.64
465.50	8219.96
465.69	8271.45
465.87	8196.56
466.05	8175.49
466.23	8250.39
466.41	8219.96
466.60	8390.82
466.78	8334.65
466.96	8390.82
467.14	8236.35
467.32	8395.50
467.51	8615.51
467.69	8173.15
467.87	8449.33
468.05	8557.00
468.23	8561.68
468.41	8432.95
468.60	8421.25
468.78	8681.05
468.96	8514.87
469.14	8713.81
469.32	8678.71
469.50	8435.29
469.69	8629.56
469.87	8868.29
470.05	8908.08
470.23	8901.06
470.41	8805.10
470.59	9008.72
470.77	8997.02
470.95	8982.98
471.14	9186.60
471.32	8915.10
471.50	9083.62
471.68	9114.05
471.86	9137.45
472.04	9025.11
472.22	9266.18
472.40	9219.37
472.58	9308.31
472.77	9266.18
472.95	9500.23
473.13	9664.07
473.31	9432.36
473.49	9401.93
473.67	9437.04
473.85	9495.55
474.03	9762.37
474.21	9802.16
474.39	9816.21
474.57	9680.46
474.75	9865.36
474.93	10111.11
475.12	10092.39
475.30	10153.24
475.48	10047.92
475.66	10129.84
475.84	10054.94
476.02	10263.25
476.20	10370.91
476.38	10501.98
476.56	10434.11
476.74	10714.97
476.92	10677.52
477.10	10518.37
477.28	10836.68
477.46	10998.18
477.64	10911.58
477.82	10808.59
478.00	11335.21
478.18	11138.61
478.36	11360.96
478.54	11475.65
478.72	11365.64
478.90	11304.79
479.08	11454.58
479.26	11754.17
479.44	11648.85
479.62	11873.54
479.80	11925.03
479.98	11880.56
480.16	12526.55
480.34	12119.29
480.52	12334.62
480.70	12435.27
480.88	12140.36
481.06	12463.35
481.24	12418.88
481.41	12631.87
481.59	12910.40
481.77	12910.40
481.95	12875.29
482.13	12774.64
482.31	12711.45
482.49	13298.92
482.67	13390.20
482.85	13582.13
483.03	13642.98
483.21	13535.32
483.39	14143.86
483.57	13816.18
483.74	13956.61
483.92	14045.55
484.10	13949.59
484.28	14441.11
484.46	14546.43
484.64	14480.89
484.82	14178.97
485.00	14455.15
485.18	14689.20
485.35	14967.73
485.53	15068.37
485.71	14911.55
485.89	15688.61
486.07	15073.05
486.25	15274.34
486.43	15049.64
486.61	15461.58
486.78	15630.10
486.96	15660.52
487.14	15964.79
487.32	15831.38
487.50	16072.46
487.68	16376.73
487.85	16531.20
488.03	16535.88
488.21	16711.42
488.39	16673.98
488.57	17097.61
488.75	17064.85
488.92	17647.64
489.10	17469.76
489.28	17483.80
489.46	17575.08
489.64	17762.33
489.81	18211.71
489.99	18225.75
490.17	18436.40
490.35	18448.10
490.53	18443.42
490.70	18288.95
490.88	18675.13
491.06	19021.53
491.24	18656.41
491.41	18850.67
491.59	19110.47
491.77	18864.72
491.95	19105.79
492.13	19276.65
492.30	19541.13
492.48	19487.30
492.66	19424.11
492.84	19850.08
493.01	20140.31
493.19	19971.79
493.37	20259.68
493.54	20247.97
493.72	20556.93
493.90	20669.27
494.08	20826.09
494.25	20933.75
494.43	21144.40
494.61	21015.67
494.79	20971.20
494.96	21460.37
495.14	21589.10
495.32	21336.32
495.49	21509.52
495.67	21642.93
495.85	22113.38
496.02	21933.16
496.20	21984.65
496.38	22097.00
496.55	22298.28
496.73	22478.50
496.91	22607.23
497.09	22782.77
497.26	22707.88
497.44	22911.50
497.62	22817.88
497.79	23445.15
497.97	23019.17
498.14	23393.65
498.32	23374.93
498.50	23508.34
498.67	23412.38
498.85	23608.98
499.03	23828.99
499.20	24041.98
499.38	24184.76
499.56	24308.80
499.73	23929.64
499.91	24444.56
500.08	24734.78
500.26	24320.51
500.44	24687.97
500.61	24500.73
500.79	24472.64
500.97	24725.42
501.14	24748.82
501.32	24739.46
501.49	24884.58
501.67	24835.42
501.84	25235.66
502.02	25184.16
502.20	25275.45
502.37	25429.92
502.55	25378.43
502.72	25666.31
502.90	25560.99
503.07	25575.03
503.25	25830.15
503.43	25788.02
503.60	25886.32
503.78	26068.89
503.95	25989.31
504.13	25860.58
504.30	26450.39
504.48	26520.61
504.65	26232.72
504.83	26326.35
505.01	27087.02
505.18	26771.05
505.36	26906.80
505.53	26586.15
505.71	27150.21
505.88	27157.24
506.06	27042.55
506.23	27098.72
506.41	26672.74
506.58	27365.54
506.76	27243.84
506.93	27667.47
507.11	27440.44
507.28	27875.78
507.46	27690.88
507.63	27768.12
507.81	28252.61
507.98	27501.29
508.16	27826.63
508.33	28304.10
508.50	28290.06
508.68	28287.71
508.85	28589.64
509.03	28496.02
509.20	28737.10
509.38	28589.64
509.55	28720.71
509.73	29010.94
509.90	28737.10
510.08	28870.51
510.25	28685.61
510.42	29205.20
510.60	29104.56
510.77	29097.54
510.95	29347.98
511.12	29469.69
511.30	29443.94
511.47	29785.66
511.64	29638.20
511.82	29778.64
511.99	29376.06
512.17	29734.17
512.34	29780.98
512.51	30211.64
512.69	30415.26
512.86	30181.21
513.04	30141.42
513.21	30040.78
513.38	30607.19
513.56	30361.43
513.73	30323.98
513.90	30321.64
514.08	30756.98
514.25	30728.89
514.43	31147.85
514.60	30756.98
514.77	31014.44
514.95	31161.89
515.12	30813.15
515.29	31056.57
515.47	31304.67
515.64	31304.67
515.81	31131.47
515.99	31669.79
516.16	31512.97
516.33	31651.06
516.51	31990.44
516.68	31468.50
516.85	31288.28
517.03	31569.15
517.20	31964.70
517.37	31812.56
517.54	31784.48
517.72	31866.39
517.89	32250.24
518.06	32247.90
518.24	32187.05
518.41	31765.75
518.58	31819.58
518.75	32023.21
518.93	32582.60
519.10	32629.41
519.27	32708.99
519.45	32470.25
519.62	32297.05
519.79	32802.61
519.96	32711.33
520.14	33289.44
520.31	33010.92
520.48	33001.55
520.65	33062.41
520.83	33762.23
521.00	33125.60
521.17	33310.50
521.34	33432.21
521.52	33663.93
521.69	33598.39
521.86	33790.31
522.03	33633.50
522.20	33741.16
522.38	33762.23
522.55	34120.33
522.72	33780.95
522.89	34218.63
523.07	33809.04
523.24	33968.19
523.41	34340.34
523.58	34052.45
523.75	34553.33
523.92	34672.70
524.10	34794.40
524.27	34614.18
524.44	34801.43
524.61	35026.12
524.78	34995.69
524.96	35215.70
525.13	34951.22
525.30	35356.13
525.47	35061.22
525.64	35253.15
525.81	35145.48
525.98	35201.66
526.16	35283.58
526.33	35058.88
526.50	35241.45
526.67	35253.15
526.84	34890.37
527.01	35278.89
527.18	35522.31
527.36	35906.16
527.53	35889.77
527.70	35871.05
527.87	35798.49
528.04	35882.75
528.21	35763.39
528.38	35826.58
528.55	35955.31
528.72	36229.15
528.89	36210.43
529.07	36503.00
529.24	35838.28
529.41	36184.68
529.58	36175.32
529.75	36074.68
529.92	36474.91
530.09	36357.88
530.26	36608.32
530.43	36542.78
530.60	36271.28
530.77	36643.43
530.94	36961.74
531.11	36491.29
531.28	36451.50
531.46	37055.36
531.63	37261.33
531.80	36687.90
531.97	36542.78
532.14	37088.13
532.31	37181.75
532.48	36692.58
532.65	37181.75
532.82	36943.02
532.99	37247.29
533.16	37062.38
533.33	37001.53
533.50	37495.38
533.67	37586.66
533.84	37209.84
534.01	37696.67
534.18	37675.60
534.35	37909.66
534.52	37717.73
534.69	37748.16
534.86	37446.23
535.03	37869.87
535.20	37801.99
535.37	38291.16
535.54	38293.50
535.71	37853.48
535.88	38394.15
536.05	38246.69
536.22	38443.30
536.38	37876.89
536.55	38579.05
536.72	38302.87
536.89	37989.24
537.06	38300.53
537.23	38700.76
537.40	38316.91
537.57	38667.99
537.74	38632.88
537.91	38707.78
538.08	38913.75
538.25	38644.59
538.42	38958.22
538.59	39086.95
538.75	38447.98
538.92	38754.59
539.09	38948.85
539.26	39475.48
539.43	38689.06
539.60	38698.42
539.77	39332.70
539.94	39306.96
540.11	39086.95
540.28	38721.82
540.44	38876.30
540.61	38815.44
540.78	39014.39
540.95	39608.89
541.12	39171.21
541.29	39030.77
541.46	39086.95
541.62	39679.10
541.79	39880.39
541.96	39372.49
542.13	39590.16
542.30	39452.07
542.47	39938.90
542.63	39285.89
542.80	39807.83
542.97	40105.08
543.14	40470.20
543.31	40112.10
543.48	40060.61
543.64	40641.06
543.81	40528.72
543.98	40500.63
544.15	40299.34
544.32	40371.90
544.48	40680.85
544.65	40713.62
544.82	40685.53
544.99	40329.77
545.16	40830.65
545.32	40584.89
545.49	41097.47
545.66	40828.30
545.83	40858.73
546.00	40917.25
546.16	40711.28
546.33	40919.59
546.50	40107.42
546.67	40910.22
546.83	40435.10
547.00	40582.55
547.17	40942.99
547.34	40732.34
547.50	41455.57
547.67	41422.80
547.84	40809.58
548.00	41165.34
548.17	41331.52
548.34	41109.17
548.51	41242.58
548.67	41834.74
548.84	41581.96
549.01	41413.44
549.18	41563.23
549.34	41790.27
549.51	41893.25
549.68	41411.10
549.84	41642.81
550.01	41656.85
550.18	41593.66
550.34	41841.76
550.51	41158.32
550.68	41481.31
550.84	41488.34
551.01	41757.50
551.18	41617.07
551.34	41607.70
551.51	41979.85
551.68	42321.57
551.84	41979.85
552.01	41757.50
552.18	41715.37
552.34	41928.36
552.51	41965.81
552.68	42260.71
552.84	42391.78
553.01	42302.84
553.18	42244.33
553.34	41846.44
553.51	41916.65
553.67	42286.46
553.84	42417.53
554.01	42792.01
554.17	42342.63
554.34	42583.71
554.51	42602.43
554.67	42445.62
554.84	42579.03
555.00	42763.93
555.17	42192.84
555.33	42583.71
555.50	42703.07
555.67	42749.88
555.83	42728.82
556.00	42700.73
556.16	42464.34
556.33	42834.14
556.50	42213.90
556.66	42897.34
556.83	42600.09
556.99	42799.04
557.16	42663.28
557.32	43091.60
557.49	42265.39
557.65	42733.50
557.82	43026.07
557.98	42499.45
558.15	42979.26
558.32	43117.35
558.48	42988.62
558.65	43180.54
558.81	43026.07
558.98	42843.51
559.14	43136.07
559.31	43232.04
559.47	43016.71
559.64	43129.05
559.80	43435.66
559.97	43573.75
560.13	43349.06
560.30	43203.95
560.46	43175.86
560.63	43379.49
560.79	43538.65
560.96	43667.37
561.12	43164.16
561.29	43131.39
561.45	43423.96
561.61	43323.32
561.78	43370.13
561.94	42906.70
562.11	43798.44
562.27	43129.05
562.44	43309.27
562.60	43227.35
562.77	43746.95
562.93	43463.75
563.10	43487.15
563.26	43374.81
563.42	43489.49
563.59	43386.51
563.75	43615.88
563.92	43548.01
564.08	43976.33
564.24	43721.21
564.41	44032.50
564.57	43875.68
564.74	43658.01
564.90	43838.23
565.07	44051.22
565.23	43847.60
565.39	43728.23
565.56	44318.04
565.72	43496.52
565.88	43620.56
566.05	43838.23
566.21	43658.01
566.38	43412.26
566.54	43732.91
566.70	44119.10
566.87	43901.43
567.03	43878.02
567.19	43845.26
567.36	43894.41
567.52	43983.35
567.68	44163.57
567.85	43807.81
568.01	43913.13
568.17	43578.43
568.34	44055.90
568.50	44329.75
568.66	44037.18
568.83	43952.92
568.99	43735.25
569.15	43559.71
569.32	43548.01
569.48	44002.07
569.64	44268.89
569.81	44304.00
569.97	43847.60
570.13	43896.75
570.30	43718.87
570.46	44093.35
570.62	44245.49
570.78	44081.65
570.95	44266.55
571.11	44257.19
571.27	43690.78
571.43	44046.54
571.60	44055.90
571.76	44360.17
571.92	44088.67
572.09	43828.87
572.25	44479.54
572.41	43948.24
572.57	44156.55
572.74	44404.64
572.90	44168.25
573.06	44233.78
573.22	43941.22
573.38	44091.01
573.55	44048.88
573.71	44397.62
573.87	43817.17
574.03	44170.59
574.20	44608.27
574.36	44140.16
574.52	44378.90
574.68	44296.98
574.84	44437.41
575.01	44126.12
575.17	44238.47
575.33	43936.54
575.49	44484.22
575.65	44673.81
575.82	44837.64
575.98	44531.03
576.14	44737.00
576.30	44552.10
576.46	43971.64
576.62	43835.89
576.79	44610.61
576.95	43854.62
577.11	44364.85
577.27	44781.47
577.43	44423.37
577.59	44706.57
577.75	44678.49
577.92	44243.15
578.08	44067.61
578.24	44041.86
578.40	44165.91
578.56	44416.35
578.72	44804.88
578.88	44594.23
579.04	44903.18
579.21	44039.52
579.37	44470.18
579.53	44069.95
579.69	44311.02
579.85	44238.47
580.01	44107.40
580.17	44278.25
580.33	44603.59
580.49	44538.05
580.65	44378.90
580.82	44367.20
580.98	44484.22
581.14	44414.01
581.30	44484.22
581.46	44879.77
581.62	44016.11
581.78	44292.30
581.94	44865.73
582.10	44210.38
582.26	44624.65
582.42	44306.34
582.58	44156.55
582.74	44432.73
582.90	43959.94
583.06	44996.80
583.22	44797.85
583.38	44498.26
583.54	44439.75
583.70	44423.37
583.86	44383.58
584.02	43866.32
584.18	44296.98
584.34	44718.28
584.50	44652.74
584.66	44233.78
584.82	44409.32
584.98	45048.29
585.14	44701.89
585.30	44418.69
585.46	44526.35
585.62	44800.19
585.78	44797.85
585.94	44114.42
586.10	44186.97
586.26	43772.70
586.42	44196.34
586.58	44634.02
586.74	44416.35
586.90	44624.65
587.06	44385.92
587.22	44388.26
587.38	44481.88
587.54	44650.40
587.70	44704.23
587.86	44456.14
588.02	44868.07
588.18	44729.98
588.34	44261.87
588.49	44224.42
588.65	44762.75
588.81	44378.90
588.97	44240.81
589.13	44395.28
589.29	44456.14
589.45	44781.47
589.61	44509.97
589.77	44676.15
589.93	44760.40
590.08	44643.38
590.24	44919.56
590.40	44823.60
590.56	44631.68
590.72	44912.54
590.88	44418.69
591.04	45081.06
591.20	44931.26
591.35	44722.96
591.51	45111.49
591.67	45003.82
591.83	44554.44
591.99	44334.43
592.15	44516.99
592.31	44882.11
592.46	44980.42
592.62	44830.62
592.78	44947.65
592.94	44954.67
593.10	44549.76
593.26	44842.32
593.41	44966.37
593.57	44718.28
593.73	44444.43
593.89	45289.37
594.05	44266.55
594.20	44336.77
594.36	44912.54
594.52	44657.42
594.68	44884.45
594.84	44474.86
594.99	45095.10
595.15	44722.96
595.31	44910.20
595.47	44884.45
595.62	45013.18
595.78	44589.55
595.94	44940.63
596.10	44975.73
596.25	44872.75
596.41	45277.66
596.57	44851.69
596.73	44996.80
596.88	45055.31
597.04	45027.23
597.20	45027.23
597.36	45265.96
597.51	44914.88
597.67	45287.03
597.83	44725.30
597.99	45261.28
598.14	45034.25
598.30	44856.37
598.46	44737.00
598.61	44849.35
598.77	44509.97
598.93	44744.02
599.09	44741.68
599.24	44985.10
599.40	45088.08
599.56	45329.16
599.71	45193.40
599.87	45270.64
600.03	44940.63
600.18	44961.69
600.34	44858.71
600.50	45177.02
600.65	44992.12
600.81	45167.66
600.97	45523.42
601.12	45680.24
601.28	45467.25
601.44	45324.47
601.59	44779.13
601.75	44629.34
601.91	45083.40
602.06	44865.73
602.22	45123.19
602.37	44851.69
602.53	45373.63
602.69	45345.54
602.84	45027.23
603.00	45008.50
603.16	44502.95
603.31	44762.75
603.47	44666.78
603.62	44477.20
603.78	44961.69
603.94	44821.26
604.09	45345.54
604.25	45315.11
604.40	45059.99
604.56	44687.85
604.71	45174.68
604.87	44910.20
605.03	44921.90
605.18	44818.92
605.34	44697.21
605.49	44910.20
605.65	44914.88
605.80	44788.49
605.96	45109.14
606.12	44830.62
606.27	45081.06
606.43	45172.34
606.58	44879.77
606.74	44430.39
606.89	44458.48
607.05	45071.70
607.20	44966.37
607.36	44629.34
607.51	45137.23
607.67	45151.27
607.82	44538.05
607.98	44959.35
608.13	44652.74
608.29	44495.92
608.44	44259.53
608.60	44233.78
608.75	44502.95
608.91	44009.09
609.06	44385.92
609.22	45085.74
609.37	44273.57
609.53	44758.06
609.68	44655.08
609.84	44423.37
609.99	44666.78
610.15	44296.98
610.30	44339.11
610.46	44622.31
610.61	44524.01
610.76	44280.60
610.92	44584.86
611.07	44156.55
611.23	44222.08
611.38	44432.73
611.54	44168.25
611.69	43875.68
611.84	43838.23
612.00	44006.75
612.15	44521.67
612.31	44254.85
612.46	44016.11
612.62	44531.03
612.77	43969.30
612.92	44364.85
613.08	44100.37
613.23	44299.32
613.39	44046.54
613.54	43814.83
613.69	43990.37
613.85	43894.41
614.00	44172.93
614.15	44296.98
614.31	44210.38
614.46	44584.86
614.62	44060.58
614.77	44165.91
614.92	44172.93
615.08	43819.51
615.23	43959.94
615.38	44053.56
615.54	43578.43
615.69	43716.53
615.84	43288.21
616.00	43550.35
616.15	43957.60
616.30	44126.12
616.46	43421.62
616.61	43416.94
616.76	43412.26
616.92	43435.66
617.07	43372.47
617.22	43175.86
617.37	43477.79
617.53	43959.94
617.68	43627.59
617.83	43894.41
617.99	43702.48
618.14	43648.65
618.29	43653.33
618.45	43239.06
618.60	42948.83
618.75	43445.02
618.90	43234.38
619.06	43351.40
619.21	43835.89
619.36	43735.25
619.51	43391.19
619.67	43501.20
619.82	43353.74
619.97	43824.19
620.12	42983.94
620.28	42927.77
620.43	43072.88
620.58	43096.28
620.73	42939.47
620.89	42995.64
621.04	42745.20
621.19	43058.84
621.34	42934.79
621.49	42897.34
621.65	42784.99
621.80	43220.33
621.95	42773.29
622.10	42714.78
622.25	42962.87
622.41	42677.33
622.56	42679.67
622.71	43126.71
622.86	43065.86
623.01	42766.27
623.16	42962.87
623.32	42520.51
623.47	42817.76
623.62	42642.22
623.77	42834.14
623.92	42344.97
624.07	42728.82
624.23	42403.49
624.38	42408.17
624.53	42419.87
624.68	42569.66
624.83	42174.11
624.98	42417.53
625.13	42117.94
625.29	42763.93
625.44	42536.90
625.59	42579.03
625.74	42024.32
625.89	41816.01
626.04	41862.82
626.19	42080.49
626.34	42557.96
626.49	42354.33
626.65	42501.79
626.80	42265.39
626.95	42351.99
627.10	42085.17
627.25	41715.37
627.40	41942.40
627.55	41881.55
627.70	41624.09
627.85	41750.48
628.00	41715.37
628.15	42401.14
628.30	42120.28
628.45	41806.65
628.60	41801.97
628.76	42246.67
628.91	41888.57
629.06	41509.40
629.21	41855.80
629.36	41647.49
629.51	41748.14
629.66	41546.85
629.81	41366.63
629.96	41607.70
630.11	41350.24
630.26	41755.16
630.41	41600.68
630.56	41701.32
630.71	41322.16
630.86	41656.85
631.01	41273.01
631.16	41331.52
631.31	41050.66
631.46	40678.51
631.61	41581.96
631.76	41436.84
631.91	41441.53
632.06	41242.58
632.21	41408.76
632.36	40905.54
632.51	40732.34
632.66	41343.22
632.81	40144.87
632.96	40919.59
633.10	40959.38
633.25	40978.10
633.40	40783.83
633.55	41172.36
633.70	40828.30
633.85	40664.47
634.00	40898.52
634.15	41148.96
634.30	40765.11
634.45	40905.54
634.60	40266.58
634.75	40950.01
634.90	40512.33
635.05	40699.58
635.19	40582.55
635.34	41106.83
635.49	40407.01
635.64	40364.88
635.79	40224.45
635.94	40514.67
636.09	40566.16
636.24	40044.23
636.39	40156.57
636.53	40451.48
636.68	40292.32
636.83	40238.49
636.98	40395.31
637.13	40495.95
637.28	40362.54
637.43	40657.45
637.57	40680.85
637.72	40509.99
637.87	40179.98
638.02	40463.18
638.17	39943.58
638.32	39969.33
638.46	39896.77
638.61	40224.45
638.76	39754.00
638.91	39945.92
639.06	39976.35
639.20	40048.91
639.35	40187.00
639.50	39903.79
639.65	39583.14
639.80	40032.52
639.94	39548.03
640.09	39489.52
640.24	39585.48
640.39	39463.77
640.54	39562.08
640.68	39784.43
640.83	39611.23
640.98	39498.88
641.13	39695.49
641.27	39978.69
641.42	39255.46
641.57	39475.48
641.72	39739.96
641.86	38988.64
642.01	39166.52
642.16	39456.75
642.31	39068.22
642.45	39475.48
642.60	39000.35
642.75	39276.53
642.90	38880.98
643.04	39283.55
643.19	39353.77
643.34	39103.33
643.48	39150.14
643.63	39243.76
643.78	39306.96
643.93	38880.98
644.07	38810.76
644.22	38792.04
644.37	39063.54
644.51	38775.66
644.66	38740.55
644.81	39143.12
644.95	39194.61
645.10	39587.82
645.25	39445.05
645.39	39161.84
645.54	39098.65
645.69	38862.26
645.83	38288.82
645.98	38904.38
646.13	38773.31
646.27	39140.78
646.42	38363.72
646.57	38855.23
646.71	39047.16
646.86	38707.78
647.00	38857.57
647.15	38731.18
647.30	38967.58
647.44	38621.18
647.59	38663.31
647.74	38506.49
647.88	38408.19
648.03	38387.13
648.17	38632.88
648.32	38305.21
648.47	38649.27
648.61	38181.16
648.76	38333.29
648.90	38447.98
649.05	38263.08
649.20	38513.52
649.34	38586.07
649.49	38094.56
649.63	38354.36
649.78	38265.42
649.92	38099.24
650.07	38639.90
650.21	38005.62
650.36	38199.88
650.51	38162.43
650.65	38525.22
650.80	38249.03
650.94	38380.10
651.09	37935.40
651.23	38134.35
651.38	37801.99
651.52	37535.17
651.67	37832.42
651.81	37780.93
651.96	37743.48
652.10	38024.34
652.25	37895.61
652.39	37867.53
652.54	37324.52
652.68	37848.80
652.83	38040.73
652.97	38061.79
653.12	37544.53
653.26	37511.77
653.41	37874.55
653.55	37436.87
653.70	37710.71
653.84	37560.92
653.99	37258.99
654.13	37677.94
654.27	37633.47
654.42	37680.28
654.56	37673.26
654.71	37521.13
654.85	37429.85
655.00	37607.73
655.14	37134.94
655.29	37123.24
655.43	37357.29
655.57	36980.46
655.72	36774.50
655.86	36950.04
656.01	36807.26
656.15	36659.81
656.30	36676.19
656.44	36779.18
656.58	36339.16
656.73	36732.37
656.87	36573.21
657.01	36566.19
657.16	36652.79
657.30	36952.38
657.45	37017.91
657.59	36926.63
657.73	36472.57
657.88	36615.34
658.02	36554.49
658.16	36620.02
658.31	36737.05
658.45	36987.49
658.60	36882.16
658.74	36582.57
658.88	36451.50
659.03	36746.41
659.17	35990.42
659.31	36376.61
659.46	36011.48
659.60	36453.84
659.74	36074.68
659.89	35662.74
660.03	36032.55
660.17	36247.88
660.32	36048.93
660.46	36353.20
660.60	35906.16
660.74	36126.17
660.89	36369.58
661.03	35723.60
661.17	35938.93
661.32	35555.08
661.46	35632.32
661.60	35452.09
661.74	35665.08
661.89	35297.62
662.03	35337.41
662.17	35501.25
662.31	35218.04
662.46	35828.92
662.60	35393.58
662.74	35784.45
662.88	35309.32
663.03	35201.66
663.17	34972.28
663.31	35356.13
663.45	35342.09
663.60	35239.11
663.74	35065.91
663.88	35089.31
664.02	34803.77
664.17	34962.92
664.31	34752.27
664.45	34677.38
664.59	34665.67
664.73	34881.00
664.88	34859.94
665.02	34396.51
665.16	34749.93
665.30	34326.30
665.44	33792.65
665.59	34429.28
665.73	33935.43
665.87	34082.88
666.01	34319.28
666.15	34019.69
666.29	34059.48
666.44	34366.09
666.58	34284.17
666.72	33612.43
666.86	34494.82
667.00	34061.82
667.14	34019.69
667.28	33883.94
667.43	33443.91
667.57	33457.96
667.71	33343.27
667.85	33743.50
667.99	33916.70
668.13	33591.37
668.27	33937.77
668.41	33633.50
668.56	33181.77
668.70	33464.98
668.84	33191.14
668.98	33179.43
669.12	33046.02
669.26	32921.98
669.40	33029.64
669.54	32912.61
669.68	33099.86
669.82	33039.00
669.96	32751.12
670.10	32629.41
670.25	32568.55
670.39	33027.30
670.53	32446.85
670.67	32561.53
670.81	32631.75
670.95	32603.66
671.09	32395.35
671.23	32301.73
671.37	32833.04
671.51	32175.34
671.65	31772.77
671.79	31824.26
671.93	32147.26
672.07	32407.06
672.21	32067.68
672.35	31660.43
672.49	31885.12
672.63	31611.28
672.77	31908.52
672.91	31805.54
673.05	31791.50
673.19	31332.75
673.33	30731.23
673.47	30628.25
673.61	30948.90
673.75	30618.89
673.89	30883.37
674.03	30724.21
674.17	30979.33
674.31	30728.89
674.45	30930.18
674.59	31047.21
674.73	31012.10
674.87	30864.64
675.01	30405.90
675.15	30724.21
675.29	30789.75
675.43	30501.86
675.56	30672.72
675.70	30209.29
675.84	30452.71
675.98	29001.58
676.12	29715.44
676.26	29797.36
676.40	29972.90
676.54	29640.54
676.68	29685.01
676.82	29406.49
676.96	29584.37
677.10	29163.08
677.23	29399.47
677.37	29710.76
677.51	29039.03
677.65	29158.39
677.79	28964.13
677.93	29120.95
678.07	28781.57
678.21	28577.94
678.34	28833.06
678.48	28481.98
678.62	28514.75
678.76	28238.56
678.90	28489.00
679.04	28243.24
679.18	28095.79
679.31	27630.02
679.45	27768.12
679.59	27803.22
679.73	28175.37
679.87	27716.62
680.00	27735.35
680.14	27358.52
680.28	27281.28
680.42	27227.45
680.56	27667.47
680.70	27241.50
680.83	27075.32
680.97	26890.41
681.11	27152.55
681.25	26895.10
681.39	26171.87
681.52	27080.00
681.66	26892.76
681.80	26726.58
681.94	26616.57
682.07	26527.63
682.21	26398.90
682.35	26272.51
682.49	26286.56
682.62	26230.38
682.76	25645.25
682.90	25825.47
683.04	25799.73
683.17	25750.57
683.31	25769.30
683.45	25542.27
683.59	25322.26
683.72	25151.40
683.86	25427.58
684.00	25282.47
684.13	25205.23
684.27	25326.94
684.41	25198.21
684.55	24905.64
684.68	24823.72
684.82	24788.61
684.96	24716.06
685.09	24552.22
685.23	24538.18
685.37	24697.33
685.50	24397.74
685.64	24503.07
685.78	24376.68
685.91	24112.20
686.05	23915.59
686.19	23646.43
686.32	23768.14
686.46	23414.72
686.60	23580.90
686.73	23814.95
686.87	23372.59
687.01	23452.17
687.14	23421.74
687.28	23005.13
687.42	23314.08
687.55	23131.51
687.69	23084.70
687.82	22726.60
687.96	22944.27
688.10	22827.24
688.23	22553.40
688.37	22473.82
688.50	21951.88
688.64	22192.96
688.78	22092.32
688.91	22029.12
689.05	22419.99
689.18	22092.32
689.32	21764.64
689.46	21661.66
689.59	22087.64
689.73	21841.88
689.86	21654.64
690.00	21661.66
690.13	21834.86
690.27	21366.75
690.41	21273.13
690.54	21289.51
690.68	21123.33
690.81	20889.28
690.95	21078.86
691.08	21006.31
691.22	20830.77
691.35	21032.05
691.49	21003.97
691.62	20631.82
691.76	21036.74
691.89	20496.07
692.03	20294.79
692.16	20156.69
692.30	20224.57
692.43	20060.73
692.57	20093.50
692.70	20077.12
692.84	19889.87
692.97	19796.25
693.11	19597.31
693.24	19494.32
693.38	19658.16
693.51	19562.20
693.65	19719.01
693.78	19700.29
693.92	19428.79
694.05	19480.28
694.19	19360.91
694.32	18988.77
694.45	19131.54
694.59	18958.34
694.72	18986.43
694.86	18909.19
694.99	18787.48
695.13	18520.66
695.26	18548.75
695.39	18377.89
695.53	18281.92
695.66	18412.99
695.80	18253.84
695.93	18010.42
696.07	17919.14
696.20	17935.53
696.33	17736.58
696.47	18092.34
696.60	17818.50
696.73	17895.74
696.87	17586.79
697.00	17523.59
697.14	17525.93
697.27	17865.31
697.40	17614.87
697.54	17790.41
697.67	17174.85
697.80	17434.65
697.94	17413.59
698.07	17289.54
698.21	16901.01
698.34	17238.05
698.47	16908.03
698.61	16563.97
698.74	16484.39
698.87	16549.93
699.01	16374.39
699.14	16287.79
699.27	16051.39
699.40	16287.79
699.54	16027.99
699.67	15992.88
699.80	16142.67
699.94	15943.73
700.07	15932.03
700.20	15815.00
700.34	15658.18
700.47	15681.59
700.60	15819.68
700.73	15606.69
700.87	15475.62
701.00	15377.32
701.13	15332.85
701.26	15466.26
701.40	15239.23
701.53	15171.35
701.66	15007.52
701.79	15220.50
701.93	15211.14
702.06	14553.45
702.19	14799.21
702.32	14640.05
702.46	14476.21
702.59	14698.56
702.72	14604.94
702.85	14499.62
702.99	14511.32
703.12	14836.66
703.25	14672.82
703.38	14291.31
703.51	14443.45
703.65	14197.69
703.78	14143.86
703.91	14127.47
704.04	14169.60
704.17	13577.45
704.31	14078.32
704.44	13802.14
704.57	13582.13
704.70	13486.17
704.83	13406.59
704.96	13673.41
705.10	13635.96
705.23	13664.05
>>>>>End Processed Spectral Data<<<<<
