SpectraSuite Data File
++++++++++++++++++++++++++++++++++++
Date: Fri Oct 25 10:48:28 EDT 2013
User: price-jones
Dark Spectrum Present: No
Reference Spectrum Present: No
Number of Sampled Component Spectra: 1
Spectrometers: USB2+H05261
Integration Time (usec): 100000 (USB2+H05261)
Spectra Averaged: 1 (USB2+H05261)
Boxcar Smoothing: 0 (USB2+H05261)
Correct for Electrical Dark: No (USB2+H05261)
Strobe/Lamp Enabled: No (USB2+H05261)
Correct for Detector Non-linearity: No (USB2+H05261)
Correct for Stray Light: No (USB2+H05261)
Number of Pixels in Processed Spectrum: 2048
>>>>>Begin Processed Spectral Data<<<<<
365.73	126.39
365.92	126.39
366.12	126.39
366.32	56.17
366.52	28.09
366.72	95.96
366.91	0.00
367.11	23.41
367.31	93.62
367.51	11.70
367.70	95.96
367.90	42.13
368.10	4.68
368.30	100.64
368.49	23.41
368.69	2.34
368.89	70.22
369.09	39.79
369.28	95.96
369.48	67.88
369.68	117.03
369.87	65.54
370.07	84.26
370.27	140.43
370.47	255.12
370.66	404.91
370.86	421.30
371.06	379.17
371.25	458.74
371.45	465.77
371.65	517.26
371.84	449.38
372.04	416.62
372.24	484.49
372.44	472.79
372.63	484.49
372.83	552.37
373.03	601.52
373.22	524.28
373.42	582.79
373.62	575.77
373.81	624.92
374.01	610.88
374.21	554.71
374.40	578.11
374.60	606.20
374.79	559.39
374.99	531.30
375.19	683.44
375.38	667.05
375.58	585.13
375.78	561.73
375.97	692.80
376.17	627.26
376.37	498.53
376.56	660.03
376.76	589.82
376.95	601.52
377.15	664.71
377.35	683.44
377.54	655.35
377.74	720.88
377.93	688.12
378.13	643.65
378.33	676.41
378.52	690.46
378.72	753.65
378.91	702.16
379.11	755.99
379.31	634.29
379.50	657.69
379.70	788.76
379.89	643.65
380.09	730.25
380.28	685.78
380.48	725.57
380.68	613.22
380.87	777.06
381.07	800.46
381.26	716.20
381.46	608.54
381.65	746.63
381.85	788.76
382.04	706.84
382.24	819.19
382.43	706.84
382.63	690.46
382.83	753.65
383.02	795.78
383.22	772.38
383.41	739.61
383.61	662.37
383.80	837.91
384.00	753.65
384.19	751.31
384.39	844.93
384.58	866.00
384.78	816.85
384.97	915.15
385.17	807.48
385.36	748.97
385.56	828.55
385.75	784.08
385.95	802.80
386.14	912.81
386.34	873.02
386.53	835.57
386.72	835.57
386.92	915.15
387.11	880.04
387.31	842.59
387.50	863.66
387.70	849.61
387.89	858.98
388.09	884.72
388.28	898.77
388.48	851.96
388.67	1020.47
388.86	987.71
389.06	976.00
389.25	1048.56
389.45	1088.35
389.64	1004.09
389.84	1015.79
390.03	1132.82
390.22	908.13
390.42	1231.12
390.61	1053.24
390.81	1011.11
391.00	1095.37
391.19	1107.07
391.39	1135.16
391.58	1053.24
391.78	1090.69
391.97	1104.73
392.16	1062.60
392.36	1074.31
392.55	1046.22
392.75	1029.84
392.94	952.60
393.13	1032.18
393.33	1008.77
393.52	1060.26
393.71	1046.22
393.91	1055.58
394.10	1151.54
394.29	1165.59
394.49	1249.85
394.68	1153.88
394.88	1270.91
395.07	1259.21
395.26	1205.38
395.46	1207.72
395.65	1301.34
395.84	1280.27
396.04	1167.93
396.23	1219.42
396.42	1205.38
396.62	1247.51
396.81	1207.72
397.00	1301.34
397.19	1397.30
397.39	1296.66
397.58	1453.47
397.77	1324.74
397.97	1348.15
398.16	1460.49
398.35	1451.13
398.55	1465.18
398.74	1474.54
398.93	1558.80
399.12	1584.54
399.32	1507.30
399.51	1528.37
399.70	1504.96
399.90	1551.78
400.09	1533.05
400.28	1685.19
400.47	1675.82
400.67	1603.27
400.86	1701.57
401.05	1692.21
401.24	1823.28
401.44	1760.08
401.63	1760.08
401.82	1732.00
402.01	1603.27
402.21	1792.85
402.40	1732.00
402.59	1760.08
402.78	1844.34
402.97	1799.87
403.17	1863.07
403.36	1842.00
403.55	1743.70
403.74	1851.36
403.93	1839.66
404.13	1942.64
404.32	1853.70
404.51	1888.81
404.70	1987.11
404.89	1933.28
405.09	2038.61
405.28	1987.11
405.47	1949.67
405.66	1952.01
405.85	2015.20
406.05	1926.26
406.24	2005.84
406.43	2043.29
406.62	2073.71
406.81	2094.78
407.00	1966.05
407.20	1966.05
407.39	2169.68
407.58	2136.91
407.77	2314.79
407.96	2303.09
408.15	2244.57
408.34	2251.60
408.54	2317.13
408.73	2291.38
408.92	2237.55
409.11	2263.30
409.30	2335.85
409.49	2380.32
409.68	2181.38
409.87	2286.70
410.07	2305.43
410.26	2382.67
410.45	2373.30
410.64	2490.33
410.83	2513.74
411.02	2466.92
411.21	2576.93
411.40	2504.37
411.59	2586.29
411.78	2586.29
411.98	2663.53
412.17	2689.28
412.36	2644.81
412.55	2698.64
412.74	2717.36
412.93	2794.60
413.12	2712.68
413.31	2946.73
413.50	2722.04
413.69	2878.86
413.88	2825.03
414.07	2972.48
414.26	2899.92
414.45	2874.18
414.64	2960.78
414.83	2972.48
415.02	3136.32
415.22	3047.38
415.41	3061.42
415.60	3215.90
415.79	3096.53
415.98	3424.20
416.17	3307.18
416.36	3190.15
416.55	3318.88
416.74	3339.94
416.93	3096.53
417.12	3351.65
417.31	3475.70
417.50	3269.73
417.69	3550.59
417.88	3379.73
418.07	3492.08
418.26	3492.08
418.45	3468.67
418.64	3536.55
418.83	3574.00
419.02	3520.17
419.21	3604.42
419.39	3716.77
419.58	3632.51
419.77	3536.55
419.96	3599.74
420.15	3735.50
420.34	3751.88
420.53	3815.07
420.72	3843.16
420.91	3852.52
421.10	3765.92
421.29	3934.44
421.48	3693.37
421.67	3868.91
421.86	3829.12
422.05	3866.56
422.24	3843.16
422.43	3836.14
422.61	3779.97
422.80	3941.46
422.99	3840.82
423.18	4042.11
423.37	3911.04
423.56	3845.50
423.75	3803.37
423.94	3894.65
424.13	3796.35
424.32	3878.27
424.50	3854.86
424.69	3976.57
424.88	4049.13
425.07	3826.78
425.26	3796.35
425.45	3948.48
425.64	4009.34
425.83	3967.21
426.01	4100.62
426.20	3915.72
426.39	4030.40
426.58	3927.42
426.77	3962.53
426.96	4056.15
427.15	4056.15
427.33	4065.51
427.52	4072.53
427.71	4077.21
427.90	4119.34
428.09	4222.33
428.28	4156.79
428.46	4135.73
428.65	4182.54
428.84	4430.63
429.03	4315.95
429.22	4039.76
429.40	4063.17
429.59	4121.68
429.78	4051.47
429.97	4032.74
430.16	3934.44
430.34	4234.03
430.53	4304.25
430.72	4344.03
430.91	4159.13
431.10	4360.42
431.28	4498.51
431.47	4587.45
431.66	4674.05
431.85	4617.88
432.03	4711.50
432.22	4716.18
432.41	4758.31
432.60	4744.27
432.79	4681.07
432.97	4767.67
433.16	4755.97
433.35	4589.79
433.54	4641.28
433.72	4627.24
433.91	4657.67
434.10	4849.59
434.28	4727.88
434.47	4802.78
434.66	5032.15
434.85	4947.89
435.03	5076.62
435.22	4905.76
435.41	5118.75
435.59	5191.31
435.78	5144.50
435.97	5076.62
436.16	5039.17
436.34	5125.77
436.53	5146.84
436.72	5261.52
436.90	4975.98
437.09	5160.88
437.28	5144.50
437.46	5320.04
437.65	5240.46
437.84	5144.50
438.02	5057.90
438.21	5322.38
438.40	5100.03
438.58	5362.17
438.77	5352.81
438.96	5406.64
439.14	5638.35
439.33	5565.79
439.52	5696.86
439.70	5640.69
439.89	5713.25
440.08	5659.42
440.26	5771.76
440.45	5811.55
440.63	5907.51
440.82	5970.71
441.01	6045.60
441.19	6061.99
441.38	6167.31
441.57	6146.25
441.75	6085.39
441.94	6249.23
442.12	6253.91
442.31	6326.47
442.50	6469.24
442.68	6256.25
442.87	6469.24
443.05	6532.44
443.24	6595.63
443.43	6476.26
443.61	6579.25
443.80	6715.00
443.98	6403.71
444.17	6139.23
444.35	6497.33
444.54	6551.16
444.73	6525.41
444.91	6394.34
445.10	6427.11
445.28	6476.26
445.47	6291.36
445.65	6541.80
445.84	6700.95
446.02	6649.46
446.21	6590.95
446.39	6504.35
446.58	6583.93
446.77	6707.98
446.95	6703.29
447.14	6635.42
447.32	6684.57
447.51	6689.25
447.69	6583.93
447.88	6883.52
448.06	6764.15
448.25	6679.89
448.43	6796.92
448.62	6857.77
448.80	6759.47
448.99	6897.56
449.17	6750.10
449.36	6722.02
449.54	6953.73
449.73	7117.57
449.91	7119.91
450.10	7016.93
450.28	7328.22
450.46	7323.54
450.65	7166.72
450.83	7351.62
451.02	7152.68
451.20	7295.45
451.39	7178.42
451.57	7288.43
451.76	7126.93
451.94	7358.64
452.13	7318.86
452.31	7258.00
452.49	7246.30
452.68	7295.45
452.86	7162.04
453.05	7419.50
453.23	7475.67
453.42	7351.62
453.60	7386.73
453.78	7494.40
453.97	7325.88
454.15	7581.00
454.34	7449.93
454.52	7424.18
454.70	7604.40
454.89	7667.60
455.07	7815.05
455.26	7646.53
455.44	7817.39
455.62	7662.91
455.81	7775.26
455.99	7721.43
456.17	7808.03
456.36	7763.56
456.54	8002.29
456.73	7948.46
456.91	8379.12
457.09	8294.86
457.28	8152.09
457.46	8065.49
457.64	8119.32
457.83	8147.40
458.01	8224.64
458.19	8177.83
458.38	8161.45
458.56	8425.93
458.74	8315.92
458.93	8234.00
459.11	8432.95
459.29	8351.03
459.48	8479.76
459.66	8381.46
459.84	8320.60
460.03	8461.04
460.21	8372.10
460.39	8486.78
460.57	8491.46
460.76	8458.70
460.94	8608.49
461.12	8739.56
461.31	8718.50
461.49	8648.28
461.67	8683.39
461.85	8746.58
462.04	8781.69
462.22	9268.52
462.40	8812.12
462.59	8697.43
462.77	8781.69
462.95	9057.87
463.13	9085.96
463.32	8912.76
463.50	8980.64
463.68	9137.45
463.86	9160.86
464.05	9055.53
464.23	8788.71
464.41	9135.11
464.59	9029.79
464.78	9219.37
464.96	9170.22
465.14	9064.89
465.32	9411.29
465.50	9357.46
465.69	9397.25
465.87	9184.26
466.05	9317.67
466.23	9270.86
466.41	9320.01
466.60	9476.83
466.78	8968.93
466.96	9249.80
467.14	9350.44
467.32	9458.10
467.51	9514.28
467.69	9071.92
467.87	9479.17
468.05	9586.83
468.23	9441.72
468.41	9577.47
468.60	9530.66
468.78	9699.18
468.96	9856.00
469.14	9973.02
469.32	9865.36
469.50	9434.70
469.69	9582.15
469.87	9802.16
470.05	9792.80
470.23	9664.07
470.41	9820.89
470.59	9921.53
470.77	9891.10
470.95	10015.15
471.14	10057.28
471.32	9956.64
471.50	10375.59
471.68	10485.60
471.86	10230.48
472.04	10359.21
472.22	10855.40
472.40	10136.86
472.58	10389.64
472.77	10410.70
472.95	10623.69
473.13	10988.82
473.31	10583.90
473.49	10457.51
473.67	10670.50
473.85	10745.40
474.03	11140.95
474.21	11061.37
474.39	10956.05
474.57	11037.97
474.75	11328.19
474.93	11360.96
475.12	11162.01
475.30	11398.41
475.48	11234.57
475.66	11269.68
475.84	11396.07
476.02	11417.13
476.20	11527.14
476.38	11597.35
476.56	11969.50
476.74	11763.53
476.92	11852.47
477.10	11812.68
477.28	12138.02
477.46	12182.49
477.64	12280.79
477.82	12449.31
478.00	12865.92
478.18	12369.73
478.36	12468.03
478.54	12734.85
478.72	12856.56
478.90	12957.21
479.08	13067.21
479.26	13039.12
479.44	13415.95
479.62	13425.31
479.80	13198.28
479.98	13486.17
480.16	13708.52
480.34	13415.95
480.52	13968.32
480.70	13547.02
480.88	13748.31
481.06	13858.31
481.24	14251.52
481.41	14223.44
481.59	14588.56
481.77	14658.78
481.95	14600.26
482.13	14860.06
482.31	14581.54
482.49	15105.82
482.67	14857.72
482.85	15044.96
483.03	15288.38
483.21	15566.90
483.39	15522.43
483.57	15405.41
483.74	15618.39
483.92	15786.91
484.10	15594.99
484.28	16009.26
484.46	15889.90
484.64	16072.46
484.82	16533.54
485.00	16482.05
485.18	16397.79
485.35	16526.52
485.53	16339.28
485.71	16400.13
485.89	16617.80
486.07	16463.33
486.25	16896.33
486.43	16992.29
486.61	17254.43
486.78	17245.07
486.96	17249.75
487.14	17795.09
487.32	17614.87
487.50	17853.61
487.68	18649.39
487.85	18469.17
488.03	18485.55
488.21	18710.24
488.39	18436.40
488.57	18773.44
488.75	18904.51
488.92	19143.24
489.10	19475.60
489.28	19777.53
489.46	19597.31
489.64	19726.04
489.81	19962.43
489.99	20463.30
490.17	20044.35
490.35	20397.77
490.53	20177.76
490.70	20306.49
490.88	20634.16
491.06	20781.62
491.24	20781.62
491.41	20812.04
491.59	21186.53
491.77	21029.71
491.95	21032.05
492.13	21537.61
492.30	21769.32
492.48	21692.08
492.66	21902.73
492.84	21834.86
493.01	22202.32
493.19	22139.13
493.37	22277.22
493.54	22600.21
493.72	22843.63
493.90	22686.81
494.08	23065.98
494.25	23534.09
494.43	23293.01
494.61	23070.66
494.79	23396.00
494.96	23791.55
495.14	23679.20
495.32	23882.83
495.49	23751.76
495.67	23747.08
495.85	24100.50
496.02	24393.06
496.20	24259.65
496.38	24713.72
496.55	24877.55
496.73	25312.89
496.91	24851.81
497.09	25165.44
497.26	25252.04
497.44	25186.50
497.62	25230.98
497.79	25418.22
497.97	25228.63
498.14	25766.96
498.32	25666.31
498.50	25638.23
498.67	26195.28
498.85	26281.88
499.03	26478.48
499.20	26164.85
499.38	26359.11
499.56	26253.79
499.73	26878.71
499.91	26494.86
500.08	26644.66
500.26	26965.31
500.44	26450.39
500.61	26955.95
500.79	26707.85
500.97	26761.69
501.14	27199.37
501.32	27133.83
501.49	27363.20
501.67	27536.40
501.84	27587.89
502.02	27709.60
502.20	27557.47
502.37	28081.75
502.55	27917.91
502.72	28343.89
502.90	28297.08
503.07	27793.86
503.25	28283.03
503.43	28203.46
503.60	28386.02
503.78	28107.49
503.95	28795.61
504.13	28964.13
504.30	28561.56
504.48	28882.21
504.65	29165.42
504.83	29312.87
505.01	29610.12
505.18	29067.11
505.36	29736.51
505.53	29413.51
505.71	29825.45
505.88	30195.25
506.06	29376.06
506.23	30022.05
506.41	29771.61
506.58	29926.09
506.76	30307.60
506.93	30511.22
507.11	30331.00
507.28	30274.83
507.46	30195.25
507.63	30377.81
507.81	30539.31
507.98	30242.06
508.16	30843.58
508.33	30780.39
508.50	30731.23
508.68	31084.65
508.85	31101.04
509.03	31220.41
509.20	31255.51
509.38	31302.32
509.55	31398.29
509.73	31637.02
509.90	31564.46
510.08	31321.05
510.25	31576.17
510.42	31793.84
510.60	31725.96
510.77	32247.90
510.95	32266.63
511.12	32275.99
511.30	32472.59
511.47	32617.71
511.64	32215.13
511.82	32521.74
511.99	32442.17
512.17	33076.45
512.34	32444.51
512.51	32737.07
512.69	32823.67
512.86	33139.65
513.04	33336.25
513.21	33078.79
513.38	33104.54
513.56	33645.20
513.73	32776.86
513.90	32999.21
514.08	33436.89
514.25	33717.76
514.43	33366.68
514.60	33567.96
514.77	33687.33
514.95	34022.03
515.12	33940.11
515.29	34113.31
515.47	34291.19
515.64	34249.06
515.81	34164.80
515.99	34103.95
516.16	34129.69
516.33	33521.15
516.51	33900.32
516.68	33174.75
516.85	33654.56
517.03	33865.21
517.20	33919.04
517.37	34583.76
517.54	34543.97
517.72	34396.51
517.89	34293.53
518.06	34527.58
518.24	34359.06
518.41	34342.68
518.58	34684.40
518.75	35058.88
518.93	35075.27
519.10	35412.31
519.27	35566.78
519.45	35475.50
519.62	35276.55
519.79	35559.76
519.96	35625.29
520.14	35627.63
520.31	35690.83
520.48	36013.82
520.65	35899.14
520.83	36385.97
521.00	36086.38
521.17	36086.38
521.34	36367.24
521.52	36416.40
521.69	36456.18
521.86	36769.82
522.03	36610.66
522.20	36652.79
522.38	36591.94
522.55	36842.37
522.72	36755.77
522.89	36774.50
523.07	36905.57
523.24	37111.53
523.41	37453.25
523.58	36833.01
523.75	37301.12
523.92	37612.41
524.10	37476.66
524.27	37420.48
524.44	37607.73
524.61	38019.66
524.78	37897.95
524.96	37928.38
525.13	38174.14
525.30	38178.82
525.47	38139.03
525.64	38162.43
525.81	37621.77
525.98	37881.57
526.16	37820.72
526.33	37670.92
526.50	38202.22
526.67	37736.46
526.84	37937.74
527.01	37876.89
527.18	37523.47
527.36	38457.34
527.53	38808.42
527.70	39070.56
527.87	38745.23
528.04	38148.39
528.21	38569.69
528.38	38775.66
528.55	38845.87
528.72	38742.89
528.89	39157.16
529.07	39351.43
529.24	38937.15
529.41	38866.94
529.58	39316.32
529.75	38904.38
529.92	39405.26
530.09	39313.98
530.26	39838.26
530.43	39592.50
530.60	39552.71
530.77	39819.53
530.94	40135.51
531.11	39503.56
531.28	40250.19
531.46	39761.02
531.63	40013.80
531.80	39892.09
531.97	39878.05
532.14	39922.52
532.31	39669.74
532.48	39562.08
532.65	40170.61
532.82	39629.95
532.99	40161.25
533.16	40231.47
533.33	40219.77
533.50	40163.59
533.67	40491.27
533.84	40002.10
534.01	40727.66
534.18	40444.46
534.35	40432.75
534.52	40655.11
534.69	40835.33
534.86	40980.44
535.03	40636.38
535.20	40722.98
535.37	41368.97
535.54	40645.74
535.71	41212.15
535.88	41261.30
536.05	41270.67
536.22	41294.07
536.38	41219.17
536.55	41422.80
536.72	40645.74
536.89	41078.74
537.06	41053.00
537.23	41853.46
537.40	41263.64
537.57	41495.36
537.74	41766.86
537.91	41846.44
538.08	41806.65
538.25	41123.21
538.42	41677.92
538.59	41734.09
538.75	41591.32
538.92	42043.04
539.09	42021.98
539.26	41942.40
539.43	41830.05
539.60	42075.81
539.77	42078.15
539.94	41776.22
540.11	41691.96
540.28	41916.65
540.44	41961.12
540.61	42059.43
540.78	41855.80
540.95	42244.33
541.12	42253.69
541.29	42054.75
541.46	42183.48
541.62	42433.91
541.79	42443.27
541.96	41694.30
542.13	42277.10
542.30	42834.14
542.47	42394.12
542.63	43033.09
542.80	42663.28
542.97	42876.27
543.14	43199.27
543.31	42923.08
543.48	42983.94
543.64	43470.77
543.81	43042.45
543.98	43475.45
544.15	43208.63
544.32	43178.20
544.48	43828.87
544.65	43262.46
544.82	43700.14
544.99	43124.37
545.16	43290.55
545.32	42876.27
545.49	43866.32
545.66	43564.39
545.83	43833.55
546.00	44275.91
546.16	43697.80
546.33	43538.65
546.50	43077.56
546.67	43634.61
546.83	43009.68
547.00	43459.07
547.17	43622.90
547.34	43636.95
547.50	43889.73
547.67	44116.76
547.84	43784.40
548.00	44107.40
548.17	44079.31
548.34	43894.41
548.51	44381.24
548.67	44083.99
548.84	44296.98
549.01	44196.34
549.18	44472.52
549.34	44201.02
549.51	44708.91
549.68	44481.88
549.84	44538.05
550.01	44694.87
550.18	44418.69
550.34	44657.42
550.51	44416.35
550.68	44264.21
550.84	44289.96
551.01	44524.01
551.18	44376.56
551.34	44821.26
551.51	44547.42
551.68	44832.96
551.84	45144.25
552.01	44341.45
552.18	44830.62
552.34	44472.52
552.51	44849.35
552.68	44907.86
552.84	45102.12
553.01	45113.83
553.18	44893.82
553.34	45099.78
553.51	44912.54
553.67	45097.44
553.84	44793.17
554.01	45099.78
554.17	45427.46
554.34	45525.76
554.51	45511.72
554.67	45258.94
554.84	44673.81
555.00	45045.95
555.17	45170.00
555.33	45354.90
555.50	45373.63
555.67	45485.97
555.83	45294.05
556.00	45563.21
556.16	45549.17
556.33	45570.23
556.50	45303.41
556.66	45696.62
556.83	45429.80
556.99	45773.86
557.16	45715.34
557.32	45633.42
557.49	45848.75
557.65	45495.33
557.82	45242.56
557.98	45617.04
558.15	45471.93
558.32	45521.08
558.48	45214.47
558.65	45619.38
558.81	45455.54
558.98	45399.37
559.14	46183.45
559.31	45631.08
559.47	45652.15
559.64	45745.77
559.80	45961.10
559.97	46167.07
560.13	45794.92
560.30	45525.76
560.46	45958.76
560.63	45769.18
560.79	45684.92
560.96	46078.13
561.12	46094.51
561.29	46021.95
561.45	45902.59
561.61	46064.08
561.78	46120.26
561.94	45591.30
562.11	45825.35
562.27	45624.06
562.44	46031.32
562.60	46328.56
562.77	46274.73
562.93	46340.27
563.10	46447.93
563.26	45773.86
563.42	46822.42
563.59	45731.73
563.75	46071.10
563.92	46209.20
564.08	46021.95
564.24	46361.33
564.41	46174.09
564.57	46529.85
564.74	46096.85
564.90	46190.47
565.07	46146.00
565.23	45909.61
565.39	46555.60
565.56	46539.21
565.72	46419.84
565.88	46068.76
566.05	46089.83
566.21	46153.02
566.38	45897.91
566.54	46548.57
566.70	46630.49
566.87	46885.61
567.03	46195.15
567.19	46534.53
567.36	46604.75
567.52	46143.66
567.68	46834.12
567.85	46288.77
568.01	45940.04
568.17	46298.14
568.34	46326.22
568.50	46768.58
568.66	46609.43
568.83	46480.70
568.99	46340.27
569.15	46405.80
569.32	46134.30
569.48	46424.53
569.64	46677.30
569.81	46831.78
569.97	46583.68
570.13	46756.88
570.30	46227.92
570.46	46291.12
570.62	46347.29
570.78	46038.34
570.95	45923.65
571.11	46412.82
571.27	46590.70
571.43	46256.01
571.60	46508.79
571.76	46272.39
571.92	46415.16
572.09	46391.76
572.25	46078.13
572.41	46539.21
572.57	47000.30
572.74	46859.87
572.90	46808.37
573.06	46457.29
573.22	46548.57
573.38	46827.10
573.55	46635.17
573.71	46698.37
573.87	46742.84
574.03	46740.50
574.20	46527.51
574.36	46571.98
574.52	46880.93
574.68	46454.95
574.84	46642.20
575.01	46424.53
575.17	46581.34
575.33	46363.67
575.49	46630.49
575.65	46857.52
575.82	47105.62
575.98	46827.10
576.14	46843.48
576.30	46557.94
576.46	46375.37
576.62	45991.53
576.79	46260.69
576.95	45993.87
577.11	46822.42
577.27	46309.84
577.43	46747.52
577.59	46644.54
577.75	46581.34
577.92	46197.49
578.08	46251.33
578.24	46501.76
578.40	46499.42
578.56	46976.89
578.72	46927.74
578.88	46583.68
579.04	46721.77
579.21	46710.07
579.37	46733.48
579.53	46429.21
579.69	46541.55
579.85	46773.27
580.01	46777.95
580.17	46766.24
580.33	46808.37
580.49	47140.73
580.65	46712.41
580.82	46686.67
580.98	46988.60
581.14	46518.15
581.30	46904.34
581.46	46995.62
581.62	46969.87
581.78	46698.37
581.94	46925.40
582.10	46988.60
582.26	46876.25
582.42	46995.62
582.58	46843.48
582.74	46473.68
582.90	46665.60
583.06	46740.50
583.22	46960.51
583.38	47086.90
583.54	46855.18
583.70	46642.20
583.86	46803.69
584.02	46838.80
584.18	46981.57
584.34	46930.08
584.50	46649.22
584.66	46885.61
584.82	46550.91
584.98	46815.40
585.14	47180.52
585.30	46820.08
585.46	46611.77
585.62	46422.19
585.78	46579.00
585.94	46571.98
586.10	46672.62
586.26	46543.89
586.42	47175.84
586.58	47026.04
586.74	46646.88
586.90	46759.22
587.06	46419.84
587.22	46904.34
587.38	46614.11
587.54	46941.78
587.70	47112.64
587.86	47056.47
588.02	46667.94
588.18	47136.05
588.34	46904.34
588.49	46342.61
588.65	46300.48
588.81	46511.13
588.97	46417.50
589.13	46103.87
589.29	46506.44
589.45	46665.60
589.61	46522.83
589.77	46923.06
589.93	46703.05
590.08	46864.55
590.24	46408.14
590.40	47070.51
590.56	47292.86
590.72	46873.91
590.88	46850.50
591.04	47117.32
591.20	47271.80
591.35	47129.03
591.51	47569.05
591.67	47079.88
591.83	46869.23
591.99	46880.93
592.15	46843.48
592.31	47234.35
592.46	47044.77
592.62	46841.14
592.78	47320.95
592.94	47304.57
593.10	46705.39
593.26	47136.05
593.41	46925.40
593.57	47114.98
593.73	46646.88
593.89	46686.67
594.05	46979.23
594.20	46972.21
594.36	46738.16
594.52	46831.78
594.68	46969.87
594.84	46579.00
594.99	47208.61
595.15	46967.53
595.31	47049.45
595.47	46892.63
595.62	46997.96
595.78	47262.44
595.94	47501.17
596.10	47318.61
596.25	47367.76
596.41	47217.97
596.57	47124.35
596.73	47342.02
596.88	46747.52
597.04	47236.69
597.20	47173.50
597.36	47093.92
597.51	47093.92
597.67	47337.33
597.83	47496.49
597.99	47255.42
598.14	46541.55
598.30	46909.02
598.46	46990.94
598.61	47243.71
598.77	46784.97
598.93	46822.42
599.09	47072.85
599.24	47058.81
599.40	47192.22
599.56	47365.42
599.71	47531.60
599.87	47213.29
600.03	47103.28
600.18	47063.49
600.34	47234.35
600.50	46976.89
600.65	47098.60
600.81	47180.52
600.97	47269.46
601.12	47873.32
601.28	47356.06
601.44	46859.87
601.59	46871.57
601.75	46920.72
601.91	46962.85
602.06	47342.02
602.22	47173.50
602.37	47058.81
602.53	47157.11
602.69	47374.78
602.84	46923.06
603.00	46665.60
603.16	47168.82
603.31	47065.83
603.47	47051.79
603.62	46941.78
603.78	47337.33
603.94	46656.24
604.09	47215.63
604.25	47217.97
604.40	46632.83
604.56	46941.78
604.71	46714.75
604.87	47175.84
605.03	46925.40
605.18	47206.26
605.34	47136.05
605.49	46925.40
605.65	46906.68
605.80	46948.81
605.96	46960.51
606.12	46953.49
606.27	46997.96
606.43	46550.91
606.58	47250.74
606.74	46550.91
606.89	46969.87
607.05	46883.27
607.20	47061.15
607.36	46588.36
607.51	47342.02
607.67	46913.70
607.82	47077.54
607.98	46780.29
608.13	46569.64
608.29	46630.49
608.44	46382.40
608.60	45923.65
608.75	46195.15
608.91	46670.28
609.06	46340.27
609.22	47014.34
609.37	46562.62
609.53	46574.32
609.68	46473.68
609.84	46515.81
609.99	46342.61
610.15	46501.76
610.30	46405.80
610.46	46085.15
610.61	46356.65
610.76	46328.56
610.92	46777.95
611.07	46728.80
611.23	46487.72
611.38	46548.57
611.54	45970.46
611.69	46246.65
611.84	45766.84
612.00	46476.02
612.15	46052.38
612.31	46021.95
612.46	46356.65
612.62	46550.91
612.77	45989.19
612.92	46237.28
613.08	46054.72
613.23	46038.34
613.39	45797.26
613.54	45504.70
613.69	46043.02
613.85	45851.09
614.00	46106.21
614.15	46422.19
614.31	45956.42
614.46	46389.42
614.62	45764.49
614.77	45769.18
614.92	45947.06
615.08	45603.00
615.23	46131.96
615.38	46155.36
615.54	45687.26
615.69	45464.91
615.84	45471.93
616.00	45881.52
616.15	45462.57
616.30	45745.77
616.46	45530.44
616.61	45228.51
616.76	45329.16
616.92	45247.24
617.07	45397.03
617.22	44975.73
617.37	45443.84
617.53	45942.38
617.68	45691.94
617.83	45713.00
617.99	45717.68
618.14	45371.28
618.29	45303.41
618.45	45420.44
618.60	45298.73
618.75	45521.08
618.90	45411.07
619.06	45254.26
619.21	45240.21
619.36	45469.59
619.51	45326.81
619.67	45069.36
619.82	45591.30
619.97	45549.17
620.12	44708.91
620.28	44772.11
620.43	45294.05
620.58	45375.97
620.73	44924.24
620.89	44598.91
621.04	45013.18
621.19	44914.88
621.34	44762.75
621.49	44858.71
621.65	44601.25
621.80	44865.73
621.95	44313.36
622.10	45099.78
622.25	44568.48
622.41	44524.01
622.56	44715.93
622.71	44706.57
622.86	44505.29
623.01	44556.78
623.16	44678.49
623.32	44779.13
623.47	44891.48
623.62	44729.98
623.77	44442.09
623.92	44725.30
624.07	44392.94
624.23	44259.53
624.38	44304.00
624.53	44580.18
624.68	44486.56
624.83	44112.08
624.98	44006.75
625.13	44261.87
625.29	44060.58
625.44	44184.63
625.59	44273.57
625.74	43887.39
625.89	43578.43
626.04	43800.79
626.19	43938.88
626.34	44060.58
626.49	44039.52
626.65	43854.62
626.80	44355.49
626.95	43941.22
627.10	43278.85
627.25	43622.90
627.40	43475.45
627.55	42859.89
627.70	42993.30
627.85	43255.44
628.00	43463.75
628.15	44018.46
628.30	43386.51
628.45	43531.62
628.60	43311.61
628.76	43901.43
628.91	43386.51
629.06	43353.74
629.21	43445.02
629.36	43405.23
629.51	43779.72
629.66	43419.28
629.81	43175.86
629.96	43555.03
630.11	43459.07
630.26	43292.89
630.41	43136.07
630.56	43124.37
630.71	43590.14
630.86	43253.10
631.01	42951.17
631.16	43009.68
631.31	42637.54
631.46	42270.08
631.61	43129.05
631.76	42784.99
631.91	43030.75
632.06	42693.71
632.21	43278.85
632.36	43206.29
632.51	42859.89
632.66	42784.99
632.81	42405.83
632.96	42665.63
633.10	42347.31
633.25	42562.64
633.40	42799.04
633.55	43000.32
633.70	42466.68
633.85	42447.96
634.00	42550.94
634.15	42635.20
634.30	42682.01
634.45	42515.83
634.60	42532.22
634.75	42431.57
634.90	42707.76
635.05	42562.64
635.19	42492.43
635.34	42501.79
635.49	42181.13
635.64	42258.37
635.79	42045.38
635.94	41933.04
636.09	41965.81
636.24	42267.73
636.39	41986.87
636.53	42019.64
636.68	41759.84
636.83	41680.26
636.98	42506.47
637.13	41942.40
637.28	42349.65
637.43	42064.11
637.57	42103.90
637.72	42244.33
637.87	42038.36
638.02	42190.50
638.17	41645.15
638.32	41633.45
638.46	41956.44
638.61	41921.34
638.76	41687.28
638.91	41890.91
639.06	41476.63
639.20	41951.76
639.35	41909.63
639.50	41853.46
639.65	41698.98
639.80	41698.98
639.94	41343.22
640.09	41684.94
640.24	41497.70
640.39	41375.99
640.54	41193.43
640.68	41069.38
640.83	41698.98
640.98	41237.90
641.13	41270.67
641.27	41305.77
641.42	41345.56
641.57	41347.90
641.72	41123.21
641.86	40816.60
642.01	41226.20
642.16	40734.68
642.31	40617.66
642.45	40896.18
642.60	40734.68
642.75	40816.60
642.90	40657.45
643.04	40673.83
643.19	41111.51
643.34	40678.51
643.48	40928.95
643.63	41144.28
643.78	40648.08
643.93	40959.38
644.07	40570.85
644.22	40783.83
644.37	40313.39
644.51	40076.99
644.66	40526.38
644.81	41008.53
644.95	40814.26
645.10	40940.65
645.25	40568.51
645.39	40690.21
645.54	40706.60
645.69	40793.20
645.83	40088.70
645.98	40325.09
646.13	40917.25
646.27	40404.67
646.42	40095.72
646.57	40238.49
646.71	40013.80
646.86	39957.63
647.00	40149.55
647.15	40289.98
647.30	40037.20
647.44	40205.72
647.59	40177.64
647.74	39880.39
647.88	40088.70
648.03	40072.31
648.17	40020.82
648.32	39578.46
648.47	39725.91
648.61	39758.68
648.76	39880.39
648.90	39686.12
649.05	39601.86
649.20	39791.45
649.34	40055.93
649.49	39683.78
649.63	39922.52
649.78	40051.25
649.92	39456.75
650.07	40201.04
650.21	39599.52
650.36	39803.15
650.51	39573.78
650.65	39807.83
650.80	39828.90
650.94	39971.67
651.09	39400.58
651.23	39585.48
651.38	39292.91
651.52	39491.86
651.67	39229.72
651.81	39253.12
651.96	39234.40
652.10	39189.93
652.25	39519.95
652.39	39482.50
652.54	39220.36
652.68	39515.26
652.83	39388.88
652.97	39246.10
653.12	38836.51
653.26	39082.27
653.41	38677.35
653.55	38810.76
653.70	38873.96
653.84	39178.23
653.99	38983.96
654.13	39049.50
654.27	38993.32
654.42	38890.34
654.56	38885.66
654.71	39159.50
654.85	38925.45
655.00	38909.07
655.14	38731.18
655.29	38682.03
655.43	38642.24
655.57	38136.69
655.72	38291.16
655.86	38384.79
656.01	37991.58
656.15	38462.02
656.30	37783.27
656.44	38045.41
656.58	37956.47
656.73	37827.74
656.87	37750.50
657.01	37900.29
657.16	37940.08
657.30	37886.25
657.45	37528.15
657.59	37996.26
657.73	37713.05
657.88	37963.49
658.02	38047.75
658.16	37804.33
658.31	38239.67
658.45	38279.46
658.60	37743.48
658.74	38211.59
658.88	38033.71
659.03	37972.85
659.17	37853.48
659.31	37577.30
659.46	37528.15
659.60	37816.04
659.74	37699.01
659.89	37137.28
660.03	37605.39
660.17	37493.04
660.32	37280.05
660.46	37858.17
660.60	37537.51
660.74	37476.66
660.89	37574.96
661.03	36903.23
661.17	37041.32
661.32	37074.09
661.46	37280.05
661.60	37113.87
661.74	36856.42
661.89	36680.88
662.03	36769.82
662.17	36622.36
662.31	36898.55
662.46	36905.57
662.60	37277.71
662.74	36598.96
662.88	35967.01
663.03	36526.40
663.17	36346.18
663.31	36252.56
663.45	36608.32
663.60	36601.30
663.74	36495.97
663.88	35988.08
664.02	36084.04
664.17	35887.43
664.31	36023.19
664.45	36130.85
664.59	36147.23
664.73	36004.46
664.88	36180.00
665.02	35798.49
665.16	36395.33
665.30	35896.80
665.44	36070.00
665.59	35845.30
665.73	35594.87
665.87	35271.87
666.01	35721.26
666.15	35424.01
666.29	35360.81
666.44	35529.33
666.58	35353.79
666.72	35517.63
666.86	35597.21
667.00	35283.58
667.14	34873.98
667.28	34766.32
667.43	34607.16
667.57	35019.10
667.71	34866.96
667.85	34740.57
667.99	34983.99
668.13	34541.63
668.27	34785.04
668.41	34815.47
668.56	34417.58
668.70	34202.25
668.84	34763.98
668.98	34199.91
669.12	34026.71
669.26	34735.89
669.40	34087.56
669.54	34010.32
669.68	34078.20
669.82	34279.49
669.96	33649.88
670.10	33413.49
670.25	34146.08
670.39	33853.51
670.53	33806.70
670.67	33797.34
670.81	33921.38
670.95	33706.05
671.09	34260.76
671.23	33694.35
671.37	33441.57
671.51	33266.03
671.65	33373.70
671.79	33036.66
671.93	32999.21
672.07	32872.82
672.21	33167.73
672.35	32931.34
672.49	33111.56
672.63	33195.82
672.77	33251.99
672.91	32865.80
673.05	32744.09
673.19	32533.45
673.33	32685.58
673.47	32411.74
673.61	32081.72
673.75	32093.43
673.89	31861.71
674.03	32018.53
674.17	31992.78
674.31	31662.77
674.45	31772.77
674.59	31693.19
674.73	32177.68
674.87	31569.15
675.01	31931.93
675.15	31880.44
675.29	31826.60
675.43	31857.03
675.56	31702.56
675.70	31508.29
675.84	31314.03
675.98	30157.80
676.12	31091.68
676.26	30972.31
676.40	30789.75
676.54	30628.25
676.68	31058.91
676.82	30040.78
676.96	30433.99
677.10	30569.74
677.23	30436.33
677.37	30546.33
677.51	30691.44
677.65	30085.25
677.79	30057.16
677.93	30279.51
678.07	29912.05
678.21	29701.40
678.34	29633.52
678.48	29500.11
678.62	29820.77
678.76	29240.31
678.90	29362.02
679.04	29472.03
679.18	29408.83
679.31	28938.38
679.45	29043.71
679.59	28568.58
679.73	28711.35
679.87	28620.07
680.00	28451.55
680.14	28517.09
680.28	28357.93
680.42	28538.15
680.56	28285.37
680.70	28144.94
680.83	28294.74
680.97	28032.60
681.11	27817.27
681.25	27646.41
681.39	27840.67
681.52	27580.87
681.66	27763.43
681.80	27515.34
681.94	27562.15
682.07	27632.36
682.21	27080.00
682.35	27260.22
682.49	26941.91
682.62	27234.47
682.76	26677.43
682.90	26684.45
683.04	26845.94
683.17	26768.71
683.31	26579.12
683.45	26497.20
683.59	26614.23
683.72	26082.93
683.86	26001.01
684.00	26246.77
684.13	25951.86
684.27	26340.39
684.41	25776.32
684.55	25867.60
684.68	25324.60
684.82	25352.68
684.96	25462.69
685.09	25355.02
685.23	25420.56
685.37	25123.31
685.50	25415.88
685.64	25214.59
685.78	25092.88
685.91	25240.34
686.05	25025.01
686.19	24964.15
686.32	24844.79
686.46	24261.99
686.60	23917.93
686.73	23943.68
686.87	23953.04
687.01	23960.06
687.14	23765.80
687.28	23765.80
687.42	23541.11
687.55	23445.15
687.69	23585.58
687.82	23192.37
687.96	23646.43
688.10	23335.14
688.23	23311.74
688.37	23040.23
688.50	23063.64
688.64	22600.21
688.78	22948.95
688.91	22775.75
689.05	22562.76
689.18	22471.48
689.32	22281.90
689.46	22618.94
689.59	22492.55
689.73	22726.60
689.86	22293.60
690.00	22546.38
690.13	22492.55
690.27	22483.19
690.41	22164.87
690.54	21982.31
690.68	21741.24
690.81	21645.27
690.95	21598.46
691.08	21664.00
691.22	21443.99
691.35	21472.07
691.49	21483.78
691.62	21163.12
691.76	21436.97
691.89	21247.38
692.03	20744.17
692.16	20716.08
692.30	20889.28
692.43	20819.07
692.57	20856.51
692.70	20545.22
692.84	20634.16
692.97	20397.77
693.11	20503.09
693.24	20346.28
693.38	19992.86
693.51	19948.39
693.65	20114.56
693.78	19957.75
693.92	19978.81
694.05	19688.59
694.19	19896.89
694.32	19789.23
694.45	19875.83
694.59	19508.37
694.72	19697.95
694.86	19620.71
694.99	19281.33
695.13	18953.66
695.26	18857.70
695.39	18867.06
695.53	18876.42
695.66	18988.77
695.80	18977.06
695.93	18637.69
696.07	18637.69
696.20	18728.97
696.33	18796.84
696.47	18654.07
696.60	18394.27
696.73	18324.05
696.87	18579.17
697.00	18214.05
697.14	18256.18
697.27	17886.37
697.40	18153.20
697.54	17769.35
697.67	17811.48
697.80	18017.44
697.94	17642.96
698.07	17556.36
698.21	17451.03
698.34	17645.30
698.47	17547.00
698.61	17254.43
698.74	17268.47
698.87	17053.14
699.01	16987.61
699.14	16800.37
699.27	16978.25
699.40	16893.99
699.54	16397.79
699.67	16629.51
699.80	16425.88
699.94	16444.60
700.07	16510.14
700.20	16311.19
700.34	16222.25
700.47	15885.22
700.60	16224.59
700.73	16278.43
700.87	16020.97
701.00	15798.62
701.13	15740.10
701.26	15908.62
701.40	15990.54
701.53	15627.76
701.66	15742.44
701.79	15564.56
701.93	15398.38
702.06	15440.51
702.19	15377.32
702.32	15494.35
702.46	15119.86
702.59	15449.88
702.72	15147.95
702.85	15077.73
702.99	15204.12
703.12	15297.74
703.25	14803.89
703.38	15016.88
703.51	14970.07
703.65	14618.99
703.78	14853.04
703.91	14602.60
704.04	14363.87
704.17	14483.24
704.31	14242.16
704.44	14052.58
704.57	13916.83
704.70	14190.67
704.83	13926.19
704.96	14319.40
705.10	13830.23
705.23	13891.08
>>>>>End Processed Spectral Data<<<<<
