SpectraSuite Data File
++++++++++++++++++++++++++++++++++++
Date: Fri Oct 25 11:33:42 EDT 2013
User: price-jones
Dark Spectrum Present: No
Reference Spectrum Present: No
Number of Sampled Component Spectra: 1
Spectrometers: USB2+H05261
Integration Time (usec): 100000 (USB2+H05261)
Spectra Averaged: 1 (USB2+H05261)
Boxcar Smoothing: 0 (USB2+H05261)
Correct for Electrical Dark: No (USB2+H05261)
Strobe/Lamp Enabled: No (USB2+H05261)
Correct for Detector Non-linearity: No (USB2+H05261)
Correct for Stray Light: No (USB2+H05261)
Number of Pixels in Processed Spectrum: 2048
>>>>>Begin Processed Spectral Data<<<<<
365.73	294.91
365.92	294.91
366.12	294.91
366.32	210.65
366.52	217.67
366.72	243.42
366.91	182.56
367.11	177.88
367.31	152.13
367.51	234.05
367.70	140.43
367.90	184.90
368.10	208.31
368.30	241.08
368.49	95.96
368.69	234.05
368.89	255.12
369.09	173.20
369.28	220.01
369.48	177.88
369.68	203.63
369.87	252.78
370.07	278.52
370.27	320.65
370.47	362.78
370.66	468.11
370.86	524.28
371.06	554.71
371.25	601.52
371.45	585.13
371.65	526.62
371.84	568.75
372.04	550.03
372.24	578.11
372.44	538.32
372.63	620.24
372.83	557.05
373.03	685.78
373.22	636.63
373.42	615.56
373.62	545.34
373.81	575.77
374.01	660.03
374.21	657.69
374.40	624.92
374.60	667.05
374.79	613.22
374.99	592.16
375.19	716.20
375.38	664.71
375.58	730.25
375.78	589.82
375.97	753.65
376.17	704.50
376.37	594.50
376.56	678.76
376.76	641.31
376.95	643.65
377.15	655.35
377.35	622.58
377.54	734.93
377.74	655.35
377.93	634.29
378.13	746.63
378.33	702.16
378.52	601.52
378.72	716.20
378.91	678.76
379.11	690.46
379.31	763.01
379.50	674.07
379.70	767.70
379.89	802.80
380.09	685.78
380.28	744.29
380.48	730.25
380.68	711.52
380.87	723.23
381.07	734.93
381.26	786.42
381.46	746.63
381.65	779.40
381.85	788.76
382.04	755.99
382.24	788.76
382.43	713.86
382.63	819.19
382.83	779.40
383.02	809.83
383.22	877.70
383.41	702.16
383.61	730.25
383.80	816.85
384.00	814.51
384.19	816.85
384.39	847.27
384.58	821.53
384.78	856.64
384.97	830.89
385.17	866.00
385.36	819.19
385.56	809.83
385.75	812.17
385.95	896.43
386.14	781.74
386.34	816.85
386.53	847.27
386.72	875.36
386.92	896.43
387.11	816.85
387.31	858.98
387.50	889.40
387.70	858.98
387.89	830.89
388.09	898.77
388.28	870.68
388.48	936.21
388.67	891.74
388.86	905.79
389.06	1001.75
389.25	1053.24
389.45	915.15
389.64	1011.11
389.84	1015.79
390.03	936.21
390.22	997.07
390.42	873.02
390.61	908.13
390.81	896.43
391.00	971.32
391.19	1013.45
391.39	997.07
391.58	980.68
391.78	1004.09
391.97	1011.11
392.16	964.30
392.36	1111.75
392.55	1064.94
392.75	1083.67
392.94	1086.01
393.13	983.02
393.33	1114.10
393.52	1097.71
393.71	1097.71
393.91	1156.22
394.10	1060.26
394.29	1086.01
394.49	1034.52
394.68	1074.31
394.88	1153.88
395.07	1149.20
395.26	1081.33
395.46	1167.93
395.65	1132.82
395.84	1102.39
396.04	1219.42
396.23	1240.48
396.42	1200.69
396.62	1263.89
396.81	1235.80
397.00	1217.08
397.19	1284.95
397.39	1224.10
397.58	1315.38
397.77	1238.14
397.97	1261.55
398.16	1355.17
398.35	1378.58
398.55	1214.74
398.74	1327.08
398.93	1380.92
399.12	1282.61
399.32	1256.87
399.51	1289.64
399.70	1362.19
399.90	1427.73
400.09	1385.60
400.28	1380.92
400.47	1387.94
400.67	1359.85
400.86	1352.83
401.05	1406.66
401.24	1385.60
401.44	1483.90
401.63	1455.81
401.82	1486.24
402.01	1423.05
402.21	1547.09
402.40	1493.26
402.59	1544.75
402.78	1535.39
402.97	1504.96
403.17	1462.83
403.36	1472.20
403.55	1474.54
403.74	1519.01
403.93	1530.71
404.13	1591.56
404.32	1629.01
404.51	1596.25
404.70	1673.48
404.89	1614.97
405.09	1724.97
405.28	1650.08
405.47	1680.50
405.66	1774.13
405.85	1715.61
406.05	1717.95
406.24	1727.32
406.43	1710.93
406.62	1746.04
406.81	1820.94
407.00	1795.19
407.20	1673.48
407.39	1785.83
407.58	1839.66
407.77	1893.49
407.96	1891.15
408.15	1870.09
408.34	1863.07
408.54	1865.41
408.73	1870.09
408.92	1884.13
409.11	2008.18
409.30	1963.71
409.49	1900.52
409.68	1935.62
409.87	1937.96
410.07	2012.86
410.26	2085.42
410.45	2040.95
410.64	2078.40
410.83	2092.44
411.02	2197.76
411.21	2202.44
411.40	2104.14
411.59	2162.66
411.78	2118.18
411.98	2197.76
412.17	2279.68
412.36	2335.85
412.55	2373.30
412.74	2279.68
412.93	2413.09
413.12	2331.17
413.31	2462.24
413.50	2333.51
413.69	2464.58
413.88	2506.71
414.07	2483.31
414.26	2600.34
414.45	2544.16
414.64	2546.50
414.83	2586.29
415.02	2642.46
415.22	2579.27
415.41	2579.27
415.60	2722.04
415.79	2640.12
415.98	2818.00
416.17	2792.26
416.36	2796.94
416.55	2796.94
416.74	2668.21
416.93	2708.00
417.12	2841.41
417.31	2743.11
417.50	2766.51
417.69	3108.23
417.88	2951.42
418.07	2916.31
418.26	2951.42
418.45	3089.51
418.64	3087.17
418.83	3061.42
419.02	3091.85
419.21	3047.38
419.39	3145.68
419.58	3068.44
419.77	3066.10
419.96	3089.51
420.15	3164.40
420.34	3133.98
420.53	3110.57
420.72	3152.70
420.91	3262.71
421.10	3225.26
421.29	3316.54
421.48	3089.51
421.67	3304.84
421.86	3272.07
422.05	3370.37
422.24	3361.01
422.43	3356.33
422.61	3386.76
422.80	3487.40
422.99	3529.53
423.18	3328.24
423.37	3358.67
423.56	3428.88
423.75	3391.44
423.94	3260.37
424.13	3236.96
424.32	3356.33
424.50	3559.95
424.69	3536.55
424.88	3569.32
425.07	3407.82
425.26	3316.54
425.45	3501.44
425.64	3403.14
425.83	3456.97
426.01	3506.12
426.20	3473.36
426.39	3590.38
426.58	3461.65
426.77	3517.83
426.96	3534.21
427.15	3524.85
427.33	3503.78
427.52	3637.19
427.71	3641.87
427.90	3688.68
428.09	3728.47
428.28	3559.95
428.46	3655.92
428.65	3721.45
428.84	3728.47
429.03	3808.05
429.22	3751.88
429.40	3751.88
429.59	3735.50
429.78	3634.85
429.97	3721.45
430.16	3892.31
430.34	3913.38
430.53	4002.32
430.72	3854.86
430.91	3801.03
431.10	3864.22
431.28	3911.04
431.47	3962.53
431.66	3889.97
431.85	3758.90
432.03	4028.06
432.22	4229.35
432.41	4042.11
432.60	4184.88
432.79	4203.60
432.97	4100.62
433.16	4313.61
433.35	4133.39
433.54	4191.90
433.72	4072.53
433.91	4131.05
434.10	4311.27
434.28	4145.09
434.47	4203.60
434.66	4210.62
434.85	4227.01
435.03	4236.37
435.22	4329.99
435.41	4512.55
435.59	4386.16
435.78	4348.72
435.97	4491.49
436.16	4358.08
436.34	4234.03
436.53	4470.42
436.72	4631.92
436.90	4407.23
437.09	4306.59
437.28	4468.08
437.46	4542.98
437.65	4505.53
437.84	4568.73
438.02	4589.79
438.21	4531.28
438.40	4582.77
438.58	4812.14
438.77	4772.35
438.96	4758.31
439.14	4870.65
439.33	4835.55
439.52	4858.95
439.70	4821.50
439.89	5093.01
440.08	5055.56
440.26	5050.88
440.45	5114.07
440.63	5177.26
440.82	5195.99
441.01	5093.01
441.19	5210.03
441.38	5313.02
441.57	5305.99
441.75	5303.65
441.94	5434.72
442.12	5373.87
442.31	5355.15
442.50	5474.51
442.68	5383.23
442.87	5483.88
443.05	5547.07
443.24	5579.84
443.43	5582.18
443.61	5544.73
443.80	5738.99
443.98	5462.81
444.17	5247.48
444.35	5603.24
444.54	5556.43
444.73	5631.33
444.91	5586.86
445.10	5542.39
445.28	5558.77
445.47	5614.95
445.65	5556.43
445.84	5764.74
446.02	5692.18
446.21	5589.20
446.39	5776.44
446.58	5729.63
446.77	5820.91
446.95	5437.06
447.14	5753.04
447.32	5610.26
447.51	5640.69
447.69	5659.42
447.88	5820.91
448.06	5710.91
448.25	5710.91
448.43	5844.32
448.62	5734.31
448.80	5722.61
448.99	6036.24
449.17	5996.45
449.36	5790.49
449.54	6120.50
449.73	6076.03
449.91	6083.05
450.10	5966.03
450.28	6139.23
450.46	6204.76
450.65	6143.91
450.83	6012.84
451.02	6251.57
451.20	6251.57
451.39	6167.31
451.57	6324.13
451.76	6157.95
451.94	6171.99
452.13	6326.47
452.31	6270.30
452.49	6225.82
452.68	6310.08
452.86	6403.71
453.05	6574.56
453.23	6415.41
453.42	6506.69
453.60	6335.83
453.78	6471.58
453.97	6462.22
454.15	6565.20
454.34	6520.73
454.52	6539.46
454.70	6410.73
454.89	6637.76
455.07	6579.25
455.26	6616.69
455.44	6710.32
455.62	6860.11
455.81	6682.23
455.99	6761.81
456.17	6890.54
456.36	6817.98
456.54	6939.69
456.73	6747.76
456.91	7045.01
457.09	6939.69
457.28	7171.40
457.46	7045.01
457.64	7035.65
457.83	7056.72
458.01	7089.48
458.19	7393.75
458.38	7037.99
458.56	7070.76
458.74	7433.54
458.93	7150.34
459.11	7255.66
459.29	7370.35
459.48	7438.22
459.66	7281.41
459.84	7360.98
460.03	7396.09
460.21	7492.05
460.39	7262.68
460.57	7358.64
460.76	7496.74
460.94	7473.33
461.12	7520.14
461.31	7513.12
461.49	7613.76
461.67	7524.82
461.85	7688.66
462.04	7569.29
462.22	7901.65
462.40	7747.17
462.59	7676.96
462.77	7754.19
462.95	7943.78
463.13	7803.35
463.32	7756.54
463.50	7829.09
463.68	7941.44
463.86	8016.33
464.05	7971.86
464.23	8060.80
464.41	7999.95
464.59	7747.17
464.78	8102.93
464.96	8145.06
465.14	8042.08
465.32	7997.61
465.50	8234.00
465.69	7971.86
465.87	8138.04
466.05	8079.53
466.23	8114.64
466.41	8219.96
466.60	8355.71
466.78	8177.83
466.96	8126.34
467.14	8149.75
467.32	8285.50
467.51	8477.42
467.69	8243.37
467.87	8318.26
468.05	8423.59
468.23	8208.26
468.41	8365.07
468.60	8421.25
468.78	8636.58
468.96	8451.67
469.14	8805.10
469.32	8685.73
469.50	8606.15
469.69	8718.50
469.87	8791.05
470.05	8718.50
470.23	8709.13
470.41	8746.58
470.59	8774.67
470.77	8805.10
470.95	8901.06
471.14	9053.19
471.32	8645.94
471.50	9074.26
471.68	9064.89
471.86	9170.22
472.04	9104.68
472.22	9327.03
472.40	9165.54
472.58	9362.14
472.77	9434.70
472.95	9329.38
473.13	9612.58
473.31	9364.48
473.49	9348.10
473.67	9467.47
473.85	9455.76
474.03	9893.44
474.21	9827.91
474.39	9689.82
474.57	9856.00
474.75	9933.23
474.93	9895.78
475.12	10038.56
475.30	10239.84
475.48	10162.61
475.66	10157.92
475.84	10031.54
476.02	10169.63
476.20	10174.31
476.38	10389.64
476.56	10532.41
476.74	10597.95
476.92	10373.25
477.10	10663.48
477.28	10736.04
477.46	10469.22
477.64	10803.91
477.82	11030.94
478.00	11262.66
478.18	11236.91
478.36	11129.25
478.54	11265.00
478.72	11365.64
478.90	11520.12
479.08	11623.10
479.26	11772.89
479.44	11569.27
479.62	11630.12
479.80	11775.24
479.98	11971.84
480.16	12175.47
480.34	12210.57
480.52	12297.17
480.70	12601.44
480.88	12159.08
481.06	12184.83
481.24	12564.00
481.41	12493.78
481.59	12793.37
481.77	12896.35
481.95	12901.03
482.13	13064.87
482.31	13179.56
482.49	13387.86
482.67	13205.30
482.85	13296.58
483.03	13514.25
483.21	13767.03
483.39	13851.29
483.57	13713.20
483.74	13870.01
483.92	14029.17
484.10	13973.00
484.28	14345.14
484.46	14588.56
484.64	14714.95
484.82	14314.72
485.00	14604.94
485.18	14913.89
485.35	15035.60
485.53	15073.05
485.71	15094.11
485.89	15531.80
486.07	15417.11
486.25	15667.55
486.43	15606.69
486.61	15604.35
486.78	16020.97
486.96	15868.83
487.14	16004.58
487.32	16365.03
487.50	16507.80
487.68	16409.50
487.85	16411.84
488.03	16659.93
488.21	16903.35
488.39	16835.47
488.57	16987.61
488.75	17123.36
488.92	17411.25
489.10	17722.54
489.28	17741.26
489.46	17710.83
489.64	17558.70
489.81	18408.31
489.99	17912.12
490.17	18537.04
490.35	18398.95
490.53	18394.27
490.70	18906.85
490.88	18448.10
491.06	18787.48
491.24	18820.25
491.41	18857.70
491.59	19147.92
491.77	19063.66
491.95	19323.46
492.13	19587.94
492.30	19861.79
492.48	19690.93
492.66	19880.51
492.84	19829.02
493.01	20065.41
493.19	20226.91
493.37	20465.64
493.54	20725.44
493.72	20858.85
493.90	20545.22
494.08	20746.51
494.25	20798.00
494.43	20971.20
494.61	21324.62
494.79	21305.90
494.96	21345.69
495.14	21394.84
495.32	21762.30
495.49	21586.76
495.67	21467.39
495.85	22408.29
496.02	22202.32
496.20	22375.52
496.38	22300.62
496.55	22555.74
496.73	23161.94
496.91	22888.10
497.09	22789.80
497.26	23019.17
497.44	22787.46
497.62	23082.36
497.79	23487.28
497.97	23260.24
498.14	23466.21
498.32	23358.55
498.50	23939.00
498.67	23960.06
498.85	24030.28
499.03	23985.81
499.20	24252.63
499.38	23861.76
499.56	24372.00
499.73	24713.72
499.91	24779.25
500.08	24793.29
500.26	24636.48
500.44	24805.00
500.61	24875.21
500.79	24847.13
500.97	25322.26
501.14	25324.60
501.32	25647.59
501.49	24877.55
501.67	25352.68
501.84	25539.93
502.02	25556.31
502.20	25785.68
502.37	25766.96
502.55	25799.73
502.72	25951.86
502.90	26071.23
503.07	26096.97
503.25	25933.14
503.43	26129.74
503.60	26326.35
503.78	26394.22
503.95	26749.98
504.13	26583.80
504.30	26497.20
504.48	26827.22
504.65	26621.25
504.83	26794.45
505.01	27274.26
505.18	27094.04
505.36	27749.39
505.53	27185.32
505.71	27517.68
505.88	27412.35
506.06	27620.66
506.23	27627.68
506.41	27761.09
506.58	27978.76
506.76	27681.52
506.93	28065.36
507.11	28102.81
507.28	28238.56
507.46	28210.48
507.63	28449.21
507.81	28847.10
507.98	28320.48
508.16	28711.35
508.33	28603.69
508.50	28847.10
508.68	28922.00
508.85	28989.88
509.03	29118.60
509.20	28896.25
509.38	29277.76
509.55	28973.49
509.73	29209.89
509.90	29755.23
510.08	29420.53
510.25	29483.73
510.42	29542.24
510.60	29825.45
510.77	29949.50
510.95	29921.41
511.12	30061.84
511.30	30040.78
511.47	30239.72
511.64	30192.91
511.82	30171.85
511.99	30000.99
512.17	30307.60
512.34	30476.12
512.51	30838.90
512.69	30946.56
512.86	30976.99
513.04	31204.02
513.21	31229.77
513.38	30775.70
513.56	31534.04
513.73	31309.35
513.90	31267.22
514.08	31225.09
514.25	31505.95
514.43	31550.42
514.60	31952.99
514.77	31353.82
514.95	31594.89
515.12	31803.20
515.29	31512.97
515.47	32147.26
515.64	31779.79
515.81	31943.63
515.99	31732.98
516.16	32587.28
516.33	32194.07
516.51	32664.52
516.68	32517.06
516.85	32332.16
517.03	32732.39
517.20	32910.27
517.37	33055.39
517.54	32957.08
517.72	32610.68
517.89	33350.29
518.06	33158.37
518.24	33024.96
518.41	33043.68
518.58	33160.71
518.75	33263.69
518.93	33497.75
519.10	33659.24
519.27	33486.04
519.45	33270.72
519.62	33914.36
519.79	33766.91
519.96	33469.66
520.14	33769.25
520.31	33813.72
520.48	34314.59
520.65	34148.42
520.83	34445.66
521.00	34693.76
521.17	34134.37
521.34	34614.18
521.52	34466.73
521.69	34492.47
521.86	34651.63
522.03	34962.92
522.20	34859.94
522.38	35112.72
522.55	34958.24
522.72	34934.84
522.89	34869.30
523.07	35166.55
523.24	35040.16
523.41	35679.13
523.58	35101.01
523.75	35491.88
523.92	35667.42
524.10	35168.89
524.27	35662.74
524.44	36053.61
524.61	35749.34
524.78	36088.72
524.96	36128.51
525.13	36402.35
525.30	36247.88
525.47	36669.17
525.64	36503.00
525.81	36451.50
525.98	36435.12
526.16	36259.58
526.33	36463.21
526.50	36577.89
526.67	36638.75
526.84	36678.54
527.01	36325.11
527.18	37151.32
527.36	36744.07
527.53	36863.44
527.70	37158.34
527.87	37340.91
528.04	36793.22
528.21	37535.17
528.38	37031.96
528.55	37151.32
528.72	37200.47
528.89	37387.72
529.07	36889.18
529.24	37354.95
529.41	37521.13
529.58	37579.64
529.75	37523.47
529.92	37607.73
530.09	37769.22
530.26	37827.74
530.43	37996.26
530.60	37743.48
530.77	37750.50
530.94	38005.62
531.11	37794.97
531.28	37996.26
531.46	38380.10
531.63	38431.60
531.80	38300.53
531.97	38518.20
532.14	38576.71
532.31	38471.39
532.48	38541.60
532.65	38330.95
532.82	38354.36
532.99	38574.37
533.16	38930.13
533.33	38848.21
533.50	38934.81
533.67	38323.93
533.84	38424.57
534.01	39157.16
534.18	39236.74
534.35	39461.43
534.52	39220.36
534.69	39477.82
534.86	39379.51
535.03	39414.62
535.20	39402.92
535.37	39674.42
535.54	39854.64
535.71	39604.20
535.88	39751.66
536.05	39627.61
536.22	39889.75
536.38	39798.47
536.55	39859.32
536.72	39959.97
536.89	39590.16
537.06	39941.24
537.23	40233.81
537.40	39744.64
537.57	39559.73
537.74	39868.69
537.91	40484.25
538.08	40088.70
538.25	40053.59
538.42	40121.46
538.59	40825.96
538.75	40313.39
538.92	40882.14
539.09	40758.09
539.26	40748.73
539.43	40533.40
539.60	40484.25
539.77	40694.89
539.94	40961.72
540.11	40935.97
540.28	40942.99
540.44	40891.50
540.61	40715.96
540.78	40933.63
540.95	40947.67
541.12	40912.56
541.29	41069.38
541.46	41113.85
541.62	41027.25
541.79	41490.68
541.96	41216.83
542.13	41090.44
542.30	41116.19
542.47	41179.39
542.63	41268.33
542.80	41902.61
542.97	41764.52
543.14	42234.97
543.31	41879.21
543.48	42211.56
543.64	42466.68
543.81	42284.12
543.98	42227.95
544.15	42103.90
544.32	42525.19
544.48	42768.61
544.65	42499.45
544.82	42457.32
544.99	42103.90
545.16	42164.75
545.32	42164.75
545.49	42515.83
545.66	42714.78
545.83	42405.83
546.00	42995.64
546.16	42848.19
546.33	42911.38
546.50	42728.82
546.67	42920.74
546.83	42628.18
547.00	42960.53
547.17	42817.76
547.34	42890.32
547.50	43002.66
547.67	43377.15
547.84	42862.23
548.00	43180.54
548.17	43290.55
548.34	43466.09
548.51	43756.32
548.67	43634.61
548.84	43421.62
549.01	43089.26
549.18	43239.06
549.34	43627.59
549.51	43739.93
549.68	44142.50
549.84	43438.00
550.01	43475.45
550.18	43501.20
550.34	43604.18
550.51	43927.17
550.68	43761.00
550.84	43636.95
551.01	44179.95
551.18	43585.46
551.34	43737.59
551.51	44327.41
551.68	43805.47
551.84	43620.56
552.01	43641.63
552.18	44093.35
552.34	44030.16
552.51	44278.25
552.68	44114.42
552.84	43964.62
553.01	44252.51
553.18	43889.73
553.34	44699.55
553.51	44011.43
553.67	44610.61
553.84	44385.92
554.01	44612.95
554.17	44467.84
554.34	44540.39
554.51	44659.76
554.67	45193.40
554.84	44666.78
555.00	44617.63
555.17	44402.30
555.33	44605.93
555.50	44734.66
555.67	44603.59
555.83	44629.34
556.00	44868.07
556.16	45631.08
556.33	45151.27
556.50	44704.23
556.66	44980.42
556.83	44612.95
556.99	44900.84
557.16	45289.37
557.32	45361.92
557.49	45352.56
557.65	44945.31
557.82	44816.58
557.98	44945.31
558.15	45425.12
558.32	45345.54
558.48	45134.89
558.65	44989.78
558.81	45230.85
558.98	45364.26
559.14	45471.93
559.31	45394.69
559.47	44884.45
559.64	45298.73
559.80	45705.98
559.97	46078.13
560.13	45221.49
560.30	45586.61
560.46	46028.98
560.63	45865.14
560.79	45783.22
560.96	45745.77
561.12	46054.72
561.29	45813.65
561.45	45694.28
561.61	45837.05
561.78	45612.36
561.94	45984.51
562.11	45923.65
562.27	45785.56
562.44	45584.27
562.60	45752.79
562.77	45979.82
562.93	45757.47
563.10	46248.99
563.26	45982.16
563.42	46380.06
563.59	45741.09
563.75	45954.08
563.92	45757.47
564.08	46052.38
564.24	46415.16
564.41	46206.86
564.57	46127.28
564.74	46157.70
564.90	45935.35
565.07	46096.85
565.23	46026.63
565.39	45794.92
565.56	46202.18
565.72	46466.66
565.88	46113.23
566.05	45727.05
566.21	46253.67
566.38	46213.88
566.54	46340.27
566.70	46459.63
566.87	46314.52
567.03	45832.37
567.19	46564.96
567.36	46333.24
567.52	46064.08
567.68	46815.40
567.85	46478.36
568.01	46354.31
568.17	46513.47
568.34	46522.83
568.50	46342.61
568.66	46377.72
568.83	46349.63
568.99	46707.73
569.15	46632.83
569.32	46256.01
569.48	46522.83
569.64	46806.03
569.81	46745.18
569.97	46567.30
570.13	46742.84
570.30	46581.34
570.46	46677.30
570.62	46902.00
570.78	46747.52
570.95	46639.86
571.11	46569.64
571.27	46553.26
571.43	46997.96
571.60	46944.12
571.76	46529.85
571.92	46588.36
572.09	46309.84
572.25	46557.94
572.41	46344.95
572.57	46527.51
572.74	46827.10
572.90	46700.71
573.06	46993.28
573.22	46808.37
573.38	47028.38
573.55	46937.10
573.71	47508.19
573.87	47288.18
574.03	46958.17
574.20	47351.38
574.36	47140.73
574.52	47026.04
574.68	47398.19
574.84	47194.56
575.01	47002.64
575.17	46939.44
575.33	47117.32
575.49	47124.35
575.65	47386.49
575.82	47538.62
575.98	46967.53
576.14	46841.14
576.30	47166.48
576.46	47430.96
576.62	46672.62
576.79	46948.81
576.95	46871.57
577.11	46960.51
577.27	47035.41
577.43	47037.75
577.59	47093.92
577.75	47166.48
577.92	46424.53
578.08	47370.10
578.24	47398.19
578.40	47430.96
578.56	47187.54
578.72	47175.84
578.88	47475.43
579.04	47014.34
579.21	47330.31
579.37	47014.34
579.53	47192.22
579.69	46899.65
579.85	47173.50
580.01	47346.70
580.17	46911.36
580.33	47459.04
580.49	47009.66
580.65	47070.51
580.82	47122.01
580.98	47206.26
581.14	47241.37
581.30	47358.40
581.46	47302.23
581.62	47224.99
581.78	47679.05
581.94	47325.63
582.10	47000.30
582.26	47334.99
582.42	47178.18
582.58	47337.33
582.74	47222.65
582.90	47510.53
583.06	47157.11
583.22	47147.75
583.38	47601.82
583.54	47452.02
583.70	47489.47
583.86	47318.61
584.02	47447.34
584.18	47629.90
584.34	47714.16
584.50	47550.32
584.66	47473.09
584.82	47316.27
584.98	47751.61
585.14	47292.86
585.30	47475.43
585.46	47718.84
585.62	47445.00
585.78	47524.58
585.94	47278.82
586.10	47578.41
586.26	47737.57
586.42	47409.89
586.58	47590.11
586.74	47716.50
586.90	47440.32
587.06	47295.21
587.22	47686.07
587.38	47276.48
587.54	47952.90
587.70	47793.74
587.86	47454.36
588.02	47491.81
588.18	47466.06
588.34	47634.58
588.49	47215.63
588.65	47573.73
588.81	47555.00
588.97	47707.14
589.13	47459.04
589.29	47405.21
589.45	47847.57
589.61	47667.35
589.77	47576.07
589.93	47927.15
590.08	47555.00
590.24	47870.98
590.40	47990.34
590.56	48086.31
590.72	48147.16
590.88	47723.52
591.04	47627.56
591.20	47997.37
591.35	48212.70
591.51	48395.26
591.67	47667.35
591.83	47723.52
591.99	47856.93
592.15	47592.45
592.31	47711.82
592.46	48055.88
592.62	47941.19
592.78	47952.90
592.94	48205.67
593.10	48432.71
593.26	48133.12
593.41	48554.41
593.57	48053.54
593.73	48130.78
593.89	48495.90
594.05	47980.98
594.20	48048.86
594.36	48460.79
594.52	48170.57
594.68	47983.32
594.84	48039.50
594.99	48423.34
595.15	47950.56
595.31	48247.80
595.47	47835.87
595.62	48062.90
595.78	48226.74
595.94	48154.18
596.10	48172.91
596.25	47971.62
596.41	48360.15
596.57	47955.24
596.73	48107.37
596.88	48355.47
597.04	48308.66
597.20	48151.84
597.36	48369.51
597.51	48371.85
597.67	47913.11
597.83	47847.57
597.99	48250.14
598.14	48397.60
598.30	48339.08
598.46	48306.32
598.61	48158.86
598.77	48367.17
598.93	48172.91
599.09	48336.74
599.24	48851.66
599.40	48259.51
599.56	48170.57
599.71	48643.35
599.87	48608.25
600.03	48481.86
600.18	48456.11
600.34	48109.71
600.50	48142.48
600.65	48346.11
600.81	48568.46
600.97	48140.14
601.12	48512.28
601.28	48720.59
601.44	48507.60
601.59	48088.65
601.75	48432.71
601.91	48790.81
602.06	48161.20
602.22	48367.17
602.37	48182.27
602.53	48648.03
602.69	48406.96
602.84	48179.93
603.00	47978.64
603.16	48430.36
603.31	48142.48
603.47	48301.64
603.62	48500.58
603.78	48390.58
603.94	48292.27
604.09	48435.05
604.25	48381.21
604.40	48563.78
604.56	48673.78
604.71	48587.18
604.87	48222.06
605.03	48423.34
605.18	48086.31
605.34	48294.61
605.49	48065.24
605.65	48486.54
605.80	48257.17
605.96	48105.03
606.12	47791.40
606.27	48467.81
606.43	48243.12
606.58	48233.76
606.74	48580.16
606.89	48638.67
607.05	48540.37
607.20	48432.71
607.36	48413.98
607.51	48423.34
607.67	48505.26
607.82	47861.61
607.98	48320.36
608.13	48285.25
608.29	48203.33
608.44	48065.24
608.60	47730.54
608.75	48023.11
608.91	48112.05
609.06	48058.22
609.22	48172.91
609.37	48044.18
609.53	48474.84
609.68	48238.44
609.84	47681.39
609.99	47936.51
610.15	48119.07
610.30	48413.98
610.46	48250.14
610.61	47906.08
610.76	47861.61
610.92	47924.81
611.07	47833.53
611.23	47856.93
611.38	47772.67
611.54	47901.40
611.69	48360.15
611.84	48114.39
612.00	48219.72
612.15	47742.25
612.31	47763.31
612.46	47611.18
612.62	47826.51
612.77	48250.14
612.92	47845.23
613.08	47817.14
613.23	48067.58
613.39	47969.28
613.54	47583.09
613.69	47847.57
613.85	47704.80
614.00	47718.84
614.15	47887.36
614.31	47634.58
614.46	47522.24
614.62	47573.73
614.77	47604.16
614.92	47550.32
615.08	47749.27
615.23	47690.76
615.38	47564.37
615.54	47625.22
615.69	47676.71
615.84	47428.62
616.00	48098.01
616.15	47540.96
616.30	47482.45
616.46	47650.97
616.61	47339.68
616.76	47812.46
616.92	47437.98
617.07	47194.56
617.22	47220.31
617.37	46794.33
617.53	47426.28
617.68	47110.30
617.83	47264.78
617.99	47360.74
618.14	47320.95
618.29	47426.28
618.45	47150.09
618.60	47082.22
618.75	46777.95
618.90	46717.09
619.06	47337.33
619.21	47334.99
619.36	47332.65
619.51	47213.29
619.67	46689.01
619.82	47470.75
619.97	47311.59
620.12	46822.42
620.28	46836.46
620.43	47058.81
620.58	46813.05
620.73	47079.88
620.89	47318.61
621.04	47299.89
621.19	46808.37
621.34	46887.95
621.49	46691.35
621.65	47091.58
621.80	47126.69
621.95	46628.15
622.10	46689.01
622.25	46993.28
622.41	46742.84
622.56	46817.74
622.71	46635.17
622.86	46703.05
623.01	47117.32
623.16	46834.12
623.32	46967.53
623.47	46791.99
623.62	46955.83
623.77	46438.57
623.92	46918.38
624.07	46602.41
624.23	46838.80
624.38	46536.87
624.53	46527.51
624.68	46260.69
624.83	46337.93
624.98	46417.50
625.13	45792.58
625.29	46174.09
625.44	46366.01
625.59	46569.64
625.74	46185.79
625.89	46213.88
626.04	45799.60
626.19	46068.76
626.34	46138.98
626.49	45787.90
626.65	46148.34
626.80	46206.86
626.95	45748.11
627.10	45933.01
627.25	46314.52
627.40	46059.40
627.55	45820.67
627.70	45958.76
627.85	46291.12
628.00	46387.08
628.15	46314.52
628.30	45514.06
628.45	45331.50
628.60	45406.39
628.76	45251.92
628.91	45921.31
629.06	45525.76
629.21	45275.32
629.36	45830.03
629.51	45544.48
629.66	45888.54
629.81	45565.55
629.96	45434.48
630.11	45024.89
630.26	45469.59
630.41	45385.33
630.56	45375.97
630.71	45296.39
630.86	45390.01
631.01	44872.75
631.16	45485.97
631.31	45277.66
631.46	45251.92
631.61	45841.73
631.76	45415.76
631.91	45698.96
632.06	45530.44
632.21	45364.26
632.36	45364.26
632.51	44954.67
632.66	45551.51
632.81	45413.41
632.96	45326.81
633.10	44849.35
633.25	45198.09
633.40	45230.85
633.55	45682.58
633.70	45228.51
633.85	45020.20
634.00	44816.58
634.15	44879.77
634.30	44959.35
634.45	44252.51
634.60	45116.17
634.75	44903.18
634.90	44266.55
635.05	45034.25
635.19	44528.69
635.34	44954.67
635.49	44362.51
635.64	44875.09
635.79	45050.63
635.94	44811.90
636.09	44704.23
636.24	44713.59
636.39	44975.73
636.53	44540.39
636.68	44524.01
636.83	44392.94
636.98	44369.54
637.13	43899.09
637.28	43985.69
637.43	44165.91
637.57	44437.41
637.72	44472.52
637.87	44142.50
638.02	44301.66
638.17	44292.30
638.32	43983.35
638.46	43997.39
638.61	44130.80
638.76	44189.31
638.91	44079.31
639.06	44172.93
639.20	43847.60
639.35	43620.56
639.50	43522.26
639.65	44013.77
639.80	44058.24
639.94	44196.34
640.09	43896.75
640.24	44556.78
640.39	43454.39
640.54	43194.59
640.68	44088.67
640.83	43875.68
640.98	43536.30
641.13	43339.70
641.27	44392.94
641.42	43763.34
641.57	43758.66
641.72	43964.62
641.86	43274.16
642.01	43711.84
642.16	43494.18
642.31	43217.99
642.45	43501.20
642.60	43206.29
642.75	43016.71
642.90	43922.49
643.04	43650.99
643.19	43178.20
643.34	43203.95
643.48	42719.46
643.63	42995.64
643.78	43332.68
643.93	43569.07
644.07	43529.28
644.22	43430.98
644.37	42897.34
644.51	43505.88
644.66	43482.47
644.81	42986.28
644.95	43232.04
645.10	43428.64
645.25	43358.42
645.39	42497.11
645.54	43304.59
645.69	42855.21
645.83	42976.92
645.98	42967.55
646.13	42703.07
646.27	42693.71
646.42	42476.04
646.57	42824.78
646.71	43498.86
646.86	43044.79
647.00	42916.06
647.15	42890.32
647.30	42995.64
647.44	42511.15
647.59	42330.93
647.74	42733.50
647.88	42674.99
648.03	42902.02
648.17	43105.65
648.32	42466.68
648.47	43433.32
648.61	42131.98
648.76	42373.06
648.90	42440.93
649.05	42490.09
649.20	42099.22
649.34	42398.80
649.49	42635.20
649.63	42485.40
649.78	42679.67
649.92	42630.52
650.07	42958.19
650.21	42527.53
650.36	42319.23
650.51	42724.14
650.65	42567.32
650.80	42328.59
650.94	42672.65
651.09	42281.78
651.23	41890.91
651.38	41771.54
651.52	41682.60
651.67	41722.39
651.81	42312.20
651.96	41907.29
652.10	42014.96
652.25	41958.78
652.39	41986.87
652.54	42115.60
652.68	41820.69
652.83	41677.92
652.97	41813.67
653.12	41848.78
653.26	41532.81
653.41	42078.15
653.55	41893.25
653.70	41612.38
653.84	42047.72
653.99	42164.75
654.13	41748.14
654.27	41464.93
654.42	41675.58
654.56	41584.30
654.71	41605.36
654.85	41773.88
655.00	41455.57
655.14	42052.41
655.29	41432.16
655.43	41780.90
655.57	41621.75
655.72	41137.26
655.86	41265.99
656.01	41172.36
656.15	41116.19
656.30	41254.28
656.44	41345.56
656.58	41340.88
656.73	41684.94
656.87	40847.03
657.01	40802.56
657.16	41118.53
657.30	40835.33
657.45	41207.47
657.59	40683.19
657.73	40755.75
657.88	41457.91
658.02	41310.46
658.16	40968.74
658.31	41193.43
658.45	40720.64
658.60	40458.50
658.74	40664.47
658.88	40704.26
659.03	40409.35
659.17	40322.75
659.31	40486.59
659.46	40100.40
659.60	40301.68
659.74	40526.38
659.89	40034.86
660.03	40121.46
660.17	40299.34
660.32	40360.20
660.46	40540.42
660.60	39789.11
660.74	40018.48
660.89	40074.65
661.03	39620.59
661.17	39541.01
661.32	39819.53
661.46	39927.20
661.60	39498.88
661.74	39374.83
661.89	39566.76
662.03	40135.51
662.17	39742.30
662.31	39629.95
662.46	39672.08
662.60	39974.01
662.74	39063.54
662.88	38890.34
663.03	38937.15
663.17	39360.79
663.31	39026.09
663.45	39161.84
663.60	39220.36
663.74	39519.95
663.88	38988.64
664.02	38705.44
664.17	39199.29
664.31	39000.35
664.45	38604.80
664.59	38820.13
664.73	38824.81
664.88	38962.90
665.02	38267.76
665.16	38401.17
665.30	38754.59
665.44	38464.36
665.59	38370.74
665.73	38286.48
665.87	37715.39
666.01	37745.82
666.15	37902.64
666.29	38059.45
666.44	38050.09
666.58	37834.76
666.72	37610.07
666.86	37811.35
667.00	37532.83
667.14	37801.99
667.28	37633.47
667.43	37488.36
667.57	38026.68
667.71	37717.73
667.85	37329.20
667.99	37397.08
668.13	36968.76
668.27	37191.11
668.41	36907.91
668.56	36343.84
668.70	36687.90
668.84	36699.60
668.98	36765.14
669.12	36795.56
669.26	36779.18
669.40	37120.90
669.54	36755.77
669.68	36952.38
669.82	36814.29
669.96	35941.27
670.10	35849.99
670.25	36512.36
670.39	36332.14
670.53	36334.48
670.67	36339.16
670.81	36294.69
670.95	36369.58
671.09	36081.70
671.23	35765.73
671.37	36182.34
671.51	35578.48
671.65	35974.03
671.79	35810.20
671.93	35777.43
672.07	36088.72
672.21	35857.01
672.35	35356.13
672.49	35611.25
672.63	35407.62
672.77	35253.15
672.91	35522.31
673.05	35138.46
673.19	34969.94
673.33	34700.78
673.47	34885.68
673.61	34824.83
673.75	34869.30
673.89	34183.52
674.03	34293.53
674.17	34263.10
674.31	33930.75
674.45	34043.09
674.59	34220.97
674.73	33968.19
674.87	33811.38
675.01	33865.21
675.15	33642.86
675.29	33621.80
675.43	33338.59
675.56	33738.82
675.70	33373.70
675.84	33275.40
675.98	32067.68
676.12	33315.19
676.26	33497.75
676.40	33177.09
676.54	32896.23
676.68	32648.13
676.82	32828.35
676.96	32898.57
677.10	32964.10
677.23	32718.35
677.37	32252.58
677.51	32404.72
677.65	32334.50
677.79	31995.12
677.93	32088.74
678.07	31878.10
678.21	31941.29
678.34	31674.47
678.48	31424.03
678.62	31367.86
678.76	31452.12
678.90	31068.27
679.04	31435.74
679.18	31634.68
679.31	31065.93
679.45	30848.26
679.59	30515.90
679.73	30876.35
679.87	30319.30
680.00	30597.82
680.14	30574.42
680.28	30707.83
680.42	30478.46
680.56	30359.09
680.70	30377.81
680.83	30185.89
680.97	29890.98
681.11	29928.43
681.25	29661.61
681.39	29696.72
681.52	29645.23
681.66	29167.76
681.80	28882.21
681.94	29186.48
682.07	28823.70
682.21	28524.11
682.35	29001.58
682.49	28858.81
682.62	28631.77
682.76	28751.14
682.90	28287.71
683.04	28797.95
683.17	28276.01
683.31	27983.44
683.45	28114.52
683.59	27550.45
683.72	27807.90
683.86	27683.86
684.00	27777.48
684.13	27798.54
684.27	27658.11
684.41	27461.51
684.55	27421.72
684.68	27367.88
684.82	27129.15
684.96	27033.19
685.09	27187.66
685.23	27255.54
685.37	27157.24
685.50	27267.24
685.64	26876.37
685.78	26579.12
685.91	26506.57
686.05	26113.36
686.19	26029.10
686.32	26316.98
686.46	25422.90
686.60	25455.67
686.73	25970.58
686.87	25610.14
687.01	25752.91
687.14	25940.16
687.28	25542.27
687.42	25436.94
687.55	25319.92
687.69	25008.62
687.82	24760.53
687.96	24802.66
688.10	24781.59
688.23	24671.59
688.37	24755.85
688.50	25270.76
688.64	24973.52
688.78	24697.33
688.91	24781.59
689.05	24297.10
689.18	23653.45
689.32	23665.16
689.46	23583.24
689.59	23716.65
689.73	24084.11
689.86	23908.57
690.00	23634.73
690.13	24079.43
690.27	23634.73
690.41	23550.47
690.54	23049.60
690.68	23424.08
690.81	23213.43
690.95	22672.77
691.08	22778.09
691.22	22663.41
691.35	22618.94
691.49	22836.61
691.62	22576.81
691.76	22469.14
691.89	22265.52
692.03	22148.49
692.16	21795.07
692.30	21865.28
692.43	21853.58
692.57	21853.58
692.70	21495.48
692.84	21490.80
692.97	21425.26
693.11	21427.60
693.24	21310.58
693.38	21364.41
693.51	21268.45
693.65	20994.61
693.78	21064.82
693.92	20779.28
694.05	20987.58
694.19	20545.22
694.32	20423.51
694.45	20690.34
694.59	20624.80
694.72	20793.32
694.86	20554.58
694.99	20224.57
695.13	20051.37
695.26	20004.56
695.39	19824.34
695.53	19726.04
695.66	19709.65
695.80	19761.14
695.93	19609.01
696.07	19318.78
696.20	19215.80
696.33	19129.20
696.47	19131.54
696.60	19157.28
696.73	19108.13
696.87	18932.59
697.00	19026.21
697.14	18824.93
697.27	18633.00
697.40	18291.29
697.54	18682.16
697.67	18520.66
697.80	18434.06
697.94	18279.58
698.07	18022.12
698.21	18099.36
698.34	18108.72
698.47	17752.96
698.61	17469.76
698.74	17731.90
698.87	17441.67
699.01	17446.35
699.14	17727.22
699.27	17467.42
699.40	17497.84
699.54	17238.05
699.67	17186.55
699.80	17167.83
699.94	17060.16
700.07	17224.00
700.20	17228.68
700.34	17074.21
700.47	16837.81
700.60	16863.56
700.73	16842.50
700.87	16493.76
701.00	16367.37
701.13	16376.73
701.26	16381.41
701.40	16154.38
701.53	16112.25
701.66	16016.29
701.79	15990.54
701.93	15618.39
702.06	15655.84
702.19	15840.75
702.32	15730.74
702.46	15571.58
702.59	15819.68
702.72	15901.60
702.85	15627.76
702.99	15321.15
703.12	15281.36
703.25	14986.45
703.38	15054.33
703.51	15059.01
703.65	14846.02
703.78	14686.86
703.91	14745.38
704.04	14597.92
704.17	14260.88
704.31	14604.94
704.44	14457.49
704.57	14295.99
704.70	14232.80
704.83	14319.40
704.96	13872.36
705.10	14120.45
705.23	14134.50
>>>>>End Processed Spectral Data<<<<<
