SpectraSuite Data File
++++++++++++++++++++++++++++++++++++
Date: Fri Oct 25 10:43:59 EDT 2013
User: price-jones
Dark Spectrum Present: No
Reference Spectrum Present: No
Number of Sampled Component Spectra: 1
Spectrometers: USB2+H05261
Integration Time (usec): 100000 (USB2+H05261)
Spectra Averaged: 1 (USB2+H05261)
Boxcar Smoothing: 0 (USB2+H05261)
Correct for Electrical Dark: No (USB2+H05261)
Strobe/Lamp Enabled: No (USB2+H05261)
Correct for Detector Non-linearity: No (USB2+H05261)
Correct for Stray Light: No (USB2+H05261)
Number of Pixels in Processed Spectrum: 2048
>>>>>Begin Processed Spectral Data<<<<<
365.73	138.09
365.92	138.09
366.12	138.09
366.32	81.92
366.52	49.15
366.72	16.38
366.91	0.00
367.11	2.34
367.31	21.06
367.51	58.51
367.70	0.00
367.90	91.28
368.10	14.04
368.30	0.00
368.49	84.26
368.69	77.24
368.89	93.62
369.09	51.49
369.28	21.06
369.48	98.30
369.68	86.60
369.87	44.47
370.07	60.85
370.27	88.94
370.47	208.31
370.66	341.72
370.86	442.36
371.06	390.87
371.25	437.68
371.45	397.89
371.65	503.22
371.84	454.06
372.04	421.30
372.24	400.23
372.44	505.56
372.63	500.87
372.83	421.30
373.03	484.49
373.22	491.51
373.42	533.64
373.62	552.37
373.81	585.13
374.01	622.58
374.21	608.54
374.40	601.52
374.60	559.39
374.79	559.39
374.99	620.24
375.19	580.45
375.38	606.20
375.58	547.69
375.78	662.37
375.97	606.20
376.17	566.41
376.37	580.45
376.56	606.20
376.76	617.90
376.95	582.79
377.15	603.86
377.35	620.24
377.54	617.90
377.74	671.73
377.93	596.84
378.13	685.78
378.33	627.26
378.52	653.01
378.72	662.37
378.91	669.39
379.11	662.37
379.31	671.73
379.50	615.56
379.70	631.94
379.89	678.76
380.09	620.24
380.28	713.86
380.48	704.50
380.68	671.73
380.87	622.58
381.07	711.52
381.26	732.59
381.46	753.65
381.65	744.29
381.85	746.63
382.04	657.69
382.24	751.31
382.43	744.29
382.63	739.61
382.83	671.73
383.02	793.44
383.22	690.46
383.41	772.38
383.61	671.73
383.80	774.72
384.00	734.93
384.19	727.91
384.39	819.19
384.58	734.93
384.78	809.83
384.97	781.74
385.17	826.21
385.36	826.21
385.56	805.14
385.75	866.00
385.95	814.51
386.14	765.36
386.34	849.61
386.53	887.06
386.72	844.93
386.92	889.40
387.11	882.38
387.31	894.08
387.50	849.61
387.70	873.02
387.89	828.55
388.09	908.13
388.28	936.21
388.48	844.93
388.67	875.36
388.86	887.06
389.06	978.34
389.25	994.73
389.45	987.71
389.64	992.39
389.84	1057.92
390.03	950.26
390.22	999.41
390.42	980.68
390.61	978.34
390.81	1032.18
391.00	1116.44
391.19	1064.94
391.39	929.19
391.58	1090.69
391.78	978.34
391.97	1062.60
392.16	950.26
392.36	1060.26
392.55	1015.79
392.75	1034.52
392.94	1006.43
393.13	1015.79
393.33	945.58
393.52	1034.52
393.71	1102.39
393.91	1074.31
394.10	1135.16
394.29	1256.87
394.49	1219.42
394.68	1188.99
394.88	1207.72
395.07	1315.38
395.26	1219.42
395.46	1294.32
395.65	1280.27
395.84	1275.59
396.04	1249.85
396.23	1184.31
396.42	1156.22
396.62	1212.40
396.81	1261.55
397.00	1196.01
397.19	1376.24
397.39	1355.17
397.58	1242.82
397.77	1383.26
397.97	1413.68
398.16	1434.75
398.35	1460.49
398.55	1404.32
398.74	1521.35
398.93	1565.82
399.12	1516.67
399.32	1476.88
399.51	1563.48
399.70	1568.16
399.90	1645.40
400.09	1610.29
400.28	1640.72
400.47	1659.44
400.67	1572.84
400.86	1703.91
401.05	1654.76
401.24	1666.46
401.44	1727.32
401.63	1804.55
401.82	1678.16
402.01	1823.28
402.21	1797.53
402.40	1825.62
402.59	1741.36
402.78	1760.08
402.97	1724.97
403.17	1888.81
403.36	1837.32
403.55	1830.30
403.74	1893.49
403.93	1858.39
404.13	1851.36
404.32	1919.24
404.51	1870.09
404.70	1961.37
404.89	1842.00
405.09	2022.22
405.28	2022.22
405.47	1980.09
405.66	1977.75
405.85	2038.61
406.05	1973.07
406.24	2092.44
406.43	1970.73
406.62	2108.82
406.81	2090.10
407.00	2036.27
407.20	1998.82
407.39	2064.35
407.58	2129.89
407.77	2244.57
407.96	2218.83
408.15	2272.66
408.34	2193.08
408.54	2319.47
408.73	2307.77
408.92	2363.94
409.11	2263.30
409.30	2349.90
409.49	2211.81
409.68	2221.17
409.87	2370.96
410.07	2354.58
410.26	2438.84
410.45	2314.79
410.64	2530.12
410.83	2558.21
411.02	2464.58
411.21	2672.89
411.40	2726.72
411.59	2710.34
411.78	2677.57
411.98	2548.84
412.17	2630.76
412.36	2818.00
412.55	2661.19
412.74	2726.72
412.93	2640.12
413.12	2607.36
413.31	2885.88
413.50	2766.51
413.69	3042.70
413.88	2855.45
414.07	2874.18
414.26	2899.92
414.45	2965.46
414.64	2871.84
414.83	3148.02
415.02	3087.17
415.22	3122.27
415.41	3038.02
415.60	3075.46
415.79	3201.85
415.98	3295.47
416.17	3321.22
416.36	3094.19
416.55	3194.83
416.74	3342.28
416.93	3400.80
417.12	3318.88
417.31	3260.37
417.50	3346.97
417.69	3440.59
417.88	3442.93
418.07	3405.48
418.26	3618.47
418.45	3597.40
418.64	3585.70
418.83	3590.38
419.02	3798.69
419.21	3662.94
419.39	3435.91
419.58	3606.77
419.77	3576.34
419.96	3609.11
420.15	3698.05
420.34	3646.55
420.53	3754.22
420.72	3929.76
420.91	3913.38
421.10	3812.73
421.29	3749.54
421.48	3889.97
421.67	3939.12
421.86	3826.78
422.05	3875.93
422.24	3794.01
422.43	3815.07
422.61	3913.38
422.80	3866.56
422.99	3817.41
423.18	3815.07
423.37	4028.06
423.56	4072.53
423.75	3971.89
423.94	4039.76
424.13	3691.02
424.32	3901.67
424.50	3878.27
424.69	3995.29
424.88	4063.17
425.07	3941.46
425.26	3948.48
425.45	3985.93
425.64	3892.31
425.83	4156.79
426.01	3985.93
426.20	4039.76
426.39	4084.23
426.58	4011.68
426.77	4044.45
426.96	4018.70
427.15	4091.26
427.33	4051.47
427.52	4121.68
427.71	4023.38
427.90	4161.47
428.09	4203.60
428.28	4290.20
428.46	4283.18
428.65	4311.27
428.84	4243.39
429.03	4231.69
429.22	4100.62
429.40	4152.11
429.59	4119.34
429.78	3925.08
429.97	3936.78
430.16	3964.87
430.34	4032.74
430.53	4109.98
430.72	4313.61
430.91	4262.12
431.10	4329.99
431.28	4526.60
431.47	4582.77
431.66	4678.73
431.85	4627.24
432.03	4594.47
432.22	4762.99
432.41	4697.46
432.60	4758.31
432.79	4702.14
432.97	4739.58
433.16	4734.90
433.35	4718.52
433.54	4873.00
433.72	4741.93
433.91	4660.01
434.10	4816.82
434.28	4887.04
434.47	4854.27
434.66	5043.85
434.85	5022.79
435.03	4952.57
435.22	5088.32
435.41	5100.03
435.59	5144.50
435.78	5109.39
435.97	5085.98
436.16	5184.29
436.34	5221.74
436.53	5228.76
436.72	5373.87
436.90	5186.63
437.09	5057.90
437.28	5327.06
437.46	5174.92
437.65	5357.49
437.84	5411.32
438.02	5221.74
438.21	5158.54
438.40	5135.14
438.58	5352.81
438.77	5406.64
438.96	5462.81
439.14	5526.00
439.33	5706.23
439.52	5589.20
439.70	5764.74
439.89	5678.14
440.08	5668.78
440.26	5652.39
440.45	5734.31
440.63	5816.23
440.82	5830.27
441.01	5928.58
441.19	5966.03
441.38	6164.97
441.57	6342.85
441.75	6331.15
441.94	6429.45
442.12	6242.21
442.31	6319.45
442.50	6464.56
442.68	6532.44
442.87	6394.34
443.05	6328.81
443.24	6436.47
443.43	6499.67
443.61	6572.22
443.80	6722.02
443.98	6321.79
444.17	6211.78
444.35	6483.28
444.54	6707.98
444.73	6590.95
444.91	6574.56
445.10	6490.31
445.28	6480.94
445.47	6406.05
445.65	6359.24
445.84	6595.63
446.02	6607.33
446.21	6630.74
446.39	6438.81
446.58	6729.04
446.77	6867.13
446.95	6733.72
447.14	6661.16
447.32	6825.00
447.51	6534.78
447.69	6817.98
447.88	6825.00
448.06	6808.62
448.25	6759.47
448.43	6726.70
448.62	6864.79
448.80	6712.66
448.99	6853.09
449.17	6951.39
449.36	6764.15
449.54	6953.73
449.73	7155.02
449.91	7300.13
450.10	7077.78
450.28	7311.83
450.46	7405.46
450.65	7304.81
450.83	7358.64
451.02	7260.34
451.20	7290.77
451.39	7239.28
451.57	7258.00
451.76	7253.32
451.94	7265.02
452.13	7461.63
452.31	7353.96
452.49	7157.36
452.68	7265.02
452.86	7208.85
453.05	7332.90
453.23	7424.18
453.42	7506.10
453.60	7522.48
453.78	7541.21
453.97	7482.69
454.15	7463.97
454.34	7447.58
454.52	7625.47
454.70	7452.27
454.89	7700.36
455.07	7609.08
455.26	7538.87
455.44	7763.56
455.62	7716.75
455.81	7950.80
455.99	7896.97
456.17	7955.48
456.36	7918.03
456.54	7913.35
456.73	7892.29
456.91	8173.15
457.09	8116.98
457.28	8341.67
457.46	8138.04
457.64	8353.37
457.83	8255.07
458.01	8086.55
458.19	8243.37
458.38	8280.82
458.56	8446.99
458.74	8414.23
458.93	8138.04
459.11	8430.61
459.29	8493.80
459.48	8393.16
459.66	8360.39
459.84	8498.49
460.03	8514.87
460.21	8599.13
460.39	8571.04
460.57	8641.26
460.76	8603.81
460.94	8868.29
461.12	8858.93
461.31	8819.14
461.49	8716.16
461.67	8779.35
461.85	8816.80
462.04	8947.87
462.22	9029.79
462.40	8964.25
462.59	8865.95
462.77	8903.40
462.95	9125.75
463.13	9139.79
463.32	8990.00
463.50	8999.36
463.68	9231.07
463.86	9235.75
464.05	9067.24
464.23	8994.68
464.41	9135.11
464.59	8903.40
464.78	9383.21
464.96	9467.47
465.14	9240.44
465.32	9219.37
465.50	9198.31
465.69	9284.91
465.87	9036.81
466.05	9254.48
466.23	9104.68
466.41	9289.59
466.60	9312.99
466.78	9048.51
466.96	9399.59
467.14	9390.23
467.32	9537.68
467.51	9535.34
467.69	9439.38
467.87	9446.40
468.05	9584.49
468.23	9495.55
468.41	9633.64
468.60	9364.48
468.78	9858.34
468.96	9579.81
469.14	9961.32
469.32	9951.96
469.50	9572.79
469.69	9727.27
469.87	9809.19
470.05	9872.38
470.23	9806.84
470.41	10054.94
470.59	9853.66
470.77	9797.48
470.95	10164.95
471.14	10438.79
471.32	10038.56
471.50	10380.28
471.68	10382.62
471.86	10284.31
472.04	10345.17
472.22	10689.23
472.40	10377.94
472.58	10382.62
472.77	10586.24
472.95	10551.14
473.13	10949.03
473.31	10635.39
473.49	10567.52
473.67	10684.55
473.85	10604.97
474.03	11145.63
474.21	11080.10
474.39	11274.36
474.57	11272.02
474.75	11218.19
474.93	11250.96
475.12	11143.29
475.30	11370.32
475.48	11215.85
475.66	11375.00
475.84	11562.25
476.02	11651.19
476.20	11730.76
476.38	11625.44
476.56	11733.11
476.74	11789.28
476.92	11939.07
477.10	12116.95
477.28	12133.34
477.46	12123.98
477.64	12451.65
477.82	12430.59
478.00	12837.84
478.18	12725.49
478.36	12718.47
478.54	12713.79
478.72	12781.67
478.90	13046.15
479.08	13394.89
479.26	13123.38
479.44	13408.93
479.62	13322.33
479.80	13486.17
479.98	13394.89
480.16	13713.20
480.34	13729.58
480.52	13998.74
480.70	13762.35
480.88	13603.19
481.06	14054.92
481.24	14083.00
481.41	14305.35
481.59	14249.18
481.77	14633.03
481.95	14363.87
482.13	14764.10
482.31	14471.53
482.49	15236.89
482.67	15009.86
482.85	14913.89
483.03	15332.85
483.21	15222.84
483.39	15433.49
483.57	15492.01
483.74	15740.10
483.92	15896.92
484.10	15484.98
484.28	16042.03
484.46	16327.58
484.64	16283.11
484.82	16095.86
485.00	16257.36
485.18	16472.69
485.35	16645.89
485.53	16346.30
485.71	16039.69
485.89	16463.33
486.07	16458.65
486.25	16650.57
486.43	16774.62
486.61	17364.43
486.78	17348.05
486.96	17502.53
487.14	17617.21
487.32	17745.94
487.50	18157.88
487.68	18434.06
487.85	18572.15
488.03	18595.56
488.21	18834.29
488.39	18745.35
488.57	18988.77
488.75	18726.63
488.92	19307.08
489.10	19403.04
489.28	19634.75
489.46	20126.27
489.64	19885.19
489.81	20142.65
489.99	20177.76
490.17	20353.30
490.35	20475.01
490.53	20577.99
490.70	20521.82
490.88	20306.49
491.06	20919.71
491.24	20877.58
491.41	21057.80
491.59	20678.63
491.77	21064.82
491.95	21181.85
492.13	21617.19
492.30	21708.47
492.48	21860.60
492.66	22052.53
492.84	22274.88
493.01	22544.04
493.19	22057.21
493.37	22228.07
493.54	22616.60
493.72	23080.02
493.90	22932.57
494.08	23410.04
494.25	23264.92
494.43	23260.24
494.61	23784.52
494.79	24081.77
494.96	23489.62
495.14	23616.01
495.32	23850.06
495.49	23814.95
495.67	23929.64
495.85	24294.76
496.02	24538.18
496.20	24730.10
496.38	24662.22
496.55	24872.87
496.73	25207.57
496.91	25151.40
497.09	25303.53
497.26	25151.40
497.44	25378.43
497.62	25270.76
497.79	25731.85
497.97	25296.51
498.14	25685.04
498.32	25727.17
498.50	25951.86
498.67	26291.24
498.85	26511.25
499.03	26799.13
499.20	26230.38
499.38	26834.24
499.56	26508.91
499.73	26738.28
499.91	26792.11
500.08	27002.76
500.26	26326.35
500.44	27014.46
500.61	27014.46
500.79	26824.88
500.97	27091.70
501.14	27470.87
501.32	27283.62
501.49	27414.69
501.67	27529.38
501.84	27826.63
502.02	27482.57
502.20	27765.78
502.37	27990.47
502.55	27868.76
502.72	28432.83
502.90	28219.84
503.07	28264.31
503.25	28194.09
503.43	27964.72
503.60	28685.61
503.78	28587.30
503.95	28453.89
504.13	28790.93
504.30	28968.81
504.48	28797.95
504.65	29481.39
504.83	29422.87
505.01	29247.33
505.18	28985.19
505.36	29764.59
505.53	29422.87
505.71	30059.50
505.88	29692.04
506.06	29631.18
506.23	30188.23
506.41	29720.12
506.58	30436.33
506.76	30284.19
506.93	30698.47
507.11	30223.34
507.28	30302.92
507.46	30307.60
507.63	30256.11
507.81	30169.51
507.98	30218.66
508.16	30499.52
508.33	30918.48
508.50	31131.47
508.68	31150.19
508.85	31281.26
509.03	31225.09
509.20	31473.18
509.38	31449.78
509.55	31299.98
509.73	31473.18
509.90	31772.77
510.08	31337.43
510.25	31225.09
510.42	31688.51
510.60	32245.56
510.77	32023.21
510.95	32072.36
511.12	32638.77
511.30	32268.97
511.47	32673.88
511.64	32811.97
511.82	32526.42
511.99	32472.59
512.17	32744.09
512.34	32545.15
512.51	32795.59
512.69	33092.83
512.86	32914.95
513.04	32989.85
513.21	32713.67
513.38	33376.04
513.56	33106.88
513.73	32933.68
513.90	33401.79
514.08	33069.43
514.25	33249.65
514.43	33479.02
514.60	33493.07
514.77	33289.44
514.95	34192.89
515.12	34054.79
515.29	33879.25
515.47	34251.40
515.64	34106.29
515.81	33682.65
515.99	34213.95
516.16	34096.92
516.33	33546.90
516.51	34005.64
516.68	33518.81
516.85	33628.82
517.03	33577.33
517.20	34408.22
517.37	34604.82
517.54	34550.99
517.72	34408.22
517.89	34174.16
518.06	33860.53
518.24	34253.74
518.41	34581.42
518.58	34569.71
518.75	34279.49
518.93	34761.64
519.10	35262.51
519.27	35065.91
519.45	35421.67
519.62	35283.58
519.79	35377.20
519.96	35653.38
520.14	35601.89
520.31	35573.80
520.48	36247.88
520.65	35562.10
520.83	35983.40
521.00	36203.41
521.17	36378.95
521.34	36339.16
521.52	36339.16
521.69	36685.56
521.86	36610.66
522.03	36591.94
522.20	36793.22
522.38	36622.36
522.55	36811.95
522.72	36762.79
522.89	36474.91
523.07	37383.04
523.24	36411.71
523.41	37359.63
523.58	37296.44
523.75	37535.17
523.92	37216.86
524.10	37773.91
524.27	37607.73
524.44	37703.69
524.61	37916.68
524.78	37275.37
524.96	37261.33
525.13	37642.84
525.30	38005.62
525.47	38237.33
525.64	38054.77
525.81	37886.25
525.98	37408.78
526.16	37371.33
526.33	37752.84
526.50	37717.73
526.67	37422.83
526.84	37397.08
527.01	37783.27
527.18	38473.73
527.36	38246.69
527.53	38513.52
527.70	38686.71
527.87	38742.89
528.04	38300.53
528.21	38754.59
528.38	39063.54
528.55	38995.67
528.72	39138.44
528.89	39157.16
529.07	38794.38
529.24	39407.60
529.41	39555.05
529.58	38890.34
529.75	39150.14
529.92	38974.60
530.09	39592.50
530.26	39468.45
530.43	39875.71
530.60	39541.01
530.77	39393.56
530.94	39718.89
531.11	39496.54
531.28	39442.71
531.46	39754.00
531.63	39611.23
531.80	39835.92
531.97	39512.92
532.14	39754.00
532.31	38850.55
532.48	39754.00
532.65	40034.86
532.82	39817.19
532.99	40060.61
533.16	39852.30
533.33	39943.58
533.50	40514.67
533.67	40114.44
533.84	40002.10
534.01	40423.39
534.18	40271.26
534.35	40479.57
534.52	40650.42
534.69	40327.43
534.86	40659.79
535.03	40952.35
535.20	41188.75
535.37	41198.11
535.54	40910.22
535.71	40744.05
535.88	41228.54
536.05	40830.65
536.22	41375.99
536.38	41081.08
536.55	40634.04
536.72	41294.07
536.89	40498.29
537.06	40832.99
537.23	41144.28
537.40	41439.18
537.57	41750.48
537.74	41104.49
537.91	41839.42
538.08	41691.96
538.25	41198.11
538.42	41675.58
538.59	41701.32
538.75	41031.93
538.92	41610.04
539.09	41553.87
539.26	41785.58
539.43	41825.37
539.60	41998.57
539.77	41776.22
539.94	41675.58
540.11	41340.88
540.28	41598.34
540.44	41837.08
540.61	41996.23
540.78	41383.01
540.95	41888.57
541.12	41483.66
541.29	41799.63
541.46	42129.64
541.62	42351.99
541.79	42553.28
541.96	42260.71
542.13	42143.69
542.30	41940.06
542.47	42307.52
542.63	41881.55
542.80	42373.06
542.97	42738.18
543.14	43119.69
543.31	42754.57
543.48	42691.37
543.64	43126.71
543.81	43358.42
543.98	42887.98
544.15	43178.20
544.32	43206.29
544.48	43594.82
544.65	43526.94
544.82	43475.45
544.99	42848.19
545.16	43033.09
545.32	43079.90
545.49	43262.46
545.66	43356.08
545.83	43660.35
546.00	43529.28
546.16	43662.69
546.33	43381.83
546.50	43028.41
546.67	43906.11
546.83	42932.45
547.00	43683.76
547.17	43559.71
547.34	43650.99
547.50	43714.19
547.67	43658.01
547.84	44149.53
548.00	44460.82
548.17	44215.06
548.34	43971.64
548.51	44406.98
548.67	44121.44
548.84	43646.31
549.01	44144.84
549.18	44404.64
549.34	44254.85
549.51	44378.90
549.68	44053.56
549.84	44430.39
550.01	44605.93
550.18	43938.88
550.34	44313.36
550.51	44561.46
550.68	44292.30
550.84	43885.04
551.01	44355.49
551.18	44383.58
551.34	44655.08
551.51	44390.60
551.68	44893.82
551.84	44776.79
552.01	44582.52
552.18	44353.15
552.34	44467.84
552.51	44451.45
552.68	45043.61
552.84	44737.00
553.01	45244.90
553.18	44797.85
553.34	44547.42
553.51	44683.17
553.67	45085.74
553.84	45015.52
554.01	45109.14
554.17	44657.42
554.34	44996.80
554.51	45352.56
554.67	45125.53
554.84	45111.49
555.00	44898.50
555.17	45111.49
555.33	45141.91
555.50	44942.97
555.67	45186.38
555.83	45165.32
556.00	44989.78
556.16	45209.79
556.33	44989.78
556.50	44914.88
556.66	44715.93
556.83	44891.48
556.99	45092.76
557.16	45277.66
557.32	45059.99
557.49	45385.33
557.65	45205.11
557.82	45247.24
557.98	45598.32
558.15	45247.24
558.32	45516.40
558.48	45345.54
558.65	45240.21
558.81	44767.43
558.98	45495.33
559.14	45476.61
559.31	45326.81
559.47	45441.50
559.64	45603.00
559.80	45593.64
559.97	45614.70
560.13	45492.99
560.30	45647.47
560.46	45696.62
560.63	45736.41
560.79	45806.62
560.96	46190.47
561.12	45881.52
561.29	45490.65
561.45	45799.60
561.61	45528.10
561.78	45617.04
561.94	45165.32
562.11	45549.17
562.27	45130.21
562.44	45701.30
562.60	45961.10
562.77	45851.09
562.93	45923.65
563.10	46506.44
563.26	45514.06
563.42	45982.16
563.59	46026.63
563.75	45485.97
563.92	46085.15
564.08	46089.83
564.24	45846.41
564.41	45876.84
564.57	46108.55
564.74	46012.59
564.90	45872.16
565.07	46113.23
565.23	45738.75
565.39	45638.11
565.56	45605.34
565.72	45530.44
565.88	46024.29
566.05	45694.28
566.21	45745.77
566.38	45715.34
566.54	45993.87
566.70	46202.18
566.87	46363.67
567.03	46199.83
567.19	46281.75
567.36	46148.34
567.52	45900.25
567.68	46150.68
567.85	45844.07
568.01	46499.42
568.17	45893.22
568.34	46267.71
568.50	46050.04
568.66	46033.66
568.83	46216.22
568.99	45413.41
569.15	45731.73
569.32	45942.38
569.48	46218.56
569.64	45909.61
569.81	45958.76
569.97	46223.24
570.13	45799.60
570.30	45736.41
570.46	45951.74
570.62	45656.83
570.78	46373.03
570.95	45338.52
571.11	45986.85
571.27	46230.26
571.43	45560.87
571.60	46267.71
571.76	46440.91
571.92	46330.90
572.09	46103.87
572.25	45991.53
572.41	46394.10
572.57	46644.54
572.74	46735.82
572.90	46246.65
573.06	46286.43
573.22	46543.89
573.38	46286.43
573.55	46195.15
573.71	46469.00
573.87	45979.82
574.03	46349.63
574.20	46155.36
574.36	46522.83
574.52	46403.46
574.68	46127.28
574.84	46239.62
575.01	45811.31
575.17	46302.82
575.33	46277.07
575.49	45668.53
575.65	46555.60
575.82	46677.30
575.98	46375.37
576.14	46232.60
576.30	46590.70
576.46	46230.26
576.62	45972.80
576.79	46342.61
576.95	45984.51
577.11	46527.51
577.27	46506.44
577.43	46405.80
577.59	46066.42
577.75	46401.12
577.92	45947.06
578.08	46127.28
578.24	46014.93
578.40	46232.60
578.56	46197.49
578.72	45993.87
578.88	46403.46
579.04	46328.56
579.21	46188.13
579.37	46270.05
579.53	46272.39
579.69	46237.28
579.85	46377.72
580.01	46490.06
580.17	46667.94
580.33	46270.05
580.49	46689.01
580.65	46684.33
580.82	46672.62
580.98	46398.78
581.14	46239.62
581.30	46857.52
581.46	46349.63
581.62	46684.33
581.78	46424.53
581.94	46433.89
582.10	46244.30
582.26	46681.98
582.42	46057.06
582.58	46726.46
582.74	46391.76
582.90	46944.12
583.06	47072.85
583.22	46579.00
583.38	46511.13
583.54	46555.60
583.70	46822.42
583.86	46831.78
584.02	46340.27
584.18	46326.22
584.34	46527.51
584.50	46483.04
584.66	46501.76
584.82	46232.60
584.98	46248.99
585.14	46370.69
585.30	46719.43
585.46	46511.13
585.62	46197.49
585.78	46445.59
585.94	46108.55
586.10	46227.92
586.26	46094.51
586.42	46859.87
586.58	46752.20
586.74	46703.05
586.90	46251.33
587.06	46326.22
587.22	46485.38
587.38	46494.74
587.54	46394.10
587.70	46258.35
587.86	46698.37
588.02	46321.54
588.18	46672.62
588.34	46436.23
588.49	45600.66
588.65	45713.00
588.81	46150.68
588.97	46050.04
589.13	45631.08
589.29	46045.36
589.45	46618.79
589.61	46241.96
589.77	46057.06
589.93	46525.17
590.08	46689.01
590.24	46562.62
590.40	46387.08
590.56	47178.18
590.72	46801.35
590.88	46312.18
591.04	46326.22
591.20	46560.28
591.35	47309.25
591.51	47040.09
591.67	46843.48
591.83	46780.29
591.99	46515.81
592.15	46082.81
592.31	46698.37
592.46	46518.15
592.62	46274.73
592.78	46653.90
592.94	46464.32
593.10	46822.42
593.26	46511.13
593.41	46525.17
593.57	46541.55
593.73	46763.90
593.89	46405.80
594.05	46333.24
594.20	46394.10
594.36	46677.30
594.52	46899.65
594.68	46618.79
594.84	46780.29
594.99	46522.83
595.15	46553.26
595.31	46869.23
595.47	46848.16
595.62	46518.15
595.78	46791.99
595.94	46944.12
596.10	46389.42
596.25	46911.36
596.41	46698.37
596.57	46801.35
596.73	46855.18
596.88	46319.20
597.04	46391.76
597.20	46738.16
597.36	46735.82
597.51	46878.59
597.67	46473.68
597.83	47068.17
597.99	47161.79
598.14	46564.96
598.30	46939.44
598.46	46543.89
598.61	46370.69
598.77	46525.17
598.93	46476.02
599.09	46520.49
599.24	46899.65
599.40	46557.94
599.56	46616.45
599.71	46719.43
599.87	46480.70
600.03	46880.93
600.18	46110.89
600.34	46419.84
600.50	46672.62
600.65	46667.94
600.81	46955.83
600.97	46782.63
601.12	46831.78
601.28	46679.64
601.44	46513.47
601.59	46206.86
601.75	46344.95
601.91	46639.86
602.06	46354.31
602.22	46581.34
602.37	46398.78
602.53	46677.30
602.69	46665.60
602.84	46043.02
603.00	46684.33
603.16	46738.16
603.31	46646.88
603.47	46284.09
603.62	46586.02
603.78	46520.49
603.94	46600.07
604.09	46473.68
604.25	46511.13
604.40	46382.40
604.56	46396.44
604.71	46637.51
604.87	46604.75
605.03	46461.97
605.18	46436.23
605.34	46864.55
605.49	46326.22
605.65	46447.93
605.80	46518.15
605.96	46417.50
606.12	46396.44
606.27	46806.03
606.43	46190.47
606.58	46354.31
606.74	46384.74
606.89	46064.08
607.05	46288.77
607.20	46569.64
607.36	46431.55
607.51	46305.16
607.67	46230.26
607.82	46195.15
607.98	46295.80
608.13	46106.21
608.29	46127.28
608.44	46129.62
608.60	46178.77
608.75	45965.78
608.91	46204.52
609.06	46036.00
609.22	45963.44
609.37	46064.08
609.53	46064.08
609.68	45715.34
609.84	45694.28
609.99	45570.23
610.15	45848.75
610.30	45525.76
610.46	46204.52
610.61	46225.58
610.76	46373.03
610.92	46122.60
611.07	46239.62
611.23	46073.45
611.38	45949.40
611.54	45862.80
611.69	45675.55
611.84	45591.30
612.00	45525.76
612.15	45862.80
612.31	45729.39
612.46	45572.57
612.62	45553.85
612.77	45535.12
612.92	45815.99
613.08	45811.31
613.23	45619.38
613.39	45537.46
613.54	45240.21
613.69	45811.31
613.85	45755.13
614.00	45439.16
614.15	45593.64
614.31	45603.00
614.46	45654.49
614.62	45668.53
614.77	45703.64
614.92	45645.13
615.08	45333.84
615.23	45595.98
615.38	45186.38
615.54	45106.80
615.69	45338.52
615.84	45315.11
616.00	45392.35
616.15	45202.77
616.30	45343.20
616.46	45015.52
616.61	45055.31
616.76	44910.20
616.92	44739.34
617.07	44706.57
617.22	44664.44
617.37	44624.65
617.53	45315.11
617.68	45455.54
617.83	45109.14
617.99	45139.57
618.14	45095.10
618.29	44395.28
618.45	44411.67
618.60	44554.44
618.75	44406.98
618.90	44395.28
619.06	44980.42
619.21	44442.09
619.36	44582.52
619.51	44711.25
619.67	44540.39
619.82	44821.26
619.97	44741.68
620.12	44549.76
620.28	44261.87
620.43	44320.38
620.58	44271.23
620.73	44039.52
620.89	44432.73
621.04	44428.05
621.19	44519.33
621.34	44832.96
621.49	44074.63
621.65	44142.50
621.80	44531.03
621.95	43840.57
622.10	44357.83
622.25	44137.82
622.41	43702.48
622.56	44025.48
622.71	44140.16
622.86	44282.94
623.01	44163.57
623.16	44383.58
623.32	44081.65
623.47	43910.79
623.62	43941.22
623.77	43800.79
623.92	43990.37
624.07	44229.10
624.23	43742.27
624.38	43634.61
624.53	43782.06
624.68	44002.07
624.83	43793.76
624.98	43580.78
625.13	43320.98
625.29	43807.81
625.44	43377.15
625.59	43494.18
625.74	43002.66
625.89	43374.81
626.04	43676.74
626.19	43599.50
626.34	43299.91
626.49	43325.66
626.65	43278.85
626.80	43845.26
626.95	43145.44
627.10	43082.24
627.25	43152.46
627.40	42483.06
627.55	42948.83
627.70	43021.39
627.85	43058.84
628.00	42806.06
628.15	43009.68
628.30	42911.38
628.45	43257.78
628.60	43096.28
628.76	42990.96
628.91	43320.98
629.06	42899.68
629.21	42747.54
629.36	42600.09
629.51	42438.59
629.66	42415.19
629.81	42424.55
629.96	42349.65
630.11	42930.11
630.26	42925.42
630.41	43086.92
630.56	42389.44
630.71	42962.87
630.86	42506.47
631.01	42185.82
631.16	42480.72
631.31	42466.68
631.46	41738.77
631.61	42272.42
631.76	42279.44
631.91	42174.11
632.06	42499.45
632.21	42377.74
632.36	42637.54
632.51	42106.24
632.66	42157.73
632.81	42117.94
632.96	42082.83
633.10	42253.69
633.25	42361.36
633.40	42256.03
633.55	42099.22
633.70	42075.81
633.85	41717.71
634.00	41759.84
634.15	42131.98
634.30	41652.17
634.45	41839.42
634.60	41799.63
634.75	41975.17
634.90	41851.12
635.05	41743.45
635.19	41265.99
635.34	42115.60
635.49	41708.35
635.64	41572.60
635.79	41640.47
635.94	41022.57
636.09	41282.37
636.24	41446.21
636.39	41205.13
636.53	41317.48
636.68	41500.04
636.83	41436.84
636.98	41350.24
637.13	41315.14
637.28	41331.52
637.43	41333.86
637.57	42101.56
637.72	41174.70
637.87	41254.28
638.02	41626.43
638.17	41167.68
638.32	41125.55
638.46	41504.72
638.61	41249.60
638.76	40938.31
638.91	41249.60
639.06	41270.67
639.20	41158.32
639.35	41535.15
639.50	41013.21
639.65	40907.88
639.80	40945.33
639.94	41062.36
640.09	40926.61
640.24	40577.87
640.39	40364.88
640.54	40652.76
640.68	40769.79
640.83	40568.51
640.98	40507.65
641.13	40453.82
641.27	41296.41
641.42	41013.21
641.57	40818.94
641.72	40355.52
641.86	40421.05
642.01	40285.30
642.16	40414.03
642.31	40428.07
642.45	40238.49
642.60	40381.26
642.75	40474.88
642.90	40725.32
643.04	40472.54
643.19	40367.22
643.34	40446.80
643.48	40381.26
643.63	40425.73
643.78	40039.54
643.93	40364.88
644.07	40285.30
644.22	40252.53
644.37	39952.94
644.51	39896.77
644.66	40299.34
644.81	39990.39
644.95	40273.60
645.10	40027.84
645.25	40182.32
645.39	40126.14
645.54	39913.16
645.69	39716.55
645.83	40048.91
645.98	39725.91
646.13	39990.39
646.27	40105.08
646.42	39655.70
646.57	39295.25
646.71	39353.77
646.86	39924.86
647.00	39782.09
647.15	39714.21
647.30	39086.95
647.44	39440.37
647.59	39370.15
647.74	39110.35
647.88	39129.08
648.03	39419.30
648.17	39477.82
648.32	39667.40
648.47	39386.54
648.61	38834.17
648.76	39550.37
648.90	39072.90
649.05	39372.49
649.20	38958.22
649.34	39634.63
649.49	39058.86
649.63	38579.05
649.78	39201.63
649.92	39196.95
650.07	39194.61
650.21	38843.53
650.36	39115.03
650.51	39473.13
650.65	39461.43
650.80	39555.05
650.94	39108.01
651.09	39049.50
651.23	38710.12
651.38	38778.00
651.52	38403.51
651.67	38763.95
651.81	38665.65
651.96	38728.84
652.10	39161.84
652.25	38565.01
652.39	39030.77
652.54	39065.88
652.68	38684.37
652.83	38834.17
652.97	38714.80
653.12	38630.54
653.26	38447.98
653.41	38424.57
653.55	38000.94
653.70	38649.27
653.84	38691.40
653.99	38536.92
654.13	37909.66
654.27	38040.73
654.42	38183.50
654.56	38127.33
654.71	38368.40
654.85	38398.83
655.00	38007.96
655.14	38188.18
655.29	37888.59
655.43	38270.10
655.57	38036.05
655.72	37504.74
655.86	37518.79
656.01	37610.07
656.15	37509.43
656.30	37486.02
656.44	37476.66
656.58	37284.73
656.73	37338.57
656.87	37476.66
657.01	37303.46
657.16	37617.09
657.30	37373.67
657.45	37549.21
657.59	37446.23
657.73	37448.57
657.88	37593.68
658.02	37378.36
658.16	37998.60
658.31	37591.34
658.45	37659.22
658.60	37244.94
658.74	37434.53
658.88	37432.19
659.03	36737.05
659.17	37287.07
659.31	37134.94
659.46	36821.31
659.60	37441.55
659.74	36964.08
659.89	37266.01
660.03	36898.55
660.17	37230.90
660.32	37148.98
660.46	37205.16
660.60	36460.87
660.74	36938.33
660.89	36514.70
661.03	36498.31
661.17	36519.38
661.32	36378.95
661.46	36367.24
661.60	36416.40
661.74	36652.79
661.89	36409.37
662.03	36341.50
662.17	36486.61
662.31	36088.72
662.46	36858.76
662.60	36610.66
662.74	36360.22
662.88	36163.62
663.03	35938.93
663.17	36294.69
663.31	35779.77
663.45	35845.30
663.60	36163.62
663.74	35629.98
663.88	35456.78
664.02	35342.09
664.17	35447.41
664.31	35606.57
664.45	35622.95
664.59	35234.42
664.73	35470.82
664.88	35819.56
665.02	35157.19
665.16	35585.50
665.30	35166.55
665.44	34848.24
665.59	35019.10
665.73	34841.21
665.87	34918.45
666.01	35075.27
666.15	34698.44
666.29	35185.27
666.44	35049.52
666.58	34930.16
666.72	35016.75
666.86	34445.66
667.00	34623.54
667.14	34216.29
667.28	34305.23
667.43	34532.26
667.57	34738.23
667.71	34157.78
667.85	34511.20
667.99	34323.96
668.13	34487.79
668.27	34471.41
668.41	34340.34
668.56	34192.89
668.70	34160.12
668.84	33647.54
668.98	33326.89
669.12	33755.21
669.26	33804.36
669.40	33771.59
669.54	33876.91
669.68	33570.30
669.82	33448.60
669.96	32971.13
670.10	33179.43
670.25	33439.23
670.39	33230.93
670.53	33200.50
670.67	32830.69
670.81	32940.70
670.95	32856.44
671.09	32954.74
671.23	32786.22
671.37	32830.69
671.51	32720.69
671.65	32615.37
671.79	32268.97
671.93	32706.65
672.07	32753.46
672.21	32676.22
672.35	32582.60
672.49	32168.32
672.63	32481.95
672.77	32378.97
672.91	32285.35
673.05	31931.93
673.19	31999.80
673.33	32109.81
673.47	31901.50
673.61	31552.76
673.75	31360.84
673.89	31489.57
674.03	31398.29
674.17	31634.68
674.31	31531.70
674.45	31136.15
674.59	31318.71
674.73	31779.79
674.87	31391.26
675.01	31475.52
675.15	30801.45
675.29	30876.35
675.43	31103.38
675.56	30995.71
675.70	31012.10
675.84	30852.94
675.98	30029.07
676.12	30525.27
676.26	30869.33
676.40	30639.95
676.54	30625.91
676.68	30366.11
676.82	30146.10
676.96	30122.69
677.10	30036.09
677.23	30010.35
677.37	29809.06
677.51	29825.45
677.65	29610.12
677.79	29032.00
677.93	29497.77
678.07	29233.29
678.21	28804.97
678.34	29132.65
678.48	28985.19
678.62	28582.62
678.76	28561.56
678.90	28769.86
679.04	28804.97
679.18	28638.80
679.31	28479.64
679.45	28491.34
679.59	28594.32
679.73	28023.23
679.87	27934.29
680.00	28299.42
680.14	28095.79
680.28	27946.00
680.42	27669.81
680.56	27608.96
680.70	27676.83
680.83	27370.22
680.97	27545.76
681.11	27655.77
681.25	27590.24
681.39	27522.36
681.52	27353.84
681.66	27264.90
681.80	26988.72
681.94	27065.96
682.07	26981.70
682.21	26185.91
682.35	26438.69
682.49	26677.43
682.62	26539.33
682.76	26253.79
682.90	26356.77
683.04	26148.46
683.17	26417.63
683.31	26010.37
683.45	26038.46
683.59	25837.17
683.72	25848.88
683.86	25895.69
684.00	25827.81
684.13	25511.84
684.27	25781.00
684.41	25319.92
684.55	25212.25
684.68	25277.79
684.82	25245.02
684.96	25205.23
685.09	24793.29
685.23	24716.06
685.37	24858.83
685.50	24865.85
685.64	24662.22
685.78	24510.09
685.91	24479.66
686.05	24372.00
686.19	23878.15
686.32	24264.33
686.46	23564.51
686.60	23487.28
686.73	23440.47
686.87	23264.92
687.01	23180.67
687.14	23171.30
687.28	23302.37
687.42	23035.55
687.55	23143.22
687.69	23101.09
687.82	23030.87
687.96	23307.05
688.10	23035.55
688.23	22808.52
688.37	22640.00
688.50	22527.66
688.64	22792.14
688.78	22244.45
688.91	22309.99
689.05	22349.78
689.18	22171.89
689.32	22061.89
689.46	22134.45
689.59	22071.25
689.73	22300.62
689.86	21972.95
690.00	21928.48
690.13	22230.41
690.27	21633.57
690.41	21528.25
690.54	21298.88
690.68	21149.08
690.81	21207.59
690.95	21355.05
691.08	21270.79
691.22	21338.66
691.35	21235.68
691.49	21137.38
691.62	21158.44
691.76	20662.25
691.89	20790.98
692.03	20788.64
692.16	20493.73
692.30	20411.81
692.43	20369.68
692.57	20465.64
692.70	20449.26
692.84	20156.69
692.97	19822.00
693.11	19981.15
693.24	20011.58
693.38	19559.86
693.51	20079.46
693.65	20091.16
693.78	19913.28
693.92	19786.89
694.05	19693.27
694.19	19323.46
694.32	19271.97
694.45	19138.56
694.59	19187.71
694.72	19040.26
694.86	18981.74
694.99	18984.09
695.13	19171.33
695.26	18693.86
695.39	18740.67
695.53	19117.50
695.66	18862.38
695.80	18771.10
695.93	18740.67
696.07	18359.16
696.20	18345.12
696.33	18403.63
696.47	18443.42
696.60	18085.32
696.73	18190.64
696.87	17921.48
697.00	17977.65
697.14	18017.44
697.27	17600.83
697.40	17392.52
697.54	17174.85
697.67	17521.25
697.80	17373.80
697.94	17118.68
698.07	17348.05
698.21	17076.55
698.34	17057.82
698.47	17132.72
698.61	16954.84
698.74	16561.63
698.87	16851.86
699.01	16570.99
699.14	16500.78
699.27	16322.90
699.40	16386.09
699.54	16482.05
699.67	16400.13
699.80	16343.96
699.94	16140.33
700.07	16318.22
700.20	15992.88
700.34	15824.36
700.47	16236.30
700.60	16306.51
700.73	16037.35
700.87	16189.49
701.00	15674.57
701.13	15576.27
701.26	15651.16
701.40	15517.75
701.53	15164.33
701.66	15377.32
701.79	15241.57
701.93	14946.66
702.06	15005.17
702.19	14918.57
702.32	14834.32
702.46	14860.06
702.59	14862.40
702.72	15084.75
702.85	14640.05
702.99	14792.19
703.12	14628.35
703.25	14420.04
703.38	14525.36
703.51	14228.12
703.65	14525.36
703.78	14595.58
703.91	13919.17
704.04	14022.15
704.17	14169.60
704.31	13928.53
704.44	13832.57
704.57	13874.70
704.70	13928.53
704.83	13884.06
704.96	13731.92
705.10	13818.52
705.23	13874.70
>>>>>End Processed Spectral Data<<<<<
