SpectraSuite Data File
++++++++++++++++++++++++++++++++++++
Date: Fri Oct 25 10:44:19 EDT 2013
User: price-jones
Dark Spectrum Present: No
Reference Spectrum Present: No
Number of Sampled Component Spectra: 1
Spectrometers: USB2+H05261
Integration Time (usec): 100000 (USB2+H05261)
Spectra Averaged: 1 (USB2+H05261)
Boxcar Smoothing: 0 (USB2+H05261)
Correct for Electrical Dark: No (USB2+H05261)
Strobe/Lamp Enabled: No (USB2+H05261)
Correct for Detector Non-linearity: No (USB2+H05261)
Correct for Stray Light: No (USB2+H05261)
Number of Pixels in Processed Spectrum: 2048
>>>>>Begin Processed Spectral Data<<<<<
365.73	77.24
365.92	77.24
366.12	77.24
366.32	77.24
366.52	44.47
366.72	56.17
366.91	0.00
367.11	11.70
367.31	44.47
367.51	65.54
367.70	0.00
367.90	0.00
368.10	91.28
368.30	4.68
368.49	72.56
368.69	67.88
368.89	79.58
369.09	16.38
369.28	2.34
369.48	63.19
369.68	9.36
369.87	128.73
370.07	102.98
370.27	117.03
370.47	236.39
370.66	388.53
370.86	376.83
371.06	479.81
371.25	500.87
371.45	447.04
371.65	545.34
371.84	491.51
372.04	390.87
372.24	477.47
372.44	461.09
372.63	468.11
372.83	571.09
373.03	491.51
373.22	559.39
373.42	477.47
373.62	521.94
373.81	592.16
374.01	634.29
374.21	573.43
374.40	507.90
374.60	615.56
374.79	606.20
374.99	592.16
375.19	540.66
375.38	606.20
375.58	617.90
375.78	585.13
375.97	657.69
376.17	718.54
376.37	601.52
376.56	634.29
376.76	580.45
376.95	608.54
377.15	578.11
377.35	610.88
377.54	660.03
377.74	608.54
377.93	751.31
378.13	753.65
378.33	631.94
378.52	636.63
378.72	716.20
378.91	702.16
379.11	657.69
379.31	695.14
379.50	758.33
379.70	678.76
379.89	704.50
380.09	664.71
380.28	641.31
380.48	753.65
380.68	755.99
380.87	664.71
381.07	727.91
381.26	828.55
381.46	688.12
381.65	779.40
381.85	706.84
382.04	695.14
382.24	760.67
382.43	650.67
382.63	720.88
382.83	674.07
383.02	737.27
383.22	755.99
383.41	720.88
383.61	856.64
383.80	856.64
384.00	765.36
384.19	774.72
384.39	835.57
384.58	849.61
384.78	802.80
384.97	910.47
385.17	844.93
385.36	828.55
385.56	798.12
385.75	833.23
385.95	922.17
386.14	891.74
386.34	894.08
386.53	814.51
386.72	784.08
386.92	889.40
387.11	898.77
387.31	917.49
387.50	882.38
387.70	856.64
387.89	912.81
388.09	945.58
388.28	877.70
388.48	992.39
388.67	926.85
388.86	1027.50
389.06	985.37
389.25	1029.84
389.45	957.28
389.64	1013.45
389.84	1050.90
390.03	1006.43
390.22	1050.90
390.42	1057.92
390.61	1104.73
390.81	1041.54
391.00	1090.69
391.19	1123.46
391.39	1034.52
391.58	1025.15
391.78	999.41
391.97	1118.78
392.16	1032.18
392.36	1107.07
392.55	1093.03
392.75	1074.31
392.94	957.28
393.13	926.85
393.33	964.30
393.52	1050.90
393.71	1057.92
393.91	1102.39
394.10	1165.59
394.29	1177.29
394.49	1224.10
394.68	1212.40
394.88	1299.00
395.07	1296.66
395.26	1364.53
395.46	1242.82
395.65	1289.64
395.84	1296.66
396.04	1303.68
396.23	1170.27
396.42	1296.66
396.62	1097.71
396.81	1226.44
397.00	1228.78
397.19	1338.79
397.39	1329.42
397.58	1483.90
397.77	1411.34
397.97	1495.60
398.16	1476.88
398.35	1476.88
398.55	1507.30
398.74	1528.37
398.93	1561.14
399.12	1598.59
399.32	1474.54
399.51	1544.75
399.70	1650.08
399.90	1678.16
400.09	1694.55
400.28	1757.74
400.47	1652.42
400.67	1675.82
400.86	1685.19
401.05	1853.70
401.24	1689.87
401.44	1837.32
401.63	1809.23
401.82	1818.60
402.01	1776.47
402.21	1856.04
402.40	1827.96
402.59	1905.20
402.78	1874.77
402.97	1874.77
403.17	1811.57
403.36	1870.09
403.55	1914.56
403.74	2071.37
403.93	1909.88
404.13	1994.14
404.32	1947.33
404.51	1935.62
404.70	1898.17
404.89	1970.73
405.09	2052.65
405.28	1977.75
405.47	2029.24
405.66	2104.14
405.85	2029.24
406.05	2036.27
406.24	2108.82
406.43	2179.04
406.62	2162.66
406.81	2167.34
407.00	2106.48
407.20	2115.84
407.39	2181.38
407.58	2317.13
407.77	2225.85
407.96	2275.00
408.15	2338.20
408.34	2338.20
408.54	2382.67
408.73	2356.92
408.92	2307.77
409.11	2380.32
409.30	2335.85
409.49	2438.84
409.68	2310.11
409.87	2265.64
410.07	2420.11
410.26	2321.81
410.45	2387.35
410.64	2504.37
410.83	2539.48
411.02	2518.42
411.21	2684.59
411.40	2647.15
411.59	2813.32
411.78	2768.85
411.98	2654.17
412.17	2822.69
412.36	2754.81
412.55	2775.88
412.74	2855.45
412.93	2733.75
413.12	2848.43
413.31	3084.83
413.50	2963.12
413.69	2958.44
413.88	3007.59
414.07	3124.62
414.26	3033.33
414.45	3040.36
414.64	2998.23
414.83	3236.96
415.02	3030.99
415.22	3023.97
415.41	3267.39
415.60	3169.09
415.79	3260.37
415.98	3445.27
416.17	3332.92
416.36	3337.60
416.55	3316.54
416.74	3365.69
416.93	3433.57
417.12	3456.97
417.31	3410.16
417.50	3445.27
417.69	3529.53
417.88	3485.06
418.07	3475.70
418.26	3564.64
418.45	3634.85
418.64	3705.07
418.83	3707.41
419.02	3786.99
419.21	3761.24
419.39	3709.75
419.58	3583.36
419.77	3665.28
419.96	3686.34
420.15	3794.01
420.34	3693.37
420.53	3819.75
420.72	3892.31
420.91	4154.45
421.10	3889.97
421.29	4163.81
421.48	3943.80
421.67	4007.00
421.86	4032.74
422.05	4084.23
422.24	3892.31
422.43	3983.59
422.61	3962.53
422.80	4016.36
422.99	3983.59
423.18	4124.02
423.37	4067.85
423.56	4067.85
423.75	4049.13
423.94	4095.94
424.13	3871.25
424.32	3901.67
424.50	4065.51
424.69	4161.47
424.88	4243.39
425.07	3992.95
425.26	3995.29
425.45	4009.34
425.64	4180.20
425.83	3988.27
426.01	4065.51
426.20	4025.72
426.39	4184.88
426.58	4119.34
426.77	3971.89
426.96	4163.81
427.15	4276.16
427.33	4046.79
427.52	4079.55
427.71	4280.84
427.90	4177.86
428.09	4236.37
428.28	4327.65
428.46	4313.61
428.65	4241.05
428.84	4440.00
429.03	4547.66
429.22	4243.39
429.40	4322.97
429.59	4154.45
429.78	4046.79
429.97	4028.06
430.16	4145.09
430.34	4299.56
430.53	4227.01
430.72	4386.16
430.91	4304.25
431.10	4517.23
431.28	4807.46
431.47	4744.27
431.66	4863.63
431.85	4669.37
432.03	4713.84
432.22	4833.21
432.41	4791.08
432.60	4901.08
432.79	4795.76
432.97	4784.06
433.16	4826.18
433.35	4751.29
433.54	4730.22
433.72	4919.81
433.91	4812.14
434.10	4929.17
434.28	5020.45
434.47	4880.02
434.66	5097.69
434.85	5109.39
435.03	5156.20
435.22	5011.09
435.41	5235.78
435.59	5235.78
435.78	5369.19
435.97	5275.57
436.16	5221.74
436.34	5303.65
436.53	5383.23
436.72	5392.59
436.90	5277.91
437.09	5390.25
437.28	5245.14
437.46	5179.61
437.65	5341.10
437.84	5352.81
438.02	5362.17
438.21	5366.85
438.40	5287.27
438.58	5509.62
438.77	5554.09
438.96	5621.97
439.14	5731.97
439.33	5774.10
439.52	5898.15
439.70	5804.53
439.89	5673.46
440.08	5856.02
440.26	5856.02
440.45	5982.41
440.63	6033.90
440.82	6155.61
441.01	5966.03
441.19	6225.82
441.38	6218.80
441.57	6118.16
441.75	6408.39
441.94	6516.05
442.12	6415.41
442.31	6595.63
442.50	6516.05
442.68	6567.54
442.87	6506.69
443.05	6516.05
443.24	6539.46
443.43	6661.16
443.61	6691.59
443.80	6843.73
443.98	6684.57
444.17	6480.94
444.35	6647.12
444.54	6899.90
444.73	6874.15
444.91	6792.23
445.10	6813.30
445.28	6567.54
445.47	6600.31
445.65	6621.38
445.84	6876.49
446.02	6724.36
446.21	6682.23
446.39	6927.99
446.58	6806.28
446.77	6743.08
446.95	6773.51
447.14	6986.50
447.32	7241.62
447.51	6904.58
447.69	6960.75
447.88	6703.29
448.06	7035.65
448.25	6820.32
448.43	6848.41
448.62	7056.72
448.80	6944.37
448.99	7019.27
449.17	6993.52
449.36	6836.70
449.54	7096.50
449.73	7452.27
449.91	7190.13
450.10	7653.55
450.28	7573.97
450.46	7559.93
450.65	7459.29
450.83	7419.50
451.02	7328.22
451.20	7529.50
451.39	7360.98
451.57	7494.40
451.76	7379.71
451.94	7616.10
452.13	7595.04
452.31	7157.36
452.49	7267.36
452.68	7506.10
452.86	7370.35
453.05	7515.46
453.23	7520.14
453.42	7644.19
453.60	7695.68
453.78	7913.35
453.97	7768.24
454.15	7620.78
454.34	7669.94
454.52	7850.16
454.70	7894.63
454.89	7824.41
455.07	7763.56
455.26	7967.18
455.44	7969.52
455.62	7896.97
455.81	7967.18
455.99	8053.78
456.17	8126.34
456.36	8336.99
456.54	8322.94
456.73	8339.33
456.91	8386.14
457.09	8320.60
457.28	8568.70
457.46	8114.64
457.64	8322.94
457.83	8489.12
458.01	8301.88
458.19	8638.92
458.38	8170.81
458.56	8709.13
458.74	8449.33
458.93	8479.76
459.11	8580.40
459.29	8622.53
459.48	8430.61
459.66	8517.21
459.84	8554.66
460.03	8758.28
460.21	9039.15
460.39	8723.18
460.57	8643.60
460.76	8861.27
460.94	8915.10
461.12	8992.34
461.31	8877.65
461.49	8802.75
461.67	8882.33
461.85	9128.09
462.04	8917.44
462.22	9392.57
462.40	9146.81
462.59	9310.65
462.77	9132.77
462.95	9252.14
463.13	9282.56
463.32	9301.29
463.50	9359.80
463.68	9394.91
463.86	9167.88
464.05	9249.80
464.23	9427.68
464.41	9331.72
464.59	9202.99
464.78	9652.37
464.96	9589.17
465.14	9291.93
465.32	9305.97
465.50	9458.10
465.69	9493.21
465.87	9514.28
466.05	9600.88
466.23	9525.98
466.41	9570.45
466.60	9708.54
466.78	9474.49
466.96	9703.86
467.14	9612.58
467.32	9603.22
467.51	9617.26
467.69	9628.96
467.87	9638.33
468.05	9774.08
468.23	9790.46
468.41	9870.04
468.60	9951.96
468.78	9991.75
468.96	9811.53
469.14	10012.81
469.32	10029.20
469.50	9818.55
469.69	10022.17
469.87	10022.17
470.05	10326.44
470.23	10104.09
470.41	10010.47
470.59	10249.21
470.77	10249.21
470.95	10469.22
471.14	10490.28
471.32	10443.47
471.50	10560.50
471.68	10401.34
471.86	10644.76
472.04	10736.04
472.22	10885.83
472.40	10705.61
472.58	10827.32
472.77	10918.60
472.95	10848.38
473.13	11293.08
473.31	11021.58
473.49	10778.17
473.67	10871.79
473.85	11208.83
474.03	11253.30
474.21	11246.27
474.39	11234.57
474.57	11510.75
474.75	11314.15
474.93	11655.87
475.12	11639.48
475.30	11548.20
475.48	11522.46
475.66	11747.15
475.84	11679.27
476.02	11962.48
476.20	11831.41
476.38	11985.88
476.56	12285.47
476.74	12250.36
476.92	12046.74
477.10	11995.25
477.28	12510.16
477.46	12074.82
477.64	12659.96
477.82	12823.80
478.00	12863.58
478.18	13128.06
478.36	12718.47
478.54	13001.68
478.72	13142.11
478.90	13390.20
479.08	13296.58
479.26	13516.59
479.44	13722.56
479.62	13570.43
479.80	13521.27
479.98	14019.81
480.16	14139.18
480.34	14136.84
480.52	14153.22
480.70	14377.91
480.88	13811.50
481.06	14314.72
481.24	14349.82
481.41	14733.67
481.59	14831.97
481.77	14815.59
481.95	14939.64
482.13	15386.68
482.31	15105.82
482.49	15307.10
482.67	15246.25
482.85	15503.71
483.03	15693.29
483.21	15772.87
483.39	15915.64
483.57	15786.91
483.74	16016.29
483.92	16168.42
484.10	15826.70
484.28	16271.40
484.46	16435.24
484.64	16891.65
484.82	16608.44
485.00	16629.51
485.18	17149.11
485.35	16774.62
485.53	16620.14
485.71	16526.52
485.89	16821.43
486.07	16964.20
486.25	17081.23
486.43	17081.23
486.61	17474.44
486.78	17942.55
486.96	17996.38
487.14	17790.41
487.32	18188.30
487.50	18518.32
487.68	18927.91
487.85	19021.53
488.03	18897.49
488.21	19178.35
488.39	19377.30
488.57	19288.35
488.75	19594.96
488.92	19499.00
489.10	19964.77
489.28	19992.86
489.46	20685.65
489.64	20306.49
489.81	20973.54
489.99	20861.19
490.17	20849.49
490.35	21067.16
490.53	20823.75
490.70	21062.48
490.88	20865.88
491.06	21298.88
491.24	21420.58
491.41	21390.16
491.59	21509.52
491.77	21455.69
491.95	21687.40
492.13	21914.44
492.30	21879.33
492.48	22157.85
492.66	22637.66
492.84	22394.25
493.01	22815.54
493.19	22607.23
493.37	22918.53
493.54	23171.30
493.72	23339.82
493.90	23260.24
494.08	23693.24
494.25	23885.17
494.43	23627.71
494.61	24240.93
494.79	24034.96
494.96	24039.64
495.14	24297.10
495.32	24189.44
495.49	24545.20
495.67	24428.17
495.85	24568.60
496.02	24802.66
496.20	25137.35
496.38	25303.53
496.55	25245.02
496.73	25612.48
496.91	25706.10
497.09	25649.93
497.26	25977.61
497.44	25956.54
497.62	26160.17
497.79	26181.23
497.97	26118.04
498.14	25928.45
498.32	26096.97
498.50	26579.12
498.67	26721.90
498.85	26618.91
499.03	26764.03
499.20	26703.17
499.38	27370.22
499.56	27197.02
499.73	27241.50
499.91	27103.40
500.08	27339.80
500.26	27012.12
500.44	27470.87
500.61	27824.29
500.79	27585.55
500.97	27632.36
501.14	27885.14
501.32	27929.61
501.49	27604.28
501.67	27681.52
501.84	27985.79
502.02	28395.38
502.20	28383.68
502.37	28751.14
502.55	28739.44
502.72	28858.81
502.90	28809.65
503.07	28641.14
503.25	28524.11
503.43	28779.23
503.60	28753.48
503.78	28877.53
503.95	29170.10
504.13	29427.56
504.30	29390.11
504.48	28968.81
504.65	29663.95
504.83	29448.62
505.01	29874.60
505.18	30031.41
505.36	30221.00
505.53	30340.36
505.71	30513.56
505.88	30609.53
506.06	30197.59
506.23	30611.87
506.41	30443.35
506.58	30780.39
506.76	30799.11
506.93	30955.93
507.11	30169.51
507.28	30878.69
507.46	30899.75
507.63	30838.90
507.81	31250.83
507.98	30962.95
508.16	31311.69
508.33	31239.13
508.50	31316.37
508.68	31761.07
508.85	32065.34
509.03	31955.33
509.20	32079.38
509.38	31676.81
509.55	32554.51
509.73	32507.70
509.90	32135.56
510.08	31999.80
510.25	32063.00
510.42	32268.97
510.60	32671.54
510.77	33076.45
510.95	32746.44
511.12	32739.41
511.30	32664.52
511.47	33680.31
511.64	32954.74
511.82	33448.60
511.99	33083.47
512.17	33179.43
512.34	33153.69
512.51	33675.63
512.69	33472.00
512.86	33909.68
513.04	34368.43
513.21	33741.16
513.38	33626.48
513.56	34054.79
513.73	33720.10
513.90	33668.61
514.08	33947.13
514.25	33762.23
514.43	34122.67
514.60	34164.80
514.77	34323.96
514.95	34728.87
515.12	34237.36
515.29	34675.04
515.47	35061.22
515.64	34789.72
515.81	34909.09
515.99	34546.31
516.16	34679.72
516.33	34270.12
516.51	34455.03
516.68	33813.72
516.85	34050.11
517.03	33790.31
517.20	34520.56
517.37	35101.01
517.54	35299.96
517.72	34810.79
517.89	35234.42
518.06	34796.74
518.24	34862.28
518.41	35246.13
518.58	35475.50
518.75	35416.99
518.93	35543.38
519.10	35461.46
519.27	35744.66
519.45	36250.22
519.62	36381.29
519.79	36507.68
519.96	36140.21
520.14	36512.36
520.31	36346.18
520.48	36650.45
520.65	36149.57
520.83	37141.96
521.00	36947.70
521.17	36671.51
521.34	36989.83
521.52	37106.85
521.69	37308.14
521.86	37195.79
522.03	37177.07
522.20	37347.93
522.38	37289.42
522.55	37258.99
522.72	37083.45
522.89	37071.75
523.07	37715.39
523.24	37521.13
523.41	37535.17
523.58	37830.08
523.75	38499.47
523.92	37951.79
524.10	38534.58
524.27	38387.13
524.44	38405.85
524.61	38246.69
524.78	38335.63
524.96	38590.75
525.13	38419.89
525.30	38742.89
525.47	38782.68
525.64	38604.80
525.81	38274.78
525.98	38829.49
526.16	38291.16
526.33	38279.46
526.50	38284.14
526.67	38188.18
526.84	38220.95
527.01	38164.78
527.18	39115.03
527.36	38817.78
527.53	38995.67
527.70	39658.04
527.87	39711.87
528.04	38960.56
528.21	39473.13
528.38	39484.84
528.55	39754.00
528.72	39452.07
528.89	40273.60
529.07	39264.83
529.24	39498.88
529.41	39702.51
529.58	39730.59
529.75	39688.46
529.92	39590.16
530.09	40322.75
530.26	39920.18
530.43	40261.90
530.60	39730.59
530.77	40280.62
530.94	40418.71
531.11	40275.94
531.28	40481.91
531.46	40357.86
531.63	40360.20
531.80	40629.36
531.97	40257.21
532.14	40484.25
532.31	39983.37
532.48	40299.34
532.65	40664.47
532.82	40519.35
532.99	41088.10
533.16	40741.71
533.33	40802.56
533.50	40938.31
533.67	41017.89
533.84	41057.68
534.01	40753.41
534.18	41104.49
534.35	41319.82
534.52	40659.79
534.69	41448.55
534.86	41457.91
535.03	41380.67
535.20	41572.60
535.37	42043.04
535.54	41853.46
535.71	41310.46
535.88	41806.65
536.05	41556.21
536.22	41628.77
536.38	41717.71
536.55	41738.77
536.72	41474.29
536.89	41347.90
537.06	41413.44
537.23	41834.74
537.40	41509.40
537.57	42204.54
537.74	42073.47
537.91	42508.81
538.08	42408.17
538.25	41720.05
538.42	42328.59
538.59	42550.94
538.75	41825.37
538.92	42422.21
539.09	42249.01
539.26	42178.79
539.43	42307.52
539.60	41883.89
539.77	42344.97
539.94	42038.36
540.11	41750.48
540.28	42169.43
540.44	42553.28
540.61	42417.53
540.78	42146.03
540.95	42298.16
541.12	42382.42
541.29	42677.33
541.46	42188.16
541.62	42682.01
541.79	43138.41
541.96	42274.76
542.13	43058.84
542.30	42880.95
542.47	42749.88
542.63	42845.85
542.80	43131.39
542.97	43140.75
543.14	43906.11
543.31	43555.03
543.48	43665.03
543.64	43744.61
543.81	43508.22
543.98	44039.52
544.15	43306.93
544.32	43962.28
544.48	44505.29
544.65	43718.87
544.82	43901.43
544.99	43438.00
545.16	43412.26
545.32	43995.05
545.49	44598.91
545.66	44292.30
545.83	44144.84
546.00	44369.54
546.16	44184.63
546.33	44142.50
546.50	44254.85
546.67	44378.90
546.83	43885.04
547.00	43934.20
547.17	44032.50
547.34	44339.11
547.50	44219.74
547.67	44336.77
547.84	44254.85
548.00	44350.81
548.17	44898.50
548.34	44547.42
548.51	44650.40
548.67	45024.89
548.84	44502.95
549.01	44659.76
549.18	44463.16
549.34	44912.54
549.51	44949.99
549.68	44643.38
549.84	44832.96
550.01	45188.72
550.18	44758.06
550.34	45001.48
550.51	44858.71
550.68	44652.74
550.84	44765.09
551.01	44940.63
551.18	44910.20
551.34	45153.62
551.51	45123.19
551.68	45907.27
551.84	45059.99
552.01	45177.02
552.18	44978.07
552.34	45003.82
552.51	45333.84
552.68	45184.04
552.84	45397.03
553.01	45134.89
553.18	45411.07
553.34	45174.68
553.51	45343.20
553.67	45106.80
553.84	45666.19
554.01	45254.26
554.17	45647.47
554.34	46089.83
554.51	45581.93
554.67	46314.52
554.84	45141.91
555.00	45741.09
555.17	45382.99
555.33	45645.13
555.50	45808.96
555.67	45689.60
555.83	45617.04
556.00	45462.57
556.16	45954.08
556.33	46036.00
556.50	45869.82
556.66	45883.86
556.83	45603.00
556.99	46066.42
557.16	45778.54
557.32	45860.46
557.49	46122.60
557.65	45729.39
557.82	45918.97
557.98	46162.39
558.15	46220.90
558.32	46597.73
558.48	45848.75
558.65	45815.99
558.81	46052.38
558.98	46211.54
559.14	45979.82
559.31	45869.82
559.47	46199.83
559.64	46176.43
559.80	46349.63
559.97	46045.36
560.13	45722.37
560.30	45977.48
560.46	46092.17
560.63	46220.90
560.79	46375.37
560.96	46396.44
561.12	46124.94
561.29	46064.08
561.45	46440.91
561.61	46473.68
561.78	46213.88
561.94	45991.53
562.11	45954.08
562.27	46330.90
562.44	46153.02
562.60	46857.52
562.77	46293.46
562.93	46148.34
563.10	46588.36
563.26	46426.87
563.42	46307.50
563.59	46244.30
563.75	45827.69
563.92	46815.40
564.08	46316.86
564.24	46614.11
564.41	46815.40
564.57	46712.41
564.74	46698.37
564.90	46391.76
565.07	46906.68
565.23	46574.32
565.39	46396.44
565.56	46766.24
565.72	46033.66
565.88	46429.21
566.05	46419.84
566.21	46522.83
566.38	46513.47
566.54	46721.77
566.70	46625.81
566.87	47037.75
567.03	46653.90
567.19	46969.87
567.36	46707.73
567.52	46380.06
567.68	46714.75
567.85	46314.52
568.01	46780.29
568.17	46461.97
568.34	46745.18
568.50	46646.88
568.66	46319.20
568.83	46857.52
568.99	46562.62
569.15	46681.98
569.32	46337.93
569.48	46333.24
569.64	47295.21
569.81	46157.70
569.97	46857.52
570.13	46782.63
570.30	46553.26
570.46	46445.59
570.62	46569.64
570.78	46754.54
570.95	46569.64
571.11	46761.56
571.27	46745.18
571.43	46646.88
571.60	46621.13
571.76	46614.11
571.92	47138.39
572.09	46979.23
572.25	46866.89
572.41	46220.90
572.57	46883.27
572.74	47220.31
572.90	46756.88
573.06	47072.85
573.22	46995.62
573.38	46714.75
573.55	46342.61
573.71	46883.27
573.87	46607.09
574.03	46981.57
574.20	46703.05
574.36	46777.95
574.52	46897.31
574.68	46934.76
574.84	46951.15
575.01	46791.99
575.17	46497.08
575.33	46913.70
575.49	46410.48
575.65	46873.91
575.82	47152.43
575.98	46752.20
576.14	47019.02
576.30	46866.89
576.46	46859.87
576.62	46775.61
576.79	47107.96
576.95	46557.94
577.11	46412.82
577.27	46635.17
577.43	46930.08
577.59	46618.79
577.75	46738.16
577.92	46520.49
578.08	46691.35
578.24	46366.01
578.40	46422.19
578.56	46794.33
578.72	46358.99
578.88	47114.98
579.04	47122.01
579.21	46841.14
579.37	47117.32
579.53	46859.87
579.69	46909.02
579.85	47093.92
580.01	46873.91
580.17	46571.98
580.33	46806.03
580.49	46759.22
580.65	46883.27
580.82	46993.28
580.98	47089.24
581.14	47122.01
581.30	47227.33
581.46	46986.25
581.62	47037.75
581.78	46873.91
581.94	46948.81
582.10	46791.99
582.26	47070.51
582.42	47360.74
582.58	47075.19
582.74	46663.26
582.90	47360.74
583.06	47578.41
583.22	47117.32
583.38	47393.51
583.54	46962.85
583.70	46876.25
583.86	46773.27
584.02	46932.42
584.18	46726.46
584.34	46955.83
584.50	47096.26
584.66	46740.50
584.82	46567.30
584.98	47154.77
585.14	46693.69
585.30	46827.10
585.46	47159.45
585.62	46834.12
585.78	46824.76
585.94	46714.75
586.10	46707.73
586.26	46763.90
586.42	47033.07
586.58	47435.64
586.74	47430.96
586.90	47529.26
587.06	46813.05
587.22	47075.19
587.38	46607.09
587.54	47000.30
587.70	46951.15
587.86	47063.49
588.02	47075.19
588.18	47180.52
588.34	47112.64
588.49	46520.49
588.65	46586.02
588.81	46059.40
588.97	46539.21
589.13	46136.64
589.29	46728.80
589.45	46719.43
589.61	47416.91
589.77	46941.78
589.93	47012.00
590.08	46925.40
590.24	46932.42
590.40	47480.11
590.56	47267.12
590.72	47203.92
590.88	47000.30
591.04	46859.87
591.20	47334.99
591.35	47683.73
591.51	47714.16
591.67	46941.78
591.83	47325.63
591.99	46930.08
592.15	47136.05
592.31	47519.90
592.46	47021.36
592.62	47253.08
592.78	47168.82
592.94	47241.37
593.10	46869.23
593.26	47351.38
593.41	46831.78
593.57	46834.12
593.73	47070.51
593.89	47285.84
594.05	46951.15
594.20	47267.12
594.36	47297.55
594.52	46944.12
594.68	46745.18
594.84	46770.93
594.99	47271.80
595.15	47089.24
595.31	47154.77
595.47	46995.62
595.62	47044.77
595.78	47192.22
595.94	47466.06
596.10	47035.41
596.25	47409.89
596.41	47344.36
596.57	47203.92
596.73	47110.30
596.88	46951.15
597.04	47009.66
597.20	47330.31
597.36	47068.17
597.51	47566.71
597.67	47299.89
597.83	47669.69
597.99	47215.63
598.14	47625.22
598.30	47489.47
598.46	46887.95
598.61	46670.28
598.77	46667.94
598.93	47208.61
599.09	47168.82
599.24	47526.92
599.40	47232.01
599.56	47334.99
599.71	47344.36
599.87	47199.24
600.03	47353.72
600.18	47044.77
600.34	47255.42
600.50	47285.84
600.65	47016.68
600.81	47047.11
600.97	47250.74
601.12	47213.29
601.28	47344.36
601.44	46848.16
601.59	46679.64
601.75	46848.16
601.91	46916.04
602.06	46609.43
602.22	46972.21
602.37	46838.80
602.53	47253.08
602.69	47220.31
602.84	47051.79
603.00	46794.33
603.16	46831.78
603.31	47091.58
603.47	47019.02
603.62	47014.34
603.78	47004.98
603.94	46892.63
604.09	47566.71
604.25	47105.62
604.40	47334.99
604.56	47318.61
604.71	46876.25
604.87	46925.40
605.03	46909.02
605.18	47035.41
605.34	46871.57
605.49	46246.65
605.65	46787.31
605.80	46920.72
605.96	47044.77
606.12	47042.43
606.27	46976.89
606.43	46944.12
606.58	46944.12
606.74	46721.77
606.89	46665.60
607.05	47002.64
607.20	47035.41
607.36	46632.83
607.51	46887.95
607.67	46649.22
607.82	46733.48
607.98	46981.57
608.13	46553.26
608.29	46789.65
608.44	46670.28
608.60	46478.36
608.75	46459.63
608.91	46389.42
609.06	46703.05
609.22	46618.79
609.37	46202.18
609.53	46422.19
609.68	46522.83
609.84	46342.61
609.99	46808.37
610.15	46719.43
610.30	46408.14
610.46	46078.13
610.61	46501.76
610.76	46834.12
610.92	46487.72
611.07	46831.78
611.23	46684.33
611.38	46337.93
611.54	46373.03
611.69	46143.66
611.84	46230.26
612.00	45890.88
612.15	45834.71
612.31	46630.49
612.46	45923.65
612.62	46461.97
612.77	46206.86
612.92	46466.66
613.08	45986.85
613.23	46354.31
613.39	45954.08
613.54	45579.59
613.69	46026.63
613.85	45965.78
614.00	46232.60
614.15	46344.95
614.31	46293.46
614.46	45968.12
614.62	45834.71
614.77	45914.29
614.92	45954.08
615.08	45951.74
615.23	45605.34
615.38	45731.73
615.54	45333.84
615.69	45785.56
615.84	45776.20
616.00	45663.85
616.15	45656.83
616.30	46085.15
616.46	45284.68
616.61	45186.38
616.76	45478.95
616.92	44964.03
617.07	45354.90
617.22	45020.20
617.37	45207.45
617.53	45820.67
617.68	45965.78
617.83	45624.06
617.99	45544.48
618.14	45195.74
618.29	45546.82
618.45	45240.21
618.60	45083.40
618.75	45261.28
618.90	44989.78
619.06	45546.82
619.21	45462.57
619.36	45694.28
619.51	45228.51
619.67	44858.71
619.82	45413.41
619.97	45394.69
620.12	45492.99
620.28	44659.76
620.43	44722.96
620.58	44861.05
620.73	44931.26
620.89	44804.88
621.04	44863.39
621.19	44863.39
621.34	45359.58
621.49	45001.48
621.65	44701.89
621.80	44865.73
621.95	43976.33
622.10	44374.22
622.25	44378.90
622.41	44608.27
622.56	44336.77
622.71	44975.73
622.86	44591.89
623.01	44566.14
623.16	44353.15
623.32	44257.19
623.47	44615.29
623.62	44491.24
623.77	44282.94
623.92	44442.09
624.07	44332.09
624.23	44240.81
624.38	44165.91
624.53	44437.41
624.68	44203.36
624.83	43962.28
624.98	44294.64
625.13	44091.01
625.29	43901.43
625.44	43796.10
625.59	43725.89
625.74	43243.74
625.89	43356.08
626.04	43873.34
626.19	44058.24
626.34	43941.22
626.49	43606.52
626.65	43948.24
626.80	43999.73
626.95	43934.20
627.10	43903.77
627.25	43592.48
627.40	43339.70
627.55	43372.47
627.70	43117.35
627.85	43419.28
628.00	43210.97
628.15	43234.38
628.30	43332.68
628.45	43320.98
628.60	43440.34
628.76	43505.88
628.91	43573.75
629.06	43021.39
629.21	43313.95
629.36	42932.45
629.51	42766.27
629.66	42450.30
629.81	42674.99
629.96	43395.87
630.11	43388.85
630.26	43571.41
630.41	43367.79
630.56	43065.86
630.71	42806.06
630.86	42663.28
631.01	42834.14
631.16	43166.50
631.31	42824.78
631.46	42504.13
631.61	42962.87
631.76	42902.02
631.91	42593.07
632.06	42850.53
632.21	43070.54
632.36	42850.53
632.51	42827.12
632.66	42782.65
632.81	42178.79
632.96	42433.91
633.10	42555.62
633.25	42705.41
633.40	42916.06
633.55	42625.84
633.70	42176.45
633.85	42155.39
634.00	42190.50
634.15	42323.91
634.30	42497.11
634.45	42417.53
634.60	42492.43
634.75	42457.32
634.90	41926.02
635.05	42143.69
635.19	42199.86
635.34	42223.26
635.49	41900.27
635.64	42110.92
635.79	41624.09
635.94	41996.23
636.09	42026.66
636.24	41907.29
636.39	42075.81
636.53	41579.62
636.68	41787.92
636.83	41949.42
636.98	41745.80
637.13	41750.48
637.28	42005.59
637.43	41862.82
637.57	42054.75
637.72	41928.36
637.87	41855.80
638.02	42033.68
638.17	41588.98
638.32	41280.03
638.46	41738.77
638.61	42047.72
638.76	41493.02
638.91	41352.58
639.06	41745.80
639.20	41411.10
639.35	41727.07
639.50	41633.45
639.65	41408.76
639.80	41846.44
639.94	41584.30
640.09	41507.06
640.24	41256.62
640.39	40964.06
640.54	40987.46
640.68	41125.55
640.83	41359.61
640.98	40811.92
641.13	41055.34
641.27	41256.62
641.42	41251.94
641.57	40926.61
641.72	40982.78
641.86	40552.12
642.01	40877.46
642.16	40774.47
642.31	40484.25
642.45	41043.63
642.60	40828.30
642.75	40769.79
642.90	40818.94
643.04	40870.43
643.19	40795.54
643.34	41188.75
643.48	40264.24
643.63	40208.06
643.78	40126.14
643.93	40575.53
644.07	40610.64
644.22	40423.39
644.37	40378.92
644.51	40517.01
644.66	40016.14
644.81	40708.94
644.95	40704.26
645.10	40645.74
645.25	40987.46
645.39	40306.37
645.54	40374.24
645.69	40566.16
645.83	40016.14
645.98	40147.21
646.13	40177.64
646.27	40084.01
646.42	40105.08
646.57	39924.86
646.71	40053.59
646.86	40231.47
647.00	40013.80
647.15	40292.32
647.30	40236.15
647.44	39955.29
647.59	39833.58
647.74	40074.65
647.88	39730.59
648.03	40163.59
648.17	40058.27
648.32	40041.88
648.47	39676.76
648.61	39470.79
648.76	39964.65
648.90	40334.45
649.05	39608.89
649.20	39653.36
649.34	39634.63
649.49	39199.29
649.63	39868.69
649.78	39442.71
649.92	39543.35
650.07	39835.92
650.21	38909.07
650.36	39328.02
650.51	39068.22
650.65	39672.08
650.80	39763.36
650.94	39086.95
651.09	39948.26
651.23	39351.43
651.38	39531.65
651.52	38656.29
651.67	39189.93
651.81	39161.84
651.96	38686.71
652.10	38850.55
652.25	38405.85
652.39	38707.78
652.54	39257.81
652.68	39054.18
652.83	39276.53
652.97	39255.46
653.12	38983.96
653.26	38675.01
653.41	39248.44
653.55	38560.33
653.70	38405.85
653.84	38815.44
653.99	38902.04
654.13	38845.87
654.27	38637.56
654.42	38433.94
654.56	38550.96
654.71	38939.49
654.85	39068.22
655.00	38618.84
655.14	38361.38
655.29	38045.41
655.43	38176.48
655.57	38176.48
655.72	37392.40
655.86	38141.37
656.01	37565.60
656.15	37881.57
656.30	37734.12
656.44	37897.95
656.58	37972.85
656.73	37766.88
656.87	37785.61
657.01	38190.52
657.16	37872.21
657.30	38206.90
657.45	37493.04
657.59	37708.37
657.73	37874.55
657.88	38398.83
658.02	38010.30
658.16	38007.96
658.31	38122.65
658.45	37855.82
658.60	37865.19
658.74	37783.27
658.88	37497.72
659.03	37324.52
659.17	37062.38
659.31	37673.26
659.46	37251.97
659.60	37273.03
659.74	37612.41
659.89	37340.91
660.03	37158.34
660.17	37127.92
660.32	37214.52
660.46	37991.58
660.60	37413.46
660.74	37336.23
660.89	37029.62
661.03	36769.82
661.17	36685.56
661.32	37347.93
661.46	36964.08
661.60	37132.60
661.74	36893.86
661.89	36966.42
662.03	36781.52
662.17	36264.26
662.31	36378.95
662.46	36603.64
662.60	36636.41
662.74	36711.30
662.88	36460.87
663.03	36217.45
663.17	36381.29
663.31	36086.38
663.45	35945.95
663.60	36385.97
663.74	35969.35
663.88	36259.58
664.02	36098.08
664.17	36346.18
664.31	35564.44
664.45	35597.21
664.59	35524.65
664.73	36086.38
664.88	35922.54
665.02	35456.78
665.16	35599.55
665.30	35798.49
665.44	35735.30
665.59	35393.58
665.73	35580.82
665.87	35515.29
666.01	35309.32
666.15	35058.88
666.29	35456.78
666.44	35651.04
666.58	35159.53
666.72	35321.02
666.86	35138.46
667.00	35196.98
667.14	34756.96
667.28	34871.64
667.43	34972.28
667.57	35012.07
667.71	34834.19
667.85	34967.60
667.99	34555.67
668.13	34623.54
668.27	34457.37
668.41	34639.93
668.56	34749.93
668.70	34651.63
668.84	34082.88
668.98	34103.95
669.12	34129.69
669.26	34085.22
669.40	34054.79
669.54	33553.92
669.68	34125.01
669.82	34045.43
669.96	33560.94
670.10	33785.63
670.25	33876.91
670.39	33387.74
670.53	33125.60
670.67	33493.07
670.81	33930.75
670.95	33275.40
671.09	32917.29
671.23	33317.53
671.37	33422.85
671.51	32477.27
671.65	32706.65
671.79	32723.03
671.93	32856.44
672.07	33362.00
672.21	32907.93
672.35	33039.00
672.49	32861.12
672.63	32643.45
672.77	32463.23
672.91	32854.10
673.05	32643.45
673.19	32694.94
673.33	32442.17
673.47	31969.38
673.61	31749.37
673.75	31997.46
673.89	31824.26
674.03	31676.81
674.17	31482.55
674.31	32032.57
674.45	31695.53
674.59	31709.58
674.73	31548.08
674.87	32079.38
675.01	31662.77
675.15	31426.37
675.29	31241.47
675.43	31206.36
675.56	31440.42
675.70	31154.87
675.84	30892.73
675.98	30387.18
676.12	31182.96
676.26	30920.82
676.40	30841.24
676.54	30911.46
676.68	30412.92
676.82	30361.43
676.96	30682.08
677.10	30073.54
677.23	30089.93
677.37	30141.42
677.51	29663.95
677.65	29713.10
677.79	29577.35
677.93	29893.32
678.07	29717.78
678.21	29486.07
678.34	28952.43
678.48	29256.70
678.62	29357.34
678.76	29067.11
678.90	28657.52
679.04	28713.69
679.18	28854.12
679.31	28641.14
679.45	28793.27
679.59	28587.30
679.73	28339.21
679.87	28418.78
680.00	28332.18
680.14	28388.36
680.28	28100.47
680.42	28130.90
680.56	28173.03
680.70	27878.12
680.83	28428.15
680.97	28168.35
681.11	27660.45
681.25	27569.17
681.39	27517.68
681.52	27639.39
681.66	27702.58
681.80	27019.14
681.94	27410.01
682.07	27246.18
682.21	27253.20
682.35	26707.85
682.49	27536.40
682.62	26799.13
682.76	27087.02
682.90	27033.19
683.04	26539.33
683.17	26459.76
683.31	26221.02
683.45	26499.55
683.59	26141.44
683.72	26096.97
683.86	26419.97
684.00	26380.18
684.13	26270.17
684.27	25820.79
684.41	25649.93
684.55	25357.36
684.68	25186.50
684.82	25568.01
684.96	25223.95
685.09	25223.95
685.23	25144.38
685.37	25172.46
685.50	25060.12
685.64	24659.88
685.78	24524.13
685.91	24645.84
686.05	24711.38
686.19	24226.89
686.32	24322.85
686.46	23824.31
686.60	23683.88
686.73	23990.49
686.87	23391.31
687.01	23122.15
687.14	23487.28
687.28	23414.72
687.42	23665.16
687.55	23236.84
687.69	23789.20
687.82	23744.73
687.96	23473.23
688.10	23304.71
688.23	22871.72
688.37	22899.80
688.50	22663.41
688.64	22829.59
688.78	22527.66
688.91	22838.95
689.05	22820.22
689.18	22721.92
689.32	22331.05
689.46	22572.13
689.59	22562.76
689.73	22689.15
689.86	22230.41
690.00	22209.34
690.13	22354.46
690.27	22010.40
690.41	22087.64
690.54	21525.91
690.68	21273.13
690.81	21216.96
690.95	21432.29
691.08	21415.90
691.22	21565.70
691.35	21301.22
691.49	21537.61
691.62	21404.20
691.76	21343.35
691.89	20814.38
692.03	21099.93
692.16	21139.72
692.30	21060.14
692.43	20549.90
692.57	20236.27
692.70	20467.98
692.84	20669.27
692.97	20086.48
693.11	20226.91
693.24	20159.03
693.38	20201.16
693.51	19950.73
693.65	20175.42
693.78	19873.49
693.92	19906.26
694.05	19807.95
694.19	19517.73
694.32	19520.07
694.45	19342.19
694.59	18946.64
694.72	19353.89
694.86	19012.17
694.99	18878.76
695.13	19073.03
695.26	19187.71
695.39	18794.50
695.53	18693.86
695.66	19063.66
695.80	19049.62
695.93	18677.48
696.07	18700.88
696.20	18501.93
696.33	18541.72
696.47	18410.65
696.60	18068.94
696.73	18073.62
696.87	18214.05
697.00	18270.22
697.14	17687.43
697.27	17893.40
697.40	17998.72
697.54	17811.48
697.67	17860.63
697.80	17181.87
697.94	17404.22
698.07	17401.88
698.21	17422.95
698.34	17160.81
698.47	17139.74
698.61	16716.11
698.74	17029.74
698.87	16650.57
699.01	16449.28
699.14	16573.33
699.27	16699.72
699.40	16664.61
699.54	16627.17
699.67	16453.97
699.80	16449.28
699.94	16276.09
700.07	16563.97
700.20	15882.88
700.34	16222.25
700.47	16409.50
700.60	16191.83
700.73	16140.33
700.87	15964.79
701.00	16086.50
701.13	15864.15
701.26	15618.39
701.40	15587.97
701.53	15534.14
701.66	15508.39
701.79	15281.36
701.93	15506.05
702.06	15396.04
702.19	15353.91
702.32	15220.50
702.46	14916.23
702.59	15030.92
702.72	15077.73
702.85	14977.09
702.99	15183.06
703.12	14806.23
703.25	14651.75
703.38	14553.45
703.51	14656.43
703.65	14494.94
703.78	14616.65
703.91	14569.83
704.04	14354.51
704.17	14485.58
704.31	14476.21
704.44	14188.33
704.57	14167.26
704.70	14087.68
704.83	14010.45
704.96	13980.02
705.10	14052.58
705.23	13628.94
>>>>>End Processed Spectral Data<<<<<
