SpectraSuite Data File
++++++++++++++++++++++++++++++++++++
Date: Fri Oct 25 10:43:25 EDT 2013
User: price-jones
Dark Spectrum Present: No
Reference Spectrum Present: No
Number of Sampled Component Spectra: 1
Spectrometers: USB2+H05261
Integration Time (usec): 100000 (USB2+H05261)
Spectra Averaged: 1 (USB2+H05261)
Boxcar Smoothing: 0 (USB2+H05261)
Correct for Electrical Dark: No (USB2+H05261)
Strobe/Lamp Enabled: No (USB2+H05261)
Correct for Detector Non-linearity: No (USB2+H05261)
Correct for Stray Light: No (USB2+H05261)
Number of Pixels in Processed Spectrum: 2048
>>>>>Begin Processed Spectral Data<<<<<
365.73	133.41
365.92	133.41
366.12	133.41
366.32	0.00
366.52	25.75
366.72	53.83
366.91	77.24
367.11	0.00
367.31	35.11
367.51	4.68
367.70	49.15
367.90	65.54
368.10	0.00
368.30	18.72
368.49	23.41
368.69	105.32
368.89	18.72
369.09	39.79
369.28	25.75
369.48	149.79
369.68	166.18
369.87	44.47
370.07	49.15
370.27	88.94
370.47	224.69
370.66	362.78
370.86	444.70
371.06	491.51
371.25	503.22
371.45	454.06
371.65	458.74
371.84	425.98
372.04	468.11
372.24	395.55
372.44	505.56
372.63	524.28
372.83	472.79
373.03	533.64
373.22	500.87
373.42	554.71
373.62	512.58
373.81	543.00
374.01	552.37
374.21	573.43
374.40	503.22
374.60	535.98
374.79	561.73
374.99	493.85
375.19	552.37
375.38	592.16
375.58	578.11
375.78	716.20
375.97	561.73
376.17	601.52
376.37	571.09
376.56	580.45
376.76	594.50
376.95	554.71
377.15	585.13
377.35	631.94
377.54	688.12
377.74	629.60
377.93	678.76
378.13	582.79
378.33	648.33
378.52	545.34
378.72	725.57
378.91	692.80
379.11	634.29
379.31	657.69
379.50	613.22
379.70	699.82
379.89	727.91
380.09	702.16
380.28	648.33
380.48	744.29
380.68	660.03
380.87	641.31
381.07	674.07
381.26	798.12
381.46	744.29
381.65	685.78
381.85	676.41
382.04	688.12
382.24	720.88
382.43	655.35
382.63	699.82
382.83	695.14
383.02	695.14
383.22	629.60
383.41	786.42
383.61	744.29
383.80	730.25
384.00	716.20
384.19	767.70
384.39	814.51
384.58	748.97
384.78	650.67
384.97	732.59
385.17	770.04
385.36	896.43
385.56	744.29
385.75	807.48
385.95	795.78
386.14	819.19
386.34	788.76
386.53	774.72
386.72	763.01
386.92	882.38
387.11	835.57
387.31	936.21
387.50	966.64
387.70	990.05
387.89	837.91
388.09	910.47
388.28	807.48
388.48	887.06
388.67	943.24
388.86	952.60
389.06	821.53
389.25	952.60
389.45	985.37
389.64	961.96
389.84	1078.99
390.03	971.32
390.22	961.96
390.42	997.07
390.61	936.21
390.81	1013.45
391.00	992.39
391.19	1032.18
391.39	1013.45
391.58	1074.31
391.78	1011.11
391.97	1029.84
392.16	964.30
392.36	1034.52
392.55	978.34
392.75	1057.92
392.94	1011.11
393.13	959.62
393.33	936.21
393.52	1076.65
393.71	1107.07
393.91	1114.10
394.10	1102.39
394.29	1020.47
394.49	1132.82
394.68	1245.16
394.88	1247.51
395.07	1160.91
395.26	1219.42
395.46	1198.35
395.65	1273.25
395.84	1153.88
396.04	1254.53
396.23	1107.07
396.42	1125.80
396.62	1109.41
396.81	1191.33
397.00	1188.99
397.19	1266.23
397.39	1275.59
397.58	1294.32
397.77	1334.11
397.97	1371.55
398.16	1352.83
398.35	1401.98
398.55	1420.71
398.74	1413.68
398.93	1404.32
399.12	1352.83
399.32	1481.56
399.51	1439.43
399.70	1507.30
399.90	1526.03
400.09	1526.03
400.28	1570.50
400.47	1509.65
400.67	1629.01
400.86	1626.67
401.05	1561.14
401.24	1664.12
401.44	1771.79
401.63	1603.27
401.82	1643.06
402.01	1703.91
402.21	1668.80
402.40	1650.08
402.59	1675.82
402.78	1757.74
402.97	1764.76
403.17	1710.93
403.36	1750.72
403.55	1783.49
403.74	1884.13
403.93	1872.43
404.13	1739.02
404.32	1680.50
404.51	1811.57
404.70	1933.28
404.89	1886.47
405.09	1905.20
405.28	1926.26
405.47	1937.96
405.66	1856.04
405.85	2040.95
406.05	1846.68
406.24	1928.60
406.43	1968.39
406.62	2001.16
406.81	2069.03
407.00	1912.22
407.20	2062.01
407.39	2005.84
407.58	2099.46
407.77	2118.18
407.96	2251.60
408.15	2153.29
408.34	2221.17
408.54	2239.89
408.73	2253.94
408.92	2277.34
409.11	2232.87
409.30	2289.04
409.49	2272.66
409.68	2307.77
409.87	2160.31
410.07	2267.98
410.26	2275.00
410.45	2289.04
410.64	2347.56
410.83	2352.24
411.02	2375.64
411.21	2509.05
411.40	2408.41
411.59	2509.05
411.78	2476.29
411.98	2532.46
412.17	2523.10
412.36	2527.78
412.55	2586.29
412.74	2670.55
412.93	2605.02
413.12	2565.23
413.31	2818.00
413.50	2860.13
413.69	2820.35
413.88	2792.26
414.07	2832.05
414.26	2820.35
414.45	2953.76
414.64	2834.39
414.83	3005.25
415.02	2949.08
415.22	3038.02
415.41	2942.05
415.60	3087.17
415.79	3042.70
415.98	3094.19
416.17	3073.12
416.36	3157.38
416.55	3131.64
416.74	3183.13
416.93	3122.27
417.12	3337.60
417.31	3171.43
417.50	3258.03
417.69	3361.01
417.88	3398.46
418.07	3328.24
418.26	3372.71
418.45	3384.41
418.64	3433.57
418.83	3489.74
419.02	3452.29
419.21	3414.84
419.39	3454.63
419.58	3506.12
419.77	3438.25
419.96	3578.68
420.15	3646.55
420.34	3524.85
420.53	3646.55
420.72	3819.75
420.91	3595.06
421.10	3726.13
421.29	3791.67
421.48	3611.45
421.67	3749.54
421.86	3730.81
422.05	3763.58
422.24	3651.24
422.43	3637.19
422.61	3709.75
422.80	3733.15
422.99	3831.46
423.18	3859.54
423.37	3971.89
423.56	3850.18
423.75	3857.20
423.94	3691.02
424.13	3723.79
424.32	3637.19
424.50	3831.46
424.69	4004.66
424.88	3843.16
425.07	3805.71
425.26	3817.41
425.45	3831.46
425.64	3763.58
425.83	3765.92
426.01	3854.86
426.20	4039.76
426.39	3967.21
426.58	3871.25
426.77	3749.54
426.96	3871.25
427.15	3808.05
427.33	3976.57
427.52	4049.13
427.71	4039.76
427.90	4051.47
428.09	4133.39
428.28	4051.47
428.46	3957.85
428.65	3981.25
428.84	4112.32
429.03	4217.65
429.22	4086.58
429.40	4077.21
429.59	4056.15
429.78	3794.01
429.97	3981.25
430.16	3981.25
430.34	3967.21
430.53	4049.13
430.72	4081.89
430.91	4070.19
431.10	4149.77
431.28	4271.48
431.47	4397.87
431.66	4540.64
431.85	4416.59
432.03	4531.28
432.22	4468.08
432.41	4472.76
432.60	4571.07
432.79	4606.17
432.97	4479.79
433.16	4624.90
433.35	4503.19
433.54	4456.38
433.72	4568.73
433.91	4697.46
434.10	4730.22
434.28	4699.80
434.47	4664.69
434.66	4842.57
434.85	4699.80
435.03	4924.49
435.22	4767.67
435.41	5067.26
435.59	4875.34
435.78	4922.15
435.97	5081.30
436.16	5025.13
436.34	5107.05
436.53	5151.52
436.72	5191.31
436.90	4950.23
437.09	5067.26
437.28	4975.98
437.46	4954.91
437.65	5008.75
437.84	4994.70
438.02	5128.11
438.21	5055.56
438.40	4968.96
438.58	5139.82
438.77	5345.78
438.96	5184.29
439.14	5572.82
439.33	5416.00
439.52	5664.10
439.70	5380.89
439.89	5565.79
440.08	5579.84
440.26	5589.20
440.45	5327.06
440.63	5717.93
440.82	5898.15
441.01	5710.91
441.19	5865.38
441.38	5884.11
441.57	5973.05
441.75	5959.00
441.94	6136.88
442.12	6005.81
442.31	6113.48
442.50	5937.94
442.68	6188.38
442.87	6085.39
443.05	6125.18
443.24	6265.61
443.43	6267.95
443.61	6251.57
443.80	6485.62
443.98	6246.89
444.17	6050.28
444.35	6359.24
444.54	6352.21
444.73	6516.05
444.91	6237.53
445.10	6249.23
445.28	6235.19
445.47	5970.71
445.65	6195.40
445.84	6403.71
446.02	6361.58
446.21	6429.45
446.39	6335.83
446.58	6588.61
446.77	6560.52
446.95	6518.39
447.14	6504.35
447.32	6455.20
447.51	6401.37
447.69	6593.29
447.88	6452.86
448.06	6551.16
448.25	6590.95
448.43	6497.33
448.62	6576.91
448.80	6553.50
448.99	6640.10
449.17	6565.20
449.36	6750.10
449.54	6832.02
449.73	6944.37
449.91	7059.06
450.10	7002.88
450.28	6949.05
450.46	7052.03
450.65	7124.59
450.83	6967.77
451.02	6899.90
451.20	6960.75
451.39	7126.93
451.57	6970.12
451.76	7122.25
451.94	7000.54
452.13	7126.93
452.31	7105.87
452.49	7002.88
452.68	7009.90
452.86	7033.31
453.05	7119.91
453.23	7241.62
453.42	7201.83
453.60	7199.49
453.78	7424.18
453.97	7005.22
454.15	7318.86
454.34	7173.74
454.52	7375.03
454.70	7375.03
454.89	7269.70
455.07	7353.96
455.26	7524.82
455.44	7517.80
455.62	7562.27
455.81	7644.19
455.99	7836.11
456.17	7698.02
456.36	7555.25
456.54	7632.49
456.73	7995.27
456.91	7920.37
457.09	7941.44
457.28	7819.73
457.46	7833.77
457.64	7726.11
457.83	7887.61
458.01	7878.24
458.19	8025.70
458.38	7847.82
458.56	7976.55
458.74	8126.34
458.93	8105.28
459.11	8219.96
459.29	7969.52
459.48	8023.36
459.66	8203.58
459.84	8168.47
460.03	8306.56
460.21	8318.26
460.39	8222.30
460.57	8219.96
460.76	8348.69
460.94	8477.42
461.12	8388.48
461.31	8519.55
461.49	8477.42
461.67	8430.61
461.85	8662.32
462.04	8606.15
462.22	9083.62
462.40	8671.68
462.59	8503.17
462.77	8549.98
462.95	8636.58
463.13	8732.54
463.32	8688.07
463.50	8561.68
463.68	8762.97
463.86	8786.37
464.05	8718.50
464.23	8608.49
464.41	8781.69
464.59	8746.58
464.78	8849.57
464.96	8863.61
465.14	8826.16
465.32	8926.80
465.50	9006.38
465.69	9020.42
465.87	9172.56
466.05	9057.87
466.23	8664.66
466.41	8919.78
466.60	9092.98
466.78	9029.79
466.96	9191.28
467.14	9095.32
467.32	9125.75
467.51	9083.62
467.69	8933.82
467.87	9418.32
468.05	9184.26
468.23	8912.76
468.41	9357.46
468.60	9191.28
468.78	9343.42
468.96	9294.27
469.14	9577.47
469.32	9472.15
469.50	9247.46
469.69	9479.17
469.87	9401.93
470.05	9851.31
470.23	9624.28
470.41	9420.66
470.59	9844.29
470.77	9657.05
470.95	9675.77
471.14	9951.96
471.32	9687.48
471.50	9977.70
471.68	9935.57
471.86	9928.55
472.04	10200.05
472.22	10457.51
472.40	10094.73
472.58	10188.35
472.77	10228.14
472.95	10279.63
473.13	10429.43
473.31	10162.61
473.49	10324.10
473.67	10228.14
473.85	10457.51
474.03	10710.29
474.21	10574.54
474.39	10761.78
474.57	10743.06
474.75	11084.78
474.93	10944.34
475.12	10846.04
475.30	10953.71
475.48	11014.56
475.66	10986.47
475.84	10991.16
476.02	11110.52
476.20	10949.03
476.38	11363.30
476.56	11709.70
476.74	11604.38
476.92	11583.31
477.10	11496.71
477.28	11810.34
477.46	11667.57
477.64	11948.43
477.82	12018.65
478.00	12252.70
478.18	12091.21
478.36	12339.30
478.54	12421.22
478.72	12470.37
478.90	12599.10
479.08	12863.58
479.26	12711.45
479.44	13050.83
479.62	12863.58
479.80	12975.93
479.98	13327.01
480.16	13247.43
480.34	13158.49
480.52	13429.99
480.70	13628.94
480.88	13472.12
481.06	13518.93
481.24	13528.30
481.41	13736.60
481.59	13781.07
481.77	14085.34
481.95	13900.44
482.13	13799.80
482.31	14279.61
482.49	14462.17
482.67	14546.43
482.85	14796.87
483.03	14813.25
483.21	14974.75
483.39	15035.60
483.57	15129.22
483.74	15351.57
483.92	15145.61
484.10	15236.89
484.28	15480.30
484.46	15704.99
484.64	16004.58
484.82	15414.77
485.00	15903.94
485.18	15960.11
485.35	16343.96
485.53	15943.73
485.71	16063.10
485.89	16135.65
486.07	16091.18
486.25	16350.98
486.43	16535.88
486.61	16510.14
486.78	16601.42
486.96	17053.14
487.14	17518.91
487.32	17425.29
487.50	17771.69
487.68	17642.96
487.85	17963.61
488.03	17741.26
488.21	18300.65
488.39	18396.61
488.57	18221.07
488.75	18586.19
488.92	18640.03
489.10	18909.19
489.28	18939.62
489.46	19183.03
489.64	19503.68
489.81	19613.69
489.99	19616.03
490.17	19688.59
490.35	19915.62
490.53	19740.08
490.70	20276.06
490.88	19964.77
491.06	20362.66
491.24	20409.47
491.41	20140.31
491.59	20510.11
491.77	20233.93
491.95	20456.28
492.13	20835.45
492.30	21231.00
492.48	21029.71
492.66	21345.69
492.84	21507.18
493.01	21617.19
493.19	21511.86
493.37	21439.31
493.54	21846.56
493.72	22068.91
493.90	22307.65
494.08	22417.65
494.25	22546.38
494.43	22686.81
494.61	22892.78
494.79	22864.69
494.96	22970.02
495.14	23131.51
495.32	23283.65
495.49	23229.82
495.67	23065.98
495.85	23676.86
496.02	23379.61
496.20	23810.27
496.38	23922.62
496.55	24093.47
496.73	24540.52
496.91	24264.33
497.09	24388.38
497.26	24912.66
497.44	24479.66
497.62	24680.95
497.79	24805.00
497.97	24482.00
498.14	25139.69
498.32	25172.46
498.50	25046.07
498.67	25509.50
498.85	25593.76
499.03	25553.97
499.20	25682.70
499.38	25816.11
499.56	25923.77
499.73	26230.38
499.91	26256.13
500.08	26024.42
500.26	26003.35
500.44	26122.72
500.61	25970.58
500.79	26132.08
500.97	26230.38
501.14	26686.79
501.32	26293.58
501.49	26466.78
501.67	26635.30
501.84	26778.07
502.02	27199.37
502.20	27154.90
502.37	27215.75
502.55	27323.41
502.72	27496.61
502.90	27475.55
503.07	27517.68
503.25	27447.46
503.43	27330.44
503.60	27674.49
503.78	27695.56
503.95	27772.80
504.13	28168.35
504.30	27992.81
504.48	27981.10
504.65	27953.02
504.83	28238.56
505.01	28367.29
505.18	28348.57
505.36	28535.81
505.53	28680.92
505.71	29046.05
505.88	29057.75
506.06	28837.74
506.23	29043.71
506.41	28936.04
506.58	29111.58
506.76	29167.76
506.93	29530.54
507.11	29303.51
507.28	29151.37
507.46	29558.63
507.63	29338.62
507.81	29628.84
507.98	29284.78
508.16	30073.54
508.33	29996.31
508.50	29905.02
508.68	30225.68
508.85	30567.40
509.03	30340.36
509.20	30747.62
509.38	30593.14
509.55	30892.73
509.73	30380.15
509.90	30897.41
510.08	30656.34
510.25	31065.93
510.42	31103.38
510.60	31087.00
510.77	31356.16
510.95	31704.90
511.12	31281.26
511.30	31477.86
511.47	31477.86
511.64	31632.34
511.82	31740.00
511.99	31847.67
512.17	31641.70
512.34	31768.09
512.51	31868.73
512.69	31908.52
512.86	32119.17
513.04	32535.79
513.21	32259.60
513.38	32327.48
513.56	32154.28
513.73	32025.55
513.90	32573.24
514.08	32460.89
514.25	32594.30
514.43	32430.46
514.60	32364.93
514.77	32720.69
514.95	33095.18
515.12	33020.28
515.29	32917.29
515.47	32863.46
515.64	33373.70
515.81	33371.36
515.99	33249.65
516.16	33109.22
516.33	33010.92
516.51	33022.62
516.68	32720.69
516.85	32701.96
517.03	32783.88
517.20	33366.68
517.37	33642.86
517.54	34153.10
517.72	33532.86
517.89	33642.86
518.06	33511.79
518.24	33682.65
518.41	33635.84
518.58	34160.12
518.75	33919.04
518.93	34045.43
519.10	33905.00
519.27	34553.33
519.45	34167.14
519.62	35044.84
519.79	34820.15
519.96	34672.70
520.14	34864.62
520.31	34691.42
520.48	34520.56
520.65	34799.08
520.83	35278.89
521.00	34869.30
521.17	35323.36
521.34	35679.13
521.52	35178.25
521.69	35438.05
521.86	35564.44
522.03	35854.67
522.20	35592.53
522.38	35857.01
522.55	35992.76
522.72	35725.94
522.89	36151.91
523.07	35868.71
523.24	36116.81
523.41	36486.61
523.58	36079.36
523.75	36837.69
523.92	36404.69
524.10	36430.44
524.27	36870.46
524.44	36411.71
524.61	36828.33
524.78	36524.06
524.96	36491.29
525.13	36971.10
525.30	37235.58
525.47	37347.93
525.64	36669.17
525.81	37340.91
525.98	36924.29
526.16	36629.38
526.33	36720.66
526.50	37001.53
526.67	36580.23
526.84	37141.96
527.01	36828.33
527.18	37401.76
527.36	37158.34
527.53	37944.76
527.70	37706.03
527.87	37354.95
528.04	37729.44
528.21	37556.24
528.38	37291.76
528.55	38181.16
528.72	37785.61
528.89	38183.50
529.07	37647.52
529.24	37794.97
529.41	38171.80
529.58	38408.19
529.75	38288.82
529.92	38389.47
530.09	38717.14
530.26	38480.75
530.43	38890.34
530.60	38391.81
530.77	38649.27
530.94	38436.28
531.11	38548.62
531.28	38445.64
531.46	38553.30
531.63	39122.05
531.80	38740.55
531.97	38909.07
532.14	38178.82
532.31	38572.03
532.48	38562.67
532.65	38740.55
532.82	39051.84
532.99	39150.14
533.16	39138.44
533.33	39056.52
533.50	39218.02
533.67	39166.52
533.84	39047.16
534.01	39168.87
534.18	39105.67
534.35	39693.15
534.52	39812.51
534.69	39917.84
534.86	39842.94
535.03	39505.90
535.20	39885.07
535.37	40158.91
535.54	40528.72
535.71	39887.41
535.88	39826.56
536.05	39838.26
536.22	39796.13
536.38	40191.68
536.55	39871.03
536.72	39992.73
536.89	39817.19
537.06	40051.25
537.23	40179.98
537.40	40392.97
537.57	40456.16
537.74	40641.06
537.91	40563.82
538.08	40428.07
538.25	40722.98
538.42	40364.88
538.59	40795.54
538.75	40465.52
538.92	40453.82
539.09	40708.94
539.26	40432.75
539.43	40629.36
539.60	40601.27
539.77	40879.80
539.94	41001.50
540.11	40664.47
540.28	40877.46
540.44	40638.72
540.61	41205.13
540.78	40582.55
540.95	40559.14
541.12	40779.15
541.29	41132.57
541.46	40973.42
541.62	41425.14
541.79	41254.28
541.96	41029.59
542.13	41130.23
542.30	41289.39
542.47	41155.98
542.63	40973.42
542.80	41310.46
542.97	41879.21
543.14	41755.16
543.31	41617.07
543.48	42150.71
543.64	42452.64
543.81	42391.78
543.98	42216.24
544.15	42082.83
544.32	42218.58
544.48	42504.13
544.65	42286.46
544.82	42389.44
544.99	42061.77
545.16	42305.18
545.32	42146.03
545.49	42239.65
545.66	42326.25
545.83	42417.53
546.00	42625.84
546.16	42628.18
546.33	42422.21
546.50	42569.66
546.67	42403.49
546.83	41825.37
547.00	42733.50
547.17	42401.14
547.34	42576.69
547.50	42738.18
547.67	42843.51
547.84	42770.95
548.00	42944.15
548.17	43075.22
548.34	42642.22
548.51	43117.35
548.67	43292.89
548.84	42859.89
549.01	42920.74
549.18	43056.50
549.34	42698.39
549.51	43426.30
549.68	43353.74
549.84	43037.77
550.01	43555.03
550.18	42895.00
550.34	43433.32
550.51	43320.98
550.68	42958.19
550.84	42892.66
551.01	43576.09
551.18	42827.12
551.34	43260.12
551.51	43819.51
551.68	43571.41
551.84	43660.35
552.01	43590.14
552.18	43447.36
552.34	43393.53
552.51	43632.27
552.68	43299.91
552.84	43906.11
553.01	43866.32
553.18	43863.98
553.34	43842.92
553.51	43533.96
553.67	43952.92
553.84	44282.94
554.01	44608.27
554.17	44626.99
554.34	43964.62
554.51	44266.55
554.67	44568.48
554.84	44128.46
555.00	43880.36
555.17	43962.28
555.33	44130.80
555.50	44247.83
555.67	43810.15
555.83	44114.42
556.00	44327.41
556.16	44385.92
556.33	44392.94
556.50	43915.47
556.66	44369.54
556.83	44273.57
556.99	44329.75
557.16	44343.79
557.32	44098.03
557.49	44512.31
557.65	44369.54
557.82	44474.86
557.98	44343.79
558.15	44128.46
558.32	44502.95
558.48	44231.44
558.65	44465.50
558.81	43955.26
558.98	43753.97
559.14	44528.69
559.31	44243.15
559.47	44133.14
559.64	44545.08
559.80	44577.84
559.97	44559.12
560.13	44385.92
560.30	44598.91
560.46	44858.71
560.63	45095.10
560.79	44847.00
560.96	44715.93
561.12	45076.38
561.29	44388.26
561.45	44521.67
561.61	44776.79
561.78	44825.94
561.94	44755.72
562.11	44350.81
562.27	44619.97
562.44	44938.29
562.60	44540.39
562.77	45059.99
562.93	44879.77
563.10	45022.54
563.26	44870.41
563.42	45186.38
563.59	44870.41
563.75	44879.77
563.92	45109.14
564.08	45074.04
564.24	45151.27
564.41	45184.04
564.57	45111.49
564.74	45209.79
564.90	45186.38
565.07	45303.41
565.23	44856.37
565.39	44875.09
565.56	44905.52
565.72	44652.74
565.88	45024.89
566.05	44762.75
566.21	44624.65
566.38	44701.89
566.54	45120.85
566.70	45558.53
566.87	45228.51
567.03	45331.50
567.19	45668.53
567.36	45390.01
567.52	45305.75
567.68	45371.28
567.85	45228.51
568.01	45287.03
568.17	45251.92
568.34	45502.35
568.50	44931.26
568.66	44931.26
568.83	45223.83
568.99	44954.67
569.15	45415.76
569.32	44975.73
569.48	45329.16
569.64	45364.26
569.81	45233.19
569.97	44767.43
570.13	45478.95
570.30	44931.26
570.46	45092.76
570.62	44617.63
570.78	44971.05
570.95	45212.13
571.11	45284.68
571.27	44610.61
571.43	45104.46
571.60	45401.71
571.76	44863.39
571.92	45518.74
572.09	45186.38
572.25	45647.47
572.41	45521.08
572.57	45429.80
572.74	45900.25
572.90	45254.26
573.06	45502.35
573.22	45502.35
573.38	45481.29
573.55	45375.97
573.71	45553.85
573.87	45329.16
574.03	45319.79
574.20	45390.01
574.36	45261.28
574.52	45315.11
574.68	45387.67
574.84	45343.20
575.01	45397.03
575.17	45595.98
575.33	44999.14
575.49	45392.35
575.65	45139.57
575.82	45556.19
575.98	45390.01
576.14	45390.01
576.30	45404.05
576.46	45315.11
576.62	45188.72
576.79	45326.81
576.95	45212.13
577.11	45242.56
577.27	45464.91
577.43	45382.99
577.59	45041.27
577.75	45415.76
577.92	45113.83
578.08	45471.93
578.24	45392.35
578.40	45029.57
578.56	45914.29
578.72	45343.20
578.88	45551.51
579.04	45357.24
579.21	45422.78
579.37	45294.05
579.53	45141.91
579.69	45230.85
579.85	45301.07
580.01	45734.07
580.17	45277.66
580.33	45022.54
580.49	45532.78
580.65	45088.08
580.82	45771.52
580.98	45067.02
581.14	45099.78
581.30	46263.03
581.46	45530.44
581.62	45584.27
581.78	45418.10
581.94	45813.65
582.10	45490.65
582.26	45387.67
582.42	45661.51
582.58	45659.17
582.74	45221.49
582.90	45773.86
583.06	45911.95
583.22	45518.74
583.38	45670.87
583.54	45439.16
583.70	45347.88
583.86	45478.95
584.02	45925.99
584.18	45401.71
584.34	45661.51
584.50	46078.13
584.66	45546.82
584.82	45373.63
584.98	45731.73
585.14	45933.01
585.30	45830.03
585.46	45694.28
585.62	45322.13
585.78	45471.93
585.94	45329.16
586.10	45186.38
586.26	45258.94
586.42	45710.66
586.58	45673.21
586.74	45666.19
586.90	45743.43
587.06	45399.37
587.22	45851.09
587.38	45448.52
587.54	45851.09
587.70	45757.47
587.86	45352.56
588.02	45778.54
588.18	45668.53
588.34	45385.33
588.49	45219.15
588.65	45057.65
588.81	45390.01
588.97	45088.08
589.13	44832.96
589.29	45162.98
589.45	45338.52
589.61	45481.29
589.77	45954.08
589.93	45874.50
590.08	45584.27
590.24	45762.15
590.40	45553.85
590.56	45612.36
590.72	45659.17
590.88	45387.67
591.04	45532.78
591.20	46258.35
591.35	46026.63
591.51	46064.08
591.67	45930.67
591.83	45413.41
591.99	45790.24
592.15	45661.51
592.31	46012.59
592.46	46007.91
592.62	45787.90
592.78	45876.84
592.94	45565.55
593.10	46218.56
593.26	45855.78
593.41	46253.67
593.57	45118.51
593.73	45207.45
593.89	45745.77
594.05	45900.25
594.20	45879.18
594.36	45855.78
594.52	45883.86
594.68	45879.18
594.84	45600.66
594.99	46045.36
595.15	45682.58
595.31	45481.29
595.47	46260.69
595.62	45860.46
595.78	45928.33
595.94	45677.90
596.10	45876.84
596.25	45556.19
596.41	45626.40
596.57	45422.78
596.73	45771.52
596.88	45577.25
597.04	45823.01
597.20	45684.92
597.36	45684.92
597.51	45846.41
597.67	45635.77
597.83	45652.15
597.99	46476.02
598.14	45937.69
598.30	45663.85
598.46	45750.45
598.61	45769.18
598.77	45303.41
598.93	45825.35
599.09	45832.37
599.24	45935.35
599.40	45968.12
599.56	45965.78
599.71	45647.47
599.87	45834.71
600.03	45996.21
600.18	45610.02
600.34	45691.94
600.50	45666.19
600.65	45439.16
600.81	46036.00
600.97	45965.78
601.12	46010.25
601.28	45677.90
601.44	45588.95
601.59	45649.81
601.75	45572.57
601.91	45841.73
602.06	45464.91
602.22	45933.01
602.37	45853.44
602.53	46026.63
602.69	45787.90
602.84	45621.72
603.00	45521.08
603.16	45851.09
603.31	45844.07
603.47	45804.28
603.62	45640.45
603.78	45804.28
603.94	45972.80
604.09	46033.66
604.25	45907.27
604.40	45834.71
604.56	45734.07
604.71	45853.44
604.87	45762.15
605.03	45668.53
605.18	45717.68
605.34	45647.47
605.49	45670.87
605.65	45972.80
605.80	45565.55
605.96	45839.39
606.12	45851.09
606.27	45785.56
606.43	45099.78
606.58	45390.01
606.74	45968.12
606.89	45874.50
607.05	45743.43
607.20	45778.54
607.36	45794.92
607.51	45677.90
607.67	45488.31
607.82	45118.51
607.98	45558.53
608.13	45254.26
608.29	44971.05
608.44	45347.88
608.60	45008.50
608.75	45567.89
608.91	45382.99
609.06	45492.99
609.22	45481.29
609.37	45317.45
609.53	45195.74
609.68	44933.60
609.84	45216.81
609.99	45507.04
610.15	45141.91
610.30	44816.58
610.46	45146.59
610.61	45221.49
610.76	45425.12
610.92	45537.46
611.07	45186.38
611.23	45137.23
611.38	45469.59
611.54	44818.92
611.69	44776.79
611.84	44575.50
612.00	44905.52
612.15	44964.03
612.31	45113.83
612.46	44865.73
612.62	44933.60
612.77	44741.68
612.92	45062.33
613.08	44856.37
613.23	44928.92
613.39	45013.18
613.54	44186.97
613.69	44470.18
613.85	44748.70
614.00	44786.15
614.15	44947.65
614.31	44027.82
614.46	44870.41
614.62	44809.56
614.77	44376.56
614.92	44875.09
615.08	44542.74
615.23	44430.39
615.38	44062.93
615.54	44788.49
615.69	44158.89
615.84	44505.29
616.00	44669.12
616.15	44406.98
616.30	44582.52
616.46	44751.04
616.61	44196.34
616.76	44065.27
616.92	43746.95
617.07	44350.81
617.22	43934.20
617.37	44210.38
617.53	44261.87
617.68	44355.49
617.83	44006.75
617.99	44222.08
618.14	44184.63
618.29	43943.56
618.45	43791.42
618.60	43718.87
618.75	43910.79
618.90	43824.19
619.06	44016.11
619.21	44037.18
619.36	43941.22
619.51	43761.00
619.67	43924.83
619.82	43751.63
619.97	43346.72
620.12	43573.75
620.28	42784.99
620.43	43402.89
620.58	43655.67
620.73	43552.69
620.89	43459.07
621.04	43753.97
621.19	43826.53
621.34	43948.24
621.49	43068.20
621.65	43653.33
621.80	43681.42
621.95	43393.53
622.10	43552.69
622.25	43416.94
622.41	43650.99
622.56	43632.27
622.71	43438.00
622.86	43335.02
623.01	43466.09
623.16	43288.21
623.32	42995.64
623.47	43304.59
623.62	43227.35
623.77	43421.62
623.92	43285.87
624.07	42941.81
624.23	42773.29
624.38	42745.20
624.53	42808.40
624.68	42972.24
624.83	42862.23
624.98	42843.51
625.13	42857.55
625.29	42639.88
625.44	42583.71
625.59	42969.90
625.74	42532.22
625.89	42288.80
626.04	42433.91
626.19	42841.17
626.34	42749.88
626.49	43117.35
626.65	42576.69
626.80	42761.59
626.95	42241.99
627.10	42169.43
627.25	42356.67
627.40	42452.64
627.55	42302.84
627.70	41933.04
627.85	42342.63
628.00	42464.34
628.15	42251.35
628.30	42019.64
628.45	42251.35
628.60	42333.27
628.76	42256.03
628.91	41860.48
629.06	41787.92
629.21	42007.94
629.36	41846.44
629.51	41888.57
629.66	41605.36
629.81	41755.16
629.96	41638.13
630.11	42014.96
630.26	42178.79
630.41	42064.11
630.56	41359.61
630.71	41647.49
630.86	42117.94
631.01	41745.80
631.16	41464.93
631.31	41317.48
631.46	41277.69
631.61	41874.52
631.76	41633.45
631.91	41645.15
632.06	42085.17
632.21	41727.07
632.36	41556.21
632.51	41071.72
632.66	41284.71
632.81	40959.38
632.96	41160.66
633.10	41106.83
633.25	41904.95
633.40	41937.72
633.55	41684.94
633.70	41755.16
633.85	41024.91
634.00	41359.61
634.15	41350.24
634.30	40652.76
634.45	40877.46
634.60	41193.43
634.75	41024.91
634.90	40741.71
635.05	40996.82
635.19	40952.35
635.34	41228.54
635.49	41141.94
635.64	40961.72
635.79	40652.76
635.94	41027.25
636.09	40388.28
636.24	40882.14
636.39	40243.17
636.53	40980.44
636.68	40334.45
636.83	40348.50
636.98	40493.61
637.13	40552.12
637.28	41092.79
637.43	40772.13
637.57	40989.80
637.72	40718.30
637.87	40275.94
638.02	41081.08
638.17	41275.35
638.32	40062.95
638.46	40662.13
638.61	40250.19
638.76	40053.59
638.91	40404.67
639.06	40142.53
639.20	40701.92
639.35	40388.28
639.50	40116.78
639.65	40407.01
639.80	40444.46
639.94	39672.08
640.09	40240.83
640.24	40217.43
640.39	39700.17
640.54	39856.98
640.68	39971.67
640.83	40086.36
640.98	39655.70
641.13	39590.16
641.27	40315.73
641.42	40055.93
641.57	40044.23
641.72	40231.47
641.86	40112.10
642.01	39274.19
642.16	39536.33
642.31	39782.09
642.45	39601.86
642.60	39711.87
642.75	39744.64
642.90	39723.57
643.04	39569.10
643.19	39622.93
643.34	39344.41
643.48	39447.39
643.63	39239.08
643.78	39386.54
643.93	39819.53
644.07	39339.72
644.22	39402.92
644.37	39185.25
644.51	39339.72
644.66	39414.62
644.81	39276.53
644.95	39407.60
645.10	39421.64
645.25	39440.37
645.39	39126.74
645.54	38752.25
645.69	39199.29
645.83	38820.13
645.98	38974.60
646.13	38780.34
646.27	38918.43
646.42	39112.69
646.57	38871.62
646.71	39065.88
646.86	39232.06
647.00	39147.80
647.15	38714.80
647.30	38756.93
647.44	38923.11
647.59	38780.34
647.74	38455.00
647.88	39014.39
648.03	38939.49
648.17	38480.75
648.32	38359.04
648.47	38206.90
648.61	38515.86
648.76	38796.72
648.90	38663.31
649.05	38593.09
649.20	38586.07
649.34	38586.07
649.49	38300.53
649.63	38698.42
649.78	38747.57
649.92	38134.35
650.07	38518.20
650.21	38384.79
650.36	38197.54
650.51	38494.79
650.65	38766.29
650.80	38436.28
650.94	38724.16
651.09	38370.74
651.23	37638.15
651.38	37792.63
651.52	37640.50
651.67	37989.24
651.81	38223.29
651.96	37535.17
652.10	38029.02
652.25	38101.58
652.39	37680.28
652.54	38422.23
652.68	37677.94
652.83	38059.45
652.97	38150.73
653.12	38345.00
653.26	37572.62
653.41	37610.07
653.55	38036.05
653.70	37998.60
653.84	37708.37
653.99	37820.72
654.13	37535.17
654.27	37563.26
654.42	37577.30
654.56	37935.40
654.71	37961.15
654.85	37914.34
655.00	37736.46
655.14	37411.12
655.29	37553.90
655.43	36999.19
655.57	37116.22
655.72	37530.49
655.86	36795.56
656.01	36795.56
656.15	36346.18
656.30	36657.47
656.44	37010.89
656.58	36877.48
656.73	36664.49
656.87	36861.10
657.01	37179.41
657.16	36856.42
657.30	36727.69
657.45	36673.85
657.59	36535.76
657.73	36610.66
657.88	36631.72
658.02	36999.19
658.16	36952.38
658.31	36605.98
658.45	37090.47
658.60	36538.10
658.74	36959.40
658.88	36914.93
659.03	36290.01
659.17	36334.48
659.31	36503.00
659.46	36074.68
659.60	36514.70
659.74	36329.80
659.89	36060.63
660.03	35880.41
660.17	36982.80
660.32	36706.62
660.46	36711.30
660.60	35929.56
660.74	36318.09
660.89	36318.09
661.03	35819.56
661.17	36142.55
661.32	35997.44
661.46	35714.23
661.60	35491.88
661.74	35442.73
661.89	35475.50
662.03	35543.38
662.17	35892.12
662.31	35936.59
662.46	36423.42
662.60	35620.61
662.74	35489.54
662.88	35505.93
663.03	35136.12
663.17	35463.80
663.31	34873.98
663.45	35126.76
663.60	35335.07
663.74	35126.76
663.88	34993.35
664.02	34876.32
664.17	35112.72
664.31	35220.38
664.45	34932.50
664.59	34960.58
664.73	34897.39
664.88	34972.28
665.02	34099.26
665.16	34668.02
665.30	34527.58
665.44	33860.53
665.59	34265.44
665.73	34113.31
665.87	34146.08
666.01	34061.82
666.15	34403.53
666.29	34335.66
666.44	34270.12
666.58	34326.30
666.72	34237.36
666.86	33930.75
667.00	33759.89
667.14	34059.48
667.28	33811.38
667.43	33752.87
667.57	33982.24
667.71	33589.03
667.85	33795.00
667.99	33872.23
668.13	33748.18
668.27	33832.44
668.41	33724.78
668.56	33282.42
668.70	33050.70
668.84	33259.01
668.98	33244.97
669.12	33085.81
669.26	33177.09
669.40	32680.90
669.54	32849.42
669.68	32772.18
669.82	32699.62
669.96	32779.20
670.10	32364.93
670.25	33067.09
670.39	32863.46
670.53	32332.16
670.67	32538.13
670.81	32652.81
670.95	32301.73
671.09	32496.00
671.23	32142.58
671.37	32154.28
671.51	31978.74
671.65	31995.12
671.79	31751.71
671.93	31878.10
672.07	31674.47
672.21	31831.29
672.35	31512.97
672.49	32243.22
672.63	31718.94
672.77	31585.53
672.91	31447.44
673.05	31459.14
673.19	31679.15
673.33	31288.28
673.47	31360.84
673.61	31079.97
673.75	30958.27
673.89	30735.92
674.03	31037.84
674.17	31117.42
674.31	30749.96
674.45	30733.57
674.59	31047.21
674.73	31204.02
674.87	30946.56
675.01	30904.43
675.15	30384.83
675.29	30286.53
675.43	30321.64
675.56	30497.18
675.70	30125.04
675.84	30216.32
675.98	29404.15
676.12	30209.29
676.26	30253.76
676.40	30094.61
676.54	29696.72
676.68	29673.31
676.82	29083.50
676.96	29701.40
677.10	29549.26
677.23	29575.01
677.37	29170.10
677.51	29237.97
677.65	29013.28
677.79	28680.92
677.93	28493.68
678.07	28739.44
678.21	28446.87
678.34	28130.90
678.48	28112.17
678.62	28240.90
678.76	28123.88
678.90	28201.11
679.04	28521.77
679.18	28173.03
679.31	27775.14
679.45	27641.73
679.59	27824.29
679.73	28105.15
679.87	27740.03
680.00	27564.49
680.14	27424.06
680.28	27276.60
680.42	27367.88
680.56	27388.95
680.70	27498.95
680.83	26913.82
680.97	26897.44
681.11	27332.78
681.25	26944.25
681.39	27096.38
681.52	26555.72
681.66	26787.43
681.80	26354.43
681.94	26387.20
682.07	26064.21
682.21	25921.43
682.35	25851.22
682.49	26199.96
682.62	26059.52
682.76	25722.49
682.90	25933.14
683.04	26368.48
683.17	25399.49
683.31	25776.32
683.45	25586.74
683.59	25551.63
683.72	25635.89
683.86	25544.61
684.00	25397.15
684.13	24954.79
684.27	24662.22
684.41	25050.75
684.55	24823.72
684.68	24797.98
684.82	24479.66
684.96	24580.31
685.09	24673.93
685.23	24477.32
685.37	24439.87
685.50	24556.90
685.64	24311.14
685.78	24095.82
685.91	24093.47
686.05	23903.89
686.19	23728.35
686.32	23744.73
686.46	23634.73
686.60	22918.53
686.73	22724.26
686.87	22796.82
687.01	23080.02
687.14	22951.29
687.28	22937.25
687.42	22539.36
687.55	23026.19
687.69	22871.72
687.82	22946.61
687.96	22689.15
688.10	22607.23
688.23	22569.79
688.37	22185.94
688.50	22567.45
688.64	22682.13
688.78	22136.79
688.91	21781.03
689.05	22087.64
689.18	21785.71
689.32	21858.26
689.46	21830.18
689.59	21975.29
689.73	21752.94
689.86	21355.05
690.00	21205.25
690.13	21649.96
690.27	21167.80
690.41	21069.50
690.54	20886.94
690.68	21191.21
690.81	21034.39
690.95	20676.29
691.08	21022.69
691.22	20627.14
691.35	21027.37
691.49	20739.49
691.62	20727.78
691.76	21090.57
691.89	20601.40
692.03	20498.41
692.16	20205.84
692.30	20053.71
692.43	19964.77
692.57	20182.44
692.70	19950.73
692.84	19789.23
692.97	19658.16
693.11	19499.00
693.24	19510.71
693.38	19452.19
693.51	19374.95
693.65	19433.47
693.78	19719.01
693.92	19119.84
694.05	19370.27
694.19	19452.19
694.32	19482.62
694.45	19234.52
694.59	19112.81
694.72	18974.72
694.86	18707.90
694.99	18572.15
695.13	18654.07
695.26	18525.34
695.39	18518.32
695.53	18319.37
695.66	18698.54
695.80	18441.08
695.93	18087.66
696.07	17984.68
696.20	18176.60
696.33	18090.00
696.47	17776.37
696.60	17872.33
696.73	17830.20
696.87	17612.53
697.00	17399.54
697.14	17596.15
697.27	17336.35
697.40	17530.61
697.54	17055.48
697.67	17090.59
697.80	17209.96
697.94	17032.08
698.07	16849.52
698.21	17020.38
698.34	17020.38
698.47	16861.22
698.61	16496.10
698.74	16582.70
698.87	16636.53
699.01	16145.02
699.14	16114.59
699.27	16269.06
699.40	16320.56
699.54	15892.24
699.67	16042.03
699.80	15714.36
699.94	15955.43
700.07	16058.42
700.20	15812.66
700.34	15847.77
700.47	15627.76
700.60	15847.77
700.73	15721.38
700.87	15641.80
701.00	15681.59
701.13	15307.10
701.26	15211.14
701.40	15180.71
701.53	14995.81
701.66	15131.56
701.79	14773.46
701.93	14740.69
702.06	14846.02
702.19	14698.56
702.32	14759.42
702.46	15084.75
702.59	14810.91
702.72	14478.55
702.85	14626.01
702.99	14682.18
703.12	14520.68
703.25	14101.73
703.38	14443.45
703.51	14239.82
703.65	14097.05
703.78	13862.99
703.91	13650.00
704.04	14031.51
704.17	13928.53
704.31	13713.20
704.44	13626.60
704.57	13837.25
704.70	13458.08
704.83	13551.70
704.96	13610.22
705.10	13486.17
705.23	13394.89
>>>>>End Processed Spectral Data<<<<<
