SpectraSuite Data File
++++++++++++++++++++++++++++++++++++
Date: Fri Oct 25 10:48:13 EDT 2013
User: price-jones
Dark Spectrum Present: No
Reference Spectrum Present: No
Number of Sampled Component Spectra: 1
Spectrometers: USB2+H05261
Integration Time (usec): 100000 (USB2+H05261)
Spectra Averaged: 1 (USB2+H05261)
Boxcar Smoothing: 0 (USB2+H05261)
Correct for Electrical Dark: No (USB2+H05261)
Strobe/Lamp Enabled: No (USB2+H05261)
Correct for Detector Non-linearity: No (USB2+H05261)
Correct for Stray Light: No (USB2+H05261)
Number of Pixels in Processed Spectrum: 2048
>>>>>Begin Processed Spectral Data<<<<<
365.73	74.90
365.92	74.90
366.12	74.90
366.32	124.05
366.52	79.58
366.72	86.60
366.91	65.54
367.11	126.39
367.31	23.41
367.51	39.79
367.70	39.79
367.90	67.88
368.10	95.96
368.30	67.88
368.49	56.17
368.69	93.62
368.89	35.11
369.09	88.94
369.28	84.26
369.48	65.54
369.68	60.85
369.87	135.75
370.07	46.81
370.27	131.07
370.47	191.92
370.66	327.68
370.86	383.85
371.06	458.74
371.25	470.45
371.45	535.98
371.65	472.79
371.84	465.77
372.04	463.43
372.24	435.34
372.44	463.43
372.63	484.49
372.83	435.34
373.03	521.94
373.22	521.94
373.42	580.45
373.62	592.16
373.81	566.41
374.01	486.83
374.21	599.18
374.40	519.60
374.60	566.41
374.79	587.47
374.99	557.05
375.19	613.22
375.38	660.03
375.58	580.45
375.78	545.34
375.97	631.94
376.17	634.29
376.37	564.07
376.56	592.16
376.76	606.20
376.95	571.09
377.15	617.90
377.35	606.20
377.54	650.67
377.74	624.92
377.93	608.54
378.13	631.94
378.33	678.76
378.52	594.50
378.72	688.12
378.91	587.47
379.11	648.33
379.31	692.80
379.50	561.73
379.70	688.12
379.89	664.71
380.09	631.94
380.28	603.86
380.48	688.12
380.68	636.63
380.87	678.76
381.07	678.76
381.26	634.29
381.46	617.90
381.65	702.16
381.85	713.86
382.04	770.04
382.24	777.06
382.43	798.12
382.63	631.94
382.83	702.16
383.02	727.91
383.22	676.41
383.41	711.52
383.61	784.08
383.80	727.91
384.00	758.33
384.19	718.54
384.39	795.78
384.58	849.61
384.78	870.68
384.97	791.10
385.17	798.12
385.36	718.54
385.56	802.80
385.75	758.33
385.95	777.06
386.14	809.83
386.34	805.14
386.53	741.95
386.72	807.48
386.92	873.02
387.11	837.91
387.31	851.96
387.50	793.44
387.70	781.74
387.89	814.51
388.09	882.38
388.28	840.25
388.48	821.53
388.67	968.98
388.86	919.83
389.06	851.96
389.25	929.19
389.45	954.94
389.64	912.81
389.84	840.25
390.03	950.26
390.22	971.32
390.42	938.55
390.61	889.40
390.81	931.53
391.00	912.81
391.19	992.39
391.39	922.17
391.58	973.66
391.78	1046.22
391.97	1022.81
392.16	990.05
392.36	985.37
392.55	968.98
392.75	971.32
392.94	978.34
393.13	922.17
393.33	947.92
393.52	1060.26
393.71	1022.81
393.91	1043.88
394.10	978.34
394.29	1050.90
394.49	1022.81
394.68	1093.03
394.88	1149.20
395.07	1151.54
395.26	1158.57
395.46	1060.26
395.65	1177.29
395.84	1109.41
396.04	1100.05
396.23	1179.63
396.42	1041.54
396.62	1057.92
396.81	1179.63
397.00	1144.52
397.19	1095.37
397.39	1214.74
397.58	1196.01
397.77	1219.42
397.97	1329.42
398.16	1294.32
398.35	1301.34
398.55	1273.25
398.74	1320.06
398.93	1373.89
399.12	1308.36
399.32	1284.95
399.51	1277.93
399.70	1320.06
399.90	1397.30
400.09	1444.11
400.28	1451.13
400.47	1469.86
400.67	1394.96
400.86	1500.28
401.05	1387.94
401.24	1434.75
401.44	1537.73
401.63	1535.39
401.82	1472.20
402.01	1420.71
402.21	1544.75
402.40	1533.05
402.59	1596.25
402.78	1514.33
402.97	1614.97
403.17	1689.87
403.36	1509.65
403.55	1650.08
403.74	1636.03
403.93	1729.66
404.13	1699.23
404.32	1659.44
404.51	1760.08
404.70	1694.55
404.89	1715.61
405.09	1797.53
405.28	1732.00
405.47	1717.95
405.66	1818.60
405.85	1783.49
406.05	1767.10
406.24	1767.10
406.43	1785.83
406.62	1872.43
406.81	1860.73
407.00	1783.49
407.20	1823.28
407.39	1877.11
407.58	1879.45
407.77	1834.98
407.96	1961.37
408.15	2008.18
408.34	1905.20
408.54	2010.52
408.73	2080.74
408.92	2078.40
409.11	2092.44
409.30	2172.02
409.49	2073.71
409.68	2026.90
409.87	1977.75
410.07	2143.93
410.26	2165.00
410.45	2083.08
410.64	2101.80
410.83	2223.51
411.02	2246.91
411.21	2296.07
411.40	2298.41
411.59	2258.62
411.78	2263.30
411.98	2282.02
412.17	2347.56
412.36	2331.17
412.55	2448.20
412.74	2340.54
412.93	2509.05
413.12	2518.42
413.31	2567.57
413.50	2527.78
413.69	2457.56
413.88	2633.10
414.07	2544.16
414.26	2558.21
414.45	2708.00
414.64	2532.46
414.83	2649.49
415.02	2640.12
415.22	2752.47
415.41	2733.75
415.60	2846.09
415.79	2810.98
415.98	2841.41
416.17	2918.65
416.36	2827.37
416.55	2864.82
416.74	2888.22
416.93	2867.16
417.12	2951.42
417.31	2944.39
417.50	3119.93
417.69	3002.91
417.88	3045.04
418.07	2974.82
418.26	3063.76
418.45	3185.47
418.64	3241.64
418.83	3084.83
419.02	3187.81
419.21	3269.73
419.39	3194.83
419.58	3236.96
419.77	3169.09
419.96	3225.26
420.15	3276.75
420.34	3258.03
420.53	3372.71
420.72	3361.01
420.91	3311.86
421.10	3471.01
421.29	3438.25
421.48	3344.63
421.67	3445.27
421.86	3295.47
422.05	3485.06
422.24	3538.89
422.43	3375.05
422.61	3543.57
422.80	3482.72
422.99	3658.26
423.18	3564.64
423.37	3576.34
423.56	3494.42
423.75	3524.85
423.94	3557.61
424.13	3417.18
424.32	3363.35
424.50	3653.58
424.69	3588.04
424.88	3630.17
425.07	3534.21
425.26	3508.46
425.45	3456.97
425.64	3431.23
425.83	3653.58
426.01	3632.51
426.20	3620.81
426.39	3681.66
426.58	3634.85
426.77	3534.21
426.96	3702.73
427.15	3566.98
427.33	3815.07
427.52	3728.47
427.71	3709.75
427.90	3852.52
428.09	3803.37
428.28	3847.84
428.46	3866.56
428.65	3871.25
428.84	3939.12
429.03	3918.06
429.22	3796.35
429.40	3775.28
429.59	3747.20
429.78	3578.68
429.97	3660.60
430.16	3772.94
430.34	3852.52
430.53	3812.73
430.72	3901.67
430.91	3817.41
431.10	3955.51
431.28	4170.83
431.47	4095.94
431.66	4180.20
431.85	4196.58
432.03	4180.20
432.22	4119.34
432.41	4234.03
432.60	4269.14
432.79	4248.07
432.97	4278.50
433.16	4255.09
433.35	4095.94
433.54	4311.27
433.72	4351.06
433.91	4222.33
434.10	4304.25
434.28	4404.89
434.47	4500.85
434.66	4402.55
434.85	4372.12
435.03	4479.79
435.22	4510.21
435.41	4739.58
435.59	4650.64
435.78	4564.04
435.97	4613.20
436.16	4514.89
436.34	4652.98
436.53	4592.13
436.72	4725.54
436.90	4561.70
437.09	4566.39
437.28	4727.88
437.46	4643.62
437.65	4812.14
437.84	4702.14
438.02	4767.67
438.21	4908.10
438.40	4706.82
438.58	4772.35
438.77	5062.58
438.96	4990.02
439.14	4994.70
439.33	5032.15
439.52	4983.00
439.70	5041.51
439.89	5088.32
440.08	5320.04
440.26	5320.04
440.45	5111.73
440.63	5207.69
440.82	5479.19
441.01	5313.02
441.19	5490.90
441.38	5444.09
441.57	5462.81
441.75	5568.13
441.94	5654.73
442.12	5633.67
442.31	5762.40
442.50	5678.14
442.68	5710.91
442.87	5776.44
443.05	5589.20
443.24	5809.21
443.43	5776.44
443.61	5764.74
443.80	5830.27
443.98	5832.62
444.17	5731.97
444.35	5846.66
444.54	6010.50
444.73	5853.68
444.91	5947.30
445.10	5870.06
445.28	5994.11
445.47	5764.74
445.65	5858.36
445.84	6064.33
446.02	6120.50
446.21	5795.17
446.39	6022.20
446.58	6019.86
446.77	6033.90
446.95	5895.81
447.14	6113.48
447.32	6052.63
447.51	5989.43
447.69	5937.94
447.88	5998.79
448.06	6167.31
448.25	5935.60
448.43	6017.52
448.62	6094.76
448.80	6050.28
448.99	6148.59
449.17	6328.81
449.36	6052.63
449.54	6132.20
449.73	6317.11
449.91	6284.34
450.10	6485.62
450.28	6504.35
450.46	6558.18
450.65	6565.20
450.83	6579.25
451.02	6506.69
451.20	6513.71
451.39	6518.39
451.57	6455.20
451.76	6504.35
451.94	6637.76
452.13	6562.86
452.31	6562.86
452.49	6457.54
452.68	6640.10
452.86	6597.97
453.05	6654.14
453.23	6574.56
453.42	6466.90
453.60	6626.06
453.78	6644.78
453.97	6509.03
454.15	6628.40
454.34	6686.91
454.52	6853.09
454.70	6801.60
454.89	6817.98
455.07	6984.16
455.26	6991.18
455.44	6988.84
455.62	7126.93
455.81	7037.99
455.99	7016.93
456.17	7087.14
456.36	7157.36
456.54	7283.75
456.73	7077.78
456.91	7265.02
457.09	7424.18
457.28	7276.73
457.46	7307.15
457.64	7480.35
457.83	7087.14
458.01	7311.83
458.19	7431.20
458.38	7274.38
458.56	7529.50
458.74	7756.54
458.93	7435.88
459.11	7447.58
459.29	7634.83
459.48	7377.37
459.66	7456.95
459.84	7602.06
460.03	7791.64
460.21	7822.07
460.39	7712.07
460.57	7639.51
460.76	7761.22
460.94	7943.78
461.12	7660.57
461.31	7918.03
461.49	7934.42
461.67	7805.69
461.85	8166.13
462.04	7831.43
462.22	8428.27
462.40	7981.23
462.59	8016.33
462.77	8046.76
462.95	8224.64
463.13	8159.11
463.32	8065.49
463.50	8212.94
463.68	8320.60
463.86	8402.52
464.05	7964.84
464.23	8042.08
464.41	8210.60
464.59	8002.29
464.78	8248.05
464.96	8297.20
465.14	8311.24
465.32	8465.72
465.50	8397.84
465.69	8442.31
465.87	8458.70
466.05	8397.84
466.23	8290.18
466.41	8346.35
466.60	8533.59
466.78	8353.37
466.96	8437.63
467.14	8402.52
467.32	8683.39
467.51	8748.92
467.69	8292.52
467.87	8599.13
468.05	8571.04
468.23	8603.81
468.41	8603.81
468.60	8739.56
468.78	8791.05
468.96	8446.99
469.14	8971.27
469.32	8849.57
469.50	8730.20
469.69	8830.84
469.87	9027.45
470.05	8912.76
470.23	9039.15
470.41	8765.31
470.59	9074.26
470.77	9125.75
470.95	9177.24
471.14	9188.94
471.32	9020.42
471.50	9324.69
471.68	9280.22
471.86	9404.27
472.04	9401.93
472.22	9743.65
472.40	9308.31
472.58	9432.36
472.77	9598.54
472.95	9647.69
473.13	10183.67
473.31	9640.67
473.49	9600.88
473.67	9542.36
473.85	9708.54
474.03	9853.66
474.21	10008.13
474.39	10104.09
474.57	9958.98
474.75	10228.14
474.93	10136.86
475.12	10258.57
475.30	10263.25
475.48	10513.69
475.66	10150.90
475.84	10310.06
476.02	10307.72
476.20	10672.84
476.38	10441.13
476.56	10771.15
476.74	10640.08
476.92	10581.56
477.10	10766.46
477.28	11047.33
477.46	10923.28
477.64	11318.83
477.82	11145.63
478.00	11655.87
478.18	11433.52
478.36	11595.01
478.54	11695.66
478.72	11566.93
478.90	11779.92
479.08	11805.66
479.26	12173.13
479.44	12051.42
479.62	12159.08
479.80	12252.70
479.98	12226.96
480.16	12437.61
480.34	12414.20
480.52	12402.50
480.70	12585.06
480.88	12374.41
481.06	12636.55
481.24	12884.65
481.41	12926.78
481.59	13163.17
481.77	13046.15
481.95	13231.05
482.13	13343.39
482.31	13401.91
482.49	13572.77
482.67	13509.57
482.85	13748.31
483.03	14104.07
483.21	13795.12
483.39	14031.51
483.57	13886.40
483.74	14279.61
483.92	14469.19
484.10	14312.38
484.28	14415.36
484.46	14764.10
484.64	14991.13
484.82	14707.93
485.00	14988.79
485.18	15131.56
485.35	15253.27
485.53	14764.10
485.71	15374.98
485.89	15236.89
486.07	15405.41
486.25	15620.74
486.43	15632.44
486.61	15765.85
486.78	15887.56
486.96	16418.86
487.14	16294.81
487.32	16414.18
487.50	16301.83
487.68	16535.88
487.85	16861.22
488.03	17062.51
488.21	17156.13
488.39	17209.96
488.57	16968.88
488.75	17467.42
488.92	17422.95
489.10	18059.57
489.28	18087.66
489.46	18073.62
489.64	18113.41
489.81	18593.22
489.99	18375.55
490.17	18855.36
490.35	18874.08
490.53	18787.48
490.70	18876.42
490.88	18567.47
491.06	19372.61
491.24	19171.33
491.41	19173.67
491.59	19274.31
491.77	19417.08
491.95	19510.71
492.13	19711.99
492.30	19707.31
492.48	19915.62
492.66	19721.35
492.84	20224.57
493.01	20264.36
493.19	20662.25
493.37	20760.55
493.54	20772.25
493.72	20821.41
493.90	20858.85
494.08	21205.25
494.25	21263.77
494.43	21188.87
494.61	21572.72
494.79	21621.87
494.96	21556.33
495.14	21804.43
495.32	21610.17
495.49	21874.65
495.67	22094.66
495.85	22068.91
496.02	22382.54
496.20	22658.73
496.38	22225.73
496.55	22565.10
496.73	23201.73
496.91	22539.36
497.09	23075.34
497.26	23047.26
497.44	23447.49
497.62	23374.93
497.79	23414.72
497.97	23351.52
498.14	23480.25
498.32	23843.04
498.50	23819.63
498.67	24121.56
498.85	23962.40
499.03	24350.93
499.20	24142.63
499.38	24329.87
499.56	24386.04
499.73	24414.13
499.91	24439.87
500.08	24840.11
500.26	24751.17
500.44	24826.06
500.61	24582.65
500.79	24634.14
500.97	25207.57
501.14	25394.81
501.32	25305.87
501.49	25308.21
501.67	25149.06
501.84	25502.48
502.02	25359.70
502.20	25743.55
502.37	25902.71
502.55	26146.12
502.72	26064.21
502.90	26195.28
503.07	25989.31
503.25	25975.27
503.43	26183.57
503.60	26412.95
503.78	26363.79
503.95	26455.08
504.13	26492.52
504.30	26813.18
504.48	26693.81
504.65	26656.36
504.83	26979.36
505.01	26874.03
505.18	27309.37
505.36	27285.97
505.53	27227.45
505.71	27749.39
505.88	27850.03
506.06	27311.71
506.23	27445.12
506.41	27845.35
506.58	27711.94
506.76	27889.82
506.93	28095.79
507.11	28184.73
507.28	27747.05
507.46	28180.05
507.63	28360.27
507.81	28224.52
507.98	28126.22
508.16	28163.67
508.33	28393.04
508.50	28648.16
508.68	28636.45
508.85	28650.50
509.03	28952.43
509.20	29083.50
509.38	28924.34
509.55	29291.80
509.73	29432.24
509.90	29392.45
510.08	29418.19
510.25	29345.64
510.42	29434.58
510.60	29350.32
510.77	30122.69
510.95	29895.66
511.12	30015.03
511.30	29860.55
511.47	29956.52
511.64	30356.75
511.82	30429.30
511.99	30146.10
512.17	30735.92
512.34	30206.95
512.51	30417.60
512.69	30806.13
512.86	30466.75
513.04	31033.16
513.21	30871.67
513.38	30611.87
513.56	30815.49
513.73	30614.21
513.90	31180.62
514.08	31063.59
514.25	30871.67
514.43	31754.05
514.60	31283.60
514.77	31323.39
514.95	31283.60
515.12	31201.68
515.29	31335.09
515.47	31999.80
515.64	32432.80
515.81	31868.73
515.99	31667.45
516.16	31634.68
516.33	31604.25
516.51	31903.84
516.68	31461.48
516.85	31873.42
517.03	32231.52
517.20	32425.78
517.37	31903.84
517.54	32491.32
517.72	32308.76
517.89	32428.12
518.06	32266.63
518.24	32521.74
518.41	32198.75
518.58	32636.43
518.75	32617.71
518.93	32980.49
519.10	32800.27
519.27	33116.24
519.45	32655.15
519.62	33474.34
519.79	33310.50
519.96	33291.78
520.14	33565.62
520.31	33181.77
520.48	33354.97
520.65	33785.63
520.83	33930.75
521.00	33649.88
521.17	33586.69
521.34	33663.93
521.52	34155.44
521.69	34195.23
521.86	34185.86
522.03	34071.18
522.20	34410.56
522.38	34459.71
522.55	34684.40
522.72	34387.15
522.89	34508.86
523.07	34719.51
523.24	34110.97
523.41	34639.93
523.58	34916.11
523.75	34920.79
523.92	34937.18
524.10	35157.19
524.27	35161.87
524.44	35456.78
524.61	35306.98
524.78	35222.72
524.96	35229.74
525.13	35463.80
525.30	35564.44
525.47	35641.68
525.64	35531.67
525.81	35758.70
525.98	35512.95
526.16	35257.83
526.33	34845.90
526.50	35864.03
526.67	35218.04
526.84	35576.14
527.01	35639.34
527.18	35995.10
527.36	36079.36
527.53	36240.86
527.70	36641.09
527.87	36673.85
528.04	36299.37
528.21	36610.66
528.38	36149.57
528.55	36638.75
528.72	36467.89
528.89	36907.91
529.07	36219.79
529.24	36500.65
529.41	36645.77
529.58	36547.47
529.75	36854.08
529.92	36802.58
530.09	36900.89
530.26	36868.12
530.43	36847.05
530.60	36807.26
530.77	37359.63
530.94	37090.47
531.11	37219.20
531.28	37273.03
531.46	37600.71
531.63	37900.29
531.80	37336.23
531.97	37383.04
532.14	37422.83
532.31	37315.16
532.48	37722.41
532.65	37881.57
532.82	37530.49
532.99	38246.69
533.16	37165.37
533.33	37968.17
533.50	38363.72
533.67	37853.48
533.84	37720.07
534.01	38033.71
534.18	38024.34
534.35	38677.35
534.52	37998.60
534.69	38497.13
534.86	38450.32
535.03	37897.95
535.20	38822.47
535.37	38342.66
535.54	38817.78
535.71	38391.81
535.88	38536.92
536.05	38487.77
536.22	38543.94
536.38	38794.38
536.55	38499.47
536.72	38831.83
536.89	38658.63
537.06	39042.48
537.23	38930.13
537.40	38958.22
537.57	39274.19
537.74	39175.89
537.91	39297.59
538.08	39379.51
538.25	38972.26
538.42	39143.12
538.59	39632.29
538.75	39309.30
538.92	39306.96
539.09	39526.97
539.26	39215.68
539.43	39161.84
539.60	39093.97
539.77	39431.01
539.94	39538.67
540.11	39337.38
540.28	39768.04
540.44	39889.75
540.61	39381.85
540.78	39372.49
540.95	39321.00
541.12	39323.34
541.29	39058.86
541.46	39824.22
541.62	40088.70
541.79	40205.72
541.96	39974.01
542.13	39765.70
542.30	40060.61
542.47	39913.16
542.63	39871.03
542.80	40563.82
542.97	40507.65
543.14	40858.73
543.31	40662.13
543.48	40699.58
543.64	41265.99
543.81	40577.87
543.98	41008.53
544.15	41305.77
544.32	40755.75
544.48	41090.44
544.65	40844.69
544.82	40910.22
544.99	40903.20
545.16	41172.36
545.32	40643.40
545.49	41544.51
545.66	41003.85
545.83	41460.25
546.00	41092.79
546.16	41462.59
546.33	41329.18
546.50	41022.57
546.67	40835.33
546.83	40882.14
547.00	41273.01
547.17	41518.76
547.34	41345.56
547.50	41886.23
547.67	41743.45
547.84	41724.73
548.00	41862.82
548.17	41993.89
548.34	41567.91
548.51	41846.44
548.67	41713.03
548.84	42192.84
549.01	41813.67
549.18	41439.18
549.34	41979.85
549.51	42284.12
549.68	42071.13
549.84	41961.12
550.01	41734.09
550.18	42036.02
550.34	42464.34
550.51	41921.34
550.68	41975.17
550.84	42038.36
551.01	42087.51
551.18	42270.08
551.34	42052.41
551.51	42012.62
551.68	42644.56
551.84	42522.85
552.01	42433.91
552.18	42674.99
552.34	42176.45
552.51	42660.94
552.68	42635.20
552.84	42511.15
553.01	42801.38
553.18	42623.50
553.34	42466.68
553.51	42108.58
553.67	42555.62
553.84	43304.59
554.01	43065.86
554.17	43215.65
554.34	43524.60
554.51	43023.73
554.67	43150.12
554.84	42719.46
555.00	42635.20
555.17	42770.95
555.33	43196.93
555.50	43178.20
555.67	43185.22
555.83	43065.86
556.00	43636.95
556.16	43526.94
556.33	43388.85
556.50	43168.84
556.66	43164.16
556.83	43042.45
556.99	43412.26
557.16	43100.97
557.32	43290.55
557.49	43393.53
557.65	43246.08
557.82	43147.78
557.98	43653.33
558.15	43381.83
558.32	43548.01
558.48	43274.16
558.65	43545.67
558.81	43005.00
558.98	43629.93
559.14	43620.56
559.31	43634.61
559.47	43438.00
559.64	43941.22
559.80	43749.29
559.97	43777.38
560.13	43852.28
560.30	43323.32
560.46	43765.68
560.63	43555.03
560.79	43824.19
560.96	43536.30
561.12	43641.63
561.29	43807.81
561.45	44095.69
561.61	43833.55
561.78	43665.03
561.94	43550.35
562.11	43971.64
562.27	43452.05
562.44	44105.06
562.60	43828.87
562.77	44268.89
562.93	43768.02
563.10	44133.14
563.26	44154.21
563.42	44203.36
563.59	44114.42
563.75	43955.26
563.92	44432.73
564.08	44322.72
564.24	44179.95
564.41	44364.85
564.57	43828.87
564.74	43901.43
564.90	44378.90
565.07	44175.27
565.23	43583.12
565.39	43751.63
565.56	44357.83
565.72	44161.23
565.88	44334.43
566.05	44238.47
566.21	44044.20
566.38	44264.21
566.54	44147.18
566.70	44715.93
566.87	44708.91
567.03	44186.97
567.19	44378.90
567.36	44250.17
567.52	44229.10
567.68	44346.13
567.85	44580.18
568.01	44243.15
568.17	44177.61
568.34	44287.62
568.50	44430.39
568.66	44198.68
568.83	44545.08
568.99	44140.16
569.15	44051.22
569.32	44339.11
569.48	44292.30
569.64	44430.39
569.81	44886.79
569.97	44217.40
570.13	44339.11
570.30	44231.44
570.46	44294.64
570.62	44245.49
570.78	44264.21
570.95	44201.02
571.11	44821.26
571.27	44783.81
571.43	44577.84
571.60	44603.59
571.76	44603.59
571.92	44004.41
572.09	44470.18
572.25	44245.49
572.41	44294.64
572.57	44608.27
572.74	44980.42
572.90	44949.99
573.06	44631.68
573.22	44715.93
573.38	44542.74
573.55	44250.17
573.71	44652.74
573.87	44126.12
574.03	44741.68
574.20	44526.35
574.36	44694.87
574.52	44465.50
574.68	44680.83
574.84	44814.24
575.01	44589.55
575.17	44779.13
575.33	44222.08
575.49	44563.80
575.65	44994.46
575.82	44926.58
575.98	44690.19
576.14	44662.10
576.30	44390.60
576.46	44364.85
576.62	44552.10
576.79	44460.82
576.95	44259.53
577.11	44882.11
577.27	44680.83
577.43	45085.74
577.59	44343.79
577.75	44802.53
577.92	44847.00
578.08	44032.50
578.24	44329.75
578.40	44720.62
578.56	44603.59
578.72	44718.28
578.88	44744.02
579.04	44868.07
579.21	44526.35
579.37	44636.36
579.53	44479.54
579.69	44425.71
579.85	44474.86
580.01	45132.55
580.17	44697.21
580.33	45263.62
580.49	45106.80
580.65	44608.27
580.82	44945.31
580.98	44816.58
581.14	44442.09
581.30	44837.64
581.46	44673.81
581.62	44793.17
581.78	44701.89
581.94	44858.71
582.10	45064.67
582.26	45153.62
582.42	44875.09
582.58	44973.39
582.74	45029.57
582.90	44931.26
583.06	45532.78
583.22	44978.07
583.38	45099.78
583.54	44856.37
583.70	44865.73
583.86	45172.34
584.02	44446.77
584.18	44624.65
584.34	45052.97
584.50	44788.49
584.66	45092.76
584.82	44673.81
584.98	45034.25
585.14	45179.36
585.30	44800.19
585.46	44870.41
585.62	44779.13
585.78	44367.20
585.94	44692.53
586.10	44875.09
586.26	44594.23
586.42	44928.92
586.58	44842.32
586.74	44987.44
586.90	44612.95
587.06	44573.16
587.22	45200.43
587.38	44516.99
587.54	45333.84
587.70	45022.54
587.86	45081.06
588.02	44996.80
588.18	45177.02
588.34	44535.71
588.49	44369.54
588.65	44470.18
588.81	44933.60
588.97	44837.64
589.13	44325.07
589.29	44252.51
589.45	44610.61
589.61	44959.35
589.77	45242.56
589.93	44987.44
590.08	45237.87
590.24	45038.93
590.40	45155.96
590.56	45074.04
590.72	45460.23
590.88	44875.09
591.04	45216.81
591.20	45228.51
591.35	45111.49
591.51	45666.19
591.67	45024.89
591.83	44942.97
591.99	44783.81
592.15	45008.50
592.31	45202.77
592.46	45268.30
592.62	45083.40
592.78	45172.34
592.94	45057.65
593.10	45258.94
593.26	45223.83
593.41	45497.67
593.57	45071.70
593.73	44919.56
593.89	45404.05
594.05	45638.11
594.20	45542.14
594.36	45083.40
594.52	45329.16
594.68	45352.56
594.84	45371.28
594.99	45495.33
595.15	45141.91
595.31	45488.31
595.47	45532.78
595.62	44940.63
595.78	45504.70
595.94	45212.13
596.10	45378.31
596.25	45457.88
596.41	45254.26
596.57	45209.79
596.73	45137.23
596.88	45153.62
597.04	45151.27
597.20	45457.88
597.36	45375.97
597.51	45261.28
597.67	45368.94
597.83	45492.99
597.99	45808.96
598.14	45340.86
598.30	45254.26
598.46	45322.13
598.61	45141.91
598.77	44982.76
598.93	45123.19
599.09	45198.09
599.24	45633.42
599.40	45567.89
599.56	45031.91
599.71	45359.58
599.87	45724.71
600.03	45366.60
600.18	45240.21
600.34	45195.74
600.50	45270.64
600.65	45326.81
600.81	45443.84
600.97	45748.11
601.12	45364.26
601.28	45347.88
601.44	45338.52
601.59	45413.41
601.75	44821.26
601.91	44959.35
602.06	45111.49
602.22	45581.93
602.37	45422.78
602.53	45333.84
602.69	45715.34
602.84	45778.54
603.00	45434.48
603.16	45312.77
603.31	45109.14
603.47	45284.68
603.62	44734.66
603.78	45422.78
603.94	45397.03
604.09	45265.96
604.25	45485.97
604.40	45263.62
604.56	45113.83
604.71	45425.12
604.87	45294.05
605.03	45280.00
605.18	45207.45
605.34	45385.33
605.49	44685.51
605.65	45249.58
605.80	45024.89
605.96	45158.30
606.12	45195.74
606.27	45411.07
606.43	45242.56
606.58	45425.12
606.74	44903.18
606.89	44961.69
607.05	45448.52
607.20	45027.23
607.36	45099.78
607.51	45155.96
607.67	45120.85
607.82	45139.57
607.98	45357.24
608.13	44865.73
608.29	44626.99
608.44	44722.96
608.60	44783.81
608.75	44933.60
608.91	44584.86
609.06	44800.19
609.22	45090.42
609.37	44800.19
609.53	44538.05
609.68	44856.37
609.84	44772.11
609.99	44453.79
610.15	44947.65
610.30	44774.45
610.46	44479.54
610.61	44753.38
610.76	44900.84
610.92	44409.32
611.07	44722.96
611.23	44308.68
611.38	44374.22
611.54	44502.95
611.69	45081.06
611.84	44254.85
612.00	44519.33
612.15	44388.26
612.31	44589.55
612.46	44765.09
612.62	44722.96
612.77	44472.52
612.92	44800.19
613.08	44259.53
613.23	44392.94
613.39	44259.53
613.54	43983.35
613.69	44729.98
613.85	44533.37
614.00	44514.65
614.15	44720.62
614.31	44278.25
614.46	45006.16
614.62	44060.58
614.77	43941.22
614.92	43847.60
615.08	43889.73
615.23	44156.55
615.38	44109.74
615.54	44189.31
615.69	43838.23
615.84	43856.96
616.00	44041.86
616.15	44034.84
616.30	44194.00
616.46	43962.28
616.61	43786.74
616.76	44254.85
616.92	43821.85
617.07	44149.53
617.22	43714.19
617.37	43995.05
617.53	44074.63
617.68	43981.01
617.83	44004.41
617.99	44259.53
618.14	44004.41
618.29	43899.09
618.45	43580.78
618.60	43454.39
618.75	43484.81
618.90	44062.93
619.06	43531.62
619.21	43988.03
619.36	43924.83
619.51	43753.97
619.67	43524.60
619.82	43761.00
619.97	43641.63
620.12	43243.74
620.28	43269.48
620.43	43571.41
620.58	43445.02
620.73	43597.16
620.89	43232.04
621.04	43894.41
621.19	43203.95
621.34	43339.70
621.49	42869.25
621.65	42948.83
621.80	43718.87
621.95	42866.91
622.10	43592.48
622.25	42960.53
622.41	42492.43
622.56	43084.58
622.71	43157.14
622.86	43320.98
623.01	43335.02
623.16	43297.57
623.32	43718.87
623.47	43540.99
623.62	43047.13
623.77	42543.92
623.92	43037.77
624.07	42836.48
624.23	42483.06
624.38	42239.65
624.53	42712.44
624.68	42663.28
624.83	43253.10
624.98	42794.36
625.13	42880.95
625.29	42899.68
625.44	42660.94
625.59	42520.51
625.74	42316.89
625.89	41911.97
626.04	42108.58
626.19	42672.65
626.34	42454.98
626.49	42543.92
626.65	42335.61
626.80	42859.89
626.95	42462.00
627.10	42464.34
627.25	41785.58
627.40	41918.99
627.55	41933.04
627.70	41886.23
627.85	41975.17
628.00	41998.57
628.15	42504.13
628.30	42054.75
628.45	42609.45
628.60	42113.26
628.76	42078.15
628.91	41858.14
629.06	42134.32
629.21	42244.33
629.36	41851.12
629.51	41560.89
629.66	41947.08
629.81	41617.07
629.96	41942.40
630.11	41696.64
630.26	41818.35
630.41	41507.06
630.56	41787.92
630.71	41446.21
630.86	41876.86
631.01	41619.41
631.16	41516.42
631.31	41172.36
631.46	41413.44
631.61	41219.17
631.76	41254.28
631.91	41366.63
632.06	41542.17
632.21	41235.56
632.36	41811.33
632.51	41347.90
632.66	41624.09
632.81	41067.04
632.96	41212.15
633.10	41017.89
633.25	40975.76
633.40	41261.30
633.55	41415.78
633.70	41305.77
633.85	41324.50
634.00	41301.09
634.15	40662.13
634.30	40917.25
634.45	41509.40
634.60	41453.23
634.75	40961.72
634.90	41024.91
635.05	41544.51
635.19	41081.08
635.34	40921.93
635.49	41064.70
635.64	40641.06
635.79	40699.58
635.94	40582.55
636.09	40861.07
636.24	40940.65
636.39	41158.32
636.53	40437.44
636.68	40465.52
636.83	40418.71
636.98	40830.65
637.13	40481.91
637.28	40559.14
637.43	41113.85
637.57	40898.52
637.72	41022.57
637.87	40332.11
638.02	40596.59
638.17	40762.77
638.32	40566.16
638.46	40547.44
638.61	40655.11
638.76	39981.03
638.91	40514.67
639.06	40435.10
639.20	40425.73
639.35	40165.93
639.50	40069.97
639.65	39908.47
639.80	40306.37
639.94	40577.87
640.09	40137.85
640.24	39470.79
640.39	39562.08
640.54	40208.06
640.68	39772.72
640.83	39903.79
640.98	39732.93
641.13	39519.95
641.27	40315.73
641.42	39798.47
641.57	39763.36
641.72	39566.76
641.86	39295.25
642.01	38890.34
642.16	39744.64
642.31	39215.68
642.45	39690.80
642.60	39447.39
642.75	39185.25
642.90	39700.17
643.04	39592.50
643.19	39569.10
643.34	39517.60
643.48	39283.55
643.63	39454.41
643.78	39028.43
643.93	39012.05
644.07	39182.91
644.22	39409.94
644.37	38927.79
644.51	39065.88
644.66	39072.90
644.81	39321.00
644.95	39395.90
645.10	39674.42
645.25	39084.61
645.39	39641.65
645.54	38958.22
645.69	39353.77
645.83	38848.21
645.98	38967.58
646.13	38962.90
646.27	39129.08
646.42	38775.66
646.57	38923.11
646.71	38822.47
646.86	38930.13
647.00	39227.38
647.15	38579.05
647.30	38820.13
647.44	39009.71
647.59	39098.65
647.74	39093.97
647.88	38822.47
648.03	38827.15
648.17	38366.06
648.32	38223.29
648.47	38387.13
648.61	38799.06
648.76	38705.44
648.90	38419.89
649.05	38721.82
649.20	38628.20
649.34	38721.82
649.49	38373.08
649.63	38080.52
649.78	38642.24
649.92	38464.36
650.07	38593.09
650.21	37851.14
650.36	38527.56
650.51	38462.02
650.65	38841.19
650.80	38892.68
650.94	38490.11
651.09	38471.39
651.23	38068.81
651.38	38321.59
651.52	38094.56
651.67	37797.31
651.81	38270.10
651.96	38110.94
652.10	38136.69
652.25	37949.45
652.39	38169.46
652.54	37858.17
652.68	38124.99
652.83	38106.26
652.97	38202.22
653.12	38038.39
653.26	37507.08
653.41	38038.39
653.55	37694.33
653.70	37640.50
653.84	38202.22
653.99	37893.27
654.13	37525.81
654.27	37858.17
654.42	37399.42
654.56	37469.64
654.71	38143.71
654.85	37675.60
655.00	37457.93
655.14	37663.90
655.29	37134.94
655.43	37474.32
655.57	37366.65
655.72	36891.52
655.86	37020.25
656.01	37074.09
656.15	36952.38
656.30	37020.25
656.44	37027.28
656.58	37177.07
656.73	36886.84
656.87	36786.20
657.01	36737.05
657.16	36828.33
657.30	36968.76
657.45	36732.37
657.59	36627.04
657.73	36580.23
657.88	37345.59
658.02	37050.68
658.16	36898.55
658.31	36945.36
658.45	37315.16
658.60	36783.86
658.74	37017.91
658.88	36797.90
659.03	36751.09
659.17	36385.97
659.31	36463.21
659.46	36367.24
659.60	36191.70
659.74	36439.80
659.89	36072.34
660.03	35992.76
660.17	36432.78
660.32	36037.23
660.46	36765.14
660.60	36556.83
660.74	36226.81
660.89	36074.68
661.03	36102.76
661.17	36119.15
661.32	35920.20
661.46	35864.03
661.60	36067.66
661.74	35983.40
661.89	35821.90
662.03	35751.68
662.17	35033.14
662.31	35351.45
662.46	35952.97
662.60	35288.26
662.74	35707.21
662.88	35831.26
663.03	35496.56
663.17	35328.05
663.31	35026.12
663.45	35311.66
663.60	35690.83
663.74	35019.10
663.88	35241.45
664.02	35021.44
664.17	34986.33
664.31	34719.51
664.45	35161.87
664.59	35040.16
664.73	35281.24
664.88	34831.85
665.02	34452.69
665.16	34827.17
665.30	35037.82
665.44	34780.36
665.59	34237.36
665.73	34621.20
665.87	34363.75
666.01	34223.31
666.15	34562.69
666.29	34635.25
666.44	34752.27
666.58	34422.26
666.72	34415.24
666.86	33961.17
667.00	34272.46
667.14	34574.39
667.28	33729.46
667.43	33823.08
667.57	34052.45
667.71	33432.21
667.85	33769.25
667.99	33607.75
668.13	33078.79
668.27	33549.24
668.41	33572.64
668.56	33528.17
668.70	33525.83
668.84	33603.07
668.98	33041.34
669.12	33511.79
669.26	33699.03
669.40	33408.81
669.54	32938.36
669.68	32914.95
669.82	33223.90
669.96	32886.87
670.10	32882.19
670.25	32856.44
670.39	33266.03
670.53	32849.42
670.67	32769.84
670.81	32814.31
670.95	33010.92
671.09	32975.81
671.23	33013.26
671.37	32821.33
671.51	32779.20
671.65	32528.77
671.79	32194.07
671.93	32243.22
672.07	32437.48
672.21	32098.11
672.35	32175.34
672.49	32245.56
672.63	32142.58
672.77	31899.16
672.91	31651.06
673.05	31630.00
673.19	31552.76
673.33	31639.36
673.47	31213.38
673.61	31262.54
673.75	31393.61
673.89	31260.20
674.03	30792.09
674.17	31094.02
674.31	31119.76
674.45	30920.82
674.59	31126.78
674.73	31321.05
674.87	31253.17
675.01	31131.47
675.15	30735.92
675.29	30754.64
675.43	30773.36
675.56	30841.24
675.70	30569.74
675.84	30345.05
675.98	29642.88
676.12	30188.23
676.26	30178.87
676.40	29867.58
676.54	30050.14
676.68	30120.35
676.82	29186.48
676.96	29507.13
677.10	29626.50
677.23	29450.96
677.37	29607.78
677.51	29151.37
677.65	29469.69
677.79	28980.51
677.93	29450.96
678.07	29242.65
678.21	28636.45
678.34	28648.16
678.48	28573.26
678.62	28919.66
678.76	28421.13
678.90	28641.14
679.04	28348.57
679.18	28414.10
679.31	28540.49
679.45	28350.91
679.59	27826.63
679.73	27854.72
679.87	27985.79
680.00	28254.95
680.14	27742.37
680.28	28250.27
680.42	27580.87
680.56	27800.88
680.70	27505.98
680.83	27522.36
680.97	27068.30
681.11	26689.13
681.25	26794.45
681.39	27049.57
681.52	27206.39
681.66	26927.86
681.80	26586.15
681.94	27007.44
682.07	26415.29
682.21	26366.13
682.35	26221.02
682.49	26066.55
682.62	26553.38
682.76	25993.99
682.90	25984.63
683.04	25940.16
683.17	25848.88
683.31	25841.85
683.45	25898.03
683.59	25359.70
683.72	25429.92
683.86	25418.22
684.00	25146.72
684.13	25600.78
684.27	25659.29
684.41	24950.11
684.55	24727.76
684.68	24641.16
684.82	24910.32
684.96	24409.45
685.09	24723.08
685.23	24776.91
685.37	25057.78
685.50	24379.02
685.64	24758.19
685.78	24542.86
685.91	24254.97
686.05	24180.07
686.19	24243.27
686.32	23892.19
686.46	23587.92
686.60	23440.47
686.73	23639.41
686.87	23611.32
687.01	23606.64
687.14	23419.40
687.28	23005.13
687.42	23037.89
687.55	23035.55
687.69	23152.58
687.82	22551.06
687.96	23175.98
688.10	22939.59
688.23	22735.96
688.37	22387.22
688.50	22668.09
688.64	22405.95
688.78	22450.42
688.91	22249.13
689.05	22352.12
689.18	21919.12
689.32	21869.97
689.46	21792.73
689.59	21855.92
689.73	22415.31
689.86	21968.27
690.00	22106.36
690.13	21790.39
690.27	21703.79
690.41	21785.71
690.54	21245.04
690.68	21326.96
690.81	21125.68
690.95	21010.99
691.08	21191.21
691.22	21139.72
691.35	21165.46
691.49	21261.43
691.62	20861.19
691.76	20922.05
691.89	20814.38
692.03	20339.26
692.16	20716.08
692.30	20594.37
692.43	20086.48
692.57	20365.00
692.70	20376.70
692.84	20320.53
692.97	19711.99
693.11	19637.09
693.24	19845.40
693.38	19510.71
693.51	19791.57
693.65	19875.83
693.78	19751.78
693.92	19655.82
694.05	19220.48
694.19	19124.52
694.32	19098.77
694.45	19140.90
694.59	19379.64
694.72	18916.21
694.86	19051.96
694.99	18569.81
695.13	18576.83
695.26	18471.51
695.39	18494.91
695.53	18305.33
695.66	18237.45
695.80	18473.85
695.93	18384.91
696.07	18293.63
696.20	18181.28
696.33	18043.19
696.47	18078.30
696.60	17839.56
696.73	18113.41
696.87	17678.07
697.00	17717.86
697.14	17804.46
697.27	17504.87
697.40	17729.56
697.54	17156.13
697.67	17394.86
697.80	17158.47
697.94	17202.94
698.07	17022.72
698.21	17273.15
698.34	16938.46
698.47	16751.21
698.61	16676.32
698.74	16695.04
698.87	16599.08
699.01	16428.22
699.14	16468.01
699.27	16449.28
699.40	16575.67
699.54	16313.53
699.67	16428.22
699.80	16238.64
699.94	15955.43
700.07	16350.98
700.20	15564.56
700.34	15810.32
700.47	15819.68
700.60	15815.00
700.73	15683.93
700.87	15609.03
701.00	15569.24
701.13	15445.20
701.26	15534.14
701.40	15733.08
701.53	15257.95
701.66	15236.89
701.79	15164.33
701.93	15145.61
702.06	14927.94
702.19	15080.07
702.32	14850.70
702.46	14647.07
702.59	14787.50
702.72	15070.71
702.85	14721.97
702.99	14466.85
703.12	14647.07
703.25	14834.32
703.38	14618.99
703.51	14188.33
703.65	14370.89
703.78	14202.37
703.91	14342.80
704.04	14270.25
704.17	14174.28
704.31	13825.54
704.44	13841.93
704.57	13518.93
704.70	13797.46
704.83	13865.33
704.96	13870.01
705.10	13776.39
705.23	13804.48
>>>>>End Processed Spectral Data<<<<<
