SpectraSuite Data File
++++++++++++++++++++++++++++++++++++
Date: Fri Oct 25 10:43:32 EDT 2013
User: price-jones
Dark Spectrum Present: No
Reference Spectrum Present: No
Number of Sampled Component Spectra: 1
Spectrometers: USB2+H05261
Integration Time (usec): 100000 (USB2+H05261)
Spectra Averaged: 1 (USB2+H05261)
Boxcar Smoothing: 0 (USB2+H05261)
Correct for Electrical Dark: No (USB2+H05261)
Strobe/Lamp Enabled: No (USB2+H05261)
Correct for Detector Non-linearity: No (USB2+H05261)
Correct for Stray Light: No (USB2+H05261)
Number of Pixels in Processed Spectrum: 2048
>>>>>Begin Processed Spectral Data<<<<<
365.73	138.09
365.92	138.09
366.12	138.09
366.32	65.54
366.52	49.15
366.72	11.70
366.91	60.85
367.11	65.54
367.31	4.68
367.51	0.00
367.70	60.85
367.90	37.45
368.10	7.02
368.30	0.00
368.49	39.79
368.69	98.30
368.89	2.34
369.09	14.04
369.28	102.98
369.48	53.83
369.68	46.81
369.87	95.96
370.07	79.58
370.27	112.35
370.47	248.10
370.66	388.53
370.86	395.55
371.06	493.85
371.25	498.53
371.45	379.17
371.65	444.70
371.84	451.72
372.04	468.11
372.24	433.00
372.44	489.17
372.63	505.56
372.83	496.19
373.03	535.98
373.22	521.94
373.42	470.45
373.62	545.34
373.81	533.64
374.01	477.47
374.21	535.98
374.40	550.03
374.60	606.20
374.79	512.58
374.99	531.30
375.19	660.03
375.38	571.09
375.58	477.47
375.78	622.58
375.97	535.98
376.17	596.84
376.37	564.07
376.56	636.63
376.76	585.13
376.95	610.88
377.15	561.73
377.35	596.84
377.54	596.84
377.74	599.18
377.93	615.56
378.13	636.63
378.33	713.86
378.52	638.97
378.72	594.50
378.91	617.90
379.11	620.24
379.31	669.39
379.50	692.80
379.70	706.84
379.89	720.88
380.09	655.35
380.28	650.67
380.48	711.52
380.68	669.39
380.87	671.73
381.07	702.16
381.26	777.06
381.46	671.73
381.65	718.54
381.85	727.91
382.04	727.91
382.24	702.16
382.43	636.63
382.63	655.35
382.83	734.93
383.02	713.86
383.22	702.16
383.41	641.31
383.61	763.01
383.80	755.99
384.00	777.06
384.19	760.67
384.39	760.67
384.58	877.70
384.78	805.14
384.97	800.46
385.17	793.44
385.36	753.65
385.56	842.59
385.75	739.61
385.95	763.01
386.14	844.93
386.34	866.00
386.53	763.01
386.72	877.70
386.92	929.19
387.11	884.72
387.31	875.36
387.50	849.61
387.70	798.12
387.89	954.94
388.09	961.96
388.28	898.77
388.48	847.27
388.67	959.62
388.86	898.77
389.06	866.00
389.25	873.02
389.45	926.85
389.64	940.90
389.84	959.62
390.03	1097.71
390.22	1057.92
390.42	990.05
390.61	1060.26
390.81	1036.86
391.00	990.05
391.19	1186.65
391.39	1039.20
391.58	1013.45
391.78	1128.14
391.97	1102.39
392.16	985.37
392.36	1034.52
392.55	999.41
392.75	1041.54
392.94	997.07
393.13	870.68
393.33	985.37
393.52	1118.78
393.71	1163.25
393.91	1118.78
394.10	1048.56
394.29	1102.39
394.49	1067.28
394.68	1193.67
394.88	1196.01
395.07	1324.74
395.26	1214.74
395.46	1186.65
395.65	1284.95
395.84	1200.69
396.04	1238.14
396.23	1186.65
396.42	1284.95
396.62	1095.37
396.81	1196.01
397.00	1193.67
397.19	1238.14
397.39	1291.98
397.58	1425.39
397.77	1303.68
397.97	1338.79
398.16	1430.07
398.35	1418.36
398.55	1444.11
398.74	1511.99
398.93	1455.81
399.12	1490.92
399.32	1460.49
399.51	1469.86
399.70	1547.09
399.90	1572.84
400.09	1614.97
400.28	1565.82
400.47	1621.99
400.67	1633.69
400.86	1687.53
401.05	1699.23
401.24	1643.06
401.44	1715.61
401.63	1640.72
401.82	1727.32
402.01	1748.38
402.21	1671.14
402.40	1802.21
402.59	1755.40
402.78	1746.04
402.97	1809.23
403.17	1783.49
403.36	1820.94
403.55	1879.45
403.74	1863.07
403.93	1872.43
404.13	1963.71
404.32	1811.57
404.51	1792.85
404.70	1853.70
404.89	1750.72
405.09	1912.22
405.28	1870.09
405.47	1895.83
405.66	1944.99
405.85	1996.48
406.05	1914.56
406.24	1956.69
406.43	1966.05
406.62	1982.43
406.81	2108.82
407.00	2076.06
407.20	2012.86
407.39	2111.16
407.58	2139.25
407.77	2141.59
407.96	2282.02
408.15	2244.57
408.34	2169.68
408.54	2282.02
408.73	2202.44
408.92	2275.00
409.11	2225.85
409.30	2335.85
409.49	2239.89
409.68	2197.76
409.87	2270.32
410.07	2361.60
410.26	2424.80
410.45	2471.61
410.64	2282.02
410.83	2354.58
411.02	2565.23
411.21	2595.65
411.40	2537.14
411.59	2626.08
411.78	2658.85
411.98	2548.84
412.17	2726.72
412.36	2569.91
412.55	2743.11
412.74	2738.43
412.93	2754.81
413.12	2754.81
413.31	2703.32
413.50	2703.32
413.69	2822.69
413.88	2902.26
414.07	2932.69
414.26	2864.82
414.45	3094.19
414.64	2960.78
414.83	2986.52
415.02	2949.08
415.22	3080.14
415.41	3021.63
415.60	3075.46
415.79	3176.11
415.98	3295.47
416.17	3201.85
416.36	3262.71
416.55	3234.62
416.74	3337.60
416.93	3129.30
417.12	3222.92
417.31	3281.43
417.50	3283.77
417.69	3330.58
417.88	3454.63
418.07	3487.40
418.26	3316.54
418.45	3473.36
418.64	3653.58
418.83	3475.70
419.02	3356.33
419.21	3480.38
419.39	3536.55
419.58	3609.11
419.77	3562.30
419.96	3648.90
420.15	3611.45
420.34	3723.79
420.53	3812.73
420.72	3779.97
420.91	3871.25
421.10	3801.03
421.29	3845.50
421.48	3698.05
421.67	3873.59
421.86	3889.97
422.05	3740.18
422.24	3791.67
422.43	3768.26
422.61	3829.12
422.80	3831.46
422.99	3878.27
423.18	3932.10
423.37	4084.23
423.56	3929.76
423.75	3983.59
423.94	3758.90
424.13	3716.77
424.32	3751.88
424.50	3896.99
424.69	3983.59
424.88	3826.78
425.07	3939.12
425.26	3854.86
425.45	3864.22
425.64	3997.64
425.83	4028.06
426.01	3969.55
426.20	3946.14
426.39	3885.29
426.58	3887.63
426.77	4049.13
426.96	4070.19
427.15	4023.38
427.33	3948.48
427.52	4042.11
427.71	4051.47
427.90	3978.91
428.09	4215.30
428.28	4025.72
428.46	4184.88
428.65	4182.54
428.84	4203.60
429.03	4208.28
429.22	4058.49
429.40	4152.11
429.59	4079.55
429.78	3957.85
429.97	3709.75
430.16	3894.65
430.34	4140.41
430.53	4219.99
430.72	4149.77
430.91	4166.15
431.10	4332.33
431.28	4421.27
431.47	4552.34
431.66	4681.07
431.85	4521.92
432.03	4568.73
432.22	4671.71
432.41	4648.30
432.60	4652.98
432.79	4561.70
432.97	4697.46
433.16	4784.06
433.35	4514.89
433.54	4737.24
433.72	4662.35
433.91	4622.56
434.10	4681.07
434.28	4692.77
434.47	4898.74
434.66	4933.85
434.85	4945.55
435.03	4964.28
435.22	4990.02
435.41	5085.98
435.59	5001.72
435.78	5135.14
435.97	5165.56
436.16	5001.72
436.34	5050.88
436.53	5085.98
436.72	5160.88
436.90	5111.73
437.09	5050.88
437.28	5008.75
437.46	5032.15
437.65	4954.91
437.84	5090.67
438.02	5114.07
438.21	5174.92
438.40	5170.24
438.58	5322.38
438.77	5305.99
438.96	5416.00
439.14	5523.66
439.33	5605.58
439.52	5668.78
439.70	5666.44
439.89	5682.82
440.08	5636.01
440.26	5729.63
440.45	5636.01
440.63	5823.25
440.82	5872.40
441.01	5928.58
441.19	6083.05
441.38	6008.16
441.57	6164.97
441.75	6251.57
441.94	6169.65
442.12	6319.45
442.31	6445.84
442.50	6277.32
442.68	6258.59
442.87	6305.40
443.05	6225.82
443.24	6471.58
443.43	6389.66
443.61	6321.79
443.80	6644.78
443.98	6546.48
444.17	6314.77
444.35	6452.86
444.54	6607.33
444.73	6469.24
444.91	6466.90
445.10	6232.85
445.28	6349.87
445.47	6289.02
445.65	6443.49
445.84	6478.60
446.02	6520.73
446.21	6698.61
446.39	6312.42
446.58	6736.06
446.77	6668.19
446.95	6565.20
447.14	6733.72
447.32	6651.80
447.51	6513.71
447.69	6567.54
447.88	6640.10
448.06	6616.69
448.25	6593.29
448.43	6803.94
448.62	6640.10
448.80	6541.80
448.99	6719.68
449.17	6888.20
449.36	6630.74
449.54	6909.26
449.73	7019.27
449.91	6923.30
450.10	6920.96
450.28	7253.32
450.46	7199.49
450.65	7246.30
450.83	7028.63
451.02	7213.53
451.20	7346.94
451.39	7136.29
451.57	7185.44
451.76	7035.65
451.94	7316.51
452.13	7187.79
452.31	7234.60
452.49	7199.49
452.68	7110.55
452.86	7187.79
453.05	7272.04
453.23	7316.51
453.42	7283.75
453.60	7229.91
453.78	7386.73
453.97	7346.94
454.15	7358.64
454.34	7084.80
454.52	7363.33
454.70	7644.19
454.89	7531.84
455.07	7403.11
455.26	7644.19
455.44	7693.34
455.62	7651.21
455.81	7775.26
455.99	7632.49
456.17	7754.19
456.36	7658.23
456.54	7793.98
456.73	7985.91
456.91	8030.38
457.09	8072.51
457.28	8241.03
457.46	8004.63
457.64	8079.53
457.83	7939.10
458.01	8035.06
458.19	8161.45
458.38	8271.45
458.56	8224.64
458.74	8217.62
458.93	8035.06
459.11	8133.36
459.29	8332.31
459.48	8353.37
459.66	8252.73
459.84	8498.49
460.03	8580.40
460.21	8458.70
460.39	8533.59
460.57	8475.08
460.76	8479.76
460.94	8631.90
461.12	8395.50
461.31	8613.17
461.49	8711.47
461.67	8505.51
461.85	8732.54
462.04	8840.20
462.22	8990.00
462.40	8837.86
462.59	8847.22
462.77	8795.73
462.95	8926.80
463.13	8802.75
463.32	8917.44
463.50	8826.16
463.68	8791.05
463.86	9008.72
464.05	8870.63
464.23	8781.69
464.41	9165.54
464.59	8840.20
464.78	9235.75
464.96	8933.82
465.14	8954.89
465.32	9062.55
465.50	9170.22
465.69	9312.99
465.87	9219.37
466.05	9228.73
466.23	9057.87
466.41	9186.60
466.60	9303.63
466.78	9142.13
466.96	9174.90
467.14	9334.06
467.32	9226.39
467.51	9535.34
467.69	9123.41
467.87	9376.19
468.05	9392.57
468.23	9310.65
468.41	9619.60
468.60	9561.09
468.78	9540.02
468.96	9544.70
469.14	9514.28
469.32	9547.05
469.50	9245.12
469.69	9687.48
469.87	9675.77
470.05	9645.35
470.23	9774.08
470.41	9696.84
470.59	10106.43
470.77	9795.14
470.95	10090.05
471.14	10024.51
471.32	9827.91
471.50	10183.67
471.68	10153.24
471.86	10211.76
472.04	10263.25
472.22	10562.84
472.40	10094.73
472.58	10303.04
472.77	10558.16
472.95	10431.77
473.13	10726.68
473.31	10466.88
473.49	10537.09
473.67	10431.77
473.85	10649.44
474.03	11021.58
474.21	10953.71
474.39	11047.33
474.57	10951.37
474.75	11014.56
474.93	11213.51
475.12	11133.93
475.30	11159.67
475.48	11101.16
475.66	11126.91
475.84	11325.85
476.02	11414.79
476.20	11337.56
476.38	11517.78
476.56	11744.81
476.74	11779.92
476.92	11805.66
477.10	11829.07
477.28	12086.53
477.46	11922.69
477.64	12128.66
477.82	12184.83
478.00	12486.76
478.18	12549.95
478.36	12456.33
478.54	12596.76
478.72	12491.44
478.90	12734.85
479.08	12856.56
479.26	12994.65
479.44	12989.97
479.62	13193.60
479.80	13174.88
479.98	13341.05
480.16	13394.89
480.34	13481.49
480.52	13820.86
480.70	13727.24
480.88	13296.58
481.06	13795.12
481.24	14073.64
481.41	13921.51
481.59	14373.23
481.77	14307.69
481.95	14113.43
482.13	14401.32
482.31	14499.62
482.49	15187.74
482.67	14817.93
482.85	15082.41
483.03	15187.74
483.21	15094.11
483.39	15407.75
483.57	15272.00
483.74	15311.78
483.92	15704.99
484.10	15627.76
484.28	15892.24
484.46	15817.34
484.64	16367.37
484.82	15733.08
485.00	16042.03
485.18	16137.99
485.35	16493.76
485.53	16184.80
485.71	16112.25
485.89	16367.37
486.07	16346.30
486.25	16795.68
486.43	16688.02
486.61	16952.50
486.78	17121.02
486.96	17252.09
487.14	17584.44
487.32	17493.16
487.50	17715.51
487.68	17823.18
487.85	18125.11
488.03	18387.25
488.21	18436.40
488.39	18455.12
488.57	18647.05
488.75	18724.29
488.92	19040.26
489.10	19089.41
489.28	18965.36
489.46	19580.92
489.64	19616.03
489.81	20011.58
489.99	20196.48
490.17	20201.16
490.35	20194.14
490.53	20112.22
490.70	20421.17
490.88	20395.43
491.06	21013.33
491.24	20870.56
491.41	20554.58
491.59	20601.40
491.77	20734.81
491.95	20961.84
492.13	21352.71
492.30	21425.26
492.48	21862.94
492.66	21561.02
492.84	21671.02
493.01	21827.84
493.19	22097.00
493.37	22029.12
493.54	22054.87
493.72	22515.95
493.90	22431.69
494.08	22637.66
494.25	23084.70
494.43	23225.14
494.61	23412.38
494.79	23321.10
494.96	23325.78
495.14	23307.05
495.32	23501.32
495.49	23440.47
495.67	23585.58
495.85	24002.19
496.02	24098.16
496.20	24170.71
496.38	24381.36
496.55	24435.19
496.73	25027.35
496.91	24657.54
497.09	24727.76
497.26	25050.75
497.44	24720.74
497.62	25254.38
497.79	25373.75
497.97	24975.86
498.14	25015.65
498.32	25366.73
498.50	25474.39
498.67	25867.60
498.85	25722.49
499.03	25886.32
499.20	26314.64
499.38	26045.48
499.56	26401.24
499.73	26075.91
499.91	26176.55
500.08	26820.20
500.26	26302.94
500.44	26515.93
500.61	26576.78
500.79	26249.11
500.97	26864.67
501.14	27122.13
501.32	26927.86
501.49	27185.32
501.67	26979.36
501.84	27274.26
502.02	27501.29
502.20	27459.16
502.37	27866.42
502.55	27807.90
502.72	27960.04
502.90	28025.57
503.07	28051.32
503.25	27929.61
503.43	27814.93
503.60	28177.71
503.78	28430.49
503.95	27943.66
504.13	28631.77
504.30	28531.13
504.48	28886.89
504.65	28692.63
504.83	28751.14
505.01	28744.12
505.18	29195.84
505.36	29284.78
505.53	29151.37
505.71	29577.35
505.88	29415.85
506.06	29111.58
506.23	29694.38
506.41	29312.87
506.58	29542.24
506.76	29668.63
506.93	29839.49
507.11	29823.11
507.28	29624.16
507.46	29879.28
507.63	29724.80
507.81	30197.59
507.98	30143.76
508.16	30284.19
508.33	30536.97
508.50	30693.79
508.68	30897.41
508.85	31201.68
509.03	30733.57
509.20	31089.34
509.38	30906.77
509.55	31077.63
509.73	31021.46
509.90	31257.85
510.08	30803.79
510.25	31398.29
510.42	31424.03
510.60	31924.91
510.77	31489.57
510.95	31852.35
511.12	31828.95
511.30	31866.39
511.47	32212.79
511.64	32163.64
511.82	32332.16
511.99	32070.02
512.17	32168.32
512.34	31674.47
512.51	32503.02
512.69	32659.84
512.86	32491.32
513.04	32823.67
513.21	32788.56
513.38	32837.72
513.56	32779.20
513.73	32617.71
513.90	32739.41
514.08	32840.06
514.25	32692.60
514.43	32723.03
514.60	32833.04
514.77	32905.59
514.95	33024.96
515.12	33205.18
515.29	33408.81
515.47	33813.72
515.64	33930.75
515.81	33598.39
515.99	33603.07
516.16	33450.94
516.33	33434.55
516.51	33689.67
516.68	33078.79
516.85	33031.98
517.03	33610.09
517.20	33947.13
517.37	34244.38
517.54	33965.85
517.72	34101.61
517.89	33993.94
518.06	33724.78
518.24	34005.64
518.41	33935.43
518.58	34309.91
518.75	34464.39
518.93	34541.63
519.10	34389.49
519.27	34859.94
519.45	34728.87
519.62	34918.45
519.79	35290.60
519.96	35218.04
520.14	35606.57
520.31	34742.91
520.48	35194.64
520.65	35222.72
520.83	35739.98
521.00	36095.74
521.17	35723.60
521.34	35798.49
521.52	35744.66
521.69	35557.42
521.86	35791.47
522.03	36016.16
522.20	36369.58
522.38	36521.72
522.55	35943.61
522.72	36154.26
522.89	36320.43
523.07	36313.41
523.24	36477.25
523.41	36837.69
523.58	36470.23
523.75	37329.20
523.92	37134.94
524.10	37097.49
524.27	36828.33
524.44	36825.99
524.61	37214.52
524.78	37359.63
524.96	37359.63
525.13	37471.98
525.30	37354.95
525.47	37792.63
525.64	37214.52
525.81	37432.19
525.98	37202.82
526.16	37497.72
526.33	37146.64
526.50	37092.81
526.67	36952.38
526.84	36879.82
527.01	37345.59
527.18	37823.06
527.36	37696.67
527.53	38092.22
527.70	38038.39
527.87	38480.75
528.04	37895.61
528.21	38101.58
528.38	38778.00
528.55	38639.90
528.72	38384.79
528.89	38766.29
529.07	38452.66
529.24	38398.83
529.41	38541.60
529.58	38632.88
529.75	38990.98
529.92	39023.75
530.09	38476.07
530.26	38859.91
530.43	38946.51
530.60	38780.34
530.77	39089.29
530.94	39407.60
531.11	39044.82
531.28	39529.31
531.46	39674.42
531.63	39454.41
531.80	39145.46
531.97	39210.99
532.14	39175.89
532.31	39196.95
532.48	39009.71
532.65	39442.71
532.82	39042.48
532.99	39599.52
533.16	39566.76
533.33	39992.73
533.50	40004.44
533.67	39718.89
533.84	39707.19
534.01	39845.28
534.18	39749.32
534.35	39889.75
534.52	39990.39
534.69	40184.66
534.86	40030.18
535.03	40271.26
535.20	40285.30
535.37	40662.13
535.54	41062.36
535.71	40502.97
535.88	40224.45
536.05	40154.23
536.22	40793.20
536.38	40680.85
536.55	40425.73
536.72	40421.05
536.89	40020.82
537.06	40861.07
537.23	40769.79
537.40	41104.49
537.57	40793.20
537.74	40863.41
537.91	41294.07
538.08	41062.36
538.25	40664.47
538.42	41132.57
538.59	41331.52
538.75	41116.19
538.92	40971.08
539.09	41230.88
539.26	41572.60
539.43	41167.68
539.60	41343.22
539.77	40968.74
539.94	40947.67
540.11	41167.68
540.28	40947.67
540.44	41467.27
540.61	41148.96
540.78	41090.44
540.95	41088.10
541.12	41287.05
541.29	41680.26
541.46	41553.87
541.62	41804.31
541.79	41584.30
541.96	41610.04
542.13	41476.63
542.30	41617.07
542.47	41663.88
542.63	42005.59
542.80	42057.09
542.97	42281.78
543.14	42373.06
543.31	42522.85
543.48	42082.83
543.64	42806.06
543.81	42733.50
543.98	42597.75
544.15	42410.51
544.32	42724.14
544.48	42815.42
544.65	42712.44
544.82	42845.85
544.99	42092.19
545.16	42300.50
545.32	42637.54
545.49	42822.44
545.66	43117.35
545.83	42494.77
546.00	43236.72
546.16	43187.56
546.33	43189.91
546.50	42698.39
546.67	43002.66
546.83	43229.69
547.00	43196.93
547.17	43133.73
547.34	42845.85
547.50	42742.86
547.67	43122.03
547.84	43290.55
548.00	43302.25
548.17	43346.72
548.34	43374.81
548.51	43510.56
548.67	43536.30
548.84	43501.20
549.01	43199.27
549.18	43519.92
549.34	43229.69
549.51	43622.90
549.68	43517.58
549.84	43723.55
550.01	43622.90
550.18	43377.15
550.34	43737.59
550.51	43868.66
550.68	43885.04
550.84	43473.11
551.01	44421.03
551.18	43351.40
551.34	43622.90
551.51	44058.24
551.68	43695.46
551.84	44030.16
552.01	43821.85
552.18	44095.69
552.34	43601.84
552.51	44170.59
552.68	44493.58
552.84	44088.67
553.01	44011.43
553.18	44121.44
553.34	44296.98
553.51	44521.67
553.67	44081.65
553.84	44439.75
554.01	44498.26
554.17	44498.26
554.34	44563.80
554.51	44500.61
554.67	44421.03
554.84	44322.72
555.00	44442.09
555.17	44025.48
555.33	44418.69
555.50	44538.05
555.67	44264.21
555.83	44184.63
556.00	44563.80
556.16	44854.03
556.33	44732.32
556.50	44428.05
556.66	44533.37
556.83	44350.81
556.99	44765.09
557.16	44636.36
557.32	44828.28
557.49	44875.09
557.65	44697.21
557.82	44849.35
557.98	44823.60
558.15	45177.02
558.32	45099.78
558.48	44863.39
558.65	44830.62
558.81	45048.29
558.98	45127.87
559.14	45074.04
559.31	44610.61
559.47	45382.99
559.64	44973.39
559.80	45153.62
559.97	44973.39
560.13	44802.53
560.30	44641.04
560.46	45453.20
560.63	44905.52
560.79	44971.05
560.96	45366.60
561.12	44917.22
561.29	44872.75
561.45	44821.26
561.61	44896.16
561.78	44966.37
561.94	45043.61
562.11	45247.24
562.27	45104.46
562.44	45064.67
562.60	45474.27
562.77	45387.67
562.93	44971.05
563.10	45476.61
563.26	44797.85
563.42	45722.37
563.59	45425.12
563.75	45350.22
563.92	45378.31
564.08	45453.20
564.24	45303.41
564.41	45467.25
564.57	45748.11
564.74	45036.59
564.90	45394.69
565.07	45612.36
565.23	45621.72
565.39	45179.36
565.56	45429.80
565.72	45013.18
565.88	45350.22
566.05	45099.78
566.21	45694.28
566.38	45249.58
566.54	45450.86
566.70	45752.79
566.87	45813.65
567.03	45603.00
567.19	46043.02
567.36	45612.36
567.52	45689.60
567.68	45500.01
567.85	45317.45
568.01	45614.70
568.17	45607.68
568.34	45607.68
568.50	45387.67
568.66	45364.26
568.83	45876.84
568.99	45078.72
569.15	45329.16
569.32	45605.34
569.48	45490.65
569.64	45743.43
569.81	45780.88
569.97	45422.78
570.13	45780.88
570.30	45434.48
570.46	45483.63
570.62	45352.56
570.78	45237.87
570.95	44971.05
571.11	45624.06
571.27	45268.30
571.43	45514.06
571.60	45741.09
571.76	45654.49
571.92	45544.48
572.09	45443.84
572.25	45441.50
572.41	45806.62
572.57	46122.60
572.74	46068.76
572.90	46057.06
573.06	45549.17
573.22	45631.08
573.38	45991.53
573.55	45347.88
573.71	45923.65
573.87	45504.70
574.03	45731.73
574.20	45574.91
574.36	45511.72
574.52	46057.06
574.68	45996.21
574.84	45942.38
575.01	45549.17
575.17	45359.58
575.33	45392.35
575.49	45717.68
575.65	45911.95
575.82	45745.77
575.98	45467.25
576.14	46007.91
576.30	46082.81
576.46	45928.33
576.62	45783.22
576.79	45598.32
576.95	45574.91
577.11	45502.35
577.27	45663.85
577.43	45504.70
577.59	45179.36
577.75	45928.33
577.92	45570.23
578.08	45287.03
578.24	45729.39
578.40	45701.30
578.56	46075.79
578.72	45474.27
578.88	46073.45
579.04	45642.79
579.21	45502.35
579.37	45523.42
579.53	46192.81
579.69	45780.88
579.85	45724.71
580.01	46204.52
580.17	45897.91
580.33	45965.78
580.49	46333.24
580.65	45907.27
580.82	46068.76
580.98	45897.91
581.14	45202.77
581.30	45951.74
581.46	45792.58
581.62	46028.98
581.78	45961.10
581.94	46244.30
582.10	45951.74
582.26	45785.56
582.42	46115.58
582.58	45965.78
582.74	45731.73
582.90	46454.95
583.06	46054.72
583.22	46057.06
583.38	46068.76
583.54	46122.60
583.70	45961.10
583.86	45876.84
584.02	46279.41
584.18	46047.70
584.34	45907.27
584.50	46206.86
584.66	46150.68
584.82	46274.73
584.98	45743.43
585.14	45853.44
585.30	46057.06
585.46	45900.25
585.62	46064.08
585.78	45614.70
585.94	45544.48
586.10	45762.15
586.26	45663.85
586.42	46220.90
586.58	45984.51
586.74	45991.53
586.90	46185.79
587.06	45776.20
587.22	45476.61
587.38	46045.36
587.54	45949.40
587.70	46153.02
587.86	45825.35
588.02	45881.52
588.18	46017.27
588.34	45572.57
588.49	45247.24
588.65	45099.78
588.81	45483.63
588.97	45853.44
589.13	45705.98
589.29	45427.46
589.45	45539.80
589.61	45846.41
589.77	45844.07
589.93	45991.53
590.08	45825.35
590.24	46567.30
590.40	46190.47
590.56	46637.51
590.72	46333.24
590.88	45593.64
591.04	45996.21
591.20	46497.08
591.35	46019.61
591.51	46616.45
591.67	45874.50
591.83	46115.58
591.99	46094.51
592.15	46014.93
592.31	46209.20
592.46	45851.09
592.62	45949.40
592.78	46319.20
592.94	45947.06
593.10	46096.85
593.26	46499.42
593.41	46333.24
593.57	46124.94
593.73	45904.93
593.89	46431.55
594.05	46260.69
594.20	45792.58
594.36	46019.61
594.52	46382.40
594.68	45670.87
594.84	45638.11
594.99	45813.65
595.15	45993.87
595.31	46370.69
595.47	46286.43
595.62	46185.79
595.78	46307.50
595.94	46241.96
596.10	46021.95
596.25	46031.32
596.41	46209.20
596.57	45731.73
596.73	46021.95
596.88	46014.93
597.04	46155.36
597.20	45888.54
597.36	46354.31
597.51	46485.38
597.67	46328.56
597.83	46314.52
597.99	46490.06
598.14	46263.03
598.30	46085.15
598.46	45794.92
598.61	46499.42
598.77	46078.13
598.93	46230.26
599.09	46181.11
599.24	46574.32
599.40	46134.30
599.56	46248.99
599.71	45928.33
599.87	46354.31
600.03	46387.08
600.18	46206.86
600.34	46131.96
600.50	46148.34
600.65	46031.32
600.81	46000.89
600.97	46321.54
601.12	46478.36
601.28	46127.28
601.44	46241.96
601.59	45956.42
601.75	45820.67
601.91	46492.40
602.06	45806.62
602.22	46183.45
602.37	45794.92
602.53	46298.14
602.69	46450.27
602.84	45921.31
603.00	46127.28
603.16	46028.98
603.31	46251.33
603.47	45928.33
603.62	46005.57
603.78	46398.78
603.94	46101.53
604.09	46057.06
604.25	46071.10
604.40	45425.12
604.56	45916.63
604.71	46412.82
604.87	46099.19
605.03	45724.71
605.18	45979.82
605.34	46064.08
605.49	45867.48
605.65	46073.45
605.80	45631.08
605.96	46007.91
606.12	46136.64
606.27	46265.37
606.43	46103.87
606.58	45762.15
606.74	45801.94
606.89	45837.05
607.05	45837.05
607.20	46122.60
607.36	46085.15
607.51	46368.35
607.67	46204.52
607.82	45846.41
607.98	45752.79
608.13	45567.89
608.29	45378.31
608.44	45270.64
608.60	45027.23
608.75	45848.75
608.91	45663.85
609.06	45907.27
609.22	45825.35
609.37	45324.47
609.53	45633.42
609.68	45886.20
609.84	45909.61
609.99	45422.78
610.15	45160.64
610.30	45198.09
610.46	45490.65
610.61	45525.76
610.76	45720.02
610.92	45687.26
611.07	45942.38
611.23	45743.43
611.38	45600.66
611.54	45139.57
611.69	45111.49
611.84	45263.62
612.00	45261.28
612.15	45200.43
612.31	45387.67
612.46	44954.67
612.62	45659.17
612.77	45338.52
612.92	45022.54
613.08	45567.89
613.23	45338.52
613.39	44856.37
613.54	44519.33
613.69	44692.53
613.85	44332.09
614.00	44741.68
614.15	44992.12
614.31	45013.18
614.46	45453.20
614.62	45322.13
614.77	45059.99
614.92	44931.26
615.08	44575.50
615.23	44622.31
615.38	44760.40
615.54	44601.25
615.69	45020.20
615.84	44919.56
616.00	44706.57
616.15	44435.07
616.30	45088.08
616.46	44634.02
616.61	44217.40
616.76	44512.31
616.92	44336.77
617.07	44746.36
617.22	44421.03
617.37	44669.12
617.53	44376.56
617.68	44500.61
617.83	44552.10
617.99	44301.66
618.14	44334.43
618.29	44271.23
618.45	44048.88
618.60	43988.03
618.75	43936.54
618.90	43985.69
619.06	44034.84
619.21	44444.43
619.36	43695.46
619.51	44083.99
619.67	43973.98
619.82	43952.92
619.97	44121.44
620.12	43548.01
620.28	43559.71
620.43	44154.21
620.58	43859.30
620.73	44069.95
620.89	44264.21
621.04	44444.43
621.19	44203.36
621.34	44011.43
621.49	43765.68
621.65	43845.26
621.80	43550.35
621.95	43723.55
622.10	43751.63
622.25	43625.25
622.41	43957.60
622.56	43653.33
622.71	44065.27
622.86	43945.90
623.01	43316.29
623.16	43758.66
623.32	43718.87
623.47	43739.93
623.62	43517.58
623.77	43253.10
623.92	43625.25
624.07	43330.34
624.23	43304.59
624.38	43199.27
624.53	43292.89
624.68	43386.51
624.83	43487.15
624.98	43103.31
625.13	43140.75
625.29	42883.30
625.44	42885.64
625.59	43030.75
625.74	42887.98
625.89	42864.57
626.04	42965.21
626.19	42621.16
626.34	42733.50
626.49	42714.78
626.65	42270.08
626.80	43206.29
626.95	42373.06
627.10	42604.77
627.25	43007.34
627.40	42373.06
627.55	42424.55
627.70	42335.61
627.85	42642.22
628.00	42909.04
628.15	42583.71
628.30	42656.26
628.45	42824.78
628.60	42625.84
628.76	42674.99
628.91	42239.65
629.06	42494.77
629.21	42335.61
629.36	42410.51
629.51	42380.08
629.66	42134.32
629.81	42129.64
629.96	42199.86
630.11	42452.64
630.26	42288.80
630.41	42380.08
630.56	42190.50
630.71	42122.62
630.86	42263.05
631.01	41860.48
631.16	42057.09
631.31	41743.45
631.46	41708.35
631.61	41904.95
631.76	41507.06
631.91	42071.13
632.06	41771.54
632.21	41832.39
632.36	42265.39
632.51	41230.88
632.66	41968.15
632.81	41614.72
632.96	41666.22
633.10	41574.94
633.25	41270.67
633.40	41830.05
633.55	41626.43
633.70	41727.07
633.85	41467.27
634.00	41670.90
634.15	41481.31
634.30	41434.50
634.45	41280.03
634.60	41497.70
634.75	41069.38
634.90	41483.66
635.05	41397.06
635.19	41275.35
635.34	41691.96
635.49	41230.88
635.64	41338.54
635.79	41083.42
635.94	41383.01
636.09	41230.88
636.24	41036.61
636.39	40741.71
636.53	40697.24
636.68	40947.67
636.83	40957.03
636.98	41172.36
637.13	41181.73
637.28	41310.46
637.43	41607.70
637.57	41221.52
637.72	40741.71
637.87	40903.20
638.02	40926.61
638.17	40758.09
638.32	40966.40
638.46	40889.16
638.61	40634.04
638.76	40821.28
638.91	40622.34
639.06	40355.52
639.20	40715.96
639.35	40842.35
639.50	40432.75
639.65	40601.27
639.80	40339.13
639.94	40259.55
640.09	40617.66
640.24	39962.31
640.39	40072.31
640.54	40184.66
640.68	39962.31
640.83	40217.43
640.98	40016.14
641.13	40044.23
641.27	40470.20
641.42	40025.50
641.57	40161.25
641.72	40133.17
641.86	40224.45
642.01	40076.99
642.16	40098.06
642.31	39494.20
642.45	40315.73
642.60	39690.80
642.75	39885.07
642.90	39676.76
643.04	40383.60
643.19	39700.17
643.34	39632.29
643.48	39796.13
643.63	39721.23
643.78	39854.64
643.93	40212.74
644.07	39229.72
644.22	39445.05
644.37	39475.48
644.51	39723.57
644.66	39414.62
644.81	39679.10
644.95	39821.87
645.10	39473.13
645.25	39599.52
645.39	39686.12
645.54	39791.45
645.69	38979.28
645.83	39349.09
645.98	39016.73
646.13	39494.20
646.27	39175.89
646.42	38667.99
646.57	39487.18
646.71	39110.35
646.86	39203.97
647.00	39428.66
647.15	39414.62
647.30	39119.71
647.44	39431.01
647.59	39746.98
647.74	38382.45
647.88	39033.11
648.03	38775.66
648.17	39339.72
648.32	39213.34
648.47	38625.86
648.61	38576.71
648.76	39428.66
648.90	38855.23
649.05	38663.31
649.20	38920.77
649.34	38888.00
649.49	38520.54
649.63	38953.54
649.78	38747.57
649.92	38656.29
650.07	39103.33
650.21	38391.81
650.36	38745.23
650.51	38948.85
650.65	39058.86
650.80	39241.42
650.94	38880.98
651.09	38419.89
651.23	38328.61
651.38	38124.99
651.52	37956.47
651.67	37935.40
651.81	37635.81
651.96	38667.99
652.10	38717.14
652.25	38567.35
652.39	38143.71
652.54	38600.12
652.68	38080.52
652.83	38410.53
652.97	38782.68
653.12	38735.87
653.26	37787.95
653.41	38202.22
653.55	37993.92
653.70	37675.60
653.84	37933.06
653.99	37926.04
654.13	37589.00
654.27	37841.78
654.42	37422.83
654.56	37649.86
654.71	37661.56
654.85	37727.10
655.00	37942.42
655.14	37617.09
655.29	37427.51
655.43	37713.05
655.57	36598.96
655.72	36989.83
655.86	36996.85
656.01	36753.43
656.15	36591.94
656.30	36720.66
656.44	37282.39
656.58	37146.64
656.73	37118.56
656.87	37247.29
657.01	36833.01
657.16	37296.44
657.30	36992.17
657.45	36594.28
657.59	37109.19
657.73	37064.72
657.88	37132.60
658.02	37006.21
658.16	37249.63
658.31	37270.69
658.45	37230.90
658.60	37034.30
658.74	37076.43
658.88	37148.98
659.03	36664.49
659.17	36573.21
659.31	36369.58
659.46	36638.75
659.60	36605.98
659.74	36577.89
659.89	36299.37
660.03	36587.25
660.17	36435.12
660.32	36339.16
660.46	36264.26
660.60	36470.23
660.74	36205.75
660.89	36135.53
661.03	36034.89
661.17	36418.74
661.32	36367.24
661.46	36046.59
661.60	35789.13
661.74	35552.74
661.89	35744.66
662.03	36222.13
662.17	35786.79
662.31	35648.70
662.46	35885.09
662.60	36222.13
662.74	35744.66
662.88	35370.18
663.03	35592.53
663.17	35501.25
663.31	35370.18
663.45	35754.02
663.60	35227.40
663.74	35552.74
663.88	35072.93
664.02	35119.74
664.17	35702.53
664.31	35084.63
664.45	34789.72
664.59	34614.18
664.73	35140.80
664.88	34920.79
665.02	34600.14
665.16	35131.44
665.30	34284.17
665.44	34588.44
665.59	34665.67
665.73	34438.64
665.87	34462.05
666.01	34026.71
666.15	34712.49
666.29	34139.05
666.44	34785.04
666.58	34340.34
666.72	34352.04
666.86	34614.18
667.00	34139.05
667.14	34270.12
667.28	34288.85
667.43	33991.60
667.57	34293.53
667.71	34068.84
667.85	34115.65
667.99	34050.11
668.13	33944.79
668.27	34342.68
668.41	34052.45
668.56	33965.85
668.70	33624.14
668.84	33544.56
668.98	33266.03
669.12	33188.80
669.26	33233.27
669.40	33312.84
669.54	32769.84
669.68	33085.81
669.82	32982.83
669.96	32961.76
670.10	32559.19
670.25	32713.67
670.39	32769.84
670.53	32652.81
670.67	33041.34
670.81	32701.96
670.95	32400.04
671.09	32629.41
671.23	32545.15
671.37	32226.84
671.51	32362.59
671.65	32367.27
671.79	31882.78
671.93	32407.06
672.07	32121.51
672.21	31810.22
672.35	31899.16
672.49	31674.47
672.63	31793.84
672.77	32053.64
672.91	31370.20
673.05	31997.46
673.19	31639.36
673.33	31531.70
673.47	31473.18
673.61	31550.42
673.75	31384.24
673.89	31070.61
674.03	31789.16
674.17	30897.41
674.31	31222.75
674.45	30958.27
674.59	31239.13
674.73	31393.61
674.87	30864.64
675.01	30441.01
675.15	30773.36
675.29	30651.66
675.43	30558.03
675.56	30731.23
675.70	30494.84
675.84	30457.39
675.98	29116.26
676.12	30218.66
676.26	30412.92
676.40	30237.38
676.54	30176.53
676.68	30036.09
676.82	29532.88
676.96	29825.45
677.10	30031.41
677.23	29495.43
677.37	29404.15
677.51	29486.07
677.65	29247.33
677.79	28882.21
677.93	29001.58
678.07	28823.70
678.21	28549.85
678.34	28662.20
678.48	28615.39
678.62	28257.29
678.76	28442.19
678.90	28404.74
679.04	27777.48
679.18	28322.82
679.31	27704.92
679.45	28032.60
679.59	28081.75
679.73	27903.87
679.87	27697.90
680.00	27672.15
680.14	27623.00
680.28	27892.16
680.42	27311.71
680.56	27321.07
680.70	27433.42
680.83	27393.63
680.97	27229.79
681.11	27810.25
681.25	27070.64
681.39	26988.72
681.52	27077.66
681.66	27166.60
681.80	26801.47
681.94	26677.43
682.07	26820.20
682.21	26092.29
682.35	26536.99
682.49	26096.97
682.62	26366.13
682.76	25839.51
682.90	25844.20
683.04	26040.80
683.17	25895.69
683.31	25790.36
683.45	25844.20
683.59	25418.22
683.72	25465.03
683.86	25724.83
684.00	25507.16
684.13	25135.01
684.27	24968.84
684.41	25085.86
684.55	24854.15
684.68	24826.06
684.82	24851.81
684.96	24584.99
685.09	24709.04
685.23	24470.30
685.37	24479.66
685.50	24196.46
685.64	24421.15
685.78	24381.36
685.91	23903.89
686.05	23763.46
686.19	23702.61
686.32	23594.94
686.46	23426.42
686.60	23084.70
686.73	23044.91
686.87	23110.45
687.01	23183.01
687.14	22778.09
687.28	22948.95
687.42	22871.72
687.55	23159.60
687.69	23178.33
687.82	22836.61
687.96	22927.89
688.10	22522.98
688.23	22576.81
688.37	22218.71
688.50	22438.72
688.64	22197.64
688.78	22176.58
688.91	22024.44
689.05	22235.09
689.18	21900.39
689.32	21631.23
689.46	22071.25
689.59	22132.11
689.73	21703.79
689.86	21703.79
690.00	21654.64
690.13	21834.86
690.27	21369.09
690.41	21041.42
690.54	21146.74
690.68	21305.90
690.81	21212.28
690.95	21125.68
691.08	21144.40
691.22	21067.16
691.35	21226.32
691.49	20772.25
691.62	20498.41
691.76	20709.06
691.89	20872.90
692.03	20056.05
692.16	20247.97
692.30	20224.57
692.43	20409.47
692.57	19988.18
692.70	19894.55
692.84	19688.59
692.97	19604.33
693.11	19648.80
693.24	19555.18
693.38	19508.37
693.51	19377.30
693.65	19688.59
693.78	19332.82
693.92	19346.87
694.05	19297.72
694.19	19220.48
694.32	19136.22
694.45	19014.51
694.59	19098.77
694.72	19049.62
694.86	18883.44
694.99	18611.94
695.13	18614.28
695.26	18848.33
695.39	18649.39
695.53	18579.17
695.66	18438.74
695.80	18436.40
695.93	18342.78
696.07	18221.07
696.20	18738.33
696.33	18068.94
696.47	18005.74
696.60	17748.28
696.73	17675.73
696.87	17715.51
697.00	17069.53
697.14	17462.74
697.27	17427.63
697.40	17497.84
697.54	17221.66
697.67	17256.77
697.80	17233.36
697.94	16779.30
698.07	17116.34
698.21	16912.71
698.34	17238.05
698.47	17053.14
698.61	16730.15
698.74	16772.28
698.87	16444.60
699.01	16308.85
699.14	16292.47
699.27	16341.62
699.40	16369.71
699.54	16016.29
699.67	16002.24
699.80	16318.22
699.94	16100.55
700.07	16020.97
700.20	15868.83
700.34	15836.06
700.47	15803.30
700.60	15946.07
700.73	15707.34
700.87	15625.42
701.00	15707.34
701.13	15618.39
701.26	15190.08
701.40	15257.95
701.53	15295.40
701.66	15269.66
701.79	14925.60
701.93	14841.34
702.06	14941.98
702.19	14499.62
702.32	14654.09
702.46	14904.53
702.59	14991.13
702.72	14700.90
702.85	14773.46
702.99	14485.58
703.12	14408.34
703.25	14303.01
703.38	14497.28
703.51	14356.85
703.65	14146.20
703.78	14207.05
703.91	13757.67
704.04	13898.10
704.17	13650.00
704.31	13947.25
704.44	13525.96
704.57	13650.00
704.70	13619.58
704.83	13434.68
704.96	13652.34
705.10	13589.15
705.23	13277.86
>>>>>End Processed Spectral Data<<<<<
