SpectraSuite Data File
++++++++++++++++++++++++++++++++++++
Date: Fri Oct 25 10:44:49 EDT 2013
User: price-jones
Dark Spectrum Present: No
Reference Spectrum Present: No
Number of Sampled Component Spectra: 1
Spectrometers: USB2+H05261
Integration Time (usec): 100000 (USB2+H05261)
Spectra Averaged: 1 (USB2+H05261)
Boxcar Smoothing: 0 (USB2+H05261)
Correct for Electrical Dark: No (USB2+H05261)
Strobe/Lamp Enabled: No (USB2+H05261)
Correct for Detector Non-linearity: No (USB2+H05261)
Correct for Stray Light: No (USB2+H05261)
Number of Pixels in Processed Spectrum: 2048
>>>>>Begin Processed Spectral Data<<<<<
365.73	119.37
365.92	119.37
366.12	119.37
366.32	4.68
366.52	84.26
366.72	0.00
366.91	39.79
367.11	0.00
367.31	0.00
367.51	0.00
367.70	0.00
367.90	28.09
368.10	25.75
368.30	16.38
368.49	0.00
368.69	28.09
368.89	72.56
369.09	0.00
369.28	23.41
369.48	0.00
369.68	53.83
369.87	112.35
370.07	72.56
370.27	65.54
370.47	243.42
370.66	344.06
370.86	402.57
371.06	404.91
371.25	430.66
371.45	379.17
371.65	484.49
371.84	433.00
372.04	454.06
372.24	433.00
372.44	437.68
372.63	472.79
372.83	592.16
373.03	461.09
373.22	507.90
373.42	440.02
373.62	482.15
373.81	484.49
374.01	535.98
374.21	421.30
374.40	507.90
374.60	557.05
374.79	594.50
374.99	543.00
375.19	493.85
375.38	554.71
375.58	631.94
375.78	580.45
375.97	589.82
376.17	514.92
376.37	594.50
376.56	629.60
376.76	498.53
376.95	550.03
377.15	741.95
377.35	645.99
377.54	594.50
377.74	561.73
377.93	568.75
378.13	543.00
378.33	578.11
378.52	634.29
378.72	653.01
378.91	606.20
379.11	550.03
379.31	641.31
379.50	678.76
379.70	734.93
379.89	767.70
380.09	655.35
380.28	650.67
380.48	594.50
380.68	664.71
380.87	645.99
381.07	669.39
381.26	704.50
381.46	699.82
381.65	627.26
381.85	669.39
382.04	730.25
382.24	711.52
382.43	655.35
382.63	638.97
382.83	723.23
383.02	788.76
383.22	746.63
383.41	627.26
383.61	690.46
383.80	713.86
384.00	671.73
384.19	709.18
384.39	826.21
384.58	770.04
384.78	662.37
384.97	793.44
385.17	833.23
385.36	741.95
385.56	765.36
385.75	816.85
385.95	823.87
386.14	805.14
386.34	763.01
386.53	763.01
386.72	753.65
386.92	877.70
387.11	781.74
387.31	748.97
387.50	805.14
387.70	816.85
387.89	805.14
388.09	795.78
388.28	861.32
388.48	807.48
388.67	898.77
388.86	854.30
389.06	833.23
389.25	849.61
389.45	870.68
389.64	809.83
389.84	959.62
390.03	997.07
390.22	961.96
390.42	800.46
390.61	873.02
390.81	901.11
391.00	966.64
391.19	929.19
391.39	968.98
391.58	964.30
391.78	901.11
391.97	947.92
392.16	985.37
392.36	994.73
392.55	1004.09
392.75	908.13
392.94	966.64
393.13	992.39
393.33	929.19
393.52	992.39
393.71	1057.92
393.91	1029.84
394.10	1034.52
394.29	1015.79
394.49	1069.62
394.68	1039.20
394.88	1067.28
395.07	1135.16
395.26	1048.56
395.46	1193.67
395.65	1064.94
395.84	1055.58
396.04	1259.21
396.23	1100.05
396.42	1121.12
396.62	1086.01
396.81	1083.67
397.00	1102.39
397.19	1203.04
397.39	1263.89
397.58	1203.04
397.77	1224.10
397.97	1242.82
398.16	1256.87
398.35	1334.11
398.55	1219.42
398.74	1268.57
398.93	1378.58
399.12	1277.93
399.32	1270.91
399.51	1345.81
399.70	1336.45
399.90	1324.74
400.09	1458.15
400.28	1399.64
400.47	1383.26
400.67	1526.03
400.86	1390.28
401.05	1373.89
401.24	1469.86
401.44	1540.07
401.63	1542.41
401.82	1572.84
402.01	1554.12
402.21	1540.07
402.40	1488.58
402.59	1441.77
402.78	1624.33
402.97	1603.27
403.17	1558.80
403.36	1624.33
403.55	1549.43
403.74	1647.74
403.93	1631.35
404.13	1614.97
404.32	1619.65
404.51	1619.65
404.70	1678.16
404.89	1558.80
405.09	1842.00
405.28	1654.76
405.47	1633.69
405.66	1661.78
405.85	1804.55
406.05	1792.85
406.24	1692.21
406.43	1710.93
406.62	1825.62
406.81	1881.79
407.00	1846.68
407.20	1797.53
407.39	1811.57
407.58	1914.56
407.77	1860.73
407.96	1923.92
408.15	1886.47
408.34	1940.30
408.54	2120.53
408.73	1994.14
408.92	2010.52
409.11	2054.99
409.30	2001.16
409.49	1989.46
409.68	2111.16
409.87	2062.01
410.07	2094.78
410.26	2101.80
410.45	2012.86
410.64	2183.72
410.83	2293.72
411.02	2279.68
411.21	2354.58
411.40	2249.25
411.59	2293.72
411.78	2235.21
411.98	2312.45
412.17	2298.41
412.36	2373.30
412.55	2319.47
412.74	2298.41
412.93	2427.14
413.12	2424.80
413.31	2487.99
413.50	2544.16
413.69	2452.88
413.88	2654.17
414.07	2579.27
414.26	2693.96
414.45	2677.57
414.64	2633.10
414.83	2745.45
415.02	2836.73
415.22	2794.60
415.41	2724.38
415.60	2649.49
415.79	2768.85
415.98	2832.05
416.17	2832.05
416.36	2806.30
416.55	2911.63
416.74	2960.78
416.93	2888.22
417.12	2981.84
417.31	2832.05
417.50	2991.20
417.69	3080.14
417.88	3204.19
418.07	3014.61
418.26	3075.46
418.45	3155.04
418.64	3157.38
418.83	3089.51
419.02	3098.87
419.21	3112.91
419.39	3162.06
419.58	3136.32
419.77	3229.94
419.96	3290.79
420.15	3279.09
420.34	3346.97
420.53	3461.65
420.72	3353.99
420.91	3311.86
421.10	3410.16
421.29	3480.38
421.48	3440.59
421.67	3398.46
421.86	3372.71
422.05	3389.10
422.24	3541.23
422.43	3468.67
422.61	3426.54
422.80	3487.40
422.99	3414.84
423.18	3520.17
423.37	3604.42
423.56	3475.70
423.75	3545.91
423.94	3489.74
424.13	3293.13
424.32	3351.65
424.50	3478.04
424.69	3496.76
424.88	3669.96
425.07	3662.94
425.26	3574.00
425.45	3522.51
425.64	3510.80
425.83	3709.75
426.01	3527.19
426.20	3730.81
426.39	3581.02
426.58	3620.81
426.77	3730.81
426.96	3571.66
427.15	3637.19
427.33	3639.53
427.52	3751.88
427.71	3791.67
427.90	3761.24
428.09	3857.20
428.28	3861.88
428.46	3742.52
428.65	3770.60
428.84	3840.82
429.03	3873.59
429.22	3651.24
429.40	3878.27
429.59	3777.62
429.78	3655.92
429.97	3595.06
430.16	3798.69
430.34	3716.77
430.53	3889.97
430.72	3992.95
430.91	3927.42
431.10	3885.29
431.28	4131.05
431.47	4241.05
431.66	4191.90
431.85	4145.09
432.03	4245.73
432.22	4241.05
432.41	4140.41
432.60	4294.88
432.79	4285.52
432.97	4285.52
433.16	4297.22
433.35	4182.54
433.54	4201.26
433.72	4320.63
433.91	4203.60
434.10	4252.75
434.28	4423.61
434.47	4411.91
434.66	4475.10
434.85	4472.76
435.03	4444.68
435.22	4444.68
435.41	4507.87
435.59	4482.13
435.78	4547.66
435.97	4650.64
436.16	4521.92
436.34	4528.94
436.53	4571.07
436.72	4629.58
436.90	4610.86
437.09	4760.65
437.28	4542.98
437.46	4645.96
437.65	4652.98
437.84	4631.92
438.02	4755.97
438.21	4802.78
438.40	4678.73
438.58	4795.76
438.77	4835.55
438.96	4919.81
439.14	4919.81
439.33	5001.72
439.52	5191.31
439.70	5179.61
439.89	5291.95
440.08	5249.82
440.26	5198.33
440.45	5076.62
440.63	5268.55
440.82	5483.88
441.01	5242.80
441.19	5399.62
441.38	5465.15
441.57	5533.03
441.75	5465.15
441.94	5715.59
442.12	5530.69
442.31	5851.34
442.50	5556.43
442.68	5652.39
442.87	5628.99
443.05	5713.25
443.24	5769.42
443.43	5849.00
443.61	5797.51
443.80	6024.54
443.98	5675.80
444.17	5507.28
444.35	5841.98
444.54	5884.11
444.73	5895.81
444.91	5935.60
445.10	5926.24
445.28	5872.40
445.47	5858.36
445.65	5694.52
445.84	5804.53
446.02	5839.64
446.21	5966.03
446.39	5856.02
446.58	5984.75
446.77	5973.05
446.95	5799.85
447.14	5963.68
447.32	6069.01
447.51	5900.49
447.69	5928.58
447.88	5966.03
448.06	6164.97
448.25	6012.84
448.43	6099.44
448.62	6061.99
448.80	5977.73
448.99	6230.51
449.17	6083.05
449.36	6244.55
449.54	6204.76
449.73	6366.26
449.91	6251.57
450.10	6354.55
450.28	6305.40
450.46	6230.51
450.65	6387.32
450.83	6581.59
451.02	6527.75
451.20	6525.41
451.39	6314.77
451.57	6359.24
451.76	6422.43
451.94	6420.09
452.13	6672.87
452.31	6518.39
452.49	6408.39
452.68	6424.77
452.86	6403.71
453.05	6574.56
453.23	6544.14
453.42	6616.69
453.60	6558.18
453.78	6780.53
453.97	6654.14
454.15	6661.16
454.34	6534.78
454.52	6672.87
454.70	6733.72
454.89	6839.05
455.07	6782.87
455.26	6890.54
455.44	7131.61
455.62	6899.90
455.81	7023.95
455.99	6958.41
456.17	6960.75
456.36	7040.33
456.54	7091.82
456.73	7087.14
456.91	7335.24
457.09	7344.60
457.28	7311.83
457.46	7222.89
457.64	7332.90
457.83	7258.00
458.01	7023.95
458.19	7330.56
458.38	7365.67
458.56	7435.88
458.74	7440.56
458.93	7386.73
459.11	7431.20
459.29	7424.18
459.48	7566.95
459.66	7421.84
459.84	7578.65
460.03	7768.24
460.21	7662.91
460.39	7721.43
460.57	7669.94
460.76	7744.83
460.94	7962.50
461.12	7763.56
461.31	7892.29
461.49	7801.01
461.67	7941.44
461.85	7943.78
462.04	7784.62
462.22	8091.23
462.40	7941.44
462.59	7852.50
462.77	8016.33
462.95	8039.74
463.13	7988.25
463.32	8042.08
463.50	8116.98
463.68	8037.40
463.86	8269.11
464.05	8280.82
464.23	8109.96
464.41	8114.64
464.59	8278.47
464.78	8444.65
464.96	8306.56
465.14	8241.03
465.32	8287.84
465.50	8285.50
465.69	8475.08
465.87	8397.84
466.05	8304.22
466.23	8290.18
466.41	8245.71
466.60	8636.58
466.78	8278.47
466.96	8503.17
467.14	8458.70
467.32	8617.85
467.51	8652.96
467.69	8404.86
467.87	8435.29
468.05	8671.68
468.23	8676.37
468.41	8601.47
468.60	8603.81
468.78	8767.65
468.96	8596.79
469.14	8856.59
469.32	9078.94
469.50	8641.26
469.69	8856.59
469.87	8884.67
470.05	8922.12
470.23	9130.43
470.41	8985.32
470.59	9067.24
470.77	8968.93
470.95	8994.68
471.14	9275.54
471.32	9053.19
471.50	9224.05
471.68	9418.32
471.86	9287.25
472.04	9329.38
472.22	9558.75
472.40	9238.09
472.58	9273.20
472.77	9448.74
472.95	9612.58
473.13	9998.77
473.31	9465.13
473.49	9664.07
473.67	9802.16
473.85	9729.61
474.03	10040.90
474.21	10092.39
474.39	10076.01
474.57	10083.03
474.75	10083.03
474.93	10370.91
475.12	10338.15
475.30	10305.38
475.48	10300.70
475.66	10483.26
475.84	10293.68
476.02	10597.95
476.20	10237.50
476.38	10431.77
476.56	10787.53
476.74	10602.63
476.92	10628.37
477.10	10794.55
477.28	10934.98
477.46	10939.66
477.64	11117.54
477.82	11187.76
478.00	11620.76
478.18	11501.39
478.36	11534.16
478.54	11555.22
478.72	11679.27
478.90	11910.99
479.08	11878.22
479.26	11894.60
479.44	11812.68
479.62	12023.33
479.80	12138.02
479.98	12161.42
480.16	12360.37
480.34	12250.36
480.52	12666.98
480.70	12762.94
480.88	12292.49
481.06	12606.13
481.24	12877.63
481.41	13071.89
481.59	12945.50
481.77	13153.81
481.95	12959.55
482.13	13111.68
482.31	13287.22
482.49	13706.18
482.67	13359.78
482.85	13785.76
483.03	13820.86
483.21	13771.71
483.39	13879.38
483.57	13984.70
483.74	14083.00
483.92	14284.29
484.10	14218.75
484.28	14263.22
484.46	14738.35
484.64	14761.76
484.82	14736.01
485.00	14902.19
485.18	15080.07
485.35	15140.93
485.53	14771.12
485.71	14855.38
485.89	15115.18
486.07	15126.88
486.25	15492.01
486.43	15618.39
486.61	16018.63
486.78	15868.83
486.96	15901.60
487.14	16189.49
487.32	16425.88
487.50	16486.73
487.68	16538.23
487.85	16599.08
488.03	17048.46
488.21	17448.69
488.39	16912.71
488.57	17460.40
488.75	17280.18
488.92	17425.29
489.10	17561.04
489.28	17598.49
489.46	18122.77
489.64	17895.74
489.81	18455.12
489.99	18214.05
490.17	18405.97
490.35	18717.26
490.53	18682.16
490.70	18778.12
490.88	18630.66
491.06	19173.67
491.24	18883.44
491.41	19000.47
491.59	19227.50
491.77	19264.95
491.95	19695.61
492.13	19681.56
492.30	19829.02
492.48	19988.18
492.66	19796.25
492.84	20109.88
493.01	20044.35
493.19	20395.43
493.37	20500.75
493.54	20489.05
493.72	20695.02
493.90	20652.89
494.08	20798.00
494.25	21095.25
494.43	21563.36
494.61	21582.08
494.79	21362.07
494.96	21348.03
495.14	21530.59
495.32	21759.96
495.49	21579.74
495.67	21846.56
495.85	22089.98
496.02	22295.94
496.20	22668.09
496.38	22707.88
496.55	22314.67
496.73	22988.74
496.91	23002.78
497.09	23019.17
497.26	23161.94
497.44	22885.76
497.62	22967.68
497.79	23545.79
497.97	23314.08
498.14	23592.60
498.32	23676.86
498.50	23861.76
498.67	23962.40
498.85	23840.70
499.03	24006.87
499.20	24074.75
499.38	24315.83
499.56	24287.74
499.73	24318.17
499.91	24723.08
500.08	24615.41
500.26	24311.14
500.44	24835.42
500.61	24884.58
500.79	24294.76
500.97	24629.46
501.14	25062.46
501.32	25535.24
501.49	25020.33
501.67	25324.60
501.84	25319.92
502.02	25282.47
502.20	25685.04
502.37	25895.69
502.55	25912.07
502.72	26125.06
502.90	25869.94
503.07	26050.16
503.25	26209.32
503.43	26092.29
503.60	26216.34
503.78	25956.54
503.95	26529.97
504.13	26705.51
504.30	26595.51
504.48	26721.90
504.65	26754.66
504.83	26869.35
505.01	27311.71
505.18	27091.70
505.36	27513.00
505.53	27269.58
505.71	27545.76
505.88	27414.69
506.06	27480.23
506.23	27267.24
506.41	27515.34
506.58	28100.47
506.76	27782.16
506.93	27931.95
507.11	27772.80
507.28	27845.35
507.46	27913.23
507.63	28360.27
507.81	28142.60
507.98	28070.04
508.16	28151.96
508.33	28655.18
508.50	28673.90
508.68	28479.64
508.85	28683.27
509.03	28599.01
509.20	28507.72
509.38	29015.62
509.55	28900.94
509.73	29163.08
509.90	29134.99
510.08	29209.89
510.25	29048.39
510.42	29092.86
510.60	29347.98
510.77	29479.05
510.95	29537.56
511.12	29834.81
511.30	30174.19
511.47	30260.79
511.64	30197.59
511.82	30621.23
511.99	29731.83
512.17	30008.01
512.34	30106.31
512.51	30129.72
512.69	30333.34
512.86	30749.96
513.04	30529.95
513.21	30745.28
513.38	30604.84
513.56	30574.42
513.73	30293.55
513.90	30967.63
514.08	31431.05
514.25	31145.51
514.43	31103.38
514.60	30998.06
514.77	31307.01
514.95	31536.38
515.12	31620.64
515.29	31405.31
515.47	31899.16
515.64	31606.59
515.81	31164.23
515.99	31318.71
516.16	31728.30
516.33	31751.71
516.51	32109.81
516.68	31087.00
516.85	31538.72
517.03	31936.61
517.20	31917.89
517.37	31648.72
517.54	32004.49
517.72	32123.85
517.89	32212.79
518.06	32463.23
518.24	32327.48
518.41	32004.49
518.58	32385.99
518.75	32842.40
518.93	32500.68
519.10	32627.07
519.27	32868.14
519.45	33188.80
519.62	32854.10
519.79	32992.19
519.96	33369.02
520.14	33165.39
520.31	33027.30
520.48	33031.98
520.65	33310.50
520.83	33677.97
521.00	33567.96
521.17	33652.22
521.34	33996.28
521.52	33729.46
521.69	33532.86
521.86	33926.07
522.03	34249.06
522.20	34183.52
522.38	34162.46
522.55	34396.51
522.72	34132.03
522.89	34155.44
523.07	34499.50
523.24	34003.30
523.41	34520.56
523.58	34663.33
523.75	34719.51
523.92	34855.26
524.10	34876.32
524.27	35304.64
524.44	35101.01
524.61	35227.40
524.78	35314.00
524.96	35309.32
525.13	34890.37
525.30	35681.47
525.47	35363.15
525.64	35166.55
525.81	35477.84
525.98	35838.28
526.16	35108.04
526.33	35250.81
526.50	35758.70
526.67	35292.94
526.84	35297.62
527.01	35388.90
527.18	35576.14
527.36	35964.67
527.53	35959.99
527.70	36243.20
527.87	36308.73
528.04	36219.79
528.21	36041.91
528.38	35917.86
528.55	36495.97
528.72	36215.11
528.89	36479.59
529.07	36554.49
529.24	36465.55
529.41	36367.24
529.58	36797.90
529.75	36411.71
529.92	36910.25
530.09	36657.47
530.26	37102.17
530.43	36966.42
530.60	36795.56
530.77	36996.85
530.94	36753.43
531.11	37219.20
531.28	37013.23
531.46	36807.26
531.63	37373.67
531.80	37422.83
531.97	37387.72
532.14	37053.02
532.31	36980.46
532.48	37198.13
532.65	37523.47
532.82	37376.01
532.99	37530.49
533.16	37659.22
533.33	37439.21
533.50	38096.90
533.67	38094.56
533.84	37694.33
534.01	37790.29
534.18	37563.26
534.35	38225.63
534.52	38099.24
534.69	38417.55
534.86	37912.00
535.03	38010.30
535.20	38712.46
535.37	38396.49
535.54	38719.48
535.71	38206.90
535.88	38623.52
536.05	38644.59
536.22	38389.47
536.38	38525.22
536.55	38593.09
536.72	38499.47
536.89	38403.51
537.06	38721.82
537.23	39147.80
537.40	38712.46
537.57	38813.10
537.74	39103.33
537.91	38998.01
538.08	39129.08
538.25	38801.40
538.42	38895.02
538.59	39302.28
538.75	38607.14
538.92	39117.37
539.09	39278.87
539.26	39510.58
539.43	39332.70
539.60	39501.22
539.77	39161.84
539.94	39416.96
540.11	39337.38
540.28	39206.31
540.44	39138.44
540.61	39529.31
540.78	39026.09
540.95	39428.66
541.12	39110.35
541.29	39091.63
541.46	39309.30
541.62	39807.83
541.79	39974.01
541.96	39515.26
542.13	39854.64
542.30	39856.98
542.47	40135.51
542.63	39896.77
542.80	40175.30
542.97	40575.53
543.14	40332.11
543.31	40341.47
543.48	40397.65
543.64	40797.88
543.81	40935.97
543.98	40837.67
544.15	40343.81
544.32	40538.08
544.48	41031.93
544.65	40774.47
544.82	40910.22
544.99	40446.80
545.16	40917.25
545.32	40828.30
545.49	41099.81
545.66	41301.09
545.83	41118.53
546.00	41366.63
546.16	40987.46
546.33	41031.93
546.50	41120.87
546.67	40858.73
546.83	41265.99
547.00	41303.43
547.17	41315.14
547.34	41116.19
547.50	41029.59
547.67	41509.40
547.84	41785.58
548.00	41439.18
548.17	41539.83
548.34	41357.27
548.51	41900.27
548.67	41497.70
548.84	42099.22
549.01	41647.49
549.18	41352.58
549.34	41432.16
549.51	41535.15
549.68	41778.56
549.84	42005.59
550.01	42085.17
550.18	41860.48
550.34	41745.80
550.51	42197.52
550.68	42014.96
550.84	41535.15
551.01	41883.89
551.18	41823.03
551.34	41638.13
551.51	41907.29
551.68	42548.60
551.84	42417.53
552.01	41879.21
552.18	42155.39
552.34	42026.66
552.51	42646.90
552.68	42555.62
552.84	42403.49
553.01	42752.23
553.18	42071.13
553.34	42600.09
553.51	42197.52
553.67	42106.24
553.84	42717.12
554.01	42581.37
554.17	42674.99
554.34	42639.88
554.51	42770.95
554.67	42892.66
554.84	42834.14
555.00	42522.85
555.17	42607.11
555.33	42539.24
555.50	42359.02
555.67	42316.89
555.83	42564.98
556.00	42911.38
556.16	43161.82
556.33	43206.29
556.50	42967.55
556.66	43164.16
556.83	42983.94
556.99	43365.45
557.16	43232.04
557.32	43234.38
557.49	43339.70
557.65	42852.87
557.82	43089.26
557.98	42639.88
558.15	42911.38
558.32	43461.41
558.48	42880.95
558.65	43126.71
558.81	43072.88
558.98	43292.89
559.14	43049.47
559.31	43005.00
559.47	43737.59
559.64	43288.21
559.80	43522.26
559.97	43442.68
560.13	42983.94
560.30	43459.07
560.46	43089.26
560.63	43225.01
560.79	43906.11
560.96	43831.21
561.12	43412.26
561.29	43512.90
561.45	43107.99
561.61	43716.53
561.78	43842.92
561.94	43332.68
562.11	43688.44
562.27	43475.45
562.44	43129.05
562.60	43826.53
562.77	43920.15
562.93	43608.86
563.10	43901.43
563.26	43426.30
563.42	43646.31
563.59	43641.63
563.75	43831.21
563.92	43784.40
564.08	43639.29
564.24	44044.20
564.41	43917.81
564.57	43440.34
564.74	43749.29
564.90	43739.93
565.07	43973.98
565.23	44208.04
565.39	43908.45
565.56	44105.06
565.72	43728.23
565.88	43758.66
566.05	43681.42
566.21	44147.18
566.38	43786.74
566.54	43868.66
566.70	44100.37
566.87	44280.60
567.03	44203.36
567.19	44493.58
567.36	44268.89
567.52	43903.77
567.68	43889.73
567.85	43997.39
568.01	44149.53
568.17	44016.11
568.34	44215.06
568.50	43997.39
568.66	43924.83
568.83	44252.51
568.99	43786.74
569.15	43812.49
569.32	43957.60
569.48	43826.53
569.64	44605.93
569.81	44467.84
569.97	44215.06
570.13	43807.81
570.30	43831.21
570.46	44076.97
570.62	43814.83
570.78	44093.35
570.95	43952.92
571.11	43971.64
571.27	44327.41
571.43	44201.02
571.60	44086.33
571.76	44004.41
571.92	44453.79
572.09	44184.63
572.25	44292.30
572.41	44196.34
572.57	44299.32
572.74	44612.95
572.90	44575.50
573.06	44446.77
573.22	44341.45
573.38	44149.53
573.55	43952.92
573.71	44376.56
573.87	44128.46
574.03	44091.01
574.20	44797.85
574.36	44023.14
574.52	44783.81
574.68	44573.16
574.84	44535.71
575.01	44383.58
575.17	44474.86
575.33	44161.23
575.49	44144.84
575.65	44444.43
575.82	44470.18
575.98	44432.73
576.14	44744.02
576.30	44446.77
576.46	44168.25
576.62	44268.89
576.79	44231.44
576.95	44203.36
577.11	44421.03
577.27	44390.60
577.43	44783.81
577.59	44432.73
577.75	44451.45
577.92	44123.78
578.08	44020.80
578.24	44025.48
578.40	44020.80
578.56	44612.95
578.72	44243.15
578.88	44708.91
579.04	44437.41
579.21	44161.23
579.37	44568.48
579.53	44755.72
579.69	43952.92
579.85	43966.96
580.01	44308.68
580.17	44650.40
580.33	44563.80
580.49	44650.40
580.65	44453.79
580.82	44725.30
580.98	44437.41
581.14	44397.62
581.30	44516.99
581.46	44947.65
581.62	44502.95
581.78	44673.81
581.94	44842.32
582.10	44638.70
582.26	44924.24
582.42	44566.14
582.58	44486.56
582.74	44348.47
582.90	44568.48
583.06	44842.32
583.22	44973.39
583.38	44844.66
583.54	44844.66
583.70	44629.34
583.86	44554.44
584.02	44325.07
584.18	44369.54
584.34	44554.44
584.50	44287.62
584.66	44203.36
584.82	44411.67
584.98	44928.92
585.14	44933.60
585.30	44722.96
585.46	44624.65
585.62	44540.39
585.78	44304.00
585.94	44301.66
586.10	44535.71
586.26	44357.83
586.42	44872.75
586.58	44821.26
586.74	44638.70
586.90	44727.64
587.06	44430.39
587.22	44556.78
587.38	44605.93
587.54	44865.73
587.70	44446.77
587.86	44226.76
588.02	44402.30
588.18	44428.05
588.34	44304.00
588.49	44491.24
588.65	44048.88
588.81	44788.49
588.97	44734.66
589.13	44308.68
589.29	44484.22
589.45	44697.21
589.61	44559.12
589.77	45130.21
589.93	44498.26
590.08	44978.07
590.24	44980.42
590.40	44889.13
590.56	44847.00
590.72	44683.17
590.88	44540.39
591.04	44746.36
591.20	45186.38
591.35	45303.41
591.51	45050.63
591.67	45130.21
591.83	45090.42
591.99	44954.67
592.15	44914.88
592.31	45097.44
592.46	44566.14
592.62	45078.72
592.78	45172.34
592.94	44954.67
593.10	44940.63
593.26	44416.35
593.41	45090.42
593.57	44734.66
593.73	44643.38
593.89	44973.39
594.05	44919.56
594.20	44823.60
594.36	44884.45
594.52	44783.81
594.68	44996.80
594.84	44847.00
594.99	45219.15
595.15	45270.64
595.31	45144.25
595.47	45303.41
595.62	45200.43
595.78	45120.85
595.94	45469.59
596.10	45125.53
596.25	45390.01
596.41	45380.65
596.57	44987.44
596.73	45237.87
596.88	44729.98
597.04	44921.90
597.20	45359.58
597.36	44996.80
597.51	45315.11
597.67	45399.37
597.83	44636.36
597.99	45048.29
598.14	45256.60
598.30	45202.77
598.46	45111.49
598.61	44966.37
598.77	44751.04
598.93	45057.65
599.09	44538.05
599.24	45815.99
599.40	45188.72
599.56	44739.34
599.71	44804.88
599.87	45256.60
600.03	45024.89
600.18	44465.50
600.34	44844.66
600.50	44783.81
600.65	44694.87
600.81	44912.54
600.97	45645.13
601.12	45010.84
601.28	45364.26
601.44	44811.90
601.59	44949.99
601.75	44769.77
601.91	44954.67
602.06	44610.61
602.22	45083.40
602.37	45261.28
602.53	45008.50
602.69	45427.46
602.84	44811.90
603.00	44662.10
603.16	44898.50
603.31	44926.58
603.47	45181.70
603.62	44945.31
603.78	45170.00
603.94	45584.27
604.09	45202.77
604.25	44959.35
604.40	44952.33
604.56	44844.66
604.71	44507.63
604.87	44870.41
605.03	44861.05
605.18	44783.81
605.34	44701.89
605.49	44556.78
605.65	45006.16
605.80	44877.43
605.96	45059.99
606.12	44795.51
606.27	45155.96
606.43	44949.99
606.58	44952.33
606.74	44383.58
606.89	44603.59
607.05	44985.10
607.20	44875.09
607.36	44816.58
607.51	44467.84
607.67	44914.88
607.82	45076.38
607.98	44617.63
608.13	44554.44
608.29	44531.03
608.44	44381.24
608.60	44376.56
608.75	44395.28
608.91	44563.80
609.06	44210.38
609.22	45177.02
609.37	44203.36
609.53	44484.22
609.68	44414.01
609.84	44219.74
609.99	44781.47
610.15	44325.07
610.30	44081.65
610.46	44151.87
610.61	44416.35
610.76	44521.67
610.92	44568.48
611.07	44580.18
611.23	44641.04
611.38	44524.01
611.54	44528.69
611.69	44502.95
611.84	44086.33
612.00	44418.69
612.15	44289.96
612.31	44348.47
612.46	43955.26
612.62	44020.80
612.77	44137.82
612.92	44470.18
613.08	43709.50
613.23	43981.01
613.39	44231.44
613.54	44500.61
613.69	44135.48
613.85	43910.79
614.00	44414.01
614.15	44275.91
614.31	44123.78
614.46	44444.43
614.62	44034.84
614.77	43889.73
614.92	43849.94
615.08	43784.40
615.23	43709.50
615.38	44184.63
615.54	43430.98
615.69	43297.57
615.84	43693.12
616.00	44116.76
616.15	43555.03
616.30	43452.05
616.46	43487.15
616.61	43863.98
616.76	43611.20
616.92	43201.61
617.07	43201.61
617.22	43438.00
617.37	43449.70
617.53	44088.67
617.68	43831.21
617.83	43922.49
617.99	43459.07
618.14	43463.75
618.29	43580.78
618.45	43012.02
618.60	43407.58
618.75	43295.23
618.90	43522.26
619.06	43433.32
619.21	43702.48
619.36	43835.89
619.51	43217.99
619.67	43217.99
619.82	43606.52
619.97	43447.36
620.12	43730.57
620.28	42986.28
620.43	42981.60
620.58	42864.57
620.73	43281.19
620.89	43328.00
621.04	43239.06
621.19	42749.88
621.34	43042.45
621.49	42693.71
621.65	42705.41
621.80	42684.35
621.95	42937.13
622.10	42337.95
622.25	42375.40
622.41	42281.78
622.56	42291.14
622.71	42651.58
622.86	42433.91
623.01	42674.99
623.16	42728.82
623.32	42471.36
623.47	42878.61
623.62	42473.70
623.77	42302.84
623.92	42340.29
624.07	42293.48
624.23	41993.89
624.38	42316.89
624.53	42422.21
624.68	42415.19
624.83	42644.56
624.98	42239.65
625.13	42323.91
625.29	42614.13
625.44	42160.07
625.59	42040.70
625.74	41827.71
625.89	41933.04
626.04	41989.21
626.19	42080.49
626.34	42366.04
626.49	42337.95
626.65	41865.16
626.80	42206.88
626.95	42136.66
627.10	41631.11
627.25	41928.36
627.40	41722.39
627.55	41567.91
627.70	41511.74
627.85	41453.23
628.00	41457.91
628.15	41486.00
628.30	41663.88
628.45	41698.98
628.60	41766.86
628.76	41668.56
628.91	41542.17
629.06	41572.60
629.21	41530.47
629.36	41785.58
629.51	41474.29
629.66	41233.22
629.81	41511.74
629.96	41411.10
630.11	41172.36
630.26	41556.21
630.41	41801.97
630.56	41495.36
630.71	41579.62
630.86	41174.70
631.01	40797.88
631.16	41750.48
631.31	41261.30
631.46	40612.98
631.61	41116.19
631.76	41195.77
631.91	41483.66
632.06	40683.19
632.21	41078.74
632.36	41462.59
632.51	41067.04
632.66	40786.18
632.81	40540.42
632.96	41155.98
633.10	40622.34
633.25	41165.34
633.40	40914.90
633.55	40847.03
633.70	40769.79
633.85	40591.91
634.00	40715.96
634.15	40549.78
634.30	40620.00
634.45	40542.76
634.60	40498.29
634.75	40495.95
634.90	40507.65
635.05	40783.83
635.19	40006.78
635.34	40528.72
635.49	40191.68
635.64	40416.37
635.79	40840.01
635.94	40357.86
636.09	40414.03
636.24	40009.12
636.39	40439.78
636.53	40053.59
636.68	40046.57
636.83	40350.84
636.98	40278.28
637.13	39842.94
637.28	40350.84
637.43	40439.78
637.57	40568.51
637.72	40287.64
637.87	40048.91
638.02	39985.71
638.17	40215.08
638.32	39688.46
638.46	40119.12
638.61	40123.80
638.76	39758.68
638.91	40219.77
639.06	39721.23
639.20	40062.95
639.35	40034.86
639.50	39672.08
639.65	40062.95
639.80	40091.04
639.94	39903.79
640.09	39421.64
640.24	39658.04
640.39	39260.15
640.54	39777.40
640.68	39882.73
640.83	39831.24
640.98	39573.78
641.13	39393.56
641.27	39765.70
641.42	39278.87
641.57	39456.75
641.72	39227.38
641.86	39131.42
642.01	39356.11
642.16	38803.74
642.31	38735.87
642.45	39271.85
642.60	39295.25
642.75	39028.43
642.90	39072.90
643.04	39328.02
643.19	38897.36
643.34	39236.74
643.48	38880.98
643.63	39147.80
643.78	39023.75
643.93	38466.70
644.07	38389.47
644.22	38724.16
644.37	38817.78
644.51	38883.32
644.66	39019.07
644.81	39147.80
644.95	39159.50
645.10	39005.03
645.25	38632.88
645.39	38644.59
645.54	39292.91
645.69	38855.23
645.83	38632.88
645.98	38675.01
646.13	38873.96
646.27	38822.47
646.42	38513.52
646.57	38220.95
646.71	38424.57
646.86	38653.95
647.00	38677.35
647.15	38520.54
647.30	38424.57
647.44	38300.53
647.59	38431.60
647.74	38712.46
647.88	38436.28
648.03	38532.24
648.17	38345.00
648.32	38349.68
648.47	38485.43
648.61	38082.86
648.76	38459.68
648.90	38029.02
649.05	38354.36
649.20	38326.27
649.34	38373.08
649.49	38036.05
649.63	38066.47
649.78	37801.99
649.92	38033.71
650.07	38576.71
650.21	37663.90
650.36	37663.90
650.51	38218.61
650.65	38455.00
650.80	38457.34
650.94	37921.36
651.09	37844.12
651.23	37748.16
651.38	37965.83
651.52	37757.52
651.67	37598.37
651.81	37752.84
651.96	37148.98
652.10	37490.70
652.25	37713.05
652.39	37593.68
652.54	37764.54
652.68	37820.72
652.83	38054.77
652.97	37743.48
653.12	37914.34
653.26	37315.16
653.41	37448.57
653.55	37219.20
653.70	37649.86
653.84	37565.60
653.99	37317.50
654.13	37156.00
654.27	37214.52
654.42	36985.15
654.56	36973.44
654.71	37493.04
654.85	37172.39
655.00	37390.06
655.14	36598.96
655.29	36746.41
655.43	36833.01
655.57	36594.28
655.72	36692.58
655.86	36978.12
656.01	36374.27
656.15	36638.75
656.30	37144.30
656.44	36790.88
656.58	36797.90
656.73	36994.51
656.87	36797.90
657.01	36968.76
657.16	36519.38
657.30	36526.40
657.45	36676.19
657.59	36463.21
657.73	36790.88
657.88	36730.03
658.02	36809.61
658.16	37062.38
658.31	36711.30
658.45	36540.44
658.60	36313.41
658.74	36458.52
658.88	36720.66
659.03	36271.28
659.17	36341.50
659.31	36123.83
659.46	36357.88
659.60	36350.86
659.74	36409.37
659.89	36079.36
660.03	35880.41
660.17	35990.42
660.32	36294.69
660.46	35901.48
660.60	35793.81
660.74	36037.23
660.89	35880.41
661.03	35662.74
661.17	35756.36
661.32	35644.02
661.46	35370.18
661.60	35761.05
661.74	35374.86
661.89	35381.88
662.03	35409.96
662.17	35306.98
662.31	35040.16
662.46	35812.54
662.60	35871.05
662.74	35360.81
662.88	34761.64
663.03	34909.09
663.17	34799.08
663.31	35281.24
663.45	34581.42
663.60	35082.29
663.74	34899.73
663.88	34555.67
664.02	34873.98
664.17	35145.48
664.31	34731.21
664.45	34422.26
664.59	34546.31
664.73	34143.74
664.88	34342.68
665.02	34314.59
665.16	34426.94
665.30	34560.35
665.44	34412.90
665.59	33895.64
665.73	34244.38
665.87	33893.30
666.01	33977.56
666.15	34003.30
666.29	33900.32
666.44	34211.61
666.58	33914.36
666.72	33727.12
666.86	33902.66
667.00	33839.47
667.14	33745.84
667.28	33467.32
667.43	33357.32
667.57	33350.29
667.71	33317.53
667.85	33216.88
667.99	33734.14
668.13	33736.48
668.27	33490.73
668.41	33387.74
668.56	32744.09
668.70	33340.93
668.84	33303.48
668.98	33109.22
669.12	32797.93
669.26	33029.64
669.40	32741.75
669.54	32261.94
669.68	32587.28
669.82	32669.20
669.96	32325.14
670.10	32320.46
670.25	32512.38
670.39	32091.09
670.53	32182.37
670.67	32037.25
670.81	32723.03
670.95	32446.85
671.09	32002.14
671.23	31950.65
671.37	31833.63
671.51	31985.76
671.65	32013.85
671.79	31580.85
671.93	31622.98
672.07	31625.32
672.21	32109.81
672.35	31634.68
672.49	32151.94
672.63	31482.55
672.77	31747.03
672.91	31824.26
673.05	31468.50
673.19	31007.42
673.33	31096.36
673.47	31211.04
673.61	31105.72
673.75	30991.03
673.89	30916.14
674.03	30445.69
674.17	30686.76
674.31	30969.97
674.45	30913.80
674.59	30890.39
674.73	31035.50
674.87	30611.87
675.01	30597.82
675.15	30272.49
675.29	30438.67
675.43	30637.61
675.56	30199.93
675.70	30235.04
675.84	29776.30
675.98	29497.77
676.12	30157.80
676.26	29961.20
676.40	29827.79
676.54	29481.39
676.68	29703.74
676.82	29764.59
676.96	29631.18
677.10	29811.40
677.23	28933.70
677.37	29219.25
677.51	29120.95
677.65	28964.13
677.79	28816.68
677.93	28819.02
678.07	28762.84
678.21	28238.56
678.34	28793.27
678.48	28336.87
678.62	28470.28
678.76	28264.31
678.90	27976.42
679.04	27592.58
679.18	27990.47
679.31	27920.25
679.45	27716.62
679.59	27777.48
679.73	27625.34
679.87	27417.04
680.00	27213.41
680.14	27386.61
680.28	27285.97
680.42	27398.31
680.56	27332.78
680.70	27171.28
680.83	26972.33
680.97	26820.20
681.11	27175.96
681.25	26609.55
681.39	26394.22
681.52	26773.39
681.66	26874.03
681.80	26356.77
681.94	26391.88
682.07	26103.99
682.21	26438.69
682.35	26464.44
682.49	26459.76
682.62	26183.57
682.76	26057.18
682.90	25935.48
683.04	25544.61
683.17	25694.40
683.31	25282.47
683.45	25682.70
683.59	25546.95
683.72	25074.16
683.86	24905.64
684.00	25120.97
684.13	25097.56
684.27	24966.49
684.41	24751.17
684.55	24577.97
684.68	24467.96
684.82	24360.30
684.96	24636.48
685.09	24819.04
685.23	24601.37
685.37	24173.05
685.50	24341.57
685.64	24304.12
685.78	24088.79
685.91	24278.38
686.05	23826.65
686.19	23711.97
686.32	23550.47
686.46	23002.78
686.60	23278.97
686.73	23077.68
686.87	23126.83
687.01	23318.76
687.14	22766.39
687.28	23150.24
687.42	22817.88
687.55	23009.81
687.69	22988.74
687.82	22602.55
687.96	22862.35
688.10	22345.09
688.23	22693.83
688.37	22345.09
688.50	22036.14
688.64	22104.02
688.78	22349.78
688.91	21891.03
689.05	22349.78
689.18	21816.13
689.32	21729.53
689.46	21965.93
689.59	21687.40
689.73	21713.15
689.86	21853.58
690.00	21797.41
690.13	21451.01
690.27	21345.69
690.41	21563.36
690.54	21170.15
690.68	20875.24
690.81	21067.16
690.95	20758.21
691.08	21025.03
691.22	20891.62
691.35	20830.77
691.49	20900.98
691.62	20851.83
691.76	20542.88
691.89	20339.26
692.03	20250.32
692.16	20084.14
692.30	19950.73
692.43	19932.00
692.57	19826.68
692.70	19814.98
692.84	19688.59
692.97	19651.14
693.11	19999.88
693.24	19754.12
693.38	19594.96
693.51	19178.35
693.65	19559.86
693.78	19529.43
693.92	19466.24
694.05	19445.17
694.19	19297.72
694.32	19180.69
694.45	18834.29
694.59	18761.73
694.72	18675.13
694.86	18499.59
694.99	18277.24
695.13	18546.40
695.26	18331.08
695.39	18288.95
695.53	18471.51
695.66	18401.29
695.80	18291.29
695.93	18242.14
696.07	18071.28
696.20	18078.30
696.33	18129.79
696.47	17710.83
696.60	17935.53
696.73	17322.30
696.87	17289.54
697.00	17696.79
697.14	17539.97
697.27	17558.70
697.40	17631.26
697.54	17247.41
697.67	17029.74
697.80	16912.71
697.94	16547.59
698.07	16814.41
698.21	16615.46
698.34	16697.38
698.47	16563.97
698.61	16669.30
698.74	16252.68
698.87	16205.87
699.01	16238.64
699.14	16067.78
699.27	15810.32
699.40	16402.47
699.54	15950.75
699.67	15662.86
699.80	15936.71
699.94	15962.45
700.07	15983.52
700.20	15733.08
700.34	15576.27
700.47	15669.89
700.60	15702.65
700.73	15676.91
700.87	15580.95
701.00	15260.29
701.13	15573.92
701.26	15360.94
701.40	15187.74
701.53	15002.83
701.66	15087.09
701.79	14839.00
701.93	14794.53
702.06	14967.73
702.19	14820.27
702.32	14913.89
702.46	14614.30
702.59	14483.24
702.72	14682.18
702.85	14614.30
702.99	14696.22
703.12	14253.86
703.25	14249.18
703.38	14267.91
703.51	14298.33
703.65	14160.24
703.78	14157.90
703.91	13628.94
704.04	13881.72
704.17	14146.20
704.31	13980.02
704.44	13764.69
704.57	13626.60
704.70	13437.02
704.83	13465.10
704.96	13745.97
705.10	13444.04
705.23	13415.95
>>>>>End Processed Spectral Data<<<<<
