SpectraSuite Data File
++++++++++++++++++++++++++++++++++++
Date: Fri Oct 25 10:47:45 EDT 2013
User: price-jones
Dark Spectrum Present: No
Reference Spectrum Present: No
Number of Sampled Component Spectra: 1
Spectrometers: USB2+H05261
Integration Time (usec): 100000 (USB2+H05261)
Spectra Averaged: 1 (USB2+H05261)
Boxcar Smoothing: 0 (USB2+H05261)
Correct for Electrical Dark: No (USB2+H05261)
Strobe/Lamp Enabled: No (USB2+H05261)
Correct for Detector Non-linearity: No (USB2+H05261)
Correct for Stray Light: No (USB2+H05261)
Number of Pixels in Processed Spectrum: 2048
>>>>>Begin Processed Spectral Data<<<<<
365.73	107.66
365.92	107.66
366.12	107.66
366.32	25.75
366.52	37.45
366.72	0.00
366.91	86.60
367.11	105.32
367.31	25.75
367.51	9.36
367.70	0.00
367.90	0.00
368.10	9.36
368.30	53.83
368.49	25.75
368.69	51.49
368.89	9.36
369.09	60.85
369.28	84.26
369.48	37.45
369.68	77.24
369.87	67.88
370.07	105.32
370.27	128.73
370.47	175.54
370.66	348.74
370.86	346.40
371.06	421.30
371.25	470.45
371.45	388.53
371.65	498.53
371.84	458.74
372.04	421.30
372.24	526.62
372.44	465.77
372.63	493.85
372.83	519.60
373.03	517.26
373.22	498.53
373.42	496.19
373.62	484.49
373.81	545.34
374.01	653.01
374.21	601.52
374.40	482.15
374.60	573.43
374.79	540.66
374.99	526.62
375.19	528.96
375.38	606.20
375.58	571.09
375.78	629.60
375.97	695.14
376.17	610.88
376.37	498.53
376.56	622.58
376.76	582.79
376.95	575.77
377.15	566.41
377.35	655.35
377.54	638.97
377.74	638.97
377.93	622.58
378.13	631.94
378.33	561.73
378.52	667.05
378.72	629.60
378.91	543.00
379.11	601.52
379.31	655.35
379.50	650.67
379.70	627.26
379.89	669.39
380.09	622.58
380.28	568.75
380.48	660.03
380.68	709.18
380.87	648.33
381.07	676.41
381.26	671.73
381.46	706.84
381.65	667.05
381.85	662.37
382.04	662.37
382.24	641.31
382.43	697.48
382.63	725.57
382.83	704.50
383.02	723.23
383.22	711.52
383.41	711.52
383.61	709.18
383.80	786.42
384.00	741.95
384.19	727.91
384.39	725.57
384.58	725.57
384.78	758.33
384.97	748.97
385.17	784.08
385.36	744.29
385.56	655.35
385.75	704.50
385.95	814.51
386.14	777.06
386.34	779.40
386.53	819.19
386.72	847.27
386.92	781.74
387.11	758.33
387.31	788.76
387.50	861.32
387.70	777.06
387.89	819.19
388.09	877.70
388.28	798.12
388.48	791.10
388.67	877.70
388.86	779.40
389.06	880.04
389.25	912.81
389.45	875.36
389.64	842.59
389.84	976.00
390.03	903.45
390.22	922.17
390.42	898.77
390.61	919.83
390.81	870.68
391.00	924.51
391.19	987.71
391.39	884.72
391.58	1018.13
391.78	936.21
391.97	992.39
392.16	903.45
392.36	978.34
392.55	990.05
392.75	999.41
392.94	997.07
393.13	1036.86
393.33	919.83
393.52	957.28
393.71	994.73
393.91	1008.77
394.10	978.34
394.29	1013.45
394.49	994.73
394.68	1050.90
394.88	1062.60
395.07	1104.73
395.26	1123.46
395.46	1114.10
395.65	1139.84
395.84	1156.22
396.04	1214.74
396.23	1149.20
396.42	1146.86
396.62	1039.20
396.81	1179.63
397.00	1118.78
397.19	1186.65
397.39	1203.04
397.58	1270.91
397.77	1163.25
397.97	1163.25
398.16	1198.35
398.35	1252.19
398.55	1254.53
398.74	1373.89
398.93	1341.13
399.12	1291.98
399.32	1404.32
399.51	1434.75
399.70	1306.02
399.90	1364.53
400.09	1451.13
400.28	1418.36
400.47	1392.62
400.67	1483.90
400.86	1467.52
401.05	1511.99
401.24	1439.43
401.44	1469.86
401.63	1453.47
401.82	1441.77
402.01	1394.96
402.21	1526.03
402.40	1542.41
402.59	1507.30
402.78	1497.94
402.97	1575.18
403.17	1535.39
403.36	1565.82
403.55	1680.50
403.74	1652.42
403.93	1600.93
404.13	1736.68
404.32	1654.76
404.51	1633.69
404.70	1659.44
404.89	1633.69
405.09	1694.55
405.28	1692.21
405.47	1596.25
405.66	1692.21
405.85	1823.28
406.05	1703.91
406.24	1652.42
406.43	1753.06
406.62	1856.04
406.81	1816.26
407.00	1891.15
407.20	1736.68
407.39	1830.30
407.58	1963.71
407.77	1867.75
407.96	1930.94
408.15	2031.58
408.34	1902.86
408.54	1881.79
408.73	1914.56
408.92	2001.16
409.11	2005.84
409.30	1961.37
409.49	1942.64
409.68	2073.71
409.87	2071.37
410.07	2113.50
410.26	2029.24
410.45	2059.67
410.64	2228.19
410.83	2174.36
411.02	2169.68
411.21	2230.53
411.40	2275.00
411.59	2310.11
411.78	2314.79
411.98	2312.45
412.17	2455.22
412.36	2312.45
412.55	2328.83
412.74	2328.83
412.93	2368.62
413.12	2438.84
413.31	2480.97
413.50	2457.56
413.69	2576.93
413.88	2640.12
414.07	2534.80
414.26	2656.51
414.45	2586.29
414.64	2569.91
414.83	2630.76
415.02	2623.74
415.22	2722.04
415.41	2780.56
415.60	2686.94
415.79	2691.62
415.98	2785.24
416.17	2773.53
416.36	2855.45
416.55	2906.95
416.74	2743.11
416.93	2822.69
417.12	2928.01
417.31	2977.16
417.50	2857.79
417.69	3012.27
417.88	2944.39
418.07	3096.53
418.26	3096.53
418.45	2963.12
418.64	3061.42
418.83	3091.85
419.02	3185.47
419.21	3290.79
419.39	3225.26
419.58	3220.58
419.77	3171.43
419.96	3183.13
420.15	3279.09
420.34	3309.52
420.53	3258.03
420.72	3307.18
420.91	3424.20
421.10	3412.50
421.29	3295.47
421.48	3485.06
421.67	3454.63
421.86	3265.05
422.05	3293.13
422.24	3286.11
422.43	3368.03
422.61	3475.70
422.80	3520.17
422.99	3564.64
423.18	3466.33
423.37	3618.47
423.56	3522.51
423.75	3421.86
423.94	3435.91
424.13	3480.38
424.32	3433.57
424.50	3557.61
424.69	3595.06
424.88	3541.23
425.07	3529.53
425.26	3522.51
425.45	3461.65
425.64	3480.38
425.83	3559.95
426.01	3630.17
426.20	3576.34
426.39	3616.13
426.58	3653.58
426.77	3623.15
426.96	3471.01
427.15	3772.94
427.33	3595.06
427.52	3730.81
427.71	3609.11
427.90	3616.13
428.09	3705.07
428.28	3768.26
428.46	3705.07
428.65	3747.20
428.84	3906.35
429.03	3934.44
429.22	3772.94
429.40	3768.26
429.59	3688.68
429.78	3728.47
429.97	3613.79
430.16	3688.68
430.34	3784.65
430.53	3880.61
430.72	3850.18
430.91	3985.93
431.10	3971.89
431.28	3960.19
431.47	4126.36
431.66	4173.18
431.85	4154.45
432.03	4290.20
432.22	4299.56
432.41	4138.07
432.60	4133.39
432.79	4203.60
432.97	4294.88
433.16	4353.40
433.35	4243.39
433.54	4224.67
433.72	4196.58
433.91	4184.88
434.10	4271.48
434.28	4311.27
434.47	4313.61
434.66	4332.33
434.85	4365.10
435.03	4521.92
435.22	4566.39
435.41	4587.45
435.59	4538.30
435.78	4580.43
435.97	4622.56
436.16	4510.21
436.34	4573.41
436.53	4643.62
436.72	4671.71
436.90	4552.34
437.09	4545.32
437.28	4638.94
437.46	4568.73
437.65	4690.43
437.84	4748.95
438.02	4603.83
438.21	4617.88
438.40	4652.98
438.58	4997.04
438.77	4873.00
438.96	4865.97
439.14	5083.64
439.33	4947.89
439.52	5071.94
439.70	4975.98
439.89	5071.94
440.08	5224.08
440.26	5095.35
440.45	5296.63
440.63	5247.48
440.82	5298.97
441.01	5305.99
441.19	5406.64
441.38	5275.57
441.57	5451.11
441.75	5488.56
441.94	5605.58
442.12	5556.43
442.31	5418.34
442.50	5558.77
442.68	5713.25
442.87	5589.20
443.05	5675.80
443.24	5659.42
443.43	5809.21
443.61	5851.34
443.80	5741.33
443.98	5584.52
444.17	5568.13
444.35	5762.40
444.54	5715.59
444.73	5781.12
444.91	5748.36
445.10	5738.99
445.28	5731.97
445.47	5797.51
445.65	5884.11
445.84	5790.49
446.02	5830.27
446.21	5757.72
446.39	5685.16
446.58	5991.77
446.77	5959.00
446.95	5799.85
447.14	5884.11
447.32	5980.07
447.51	5949.64
447.69	5895.81
447.88	6017.52
448.06	5926.24
448.25	5966.03
448.43	5989.43
448.62	6012.84
448.80	5954.32
448.99	6108.80
449.17	6300.72
449.36	6136.88
449.54	6104.12
449.73	6328.81
449.91	6244.55
450.10	6347.53
450.28	6469.24
450.46	6443.49
450.65	6260.93
450.83	6499.67
451.02	6415.41
451.20	6382.64
451.39	6366.26
451.57	6445.84
451.76	6457.54
451.94	6471.58
452.13	6387.32
452.31	6469.24
452.49	6338.17
452.68	6345.19
452.86	6457.54
453.05	6480.94
453.23	6464.56
453.42	6466.90
453.60	6527.75
453.78	6520.73
453.97	6417.75
454.15	6588.61
454.34	6565.20
454.52	6665.85
454.70	6691.59
454.89	6794.58
455.07	6733.72
455.26	6789.89
455.44	7094.16
455.62	6843.73
455.81	6822.66
455.99	6843.73
456.17	6944.37
456.36	7035.65
456.54	7045.01
456.73	7047.35
456.91	7295.45
457.09	7218.21
457.28	7293.11
457.46	7122.25
457.64	7295.45
457.83	7300.13
458.01	7173.74
458.19	7370.35
458.38	7318.86
458.56	7384.39
458.74	7316.51
458.93	7220.55
459.11	7272.04
459.29	7569.29
459.48	7321.20
459.66	7368.01
459.84	7564.61
460.03	7691.00
460.21	7520.14
460.39	7611.42
460.57	7564.61
460.76	7707.38
460.94	7712.07
461.12	7709.72
461.31	7730.79
461.49	7719.09
461.67	7672.28
461.85	7868.88
462.04	7691.00
462.22	8416.57
462.40	7939.10
462.59	8044.42
462.77	7887.61
462.95	8084.21
463.13	8102.93
463.32	8018.68
463.50	8180.17
463.68	7913.35
463.86	8046.76
464.05	7878.24
464.23	7978.89
464.41	7985.91
464.59	7985.91
464.78	8344.01
464.96	8269.11
465.14	8035.06
465.32	8161.45
465.50	8477.42
465.69	8308.90
465.87	8299.54
466.05	8161.45
466.23	8194.22
466.41	8306.56
466.60	8610.83
466.78	8322.94
466.96	8315.92
467.14	8461.04
467.32	8512.53
467.51	8517.21
467.69	8301.88
467.87	8360.39
468.05	8549.98
468.23	8264.43
468.41	8624.87
468.60	8727.86
468.78	8631.90
468.96	8573.38
469.14	8678.71
469.32	8711.47
469.50	8688.07
469.69	8685.73
469.87	8765.31
470.05	8957.23
470.23	8954.89
470.41	8798.07
470.59	8882.33
470.77	8980.64
470.95	8964.25
471.14	9043.83
471.32	9104.68
471.50	9109.36
471.68	9179.58
471.86	9261.50
472.04	9404.27
472.22	9507.26
472.40	9167.88
472.58	9266.18
472.77	9348.10
472.95	9633.64
473.13	9863.02
473.31	9640.67
473.49	9549.39
473.67	9441.72
473.85	9778.76
474.03	9767.06
474.21	9811.53
474.39	9944.94
474.57	9713.22
474.75	10001.11
474.93	10132.18
475.12	10115.80
475.30	10260.91
475.48	10078.35
475.66	10092.39
475.84	10401.34
476.02	10317.08
476.20	10445.81
476.38	10497.30
476.56	10670.50
476.74	10441.13
476.92	10736.04
477.10	10623.69
477.28	10965.41
477.46	10846.04
477.64	11000.52
477.82	11047.33
478.00	11112.86
478.18	11288.40
478.36	11248.61
478.54	11314.15
478.72	11550.54
478.90	11698.00
479.08	11737.79
479.26	11583.31
479.44	11943.75
479.62	12037.38
479.80	12072.48
479.98	12226.96
480.16	12496.12
480.34	12189.51
480.52	12493.78
480.70	12386.12
480.88	12461.01
481.06	12645.91
481.24	12475.06
481.41	12748.90
481.59	13074.23
481.77	13074.23
481.95	12950.18
482.13	12961.89
482.31	13095.30
482.49	13523.62
482.67	13399.57
482.85	13551.70
483.03	13472.12
483.21	13900.44
483.39	13975.34
483.57	14015.13
483.74	13949.59
483.92	14340.46
484.10	14019.81
484.28	14396.64
484.46	14637.71
484.64	14944.32
484.82	14874.10
485.00	14640.05
485.18	15033.26
485.35	15105.82
485.53	14602.60
485.71	15094.11
485.89	15023.90
486.07	15005.17
486.25	15506.05
486.43	15468.60
486.61	15712.02
486.78	15672.23
486.96	15789.25
487.14	16109.91
487.32	16072.46
487.50	16365.03
487.68	16493.76
487.85	16540.57
488.03	16769.94
488.21	17214.64
488.39	17125.70
488.57	17380.82
488.75	17165.49
488.92	17724.88
489.10	17516.57
489.28	17451.03
489.46	17905.10
489.64	17757.64
489.81	18499.59
489.99	18492.57
490.17	18171.92
490.35	18551.09
490.53	18651.73
490.70	18831.95
490.88	18609.60
491.06	18965.36
491.24	19122.18
491.41	19066.00
491.59	18855.36
491.77	19262.61
491.95	19250.91
492.13	19428.79
492.30	19564.54
492.48	19686.25
492.66	19920.30
492.84	19985.83
493.01	20067.75
493.19	19997.54
493.37	20372.02
493.54	20592.03
493.72	20751.19
493.90	20500.75
494.08	21092.91
494.25	21376.11
494.43	21085.89
494.61	21219.30
494.79	21385.47
494.96	21149.08
495.14	21465.05
495.32	21689.74
495.49	21682.72
495.67	21612.51
495.85	22258.49
496.02	22235.09
496.20	22375.52
496.38	22302.96
496.55	22377.86
496.73	22757.03
496.91	22649.36
497.09	22815.54
497.26	23285.99
497.44	22911.50
497.62	22848.31
497.79	22977.04
497.97	23276.63
498.14	23548.13
498.32	23693.24
498.50	23278.97
498.67	23950.70
498.85	23758.78
499.03	23836.02
499.20	24126.24
499.38	24079.43
499.56	24144.97
499.73	24346.25
499.91	24390.72
500.08	24505.41
500.26	24290.08
500.44	24610.73
500.61	24652.86
500.79	24432.85
500.97	24957.13
501.14	25142.03
501.32	24926.71
501.49	24741.80
501.67	25546.95
501.84	25160.76
502.02	25266.08
502.20	25741.21
502.37	25642.91
502.55	25666.31
502.72	25748.23
502.90	25696.74
503.07	25811.43
503.25	26080.59
503.43	25685.04
503.60	26111.02
503.78	26230.38
503.95	26253.79
504.13	26242.09
504.30	26391.88
504.48	26258.47
504.65	26677.43
504.83	26803.82
505.01	26539.33
505.18	26948.93
505.36	26986.38
505.53	27285.97
505.71	27218.09
505.88	27623.00
506.06	26962.97
506.23	27339.80
506.41	27290.65
506.58	27456.82
506.76	27524.70
506.93	27398.31
507.11	27580.87
507.28	27800.88
507.46	27569.17
507.63	27859.40
507.81	28006.85
507.98	27583.21
508.16	27967.06
508.33	28219.84
508.50	28065.36
508.68	28334.53
508.85	28620.07
509.03	28332.18
509.20	28790.93
509.38	29130.31
509.55	28657.52
509.73	28922.00
509.90	28985.19
510.08	28886.89
510.25	28891.57
510.42	29303.51
510.60	29472.03
510.77	29350.32
510.95	29668.63
511.12	29493.09
511.30	29261.38
511.47	30033.75
511.64	29905.02
511.82	29816.08
511.99	29289.46
512.17	29778.64
512.34	30134.40
512.51	30108.65
512.69	30431.65
512.86	30185.89
513.04	30511.22
513.21	30621.23
513.38	30459.73
513.56	30433.99
513.73	30132.06
513.90	30639.95
514.08	30543.99
514.25	30965.29
514.43	31276.58
514.60	30663.36
514.77	30724.21
514.95	31098.70
515.12	30689.10
515.29	31222.75
515.47	31424.03
515.64	31683.83
515.81	31536.38
515.99	31304.67
516.16	31630.00
516.33	31307.01
516.51	31573.83
516.68	31433.39
516.85	31527.02
517.03	31442.76
517.20	31751.71
517.37	31850.01
517.54	32084.06
517.72	32130.87
517.89	31943.63
518.06	32095.77
518.24	32086.40
518.41	32180.03
518.58	32229.18
518.75	32666.86
518.93	32678.56
519.10	32594.30
519.27	32985.17
519.45	32243.22
519.62	32692.60
519.79	33041.34
519.96	32924.32
520.14	33497.75
520.31	33273.06
520.48	33390.08
520.65	32898.57
520.83	33701.37
521.00	33656.90
521.17	33701.37
521.34	33352.63
521.52	33776.27
521.69	33956.49
521.86	33479.02
522.03	33804.36
522.20	34279.49
522.38	33926.07
522.55	34136.71
522.72	34192.89
522.89	33979.90
523.07	34342.68
523.24	34129.69
523.41	34487.79
523.58	34267.78
523.75	34796.74
523.92	34782.70
524.10	34532.26
524.27	34696.10
524.44	35145.48
524.61	34864.62
524.78	35122.08
524.96	34834.19
525.13	35051.86
525.30	35433.37
525.47	35365.49
525.64	35086.97
525.81	35480.18
525.98	35562.10
526.16	35026.12
526.33	35157.19
526.50	35812.54
526.67	35271.87
526.84	35248.47
527.01	35269.53
527.18	35379.54
527.36	35674.45
527.53	35557.42
527.70	36121.49
527.87	35915.52
528.04	35917.86
528.21	36236.17
528.38	35880.41
528.55	36144.89
528.72	35868.71
528.89	36371.92
529.07	36414.05
529.24	35723.60
529.41	36222.13
529.58	36294.69
529.75	36739.39
529.92	36711.30
530.09	36741.73
530.26	36589.59
530.43	36591.94
530.60	36301.71
530.77	36765.14
530.94	37064.72
531.11	37022.59
531.28	36879.82
531.46	37284.73
531.63	36872.80
531.80	36959.40
531.97	37134.94
532.14	37057.70
532.31	36980.46
532.48	37254.31
532.65	37497.72
532.82	37481.34
532.99	37209.84
533.16	37177.07
533.33	37036.64
533.50	37488.36
533.67	37804.33
533.84	37191.11
534.01	37661.56
534.18	37207.50
534.35	38302.87
534.52	37881.57
534.69	37626.45
534.86	38120.31
535.03	37699.01
535.20	38445.64
535.37	38370.74
535.54	38480.75
535.71	37961.15
535.88	38246.69
536.05	38382.45
536.22	38866.94
536.38	37982.21
536.55	38574.37
536.72	38447.98
536.89	38340.32
537.06	38536.92
537.23	38897.36
537.40	38632.88
537.57	38485.43
537.74	38852.89
537.91	38969.92
538.08	38927.79
538.25	38775.66
538.42	38873.96
538.59	39222.70
538.75	38944.17
538.92	38876.30
539.09	38967.58
539.26	39182.91
539.43	39084.61
539.60	39065.88
539.77	38948.85
539.94	39079.92
540.11	39271.85
540.28	39131.42
540.44	39035.45
540.61	39337.38
540.78	39651.02
540.95	39377.17
541.12	39316.32
541.29	39091.63
541.46	39260.15
541.62	39470.79
541.79	40079.33
541.96	39646.33
542.13	39988.05
542.30	40119.12
542.47	39840.60
542.63	39662.72
542.80	39885.07
542.97	40250.19
543.14	40914.90
543.31	40720.64
543.48	40350.84
543.64	40446.80
543.81	40451.48
543.98	40720.64
544.15	40215.08
544.32	40470.20
544.48	41053.00
544.65	40250.19
544.82	40732.34
544.99	40437.44
545.16	40938.31
545.32	40442.12
545.49	40823.62
545.66	41436.84
545.83	40928.95
546.00	41390.03
546.16	41102.15
546.33	40978.10
546.50	40774.47
546.67	40526.38
546.83	40851.71
547.00	40891.50
547.17	41296.41
547.34	41298.75
547.50	41170.02
547.67	41085.76
547.84	41544.51
548.00	41277.69
548.17	41801.97
548.34	41574.94
548.51	41483.66
548.67	41776.22
548.84	41345.56
549.01	41375.99
549.18	41832.39
549.34	41593.66
549.51	41881.55
549.68	42117.94
549.84	41951.76
550.01	41722.39
550.18	41715.37
550.34	41996.23
550.51	41448.55
550.68	41624.09
550.84	41268.33
551.01	41745.80
551.18	41804.31
551.34	42227.95
551.51	41968.15
551.68	42319.23
551.84	42218.58
552.01	41930.70
552.18	42302.84
552.34	41993.89
552.51	42363.70
552.68	42115.60
552.84	42305.18
553.01	42852.87
553.18	42579.03
553.34	41954.10
553.51	42099.22
553.67	42642.22
553.84	42646.90
554.01	42466.68
554.17	43217.99
554.34	42555.62
554.51	42742.86
554.67	42738.18
554.84	42717.12
555.00	42745.20
555.17	42438.59
555.33	42370.72
555.50	42892.66
555.67	42557.96
555.83	42834.14
556.00	42590.73
556.16	42806.06
556.33	43061.18
556.50	43110.33
556.66	43028.41
556.83	42775.63
556.99	43178.20
557.16	43086.92
557.32	42705.41
557.49	43510.56
557.65	42424.55
557.82	42787.33
557.98	43016.71
558.15	43208.63
558.32	43257.78
558.48	43143.09
558.65	43363.11
558.81	42997.98
558.98	43313.95
559.14	42997.98
559.31	42990.96
559.47	43311.61
559.64	43639.29
559.80	43318.64
559.97	43538.65
560.13	43014.37
560.30	43243.74
560.46	43494.18
560.63	43409.92
560.79	43449.70
560.96	43686.10
561.12	43363.11
561.29	43105.65
561.45	43269.48
561.61	43416.94
561.78	43662.69
561.94	43365.45
562.11	43636.95
562.27	43463.75
562.44	43548.01
562.60	44006.75
562.77	43852.28
562.93	43377.15
563.10	43704.82
563.26	43428.64
563.42	43779.72
563.59	43716.53
563.75	43782.06
563.92	43835.89
564.08	43674.40
564.24	43955.26
564.41	43845.26
564.57	43552.69
564.74	43782.06
564.90	44275.91
565.07	43964.62
565.23	43459.07
565.39	44156.55
565.56	44224.42
565.72	43976.33
565.88	43786.74
566.05	44147.18
566.21	43899.09
566.38	43957.60
566.54	43782.06
566.70	44271.23
566.87	44245.49
567.03	43674.40
567.19	44376.56
567.36	43945.90
567.52	43894.41
567.68	44257.19
567.85	43973.98
568.01	43896.75
568.17	43583.12
568.34	44179.95
568.50	44025.48
568.66	43924.83
568.83	44238.47
568.99	43941.22
569.15	44027.82
569.32	44119.10
569.48	43906.11
569.64	44093.35
569.81	44568.48
569.97	44074.63
570.13	44247.83
570.30	43966.96
570.46	43810.15
570.62	43540.99
570.78	43948.24
570.95	44030.16
571.11	44378.90
571.27	44140.16
571.43	44313.36
571.60	44502.95
571.76	44151.87
571.92	43849.94
572.09	44086.33
572.25	44072.29
572.41	43887.39
572.57	44367.20
572.74	44982.76
572.90	44245.49
573.06	44245.49
573.22	44524.01
573.38	44044.20
573.55	43908.45
573.71	44397.62
573.87	44236.12
574.03	43943.56
574.20	44107.40
574.36	44334.43
574.52	44648.06
574.68	44598.91
574.84	44753.38
575.01	44179.95
575.17	44449.11
575.33	44116.76
575.49	44538.05
575.65	44626.99
575.82	44797.85
575.98	44278.25
576.14	44652.74
576.30	44334.43
576.46	44428.05
576.62	43878.02
576.79	44217.40
576.95	44053.56
577.11	44268.89
577.27	44385.92
577.43	44406.98
577.59	44484.22
577.75	44732.32
577.92	44568.48
578.08	44329.75
578.24	44037.18
578.40	44315.70
578.56	44313.36
578.72	44701.89
578.88	44882.11
579.04	44495.92
579.21	44388.26
579.37	44509.97
579.53	44186.97
579.69	44053.56
579.85	44196.34
580.01	44734.66
580.17	44484.22
580.33	44580.18
580.49	44495.92
580.65	44428.05
580.82	44596.57
580.98	44739.34
581.14	44339.11
581.30	44631.68
581.46	44362.51
581.62	44275.91
581.78	44327.41
581.94	44790.83
582.10	44577.84
582.26	44444.43
582.42	44570.82
582.58	44589.55
582.74	44444.43
582.90	44657.42
583.06	44664.44
583.22	44421.03
583.38	44439.75
583.54	44428.05
583.70	44577.84
583.86	44671.46
584.02	43955.26
584.18	44130.80
584.34	44318.04
584.50	44907.86
584.66	44477.20
584.82	44289.96
584.98	44800.19
585.14	44624.65
585.30	44556.78
585.46	44818.92
585.62	44289.96
585.78	44243.15
585.94	44098.03
586.10	44516.99
586.26	44589.55
586.42	44453.79
586.58	44678.49
586.74	44376.56
586.90	44905.52
587.06	44458.48
587.22	44814.24
587.38	44502.95
587.54	45050.63
587.70	44460.82
587.86	44456.14
588.02	44704.23
588.18	44685.51
588.34	44556.78
588.49	44676.15
588.65	44353.15
588.81	44432.73
588.97	44488.90
589.13	44423.37
589.29	44966.37
589.45	44458.48
589.61	44739.34
589.77	44664.44
589.93	44666.78
590.08	44928.92
590.24	45198.09
590.40	44900.84
590.56	45085.74
590.72	44526.35
590.88	44371.88
591.04	44673.81
591.20	45050.63
591.35	45088.08
591.51	45083.40
591.67	45198.09
591.83	45050.63
591.99	44687.85
592.15	44687.85
592.31	44619.97
592.46	44893.82
592.62	45076.38
592.78	44603.59
592.94	45106.80
593.10	44912.54
593.26	45247.24
593.41	45017.86
593.57	44395.28
593.73	44795.51
593.89	45003.82
594.05	44781.47
594.20	44933.60
594.36	45052.97
594.52	44949.99
594.68	44711.25
594.84	45162.98
594.99	45366.60
595.15	45134.89
595.31	45418.10
595.47	45158.30
595.62	44842.32
595.78	44545.08
595.94	44891.48
596.10	45331.50
596.25	45485.97
596.41	45113.83
596.57	44978.07
596.73	45170.00
596.88	44645.72
597.04	44687.85
597.20	45027.23
597.36	45148.93
597.51	45106.80
597.67	45043.61
597.83	45254.26
597.99	45595.98
598.14	44837.64
598.30	44910.20
598.46	45188.72
598.61	44957.01
598.77	44624.65
598.93	45214.47
599.09	44907.86
599.24	45537.46
599.40	44987.44
599.56	45155.96
599.71	45081.06
599.87	45207.45
600.03	45031.91
600.18	44933.60
600.34	45116.17
600.50	45031.91
600.65	44898.50
600.81	45469.59
600.97	45436.82
601.12	45532.78
601.28	45069.36
601.44	45263.62
601.59	45141.91
601.75	44891.48
601.91	44935.95
602.06	44622.31
602.22	45193.40
602.37	44783.81
602.53	45069.36
602.69	44996.80
602.84	45343.20
603.00	44973.39
603.16	44870.41
603.31	44954.67
603.47	44954.67
603.62	44591.89
603.78	45081.06
603.94	44975.73
604.09	44884.45
604.25	45198.09
604.40	44758.06
604.56	45148.93
604.71	44942.97
604.87	44863.39
605.03	45198.09
605.18	44863.39
605.34	45333.84
605.49	44516.99
605.65	44694.87
605.80	45113.83
605.96	44973.39
606.12	45319.79
606.27	45413.41
606.43	45200.43
606.58	45305.75
606.74	44814.24
606.89	45006.16
607.05	44598.91
607.20	45251.92
607.36	44591.89
607.51	45652.15
607.67	44744.02
607.82	45017.86
607.98	44704.23
608.13	44985.10
608.29	44458.48
608.44	44514.65
608.60	43997.39
608.75	44488.90
608.91	44582.52
609.06	44470.18
609.22	44926.58
609.37	44818.92
609.53	44626.99
609.68	44722.96
609.84	44926.58
609.99	44779.13
610.15	44631.68
610.30	44516.99
610.46	43964.62
610.61	44502.95
610.76	44811.90
610.92	44554.44
611.07	44102.71
611.23	44453.79
611.38	44446.77
611.54	44376.56
611.69	44236.12
611.84	44182.29
612.00	44357.83
612.15	44233.78
612.31	44158.89
612.46	44573.16
612.62	44772.11
612.77	44266.55
612.92	44449.11
613.08	44292.30
613.23	44158.89
613.39	44289.96
613.54	43505.88
613.69	44105.06
613.85	44226.76
614.00	44481.88
614.15	44280.60
614.31	44411.67
614.46	44879.77
614.62	44093.35
614.77	43828.87
614.92	44041.86
615.08	44219.74
615.23	43878.02
615.38	43892.07
615.54	43873.34
615.69	43538.65
615.84	43377.15
616.00	43459.07
616.15	43824.19
616.30	44376.56
616.46	43707.16
616.61	44034.84
616.76	44069.95
616.92	43320.98
617.07	43512.90
617.22	43594.82
617.37	43423.96
617.53	43805.47
617.68	43400.55
617.83	43356.08
617.99	44041.86
618.14	43548.01
618.29	43440.34
618.45	43243.74
618.60	43454.39
618.75	43107.99
618.90	43381.83
619.06	43503.54
619.21	43367.79
619.36	43459.07
619.51	43145.44
619.67	43695.46
619.82	43613.54
619.97	44025.48
620.12	43313.95
620.28	43220.33
620.43	42932.45
620.58	43093.94
620.73	43494.18
620.89	43220.33
621.04	43295.23
621.19	43166.50
621.34	43112.67
621.49	42787.33
621.65	42967.55
621.80	43037.77
621.95	42834.14
622.10	43358.42
622.25	43033.09
622.41	42838.83
622.56	42469.02
622.71	42824.78
622.86	43084.58
623.01	43278.85
623.16	42782.65
623.32	43042.45
623.47	42703.07
623.62	43351.40
623.77	42810.74
623.92	42794.36
624.07	42773.29
624.23	42422.21
624.38	42487.74
624.53	42309.86
624.68	42555.62
624.83	42466.68
624.98	42852.87
625.13	42717.12
625.29	42735.84
625.44	42321.57
625.59	42223.26
625.74	41820.69
625.89	42185.82
626.04	41764.52
626.19	42375.40
626.34	42483.06
626.49	42246.67
626.65	42066.45
626.80	42520.51
626.95	42347.31
627.10	41799.63
627.25	41900.27
627.40	41586.64
627.55	41823.03
627.70	41469.61
627.85	41528.13
628.00	41586.64
628.15	42153.05
628.30	42019.64
628.45	42642.22
628.60	42178.79
628.76	42342.63
628.91	41940.06
629.06	42188.16
629.21	42012.62
629.36	41237.90
629.51	41663.88
629.66	41490.68
629.81	41455.57
629.96	41666.22
630.11	41579.62
630.26	41579.62
630.41	41991.55
630.56	41497.70
630.71	41731.75
630.86	41514.08
631.01	40877.46
631.16	41434.50
631.31	40851.71
631.46	40725.32
631.61	40950.01
631.76	41195.77
631.91	41141.94
632.06	41397.06
632.21	41511.74
632.36	41724.73
632.51	41202.79
632.66	41244.92
632.81	40727.66
632.96	41228.54
633.10	40776.81
633.25	40797.88
633.40	41387.69
633.55	41345.56
633.70	40994.48
633.85	41045.97
634.00	41060.02
634.15	41137.26
634.30	40786.18
634.45	40910.22
634.60	40680.85
634.75	41102.15
634.90	40582.55
635.05	40814.26
635.19	40250.19
635.34	40919.59
635.49	41170.02
635.64	40179.98
635.79	40505.31
635.94	40013.80
636.09	40521.69
636.24	40332.11
636.39	40364.88
636.53	40222.11
636.68	40013.80
636.83	40266.58
636.98	40236.15
637.13	39978.69
637.28	40547.44
637.43	40451.48
637.57	40435.10
637.72	40189.34
637.87	40360.20
638.02	40357.86
638.17	40081.67
638.32	40187.00
638.46	40055.93
638.61	40264.24
638.76	40142.53
638.91	40521.69
639.06	40203.38
639.20	40114.44
639.35	40133.17
639.50	40055.93
639.65	40212.74
639.80	40409.35
639.94	39803.15
640.09	40114.44
640.24	39892.09
640.39	39220.36
640.54	39835.92
640.68	39648.68
640.83	39716.55
640.98	39873.37
641.13	39583.14
641.27	39971.67
641.42	39435.69
641.57	39920.18
641.72	40093.38
641.86	39569.10
642.01	39335.04
642.16	39531.65
642.31	38799.06
642.45	39421.64
642.60	39136.10
642.75	39194.61
642.90	39260.15
643.04	39089.29
643.19	39136.10
643.34	39707.19
643.48	39267.17
643.63	39555.05
643.78	38955.88
643.93	39086.95
644.07	38864.60
644.22	39225.04
644.37	39274.19
644.51	38902.04
644.66	39452.07
644.81	38932.47
644.95	39164.18
645.10	39271.85
645.25	39335.04
645.39	38951.20
645.54	38778.00
645.69	38536.92
645.83	39014.39
645.98	38775.66
646.13	38932.47
646.27	39339.72
646.42	38857.57
646.57	38824.81
646.71	38904.38
646.86	38759.27
647.00	38829.49
647.15	38696.08
647.30	38993.32
647.44	39040.14
647.59	38838.85
647.74	38569.69
647.88	38305.21
648.03	38780.34
648.17	38340.32
648.32	38431.60
648.47	38078.18
648.61	38595.43
648.76	38836.51
648.90	38485.43
649.05	38124.99
649.20	38515.86
649.34	38602.46
649.49	38251.38
649.63	38403.51
649.78	38199.88
649.92	38117.96
650.07	38192.86
650.21	38337.98
650.36	38106.26
650.51	38424.57
650.65	39098.65
650.80	38621.18
650.94	38260.74
651.09	38302.87
651.23	38057.11
651.38	37909.66
651.52	38106.26
651.67	38031.36
651.81	38003.28
651.96	37734.12
652.10	37404.10
652.25	37921.36
652.39	37858.17
652.54	37879.23
652.68	37759.86
652.83	38148.39
652.97	38019.66
653.12	37684.97
653.26	37794.97
653.41	37741.14
653.55	37865.19
653.70	37970.51
653.84	37689.65
653.99	37663.90
654.13	37516.45
654.27	37394.74
654.42	37476.66
654.56	37801.99
654.71	37610.07
654.85	37387.72
655.00	37483.68
655.14	37151.32
655.29	37317.50
655.43	37170.05
655.57	37165.37
655.72	36697.26
655.86	36809.61
656.01	36821.31
656.15	37258.99
656.30	36811.95
656.44	37048.34
656.58	36996.85
656.73	36807.26
656.87	37200.47
657.01	36662.15
657.16	36603.64
657.30	36491.29
657.45	36554.49
657.59	36858.76
657.73	36329.80
657.88	37095.15
658.02	36804.92
658.16	36540.44
658.31	36570.87
658.45	37050.68
658.60	36877.48
658.74	36907.91
658.88	36481.93
659.03	36231.49
659.17	36622.36
659.31	36493.63
659.46	36458.52
659.60	36390.65
659.74	36065.31
659.89	36172.98
660.03	36098.08
660.17	36580.23
660.32	36294.69
660.46	36407.03
660.60	36219.79
660.74	36559.17
660.89	35868.71
661.03	36390.65
661.17	35494.22
661.32	35552.74
661.46	35803.17
661.60	35871.05
661.74	35494.22
661.89	36140.21
662.03	35571.46
662.17	35576.14
662.31	35559.76
662.46	35739.98
662.60	35718.92
662.74	35363.15
662.88	35267.19
663.03	35021.44
663.17	34850.58
663.31	34962.92
663.45	35360.81
663.60	35180.59
663.74	35438.05
663.88	34941.86
664.02	34843.56
664.17	34920.79
664.31	34848.24
664.45	34717.17
664.59	34642.27
664.73	34843.56
664.88	34871.64
665.02	34389.49
665.16	34663.33
665.30	34572.05
665.44	34558.01
665.59	34277.15
665.73	34370.77
665.87	34330.98
666.01	34225.65
666.15	34003.30
666.29	34213.95
666.44	34185.86
666.58	34122.67
666.72	34183.52
666.86	34235.02
667.00	34614.18
667.14	33888.62
667.28	34019.69
667.43	33624.14
667.57	33975.22
667.71	33163.05
667.85	33642.86
667.99	33809.04
668.13	33233.27
668.27	33376.04
668.41	33790.31
668.56	33303.48
668.70	33574.98
668.84	33287.10
668.98	33039.00
669.12	33198.16
669.26	32802.61
669.40	32886.87
669.54	32950.06
669.68	32868.14
669.82	33031.98
669.96	32540.47
670.10	32652.81
670.25	32877.51
670.39	32940.70
670.53	32797.93
670.67	32327.48
670.81	32708.99
670.95	32591.96
671.09	32739.41
671.23	32531.11
671.37	32680.90
671.51	32278.33
671.65	32142.58
671.79	31929.59
671.93	31952.99
672.07	32109.81
672.21	32519.40
672.35	31681.49
672.49	32102.79
672.63	31931.93
672.77	31857.03
672.91	31995.12
673.05	31463.82
673.19	31330.41
673.33	31594.89
673.47	31009.76
673.61	31213.38
673.75	31110.40
673.89	30998.06
674.03	30593.14
674.17	30543.99
674.31	30897.41
674.45	30682.08
674.59	31047.21
674.73	31400.63
674.87	30728.89
675.01	30913.80
675.15	30955.93
675.29	31005.08
675.43	30607.19
675.56	30721.87
675.70	30515.90
675.84	30265.47
675.98	29387.77
676.12	30110.99
676.26	30113.33
676.40	29832.47
676.54	30106.31
676.68	29848.85
676.82	29369.04
676.96	29495.43
677.10	29163.08
677.23	29406.49
677.37	29425.22
677.51	29551.60
677.65	29504.79
677.79	28994.56
677.93	28638.80
678.07	28896.25
678.21	28507.72
678.34	28589.64
678.48	28301.76
678.62	28758.16
678.76	28643.48
678.90	28290.06
679.04	28414.10
679.18	28229.20
679.31	27775.14
679.45	28128.56
679.59	27878.12
679.73	27976.42
679.87	27768.12
680.00	27740.03
680.14	27328.10
680.28	27723.65
680.42	27243.84
680.56	27363.20
680.70	27505.98
680.83	27077.66
680.97	27007.44
681.11	27133.83
681.25	26909.14
681.39	26623.59
681.52	26857.65
681.66	27000.42
681.80	26487.84
681.94	26356.77
682.07	26459.76
682.21	26462.10
682.35	26094.63
682.49	26342.73
682.62	26590.83
682.76	25874.62
682.90	26141.44
683.04	25921.43
683.17	26015.05
683.31	25458.01
683.45	25832.49
683.59	25638.23
683.72	25216.93
683.86	25298.85
684.00	25179.48
684.13	25315.23
684.27	25401.83
684.41	25032.03
684.55	24706.70
684.68	25088.20
684.82	24673.93
684.96	24704.35
685.09	24577.97
685.23	24409.45
685.37	24535.84
685.50	24613.07
685.64	24294.76
685.78	24556.90
685.91	24299.44
686.05	24020.92
686.19	23791.55
686.32	23854.74
686.46	23580.90
686.60	23351.52
686.73	23634.73
686.87	23133.86
687.01	23447.49
687.14	23173.64
687.28	23234.50
687.42	22941.93
687.55	22860.01
687.69	22913.84
687.82	22888.10
687.96	22532.34
688.10	22888.10
688.23	22693.83
688.37	22443.40
688.50	22202.32
688.64	22190.62
688.78	22469.14
688.91	22153.17
689.05	21858.26
689.18	21811.45
689.32	21638.25
689.46	21970.61
689.59	22038.48
689.73	21839.54
689.86	21626.55
690.00	21642.93
690.13	21619.53
690.27	21549.31
690.41	21504.84
690.54	21130.36
690.68	20910.35
690.81	20858.85
690.95	21053.12
691.08	20732.47
691.22	20741.83
691.35	21003.97
691.49	21132.70
691.62	20776.94
691.76	20765.23
691.89	20709.06
692.03	20517.14
692.16	20390.75
692.30	20332.23
692.43	20243.29
692.57	20114.56
692.70	20149.67
692.84	20365.00
692.97	19962.43
693.11	19594.96
693.24	19527.09
693.38	19751.78
693.51	19564.54
693.65	19419.42
693.78	19480.28
693.92	19426.45
694.05	19194.73
694.19	19323.46
694.32	19040.26
694.45	19056.64
694.59	18895.14
694.72	19089.41
694.86	18920.89
694.99	18721.95
695.13	18415.34
695.26	18298.31
695.39	18127.45
695.53	18265.54
695.66	18473.85
695.80	18338.10
695.93	18122.77
696.07	18024.47
696.20	17914.46
696.33	18017.44
696.47	18235.11
696.60	17586.79
696.73	17699.13
696.87	17603.17
697.00	17649.98
697.14	17582.10
697.27	17577.42
697.40	17348.05
697.54	17390.18
697.67	17036.76
697.80	17053.14
697.94	17221.66
698.07	16985.27
698.21	17163.15
698.34	17111.66
698.47	16833.13
698.61	16613.12
698.74	16521.84
698.87	16716.11
699.01	16325.24
699.14	16243.32
699.27	16435.24
699.40	16470.35
699.54	16032.67
699.67	16215.23
699.80	16233.96
699.94	15789.25
700.07	16105.23
700.20	15803.30
700.34	15840.75
700.47	15997.56
700.60	15817.34
700.73	15662.86
700.87	15660.52
701.00	15637.12
701.13	15297.74
701.26	15508.39
701.40	15499.03
701.53	15260.29
701.66	15274.34
701.79	15241.57
701.93	14831.97
702.06	14745.38
702.19	14913.89
702.32	15019.22
702.46	14761.76
702.59	14698.56
702.72	14689.20
702.85	14508.98
702.99	14757.08
703.12	14752.40
703.25	14534.73
703.38	14279.61
703.51	14221.10
703.65	14031.51
703.78	14043.21
703.91	14085.34
704.04	14183.65
704.17	13741.29
704.31	13827.88
704.44	13607.87
704.57	13729.58
704.70	13472.12
704.83	13708.52
704.96	13469.78
705.10	13834.91
705.23	13621.92
>>>>>End Processed Spectral Data<<<<<
