SpectraSuite Data File
++++++++++++++++++++++++++++++++++++
Date: Fri Oct 25 10:43:57 EDT 2013
User: price-jones
Dark Spectrum Present: No
Reference Spectrum Present: No
Number of Sampled Component Spectra: 1
Spectrometers: USB2+H05261
Integration Time (usec): 100000 (USB2+H05261)
Spectra Averaged: 1 (USB2+H05261)
Boxcar Smoothing: 0 (USB2+H05261)
Correct for Electrical Dark: No (USB2+H05261)
Strobe/Lamp Enabled: No (USB2+H05261)
Correct for Detector Non-linearity: No (USB2+H05261)
Correct for Stray Light: No (USB2+H05261)
Number of Pixels in Processed Spectrum: 2048
>>>>>Begin Processed Spectral Data<<<<<
365.73	126.39
365.92	126.39
366.12	126.39
366.32	44.47
366.52	67.88
366.72	53.83
366.91	53.83
367.11	14.04
367.31	14.04
367.51	0.00
367.70	25.75
367.90	16.38
368.10	0.00
368.30	32.77
368.49	60.85
368.69	23.41
368.89	11.70
369.09	11.70
369.28	56.17
369.48	79.58
369.68	91.28
369.87	79.58
370.07	79.58
370.27	86.60
370.47	147.45
370.66	339.38
370.86	421.30
371.06	449.38
371.25	496.19
371.45	374.49
371.65	470.45
371.84	463.43
372.04	442.36
372.24	517.26
372.44	475.13
372.63	475.13
372.83	545.34
373.03	521.94
373.22	484.49
373.42	510.24
373.62	489.17
373.81	533.64
374.01	550.03
374.21	561.73
374.40	617.90
374.60	573.43
374.79	564.07
374.99	601.52
375.19	629.60
375.38	547.69
375.58	631.94
375.78	552.37
375.97	585.13
376.17	678.76
376.37	603.86
376.56	617.90
376.76	685.78
376.95	622.58
377.15	596.84
377.35	596.84
377.54	695.14
377.74	613.22
377.93	809.83
378.13	636.63
378.33	620.24
378.52	702.16
378.72	648.33
378.91	685.78
379.11	685.78
379.31	732.59
379.50	627.26
379.70	697.48
379.89	734.93
380.09	699.82
380.28	706.84
380.48	676.41
380.68	704.50
380.87	631.94
381.07	697.48
381.26	692.80
381.46	699.82
381.65	669.39
381.85	781.74
382.04	662.37
382.24	732.59
382.43	767.70
382.63	725.57
382.83	723.23
383.02	779.40
383.22	793.44
383.41	779.40
383.61	725.57
383.80	795.78
384.00	821.53
384.19	706.84
384.39	697.48
384.58	798.12
384.78	798.12
384.97	816.85
385.17	835.57
385.36	877.70
385.56	784.08
385.75	821.53
385.95	807.48
386.14	873.02
386.34	840.25
386.53	767.70
386.72	823.87
386.92	884.72
387.11	877.70
387.31	828.55
387.50	929.19
387.70	905.79
387.89	844.93
388.09	837.91
388.28	830.89
388.48	861.32
388.67	898.77
388.86	880.04
389.06	891.74
389.25	1018.13
389.45	1032.18
389.64	945.58
389.84	1004.09
390.03	968.98
390.22	1083.67
390.42	1081.33
390.61	1053.24
390.81	1057.92
391.00	1048.56
391.19	1153.88
391.39	1088.35
391.58	1170.27
391.78	1046.22
391.97	1006.43
392.16	1025.15
392.36	1046.22
392.55	1011.11
392.75	994.73
392.94	1062.60
393.13	961.96
393.33	980.68
393.52	1060.26
393.71	1128.14
393.91	1254.53
394.10	1156.22
394.29	1097.71
394.49	1144.52
394.68	1212.40
394.88	1320.06
395.07	1261.55
395.26	1233.46
395.46	1270.91
395.65	1308.36
395.84	1256.87
396.04	1203.04
396.23	1219.42
396.42	1139.84
396.62	1205.38
396.81	1263.89
397.00	1212.40
397.19	1252.19
397.39	1294.32
397.58	1383.26
397.77	1313.04
397.97	1483.90
398.16	1334.11
398.35	1549.43
398.55	1371.55
398.74	1526.03
398.93	1542.41
399.12	1633.69
399.32	1528.37
399.51	1504.96
399.70	1593.90
399.90	1586.88
400.09	1675.82
400.28	1586.88
400.47	1584.54
400.67	1673.48
400.86	1689.87
401.05	1750.72
401.24	1689.87
401.44	1727.32
401.63	1715.61
401.82	1722.63
402.01	1769.44
402.21	1776.47
402.40	1863.07
402.59	1732.00
402.78	1837.32
402.97	1720.29
403.17	1776.47
403.36	1839.66
403.55	1933.28
403.74	1952.01
403.93	1930.94
404.13	1916.90
404.32	1937.96
404.51	1905.20
404.70	1980.09
404.89	1980.09
405.09	2071.37
405.28	2094.78
405.47	1930.94
405.66	2017.54
405.85	2012.86
406.05	2008.18
406.24	2087.76
406.43	1968.39
406.62	2118.18
406.81	2289.04
407.00	2176.70
407.20	2040.95
407.39	2118.18
407.58	2267.98
407.77	2153.29
407.96	2249.25
408.15	2235.21
408.34	2392.03
408.54	2373.30
408.73	2244.57
408.92	2340.54
409.11	2239.89
409.30	2385.01
409.49	2406.07
409.68	2249.25
409.87	2314.79
410.07	2361.60
410.26	2349.90
410.45	2539.48
410.64	2293.72
410.83	2555.86
411.02	2497.35
411.21	2583.95
411.40	2597.99
411.59	2818.00
411.78	2679.91
411.98	2740.77
412.17	2717.36
412.36	2708.00
412.55	2679.91
412.74	2736.09
412.93	2782.90
413.12	2738.43
413.31	2988.86
413.50	2946.73
413.69	2895.24
413.88	3016.95
414.07	2974.82
414.26	2869.50
414.45	3077.80
414.64	3047.38
414.83	3080.14
415.02	3105.89
415.22	3096.53
415.41	3267.39
415.60	3321.22
415.79	3262.71
415.98	3234.62
416.17	3171.43
416.36	3190.15
416.55	3295.47
416.74	3370.37
416.93	3342.28
417.12	3407.82
417.31	3393.78
417.50	3496.76
417.69	3559.95
417.88	3548.25
418.07	3492.08
418.26	3625.49
418.45	3545.91
418.64	3653.58
418.83	3681.66
419.02	3618.47
419.21	3653.58
419.39	3566.98
419.58	3765.92
419.77	3489.74
419.96	3751.88
420.15	3705.07
420.34	3662.94
420.53	3803.37
420.72	3653.58
420.91	3866.56
421.10	3831.46
421.29	3864.22
421.48	3892.31
421.67	3988.27
421.86	3887.63
422.05	3873.59
422.24	3716.77
422.43	3824.44
422.61	3992.95
422.80	4018.70
422.99	4063.17
423.18	3974.23
423.37	4035.08
423.56	4039.76
423.75	4070.19
423.94	4102.96
424.13	3810.39
424.32	3929.76
424.50	4138.07
424.69	4222.33
424.88	4070.19
425.07	3967.21
425.26	4072.53
425.45	3981.25
425.64	4091.26
425.83	4025.72
426.01	4117.00
426.20	4042.11
426.39	3981.25
426.58	3992.95
426.77	4088.92
426.96	4067.85
427.15	4173.18
427.33	4138.07
427.52	4016.36
427.71	4238.71
427.90	4180.20
428.09	4201.26
428.28	4215.30
428.46	4215.30
428.65	4299.56
428.84	4428.29
429.03	4379.14
429.22	4128.70
429.40	4243.39
429.59	4187.22
429.78	4084.23
429.97	3969.55
430.16	4049.13
430.34	4163.81
430.53	4341.69
430.72	4215.30
430.91	4229.35
431.10	4280.84
431.28	4678.73
431.47	4669.37
431.66	4711.50
431.85	4592.13
432.03	4809.80
432.22	4713.84
432.41	4599.15
432.60	4814.48
432.79	4641.28
432.97	4856.61
433.16	4947.89
433.35	4748.95
433.54	4692.77
433.72	4739.58
433.91	4760.65
434.10	4851.93
434.28	4861.29
434.47	4947.89
434.66	4875.34
434.85	5167.90
435.03	5181.95
435.22	4875.34
435.41	5064.92
435.59	5174.92
435.78	5167.90
435.97	5156.20
436.16	5144.50
436.34	5170.24
436.53	5221.74
436.72	5418.34
436.90	5125.77
437.09	5219.39
437.28	5219.39
437.46	5317.70
437.65	5284.93
437.84	5317.70
438.02	5320.04
438.21	5280.25
438.40	5200.67
438.58	5474.51
438.77	5636.01
438.96	5556.43
439.14	5570.48
439.33	5774.10
439.52	5750.70
439.70	5568.13
439.89	5858.36
440.08	5783.46
440.26	5865.38
440.45	5685.16
440.63	5916.87
440.82	6164.97
441.01	5916.87
441.19	6242.21
441.38	6176.67
441.57	6347.53
441.75	6141.57
441.94	6349.87
442.12	6310.08
442.31	6562.86
442.50	6530.09
442.68	6539.46
442.87	6370.94
443.05	6396.68
443.24	6534.78
443.43	6530.09
443.61	6640.10
443.80	6609.67
443.98	6490.31
444.17	6387.32
444.35	6750.10
444.54	6867.13
444.73	6740.74
444.91	6576.91
445.10	6726.70
445.28	6527.75
445.47	6443.49
445.65	6597.97
445.84	6569.88
446.02	6698.61
446.21	6616.69
446.39	6567.54
446.58	6780.53
446.77	6789.89
446.95	6656.48
447.14	6855.43
447.32	6911.60
447.51	6876.49
447.69	6883.52
447.88	6932.67
448.06	6766.49
448.25	6888.20
448.43	6841.39
448.62	6834.36
448.80	6904.58
448.99	6949.05
449.17	7133.95
449.36	6953.73
449.54	7007.56
449.73	7239.28
449.91	7262.68
450.10	7258.00
450.28	7377.37
450.46	7389.07
450.65	7349.28
450.83	7396.09
451.02	7342.26
451.20	7389.07
451.39	7356.30
451.57	7316.51
451.76	7337.58
451.94	7571.63
452.13	7239.28
452.31	7304.81
452.49	7087.14
452.68	7417.16
452.86	7365.67
453.05	7356.30
453.23	7452.27
453.42	7445.24
453.60	7508.44
453.78	7529.50
453.97	7440.56
454.15	7449.93
454.34	7625.47
454.52	7583.34
454.70	7651.21
454.89	7672.28
455.07	7775.26
455.26	7758.88
455.44	7861.86
455.62	7967.18
455.81	8006.97
455.99	7932.08
456.17	8025.70
456.36	7955.48
456.54	8079.53
456.73	7997.61
456.91	8451.67
457.09	8173.15
457.28	8322.94
457.46	8191.88
457.64	8346.35
457.83	8114.64
458.01	8198.90
458.19	8418.91
458.38	8264.43
458.56	8414.23
458.74	8444.65
458.93	8210.60
459.11	8404.86
459.29	8360.39
459.48	8519.55
459.66	8498.49
459.84	8603.81
460.03	8788.71
460.21	8451.67
460.39	8669.34
460.57	8507.85
460.76	8711.47
460.94	8587.43
461.12	8943.19
461.31	8791.05
461.49	8819.14
461.67	8737.22
461.85	8945.53
462.04	9060.21
462.22	9172.56
462.40	9100.00
462.59	9001.70
462.77	9071.92
462.95	9067.24
463.13	9121.07
463.32	9270.86
463.50	9111.71
463.68	9006.38
463.86	9156.18
464.05	9078.94
464.23	9022.77
464.41	9322.35
464.59	9118.73
464.78	9408.95
464.96	9266.18
465.14	9294.27
465.32	9551.73
465.50	9544.70
465.69	9668.75
465.87	9411.29
466.05	9380.87
466.23	9397.25
466.41	9348.10
466.60	9643.01
466.78	9336.40
466.96	9446.40
467.14	9317.67
467.32	9509.60
467.51	9694.50
467.69	9521.30
467.87	9668.75
468.05	9551.73
468.23	9509.60
468.41	9729.61
468.60	9966.00
468.78	9865.36
468.96	9778.76
469.14	9722.59
469.32	10197.71
469.50	9558.75
469.69	9785.78
469.87	9956.64
470.05	9928.55
470.23	9802.16
470.41	9895.78
470.59	10127.50
470.77	10106.43
470.95	10085.37
471.14	10272.61
471.32	10085.37
471.50	10684.55
471.68	10471.56
471.86	10752.42
472.04	10361.55
472.22	10658.80
472.40	10410.70
472.58	10443.47
472.77	10441.13
472.95	10794.55
473.13	10998.18
473.31	10801.57
473.49	10747.74
473.67	10726.68
473.85	10946.69
474.03	11152.65
474.21	11143.29
474.39	11080.10
474.57	11267.34
474.75	11370.32
474.93	11365.64
475.12	11302.45
475.30	11382.03
475.48	11332.87
475.66	11506.07
475.84	11587.99
476.02	11698.00
476.20	11602.04
476.38	11838.43
476.56	11819.71
476.74	12287.81
476.92	11978.86
477.10	11946.09
477.28	12226.96
477.46	12294.83
477.64	12313.56
477.82	12624.85
478.00	12727.83
478.18	12844.86
478.36	12851.88
478.54	12659.96
478.72	12959.55
478.90	13249.77
479.08	13263.82
479.26	13446.38
479.44	13479.15
479.62	13650.00
479.80	13380.84
479.98	13563.40
480.16	13980.02
480.34	13834.91
480.52	14155.56
480.70	14075.98
480.88	13947.25
481.06	14164.92
481.24	14125.13
481.41	14586.22
481.59	14728.99
481.77	14902.19
481.95	14607.28
482.13	14946.66
482.31	14724.31
482.49	15211.14
482.67	14993.47
482.85	15382.00
483.03	15449.88
483.21	15384.34
483.39	15620.74
483.57	15503.71
483.74	15639.46
483.92	15829.04
484.10	15623.08
484.28	16133.31
484.46	16421.20
484.64	16631.85
484.82	16311.19
485.00	16376.73
485.18	16608.44
485.35	16795.68
485.53	16580.36
485.71	16313.53
485.89	17064.85
486.07	16545.25
486.25	16872.92
486.43	16996.97
486.61	17319.96
486.78	17507.21
486.96	17467.42
487.14	17825.52
487.32	17991.70
487.50	18452.78
487.68	18518.32
487.85	18679.82
488.03	18963.02
488.21	18965.36
488.39	18956.00
488.57	18677.48
488.75	19204.10
488.92	19220.48
489.10	19496.66
489.28	19543.47
489.46	19946.05
489.64	19749.44
489.81	20615.44
489.99	20671.61
490.17	20425.86
490.35	20781.62
490.53	20657.57
490.70	20737.15
490.88	20664.59
491.06	21310.58
491.24	21074.18
491.41	21235.68
491.59	21039.08
491.77	21071.84
491.95	21479.10
492.13	21806.77
492.30	21940.18
492.48	22073.59
492.66	22040.82
492.84	22099.34
493.01	22607.23
493.19	22735.96
493.37	22684.47
493.54	22515.95
493.72	23007.47
493.90	22925.55
494.08	23178.33
494.25	23466.21
494.43	23655.79
494.61	23885.17
494.79	23999.85
494.96	23854.74
495.14	23847.72
495.32	24060.71
495.49	24074.75
495.67	24219.86
495.85	24418.81
496.02	24676.27
496.20	24709.04
496.38	24875.21
496.55	24898.62
496.73	25507.16
496.91	25476.73
497.09	25378.43
497.26	25518.86
497.44	25230.98
497.62	25682.70
497.79	25773.98
497.97	25432.26
498.14	25954.20
498.32	25961.22
498.50	25909.73
498.67	26522.95
498.85	26693.81
499.03	26862.33
499.20	26719.56
499.38	26946.59
499.56	26778.07
499.73	26747.64
499.91	27412.35
500.08	27358.52
500.26	26710.19
500.44	26946.59
500.61	27503.64
500.79	27035.53
500.97	27126.81
501.14	27431.08
501.32	27388.95
501.49	27665.13
501.67	27358.52
501.84	27803.22
502.02	27864.08
502.20	27969.40
502.37	28142.60
502.55	28187.07
502.72	28627.09
502.90	28519.43
503.07	28123.88
503.25	28498.36
503.43	28240.90
503.60	28673.90
503.78	28641.14
503.95	28645.82
504.13	28725.39
504.30	29123.29
504.48	29123.29
504.65	29504.79
504.83	29582.03
505.01	29469.69
505.18	29282.44
505.36	30382.49
505.53	29406.49
505.71	29898.00
505.88	30242.06
506.06	29734.17
506.23	30050.14
506.41	29951.84
506.58	30340.36
506.76	30347.39
506.93	30616.55
507.11	30483.14
507.28	30639.95
507.46	30483.14
507.63	30459.73
507.81	30614.21
507.98	30881.03
508.16	31044.87
508.33	30845.92
508.50	31232.11
508.68	31543.40
508.85	31611.28
509.03	31709.58
509.20	31693.19
509.38	31543.40
509.55	32025.55
509.73	32030.23
509.90	31543.40
510.08	31995.12
510.25	31852.35
510.42	31920.23
510.60	32041.93
510.77	32343.86
510.95	32531.11
511.12	32701.96
511.30	33017.94
511.47	32870.48
511.64	32800.27
511.82	32879.85
511.99	32496.00
512.17	32732.39
512.34	33043.68
512.51	32800.27
512.69	33205.18
512.86	33282.42
513.04	33497.75
513.21	33574.98
513.38	33797.34
513.56	33560.94
513.73	33476.68
513.90	33261.35
514.08	33055.39
514.25	33481.36
514.43	33834.78
514.60	33612.43
514.77	33972.88
514.95	34160.12
515.12	33937.77
515.29	34094.58
515.47	34745.25
515.64	34469.07
515.81	34424.60
515.99	34572.05
516.16	34321.62
516.33	33603.07
516.51	34609.50
516.68	33914.36
516.85	33729.46
517.03	34117.99
517.20	34459.71
517.37	34529.92
517.54	34637.59
517.72	34707.80
517.89	34476.09
518.06	34408.22
518.24	34642.27
518.41	34981.65
518.58	35229.74
518.75	35119.74
518.93	35391.24
519.10	35260.17
519.27	36023.19
519.45	35501.25
519.62	35718.92
519.79	35924.88
519.96	35992.76
520.14	36294.69
520.31	35756.36
520.48	36107.44
520.65	36154.26
520.83	36435.12
521.00	35978.72
521.17	36074.68
521.34	36357.88
521.52	36610.66
521.69	36353.20
521.86	36783.86
522.03	36809.61
522.20	37156.00
522.38	36943.02
522.55	37095.15
522.72	37294.10
522.89	37076.43
523.07	37392.40
523.24	36809.61
523.41	37310.48
523.58	37427.51
523.75	37638.15
523.92	37888.59
524.10	37717.73
524.27	37998.60
524.44	37940.08
524.61	38103.92
524.78	38031.36
524.96	37659.22
525.13	37888.59
525.30	38562.67
525.47	38438.62
525.64	37904.98
525.81	38363.72
525.98	37956.47
526.16	37766.88
526.33	37558.58
526.50	38164.78
526.67	37488.36
526.84	37546.87
527.01	37572.62
527.18	38380.10
527.36	38485.43
527.53	38810.76
527.70	38768.63
527.87	39227.38
528.04	38803.74
528.21	38871.62
528.38	39140.78
528.55	39620.59
528.72	39257.81
528.89	39386.54
529.07	39075.24
529.24	39356.11
529.41	39452.07
529.58	39365.47
529.75	38969.92
529.92	39573.78
530.09	39501.22
530.26	39856.98
530.43	39990.39
530.60	39533.99
530.77	39777.40
530.94	40062.95
531.11	40140.19
531.28	39894.43
531.46	40343.81
531.63	40580.21
531.80	40034.86
531.97	39966.99
532.14	40044.23
532.31	39185.25
532.48	40243.17
532.65	40339.13
532.82	39988.05
532.99	40360.20
533.16	40423.39
533.33	40540.42
533.50	40634.04
533.67	40570.85
533.84	40608.29
534.01	40840.01
534.18	40449.14
534.35	40418.71
534.52	40790.86
534.69	40755.75
534.86	40961.72
535.03	40928.95
535.20	41256.62
535.37	41315.14
535.54	41418.12
535.71	41069.38
535.88	41148.96
536.05	41443.87
536.22	41621.75
536.38	41493.02
536.55	41214.49
536.72	41490.68
536.89	41015.55
537.06	41275.35
537.23	41523.44
537.40	41237.90
537.57	41387.69
537.74	41471.95
537.91	42281.78
538.08	41352.58
538.25	41698.98
538.42	41776.22
538.59	42223.26
538.75	41565.57
538.92	41614.72
539.09	41818.35
539.26	42043.04
539.43	42199.86
539.60	42026.66
539.77	41617.07
539.94	42073.47
540.11	41621.75
540.28	41565.57
540.44	42178.79
540.61	42068.79
540.78	41516.42
540.95	42019.64
541.12	41867.50
541.29	41947.08
541.46	42124.96
541.62	42483.06
541.79	42344.97
541.96	42309.86
542.13	42183.48
542.30	41954.10
542.47	42440.93
542.63	42349.65
542.80	42672.65
542.97	42799.04
543.14	43372.47
543.31	42862.23
543.48	42983.94
543.64	43667.37
543.81	43501.20
543.98	43470.77
544.15	43421.62
544.32	43704.82
544.48	43824.19
544.65	43639.29
544.82	43936.54
544.99	43489.49
545.16	43405.23
545.32	43531.62
545.49	44039.52
545.66	44142.50
545.83	43901.43
546.00	43845.26
546.16	43779.72
546.33	43587.80
546.50	43447.36
546.67	43655.67
546.83	43751.63
547.00	43711.84
547.17	43737.59
547.34	43388.85
547.50	43730.57
547.67	43861.64
547.84	44102.71
548.00	44315.70
548.17	44325.07
548.34	44231.44
548.51	44631.68
548.67	44210.38
548.84	44299.32
549.01	43903.77
549.18	44432.73
549.34	44343.79
549.51	44149.53
549.68	44729.98
549.84	44102.71
550.01	44727.64
550.18	44516.99
550.34	44339.11
550.51	44311.02
550.68	44421.03
550.84	44332.09
551.01	44921.90
551.18	44219.74
551.34	44568.48
551.51	45045.95
551.68	44856.37
551.84	45069.36
552.01	44687.85
552.18	44584.86
552.34	44509.97
552.51	44884.45
552.68	44608.27
552.84	45265.96
553.01	45057.65
553.18	44900.84
553.34	44594.23
553.51	45151.27
553.67	45050.63
553.84	45275.32
554.01	45287.03
554.17	45778.54
554.34	45406.39
554.51	45289.37
554.67	45572.57
554.84	45200.43
555.00	44758.06
555.17	45361.92
555.33	45235.53
555.50	44992.12
555.67	45088.08
555.83	45118.51
556.00	45333.84
556.16	45680.24
556.33	45429.80
556.50	45249.58
556.66	45502.35
556.83	45378.31
556.99	45523.42
557.16	45897.91
557.32	45441.50
557.49	45326.81
557.65	45333.84
557.82	45982.16
557.98	45666.19
558.15	45729.39
558.32	45839.39
558.48	45738.75
558.65	45687.26
558.81	45607.68
558.98	45385.33
559.14	45366.60
559.31	45682.58
559.47	45907.27
559.64	45830.03
559.80	46059.40
559.97	45738.75
560.13	45684.92
560.30	45666.19
560.46	46003.23
560.63	45825.35
560.79	45986.85
560.96	46494.74
561.12	45876.84
561.29	45731.73
561.45	45715.34
561.61	46071.10
561.78	45916.63
561.94	45977.48
562.11	45684.92
562.27	46174.09
562.44	45907.27
562.60	46305.16
562.77	45867.48
562.93	45996.21
563.10	46328.56
563.26	46099.19
563.42	46403.46
563.59	45900.25
563.75	45656.83
563.92	46401.12
564.08	46052.38
564.24	46412.82
564.41	46256.01
564.57	46052.38
564.74	46312.18
564.90	45684.92
565.07	45972.80
565.23	46373.03
565.39	46043.02
565.56	46316.86
565.72	45794.92
565.88	46148.34
566.05	45614.70
566.21	46000.89
566.38	45766.84
566.54	46136.64
566.70	46356.65
566.87	46335.59
567.03	46260.69
567.19	46693.69
567.36	46389.42
567.52	46106.21
567.68	46185.79
567.85	46138.98
568.01	46518.15
568.17	46307.50
568.34	46431.55
568.50	46466.66
568.66	45947.06
568.83	46047.70
568.99	46270.05
569.15	46581.34
569.32	46714.75
569.48	46316.86
569.64	46373.03
569.81	45937.69
569.97	46195.15
570.13	46075.79
570.30	46021.95
570.46	46012.59
570.62	46108.55
570.78	46368.35
570.95	46071.10
571.11	45998.55
571.27	46246.65
571.43	45853.44
571.60	46291.12
571.76	46642.20
571.92	46581.34
572.09	46113.23
572.25	46644.54
572.41	46485.38
572.57	46574.32
572.74	46721.77
572.90	46710.07
573.06	46319.20
573.22	46553.26
573.38	46677.30
573.55	46038.34
573.71	46630.49
573.87	46204.52
574.03	46277.07
574.20	46340.27
574.36	46595.38
574.52	46274.73
574.68	46202.18
574.84	46410.48
575.01	46635.17
575.17	46469.00
575.33	46263.03
575.49	46579.00
575.65	46410.48
575.82	46389.42
575.98	46340.27
576.14	46653.90
576.30	46616.45
576.46	46373.03
576.62	46408.14
576.79	46256.01
576.95	46450.27
577.11	46600.07
577.27	46391.76
577.43	46789.65
577.59	46225.58
577.75	46515.81
577.92	46113.23
578.08	46014.93
578.24	46382.40
578.40	46340.27
578.56	46508.79
578.72	46614.11
578.88	46787.31
579.04	46616.45
579.21	46351.97
579.37	46185.79
579.53	46405.80
579.69	46681.98
579.85	46454.95
580.01	46644.54
580.17	46485.38
580.33	46892.63
580.49	46972.21
580.65	46707.73
580.82	46349.63
580.98	46380.06
581.14	46384.74
581.30	46855.18
581.46	46698.37
581.62	46768.58
581.78	46387.08
581.94	46794.33
582.10	46611.77
582.26	46370.69
582.42	46794.33
582.58	46501.76
582.74	46581.34
582.90	47033.07
583.06	46632.83
583.22	47157.11
583.38	46927.74
583.54	46464.32
583.70	46539.21
583.86	46735.82
584.02	46803.69
584.18	46745.18
584.34	46700.71
584.50	46476.02
584.66	46766.24
584.82	46508.79
584.98	46777.95
585.14	46616.45
585.30	46628.15
585.46	47037.75
585.62	46438.57
585.78	46986.25
585.94	46096.85
586.10	46419.84
586.26	46323.88
586.42	46862.21
586.58	46885.61
586.74	46857.52
586.90	46782.63
587.06	46639.86
587.22	46885.61
587.38	46532.19
587.54	46403.46
587.70	46686.67
587.86	46983.91
588.02	46424.53
588.18	46590.70
588.34	46038.34
588.49	46309.84
588.65	46066.42
588.81	46087.49
588.97	46373.03
589.13	46443.25
589.29	46085.15
589.45	46827.10
589.61	46298.14
589.77	46452.61
589.93	46424.53
590.08	46918.38
590.24	46813.05
590.40	47182.86
590.56	46735.82
590.72	46925.40
590.88	46291.12
591.04	47475.43
591.20	46902.00
591.35	47072.85
591.51	47290.52
591.67	46817.74
591.83	46241.96
591.99	46483.04
592.15	46691.35
592.31	46845.82
592.46	46969.87
592.62	46511.13
592.78	46747.52
592.94	47023.70
593.10	46890.29
593.26	46595.38
593.41	46337.93
593.57	46719.43
593.73	46272.39
593.89	46789.65
594.05	46717.09
594.20	46579.00
594.36	46726.46
594.52	47098.60
594.68	46660.92
594.84	46726.46
594.99	47271.80
595.15	46571.98
595.31	46841.14
595.47	47278.82
595.62	47058.81
595.78	46925.40
595.94	47009.66
596.10	46976.89
596.25	47009.66
596.41	47154.77
596.57	46693.69
596.73	47117.32
596.88	46394.10
597.04	47086.90
597.20	46663.26
597.36	47028.38
597.51	46953.49
597.67	46845.82
597.83	47187.54
597.99	47114.98
598.14	46469.00
598.30	46979.23
598.46	46579.00
598.61	46997.96
598.77	46859.87
598.93	46520.49
599.09	47021.36
599.24	47454.36
599.40	46951.15
599.56	46831.78
599.71	46953.49
599.87	46995.62
600.03	46974.55
600.18	46897.31
600.34	46838.80
600.50	46438.57
600.65	46492.40
600.81	46862.21
600.97	47061.15
601.12	47157.11
601.28	46674.96
601.44	46459.63
601.59	46560.28
601.75	46309.84
601.91	46564.96
602.06	46569.64
602.22	46780.29
602.37	46684.33
602.53	46752.20
602.69	46911.36
602.84	46721.77
603.00	46700.71
603.16	47236.69
603.31	47012.00
603.47	46897.31
603.62	46759.22
603.78	46923.06
603.94	46710.07
604.09	47105.62
604.25	46518.15
604.40	46588.36
604.56	46831.78
604.71	46471.34
604.87	46815.40
605.03	46520.49
605.18	46630.49
605.34	46471.34
605.49	46192.81
605.65	46593.04
605.80	46770.93
605.96	47070.51
606.12	46719.43
606.27	47210.95
606.43	46408.14
606.58	46902.00
606.74	46759.22
606.89	46761.56
607.05	46768.58
607.20	46728.80
607.36	46714.75
607.51	46707.73
607.67	46791.99
607.82	46742.84
607.98	46728.80
608.13	46539.21
608.29	45975.14
608.44	46361.33
608.60	46000.89
608.75	46176.43
608.91	46391.76
609.06	46588.36
609.22	46382.40
609.37	45886.20
609.53	46136.64
609.68	46117.92
609.84	46160.05
609.99	46014.93
610.15	46010.25
610.30	45876.84
610.46	45956.42
610.61	46220.90
610.76	46136.64
610.92	46047.70
611.07	46263.03
611.23	46216.22
611.38	45925.99
611.54	45652.15
611.69	45766.84
611.84	45839.39
612.00	45488.31
612.15	46183.45
612.31	46176.43
612.46	45769.18
612.62	46288.77
612.77	45904.93
612.92	46206.86
613.08	45572.57
613.23	46113.23
613.39	45694.28
613.54	45467.25
613.69	45839.39
613.85	45237.87
614.00	45965.78
614.15	45694.28
614.31	45743.43
614.46	46138.98
614.62	45818.33
614.77	45652.15
614.92	45736.41
615.08	45574.91
615.23	45378.31
615.38	45265.96
615.54	45492.99
615.69	45490.65
615.84	45497.67
616.00	45617.04
616.15	45696.62
616.30	45464.91
616.46	45043.61
616.61	45074.04
616.76	45141.91
616.92	45368.94
617.07	45312.77
617.22	45181.70
617.37	44942.97
617.53	45305.75
617.68	45375.97
617.83	45247.24
617.99	44673.81
618.14	45406.39
618.29	45350.22
618.45	44369.54
618.60	44673.81
618.75	44477.20
618.90	44832.96
619.06	44643.38
619.21	45104.46
619.36	45579.59
619.51	44573.16
619.67	45036.59
619.82	44804.88
619.97	45102.12
620.12	44945.31
620.28	44662.10
620.43	44591.89
620.58	44395.28
620.73	44954.67
620.89	44947.65
621.04	44711.25
621.19	44849.35
621.34	44926.58
621.49	44505.29
621.65	44524.01
621.80	44385.92
621.95	44292.30
622.10	44453.79
622.25	44615.29
622.41	44116.76
622.56	44369.54
622.71	45076.38
622.86	44212.72
623.01	44175.27
623.16	44107.40
623.32	44236.12
623.47	43875.68
623.62	44062.93
623.77	43936.54
623.92	44793.17
624.07	44135.48
624.23	43910.79
624.38	44182.29
624.53	43716.53
624.68	43863.98
624.83	44126.12
624.98	43732.91
625.13	43246.08
625.29	43646.31
625.44	43367.79
625.59	44257.19
625.74	43393.53
625.89	43281.19
626.04	43878.02
626.19	43316.29
626.34	43585.46
626.49	43540.99
626.65	44098.03
626.80	44119.10
626.95	43288.21
627.10	43660.35
627.25	43351.40
627.40	42784.99
627.55	42789.67
627.70	42934.79
627.85	42902.02
628.00	42932.45
628.15	43145.44
628.30	43353.74
628.45	43306.93
628.60	42902.02
628.76	43255.44
628.91	43117.35
629.06	43042.45
629.21	42564.98
629.36	42614.13
629.51	42747.54
629.66	42274.76
629.81	42815.42
629.96	42820.10
630.11	42808.40
630.26	43213.31
630.41	42967.55
630.56	42878.61
630.71	42808.40
630.86	42841.17
631.01	42745.20
631.16	42274.76
631.31	42735.84
631.46	42305.18
631.61	42375.40
631.76	42370.72
631.91	42696.05
632.06	42450.30
632.21	42539.24
632.36	42483.06
632.51	41904.95
632.66	42672.65
632.81	41930.70
632.96	42373.06
633.10	42337.95
633.25	42333.27
633.40	42401.14
633.55	42412.85
633.70	42176.45
633.85	42202.20
634.00	41862.82
634.15	42724.14
634.30	42064.11
634.45	42003.25
634.60	42085.17
634.75	42155.39
634.90	41614.72
635.05	42045.38
635.19	41841.76
635.34	42326.25
635.49	41703.67
635.64	41780.90
635.79	41792.61
635.94	41574.94
636.09	41937.72
636.24	41429.82
636.39	41813.67
636.53	41911.97
636.68	41448.55
636.83	41457.91
636.98	41481.31
637.13	41757.50
637.28	41666.22
637.43	41600.68
637.57	41661.54
637.72	41574.94
637.87	41469.61
638.02	41717.71
638.17	41202.79
638.32	41792.61
638.46	41228.54
638.61	41507.06
638.76	41741.11
638.91	41497.70
639.06	41081.08
639.20	41397.06
639.35	41724.73
639.50	41357.27
639.65	41706.01
639.80	41397.06
639.94	41153.64
640.09	41045.97
640.24	41078.74
640.39	40428.07
640.54	40610.64
640.68	41006.19
640.83	40568.51
640.98	40470.20
641.13	40591.91
641.27	40858.73
641.42	40793.20
641.57	40556.80
641.72	40680.85
641.86	40779.15
642.01	40561.48
642.16	40514.67
642.31	39927.20
642.45	40531.06
642.60	40304.02
642.75	40755.75
642.90	40601.27
643.04	40409.35
643.19	40240.83
643.34	40018.48
643.48	40577.87
643.63	40378.92
643.78	40154.23
643.93	40013.80
644.07	40605.95
644.22	40264.24
644.37	39812.51
644.51	40275.94
644.66	39903.79
644.81	40287.64
644.95	40390.62
645.10	40055.93
645.25	40196.36
645.39	40051.25
645.54	39810.17
645.69	40151.89
645.83	40196.36
645.98	39974.01
646.13	39990.39
646.27	39847.62
646.42	39461.43
646.57	39730.59
646.71	39461.43
646.86	39908.47
647.00	39749.32
647.15	39751.66
647.30	39498.88
647.44	39772.72
647.59	39765.70
647.74	39299.94
647.88	39845.28
648.03	40046.57
648.17	39789.11
648.32	39421.64
648.47	39648.68
648.61	39311.64
648.76	39620.59
648.90	39583.14
649.05	39629.95
649.20	39166.52
649.34	39541.01
649.49	39257.81
649.63	38869.28
649.78	39306.96
649.92	39175.89
650.07	39585.48
650.21	39232.06
650.36	39402.92
650.51	39180.57
650.65	39421.64
650.80	39461.43
650.94	39360.79
651.09	39297.59
651.23	39386.54
651.38	39194.61
651.52	38824.81
651.67	38438.62
651.81	38794.38
651.96	39154.82
652.10	39133.76
652.25	38962.90
652.39	38630.54
652.54	39129.08
652.68	38761.61
652.83	38532.24
652.97	39126.74
653.12	38995.67
653.26	38728.84
653.41	38934.81
653.55	38508.83
653.70	38682.03
653.84	38698.42
653.99	38291.16
654.13	38438.62
654.27	37801.99
654.42	38260.74
654.56	38319.25
654.71	38244.35
654.85	38162.43
655.00	38263.08
655.14	38127.33
655.29	37813.70
655.43	37956.47
655.57	37422.83
655.72	37516.45
655.86	37691.99
656.01	37457.93
656.15	37200.47
656.30	37486.02
656.44	37879.23
656.58	37448.57
656.73	37886.25
656.87	37776.25
657.01	37940.08
657.16	37696.67
657.30	37371.33
657.45	37574.96
657.59	37256.65
657.73	37626.45
657.88	38342.66
658.02	37797.31
658.16	37904.98
658.31	37696.67
658.45	38019.66
658.60	37598.37
658.74	37418.14
658.88	37460.27
659.03	37397.08
659.17	37371.33
659.31	37144.30
659.46	37113.87
659.60	37354.95
659.74	37392.40
659.89	37219.20
660.03	36828.33
660.17	37273.03
660.32	37043.66
660.46	37441.55
660.60	36921.95
660.74	36854.08
660.89	36886.84
661.03	36814.29
661.17	36779.18
661.32	36636.41
661.46	36835.35
661.60	36793.22
661.74	36563.85
661.89	36884.50
662.03	36582.57
662.17	36353.20
662.31	36467.89
662.46	36842.37
662.60	36282.98
662.74	36535.76
662.88	36030.21
663.03	35749.34
663.17	35974.03
663.31	35660.40
663.45	36250.22
663.60	36086.38
663.74	35864.03
663.88	35566.78
664.02	35426.35
664.17	35739.98
664.31	35391.24
664.45	35281.24
664.59	35543.38
664.73	36093.40
664.88	35976.37
665.02	35140.80
665.16	35487.20
665.30	35271.87
665.44	35269.53
665.59	35175.91
665.73	35051.86
665.87	34976.97
666.01	35236.77
666.15	35271.87
666.29	35049.52
666.44	35091.65
666.58	35161.87
666.72	34766.32
666.86	34728.87
667.00	34656.31
667.14	34581.42
667.28	34235.02
667.43	34455.03
667.57	34822.49
667.71	34209.27
667.85	34361.40
667.99	34125.01
668.13	34937.18
668.27	34256.08
668.41	34546.31
668.56	33961.17
668.70	34398.85
668.84	34288.85
668.98	33336.25
669.12	33734.14
669.26	33647.54
669.40	33582.01
669.54	33432.21
669.68	33954.15
669.82	33277.74
669.96	33219.22
670.10	33097.52
670.25	33825.42
670.39	33385.40
670.53	32823.67
670.67	33277.74
670.81	33394.76
670.95	32971.13
671.09	33481.36
671.23	33095.18
671.37	32999.21
671.51	32891.55
671.65	32818.99
671.79	32910.27
671.93	32477.27
672.07	32818.99
672.21	32414.08
672.35	32444.51
672.49	32348.54
672.63	32458.55
672.77	32154.28
672.91	32453.87
673.05	32247.90
673.19	32378.97
673.33	32173.00
673.47	31667.45
673.61	32004.49
673.75	31555.10
673.89	31578.51
674.03	31543.40
674.17	31419.35
674.31	31688.51
674.45	31489.57
674.59	31332.75
674.73	31744.69
674.87	31459.14
675.01	31304.67
675.15	31644.04
675.29	30644.63
675.43	31051.89
675.56	31040.18
675.70	31072.95
675.84	30677.40
675.98	29809.06
676.12	30855.28
676.26	30815.49
676.40	31138.49
676.54	31101.04
676.68	30595.48
676.82	29776.30
676.96	30050.14
677.10	30094.61
677.23	30024.39
677.37	30040.78
677.51	30150.78
677.65	29909.71
677.79	29247.33
677.93	29305.85
678.07	29467.34
678.21	29153.71
678.34	29139.67
678.48	28615.39
678.62	28945.41
678.76	28758.16
678.90	28912.64
679.04	28718.37
679.18	28655.18
679.31	28652.84
679.45	28226.86
679.59	28271.33
679.73	28388.36
679.87	28170.69
680.00	27929.61
680.14	28491.34
680.28	28224.52
680.42	28198.77
680.56	28105.15
680.70	27899.19
680.83	27742.37
680.97	27426.40
681.11	27800.88
681.25	27632.36
681.39	27826.63
681.52	27349.16
681.66	27395.97
681.80	27344.48
681.94	26909.14
682.07	27002.76
682.21	26930.20
682.35	26993.40
682.49	26698.49
682.62	26375.50
682.76	26305.28
682.90	26260.81
683.04	26185.91
683.17	26300.60
683.31	26272.51
683.45	26382.52
683.59	26328.69
683.72	25898.03
683.86	26064.21
684.00	25830.15
684.13	25820.79
684.27	25647.59
684.41	25558.65
684.55	25333.96
684.68	25748.23
684.82	25511.84
684.96	25127.99
685.09	25017.99
685.23	25160.76
685.37	24812.02
685.50	24840.11
685.64	24793.29
685.78	24261.99
685.91	24512.43
686.05	24435.19
686.19	23873.46
686.32	24154.33
686.46	23651.11
686.60	23419.40
686.73	23524.72
686.87	23199.39
687.01	23419.40
687.14	23000.44
687.28	23278.97
687.42	23335.14
687.55	23187.69
687.69	23506.00
687.82	23094.07
687.96	23363.23
688.10	23033.21
688.23	22918.53
688.37	22871.72
688.50	22761.71
688.64	23000.44
688.78	22553.40
688.91	22860.01
689.05	22377.86
689.18	22487.87
689.32	21696.77
689.46	22419.99
689.59	22115.72
689.73	22349.78
689.86	22354.46
690.00	21589.10
690.13	22150.83
690.27	21771.66
690.41	21825.50
690.54	21462.71
690.68	21708.47
690.81	21469.73
690.95	21483.78
691.08	21455.69
691.22	21469.73
691.35	21551.65
691.49	21455.69
691.62	21039.08
691.76	20966.52
691.89	20786.30
692.03	20748.85
692.16	20648.21
692.30	20318.19
692.43	20081.80
692.57	20264.36
692.70	20114.56
692.84	20147.33
692.97	20126.27
693.11	20334.57
693.24	20032.65
693.38	19468.58
693.51	19903.92
693.65	20049.03
693.78	19730.72
693.92	19786.89
694.05	19630.07
694.19	19391.34
694.32	19534.11
694.45	19286.01
694.59	19159.63
694.72	19440.49
694.86	19028.56
694.99	18698.54
695.13	18963.02
695.26	18838.97
695.39	18773.44
695.53	18850.67
695.66	18981.74
695.80	18820.25
695.93	18721.95
696.07	18412.99
696.20	18696.20
696.33	18508.96
696.47	18237.45
696.60	17980.00
696.73	17963.61
696.87	17764.67
697.00	18129.79
697.14	17961.27
697.27	17532.95
697.40	17638.28
697.54	17715.51
697.67	17287.20
697.80	17130.38
697.94	17153.79
698.07	17226.34
698.21	17114.00
698.34	17039.10
698.47	17097.61
698.61	17135.06
698.74	17165.49
698.87	16678.66
699.01	16629.51
699.14	16606.10
699.27	16460.99
699.40	16297.15
699.54	16514.82
699.67	16285.45
699.80	16407.16
699.94	16149.70
700.07	16137.99
700.20	16133.31
700.34	16156.72
700.47	16236.30
700.60	16271.40
700.73	15962.45
700.87	15761.17
701.00	15735.42
701.13	15529.45
701.26	15431.15
701.40	15482.64
701.53	15318.81
701.66	15597.33
701.79	15197.10
701.93	15000.49
702.06	14958.36
702.19	15051.99
702.32	15087.09
702.46	14909.21
702.59	14977.09
702.72	14801.55
702.85	14822.61
702.99	14583.88
703.12	14537.07
703.25	14618.99
703.38	14597.92
703.51	14724.31
703.65	14595.58
703.78	14431.74
703.91	14141.52
704.04	14108.75
704.17	14214.07
704.31	14036.19
704.44	14024.49
704.57	13671.07
704.70	14012.79
704.83	13652.34
704.96	13668.73
705.10	13738.94
705.23	13996.40
>>>>>End Processed Spectral Data<<<<<
