SpectraSuite Data File
++++++++++++++++++++++++++++++++++++
Date: Fri Oct 25 10:48:12 EDT 2013
User: price-jones
Dark Spectrum Present: No
Reference Spectrum Present: No
Number of Sampled Component Spectra: 1
Spectrometers: USB2+H05261
Integration Time (usec): 100000 (USB2+H05261)
Spectra Averaged: 1 (USB2+H05261)
Boxcar Smoothing: 0 (USB2+H05261)
Correct for Electrical Dark: No (USB2+H05261)
Strobe/Lamp Enabled: No (USB2+H05261)
Correct for Detector Non-linearity: No (USB2+H05261)
Correct for Stray Light: No (USB2+H05261)
Number of Pixels in Processed Spectrum: 2048
>>>>>Begin Processed Spectral Data<<<<<
365.73	98.30
365.92	98.30
366.12	98.30
366.32	42.13
366.52	110.01
366.72	0.00
366.91	28.09
367.11	58.51
367.31	0.00
367.51	0.00
367.70	81.92
367.90	65.54
368.10	100.64
368.30	51.49
368.49	51.49
368.69	67.88
368.89	25.75
369.09	63.19
369.28	79.58
369.48	117.03
369.68	88.94
369.87	84.26
370.07	67.88
370.27	102.98
370.47	159.16
370.66	362.78
370.86	461.09
371.06	477.47
371.25	456.40
371.45	449.38
371.65	435.34
371.84	395.55
372.04	528.96
372.24	472.79
372.44	411.93
372.63	454.06
372.83	524.28
373.03	519.60
373.22	638.97
373.42	543.00
373.62	519.60
373.81	505.56
374.01	592.16
374.21	559.39
374.40	510.24
374.60	561.73
374.79	629.60
374.99	543.00
375.19	610.88
375.38	561.73
375.58	578.11
375.78	662.37
375.97	603.86
376.17	571.09
376.37	589.82
376.56	650.67
376.76	603.86
376.95	580.45
377.15	599.18
377.35	613.22
377.54	641.31
377.74	620.24
377.93	676.41
378.13	615.56
378.33	617.90
378.52	643.65
378.72	699.82
378.91	671.73
379.11	561.73
379.31	603.86
379.50	613.22
379.70	620.24
379.89	798.12
380.09	634.29
380.28	660.03
380.48	730.25
380.68	674.07
380.87	643.65
381.07	676.41
381.26	676.41
381.46	706.84
381.65	688.12
381.85	699.82
382.04	664.71
382.24	641.31
382.43	732.59
382.63	732.59
382.83	704.50
383.02	751.31
383.22	763.01
383.41	727.91
383.61	678.76
383.80	807.48
384.00	681.10
384.19	847.27
384.39	685.78
384.58	763.01
384.78	826.21
384.97	748.97
385.17	840.25
385.36	781.74
385.56	786.42
385.75	737.27
385.95	840.25
386.14	786.42
386.34	809.83
386.53	788.76
386.72	739.61
386.92	877.70
387.11	779.40
387.31	844.93
387.50	823.87
387.70	858.98
387.89	823.87
388.09	809.83
388.28	908.13
388.48	805.14
388.67	912.81
388.86	919.83
389.06	873.02
389.25	945.58
389.45	912.81
389.64	889.40
389.84	945.58
390.03	1013.45
390.22	901.11
390.42	947.92
390.61	926.85
390.81	976.00
391.00	866.00
391.19	961.96
391.39	889.40
391.58	919.83
391.78	933.87
391.97	943.24
392.16	978.34
392.36	1064.94
392.55	950.26
392.75	1057.92
392.94	994.73
393.13	1004.09
393.33	1011.11
393.52	1011.11
393.71	1050.90
393.91	1022.81
394.10	1062.60
394.29	1013.45
394.49	1078.99
394.68	1029.84
394.88	1055.58
395.07	1165.59
395.26	1174.95
395.46	1057.92
395.65	1130.48
395.84	1123.46
396.04	1235.80
396.23	1153.88
396.42	1132.82
396.62	1081.33
396.81	1224.10
397.00	1158.57
397.19	1151.54
397.39	1226.44
397.58	1277.93
397.77	1268.57
397.97	1409.00
398.16	1235.80
398.35	1376.24
398.55	1273.25
398.74	1338.79
398.93	1317.72
399.12	1451.13
399.32	1322.40
399.51	1322.40
399.70	1397.30
399.90	1430.07
400.09	1266.23
400.28	1479.22
400.47	1469.86
400.67	1465.18
400.86	1401.98
401.05	1348.15
401.24	1504.96
401.44	1556.46
401.63	1444.11
401.82	1495.60
402.01	1500.28
402.21	1631.35
402.40	1607.95
402.59	1493.26
402.78	1600.93
402.97	1640.72
403.17	1673.48
403.36	1640.72
403.55	1584.54
403.74	1610.29
403.93	1708.59
404.13	1556.46
404.32	1659.44
404.51	1643.06
404.70	1685.19
404.89	1685.19
405.09	1694.55
405.28	1739.02
405.47	1710.93
405.66	1799.87
405.85	1837.32
406.05	1783.49
406.24	1823.28
406.43	1856.04
406.62	1884.13
406.81	1893.49
407.00	1827.96
407.20	1799.87
407.39	1898.17
407.58	1895.83
407.77	1926.26
407.96	1928.60
408.15	1914.56
408.34	1952.01
408.54	1987.11
408.73	1900.52
408.92	2057.33
409.11	2069.03
409.30	2073.71
409.49	1907.54
409.68	2080.74
409.87	2066.69
410.07	2134.57
410.26	2160.31
410.45	2165.00
410.64	2221.17
410.83	2260.96
411.02	2190.74
411.21	2275.00
411.40	2382.67
411.59	2326.49
411.78	2349.90
411.98	2225.85
412.17	2370.96
412.36	2394.37
412.55	2448.20
412.74	2413.09
412.93	2396.71
413.12	2370.96
413.31	2506.71
413.50	2495.01
413.69	2560.55
413.88	2583.95
414.07	2504.37
414.26	2569.91
414.45	2607.36
414.64	2623.74
414.83	2782.90
415.02	2719.70
415.22	2743.11
415.41	2738.43
415.60	2759.49
415.79	2843.75
415.98	2820.35
416.17	2888.22
416.36	2916.31
416.55	2874.18
416.74	2974.82
416.93	3052.06
417.12	2867.16
417.31	3077.80
417.50	3014.61
417.69	3141.00
417.88	3150.36
418.07	3000.57
418.26	3105.89
418.45	3103.55
418.64	3236.96
418.83	3178.45
419.02	3211.22
419.21	3253.34
419.39	3260.37
419.58	3206.53
419.77	3220.58
419.96	3258.03
420.15	3337.60
420.34	3290.79
420.53	3316.54
420.72	3368.03
420.91	3332.92
421.10	3251.00
421.29	3407.82
421.48	3260.37
421.67	3463.99
421.86	3426.54
422.05	3391.44
422.24	3438.25
422.43	3545.91
422.61	3454.63
422.80	3515.48
422.99	3662.94
423.18	3569.32
423.37	3648.90
423.56	3702.73
423.75	3548.25
423.94	3616.13
424.13	3368.03
424.32	3461.65
424.50	3517.83
424.69	3494.42
424.88	3651.24
425.07	3492.08
425.26	3522.51
425.45	3576.34
425.64	3522.51
425.83	3620.81
426.01	3679.32
426.20	3810.39
426.39	3527.19
426.58	3485.06
426.77	3552.93
426.96	3637.19
427.15	3803.37
427.33	3623.15
427.52	3681.66
427.71	3761.24
427.90	3779.97
428.09	3728.47
428.28	3765.92
428.46	3719.11
428.65	3833.80
428.84	3908.69
429.03	3803.37
429.22	3646.55
429.40	3887.63
429.59	3698.05
429.78	3698.05
429.97	3566.98
430.16	3779.97
430.34	3831.46
430.53	3850.18
430.72	3880.61
430.91	3995.29
431.10	3894.65
431.28	4229.35
431.47	4170.83
431.66	4271.48
431.85	4112.32
432.03	4262.12
432.22	4215.30
432.41	4234.03
432.60	4109.98
432.79	4219.99
432.97	4355.74
433.16	4245.73
433.35	4187.22
433.54	4196.58
433.72	4273.82
433.91	4404.89
434.10	4259.78
434.28	4416.59
434.47	4519.57
434.66	4554.68
434.85	4493.83
435.03	4503.19
435.22	4320.63
435.41	4580.43
435.59	4423.61
435.78	4676.39
435.97	4617.88
436.16	4550.00
436.34	4671.71
436.53	4711.50
436.72	4793.42
436.90	4610.86
437.09	4631.92
437.28	4638.94
437.46	4748.95
437.65	4720.86
437.84	4854.27
438.02	4697.46
438.21	4835.55
438.40	4713.84
438.58	4929.17
438.77	5074.28
438.96	5076.62
439.14	4987.68
439.33	4901.08
439.52	5160.88
439.70	5078.96
439.89	5104.71
440.08	5214.71
440.26	5233.44
440.45	5137.48
440.63	5301.31
440.82	5479.19
441.01	5509.62
441.19	5331.74
441.38	5387.91
441.57	5551.75
441.75	5617.29
441.94	5657.07
442.12	5685.16
442.31	5703.89
442.50	5760.06
442.68	5554.09
442.87	5650.05
443.05	5738.99
443.24	5933.26
443.43	5722.61
443.61	5797.51
443.80	5863.04
443.98	5755.38
444.17	5551.75
444.35	5982.41
444.54	6022.20
444.73	5867.72
444.91	5802.19
445.10	5935.60
445.28	5788.14
445.47	5919.21
445.65	5856.02
445.84	5923.90
446.02	5832.62
446.21	5870.06
446.39	5935.60
446.58	6054.97
446.77	6005.81
446.95	5975.39
447.14	6113.48
447.32	6036.24
447.51	6071.35
447.69	5933.26
447.88	5870.06
448.06	5951.98
448.25	6064.33
448.43	6155.61
448.62	6101.78
448.80	6015.18
448.99	6176.67
449.17	6286.68
449.36	5830.27
449.54	6101.78
449.73	6279.66
449.91	6392.00
450.10	6413.07
450.28	6326.47
450.46	6607.33
450.65	6548.82
450.83	6560.52
451.02	6399.02
451.20	6420.09
451.39	6490.31
451.57	6342.85
451.76	6389.66
451.94	6590.95
452.13	6581.59
452.31	6546.48
452.49	6434.13
452.68	6560.52
452.86	6452.86
453.05	6553.50
453.23	6642.44
453.42	6691.59
453.60	6406.05
453.78	6750.10
453.97	6705.63
454.15	6520.73
454.34	6696.27
454.52	6836.70
454.70	6925.65
454.89	6801.60
455.07	6902.24
455.26	6853.09
455.44	6953.73
455.62	6806.28
455.81	6960.75
455.99	6918.62
456.17	7119.91
456.36	6963.09
456.54	7159.70
456.73	7234.60
456.91	7335.24
457.09	7293.11
457.28	7321.20
457.46	7194.81
457.64	7396.09
457.83	7316.51
458.01	7199.49
458.19	7536.52
458.38	7358.64
458.56	7531.84
458.74	7550.57
458.93	7595.04
459.11	7588.02
459.29	7503.76
459.48	7475.67
459.66	7494.40
459.84	7648.87
460.03	7990.59
460.21	7674.62
460.39	7714.41
460.57	7733.13
460.76	7861.86
460.94	7728.45
461.12	7829.09
461.31	7929.74
461.49	7719.09
461.67	7630.15
461.85	7768.24
462.04	7871.22
462.22	8610.83
462.40	8037.40
462.59	8154.43
462.77	8060.80
462.95	8336.99
463.13	8006.97
463.32	8065.49
463.50	8245.71
463.68	8243.37
463.86	8159.11
464.05	8063.15
464.23	8299.54
464.41	8229.32
464.59	8006.97
464.78	8458.70
464.96	8243.37
465.14	8231.66
465.32	8226.98
465.50	8491.46
465.69	8615.51
465.87	8442.31
466.05	8461.04
466.23	8404.86
466.41	8390.82
466.60	8449.33
466.78	8421.25
466.96	8329.97
467.14	8468.06
467.32	8531.25
467.51	8669.34
467.69	8404.86
467.87	8493.80
468.05	8631.90
468.23	8514.87
468.41	8540.61
468.60	8507.85
468.78	8812.12
468.96	8720.84
469.14	8723.18
469.32	8898.72
469.50	8505.51
469.69	8758.28
469.87	8929.14
470.05	9018.08
470.23	9055.53
470.41	9095.32
470.59	9205.33
470.77	8936.17
470.95	9130.43
471.14	9296.61
471.32	9282.56
471.50	9439.38
471.68	9350.44
471.86	9214.69
472.04	9341.08
472.22	9701.52
472.40	9242.78
472.58	9275.54
472.77	9423.00
472.95	9490.87
473.13	9928.55
473.31	9437.04
473.49	9607.90
473.67	9654.71
473.85	9912.17
474.03	10045.58
474.21	10155.58
474.39	10146.22
474.57	10146.22
474.75	10228.14
474.93	10230.48
475.12	10120.48
475.30	10415.38
475.48	10284.31
475.66	10436.45
475.84	10279.63
476.02	10471.56
476.20	10586.24
476.38	10717.31
476.56	10869.45
476.74	10927.96
476.92	10939.66
477.10	10782.85
477.28	10881.15
477.46	10909.24
477.64	11166.70
477.82	11183.08
478.00	11283.72
478.18	11705.02
478.36	11632.46
478.54	11609.06
478.72	11690.98
478.90	11868.86
479.08	11819.71
479.26	11988.22
479.44	12016.31
479.62	12135.68
479.80	12159.08
479.98	12404.84
480.16	12451.65
480.34	12423.56
480.52	12610.81
480.70	12542.93
480.88	12278.45
481.06	12599.10
481.24	12727.83
481.41	13092.96
481.59	13233.39
481.77	13170.19
481.95	13011.04
482.13	13446.38
482.31	13270.84
482.49	13708.52
482.67	13547.02
482.85	13713.20
483.03	13823.20
483.21	13956.61
483.39	14157.90
483.57	14059.60
483.74	14235.14
483.92	14555.79
484.10	14190.67
484.28	14583.88
484.46	14527.71
484.64	14946.66
484.82	14609.62
485.00	14733.67
485.18	15073.05
485.35	15257.95
485.53	15063.69
485.71	14841.34
485.89	15356.25
486.07	15332.85
486.25	15384.34
486.43	15728.40
486.61	15885.22
486.78	16025.65
486.96	15971.82
487.14	16121.61
487.32	16418.86
487.50	16802.71
487.68	16641.21
487.85	17032.08
488.03	16776.96
488.21	17165.49
488.39	17247.41
488.57	17275.49
488.75	17467.42
488.92	17238.05
489.10	17652.32
489.28	17565.72
489.46	17935.53
489.64	17956.59
489.81	18401.29
489.99	18375.55
490.17	18728.97
490.35	18738.33
490.53	18579.17
490.70	18946.64
490.88	18663.43
491.06	18913.87
491.24	19094.09
491.41	19206.44
491.59	19475.60
491.77	19559.86
491.95	19679.22
492.13	19389.00
492.30	19950.73
492.48	20053.71
492.66	20006.90
492.84	20070.09
493.01	20194.14
493.19	20460.96
493.37	20554.58
493.54	20400.11
493.72	20769.91
493.90	20453.94
494.08	21139.72
494.25	21188.87
494.43	21530.59
494.61	21614.85
494.79	21612.51
494.96	21401.86
495.14	21778.68
495.32	21879.33
495.49	21788.05
495.67	21972.95
495.85	22419.99
496.02	22607.23
496.20	22251.47
496.38	22686.81
496.55	22335.73
496.73	22986.40
496.91	22937.25
497.09	22834.27
497.26	23129.17
497.44	23051.94
497.62	23274.29
497.79	23442.81
497.97	23367.91
498.14	23616.01
498.32	23847.72
498.50	23805.59
498.67	23887.51
498.85	24091.13
499.03	24254.97
499.20	24161.35
499.38	23983.47
499.56	24121.56
499.73	24498.39
499.91	24648.18
500.08	24854.15
500.26	24355.61
500.44	24858.83
500.61	24929.05
500.79	24802.66
500.97	24826.06
501.14	25488.43
501.32	25406.52
501.49	25104.59
501.67	25345.66
501.84	25343.32
502.02	25439.28
502.20	25895.69
502.37	25837.17
502.55	26036.12
502.72	26127.40
502.90	25776.32
503.07	25921.43
503.25	26045.48
503.43	25991.65
503.60	26520.61
503.78	26211.66
503.95	26473.80
504.13	26476.14
504.30	26764.03
504.48	26602.53
504.65	26962.97
504.83	27288.31
505.01	27503.64
505.18	27035.53
505.36	27555.13
505.53	27386.61
505.71	27555.13
505.88	27651.09
506.06	27468.53
506.23	27613.64
506.41	27091.70
506.58	27875.78
506.76	27962.38
506.93	28100.47
507.11	28077.07
507.28	27941.32
507.46	28163.67
507.63	28484.32
507.81	28128.56
507.98	28280.69
508.16	28374.31
508.33	28807.31
508.50	28802.63
508.68	28926.68
508.85	29013.28
509.03	28903.28
509.20	28952.43
509.38	29118.60
509.55	29411.17
509.73	29493.09
509.90	29535.22
510.08	29385.43
510.25	29493.09
510.42	29427.56
510.60	29441.60
510.77	29820.77
510.95	30047.80
511.12	30061.84
511.30	30003.33
511.47	30375.47
511.64	30024.39
511.82	30228.02
511.99	30347.39
512.17	30125.04
512.34	30352.07
512.51	30787.41
512.69	30831.88
512.86	30663.36
513.04	31044.87
513.21	30850.60
513.38	30916.14
513.56	30668.04
513.73	30801.45
513.90	31068.27
514.08	30986.35
514.25	31182.96
514.43	30902.09
514.60	31112.74
514.77	31014.44
514.95	31669.79
515.12	31288.28
515.29	31768.09
515.47	31765.75
515.64	31648.72
515.81	31695.53
515.99	31606.59
516.16	31948.31
516.33	31768.09
516.51	31817.24
516.68	31314.03
516.85	31924.91
517.03	32070.02
517.20	32528.77
517.37	32322.80
517.54	32114.49
517.72	32229.18
517.89	32180.03
518.06	32439.82
518.24	32058.32
518.41	32240.88
518.58	32692.60
518.75	32456.21
518.93	32657.49
519.10	32907.93
519.27	32875.16
519.45	33010.92
519.62	33123.26
519.79	33062.41
519.96	33493.07
520.14	33661.58
520.31	33624.14
520.48	33406.47
520.65	33895.64
520.83	33762.23
521.00	33326.89
521.17	33759.89
521.34	33823.08
521.52	33916.70
521.69	34279.49
521.86	34387.15
522.03	33935.43
522.20	34342.68
522.38	34705.46
522.55	34412.90
522.72	34132.03
522.89	34340.34
523.07	34600.14
523.24	33949.47
523.41	34782.70
523.58	34843.56
523.75	34827.17
523.92	35000.37
524.10	35295.28
524.27	35421.67
524.44	34981.65
524.61	35510.61
524.78	35381.88
524.96	35629.98
525.13	35728.28
525.30	35770.41
525.47	35690.83
525.64	35695.51
525.81	35772.75
525.98	35452.09
526.16	35297.62
526.33	35335.07
526.50	35789.13
526.67	35402.94
526.84	35880.41
527.01	35548.06
527.18	35964.67
527.36	35789.13
527.53	36556.83
527.70	36613.00
527.87	36306.39
528.04	36528.74
528.21	36273.62
528.38	36257.24
528.55	36601.30
528.72	36711.30
528.89	36765.14
529.07	36830.67
529.24	35922.54
529.41	36762.79
529.58	36608.32
529.75	36664.49
529.92	36713.64
530.09	37017.91
530.26	36891.52
530.43	37151.32
530.60	37097.49
530.77	36713.64
530.94	37090.47
531.11	37191.11
531.28	37359.63
531.46	37553.90
531.63	37525.81
531.80	37212.18
531.97	37256.65
532.14	37563.26
532.31	37572.62
532.48	37848.80
532.65	37844.12
532.82	37783.27
532.99	37949.45
533.16	37256.65
533.33	37947.11
533.50	37986.89
533.67	37895.61
533.84	37680.28
534.01	38316.91
534.18	37909.66
534.35	38007.96
534.52	38237.33
534.69	38043.07
534.86	38525.22
535.03	38108.60
535.20	38412.87
535.37	38478.41
535.54	38572.03
535.71	38616.50
535.88	38682.03
536.05	39136.10
536.22	38789.70
536.38	38670.33
536.55	38969.92
536.72	38389.47
536.89	38569.69
537.06	38506.49
537.23	39115.03
537.40	38738.21
537.57	38728.84
537.74	39536.33
537.91	39426.32
538.08	39171.21
538.25	39016.73
538.42	38983.96
538.59	39344.41
538.75	39166.52
538.92	39679.10
539.09	39510.58
539.26	39519.95
539.43	39311.64
539.60	39662.72
539.77	39384.19
539.94	39122.05
540.11	39438.03
540.28	39536.33
540.44	39583.14
540.61	39227.38
540.78	39229.72
540.95	39398.24
541.12	39679.10
541.29	39754.00
541.46	39915.50
541.62	40315.73
541.79	39751.66
541.96	39686.12
542.13	39871.03
542.30	40109.76
542.47	39899.11
542.63	40215.08
542.80	40268.92
542.97	40832.99
543.14	41006.19
543.31	40620.00
543.48	40271.26
543.64	41282.37
543.81	41078.74
543.98	40783.83
544.15	40624.68
544.32	41273.01
544.48	41139.60
544.65	40821.28
544.82	41207.47
544.99	40318.07
545.16	41174.70
545.32	41137.26
545.49	40797.88
545.66	41542.17
545.83	41574.94
546.00	41333.86
546.16	41516.42
546.33	41050.66
546.50	40907.88
546.67	41380.67
546.83	40868.09
547.00	41413.44
547.17	41251.94
547.34	41420.46
547.50	41532.81
547.67	41818.35
547.84	41759.84
548.00	41572.60
548.17	41771.54
548.34	41478.97
548.51	42068.79
548.67	42043.04
548.84	42403.49
549.01	41715.37
549.18	42040.70
549.34	41911.97
549.51	41965.81
549.68	42082.83
549.84	42031.34
550.01	42476.04
550.18	41869.84
550.34	42061.77
550.51	42286.46
550.68	42155.39
550.84	41970.49
551.01	42433.91
551.18	41956.44
551.34	42679.67
551.51	42431.57
551.68	42153.05
551.84	42653.92
552.01	42110.92
552.18	42110.92
552.34	42314.55
552.51	42628.18
552.68	42429.23
552.84	42536.90
553.01	42794.36
553.18	42885.64
553.34	42824.78
553.51	42396.46
553.67	42607.11
553.84	42911.38
554.01	42880.95
554.17	42892.66
554.34	43136.07
554.51	43096.28
554.67	43302.25
554.84	43002.66
555.00	42993.30
555.17	42827.12
555.33	43241.40
555.50	42948.83
555.67	42869.25
555.83	42700.73
556.00	43225.01
556.16	43489.49
556.33	43512.90
556.50	43217.99
556.66	42972.24
556.83	42852.87
556.99	43524.60
557.16	43433.32
557.32	43199.27
557.49	43435.66
557.65	43372.47
557.82	43337.36
557.98	43552.69
558.15	43117.35
558.32	43196.93
558.48	43508.22
558.65	43402.89
558.81	43751.63
558.98	43491.83
559.14	43480.13
559.31	43772.70
559.47	43576.09
559.64	43669.72
559.80	43758.66
559.97	43536.30
560.13	43538.65
560.30	43658.01
560.46	44016.11
560.63	43721.21
560.79	43697.80
560.96	43480.13
561.12	43519.92
561.29	43782.06
561.45	43761.00
561.61	43594.82
561.78	43896.75
561.94	43908.45
562.11	43461.41
562.27	43892.07
562.44	43955.26
562.60	43847.60
562.77	43962.28
562.93	44095.69
563.10	43945.90
563.26	43636.95
563.42	44109.74
563.59	43683.76
563.75	43915.47
563.92	44421.03
564.08	44177.61
564.24	44378.90
564.41	44224.42
564.57	44322.72
564.74	44231.44
564.90	44034.84
565.07	44002.07
565.23	44074.63
565.39	43985.69
565.56	44526.35
565.72	44121.44
565.88	44203.36
566.05	44449.11
566.21	44301.66
566.38	44172.93
566.54	44467.84
566.70	44591.89
566.87	44650.40
567.03	44282.94
567.19	44832.96
567.36	44685.51
567.52	44182.29
567.68	44507.63
567.85	44177.61
568.01	44275.91
568.17	44023.14
568.34	44711.25
568.50	44296.98
568.66	44278.25
568.83	44463.16
568.99	43945.90
569.15	44144.84
569.32	44137.82
569.48	44411.67
569.64	44224.42
569.81	44531.03
569.97	44252.51
570.13	44697.21
570.30	44030.16
570.46	44051.22
570.62	43756.32
570.78	44299.32
570.95	44257.19
571.11	44371.88
571.27	44170.59
571.43	44266.55
571.60	44879.77
571.76	44713.59
571.92	44313.36
572.09	44844.66
572.25	44472.52
572.41	44381.24
572.57	44795.51
572.74	44516.99
572.90	44252.51
573.06	44477.20
573.22	44505.29
573.38	44437.41
573.55	44149.53
573.71	44430.39
573.87	44404.64
574.03	44514.65
574.20	44189.31
574.36	44308.68
574.52	44816.58
574.68	44720.62
574.84	44776.79
575.01	44203.36
575.17	44907.86
575.33	44563.80
575.49	44491.24
575.65	44818.92
575.82	44940.63
575.98	44954.67
576.14	44844.66
576.30	44828.28
576.46	44577.84
576.62	44758.06
576.79	44205.70
576.95	44481.88
577.11	44603.59
577.27	44732.32
577.43	44708.91
577.59	44690.19
577.75	44376.56
577.92	44378.90
578.08	44158.89
578.24	44477.20
578.40	44851.69
578.56	44722.96
578.72	44741.68
578.88	44842.32
579.04	44601.25
579.21	44865.73
579.37	44729.98
579.53	44486.56
579.69	44428.05
579.85	44559.12
580.01	45052.97
580.17	45010.84
580.33	45006.16
580.49	44767.43
580.65	44861.05
580.82	45420.44
580.98	44715.93
581.14	44655.08
581.30	45275.32
581.46	45109.14
581.62	44863.39
581.78	44821.26
581.94	45331.50
582.10	44905.52
582.26	45118.51
582.42	44711.25
582.58	45153.62
582.74	44617.63
582.90	44561.46
583.06	45085.74
583.22	44886.79
583.38	45235.53
583.54	45120.85
583.70	44411.67
583.86	44989.78
584.02	44800.19
584.18	44847.00
584.34	44818.92
584.50	44931.26
584.66	44842.32
584.82	44589.55
584.98	44856.37
585.14	45027.23
585.30	44781.47
585.46	45212.13
585.62	44355.49
585.78	44360.17
585.94	44374.22
586.10	44610.61
586.26	44788.49
586.42	45024.89
586.58	45195.74
586.74	44832.96
586.90	44945.31
587.06	44507.63
587.22	44751.04
587.38	44814.24
587.54	45277.66
587.70	45155.96
587.86	45228.51
588.02	44711.25
588.18	44631.68
588.34	44451.45
588.49	44589.55
588.65	44856.37
588.81	44800.19
588.97	45127.87
589.13	44760.40
589.29	45132.55
589.45	44982.76
589.61	45221.49
589.77	45272.98
589.93	44907.86
590.08	44931.26
590.24	45151.27
590.40	44591.89
590.56	45104.46
590.72	44975.73
590.88	44914.88
591.04	45226.17
591.20	45272.98
591.35	45280.00
591.51	45558.53
591.67	45382.99
591.83	45221.49
591.99	44886.79
592.15	44917.22
592.31	45034.25
592.46	45031.91
592.62	45041.27
592.78	45202.77
592.94	45397.03
593.10	44968.71
593.26	45076.38
593.41	45291.71
593.57	45265.96
593.73	44697.21
593.89	45401.71
594.05	45420.44
594.20	45193.40
594.36	44987.44
594.52	45179.36
594.68	45490.65
594.84	45076.38
594.99	45666.19
595.15	45064.67
595.31	45174.68
595.47	45497.67
595.62	45357.24
595.78	46026.63
595.94	45567.89
596.10	45200.43
596.25	45595.98
596.41	45443.84
596.57	45249.58
596.73	45425.12
596.88	45076.38
597.04	45312.77
597.20	45448.52
597.36	45123.19
597.51	45162.98
597.67	45815.99
597.83	45275.32
597.99	45261.28
598.14	45507.04
598.30	45198.09
598.46	45366.60
598.61	45155.96
598.77	45022.54
598.93	45186.38
599.09	44870.41
599.24	45261.28
599.40	45621.72
599.56	45574.91
599.71	45453.20
599.87	45495.33
600.03	45312.77
600.18	45099.78
600.34	45460.23
600.50	45289.37
600.65	45261.28
600.81	45528.10
600.97	45478.95
601.12	45638.11
601.28	45619.38
601.44	45216.81
601.59	45401.71
601.75	45038.93
601.91	45195.74
602.06	45230.85
602.22	45317.45
602.37	45492.99
602.53	45394.69
602.69	46167.07
602.84	45324.47
603.00	45280.00
603.16	45378.31
603.31	45523.42
603.47	44975.73
603.62	45074.04
603.78	45425.12
603.94	45443.84
604.09	45729.39
604.25	45397.03
604.40	45081.06
604.56	45268.30
604.71	45263.62
604.87	45322.13
605.03	45406.39
605.18	44959.35
605.34	45078.72
605.49	45020.20
605.65	45675.55
605.80	45097.44
605.96	45453.20
606.12	45345.54
606.27	45256.60
606.43	44985.10
606.58	45296.39
606.74	44921.90
606.89	45123.19
607.05	44949.99
607.20	45062.33
607.36	45165.32
607.51	45319.79
607.67	44985.10
607.82	44631.68
607.98	45244.90
608.13	45118.51
608.29	45291.71
608.44	44863.39
608.60	44758.06
608.75	44659.76
608.91	44889.13
609.06	44589.55
609.22	45160.64
609.37	44774.45
609.53	44917.22
609.68	44872.75
609.84	44917.22
609.99	44980.42
610.15	45104.46
610.30	44626.99
610.46	44996.80
610.61	44446.77
610.76	45249.58
610.92	44233.78
611.07	44395.28
611.23	44587.21
611.38	44952.33
611.54	44788.49
611.69	44615.29
611.84	44439.75
612.00	44837.64
612.15	44163.57
612.31	44463.16
612.46	44524.01
612.62	45081.06
612.77	44568.48
612.92	44549.76
613.08	44598.91
613.23	44236.12
613.39	44397.62
613.54	44308.68
613.69	44573.16
613.85	44245.49
614.00	45013.18
614.15	44673.81
614.31	44655.08
614.46	44641.04
614.62	44112.08
614.77	44041.86
614.92	44301.66
615.08	44023.14
615.23	44259.53
615.38	44397.62
615.54	43880.36
615.69	44112.08
615.84	43753.97
616.00	43948.24
616.15	44062.93
616.30	44268.89
616.46	43847.60
616.61	43768.02
616.76	43950.58
616.92	43552.69
617.07	43791.42
617.22	43753.97
617.37	43674.40
617.53	43814.83
617.68	44128.46
617.83	44072.29
617.99	44093.35
618.14	44006.75
618.29	44268.89
618.45	43257.78
618.60	43482.47
618.75	43599.50
618.90	43882.70
619.06	43927.17
619.21	43601.84
619.36	44128.46
619.51	43882.70
619.67	43910.79
619.82	43672.06
619.97	44334.43
620.12	43171.18
620.28	42969.90
620.43	43414.60
620.58	43660.35
620.73	43480.13
620.89	43246.08
621.04	43367.79
621.19	43171.18
621.34	43566.73
621.49	43229.69
621.65	42871.59
621.80	43524.60
621.95	42717.12
622.10	43744.61
622.25	43412.26
622.41	42808.40
622.56	43086.92
622.71	43480.13
622.86	43016.71
623.01	43105.65
623.16	43498.86
623.32	43206.29
623.47	43433.32
623.62	43395.87
623.77	43122.03
623.92	43012.02
624.07	42815.42
624.23	42295.82
624.38	43152.46
624.53	42801.38
624.68	42890.32
624.83	42895.00
624.98	43143.09
625.13	42721.80
625.29	42431.57
625.44	42569.66
625.59	42120.28
625.74	42363.70
625.89	42110.92
626.04	42265.39
626.19	42478.38
626.34	42438.59
626.49	42607.11
626.65	42759.25
626.80	42099.22
626.95	42391.78
627.10	42295.82
627.25	42258.37
627.40	41874.52
627.55	42185.82
627.70	41570.25
627.85	41638.13
628.00	41895.59
628.15	42305.18
628.30	41811.33
628.45	42272.42
628.60	41867.50
628.76	42012.62
628.91	42319.23
629.06	42021.98
629.21	42188.16
629.36	41720.05
629.51	41537.49
629.66	42061.77
629.81	41574.94
629.96	41474.29
630.11	41902.61
630.26	41757.50
630.41	42337.95
630.56	41855.80
630.71	41628.77
630.86	41301.09
631.01	41270.67
631.16	41254.28
631.31	41544.51
631.46	41375.99
631.61	41385.35
631.76	41584.30
631.91	41558.55
632.06	41603.02
632.21	42239.65
632.36	41434.50
632.51	41308.11
632.66	41607.70
632.81	41317.48
632.96	41380.67
633.10	40842.35
633.25	41209.81
633.40	41331.52
633.55	41626.43
633.70	41390.03
633.85	41373.65
634.00	41045.97
634.15	40907.88
634.30	41296.41
634.45	40968.74
634.60	40779.15
634.75	41036.61
634.90	41155.98
635.05	41043.63
635.19	40774.47
635.34	40952.35
635.49	40678.51
635.64	40439.78
635.79	40964.06
635.94	41270.67
636.09	40514.67
636.24	41029.59
636.39	40690.21
636.53	40629.36
636.68	40641.06
636.83	40306.37
636.98	40823.62
637.13	40531.06
637.28	40907.88
637.43	41043.63
637.57	40697.24
637.72	40950.01
637.87	40364.88
638.02	40402.33
638.17	40334.45
638.32	40168.27
638.46	40357.86
638.61	40254.87
638.76	40411.69
638.91	40526.38
639.06	39793.79
639.20	40481.91
639.35	40465.52
639.50	40147.21
639.65	40554.46
639.80	40261.90
639.94	39959.97
640.09	40175.30
640.24	40304.02
640.39	39749.32
640.54	39702.51
640.68	39864.00
640.83	39929.54
640.98	40119.12
641.13	39725.91
641.27	40086.36
641.42	40128.48
641.57	40004.44
641.72	39999.76
641.86	39658.04
642.01	39864.00
642.16	39398.24
642.31	39009.71
642.45	39615.91
642.60	39091.63
642.75	39267.17
642.90	39400.58
643.04	39374.83
643.19	39365.47
643.34	39807.83
643.48	39786.77
643.63	39634.63
643.78	39428.66
643.93	39533.99
644.07	38981.62
644.22	39096.31
644.37	39000.35
644.51	39054.18
644.66	38955.88
644.81	39489.52
644.95	39721.23
645.10	39000.35
645.25	39541.01
645.39	39508.24
645.54	39189.93
645.69	39250.78
645.83	39234.40
645.98	39470.79
646.13	39084.61
646.27	38958.22
646.42	38944.17
646.57	38815.44
646.71	38522.88
646.86	39257.81
647.00	39185.25
647.15	39239.08
647.30	38845.87
647.44	38923.11
647.59	38646.93
647.74	38412.87
647.88	38249.03
648.03	38352.02
648.17	38548.62
648.32	38902.04
648.47	38553.30
648.61	38483.09
648.76	38850.55
648.90	38579.05
649.05	38944.17
649.20	38480.75
649.34	38667.99
649.49	38485.43
649.63	38302.87
649.78	38667.99
649.92	38469.04
650.07	38721.82
650.21	38223.29
650.36	38555.64
650.51	38199.88
650.65	38675.01
650.80	38618.84
650.94	38600.12
651.09	37965.83
651.23	38754.59
651.38	38359.04
651.52	38181.16
651.67	38216.27
651.81	38337.98
651.96	37996.26
652.10	37748.16
652.25	37848.80
652.39	37869.87
652.54	37963.49
652.68	38323.93
652.83	37991.58
652.97	37912.00
653.12	37912.00
653.26	38043.07
653.41	37914.34
653.55	38003.28
653.70	37682.62
653.84	37876.89
653.99	37624.11
654.13	37787.95
654.27	37551.56
654.42	37675.60
654.56	37919.02
654.71	37855.82
654.85	37890.93
655.00	37823.06
655.14	37687.31
655.29	37364.31
655.43	37420.48
655.57	37111.53
655.72	36952.38
655.86	37413.46
656.01	37186.43
656.15	37078.77
656.30	37046.00
656.44	37207.50
656.58	36830.67
656.73	37228.56
656.87	36706.62
657.01	36772.16
657.16	37256.65
657.30	36488.95
657.45	36428.10
657.59	36811.95
657.73	37429.85
657.88	37170.05
658.02	36760.45
658.16	36699.60
658.31	37020.25
658.45	37067.06
658.60	36687.90
658.74	36751.09
658.88	37003.87
659.03	36692.58
659.17	36287.67
659.31	36400.01
659.46	36409.37
659.60	36355.54
659.74	36381.29
659.89	36032.55
660.03	36095.74
660.17	36353.20
660.32	36418.74
660.46	36758.11
660.60	36488.95
660.74	36603.64
660.89	36297.03
661.03	35938.93
661.17	36030.21
661.32	35770.41
661.46	35768.07
661.60	36238.51
661.74	35384.22
661.89	35639.34
662.03	35906.16
662.17	35655.72
662.31	35241.45
662.46	35714.23
662.60	35665.08
662.74	35683.81
662.88	35674.45
663.03	35150.17
663.17	35393.58
663.31	35072.93
663.45	35519.97
663.60	35325.71
663.74	35246.13
663.88	35204.00
664.02	34499.50
664.17	34976.97
664.31	34815.47
664.45	34951.22
664.59	35283.58
664.73	35110.38
664.88	35150.17
665.02	34555.67
665.16	34876.32
665.30	34796.74
665.44	34845.90
665.59	34646.95
665.73	34455.03
665.87	34689.08
666.01	34291.19
666.15	34391.83
666.29	34513.54
666.44	34125.01
666.58	34417.58
666.72	34464.39
666.86	34274.80
667.00	34562.69
667.14	33930.75
667.28	33928.41
667.43	33642.86
667.57	33596.05
667.71	34125.01
667.85	33883.94
667.99	33591.37
668.13	33661.58
668.27	33771.59
668.41	33797.34
668.56	33450.94
668.70	33563.28
668.84	33682.65
668.98	33254.33
669.12	33621.80
669.26	33483.70
669.40	32891.55
669.54	32987.51
669.68	33120.92
669.82	32912.61
669.96	32765.16
670.10	32734.73
670.25	32687.92
670.39	33017.94
670.53	32491.32
670.67	32566.21
670.81	33130.28
670.95	32917.29
671.09	32690.26
671.23	32589.62
671.37	32428.12
671.51	32535.79
671.65	32411.74
671.79	32451.53
671.93	32226.84
672.07	32479.61
672.21	32158.96
672.35	31896.82
672.49	31922.57
672.63	32245.56
672.77	31842.99
672.91	32123.85
673.05	31789.16
673.19	31630.00
673.33	31529.36
673.47	31435.74
673.61	31711.92
673.75	31569.15
673.89	31166.57
674.03	31096.36
674.17	31150.19
674.31	31070.61
674.45	31087.00
674.59	31278.92
674.73	31049.55
674.87	30824.86
675.01	30682.08
675.15	30918.48
675.29	31089.34
675.43	30515.90
675.56	30817.83
675.70	30618.89
675.84	30157.80
675.98	29453.30
676.12	30043.12
676.26	30167.16
676.40	29905.02
676.54	30242.06
676.68	30038.44
676.82	29532.88
676.96	29853.53
677.10	29570.33
677.23	29357.34
677.37	29619.48
677.51	29560.97
677.65	29308.19
677.79	29139.67
677.93	29034.35
678.07	29172.44
678.21	28994.56
678.34	28404.74
678.48	28570.92
678.62	28732.42
678.76	28613.05
678.90	27960.04
679.04	28348.57
679.18	28828.38
679.31	28107.49
679.45	27922.59
679.59	27995.15
679.73	28020.89
679.87	28025.57
680.00	28037.28
680.14	27723.65
680.28	27529.38
680.42	27580.87
680.56	27700.24
680.70	27424.06
680.83	27534.06
680.97	27213.41
681.11	27180.64
681.25	26909.14
681.39	26831.90
681.52	27143.19
681.66	26824.88
681.80	26661.04
681.94	26602.53
682.07	26642.32
682.21	26366.13
682.35	26370.82
682.49	26462.10
682.62	26410.60
682.76	26005.69
682.90	25958.88
683.04	26127.40
683.17	25797.38
683.31	26026.76
683.45	25881.64
683.59	25703.76
683.72	25472.05
683.86	25694.40
684.00	25006.28
684.13	25446.30
684.27	25621.84
684.41	25259.06
684.55	24641.16
684.68	24589.67
684.82	25043.73
684.96	24613.07
685.09	24631.80
685.23	24793.29
685.37	24566.26
685.50	24795.64
685.64	24482.00
685.78	24498.39
685.91	24285.40
686.05	24290.08
686.19	23608.98
686.32	24219.86
686.46	23915.59
686.60	23349.18
686.73	23346.84
686.87	23538.77
687.01	23248.54
687.14	23131.51
687.28	23140.88
687.42	22822.56
687.55	23110.45
687.69	22848.31
687.82	22890.44
687.96	22822.56
688.10	22661.07
688.23	22504.25
688.37	22869.37
688.50	22328.71
688.64	22176.58
688.78	22199.98
688.91	21699.11
689.05	22050.19
689.18	22183.60
689.32	21926.14
689.46	22277.22
689.59	22101.68
689.73	22148.49
689.86	21951.88
690.00	21521.23
690.13	21942.52
690.27	21979.97
690.41	21680.38
690.54	21245.04
690.68	21172.49
690.81	20961.84
690.95	21057.80
691.08	21116.31
691.22	21027.37
691.35	21003.97
691.49	20776.94
691.62	20905.66
691.76	20636.50
691.89	20725.44
692.03	20482.03
692.16	20648.21
692.30	20622.46
692.43	20350.96
692.57	20421.17
692.70	20315.85
692.84	20046.69
692.97	20121.59
693.11	19805.61
693.24	19531.77
693.38	19744.76
693.51	19721.35
693.65	19393.68
693.78	19695.61
693.92	19735.40
694.05	19353.89
694.19	19180.69
694.32	19330.48
694.45	19098.77
694.59	18850.67
694.72	19056.64
694.86	18689.18
694.99	18665.77
695.13	18796.84
695.26	18480.87
695.39	18525.34
695.53	18459.81
695.66	18616.62
695.80	18431.72
695.93	18050.21
696.07	17778.71
696.20	17994.04
696.33	18298.31
696.47	17972.97
696.60	17877.01
696.73	17980.00
696.87	17752.96
697.00	17855.95
697.14	17664.02
697.27	17451.03
697.40	17467.42
697.54	17703.81
697.67	17446.35
697.80	17394.86
697.94	17273.15
698.07	17057.82
698.21	17085.91
698.34	17188.89
698.47	16898.67
698.61	16563.97
698.74	16631.85
698.87	16444.60
699.01	16449.28
699.14	16152.04
699.27	16690.36
699.40	16257.36
699.54	16290.13
699.67	16423.54
699.80	16292.47
699.94	16060.76
700.07	16152.04
700.20	15754.15
700.34	15805.64
700.47	15719.04
700.60	15625.42
700.73	15784.57
700.87	15836.06
701.00	15681.59
701.13	15367.96
701.26	15459.24
701.40	15253.27
701.53	15407.75
701.66	15382.00
701.79	15103.48
701.93	14988.79
702.06	14813.25
702.19	14754.74
702.32	15007.52
702.46	14721.97
702.59	14860.06
702.72	14560.47
702.85	14817.93
702.99	14752.40
703.12	14719.63
703.25	14368.55
703.38	14352.16
703.51	14352.16
703.65	14342.80
703.78	14448.13
703.91	14054.92
704.04	14331.10
704.17	14190.67
704.31	14059.60
704.44	13797.46
704.57	13792.78
704.70	13572.77
704.83	13570.43
704.96	13933.21
705.10	13846.61
705.23	13741.29
>>>>>End Processed Spectral Data<<<<<
