SpectraSuite Data File
++++++++++++++++++++++++++++++++++++
Date: Fri Oct 25 10:48:05 EDT 2013
User: price-jones
Dark Spectrum Present: No
Reference Spectrum Present: No
Number of Sampled Component Spectra: 1
Spectrometers: USB2+H05261
Integration Time (usec): 100000 (USB2+H05261)
Spectra Averaged: 1 (USB2+H05261)
Boxcar Smoothing: 0 (USB2+H05261)
Correct for Electrical Dark: No (USB2+H05261)
Strobe/Lamp Enabled: No (USB2+H05261)
Correct for Detector Non-linearity: No (USB2+H05261)
Correct for Stray Light: No (USB2+H05261)
Number of Pixels in Processed Spectrum: 2048
>>>>>Begin Processed Spectral Data<<<<<
365.73	147.45
365.92	147.45
366.12	147.45
366.32	91.28
366.52	0.00
366.72	4.68
366.91	42.13
367.11	56.17
367.31	42.13
367.51	42.13
367.70	98.30
367.90	105.32
368.10	30.43
368.30	42.13
368.49	0.00
368.69	84.26
368.89	28.09
369.09	72.56
369.28	46.81
369.48	42.13
369.68	156.82
369.87	222.35
370.07	117.03
370.27	194.26
370.47	234.05
370.66	372.15
370.86	411.93
371.06	482.15
371.25	578.11
371.45	484.49
371.65	430.66
371.84	383.85
372.04	461.09
372.24	442.36
372.44	421.30
372.63	423.64
372.83	491.51
373.03	465.77
373.22	500.87
373.42	435.34
373.62	514.92
373.81	517.26
374.01	517.26
374.21	519.60
374.40	557.05
374.60	617.90
374.79	557.05
374.99	456.40
375.19	547.69
375.38	608.54
375.58	440.02
375.78	559.39
375.97	557.05
376.17	613.22
376.37	629.60
376.56	603.86
376.76	554.71
376.95	573.43
377.15	660.03
377.35	545.34
377.54	645.99
377.74	585.13
377.93	545.34
378.13	585.13
378.33	589.82
378.52	641.31
378.72	624.92
378.91	606.20
379.11	629.60
379.31	566.41
379.50	561.73
379.70	643.65
379.89	613.22
380.09	657.69
380.28	617.90
380.48	575.77
380.68	624.92
380.87	688.12
381.07	662.37
381.26	638.97
381.46	704.50
381.65	650.67
381.85	713.86
382.04	723.23
382.24	681.10
382.43	631.94
382.63	643.65
382.83	636.63
383.02	685.78
383.22	725.57
383.41	636.63
383.61	751.31
383.80	781.74
384.00	725.57
384.19	758.33
384.39	777.06
384.58	706.84
384.78	760.67
384.97	704.50
385.17	732.59
385.36	765.36
385.56	725.57
385.75	692.80
385.95	748.97
386.14	800.46
386.34	779.40
386.53	770.04
386.72	791.10
386.92	837.91
387.11	711.52
387.31	847.27
387.50	751.31
387.70	882.38
387.89	798.12
388.09	828.55
388.28	767.70
388.48	844.93
388.67	842.59
388.86	826.21
389.06	891.74
389.25	887.06
389.45	828.55
389.64	978.34
389.84	873.02
390.03	851.96
390.22	954.94
390.42	877.70
390.61	903.45
390.81	858.98
391.00	985.37
391.19	837.91
391.39	940.90
391.58	926.85
391.78	952.60
391.97	973.66
392.16	894.08
392.36	997.07
392.55	968.98
392.75	861.32
392.94	873.02
393.13	1006.43
393.33	1011.11
393.52	1004.09
393.71	1015.79
393.91	1060.26
394.10	983.02
394.29	1100.05
394.49	1046.22
394.68	1060.26
394.88	1095.37
395.07	1125.80
395.26	1116.44
395.46	1118.78
395.65	1132.82
395.84	1123.46
396.04	1196.01
396.23	1064.94
396.42	1032.18
396.62	1153.88
396.81	1160.91
397.00	1125.80
397.19	1184.31
397.39	1163.25
397.58	1186.65
397.77	1219.42
397.97	1188.99
398.16	1170.27
398.35	1310.70
398.55	1263.89
398.74	1273.25
398.93	1324.74
399.12	1263.89
399.32	1317.72
399.51	1228.78
399.70	1294.32
399.90	1336.45
400.09	1306.02
400.28	1387.94
400.47	1469.86
400.67	1490.92
400.86	1444.11
401.05	1380.92
401.24	1406.66
401.44	1373.89
401.63	1453.47
401.82	1460.49
402.01	1437.09
402.21	1392.62
402.40	1458.15
402.59	1467.52
402.78	1444.11
402.97	1514.33
403.17	1502.62
403.36	1563.48
403.55	1465.18
403.74	1624.33
403.93	1572.84
404.13	1568.16
404.32	1659.44
404.51	1551.78
404.70	1624.33
404.89	1678.16
405.09	1675.82
405.28	1668.80
405.47	1694.55
405.66	1727.32
405.85	1720.29
406.05	1668.80
406.24	1713.27
406.43	1729.66
406.62	1809.23
406.81	1926.26
407.00	1762.42
407.20	1713.27
407.39	1708.59
407.58	1944.99
407.77	1813.92
407.96	1853.70
408.15	1963.71
408.34	1977.75
408.54	1980.09
408.73	1827.96
408.92	1947.33
409.11	1944.99
409.30	1961.37
409.49	1940.30
409.68	2129.89
409.87	1881.79
410.07	2033.93
410.26	2141.59
410.45	2024.56
410.64	2153.29
410.83	2108.82
411.02	2122.87
411.21	2188.40
411.40	2282.02
411.59	2235.21
411.78	2263.30
411.98	2263.30
412.17	2300.75
412.36	2321.81
412.55	2403.73
412.74	2363.94
412.93	2368.62
413.12	2331.17
413.31	2555.86
413.50	2392.03
413.69	2464.58
413.88	2443.52
414.07	2466.92
414.26	2480.97
414.45	2593.31
414.64	2593.31
414.83	2576.93
415.02	2544.16
415.22	2679.91
415.41	2630.76
415.60	2640.12
415.79	2581.61
415.98	2789.92
416.17	2691.62
416.36	2822.69
416.55	2782.90
416.74	2825.03
416.93	2911.63
417.12	2705.66
417.31	2979.50
417.50	2970.14
417.69	2977.16
417.88	2998.23
418.07	2878.86
418.26	2930.35
418.45	3077.80
418.64	3091.85
418.83	3178.45
419.02	3091.85
419.21	3108.23
419.39	3192.49
419.58	3068.44
419.77	3056.74
419.96	3117.59
420.15	3229.94
420.34	3131.64
420.53	3183.13
420.72	3386.76
420.91	3283.77
421.10	3377.39
421.29	3368.03
421.48	3342.28
421.67	3258.03
421.86	3396.12
422.05	3372.71
422.24	3456.97
422.43	3410.16
422.61	3396.12
422.80	3342.28
422.99	3440.59
423.18	3337.60
423.37	3501.44
423.56	3534.21
423.75	3503.78
423.94	3353.99
424.13	3164.40
424.32	3262.71
424.50	3428.88
424.69	3494.42
424.88	3386.76
425.07	3550.59
425.26	3461.65
425.45	3410.16
425.64	3449.95
425.83	3557.61
426.01	3679.32
426.20	3550.59
426.39	3552.93
426.58	3459.31
426.77	3569.32
426.96	3543.57
427.15	3517.83
427.33	3684.00
427.52	3522.51
427.71	3552.93
427.90	3592.72
428.09	3588.04
428.28	3702.73
428.46	3667.62
428.65	3679.32
428.84	3817.41
429.03	3810.39
429.22	3599.74
429.40	3833.80
429.59	3803.37
429.78	3627.83
429.97	3602.08
430.16	3854.86
430.34	3812.73
430.53	3744.86
430.72	3817.41
430.91	3889.97
431.10	3836.14
431.28	4016.36
431.47	3967.21
431.66	4208.28
431.85	4016.36
432.03	4152.11
432.22	4051.47
432.41	4077.21
432.60	4100.62
432.79	4081.89
432.97	3911.04
433.16	4215.30
433.35	4093.60
433.54	4154.45
433.72	4222.33
433.91	4112.32
434.10	4248.07
434.28	4166.15
434.47	4290.20
434.66	4362.76
434.85	4407.23
435.03	4353.40
435.22	4304.25
435.41	4451.70
435.59	4463.40
435.78	4503.19
435.97	4526.60
436.16	4397.87
436.34	4402.55
436.53	4442.34
436.72	4622.56
436.90	4610.86
437.09	4512.55
437.28	4493.83
437.46	4505.53
437.65	4552.34
437.84	4470.42
438.02	4741.93
438.21	4517.23
438.40	4514.89
438.58	4732.56
438.77	4814.48
438.96	4739.58
439.14	4746.61
439.33	4971.30
439.52	5130.45
439.70	5102.37
439.89	4978.32
440.08	5144.50
440.26	4936.19
440.45	4985.34
440.63	5107.05
440.82	5156.20
441.01	5254.50
441.19	5305.99
441.38	5355.15
441.57	5385.57
441.75	5514.30
441.94	5387.91
442.12	5668.78
442.31	5462.81
442.50	5467.49
442.68	5472.17
442.87	5535.37
443.05	5514.30
443.24	5757.72
443.43	5598.56
443.61	5813.89
443.80	5813.89
443.98	5568.13
444.17	5472.17
444.35	5678.14
444.54	5628.99
444.73	5769.42
444.91	5568.13
445.10	5703.89
445.28	5668.78
445.47	5785.80
445.65	5741.33
445.84	5717.93
446.02	5792.83
446.21	5687.50
446.39	5809.21
446.58	5790.49
446.77	5834.96
446.95	5834.96
447.14	5846.66
447.32	5900.49
447.51	5928.58
447.69	5933.26
447.88	5874.74
448.06	5902.83
448.25	5853.68
448.43	5799.85
448.62	5895.81
448.80	5743.67
448.99	5844.32
449.17	6057.31
449.36	5895.81
449.54	6022.20
449.73	6083.05
449.91	6244.55
450.10	6141.57
450.28	6401.37
450.46	6335.83
450.65	6303.06
450.83	6286.68
451.02	6258.59
451.20	6249.23
451.39	6272.64
451.57	6214.12
451.76	6265.61
451.94	6352.21
452.13	6335.83
452.31	6338.17
452.49	6263.27
452.68	6307.74
452.86	6455.20
453.05	6359.24
453.23	6593.29
453.42	6476.26
453.60	6427.11
453.78	6506.69
453.97	6422.43
454.15	6546.48
454.34	6413.07
454.52	6686.91
454.70	6637.76
454.89	6789.89
455.07	6682.23
455.26	6675.21
455.44	6780.53
455.62	6820.32
455.81	6813.30
455.99	6787.55
456.17	6942.03
456.36	6853.09
456.54	6939.69
456.73	6857.77
456.91	7009.90
457.09	7023.95
457.28	7166.72
457.46	7159.70
457.64	7192.47
457.83	7178.42
458.01	6972.46
458.19	7258.00
458.38	7239.28
458.56	7159.70
458.74	7372.69
458.93	7262.68
459.11	7325.88
459.29	7309.49
459.48	7372.69
459.66	7447.58
459.84	7468.65
460.03	7506.10
460.21	7391.41
460.39	7599.72
460.57	7466.31
460.76	7398.43
460.94	7398.43
461.12	7698.02
461.31	7637.17
461.49	7492.05
461.67	7555.25
461.85	7543.55
462.04	7681.64
462.22	8205.92
462.40	7882.92
462.59	7798.66
462.77	7747.17
462.95	7831.43
463.13	7803.35
463.32	7880.58
463.50	8023.36
463.68	7974.21
463.86	7985.91
464.05	7761.22
464.23	7918.03
464.41	8006.97
464.59	7871.22
464.78	8084.21
464.96	7976.55
465.14	7990.59
465.32	8198.90
465.50	8203.58
465.69	8217.62
465.87	8121.66
466.05	8121.66
466.23	8018.68
466.41	8051.44
466.60	8147.40
466.78	8259.75
466.96	8205.92
467.14	8152.09
467.32	8189.53
467.51	8444.65
467.69	8163.79
467.87	8264.43
468.05	8376.78
468.23	8400.18
468.41	8393.16
468.60	8507.85
468.78	8582.74
468.96	8531.25
469.14	8727.86
469.32	8791.05
469.50	8451.67
469.69	8865.95
469.87	8751.26
470.05	8929.14
470.23	8587.43
470.41	8837.86
470.59	8936.17
470.77	8788.71
470.95	8842.54
471.14	8954.89
471.32	8868.29
471.50	9055.53
471.68	9210.01
471.86	9207.67
472.04	9050.85
472.22	9282.56
472.40	9092.98
472.58	9266.18
472.77	9291.93
472.95	9434.70
473.13	9717.90
473.31	9371.50
473.49	9341.08
473.67	9305.97
473.85	9460.45
474.03	9706.20
474.21	9692.16
474.39	9790.46
474.57	9823.23
474.75	9951.96
474.93	9895.78
475.12	9778.76
475.30	9905.15
475.48	9944.94
475.66	10059.62
475.84	9996.43
476.02	10352.19
476.20	10171.97
476.38	10363.89
476.56	10649.44
476.74	10738.38
476.92	10424.75
477.10	10422.41
477.28	10686.89
477.46	10768.80
477.64	10661.14
477.82	10988.82
478.00	11241.59
478.18	11178.40
478.36	11236.91
478.54	11410.11
478.72	11220.53
478.90	11639.48
479.08	11485.01
479.26	11541.18
479.44	11625.44
479.62	11676.93
479.80	11688.64
479.98	12084.19
480.16	12119.29
480.34	11934.39
480.52	12065.46
480.70	12257.39
480.88	12191.85
481.06	12287.81
481.24	12287.81
481.41	12524.21
481.59	12748.90
481.77	12739.54
481.95	12996.99
482.13	13055.51
482.31	12968.91
482.49	13467.44
482.67	13373.82
482.85	13441.70
483.03	13535.32
483.21	13451.06
483.39	13874.70
483.57	13713.20
483.74	14001.08
483.92	13947.25
484.10	13848.95
484.28	14291.31
484.46	14471.53
484.64	14427.06
484.82	14277.27
485.00	14614.30
485.18	14801.55
485.35	14981.77
485.53	14728.99
485.71	14817.93
485.89	14956.02
486.07	15119.86
486.25	14995.81
486.43	15428.81
486.61	15543.50
486.78	15672.23
486.96	15826.70
487.14	15754.15
487.32	15819.68
487.50	16449.28
487.68	16056.08
487.85	16580.36
488.03	16573.33
488.21	16702.06
488.39	16922.07
488.57	16903.35
488.75	16959.52
488.92	17294.22
489.10	17186.55
489.28	17198.26
489.46	17380.82
489.64	17741.26
489.81	18017.44
489.99	18333.42
490.17	18405.97
490.35	18263.20
490.53	18197.67
490.70	18286.61
490.88	18064.25
491.06	18682.16
491.24	18452.78
491.41	18728.97
491.59	19023.87
491.77	19000.47
491.95	18960.68
492.13	19246.23
492.30	19269.63
492.48	19632.41
492.66	19248.57
492.84	19594.96
493.01	19969.45
493.19	19896.89
493.37	20264.36
493.54	20184.78
493.72	20297.13
493.90	20692.68
494.08	20723.10
494.25	21053.12
494.43	20982.90
494.61	21071.84
494.79	20931.41
494.96	21149.08
495.14	20978.22
495.32	21497.82
495.49	21415.90
495.67	21671.02
495.85	21996.35
496.02	21830.18
496.20	21881.67
496.38	22235.09
496.55	22085.30
496.73	22565.10
496.91	22410.63
497.09	22508.93
497.26	22682.13
497.44	22801.50
497.62	22796.82
497.79	23098.75
497.97	22794.48
498.14	23192.37
498.32	23192.37
498.50	23122.15
498.67	23487.28
498.85	23075.34
499.03	23599.62
499.20	23583.24
499.38	23967.09
499.56	24114.54
499.73	24182.42
499.91	23875.80
500.08	24112.20
500.26	23967.09
500.44	24414.13
500.61	24629.46
500.79	24332.21
500.97	24402.43
501.14	24849.47
501.32	24954.79
501.49	24898.62
501.67	24793.29
501.84	25106.93
502.02	24482.00
502.20	25095.22
502.37	25530.56
502.55	25446.30
502.72	25635.89
502.90	25502.48
503.07	25624.18
503.25	25378.43
503.43	25493.12
503.60	25865.26
503.78	25717.81
503.95	26075.91
504.13	26162.51
504.30	26031.44
504.48	26361.45
504.65	26237.41
504.83	26752.32
505.01	26649.34
505.18	26848.29
505.36	26789.77
505.53	26464.44
505.71	26979.36
505.88	26974.67
506.06	26569.76
506.23	27063.61
506.41	26934.88
506.58	27096.38
506.76	27431.08
506.93	27674.49
507.11	27665.13
507.28	27786.84
507.46	27604.28
507.63	27517.68
507.81	27878.12
507.98	27447.46
508.16	27861.74
508.33	28123.88
508.50	28011.53
508.68	28292.40
508.85	28030.26
509.03	28409.42
509.20	28500.70
509.38	28481.98
509.55	28634.11
509.73	28716.03
509.90	28922.00
510.08	28610.71
510.25	28779.23
510.42	29050.73
510.60	29095.20
510.77	29139.67
510.95	29546.92
511.12	28891.57
511.30	29305.85
511.47	29493.09
511.64	29677.99
511.82	29708.42
511.99	29432.24
512.17	29820.77
512.34	29827.79
512.51	30073.54
512.69	29797.36
512.86	29909.71
513.04	29937.79
513.21	30319.30
513.38	30103.97
513.56	30359.09
513.73	30071.20
513.90	30101.63
514.08	30216.32
514.25	30558.03
514.43	30476.12
514.60	30387.18
514.77	30787.41
514.95	31033.16
515.12	30937.20
515.29	30895.07
515.47	31414.67
515.64	31232.11
515.81	31012.10
515.99	31168.91
516.16	30976.99
516.33	31395.95
516.51	31960.02
516.68	30972.31
516.85	31171.25
517.03	31309.35
517.20	31489.57
517.37	31531.70
517.54	31768.09
517.72	32016.19
517.89	31833.63
518.06	31985.76
518.24	31770.43
518.41	31683.83
518.58	31669.79
518.75	31716.60
518.93	32514.72
519.10	32037.25
519.27	32374.29
519.45	32236.20
519.62	32376.63
519.79	32617.71
519.96	32304.07
520.14	32692.60
520.31	32741.75
520.48	33071.77
520.65	32610.68
520.83	33006.23
521.00	33593.71
521.17	33273.06
521.34	32966.45
521.52	33556.26
521.69	33270.72
521.86	33549.24
522.03	33446.26
522.20	33441.57
522.38	33720.10
522.55	33387.74
522.72	33766.91
522.89	34089.90
523.07	33879.25
523.24	33584.35
523.41	33905.00
523.58	33823.08
523.75	34092.24
523.92	34653.97
524.10	34026.71
524.27	34213.95
524.44	34373.11
524.61	34593.12
524.78	35009.73
524.96	34958.24
525.13	34735.89
525.30	34993.35
525.47	34909.09
525.64	34707.80
525.81	35077.61
525.98	35098.67
526.16	35033.14
526.33	35033.14
526.50	35550.40
526.67	35058.88
526.84	35096.33
527.01	35093.99
527.18	35082.29
527.36	35379.54
527.53	35288.26
527.70	35700.19
527.87	35955.31
528.04	35508.27
528.21	35693.17
528.38	35594.87
528.55	36287.67
528.72	36182.34
528.89	36013.82
529.07	35910.84
529.24	35615.93
529.41	36154.26
529.58	36032.55
529.75	36205.75
529.92	36350.86
530.09	36708.96
530.26	36039.57
530.43	36308.73
530.60	36292.35
530.77	36587.25
530.94	36814.29
531.11	36505.34
531.28	37043.66
531.46	36669.17
531.63	36933.65
531.80	36622.36
531.97	36634.06
532.14	36737.05
532.31	36790.88
532.48	36973.44
532.65	37425.17
532.82	36823.65
532.99	36961.74
533.16	37331.54
533.33	37380.70
533.50	37404.10
533.67	37436.87
533.84	37205.16
534.01	37130.26
534.18	37249.63
534.35	37479.00
534.52	37425.17
534.69	37507.08
534.86	37443.89
535.03	37832.42
535.20	38033.71
535.37	38291.16
535.54	38218.61
535.71	37628.79
535.88	38103.92
536.05	37986.89
536.22	38108.60
536.38	38132.01
536.55	38155.41
536.72	38012.64
536.89	38361.38
537.06	38408.19
537.23	38600.12
537.40	38321.59
537.57	38188.18
537.74	38455.00
537.91	38707.78
538.08	38785.02
538.25	38529.90
538.42	38801.40
538.59	39161.84
538.75	38258.40
538.92	38565.01
539.09	39168.87
539.26	38843.53
539.43	38944.17
539.60	38969.92
539.77	38747.57
539.94	38960.56
540.11	38902.04
540.28	39002.69
540.44	38869.28
540.61	38845.87
540.78	38646.93
540.95	38986.30
541.12	38738.21
541.29	38998.01
541.46	39398.24
541.62	39398.24
541.79	39489.52
541.96	39480.16
542.13	39463.77
542.30	39407.60
542.47	39835.92
542.63	39447.39
542.80	39613.57
542.97	39835.92
543.14	39971.67
543.31	40151.89
543.48	40016.14
543.64	40596.59
543.81	40645.74
543.98	40395.31
544.15	40261.90
544.32	40088.70
544.48	40612.98
544.65	40706.60
544.82	40650.42
544.99	39917.84
545.16	40479.57
545.32	40718.30
545.49	40964.06
545.66	40659.79
545.83	40533.40
546.00	41256.62
546.16	40779.15
546.33	40411.69
546.50	40165.93
546.67	40856.39
546.83	40011.46
547.00	40524.04
547.17	40854.05
547.34	40573.19
547.50	40889.16
547.67	41074.06
547.84	40907.88
548.00	41301.09
548.17	41261.30
548.34	41240.24
548.51	41273.01
548.67	41361.95
548.84	41308.11
549.01	40790.86
549.18	41102.15
549.34	41443.87
549.51	41322.16
549.68	41242.58
549.84	42113.26
550.01	41563.23
550.18	41544.51
550.34	41446.21
550.51	41193.43
550.68	42122.62
550.84	41493.02
551.01	41837.08
551.18	41420.46
551.34	41209.81
551.51	41558.55
551.68	42012.62
551.84	42059.43
552.01	41759.84
552.18	41778.56
552.34	41596.00
552.51	41979.85
552.68	42043.04
552.84	41909.63
553.01	42017.30
553.18	42103.90
553.34	41727.07
553.51	41638.13
553.67	42150.71
553.84	42288.80
554.01	42403.49
554.17	42384.76
554.34	42469.02
554.51	42761.59
554.67	42707.76
554.84	42436.25
555.00	41933.04
555.17	42103.90
555.33	42478.38
555.50	42576.69
555.67	42300.50
555.83	42443.27
556.00	42719.46
556.16	43002.66
556.33	42607.11
556.50	42916.06
556.66	42438.59
556.83	42293.48
556.99	42822.44
557.16	42930.11
557.32	42815.42
557.49	42834.14
557.65	42997.98
557.82	42869.25
557.98	42295.82
558.15	42686.69
558.32	42731.16
558.48	42876.27
558.65	43206.29
558.81	43012.02
558.98	43248.42
559.14	43129.05
559.31	43075.22
559.47	42965.21
559.64	43349.06
559.80	43540.99
559.97	43328.00
560.13	42775.63
560.30	43316.29
560.46	43049.47
560.63	43040.11
560.79	42948.83
560.96	43351.40
561.12	43379.49
561.29	43363.11
561.45	43206.29
561.61	43374.81
561.78	43178.20
561.94	42895.00
562.11	43105.65
562.27	42873.93
562.44	43274.16
562.60	43526.94
562.77	43906.11
562.93	43115.01
563.10	43599.50
563.26	43302.25
563.42	43737.59
563.59	43217.99
563.75	43342.04
563.92	43674.40
564.08	43360.76
564.24	43831.21
564.41	43913.13
564.57	43753.97
564.74	43702.48
564.90	43835.89
565.07	43742.27
565.23	43470.77
565.39	43613.54
565.56	43901.43
565.72	43594.82
565.88	43386.51
566.05	43606.52
566.21	43648.65
566.38	43440.34
566.54	43772.70
566.70	44041.86
566.87	44257.19
567.03	43761.00
567.19	44051.22
567.36	44058.24
567.52	43241.40
567.68	43590.14
567.85	43725.89
568.01	43999.73
568.17	44107.40
568.34	43629.93
568.50	43842.92
568.66	43782.06
568.83	44025.48
568.99	43491.83
569.15	43669.72
569.32	43992.71
569.48	43826.53
569.64	43824.19
569.81	43669.72
569.97	43646.31
570.13	44144.84
570.30	43709.50
570.46	43702.48
570.62	43438.00
570.78	43992.71
570.95	43889.73
571.11	44271.23
571.27	43763.34
571.43	43779.72
571.60	44355.49
571.76	44247.83
571.92	43824.19
572.09	43585.46
572.25	43796.10
572.41	44273.57
572.57	44238.47
572.74	44491.24
572.90	43880.36
573.06	44311.02
573.22	44133.14
573.38	44229.10
573.55	44313.36
573.71	44170.59
573.87	44027.82
574.03	43838.23
574.20	43831.21
574.36	44163.57
574.52	44261.87
574.68	44507.63
574.84	44215.06
575.01	44383.58
575.17	43899.09
575.33	43749.29
575.49	43943.56
575.65	44259.53
575.82	44622.31
575.98	44341.45
576.14	44411.67
576.30	44058.24
576.46	44327.41
576.62	44086.33
576.79	43943.56
576.95	43875.68
577.11	43957.60
577.27	44198.68
577.43	44582.52
577.59	43915.47
577.75	44353.15
577.92	43838.23
578.08	43913.13
578.24	43819.51
578.40	44093.35
578.56	43885.04
578.72	44184.63
578.88	44540.39
579.04	44264.21
579.21	44039.52
579.37	44287.62
579.53	44343.79
579.69	43859.30
579.85	44247.83
580.01	44243.15
580.17	43934.20
580.33	44512.31
580.49	44559.12
580.65	44264.21
580.82	44247.83
580.98	43906.11
581.14	44109.74
581.30	44474.86
581.46	44119.10
581.62	44573.16
581.78	43899.09
581.94	44886.79
582.10	44086.33
582.26	44374.22
582.42	44360.17
582.58	43927.17
582.74	44278.25
582.90	44608.27
583.06	44814.24
583.22	44505.29
583.38	44465.50
583.54	44369.54
583.70	44477.20
583.86	44332.09
584.02	44374.22
584.18	44683.17
584.34	44655.08
584.50	44020.80
584.66	44430.39
584.82	44664.44
584.98	44854.03
585.14	44835.30
585.30	44545.08
585.46	44119.10
585.62	44385.92
585.78	44098.03
585.94	44322.72
586.10	44025.48
586.26	44142.50
586.42	44744.02
586.58	44531.03
586.74	44643.38
586.90	44222.08
587.06	44477.20
587.22	44671.46
587.38	44456.14
587.54	44847.00
587.70	44734.66
587.86	44891.48
588.02	44458.48
588.18	44554.44
588.34	44360.17
588.49	44414.01
588.65	44294.64
588.81	44130.80
588.97	44203.36
589.13	44348.47
589.29	44072.29
589.45	44296.98
589.61	45020.20
589.77	45067.02
589.93	44617.63
590.08	45090.42
590.24	44795.51
590.40	44863.39
590.56	45050.63
590.72	44634.02
590.88	44154.21
591.04	44505.29
591.20	44634.02
591.35	45052.97
591.51	45170.00
591.67	44748.70
591.83	44729.98
591.99	44449.11
592.15	44720.62
592.31	44737.00
592.46	44617.63
592.62	44795.51
592.78	44739.34
592.94	44954.67
593.10	44603.59
593.26	45031.91
593.41	44669.12
593.57	44652.74
593.73	44395.28
593.89	44755.72
594.05	44800.19
594.20	44839.98
594.36	44987.44
594.52	44512.31
594.68	44966.37
594.84	44460.82
594.99	45027.23
595.15	44802.53
595.31	44837.64
595.47	44755.72
595.62	45048.29
595.78	45052.97
595.94	44748.70
596.10	45071.70
596.25	45125.53
596.41	45603.00
596.57	44924.24
596.73	45254.26
596.88	44795.51
597.04	44741.68
597.20	45116.17
597.36	44753.38
597.51	45420.44
597.67	45167.66
597.83	45092.76
597.99	44903.18
598.14	45043.61
598.30	44858.71
598.46	45109.14
598.61	44636.36
598.77	44818.92
598.93	45184.04
599.09	44957.01
599.24	45284.68
599.40	45399.37
599.56	45059.99
599.71	45172.34
599.87	44921.90
600.03	45001.48
600.18	44839.98
600.34	44746.36
600.50	45287.03
600.65	44800.19
600.81	45471.93
600.97	44580.18
601.12	45017.86
601.28	45043.61
601.44	45064.67
601.59	44949.99
601.75	44659.76
601.91	44816.58
602.06	44655.08
602.22	44673.81
602.37	45078.72
602.53	45097.44
602.69	45050.63
602.84	44446.77
603.00	44732.32
603.16	44877.43
603.31	45057.65
603.47	44411.67
603.62	44980.42
603.78	44968.71
603.94	44781.47
604.09	45029.57
604.25	45230.85
604.40	45130.21
604.56	44907.86
604.71	44638.70
604.87	44947.65
605.03	44978.07
605.18	44830.62
605.34	44877.43
605.49	44858.71
605.65	44973.39
605.80	44788.49
605.96	44507.63
606.12	44942.97
606.27	44898.50
606.43	44919.56
606.58	44507.63
606.74	44573.16
606.89	44657.42
607.05	44659.76
607.20	45209.79
607.36	44603.59
607.51	45258.94
607.67	44793.17
607.82	44577.84
607.98	44793.17
608.13	44409.32
608.29	44304.00
608.44	43976.33
608.60	44397.62
608.75	44505.29
608.91	44039.52
609.06	44673.81
609.22	44519.33
609.37	44285.28
609.53	44746.36
609.68	44851.69
609.84	44179.95
609.99	44392.94
610.15	44294.64
610.30	44191.65
610.46	44112.08
610.61	44009.09
610.76	44327.41
610.92	44208.04
611.07	44392.94
611.23	44355.49
611.38	44332.09
611.54	44524.01
611.69	44280.60
611.84	44194.00
612.00	44367.20
612.15	44004.41
612.31	44144.84
612.46	43969.30
612.62	44367.20
612.77	44334.43
612.92	44507.63
613.08	43800.79
613.23	44186.97
613.39	43976.33
613.54	43775.04
613.69	43814.83
613.85	44388.26
614.00	43875.68
614.15	44102.71
614.31	44086.33
614.46	43973.98
614.62	43716.53
614.77	43618.22
614.92	43622.90
615.08	43693.12
615.23	43564.39
615.38	43789.08
615.54	43358.42
615.69	43597.16
615.84	43498.86
616.00	43566.73
616.15	43669.72
616.30	43753.97
616.46	43491.83
616.61	43501.20
616.76	43700.14
616.92	43285.87
617.07	43157.14
617.22	43426.30
617.37	43735.25
617.53	43590.14
617.68	44030.16
617.83	43496.52
617.99	43510.56
618.14	43400.55
618.29	43136.07
618.45	43222.67
618.60	43400.55
618.75	42459.66
618.90	43442.68
619.06	43213.31
619.21	43325.66
619.36	43763.34
619.51	43606.52
619.67	43070.54
619.82	43292.89
619.97	43407.58
620.12	42993.30
620.28	42728.82
620.43	43065.86
620.58	42838.83
620.73	43016.71
620.89	43320.98
621.04	43257.78
621.19	43023.73
621.34	43339.70
621.49	43161.82
621.65	43016.71
621.80	43112.67
621.95	42859.89
622.10	42925.42
622.25	42555.62
622.41	42855.21
622.56	42576.69
622.71	42572.00
622.86	42810.74
623.01	42698.39
623.16	42941.81
623.32	42623.50
623.47	43082.24
623.62	42759.25
623.77	42913.72
623.92	42560.30
624.07	42237.31
624.23	42052.41
624.38	42080.49
624.53	42010.28
624.68	42696.05
624.83	42815.42
624.98	42494.77
625.13	42499.45
625.29	42225.60
625.44	42595.41
625.59	42380.08
625.74	41893.25
625.89	41490.68
626.04	41914.31
626.19	41944.74
626.34	42085.17
626.49	42064.11
626.65	41610.04
626.80	42295.82
626.95	41956.44
627.10	41530.47
627.25	41874.52
627.40	41422.80
627.55	41563.23
627.70	41305.77
627.85	41727.07
628.00	41448.55
628.15	42204.54
628.30	41841.76
628.45	41563.23
628.60	41808.99
628.76	41816.01
628.91	41668.56
629.06	41773.88
629.21	41673.24
629.36	41130.23
629.51	41406.42
629.66	41429.82
629.81	41373.65
629.96	41923.68
630.11	41240.24
630.26	41394.71
630.41	41586.64
630.56	41055.34
630.71	41378.33
630.86	41251.94
631.01	41366.63
631.16	41291.73
631.31	41530.47
631.46	40547.44
631.61	40907.88
631.76	41123.21
631.91	41284.71
632.06	40879.80
632.21	41193.43
632.36	41626.43
632.51	41331.52
632.66	41357.27
632.81	40933.63
632.96	40722.98
633.10	40144.87
633.25	40493.61
633.40	41322.16
633.55	41385.35
633.70	41017.89
633.85	41155.98
634.00	40910.22
634.15	40526.38
634.30	41097.47
634.45	40657.45
634.60	40414.03
634.75	40161.25
634.90	41076.40
635.05	40561.48
635.19	40746.39
635.34	40851.71
635.49	40353.18
635.64	40411.69
635.79	40208.06
635.94	40074.65
636.09	40818.94
636.24	40355.52
636.39	40212.74
636.53	40156.57
636.68	40135.51
636.83	39908.47
636.98	40074.65
637.13	40084.01
637.28	40444.46
637.43	40203.38
637.57	40172.96
637.72	40620.00
637.87	40250.19
638.02	40339.13
638.17	39938.90
638.32	39665.06
638.46	40289.98
638.61	40388.28
638.76	39821.87
638.91	39957.63
639.06	39583.14
639.20	40004.44
639.35	40395.31
639.50	40013.80
639.65	40327.43
639.80	40154.23
639.94	39585.48
640.09	39749.32
640.24	39842.94
640.39	39873.37
640.54	39997.41
640.68	39503.56
640.83	39744.64
640.98	39601.86
641.13	39278.87
641.27	39835.92
641.42	39463.77
641.57	39592.50
641.72	39669.74
641.86	39309.30
642.01	39278.87
642.16	38768.63
642.31	39171.21
642.45	39414.62
642.60	39002.69
642.75	38981.62
642.90	39103.33
643.04	39150.14
643.19	39386.54
643.34	39477.82
643.48	39112.69
643.63	39309.30
643.78	38972.26
643.93	38941.83
644.07	38356.70
644.22	39145.46
644.37	38623.52
644.51	38763.95
644.66	39009.71
644.81	39133.76
644.95	39105.67
645.10	38904.38
645.25	39203.97
645.39	38761.61
645.54	39047.16
645.69	38803.74
645.83	39138.44
645.98	38815.44
646.13	39253.12
646.27	38471.39
646.42	38740.55
646.57	39042.48
646.71	38333.29
646.86	38445.64
647.00	38717.14
647.15	38696.08
647.30	38745.23
647.44	38752.25
647.59	38763.95
647.74	38274.78
647.88	38216.27
648.03	38033.71
648.17	38492.45
648.32	38225.63
648.47	38490.11
648.61	38213.93
648.76	38642.24
648.90	38040.73
649.05	38176.48
649.20	38312.23
649.34	38939.49
649.49	38078.18
649.63	38752.25
649.78	38185.84
649.92	38110.94
650.07	38497.13
650.21	37500.06
650.36	38047.75
650.51	38068.81
650.65	37963.49
650.80	38455.00
650.94	38476.07
651.09	38115.62
651.23	37823.06
651.38	38038.39
651.52	37879.23
651.67	37771.57
651.81	37879.23
651.96	37443.89
652.10	37544.53
652.25	37642.84
652.39	37596.03
652.54	38183.50
652.68	37626.45
652.83	37738.80
652.97	38211.59
653.12	37441.55
653.26	38007.96
653.41	37708.37
653.55	37179.41
653.70	37546.87
653.84	37668.58
653.99	37392.40
654.13	37521.13
654.27	37378.36
654.42	37116.22
654.56	37266.01
654.71	37221.54
654.85	37656.88
655.00	37368.99
655.14	37125.58
655.29	37017.91
655.43	37551.56
655.57	36781.52
655.72	36996.85
655.86	36788.54
656.01	36945.36
656.15	37092.81
656.30	36666.83
656.44	36727.69
656.58	36793.22
656.73	36996.85
656.87	36835.35
657.01	36720.66
657.16	36460.87
657.30	36257.24
657.45	36488.95
657.59	36507.68
657.73	36589.59
657.88	36776.84
658.02	36772.16
658.16	36584.91
658.31	36947.70
658.45	36577.89
658.60	36755.77
658.74	36617.68
658.88	36631.72
659.03	36140.21
659.17	36009.14
659.31	36388.31
659.46	35981.06
659.60	36495.97
659.74	35967.01
659.89	35585.50
660.03	35510.61
660.17	35983.40
660.32	36217.45
660.46	36458.52
660.60	36240.86
660.74	36016.16
660.89	35803.17
661.03	35409.96
661.17	35332.73
661.32	35360.81
661.46	35812.54
661.60	35660.40
661.74	35782.11
661.89	35384.22
662.03	35519.97
662.17	35672.10
662.31	35512.95
662.46	35674.45
662.60	35445.07
662.74	35407.62
662.88	35349.11
663.03	34988.67
663.17	35374.86
663.31	35157.19
663.45	35201.66
663.60	35211.02
663.74	35133.78
663.88	34742.91
664.02	34665.67
664.17	34862.28
664.31	34164.80
664.45	34443.32
664.59	34646.95
664.73	34227.99
664.88	34546.31
665.02	34295.87
665.16	34742.91
665.30	34630.57
665.44	34148.42
665.59	34246.72
665.73	34403.53
665.87	34398.85
666.01	34026.71
666.15	33928.41
666.29	34110.97
666.44	34380.13
666.58	33944.79
666.72	34155.44
666.86	34054.79
667.00	34291.19
667.14	33659.24
667.28	33684.99
667.43	33809.04
667.57	33464.98
667.71	33181.77
667.85	33493.07
667.99	33432.21
668.13	33418.17
668.27	33486.04
668.41	33661.58
668.56	33013.26
668.70	33298.80
668.84	33457.96
668.98	32645.79
669.12	33081.13
669.26	33109.22
669.40	32924.32
669.54	33046.02
669.68	32826.01
669.82	32683.24
669.96	32362.59
670.10	32011.51
670.25	32294.71
670.39	32655.15
670.53	32849.42
670.67	32444.51
670.81	32484.30
670.95	32648.13
671.09	32779.20
671.23	32439.82
671.37	32680.90
671.51	32594.30
671.65	31974.06
671.79	32060.66
671.93	31695.53
672.07	32088.74
672.21	31573.83
672.35	31407.65
672.49	31651.06
672.63	31758.73
672.77	31784.48
672.91	31842.99
673.05	31512.97
673.19	31356.16
673.33	31133.81
673.47	31522.34
673.61	31475.52
673.75	30710.17
673.89	30827.20
674.03	30567.40
674.17	30700.81
674.31	30794.43
674.45	30565.06
674.59	30794.43
674.73	30993.37
674.87	30927.84
675.01	30630.59
675.15	30792.09
675.29	30539.31
675.43	30590.80
675.56	30525.27
675.70	30169.51
675.84	29851.19
675.98	28978.17
676.12	30314.62
676.26	29593.73
676.40	29509.47
676.54	30113.33
676.68	29816.08
676.82	29006.26
676.96	29125.63
677.10	29156.05
677.23	29230.95
677.37	29048.39
677.51	29280.10
677.65	29102.22
677.79	28580.28
677.93	28985.19
678.07	28875.19
678.21	28559.22
678.34	28474.96
678.48	28570.92
678.62	28311.12
678.76	28039.62
678.90	28322.82
679.04	28386.02
679.18	27915.57
679.31	27587.89
679.45	27723.65
679.59	27515.34
679.73	27910.89
679.87	27520.02
680.00	27520.02
680.14	27894.50
680.28	27571.51
680.42	27412.35
680.56	27103.40
680.70	27339.80
680.83	27194.68
680.97	26817.86
681.11	27026.17
681.25	26710.19
681.39	26782.75
681.52	26920.84
681.66	26852.97
681.80	26684.45
681.94	26143.78
682.07	26593.17
682.21	26153.15
682.35	26333.37
682.49	26366.13
682.62	26331.03
682.76	26040.80
682.90	25804.41
683.04	25982.29
683.17	25846.54
683.31	25490.77
683.45	25837.17
683.59	25455.67
683.72	25188.85
683.86	24886.92
684.00	25249.70
684.13	24947.77
684.27	25537.59
684.41	25113.95
684.55	24877.55
684.68	24725.42
684.82	24360.30
684.96	24704.35
685.09	24678.61
685.23	24304.12
685.37	24510.09
685.50	24512.43
685.64	24758.19
685.78	24259.65
685.91	24341.57
686.05	24119.22
686.19	23442.81
686.32	23889.85
686.46	23447.49
686.60	23026.19
686.73	23435.78
686.87	23407.70
687.01	23405.36
687.14	23143.22
687.28	23178.33
687.42	22768.73
687.55	22515.95
687.69	23054.28
687.82	22775.75
687.96	22459.78
688.10	22815.54
688.23	22492.55
688.37	22522.98
688.50	22370.84
688.64	22235.09
688.78	22075.93
688.91	21935.50
689.05	21853.58
689.18	22075.93
689.32	21549.31
689.46	21694.43
689.59	22092.32
689.73	21645.27
689.86	21476.76
690.00	21401.86
690.13	21568.04
690.27	21523.57
690.41	21570.38
690.54	21090.57
690.68	21331.64
690.81	20994.61
690.95	21130.36
691.08	20978.22
691.22	20945.45
691.35	21149.08
691.49	20814.38
691.62	20343.94
691.76	20821.41
691.89	20858.85
692.03	20594.37
692.16	20287.76
692.30	20219.89
692.43	20217.55
692.57	19955.41
692.70	20004.56
692.84	19763.48
692.97	19831.36
693.11	19651.14
693.24	19660.50
693.38	19611.35
693.51	19491.98
693.65	19424.11
693.78	19494.32
693.92	19503.68
694.05	19290.70
694.19	18944.30
694.32	19101.11
694.45	19168.99
694.59	18902.17
694.72	18948.98
694.86	18820.25
694.99	18565.13
695.13	18352.14
695.26	18384.91
695.39	18499.59
695.53	18384.91
695.66	18443.42
695.80	18113.41
695.93	18024.47
696.07	17989.36
696.20	18218.73
696.33	17834.88
696.47	18001.06
696.60	18092.34
696.73	17961.27
696.87	17933.18
697.00	17603.17
697.14	17626.57
697.27	17687.43
697.40	17551.68
697.54	17287.20
697.67	17387.84
697.80	17444.01
697.94	17249.75
698.07	16987.61
698.21	17020.38
698.34	16807.39
698.47	16872.92
698.61	16739.51
698.74	16498.44
698.87	16734.83
699.01	16381.41
699.14	16435.24
699.27	16489.07
699.40	16210.55
699.54	16152.04
699.67	16137.99
699.80	16081.82
699.94	15857.13
700.07	16056.08
700.20	15882.88
700.34	15679.25
700.47	15840.75
700.60	15873.51
700.73	15915.64
700.87	15641.80
701.00	15342.21
701.13	15644.14
701.26	15426.47
701.40	15087.09
701.53	15328.17
701.66	15150.29
701.79	14892.83
701.93	15051.99
702.06	14806.23
702.19	14782.82
702.32	14750.06
702.46	14710.27
702.59	14677.50
702.72	14525.36
702.85	14768.78
702.99	14773.46
703.12	14644.73
703.25	14600.26
703.38	14265.57
703.51	14431.74
703.65	14340.46
703.78	14221.10
703.91	13991.72
704.04	14218.75
704.17	14200.03
704.31	13930.87
704.44	13694.47
704.57	13846.61
704.70	13621.92
704.83	13472.12
704.96	13769.37
705.10	13542.34
705.23	13724.90
>>>>>End Processed Spectral Data<<<<<
