SpectraSuite Data File
++++++++++++++++++++++++++++++++++++
Date: Fri Oct 25 10:48:03 EDT 2013
User: price-jones
Dark Spectrum Present: No
Reference Spectrum Present: No
Number of Sampled Component Spectra: 1
Spectrometers: USB2+H05261
Integration Time (usec): 100000 (USB2+H05261)
Spectra Averaged: 1 (USB2+H05261)
Boxcar Smoothing: 0 (USB2+H05261)
Correct for Electrical Dark: No (USB2+H05261)
Strobe/Lamp Enabled: No (USB2+H05261)
Correct for Detector Non-linearity: No (USB2+H05261)
Correct for Stray Light: No (USB2+H05261)
Number of Pixels in Processed Spectrum: 2048
>>>>>Begin Processed Spectral Data<<<<<
365.73	191.92
365.92	191.92
366.12	191.92
366.32	44.47
366.52	42.13
366.72	81.92
366.91	0.00
367.11	23.41
367.31	4.68
367.51	0.00
367.70	16.38
367.90	74.90
368.10	65.54
368.30	65.54
368.49	11.70
368.69	51.49
368.89	63.19
369.09	44.47
369.28	56.17
369.48	98.30
369.68	65.54
369.87	145.11
370.07	110.01
370.27	145.11
370.47	257.46
370.66	402.57
370.86	423.64
371.06	512.58
371.25	472.79
371.45	486.83
371.65	444.70
371.84	524.28
372.04	437.68
372.24	503.22
372.44	512.58
372.63	456.40
372.83	498.53
373.03	559.39
373.22	545.34
373.42	475.13
373.62	470.45
373.81	557.05
374.01	545.34
374.21	489.17
374.40	505.56
374.60	603.86
374.79	573.43
374.99	507.90
375.19	571.09
375.38	489.17
375.58	622.58
375.78	657.69
375.97	643.65
376.17	608.54
376.37	543.00
376.56	629.60
376.76	575.77
376.95	631.94
377.15	613.22
377.35	662.37
377.54	655.35
377.74	587.47
377.93	564.07
378.13	608.54
378.33	620.24
378.52	610.88
378.72	667.05
378.91	667.05
379.11	629.60
379.31	627.26
379.50	638.97
379.70	631.94
379.89	617.90
380.09	641.31
380.28	669.39
380.48	601.52
380.68	645.99
380.87	589.82
381.07	552.37
381.26	582.79
381.46	603.86
381.65	685.78
381.85	688.12
382.04	662.37
382.24	608.54
382.43	685.78
382.63	662.37
382.83	638.97
383.02	741.95
383.22	741.95
383.41	744.29
383.61	664.71
383.80	760.67
384.00	681.10
384.19	699.82
384.39	821.53
384.58	723.23
384.78	741.95
384.97	849.61
385.17	709.18
385.36	716.20
385.56	695.14
385.75	725.57
385.95	765.36
386.14	798.12
386.34	835.57
386.53	866.00
386.72	784.08
386.92	814.51
387.11	786.42
387.31	774.72
387.50	730.25
387.70	737.27
387.89	880.04
388.09	760.67
388.28	863.66
388.48	819.19
388.67	814.51
388.86	858.98
389.06	870.68
389.25	915.15
389.45	882.38
389.64	854.30
389.84	887.06
390.03	968.98
390.22	910.47
390.42	861.32
390.61	929.19
390.81	798.12
391.00	875.36
391.19	884.72
391.39	854.30
391.58	905.79
391.78	882.38
391.97	966.64
392.16	966.64
392.36	997.07
392.55	924.51
392.75	952.60
392.94	833.23
393.13	924.51
393.33	891.74
393.52	990.05
393.71	1032.18
393.91	1008.77
394.10	1015.79
394.29	1057.92
394.49	1053.24
394.68	1057.92
394.88	1130.48
395.07	1093.03
395.26	1034.52
395.46	1064.94
395.65	1088.35
395.84	1111.75
396.04	1090.69
396.23	1114.10
396.42	1142.18
396.62	1111.75
396.81	1100.05
397.00	1109.41
397.19	1144.52
397.39	1165.59
397.58	1156.22
397.77	1179.63
397.97	1233.46
398.16	1261.55
398.35	1315.38
398.55	1296.66
398.74	1299.00
398.93	1320.06
399.12	1289.64
399.32	1224.10
399.51	1308.36
399.70	1301.34
399.90	1193.67
400.09	1500.28
400.28	1317.72
400.47	1390.28
400.67	1352.83
400.86	1373.89
401.05	1533.05
401.24	1462.83
401.44	1462.83
401.63	1514.33
401.82	1434.75
402.01	1427.73
402.21	1448.79
402.40	1528.37
402.59	1483.90
402.78	1500.28
402.97	1519.01
403.17	1596.25
403.36	1614.97
403.55	1556.46
403.74	1570.50
403.93	1572.84
404.13	1610.29
404.32	1537.73
404.51	1570.50
404.70	1696.89
404.89	1565.82
405.09	1727.32
405.28	1776.47
405.47	1664.12
405.66	1717.95
405.85	1713.27
406.05	1720.29
406.24	1783.49
406.43	1774.13
406.62	1790.51
406.81	1846.68
407.00	1785.83
407.20	1795.19
407.39	1774.13
407.58	1739.02
407.77	1760.08
407.96	1980.09
408.15	1919.24
408.34	1937.96
408.54	2008.18
408.73	1952.01
408.92	1914.56
409.11	2008.18
409.30	2085.42
409.49	1980.09
409.68	1930.94
409.87	1926.26
410.07	2017.54
410.26	2015.20
410.45	2092.44
410.64	2092.44
410.83	2176.70
411.02	2165.00
411.21	2106.48
411.40	2293.72
411.59	2211.81
411.78	2183.72
411.98	2181.38
412.17	2214.15
412.36	2193.08
412.55	2352.24
412.74	2319.47
412.93	2455.22
413.12	2253.94
413.31	2438.84
413.50	2427.14
413.69	2389.69
413.88	2485.65
414.07	2382.67
414.26	2487.99
414.45	2504.37
414.64	2628.42
414.83	2686.94
415.02	2661.19
415.22	2677.57
415.41	2698.64
415.60	2747.79
415.79	2663.53
415.98	2731.41
416.17	2930.35
416.36	2722.04
416.55	2815.66
416.74	2916.31
416.93	2773.53
417.12	2803.96
417.31	2960.78
417.50	2899.92
417.69	3122.27
417.88	2972.48
418.07	2988.86
418.26	2967.80
418.45	2977.16
418.64	3105.89
418.83	3112.91
419.02	3155.04
419.21	3126.96
419.39	3141.00
419.58	3052.06
419.77	3089.51
419.96	3192.49
420.15	3141.00
420.34	3133.98
420.53	3236.96
420.72	3435.91
420.91	3258.03
421.10	3323.56
421.29	3314.20
421.48	3307.18
421.67	3253.34
421.86	3234.62
422.05	3391.44
422.24	3361.01
422.43	3361.01
422.61	3342.28
422.80	3449.95
422.99	3506.12
423.18	3452.29
423.37	3459.31
423.56	3258.03
423.75	3496.76
423.94	3452.29
424.13	3281.43
424.32	3157.38
424.50	3581.02
424.69	3365.69
424.88	3574.00
425.07	3424.20
425.26	3412.50
425.45	3520.17
425.64	3550.59
425.83	3442.93
426.01	3534.21
426.20	3480.38
426.39	3566.98
426.58	3524.85
426.77	3524.85
426.96	3515.48
427.15	3510.80
427.33	3688.68
427.52	3522.51
427.71	3695.71
427.90	3756.56
428.09	3590.38
428.28	3630.17
428.46	3609.11
428.65	3730.81
428.84	3815.07
429.03	3735.50
429.22	3559.95
429.40	3648.90
429.59	3801.03
429.78	3761.24
429.97	3534.21
430.16	3747.20
430.34	3686.34
430.53	3805.71
430.72	3833.80
430.91	3824.44
431.10	3960.19
431.28	3974.23
431.47	4109.98
431.66	4138.07
431.85	3906.35
432.03	4056.15
432.22	4149.77
432.41	4053.81
432.60	4011.68
432.79	4119.34
432.97	4180.20
433.16	4173.18
433.35	4112.32
433.54	4063.17
433.72	4241.05
433.91	4156.79
434.10	4215.30
434.28	4280.84
434.47	4379.14
434.66	4231.69
434.85	4414.25
435.03	4435.32
435.22	4416.59
435.41	4587.45
435.59	4484.47
435.78	4425.95
435.97	4493.83
436.16	4468.08
436.34	4482.13
436.53	4629.58
436.72	4648.30
436.90	4650.64
437.09	4744.27
437.28	4327.65
437.46	4617.88
437.65	4503.19
437.84	4615.54
438.02	4772.35
438.21	4535.96
438.40	4622.56
438.58	4784.06
438.77	4835.55
438.96	4657.67
439.14	4915.12
439.33	5022.79
439.52	5069.60
439.70	4957.25
439.89	4978.32
440.08	5050.88
440.26	4858.95
440.45	5093.01
440.63	5018.11
440.82	5291.95
441.01	5219.39
441.19	5184.29
441.38	5369.19
441.57	5273.23
441.75	5441.75
441.94	5490.90
442.12	5481.53
442.31	5401.96
442.50	5710.91
442.68	5418.34
442.87	5584.52
443.05	5521.32
443.24	5617.29
443.43	5778.78
443.61	5678.14
443.80	5584.52
443.98	5673.46
444.17	5490.90
444.35	5666.44
444.54	5771.76
444.73	5556.43
444.91	5563.45
445.10	5643.03
445.28	5582.18
445.47	5603.24
445.65	5614.95
445.84	5741.33
446.02	5809.21
446.21	5895.81
446.39	5699.20
446.58	5891.13
446.77	5797.51
446.95	5774.10
447.14	5727.29
447.32	5989.43
447.51	5839.64
447.69	5898.15
447.88	6022.20
448.06	5874.74
448.25	5900.49
448.43	5998.79
448.62	5841.98
448.80	5858.36
448.99	5935.60
449.17	5966.03
449.36	5919.21
449.54	6069.01
449.73	5944.96
449.91	6094.76
450.10	6120.50
450.28	6286.68
450.46	6221.14
450.65	6253.91
450.83	6464.56
451.02	6370.94
451.20	6232.85
451.39	6282.00
451.57	6480.94
451.76	6174.33
451.94	6267.95
452.13	6361.58
452.31	6338.17
452.49	6272.64
452.68	6478.60
452.86	6314.77
453.05	6394.34
453.23	6429.45
453.42	6499.67
453.60	6525.41
453.78	6483.28
453.97	6274.98
454.15	6345.19
454.34	6448.18
454.52	6604.99
454.70	6724.36
454.89	6642.44
455.07	6658.82
455.26	6670.53
455.44	6867.13
455.62	6729.04
455.81	6820.32
455.99	6920.96
456.17	6855.43
456.36	6899.90
456.54	6899.90
456.73	6960.75
456.91	7070.76
457.09	7047.35
457.28	7140.97
457.46	7042.67
457.64	7056.72
457.83	7129.27
458.01	7059.06
458.19	7243.96
458.38	7126.93
458.56	7178.42
458.74	7332.90
458.93	7279.07
459.11	7180.76
459.29	7386.73
459.48	7295.45
459.66	7433.54
459.84	7321.20
460.03	7419.50
460.21	7414.82
460.39	7447.58
460.57	7548.23
460.76	7625.47
460.94	7723.77
461.12	7520.14
461.31	7494.40
461.49	7676.96
461.67	7489.71
461.85	7655.89
462.04	7590.36
462.22	8116.98
462.40	7754.19
462.59	7803.35
462.77	7705.04
462.95	7740.15
463.13	7829.09
463.32	7831.43
463.50	8006.97
463.68	8011.65
463.86	7962.50
464.05	7878.24
464.23	7817.39
464.41	7950.80
464.59	7796.32
464.78	7964.84
464.96	8049.10
465.14	7969.52
465.32	8088.89
465.50	8393.16
465.69	8280.82
465.87	8116.98
466.05	8198.90
466.23	8084.21
466.41	8234.00
466.60	8383.80
466.78	8294.86
466.96	8161.45
467.14	8177.83
467.32	8421.25
467.51	8472.74
467.69	8161.45
467.87	8327.63
468.05	8524.23
468.23	8451.67
468.41	8336.99
468.60	8329.97
468.78	8552.32
468.96	8404.86
469.14	8676.37
469.32	8739.56
469.50	8470.40
469.69	8765.31
469.87	8896.38
470.05	8507.85
470.23	8816.80
470.41	8784.03
470.59	8798.07
470.77	8723.18
470.95	8833.18
471.14	9184.26
471.32	8833.18
471.50	9160.86
471.68	9020.42
471.86	9174.90
472.04	9107.02
472.22	9397.25
472.40	9116.39
472.58	9022.77
472.77	9317.67
472.95	9315.33
473.13	9525.98
473.31	9317.67
473.49	9291.93
473.67	9294.27
473.85	9312.99
474.03	9554.07
474.21	9661.73
474.39	9762.37
474.57	9874.72
474.75	9926.21
474.93	10092.39
475.12	10005.79
475.30	9816.21
475.48	9783.44
475.66	10143.88
475.84	10045.58
476.02	10118.14
476.20	10195.37
476.38	10679.86
476.56	10829.66
476.74	10413.04
476.92	10413.04
477.10	10640.08
477.28	10745.40
477.46	10899.87
477.64	10729.02
477.82	10963.07
478.00	11449.90
478.18	10970.09
478.36	11147.97
478.54	11138.61
478.72	11260.32
478.90	11454.58
479.08	11618.42
479.26	11681.61
479.44	11721.40
479.62	11920.35
479.80	12072.48
479.98	12013.97
480.16	12180.15
480.34	12095.89
480.52	12283.13
480.70	12322.92
480.88	12023.33
481.06	12177.81
481.24	12343.99
481.41	12671.66
481.59	12585.06
481.77	12755.92
481.95	12929.12
482.13	12936.14
482.31	12795.71
482.49	13247.43
482.67	13261.48
482.85	13561.06
483.03	13579.79
483.21	13628.94
483.39	13727.24
483.57	13547.02
483.74	13933.21
483.92	13958.96
484.10	13748.31
484.28	14286.63
484.46	14427.06
484.64	14789.85
484.82	14499.62
485.00	14553.45
485.18	14738.35
485.35	14904.53
485.53	14537.07
485.71	14981.77
485.89	14883.47
486.07	14899.85
486.25	15220.50
486.43	15232.21
486.61	15484.98
486.78	15859.47
486.96	15704.99
487.14	15939.05
487.32	16100.55
487.50	16233.96
487.68	16271.40
487.85	16343.96
488.03	16514.82
488.21	16762.92
488.39	16718.45
488.57	16938.46
488.75	17261.45
488.92	17530.61
489.10	17472.10
489.28	17535.29
489.46	17645.30
489.64	17727.22
489.81	17769.35
489.99	18155.54
490.17	18125.11
490.35	18909.19
490.53	18338.10
490.70	18319.37
490.88	18328.74
491.06	18691.52
491.24	18600.24
491.41	18899.83
491.59	18925.57
491.77	18841.31
491.95	19185.37
492.13	19147.92
492.30	19281.33
492.48	19407.72
492.66	19618.37
492.84	19906.26
493.01	19665.18
493.19	19576.24
493.37	19932.00
493.54	20304.15
493.72	20467.98
493.90	20449.26
494.08	20725.44
494.25	20582.67
494.43	21181.85
494.61	21053.12
494.79	21242.70
494.96	20847.15
495.14	21088.23
495.32	21511.86
495.49	21516.54
495.67	21563.36
495.85	21603.14
496.02	21858.26
496.20	21893.37
496.38	22019.76
496.55	22188.28
496.73	22319.35
496.91	22228.07
497.09	22443.40
497.26	22583.83
497.44	22780.43
497.62	22934.91
497.79	23143.22
497.97	22726.60
498.14	23239.18
498.32	23215.77
498.50	23403.02
498.67	23428.76
498.85	23634.73
499.03	23791.55
499.20	23758.78
499.38	23765.80
499.56	24254.97
499.73	24414.13
499.91	23742.39
500.08	24107.52
500.26	23805.59
500.44	24341.57
500.61	24460.94
500.79	24208.16
500.97	24355.61
501.14	24795.64
501.32	24917.34
501.49	24589.67
501.67	24746.48
501.84	24964.15
502.02	24947.77
502.20	25399.49
502.37	25193.53
502.55	25530.56
502.72	25427.58
502.90	25371.41
503.07	25572.69
503.25	25443.96
503.43	25411.20
503.60	25591.42
503.78	25846.54
503.95	25717.81
504.13	25874.62
504.30	26080.59
504.48	26202.30
504.65	26113.36
504.83	26705.51
505.01	26448.05
505.18	26464.44
505.36	26848.29
505.53	26852.97
505.71	26845.94
505.88	27005.10
506.06	27000.42
506.23	26897.44
506.41	27105.74
506.58	27412.35
506.76	26881.05
506.93	27150.21
507.11	27428.74
507.28	27695.56
507.46	27337.46
507.63	27627.68
507.81	27976.42
507.98	27786.84
508.16	27571.51
508.33	28002.17
508.50	27400.65
508.68	27974.08
508.85	28343.89
509.03	28442.19
509.20	28484.32
509.38	28889.23
509.55	28208.14
509.73	28992.22
509.90	28388.36
510.08	28467.94
510.25	28746.46
510.42	28762.84
510.60	28978.17
510.77	29247.33
510.95	29649.91
511.12	29069.45
511.30	29462.66
511.47	29780.98
511.64	29502.45
511.82	29783.32
511.99	29631.18
512.17	29958.86
512.34	29394.79
512.51	29823.11
512.69	29919.07
512.86	30160.14
513.04	30218.66
513.21	30485.48
513.38	30286.53
513.56	30206.95
513.73	30415.26
513.90	30803.79
514.08	30506.54
514.25	30300.58
514.43	30490.16
514.60	30686.76
514.77	30412.92
514.95	30857.62
515.12	30745.28
515.29	31115.08
515.47	31496.59
515.64	31292.96
515.81	31260.20
515.99	31197.00
516.16	31330.41
516.33	31344.45
516.51	31683.83
516.68	31332.75
516.85	31564.46
517.03	31805.54
517.20	31166.57
517.37	31517.65
517.54	31426.37
517.72	31915.54
517.89	31903.84
518.06	31821.92
518.24	31894.48
518.41	31878.10
518.58	32081.72
518.75	32219.81
518.93	32327.48
519.10	31927.25
519.27	32329.82
519.45	32348.54
519.62	32634.09
519.79	32280.67
519.96	32694.94
520.14	33141.99
520.31	32893.89
520.48	32989.85
520.65	33251.99
520.83	33223.90
521.00	33134.96
521.17	33024.96
521.34	33659.24
521.52	33649.88
521.69	33570.30
521.86	33371.36
522.03	33692.01
522.20	33905.00
522.38	34115.65
522.55	33795.00
522.72	33921.38
522.89	33811.38
523.07	34312.25
523.24	33727.12
523.41	33556.26
523.58	34436.30
523.75	34405.88
523.92	34546.31
524.10	34424.60
524.27	34480.77
524.44	34354.38
524.61	34815.47
524.78	34506.52
524.96	34586.10
525.13	34995.69
525.30	35545.72
525.47	35243.79
525.64	35325.71
525.81	35049.52
525.98	35075.27
526.16	34937.18
526.33	35159.53
526.50	35023.78
526.67	34904.41
526.84	34899.73
527.01	35044.84
527.18	35047.18
527.36	35548.06
527.53	35276.55
527.70	35618.27
527.87	35871.05
528.04	35629.98
528.21	36114.47
528.38	35644.02
528.55	35885.09
528.72	36086.38
528.89	36044.25
529.07	35833.60
529.24	36044.25
529.41	35887.43
529.58	36079.36
529.75	36180.00
529.92	36451.50
530.09	36547.47
530.26	36517.04
530.43	36505.34
530.60	36371.92
530.77	36638.75
530.94	36760.45
531.11	36879.82
531.28	37212.18
531.46	36943.02
531.63	36765.14
531.80	36636.41
531.97	36673.85
532.14	37041.32
532.31	36638.75
532.48	36994.51
532.65	37411.12
532.82	37083.45
532.99	37160.69
533.16	37031.96
533.33	37230.90
533.50	37528.15
533.67	37537.51
533.84	37287.07
534.01	37617.09
534.18	37219.20
534.35	37603.05
534.52	37406.44
534.69	37551.56
534.86	37848.80
535.03	37642.84
535.20	37919.02
535.37	37893.27
535.54	38199.88
535.71	38115.62
535.88	38253.72
536.05	37790.29
536.22	38513.52
536.38	38162.43
536.55	38312.23
536.72	38223.29
536.89	37879.23
537.06	38007.96
537.23	38354.36
537.40	38160.09
537.57	38295.85
537.74	38609.48
537.91	38969.92
538.08	38401.17
538.25	38089.88
538.42	38031.36
538.59	38880.98
538.75	38518.20
538.92	38483.09
539.09	38958.22
539.26	38876.30
539.43	38703.10
539.60	38639.90
539.77	38799.06
539.94	38911.41
540.11	38841.19
540.28	38817.78
540.44	38934.81
540.61	39145.46
540.78	38717.14
540.95	38672.67
541.12	39302.28
541.29	39138.44
541.46	39311.64
541.62	39168.87
541.79	39569.10
541.96	39435.69
542.13	39662.72
542.30	39562.08
542.47	39871.03
542.63	39667.40
542.80	39428.66
542.97	39962.31
543.14	39920.18
543.31	40060.61
543.48	39810.17
543.64	40533.40
543.81	40280.62
543.98	39913.16
544.15	40041.88
544.32	40411.69
544.48	40416.37
544.65	40264.24
544.82	40318.07
544.99	40259.55
545.16	40250.19
545.32	40463.18
545.49	40659.79
545.66	40568.51
545.83	40727.66
546.00	40765.11
546.16	40638.72
546.33	40549.78
546.50	40133.17
546.67	40999.16
546.83	40304.02
547.00	40568.51
547.17	40641.06
547.34	41212.15
547.50	41081.08
547.67	41240.24
547.84	40645.74
548.00	40605.95
548.17	41265.99
548.34	40999.16
548.51	41361.95
548.67	41134.92
548.84	41525.78
549.01	40769.79
549.18	40697.24
549.34	41656.85
549.51	41570.25
549.68	41586.64
549.84	41600.68
550.01	41794.95
550.18	41081.08
550.34	41460.25
550.51	41247.26
550.68	41207.47
550.84	41113.85
551.01	41425.14
551.18	41567.91
551.34	41436.84
551.51	41659.20
551.68	41951.76
551.84	41911.97
552.01	41706.01
552.18	42007.94
552.34	41881.55
552.51	42419.87
552.68	41923.68
552.84	42635.20
553.01	42101.56
553.18	41982.19
553.34	42054.75
553.51	42029.00
553.67	42012.62
553.84	42171.77
554.01	42298.16
554.17	42564.98
554.34	42511.15
554.51	42370.72
554.67	42759.25
554.84	42396.46
555.00	42176.45
555.17	42302.84
555.33	42457.32
555.50	42749.88
555.67	42792.01
555.83	42639.88
556.00	42691.37
556.16	42951.17
556.33	42284.12
556.50	42880.95
556.66	42682.01
556.83	42431.57
556.99	42946.49
557.16	43084.58
557.32	42988.62
557.49	43019.05
557.65	42670.31
557.82	42920.74
557.98	42717.12
558.15	42597.75
558.32	42925.42
558.48	42852.87
558.65	42836.48
558.81	42576.69
558.98	42965.21
559.14	42848.19
559.31	42962.87
559.47	43606.52
559.64	43578.43
559.80	43302.25
559.97	43002.66
560.13	43068.20
560.30	42965.21
560.46	42810.74
560.63	43122.03
560.79	43026.07
560.96	43100.97
561.12	43112.67
561.29	42937.13
561.45	43164.16
561.61	43215.65
561.78	42979.26
561.94	43370.13
562.11	43110.33
562.27	43363.11
562.44	43253.10
562.60	43709.50
562.77	43650.99
562.93	43072.88
563.10	43697.80
563.26	43152.46
563.42	44016.11
563.59	43627.59
563.75	43407.58
563.92	43683.76
564.08	43800.79
564.24	43739.93
564.41	43578.43
564.57	43803.13
564.74	43356.08
564.90	43793.76
565.07	43648.65
565.23	43358.42
565.39	43770.36
565.56	43999.73
565.72	43803.13
565.88	43608.86
566.05	44006.75
566.21	43629.93
566.38	43564.39
566.54	43365.45
566.70	44547.42
566.87	43922.49
567.03	43882.70
567.19	44018.46
567.36	43585.46
567.52	43952.92
567.68	44055.90
567.85	44222.08
568.01	43962.28
568.17	43791.42
568.34	44025.48
568.50	43819.51
568.66	44053.56
568.83	43807.81
568.99	43580.78
569.15	43239.06
569.32	43555.03
569.48	43578.43
569.64	43981.01
569.81	44182.29
569.97	44013.77
570.13	43777.38
570.30	43573.75
570.46	43552.69
570.62	43835.89
570.78	43812.49
570.95	43901.43
571.11	44142.50
571.27	44158.89
571.43	43800.79
571.60	43721.21
571.76	44268.89
571.92	43875.68
572.09	44002.07
572.25	43892.07
572.41	44175.27
572.57	44254.85
572.74	44704.23
572.90	44238.47
573.06	43838.23
573.22	44243.15
573.38	44521.67
573.55	43885.04
573.71	43828.87
573.87	43707.16
574.03	43943.56
574.20	43941.22
574.36	44299.32
574.52	44196.34
574.68	44329.75
574.84	44444.43
575.01	44102.71
575.17	43999.73
575.33	44002.07
575.49	43894.41
575.65	44598.91
575.82	44140.16
575.98	44339.11
576.14	44528.69
576.30	44634.02
576.46	43849.94
576.62	44186.97
576.79	43959.94
576.95	43920.15
577.11	44161.23
577.27	43906.11
577.43	44177.61
577.59	44194.00
577.75	43906.11
577.92	44144.84
578.08	44135.48
578.24	43819.51
578.40	44432.73
578.56	44123.78
578.72	44186.97
578.88	44463.16
579.04	44762.75
579.21	43990.37
579.37	44308.68
579.53	44163.57
579.69	44046.54
579.85	44149.53
580.01	44383.58
580.17	44601.25
580.33	44315.70
580.49	44865.73
580.65	44397.62
580.82	44074.63
580.98	44381.24
581.14	44175.27
581.30	44135.48
581.46	44264.21
581.62	44350.81
581.78	44683.17
581.94	44332.09
582.10	44133.14
582.26	44729.98
582.42	44346.13
582.58	44175.27
582.74	44203.36
582.90	44516.99
583.06	44584.86
583.22	44737.00
583.38	44432.73
583.54	44444.43
583.70	44444.43
583.86	44011.43
584.02	44275.91
584.18	44488.90
584.34	44205.70
584.50	44697.21
584.66	44680.83
584.82	43913.13
584.98	44603.59
585.14	44652.74
585.30	44526.35
585.46	44383.58
585.62	44107.40
585.78	44245.49
585.94	43697.80
586.10	44212.72
586.26	44451.45
586.42	44603.59
586.58	44821.26
586.74	44629.34
586.90	44547.42
587.06	44442.09
587.22	44390.60
587.38	44364.85
587.54	44559.12
587.70	45099.78
587.86	44659.76
588.02	44533.37
588.18	44889.13
588.34	44669.12
588.49	44233.78
588.65	44381.24
588.81	44114.42
588.97	44362.51
589.13	44531.03
589.29	44498.26
589.45	44477.20
589.61	44519.33
589.77	44624.65
589.93	44678.49
590.08	45123.19
590.24	44697.21
590.40	44692.53
590.56	44755.72
590.72	45034.25
590.88	44493.58
591.04	44755.72
591.20	45120.85
591.35	45141.91
591.51	44975.73
591.67	44903.18
591.83	45067.02
591.99	44519.33
592.15	44526.35
592.31	44505.29
592.46	45167.66
592.62	44982.76
592.78	44839.98
592.94	44629.34
593.10	44697.21
593.26	44863.39
593.41	44774.45
593.57	44889.13
593.73	44528.69
593.89	44879.77
594.05	44692.53
594.20	45219.15
594.36	45160.64
594.52	45113.83
594.68	44945.31
594.84	44919.56
594.99	45010.84
595.15	44659.76
595.31	44753.38
595.47	44961.69
595.62	44545.08
595.78	45022.54
595.94	44580.18
596.10	44793.17
596.25	45118.51
596.41	44971.05
596.57	44484.22
596.73	44875.09
596.88	44737.00
597.04	44898.50
597.20	45050.63
597.36	45139.57
597.51	45411.07
597.67	44966.37
597.83	44863.39
597.99	45261.28
598.14	44729.98
598.30	44650.40
598.46	45261.28
598.61	44818.92
598.77	44542.74
598.93	44758.06
599.09	44900.84
599.24	44961.69
599.40	45043.61
599.56	44954.67
599.71	45228.51
599.87	45380.65
600.03	45027.23
600.18	45074.04
600.34	44755.72
600.50	44720.62
600.65	44732.32
600.81	45158.30
600.97	45041.27
601.12	45137.23
601.28	45071.70
601.44	44790.83
601.59	44973.39
601.75	44912.54
601.91	44938.29
602.06	44779.13
602.22	44900.84
602.37	45165.32
602.53	44790.83
602.69	45291.71
602.84	45034.25
603.00	44989.78
603.16	44971.05
603.31	44664.44
603.47	44999.14
603.62	44879.77
603.78	44694.87
603.94	44893.82
604.09	44978.07
604.25	44664.44
604.40	44605.93
604.56	44603.59
604.71	45221.49
604.87	44776.79
605.03	45102.12
605.18	44844.66
605.34	45008.50
605.49	44336.77
605.65	44783.81
605.80	44641.04
605.96	44493.58
606.12	44839.98
606.27	45186.38
606.43	44385.92
606.58	45471.93
606.74	44727.64
606.89	44800.19
607.05	44467.84
607.20	44748.70
607.36	44678.49
607.51	44994.46
607.67	44514.65
607.82	44701.89
607.98	44535.71
608.13	44914.88
608.29	44729.98
608.44	44399.96
608.60	43798.44
608.75	44271.23
608.91	44439.75
609.06	44329.75
609.22	44732.32
609.37	44655.08
609.53	44357.83
609.68	44250.17
609.84	44315.70
609.99	44573.16
610.15	44140.16
610.30	44456.14
610.46	44343.79
610.61	44367.20
610.76	44198.68
610.92	44332.09
611.07	43845.26
611.23	44135.48
611.38	44222.08
611.54	43920.15
611.69	44446.77
611.84	44137.82
612.00	44304.00
612.15	43910.79
612.31	44313.36
612.46	44538.05
612.62	44774.45
612.77	44116.76
612.92	44500.61
613.08	43999.73
613.23	44491.24
613.39	43833.55
613.54	43835.89
613.69	44194.00
613.85	43892.07
614.00	44353.15
614.15	44486.56
614.31	43985.69
614.46	44390.60
614.62	43992.71
614.77	43889.73
614.92	43709.50
615.08	43838.23
615.23	44144.84
615.38	43711.84
615.54	43910.79
615.69	43648.65
615.84	43622.90
616.00	44184.63
616.15	43700.14
616.30	43658.01
616.46	43480.13
616.61	43742.27
616.76	43732.91
616.92	43370.13
617.07	43187.56
617.22	43353.74
617.37	43924.83
617.53	43882.70
617.68	43611.20
617.83	43496.52
617.99	43356.08
618.14	43768.02
618.29	43529.28
618.45	43423.96
618.60	43402.89
618.75	43302.25
618.90	43217.99
619.06	43473.11
619.21	43185.22
619.36	43711.84
619.51	43412.26
619.67	43276.51
619.82	43796.10
619.97	43161.82
620.12	43173.52
620.28	42674.99
620.43	43161.82
620.58	43115.01
620.73	43328.00
620.89	43049.47
621.04	42972.24
621.19	42621.16
621.34	43014.37
621.49	42871.59
621.65	42644.56
621.80	42827.12
621.95	43229.69
622.10	42787.33
622.25	42916.06
622.41	42890.32
622.56	42895.00
622.71	42925.42
622.86	43047.13
623.01	43119.69
623.16	42745.20
623.32	42983.94
623.47	42768.61
623.62	43061.18
623.77	42562.64
623.92	42815.42
624.07	42380.08
624.23	42377.74
624.38	42370.72
624.53	42012.62
624.68	42602.43
624.83	42604.77
624.98	42616.47
625.13	42361.36
625.29	42525.19
625.44	42106.24
625.59	42443.27
625.74	42284.12
625.89	41820.69
626.04	42129.64
626.19	42197.52
626.34	42120.28
626.49	42258.37
626.65	41635.79
626.80	42136.66
626.95	42052.41
627.10	42057.09
627.25	42391.78
627.40	41413.44
627.55	41567.91
627.70	41308.11
627.85	41486.00
628.00	41741.11
628.15	42085.17
628.30	41944.74
628.45	41713.03
628.60	41600.68
628.76	42052.41
628.91	41542.17
629.06	42178.79
629.21	41233.22
629.36	41706.01
629.51	41698.98
629.66	41521.10
629.81	41677.92
629.96	41483.66
630.11	41296.41
630.26	41572.60
630.41	41209.81
630.56	40921.93
630.71	41759.84
630.86	41226.20
631.01	41137.26
631.16	40849.37
631.31	40898.52
631.46	41097.47
631.61	41113.85
631.76	40964.06
631.91	40912.56
632.06	41504.72
632.21	41666.22
632.36	41661.54
632.51	41137.26
632.66	41067.04
632.81	40980.44
632.96	41099.81
633.10	40706.60
633.25	40706.60
633.40	40816.60
633.55	41010.87
633.70	40900.86
633.85	41132.57
634.00	40912.56
634.15	40788.52
634.30	40610.64
634.45	41223.86
634.60	41083.42
634.75	41146.62
634.90	40395.31
635.05	40620.00
635.19	40837.67
635.34	41085.76
635.49	40659.79
635.64	40222.11
635.79	40517.01
635.94	40350.84
636.09	40421.05
636.24	40229.13
636.39	40116.78
636.53	40388.28
636.68	40011.46
636.83	40154.23
636.98	40762.77
637.13	39763.36
637.28	40430.41
637.43	40392.97
637.57	40769.79
637.72	40790.86
637.87	40734.68
638.02	40423.39
638.17	40002.10
638.32	39852.30
638.46	39871.03
638.61	39688.46
638.76	39878.05
638.91	39814.85
639.06	39658.04
639.20	39693.15
639.35	40261.90
639.50	39398.24
639.65	40081.67
639.80	39999.76
639.94	39812.51
640.09	39941.24
640.24	39674.42
640.39	39639.31
640.54	39749.32
640.68	39744.64
640.83	39423.98
640.98	39299.94
641.13	39335.04
641.27	39093.97
641.42	39054.18
641.57	39688.46
641.72	39433.35
641.86	39304.62
642.01	39431.01
642.16	39260.15
642.31	39037.80
642.45	39260.15
642.60	39182.91
642.75	39110.35
642.90	38948.85
643.04	39154.82
643.19	38962.90
643.34	39215.68
643.48	39629.95
643.63	39281.21
643.78	38852.89
643.93	38990.98
644.07	38455.00
644.22	38600.12
644.37	38326.27
644.51	39040.14
644.66	39143.12
644.81	39159.50
644.95	39318.66
645.10	39061.20
645.25	38883.32
645.39	39201.63
645.54	38934.81
645.69	38902.04
645.83	38918.43
645.98	38960.56
646.13	39365.47
646.27	38803.74
646.42	38721.82
646.57	38843.53
646.71	38976.94
646.86	39196.95
647.00	38501.81
647.15	38665.65
647.30	38710.12
647.44	38817.78
647.59	38342.66
647.74	38438.62
647.88	38539.26
648.03	38614.16
648.17	38520.54
648.32	38326.27
648.47	38199.88
648.61	38410.53
648.76	38527.56
648.90	38581.39
649.05	38415.21
649.20	39012.05
649.34	38366.06
649.49	38080.52
649.63	38429.26
649.78	37923.70
649.92	38157.75
650.07	38445.64
650.21	37748.16
650.36	38019.66
650.51	37663.90
650.65	38319.25
650.80	38508.83
650.94	38328.61
651.09	38019.66
651.23	37816.04
651.38	38061.79
651.52	37579.64
651.67	37708.37
651.81	37879.23
651.96	37663.90
652.10	37750.50
652.25	37862.85
652.39	37816.04
652.54	37546.87
652.68	38043.07
652.83	37963.49
652.97	37645.18
653.12	37734.12
653.26	37539.85
653.41	38029.02
653.55	37247.29
653.70	37490.70
653.84	37504.74
653.99	37670.92
654.13	37294.10
654.27	37350.27
654.42	37062.38
654.56	37624.11
654.71	37425.17
654.85	37427.51
655.00	37476.66
655.14	36943.02
655.29	36863.44
655.43	37083.45
655.57	37085.79
655.72	36987.49
655.86	37247.29
656.01	37034.30
656.15	37113.87
656.30	36797.90
656.44	36971.10
656.58	36905.57
656.73	36374.27
656.87	36613.00
657.01	36411.71
657.16	36470.23
657.30	36641.09
657.45	36327.45
657.59	36479.59
657.73	36690.24
657.88	36954.72
658.02	36730.03
658.16	36397.67
658.31	36355.54
658.45	36685.56
658.60	36676.19
658.74	36931.31
658.88	36573.21
659.03	36278.30
659.17	36219.79
659.31	36355.54
659.46	36212.77
659.60	36788.54
659.74	36215.11
659.89	36037.23
660.03	36336.82
660.17	36100.42
660.32	35990.42
660.46	36329.80
660.60	36341.50
660.74	35840.62
660.89	36135.53
661.03	35550.40
661.17	35824.24
661.32	35541.03
661.46	35761.05
661.60	35700.19
661.74	35957.65
661.89	35550.40
662.03	36009.14
662.17	35051.86
662.31	35285.92
662.46	35325.71
662.60	35541.03
662.74	35213.36
662.88	35400.60
663.03	34998.03
663.17	34888.03
663.31	35405.28
663.45	35112.72
663.60	35248.47
663.74	34888.03
663.88	34721.85
664.02	34831.85
664.17	34862.28
664.31	34548.65
664.45	34593.12
664.59	34904.41
664.73	34979.31
664.88	34728.87
665.02	34286.51
665.16	34426.94
665.30	34665.67
665.44	34625.89
665.59	34230.33
665.73	34478.43
665.87	34202.25
666.01	34270.12
666.15	34220.97
666.29	34330.98
666.44	34155.44
666.58	33989.26
666.72	34244.38
666.86	34485.45
667.00	34010.32
667.14	33773.93
667.28	33752.87
667.43	33666.27
667.57	33876.91
667.71	33490.73
667.85	33514.13
667.99	33120.92
668.13	33404.13
668.27	33284.76
668.41	33570.30
668.56	32711.33
668.70	33167.73
668.84	33151.35
668.98	33193.48
669.12	32912.61
669.26	32851.76
669.40	32985.17
669.54	32833.04
669.68	33048.36
669.82	32919.63
669.96	32711.33
670.10	32430.46
670.25	33008.58
670.39	32629.41
670.53	32606.00
670.67	32292.37
670.81	32671.54
670.95	32926.66
671.09	32519.40
671.23	32465.57
671.37	32514.72
671.51	32137.90
671.65	31924.91
671.79	32259.60
671.93	31669.79
672.07	31896.82
672.21	31978.74
672.35	31707.24
672.49	31377.22
672.63	31674.47
672.77	31449.78
672.91	31398.29
673.05	32219.81
673.19	31360.84
673.33	31058.91
673.47	31304.67
673.61	31208.70
673.75	31023.80
673.89	30511.22
674.03	30572.08
674.17	30541.65
674.31	30756.98
674.45	30991.03
674.59	30976.99
674.73	31110.40
674.87	30700.81
675.01	30766.34
675.15	30576.76
675.29	30892.73
675.43	30588.46
675.56	30572.08
675.70	30202.27
675.84	30143.76
675.98	29420.53
676.12	29848.85
676.26	30110.99
676.40	29788.00
676.54	29745.87
676.68	29872.26
676.82	29083.50
676.96	29563.31
677.10	29392.45
677.23	29090.52
677.37	28774.55
677.51	28989.88
677.65	29102.22
677.79	29022.64
677.93	28987.53
678.07	29069.45
678.21	28610.71
678.34	28655.18
678.48	28678.58
678.62	28519.43
678.76	28306.44
678.90	28243.24
679.04	28166.01
679.18	28512.41
679.31	28011.53
679.45	28189.41
679.59	27672.15
679.73	27639.39
679.87	28018.55
680.00	28027.92
680.14	27644.07
680.28	27363.20
680.42	27398.31
680.56	27658.11
680.70	27108.08
680.83	27138.51
680.97	26864.67
681.11	26691.47
681.25	26827.22
681.39	26806.16
681.52	26958.29
681.66	26607.21
681.80	26679.77
681.94	26405.92
682.07	26375.50
682.21	26178.89
682.35	26181.23
682.49	26380.18
682.62	26324.01
682.76	25703.76
682.90	25778.66
683.04	26031.44
683.17	25848.88
683.31	25874.62
683.45	25544.61
683.59	25324.60
683.72	25535.24
683.86	25142.03
684.00	25230.98
684.13	25041.39
684.27	25245.02
684.41	25071.82
684.55	24751.17
684.68	24577.97
684.82	24709.04
684.96	24631.80
685.09	24575.62
685.23	24517.11
685.37	24470.30
685.50	24084.11
685.64	23859.42
685.78	24147.31
685.91	24278.38
686.05	23852.40
686.19	24123.90
686.32	23800.91
686.46	23639.41
686.60	23325.78
686.73	23351.52
686.87	22986.40
687.01	23047.26
687.14	23108.11
687.28	22735.96
687.42	23185.35
687.55	23058.96
687.69	22902.14
687.82	22939.59
687.96	22389.56
688.10	22356.80
688.23	22820.22
688.37	22457.44
688.50	22080.61
688.64	22396.59
688.78	22312.33
688.91	21958.91
689.05	22232.75
689.18	22146.15
689.32	21514.20
689.46	21680.38
689.59	22068.91
689.73	21790.39
689.86	21518.89
690.00	21355.05
690.13	21762.30
690.27	21635.91
690.41	21493.14
690.54	21118.65
690.68	20917.37
690.81	21046.10
690.95	21025.03
691.08	20926.73
691.22	20945.45
691.35	20856.51
691.49	20999.29
691.62	20856.51
691.76	20528.84
691.89	20685.65
692.03	20505.43
692.16	20318.19
692.30	20084.14
692.43	20196.48
692.57	19976.47
692.70	19653.48
692.84	20255.00
692.97	20025.62
693.11	19662.84
693.24	19744.76
693.38	19594.96
693.51	19391.34
693.65	19585.60
693.78	19566.88
693.92	19660.50
694.05	18967.70
694.19	19164.31
694.32	19264.95
694.45	19185.37
694.59	19178.35
694.72	18874.08
694.86	19115.16
694.99	18562.79
695.13	18328.74
695.26	18122.77
695.39	18047.87
695.53	18338.10
695.66	18665.77
695.80	18466.83
695.93	18183.62
696.07	18082.98
696.20	18155.54
696.33	17759.98
696.47	17930.84
696.60	17940.21
696.73	17928.50
696.87	17554.02
697.00	17759.98
697.14	17607.85
697.27	17252.09
697.40	17411.25
697.54	17507.21
697.67	17041.44
697.80	17542.32
697.94	17149.11
698.07	16798.02
698.21	17027.40
698.34	16709.08
698.47	17029.74
698.61	16840.15
698.74	16716.11
698.87	16489.07
699.01	16156.72
699.14	16468.01
699.27	16329.92
699.40	16287.79
699.54	15749.46
699.67	15815.00
699.80	16013.95
699.94	16273.74
700.07	15896.92
700.20	15939.05
700.34	15786.91
700.47	15836.06
700.60	15646.48
700.73	15681.59
700.87	15517.75
701.00	15494.35
701.13	15695.63
701.26	15623.08
701.40	15592.65
701.53	15089.43
701.66	15344.55
701.79	14913.89
701.93	14885.81
702.06	14785.16
702.19	14967.73
702.32	14899.85
702.46	14661.12
702.59	14829.63
702.72	14572.18
702.85	14684.52
702.99	14623.67
703.12	14572.18
703.25	14532.39
703.38	14359.19
703.51	14249.18
703.65	14450.47
703.78	14354.51
703.91	13884.06
704.04	14010.45
704.17	13708.52
704.31	13771.71
704.44	13638.30
704.57	13488.51
704.70	13327.01
704.83	13664.05
704.96	13593.83
705.10	13781.07
705.23	13755.33
>>>>>End Processed Spectral Data<<<<<
