SpectraSuite Data File
++++++++++++++++++++++++++++++++++++
Date: Fri Oct 25 11:34:13 EDT 2013
User: price-jones
Dark Spectrum Present: No
Reference Spectrum Present: No
Number of Sampled Component Spectra: 1
Spectrometers: USB2+H05261
Integration Time (usec): 100000 (USB2+H05261)
Spectra Averaged: 1 (USB2+H05261)
Boxcar Smoothing: 0 (USB2+H05261)
Correct for Electrical Dark: No (USB2+H05261)
Strobe/Lamp Enabled: No (USB2+H05261)
Correct for Detector Non-linearity: No (USB2+H05261)
Correct for Stray Light: No (USB2+H05261)
Number of Pixels in Processed Spectrum: 2048
>>>>>Begin Processed Spectral Data<<<<<
365.73	262.14
365.92	262.14
366.12	262.14
366.32	210.65
366.52	175.54
366.72	229.37
366.91	191.92
367.11	154.48
367.31	180.22
367.51	201.29
367.70	168.52
367.90	168.52
368.10	205.97
368.30	194.26
368.49	184.90
368.69	236.39
368.89	215.33
369.09	229.37
369.28	114.69
369.48	196.60
369.68	234.05
369.87	248.10
370.07	276.18
370.27	297.25
370.47	294.91
370.66	456.40
370.86	489.17
371.06	528.96
371.25	585.13
371.45	472.79
371.65	461.09
371.84	559.39
372.04	510.24
372.24	624.92
372.44	589.82
372.63	601.52
372.83	606.20
373.03	585.13
373.22	634.29
373.42	566.41
373.62	683.44
373.81	629.60
374.01	631.94
374.21	641.31
374.40	617.90
374.60	603.86
374.79	681.10
374.99	615.56
375.19	695.14
375.38	709.18
375.58	631.94
375.78	711.52
375.97	681.10
376.17	702.16
376.37	660.03
376.56	645.99
376.76	695.14
376.95	711.52
377.15	566.41
377.35	688.12
377.54	629.60
377.74	634.29
377.93	706.84
378.13	713.86
378.33	685.78
378.52	676.41
378.72	723.23
378.91	678.76
379.11	690.46
379.31	671.73
379.50	678.76
379.70	793.44
379.89	798.12
380.09	678.76
380.28	702.16
380.48	725.57
380.68	760.67
380.87	718.54
381.07	779.40
381.26	777.06
381.46	737.27
381.65	751.31
381.85	723.23
382.04	833.23
382.24	835.57
382.43	767.70
382.63	664.71
382.83	734.93
383.02	800.46
383.22	697.48
383.41	777.06
383.61	777.06
383.80	826.21
384.00	751.31
384.19	821.53
384.39	795.78
384.58	814.51
384.78	823.87
384.97	816.85
385.17	788.76
385.36	788.76
385.56	856.64
385.75	788.76
385.95	856.64
386.14	833.23
386.34	854.30
386.53	849.61
386.72	844.93
386.92	889.40
387.11	826.21
387.31	873.02
387.50	908.13
387.70	884.72
387.89	917.49
388.09	894.08
388.28	884.72
388.48	943.24
388.67	863.66
388.86	959.62
389.06	915.15
389.25	919.83
389.45	933.87
389.64	964.30
389.84	1008.77
390.03	983.02
390.22	961.96
390.42	968.98
390.61	978.34
390.81	912.81
391.00	959.62
391.19	968.98
391.39	952.60
391.58	1062.60
391.78	1013.45
391.97	1011.11
392.16	1006.43
392.36	1071.97
392.55	1027.50
392.75	1048.56
392.94	1078.99
393.13	1027.50
393.33	1018.13
393.52	1100.05
393.71	1097.71
393.91	1018.13
394.10	1130.48
394.29	1118.78
394.49	1032.18
394.68	1097.71
394.88	1104.73
395.07	1137.50
395.26	1249.85
395.46	1095.37
395.65	1277.93
395.84	1193.67
396.04	1270.91
396.23	1144.52
396.42	1172.61
396.62	1191.33
396.81	1291.98
397.00	1224.10
397.19	1214.74
397.39	1196.01
397.58	1186.65
397.77	1259.21
397.97	1287.29
398.16	1242.82
398.35	1224.10
398.55	1212.40
398.74	1273.25
398.93	1268.57
399.12	1224.10
399.32	1357.51
399.51	1287.29
399.70	1420.71
399.90	1214.74
400.09	1343.47
400.28	1310.70
400.47	1331.76
400.67	1411.34
400.86	1371.55
401.05	1380.92
401.24	1453.47
401.44	1369.21
401.63	1488.58
401.82	1411.34
402.01	1416.02
402.21	1416.02
402.40	1533.05
402.59	1497.94
402.78	1406.66
402.97	1467.52
403.17	1593.90
403.36	1444.11
403.55	1577.52
403.74	1633.69
403.93	1643.06
404.13	1666.46
404.32	1549.43
404.51	1561.14
404.70	1570.50
404.89	1554.12
405.09	1640.72
405.28	1610.29
405.47	1654.76
405.66	1687.53
405.85	1643.06
406.05	1593.90
406.24	1802.21
406.43	1687.53
406.62	1806.89
406.81	1825.62
407.00	1732.00
407.20	1661.78
407.39	1689.87
407.58	1825.62
407.77	1820.94
407.96	1837.32
408.15	1856.04
408.34	1781.15
408.54	1844.34
408.73	1898.17
408.92	1839.66
409.11	1830.30
409.30	1940.30
409.49	1973.07
409.68	1914.56
409.87	2005.84
410.07	2101.80
410.26	2019.88
410.45	2078.40
410.64	2062.01
410.83	2106.48
411.02	2099.46
411.21	2193.08
411.40	2127.55
411.59	2165.00
411.78	2113.50
411.98	2174.36
412.17	2270.32
412.36	2146.27
412.55	2265.64
412.74	2267.98
412.93	2399.05
413.12	2324.15
413.31	2370.96
413.50	2352.24
413.69	2200.10
413.88	2279.68
414.07	2544.16
414.26	2518.42
414.45	2415.43
414.64	2513.74
414.83	2471.61
415.02	2539.48
415.22	2590.97
415.41	2583.95
415.60	2693.96
415.79	2595.65
415.98	2644.81
416.17	2677.57
416.36	2719.70
416.55	2548.84
416.74	2684.59
416.93	2658.85
417.12	2722.04
417.31	2757.15
417.50	2715.02
417.69	2712.68
417.88	2789.92
418.07	2888.22
418.26	2892.90
418.45	2925.67
418.64	2974.82
418.83	3056.74
419.02	2963.12
419.21	3098.87
419.39	3087.17
419.58	2942.05
419.77	3007.59
419.96	2991.20
420.15	3190.15
420.34	3124.62
420.53	3035.67
420.72	3138.66
420.91	3152.70
421.10	3220.58
421.29	3197.17
421.48	3162.06
421.67	3267.39
421.86	3356.33
422.05	3302.50
422.24	3157.38
422.43	3323.56
422.61	3239.30
422.80	3428.88
422.99	3330.58
423.18	3435.91
423.37	3276.75
423.56	3342.28
423.75	3344.63
423.94	3260.37
424.13	3180.79
424.32	3204.19
424.50	3295.47
424.69	3426.54
424.88	3356.33
425.07	3178.45
425.26	3227.60
425.45	3337.60
425.64	3180.79
425.83	3290.79
426.01	3382.07
426.20	3417.18
426.39	3419.52
426.58	3414.84
426.77	3281.43
426.96	3508.46
427.15	3531.87
427.33	3426.54
427.52	3421.86
427.71	3524.85
427.90	3534.21
428.09	3583.36
428.28	3543.57
428.46	3684.00
428.65	3597.40
428.84	3625.49
429.03	3744.86
429.22	3630.17
429.40	3529.53
429.59	3623.15
429.78	3552.93
429.97	3503.78
430.16	3712.09
430.34	3754.22
430.53	3693.37
430.72	3854.86
430.91	3695.71
431.10	3723.79
431.28	3763.58
431.47	3904.01
431.66	3983.59
431.85	3744.86
432.03	3864.22
432.22	4156.79
432.41	3920.40
432.60	3831.46
432.79	4079.55
432.97	3992.95
433.16	3939.12
433.35	3995.29
433.54	3997.64
433.72	4046.79
433.91	3976.57
434.10	4198.92
434.28	4044.45
434.47	4177.86
434.66	4145.09
434.85	4156.79
435.03	4196.58
435.22	4243.39
435.41	4332.33
435.59	4229.35
435.78	4269.14
435.97	4315.95
436.16	4238.71
436.34	4285.52
436.53	4299.56
436.72	4486.81
436.90	4191.90
437.09	4397.87
437.28	4334.67
437.46	4447.02
437.65	4337.01
437.84	4477.44
438.02	4493.83
438.21	4564.04
438.40	4496.17
438.58	4510.21
438.77	4695.11
438.96	4643.62
439.14	4688.09
439.33	4800.44
439.52	4851.93
439.70	4770.01
439.89	4837.89
440.08	5043.85
440.26	4809.80
440.45	4837.89
440.63	5004.07
440.82	4978.32
441.01	4905.76
441.19	5060.24
441.38	5149.18
441.57	5085.98
441.75	5130.45
441.94	5233.44
442.12	5336.42
442.31	5322.38
442.50	5287.27
442.68	5205.35
442.87	5252.16
443.05	5345.78
443.24	5322.38
443.43	5406.64
443.61	5434.72
443.80	5455.79
443.98	5327.06
444.17	5076.62
444.35	5462.81
444.54	5579.84
444.73	5362.17
444.91	5357.49
445.10	5577.50
445.28	5451.11
445.47	5610.26
445.65	5509.62
445.84	5430.04
446.02	5481.53
446.21	5589.20
446.39	5596.22
446.58	5621.97
446.77	5708.57
446.95	5472.17
447.14	5558.77
447.32	5626.65
447.51	5593.88
447.69	5657.07
447.88	5584.52
448.06	5570.48
448.25	5832.62
448.43	5544.73
448.62	5624.31
448.80	5650.05
448.99	5593.88
449.17	5851.34
449.36	5827.93
449.54	5998.79
449.73	5816.23
449.91	5959.00
450.10	5921.56
450.28	5954.32
450.46	5921.56
450.65	6001.13
450.83	5891.13
451.02	6045.60
451.20	6024.54
451.39	6202.42
451.57	5996.45
451.76	6097.10
451.94	6141.57
452.13	6134.54
452.31	6101.78
452.49	6186.04
452.68	6279.66
452.86	6085.39
453.05	6066.67
453.23	6389.66
453.42	6162.63
453.60	6120.50
453.78	6080.71
453.97	6249.23
454.15	6265.61
454.34	6167.31
454.52	6382.64
454.70	6195.40
454.89	6487.96
455.07	6237.53
455.26	6469.24
455.44	6574.56
455.62	6569.88
455.81	6518.39
455.99	6647.12
456.17	6487.96
456.36	6693.93
456.54	6558.18
456.73	6829.68
456.91	6754.79
457.09	6953.73
457.28	7061.40
457.46	6796.92
457.64	6939.69
457.83	7035.65
458.01	6874.15
458.19	6888.20
458.38	6963.09
458.56	7056.72
458.74	6963.09
458.93	6911.60
459.11	7133.95
459.29	7016.93
459.48	6897.56
459.66	7157.36
459.84	6958.41
460.03	7194.81
460.21	7274.38
460.39	7136.29
460.57	7218.21
460.76	7316.51
460.94	7351.62
461.12	7241.62
461.31	7307.15
461.49	7398.43
461.67	7398.43
461.85	7260.34
462.04	7372.69
462.22	7953.14
462.40	7627.81
462.59	7618.44
462.77	7606.74
462.95	7737.81
463.13	7508.44
463.32	7651.21
463.50	7515.46
463.68	7721.43
463.86	7779.94
464.05	7475.67
464.23	7658.23
464.41	7672.28
464.59	7719.09
464.78	7784.62
464.96	7824.41
465.14	7653.55
465.32	7833.77
465.50	7920.37
465.69	7967.18
465.87	7960.16
466.05	7988.25
466.23	8105.28
466.41	7948.46
466.60	8105.28
466.78	7939.10
466.96	7964.84
467.14	7962.50
467.32	8138.04
467.51	8161.45
467.69	8016.33
467.87	8149.75
468.05	8074.85
468.23	8105.28
468.41	8079.53
468.60	8189.53
468.78	8194.22
468.96	8234.00
469.14	8381.46
469.32	8498.49
469.50	8276.13
469.69	8430.61
469.87	8479.76
470.05	8409.54
470.23	8638.92
470.41	8638.92
470.59	8641.26
470.77	8631.90
470.95	8542.96
471.14	8828.50
471.32	8699.77
471.50	8823.82
471.68	8826.16
471.86	8851.91
472.04	8891.70
472.22	9111.71
472.40	8793.39
472.58	8805.10
472.77	9043.83
472.95	9109.36
473.13	9518.96
473.31	9184.26
473.49	9195.96
473.67	9029.79
473.85	9336.40
474.03	9369.16
474.21	9308.31
474.39	9404.27
474.57	9607.90
474.75	9596.20
474.93	9738.97
475.12	9638.33
475.30	9617.26
475.48	9570.45
475.66	9764.72
475.84	9624.28
476.02	10019.83
476.20	9825.57
476.38	10174.31
476.56	10375.59
476.74	10312.40
476.92	10176.65
477.10	10382.62
477.28	10176.65
477.46	10675.18
477.64	10511.35
477.82	10640.08
478.00	10930.30
478.18	10843.70
478.36	10817.96
478.54	11005.20
478.72	11007.54
478.90	11042.65
479.08	11248.61
479.26	11290.74
479.44	11204.14
479.62	11562.25
479.80	11611.40
479.98	11707.36
480.16	12009.29
480.34	11700.34
480.52	11845.45
480.70	11761.19
480.88	11805.66
481.06	11948.43
481.24	12205.89
481.41	12519.53
481.59	12461.01
481.77	12241.00
481.95	12552.29
482.13	12582.72
482.31	12505.48
482.49	13006.36
482.67	12945.50
482.85	13153.81
483.03	13060.19
483.21	13219.35
483.39	13453.40
483.57	13191.26
483.74	13371.48
483.92	13509.57
484.10	13603.19
484.28	13846.61
484.46	14146.20
484.64	14129.81
484.82	14010.45
485.00	14141.52
485.18	14415.36
485.35	14562.81
485.53	14431.74
485.71	14464.51
485.89	15000.49
486.07	14960.70
486.25	14937.30
486.43	15328.17
486.61	15185.40
486.78	15059.01
486.96	15782.23
487.14	15559.88
487.32	15728.40
487.50	15754.15
487.68	16004.58
487.85	15999.90
488.03	16119.27
488.21	16428.22
488.39	16327.58
488.57	16306.51
488.75	16456.31
488.92	16788.66
489.10	17186.55
489.28	17039.10
489.46	17188.89
489.64	17572.74
489.81	17589.13
489.99	17561.04
490.17	17619.55
490.35	17535.29
490.53	17879.35
490.70	18272.56
490.88	18183.62
491.06	18310.01
491.24	18483.21
491.41	18576.83
491.59	18661.09
491.77	18579.17
491.95	19007.49
492.13	18906.85
492.30	18956.00
492.48	19414.74
492.66	19332.82
492.84	19367.93
493.01	19662.84
493.19	19487.30
493.37	19761.14
493.54	19896.89
493.72	20442.24
493.90	19943.70
494.08	20243.29
494.25	20542.88
494.43	20570.97
494.61	20215.21
494.79	20732.47
494.96	20900.98
495.14	21095.25
495.32	21270.79
495.49	20826.09
495.67	21308.24
495.85	21128.02
496.02	21752.94
496.20	21741.24
496.38	21649.96
496.55	21582.08
496.73	22314.67
496.91	22003.38
497.09	21874.65
497.26	22005.72
497.44	22209.34
497.62	22253.81
497.79	22892.78
497.97	22705.54
498.14	22654.05
498.32	23096.41
498.50	23283.65
498.67	23391.31
498.85	23206.41
499.03	23632.39
499.20	23527.06
499.38	23571.54
499.56	23658.14
499.73	23658.14
499.91	23943.68
500.08	24105.18
500.26	23812.61
500.44	24095.82
500.61	24269.01
500.79	24072.41
500.97	24100.50
501.14	24533.50
501.32	24261.99
501.49	24608.39
501.67	24886.92
501.84	24772.23
502.02	24643.50
502.20	24891.60
502.37	24711.38
502.55	24856.49
502.72	25099.90
502.90	25404.17
503.07	25277.79
503.25	25472.05
503.43	25165.44
503.60	25343.32
503.78	25493.12
503.95	25568.01
504.13	25944.84
504.30	26225.70
504.48	25979.95
504.65	26038.46
504.83	26394.22
505.01	26298.26
505.18	26597.85
505.36	26363.79
505.53	26471.46
505.71	26565.08
505.88	26981.70
506.06	26272.51
506.23	27054.25
506.41	26871.69
506.58	26941.91
506.76	27124.47
506.93	27283.62
507.11	27360.86
507.28	27510.66
507.46	27859.40
507.63	27381.93
507.81	27578.53
507.98	27646.41
508.16	27777.48
508.33	27969.40
508.50	28137.92
508.68	27597.26
508.85	28367.29
509.03	28074.73
509.20	28224.52
509.38	28180.05
509.55	28606.03
509.73	28121.54
509.90	28727.74
510.08	28648.16
510.25	28907.96
510.42	28746.46
510.60	29001.58
510.77	29163.08
510.95	29443.94
511.12	29057.75
511.30	28720.71
511.47	29539.90
511.64	29390.11
511.82	29467.34
511.99	29656.93
512.17	29523.52
512.34	29511.81
512.51	29912.05
512.69	29820.77
512.86	29839.49
513.04	29914.39
513.21	30110.99
513.38	30249.08
513.56	29830.13
513.73	30071.20
513.90	30541.65
514.08	30185.89
514.25	30714.85
514.43	30525.27
514.60	30532.29
514.77	31178.28
514.95	30965.29
515.12	30890.39
515.29	30981.67
515.47	31082.31
515.64	31250.83
515.81	30810.81
515.99	31138.49
516.16	31718.94
516.33	31035.50
516.51	31716.60
516.68	31440.42
516.85	31456.80
517.03	31351.48
517.20	31707.24
517.37	31756.39
517.54	32215.13
517.72	31772.77
517.89	32147.26
518.06	32093.43
518.24	32217.47
518.41	32273.65
518.58	32006.83
518.75	32006.83
518.93	32275.99
519.10	32481.95
519.27	32835.38
519.45	32205.77
519.62	32868.14
519.79	32790.91
519.96	32437.48
520.14	32816.65
520.31	32566.21
520.48	33174.75
520.65	33352.63
520.83	33387.74
521.00	33270.72
521.17	33329.23
521.34	33200.50
521.52	33544.56
521.69	33214.54
521.86	33684.99
522.03	33930.75
522.20	34422.26
522.38	34321.62
522.55	33954.15
522.72	34022.03
522.89	33989.26
523.07	34087.56
523.24	34696.10
523.41	34326.30
523.58	34003.30
523.75	34265.44
523.92	34401.19
524.10	34675.04
524.27	34330.98
524.44	35000.37
524.61	34691.42
524.78	34752.27
524.96	34951.22
525.13	34813.13
525.30	35194.64
525.47	35363.15
525.64	34993.35
525.81	35370.18
525.98	35218.04
526.16	35222.72
526.33	35311.66
526.50	35555.08
526.67	35393.58
526.84	35725.94
527.01	35227.40
527.18	35667.42
527.36	35704.87
527.53	35824.24
527.70	36329.80
527.87	36219.79
528.04	35969.35
528.21	35887.43
528.38	35796.15
528.55	36449.16
528.72	35896.80
528.89	36367.24
529.07	36044.25
529.24	36034.89
529.41	36374.27
529.58	36175.32
529.75	36261.92
529.92	36297.03
530.09	36341.50
530.26	36683.22
530.43	36636.41
530.60	36369.58
530.77	36879.82
530.94	36704.28
531.11	36645.77
531.28	36804.92
531.46	36975.78
531.63	36814.29
531.80	37315.16
531.97	37504.74
532.14	37202.82
532.31	37635.81
532.48	37596.03
532.65	37099.83
532.82	37390.06
532.99	37488.36
533.16	37361.97
533.33	37422.83
533.50	38012.64
533.67	37785.61
533.84	37670.92
534.01	37598.37
534.18	37965.83
534.35	38162.43
534.52	38204.56
534.69	38483.09
534.86	38258.40
535.03	38092.22
535.20	38417.55
535.37	38312.23
535.54	38382.45
535.71	38410.53
535.88	38478.41
536.05	38644.59
536.22	38387.13
536.38	38623.52
536.55	38682.03
536.72	38522.88
536.89	38424.57
537.06	38700.76
537.23	38876.30
537.40	38649.27
537.57	38969.92
537.74	38747.57
537.91	38986.30
538.08	38782.68
538.25	38962.90
538.42	38979.28
538.59	39143.12
538.75	39182.91
538.92	39218.02
539.09	39426.32
539.26	39372.49
539.43	39339.72
539.60	39648.68
539.77	39285.89
539.94	39508.24
540.11	39573.78
540.28	39655.70
540.44	39833.58
540.61	39849.96
540.78	39585.48
540.95	39573.78
541.12	39875.71
541.29	39475.48
541.46	39573.78
541.62	39903.79
541.79	40013.80
541.96	39452.07
542.13	39784.43
542.30	39810.17
542.47	40163.59
542.63	40292.32
542.80	40367.22
542.97	40629.36
543.14	40713.62
543.31	40620.00
543.48	40933.63
543.64	40884.48
543.81	40921.93
543.98	40725.32
544.15	40966.40
544.32	41163.00
544.48	41184.07
544.65	41078.74
544.82	41188.75
544.99	40617.66
545.16	41249.60
545.32	41151.30
545.49	41446.21
545.66	41790.27
545.83	41247.26
546.00	41280.03
546.16	41163.00
546.33	41205.13
546.50	41158.32
546.67	41467.27
546.83	40821.28
547.00	41539.83
547.17	41144.28
547.34	41514.08
547.50	41876.86
547.67	41736.43
547.84	41787.92
548.00	41860.48
548.17	42396.46
548.34	41706.01
548.51	42539.24
548.67	41736.43
548.84	41848.78
549.01	42073.47
549.18	41797.29
549.34	42078.15
549.51	41993.89
549.68	42361.36
549.84	42354.33
550.01	42623.50
550.18	42131.98
550.34	42583.71
550.51	42539.24
550.68	42080.49
550.84	42614.13
551.01	42808.40
551.18	42452.64
551.34	42029.00
551.51	42422.21
551.68	42574.34
551.84	42403.49
552.01	42298.16
552.18	42553.28
552.34	42644.56
552.51	42873.93
552.68	42749.88
552.84	42909.04
553.01	43122.03
553.18	42658.60
553.34	43077.56
553.51	43061.18
553.67	43051.81
553.84	43538.65
554.01	43372.47
554.17	42920.74
554.34	43311.61
554.51	43459.07
554.67	43342.04
554.84	43669.72
555.00	43489.49
555.17	43143.09
555.33	43421.62
555.50	43372.47
555.67	43536.30
555.83	43138.41
556.00	43505.88
556.16	43938.88
556.33	43557.37
556.50	43643.97
556.66	43711.84
556.83	43328.00
556.99	44238.47
557.16	43873.34
557.32	44119.10
557.49	43770.36
557.65	43297.57
557.82	43739.93
557.98	43847.60
558.15	43758.66
558.32	43849.94
558.48	43756.32
558.65	44053.56
558.81	43976.33
558.98	43992.71
559.14	44158.89
559.31	43548.01
559.47	44500.61
559.64	44222.08
559.80	43849.94
559.97	43990.37
560.13	43962.28
560.30	44062.93
560.46	44156.55
560.63	44130.80
560.79	44268.89
560.96	44545.08
561.12	44673.81
561.29	44348.47
561.45	44186.97
561.61	44451.45
561.78	44446.77
561.94	44336.77
562.11	44533.37
562.27	44769.77
562.44	44671.46
562.60	44617.63
562.77	44542.74
562.93	44610.61
563.10	44715.93
563.26	44308.68
563.42	44835.30
563.59	44701.89
563.75	44488.90
563.92	44547.42
564.08	44751.04
564.24	45045.95
564.41	44795.51
564.57	44526.35
564.74	44837.64
564.90	44809.56
565.07	44708.91
565.23	45202.77
565.39	45029.57
565.56	45214.47
565.72	44624.65
565.88	45013.18
566.05	44907.86
566.21	45067.02
566.38	45076.38
566.54	45254.26
566.70	45162.98
566.87	45137.23
567.03	44664.44
567.19	45500.01
567.36	45221.49
567.52	44835.30
567.68	45638.11
567.85	45207.45
568.01	45481.29
568.17	44982.76
568.34	45294.05
568.50	44947.65
568.66	45071.70
568.83	45322.13
568.99	44788.49
569.15	45289.37
569.32	45031.91
569.48	45132.55
569.64	45586.61
569.81	45193.40
569.97	45638.11
570.13	45635.77
570.30	45184.04
570.46	45476.61
570.62	45434.48
570.78	45329.16
570.95	45373.63
571.11	45352.56
571.27	45521.08
571.43	45191.06
571.60	45701.30
571.76	45614.70
571.92	45528.10
572.09	45516.40
572.25	45537.46
572.41	45193.40
572.57	45956.42
572.74	45574.91
572.90	45539.80
573.06	45539.80
573.22	45741.09
573.38	45930.67
573.55	45221.49
573.71	45818.33
573.87	45909.61
574.03	45509.38
574.20	45808.96
574.36	45525.76
574.52	45993.87
574.68	45806.62
574.84	45745.77
575.01	46129.62
575.17	45942.38
575.33	45755.13
575.49	45607.68
575.65	45869.82
575.82	45813.65
575.98	45652.15
576.14	45666.19
576.30	45879.18
576.46	45745.77
576.62	45769.18
576.79	45586.61
576.95	45935.35
577.11	45879.18
577.27	45804.28
577.43	45757.47
577.59	45511.72
577.75	45827.69
577.92	45450.86
578.08	45429.80
578.24	46174.09
578.40	45928.33
578.56	46068.76
578.72	46110.89
578.88	45762.15
579.04	46284.09
579.21	45528.10
579.37	45687.26
579.53	46134.30
579.69	45813.65
579.85	45624.06
580.01	45558.53
580.17	45682.58
580.33	46113.23
580.49	45970.46
580.65	45890.88
580.82	46204.52
580.98	45933.01
581.14	45661.51
581.30	46061.74
581.46	45722.37
581.62	46085.15
581.78	45979.82
581.94	46232.60
582.10	45902.59
582.26	46078.13
582.42	46012.59
582.58	45888.54
582.74	46157.70
582.90	46064.08
583.06	46036.00
583.22	45603.00
583.38	45865.14
583.54	46295.80
583.70	46043.02
583.86	45696.62
584.02	45762.15
584.18	46286.43
584.34	46600.07
584.50	46277.07
584.66	46567.30
584.82	45963.44
584.98	46637.51
585.14	46387.08
585.30	45771.52
585.46	46003.23
585.62	46319.20
585.78	46583.68
585.94	46181.11
586.10	45862.80
586.26	45785.56
586.42	46120.26
586.58	46335.59
586.74	46073.45
586.90	46248.99
587.06	45989.19
587.22	46136.64
587.38	45750.45
587.54	46344.95
587.70	46363.67
587.86	46110.89
588.02	45724.71
588.18	46068.76
588.34	46541.55
588.49	46234.94
588.65	46066.42
588.81	46129.62
588.97	46260.69
589.13	46092.17
589.29	46195.15
589.45	46550.91
589.61	46597.73
589.77	46611.77
589.93	46611.77
590.08	46941.78
590.24	46866.89
590.40	46873.91
590.56	46618.79
590.72	46576.66
590.88	46361.33
591.04	46787.31
591.20	46419.84
591.35	46960.51
591.51	47016.68
591.67	46930.08
591.83	46855.18
591.99	46581.34
592.15	46471.34
592.31	46595.38
592.46	46618.79
592.62	46796.67
592.78	46817.74
592.94	46878.59
593.10	46476.02
593.26	46806.03
593.41	46735.82
593.57	46890.29
593.73	46749.86
593.89	47367.76
594.05	47269.46
594.20	47023.70
594.36	47309.25
594.52	46918.38
594.68	46742.84
594.84	46820.08
594.99	47463.72
595.15	47110.30
595.31	47192.22
595.47	46852.84
595.62	46990.94
595.78	47047.11
595.94	47014.34
596.10	47154.77
596.25	46981.57
596.41	46976.89
596.57	46789.65
596.73	47009.66
596.88	46979.23
597.04	46543.89
597.20	47206.26
597.36	47131.37
597.51	46681.98
597.67	47241.37
597.83	46810.71
597.99	47182.86
598.14	46850.50
598.30	47199.24
598.46	46770.93
598.61	46937.10
598.77	47110.30
598.93	47264.78
599.09	46937.10
599.24	47278.82
599.40	46932.42
599.56	46656.24
599.71	46920.72
599.87	47283.50
600.03	47309.25
600.18	47105.62
600.34	46909.02
600.50	47503.51
600.65	47103.28
600.81	47693.10
600.97	47484.79
601.12	47159.45
601.28	47047.11
601.44	46841.14
601.59	47217.97
601.75	46836.46
601.91	47351.38
602.06	47152.43
602.22	47295.21
602.37	47400.53
602.53	47124.35
602.69	46997.96
602.84	47412.23
603.00	47138.39
603.16	47206.26
603.31	47271.80
603.47	47126.69
603.62	47044.77
603.78	47468.40
603.94	46834.12
604.09	46997.96
604.25	47093.92
604.40	46862.21
604.56	46752.20
604.71	47339.68
604.87	47255.42
605.03	46660.92
605.18	46672.62
605.34	47019.02
605.49	47145.41
605.65	46850.50
605.80	47072.85
605.96	46700.71
606.12	47206.26
606.27	46696.03
606.43	46450.27
606.58	47049.45
606.74	46616.45
606.89	46831.78
607.05	46965.19
607.20	46960.51
607.36	46735.82
607.51	46824.76
607.67	46974.55
607.82	46693.69
607.98	47056.47
608.13	46913.70
608.29	46939.44
608.44	47407.55
608.60	46735.82
608.75	46948.81
608.91	46974.55
609.06	46452.61
609.22	46972.21
609.37	46518.15
609.53	46932.42
609.68	46864.55
609.84	46873.91
609.99	46756.88
610.15	46932.42
610.30	47114.98
610.46	46749.86
610.61	46777.95
610.76	47040.09
610.92	46569.64
611.07	46553.26
611.23	46476.02
611.38	46651.56
611.54	46759.22
611.69	46705.39
611.84	46656.24
612.00	46735.82
612.15	46525.17
612.31	46784.97
612.46	45902.59
612.62	46529.85
612.77	46459.63
612.92	47000.30
613.08	46972.21
613.23	46686.67
613.39	46251.33
613.54	46382.40
613.69	46766.24
613.85	46625.81
614.00	46389.42
614.15	46660.92
614.31	46412.82
614.46	46246.65
614.62	45785.56
614.77	46195.15
614.92	46302.82
615.08	46328.56
615.23	46344.95
615.38	46223.24
615.54	46490.06
615.69	46476.02
615.84	46363.67
616.00	46586.02
616.15	46525.17
616.30	46330.90
616.46	46586.02
616.61	46225.58
616.76	46099.19
616.92	46216.22
617.07	46270.05
617.22	45801.94
617.37	46078.13
617.53	46155.36
617.68	45748.11
617.83	46349.63
617.99	46433.89
618.14	46272.39
618.29	45979.82
618.45	45317.45
618.60	45883.86
618.75	45741.09
618.90	45846.41
619.06	45633.42
619.21	45972.80
619.36	46103.87
619.51	45495.33
619.67	45820.67
619.82	45308.09
619.97	45727.05
620.12	45687.26
620.28	45600.66
620.43	46047.70
620.58	45769.18
620.73	45911.95
620.89	46272.39
621.04	45928.33
621.19	45720.02
621.34	45392.35
621.49	45563.21
621.65	45715.34
621.80	45970.46
621.95	45815.99
622.10	45563.21
622.25	45067.02
622.41	45366.60
622.56	45478.95
622.71	45574.91
622.86	45698.96
623.01	45478.95
623.16	45708.32
623.32	45504.70
623.47	45478.95
623.62	45212.13
623.77	45514.06
623.92	45041.27
624.07	45457.88
624.23	45628.74
624.38	45282.34
624.53	44989.78
624.68	44861.05
624.83	44772.11
624.98	45071.70
625.13	45219.15
625.29	44645.72
625.44	44889.13
625.59	44982.76
625.74	44903.18
625.89	44755.72
626.04	44748.70
626.19	45249.58
626.34	44701.89
626.49	44507.63
626.65	44563.80
626.80	44552.10
626.95	44318.04
627.10	43950.58
627.25	44753.38
627.40	44727.64
627.55	44516.99
627.70	44474.86
627.85	44231.44
628.00	44882.11
628.15	44666.78
628.30	44491.24
628.45	44198.68
628.60	44083.99
628.76	44430.39
628.91	44474.86
629.06	43915.47
629.21	44320.38
629.36	43971.64
629.51	44509.97
629.66	44760.40
629.81	44488.90
629.96	44271.23
630.11	44369.54
630.26	44016.11
630.41	43899.09
630.56	44215.06
630.71	44428.05
630.86	44161.23
631.01	43728.23
631.16	43945.90
631.31	43662.69
631.46	43761.00
631.61	44648.06
631.76	43676.74
631.91	43779.72
632.06	44409.32
632.21	44453.79
632.36	44226.76
632.51	43761.00
632.66	43971.64
632.81	43903.77
632.96	43658.01
633.10	43662.69
633.25	43632.27
633.40	43536.30
633.55	43917.81
633.70	43744.61
633.85	43632.27
634.00	43489.49
634.15	43599.50
634.30	43185.22
634.45	43377.15
634.60	43751.63
634.75	43826.53
634.90	43473.11
635.05	43709.50
635.19	43454.39
635.34	43679.08
635.49	43536.30
635.64	43199.27
635.79	43477.79
635.94	43395.87
636.09	43384.17
636.24	43480.13
636.39	42948.83
636.53	43217.99
636.68	43049.47
636.83	42913.72
636.98	43033.09
637.13	42616.47
637.28	43145.44
637.43	42761.59
637.57	42911.38
637.72	43056.50
637.87	42700.73
638.02	43033.09
638.17	42869.25
638.32	43084.58
638.46	42679.67
638.61	42904.36
638.76	42550.94
638.91	42536.90
639.06	43005.00
639.20	42267.73
639.35	42476.04
639.50	42361.36
639.65	42740.52
639.80	43185.22
639.94	42965.21
640.09	42958.19
640.24	42663.28
640.39	42050.06
640.54	42548.60
640.68	42948.83
640.83	42567.32
640.98	42436.25
641.13	42246.67
641.27	42707.76
641.42	42108.58
641.57	42696.05
641.72	41727.07
641.86	42036.02
642.01	41975.17
642.16	42260.71
642.31	42321.57
642.45	42241.99
642.60	41537.49
642.75	41556.21
642.90	42637.54
643.04	42897.34
643.19	42230.29
643.34	41497.70
643.48	41233.22
643.63	42014.96
643.78	42059.43
643.93	41942.40
644.07	41979.85
644.22	41989.21
644.37	41853.46
644.51	41886.23
644.66	41640.47
644.81	41944.74
644.95	42305.18
645.10	42117.94
645.25	41397.06
645.39	41659.20
645.54	41823.03
645.69	41347.90
645.83	41345.56
645.98	41326.84
646.13	41457.91
646.27	41635.79
646.42	41141.94
646.57	41326.84
646.71	41717.71
646.86	41727.07
647.00	41656.85
647.15	41663.88
647.30	41965.81
647.44	41713.03
647.59	41415.78
647.74	41467.27
647.88	41319.82
648.03	41284.71
648.17	41586.64
648.32	41394.71
648.47	41720.05
648.61	41174.70
648.76	41141.94
648.90	40994.48
649.05	41081.08
649.20	41102.15
649.34	41682.60
649.49	41481.31
649.63	41347.90
649.78	41247.26
649.92	40683.19
650.07	41626.43
650.21	41247.26
650.36	41565.57
650.51	40840.01
650.65	40989.80
650.80	41177.04
650.94	41062.36
651.09	41127.89
651.23	40484.25
651.38	40800.22
651.52	40573.19
651.67	40685.53
651.81	40666.81
651.96	40715.96
652.10	40095.72
652.25	40432.75
652.39	40495.95
652.54	40432.75
652.68	40332.11
652.83	40582.55
652.97	40666.81
653.12	40512.33
653.26	40500.63
653.41	40526.38
653.55	40575.53
653.70	40720.64
653.84	40481.91
653.99	40807.24
654.13	40587.23
654.27	39679.10
654.42	40374.24
654.56	39924.86
654.71	40250.19
654.85	40311.05
655.00	40203.38
655.14	40561.48
655.29	40704.26
655.43	40589.57
655.57	40002.10
655.72	39653.36
655.86	39992.73
656.01	39887.41
656.15	40081.67
656.30	39693.15
656.44	40060.61
656.58	40065.29
656.73	39725.91
656.87	39487.18
657.01	39309.30
657.16	39915.50
657.30	39693.15
657.45	39742.30
657.59	39845.28
657.73	39400.58
657.88	39510.58
658.02	39487.18
658.16	39580.80
658.31	39548.03
658.45	39445.05
658.60	39187.59
658.74	39821.87
658.88	39548.03
659.03	39356.11
659.17	39021.41
659.31	39049.50
659.46	38871.62
659.60	39124.40
659.74	39089.29
659.89	38602.46
660.03	38932.47
660.17	38998.01
660.32	38651.61
660.46	38614.16
660.60	38906.73
660.74	38614.16
660.89	39014.39
661.03	38710.12
661.17	38445.64
661.32	38469.04
661.46	38794.38
661.60	38050.09
661.74	38330.95
661.89	38373.08
662.03	38345.00
662.17	38368.40
662.31	38368.40
662.46	38103.92
662.60	38230.31
662.74	38047.75
662.88	37893.27
663.03	37553.90
663.17	37961.15
663.31	37483.68
663.45	37970.51
663.60	38375.42
663.74	37706.03
663.88	38103.92
664.02	37373.67
664.17	37778.59
664.31	37790.29
664.45	37315.16
664.59	37181.75
664.73	37448.57
664.88	37532.83
665.02	37099.83
665.16	37053.02
665.30	37383.04
665.44	37212.18
665.59	36659.81
665.73	37198.13
665.87	37034.30
666.01	36889.18
666.15	36774.50
666.29	36957.06
666.44	36865.78
666.58	36442.14
666.72	36444.48
666.86	36390.65
667.00	36711.30
667.14	36397.67
667.28	36444.48
667.43	36676.19
667.57	36444.48
667.71	36580.23
667.85	36238.51
667.99	36877.48
668.13	36004.46
668.27	36217.45
668.41	35999.78
668.56	35470.82
668.70	35466.14
668.84	35098.67
668.98	35494.22
669.12	35950.63
669.26	35824.24
669.40	35648.70
669.54	35683.81
669.68	35660.40
669.82	35625.29
669.96	34918.45
670.10	34553.33
670.25	35119.74
670.39	35213.36
670.53	35058.88
670.67	35524.65
670.81	35079.95
670.95	34803.77
671.09	34803.77
671.23	34969.94
671.37	34927.81
671.51	34455.03
671.65	34476.09
671.79	34382.47
671.93	34616.52
672.07	34752.27
672.21	34440.98
672.35	34342.68
672.49	34232.68
672.63	34066.50
672.77	33968.19
672.91	33818.40
673.05	34178.84
673.19	33472.00
673.33	33806.70
673.47	33574.98
673.61	33537.54
673.75	33462.64
673.89	33434.55
674.03	33329.23
674.17	33287.10
674.31	32779.20
674.45	33041.34
674.59	32732.39
674.73	32851.76
674.87	32917.29
675.01	32847.08
675.15	32526.42
675.29	32187.05
675.43	32737.07
675.56	33001.55
675.70	32212.79
675.84	32261.94
675.98	31534.04
676.12	32287.69
676.26	32098.11
676.40	31924.91
676.54	31562.12
676.68	31370.20
676.82	31077.63
676.96	32039.59
677.10	31690.85
677.23	31618.30
677.37	31721.28
677.51	30752.30
677.65	31173.60
677.79	30822.51
677.93	30768.68
678.07	30747.62
678.21	30422.28
678.34	30370.79
678.48	30501.86
678.62	30448.03
678.76	30223.34
678.90	30267.81
679.04	30499.52
679.18	30277.17
679.31	30150.78
679.45	29516.50
679.59	29336.27
679.73	29797.36
679.87	29755.23
680.00	29806.72
680.14	29373.72
680.28	29301.17
680.42	29083.50
680.56	28973.49
680.70	29195.84
680.83	29006.26
680.97	28945.41
681.11	28924.34
681.25	28404.74
681.39	28519.43
681.52	28795.61
681.66	28084.09
681.80	28034.94
681.94	27763.43
682.07	27810.25
682.21	27850.03
682.35	27981.10
682.49	27559.81
682.62	27995.15
682.76	28180.05
682.90	27538.74
683.04	27304.69
683.17	27393.63
683.31	27295.33
683.45	27145.53
683.59	26808.50
683.72	26735.94
683.86	27182.98
684.00	26721.90
684.13	26768.71
684.27	26998.08
684.41	26417.63
684.55	26672.74
684.68	26476.14
684.82	26059.52
684.96	26450.39
685.09	26396.56
685.23	25818.45
685.37	26155.49
685.50	26480.82
685.64	25968.24
685.78	26005.69
685.91	25329.28
686.05	25221.61
686.19	24992.24
686.32	25296.51
686.46	24809.68
686.60	24650.52
686.73	25230.98
686.87	24737.12
687.01	24884.58
687.14	24720.74
687.28	24755.85
687.42	24613.07
687.55	24460.94
687.69	24297.10
687.82	24350.93
687.96	23964.75
688.10	24215.18
688.23	24332.21
688.37	24173.05
688.50	24151.99
688.64	24060.71
688.78	23754.10
688.91	23616.01
689.05	23707.29
689.18	23365.57
689.32	23227.48
689.46	23297.69
689.59	22955.97
689.73	23503.66
689.86	23452.17
690.00	23028.53
690.13	23009.81
690.27	22651.70
690.41	22888.10
690.54	22377.86
690.68	22237.43
690.81	22363.82
690.95	22218.71
691.08	21860.60
691.22	21715.49
691.35	21799.75
691.49	22115.72
691.62	21930.82
691.76	21228.66
691.89	21193.55
692.03	21308.24
692.16	21125.68
692.30	21113.97
692.43	21144.40
692.57	21123.33
692.70	20933.75
692.84	21088.23
692.97	20570.97
693.11	20446.92
693.24	20617.78
693.38	20484.37
693.51	20306.49
693.65	20369.68
693.78	20053.71
693.92	19971.79
694.05	19957.75
694.19	19908.60
694.32	19658.16
694.45	20027.96
694.59	20262.02
694.72	20215.21
694.86	19793.91
694.99	19218.14
695.13	19215.80
695.26	19084.73
695.39	19267.29
695.53	19213.46
695.66	19211.12
695.80	19187.71
695.93	18946.64
696.07	18778.12
696.20	18457.46
696.33	18200.01
696.47	18160.22
696.60	18579.17
696.73	18452.78
696.87	18333.42
697.00	18239.79
697.14	18120.43
697.27	18050.21
697.40	17961.27
697.54	17963.61
697.67	17963.61
697.80	17830.20
697.94	17631.26
698.07	17600.83
698.21	17507.21
698.34	17469.76
698.47	17387.84
698.61	16854.20
698.74	17043.78
698.87	17109.32
699.01	17006.33
699.14	17224.00
699.27	16917.39
699.40	16552.27
699.54	16819.09
699.67	16479.71
699.80	16503.12
699.94	16369.71
700.07	16482.05
700.20	16648.23
700.34	16409.50
700.47	16517.16
700.60	16343.96
700.73	16020.97
700.87	15857.13
701.00	15807.98
701.13	15875.85
701.26	15803.30
701.40	15669.89
701.53	15496.69
701.66	15440.51
701.79	15463.92
701.93	15272.00
702.06	15192.42
702.19	14979.43
702.32	15377.32
702.46	15433.49
702.59	15131.56
702.72	15255.61
702.85	14864.74
702.99	14860.06
703.12	14558.13
703.25	14618.99
703.38	14558.13
703.51	14593.24
703.65	14244.50
703.78	14218.75
703.91	14092.37
704.04	14019.81
704.17	14101.73
704.31	13813.84
704.44	13877.04
704.57	14157.90
704.70	13757.67
704.83	13825.54
704.96	13830.23
705.10	13645.32
705.23	13343.39
>>>>>End Processed Spectral Data<<<<<
