SpectraSuite Data File
++++++++++++++++++++++++++++++++++++
Date: Fri Oct 25 11:34:50 EDT 2013
User: price-jones
Dark Spectrum Present: No
Reference Spectrum Present: No
Number of Sampled Component Spectra: 1
Spectrometers: USB2+H05261
Integration Time (usec): 100000 (USB2+H05261)
Spectra Averaged: 1 (USB2+H05261)
Boxcar Smoothing: 0 (USB2+H05261)
Correct for Electrical Dark: No (USB2+H05261)
Strobe/Lamp Enabled: No (USB2+H05261)
Correct for Detector Non-linearity: No (USB2+H05261)
Correct for Stray Light: No (USB2+H05261)
Number of Pixels in Processed Spectrum: 2048
>>>>>Begin Processed Spectral Data<<<<<
365.73	341.72
365.92	341.72
366.12	341.72
366.32	217.67
366.52	170.86
366.72	208.31
366.91	170.86
367.11	112.35
367.31	173.20
367.51	131.07
367.70	117.03
367.90	280.86
368.10	182.56
368.30	140.43
368.49	168.52
368.69	152.13
368.89	194.26
369.09	182.56
369.28	220.01
369.48	180.22
369.68	208.31
369.87	210.65
370.07	252.78
370.27	259.80
370.47	327.68
370.66	447.04
370.86	461.09
371.06	526.62
371.25	573.43
371.45	610.88
371.65	533.64
371.84	561.73
372.04	524.28
372.24	606.20
372.44	671.73
372.63	589.82
372.83	566.41
373.03	615.56
373.22	704.50
373.42	627.26
373.62	624.92
373.81	634.29
374.01	615.56
374.21	589.82
374.40	695.14
374.60	592.16
374.79	620.24
374.99	645.99
375.19	608.54
375.38	650.67
375.58	711.52
375.78	685.78
375.97	758.33
376.17	748.97
376.37	645.99
376.56	664.71
376.76	613.22
376.95	645.99
377.15	638.97
377.35	664.71
377.54	667.05
377.74	648.33
377.93	692.80
378.13	688.12
378.33	716.20
378.52	692.80
378.72	645.99
378.91	667.05
379.11	732.59
379.31	645.99
379.50	758.33
379.70	753.65
379.89	763.01
380.09	671.73
380.28	681.10
380.48	688.12
380.68	669.39
380.87	734.93
381.07	713.86
381.26	727.91
381.46	746.63
381.65	814.51
381.85	755.99
382.04	746.63
382.24	772.38
382.43	760.67
382.63	737.27
382.83	793.44
383.02	809.83
383.22	793.44
383.41	730.25
383.61	844.93
383.80	821.53
384.00	770.04
384.19	781.74
384.39	746.63
384.58	753.65
384.78	763.01
384.97	833.23
385.17	772.38
385.36	807.48
385.56	777.06
385.75	819.19
385.95	828.55
386.14	842.59
386.34	891.74
386.53	894.08
386.72	800.46
386.92	882.38
387.11	823.87
387.31	835.57
387.50	903.45
387.70	858.98
387.89	784.08
388.09	802.80
388.28	894.08
388.48	858.98
388.67	863.66
388.86	849.61
389.06	882.38
389.25	898.77
389.45	875.36
389.64	912.81
389.84	905.79
390.03	858.98
390.22	903.45
390.42	903.45
390.61	952.60
390.81	971.32
391.00	898.77
391.19	1032.18
391.39	983.02
391.58	952.60
391.78	966.64
391.97	1069.62
392.16	929.19
392.36	1006.43
392.55	968.98
392.75	1039.20
392.94	1008.77
393.13	1008.77
393.33	957.28
393.52	968.98
393.71	1181.97
393.91	1078.99
394.10	1060.26
394.29	990.05
394.49	1100.05
394.68	1111.75
394.88	1128.14
395.07	1139.84
395.26	1083.67
395.46	1036.86
395.65	1088.35
395.84	1088.35
396.04	1132.82
396.23	1214.74
396.42	1130.48
396.62	1137.50
396.81	1191.33
397.00	1191.33
397.19	1242.82
397.39	1200.69
397.58	1240.48
397.77	1219.42
397.97	1238.14
398.16	1177.29
398.35	1160.91
398.55	1228.78
398.74	1324.74
398.93	1320.06
399.12	1179.63
399.32	1226.44
399.51	1275.59
399.70	1266.23
399.90	1336.45
400.09	1401.98
400.28	1310.70
400.47	1289.64
400.67	1376.24
400.86	1334.11
401.05	1373.89
401.24	1418.36
401.44	1317.72
401.63	1359.85
401.82	1341.13
402.01	1378.58
402.21	1390.28
402.40	1444.11
402.59	1507.30
402.78	1483.90
402.97	1458.15
403.17	1434.75
403.36	1451.13
403.55	1514.33
403.74	1528.37
403.93	1507.30
404.13	1488.58
404.32	1542.41
404.51	1589.22
404.70	1577.52
404.89	1486.24
405.09	1614.97
405.28	1582.20
405.47	1617.31
405.66	1547.09
405.85	1603.27
406.05	1650.08
406.24	1659.44
406.43	1516.67
406.62	1645.40
406.81	1682.85
407.00	1774.13
407.20	1741.36
407.39	1736.68
407.58	1734.34
407.77	1722.63
407.96	1797.53
408.15	1809.23
408.34	1748.38
408.54	1760.08
408.73	1743.70
408.92	1905.20
409.11	1944.99
409.30	1844.34
409.49	1849.02
409.68	1926.26
409.87	1884.13
410.07	1940.30
410.26	1949.67
410.45	1994.14
410.64	2078.40
410.83	2071.37
411.02	2108.82
411.21	2052.65
411.40	2031.58
411.59	2073.71
411.78	2153.29
411.98	2106.48
412.17	2078.40
412.36	2172.02
412.55	2146.27
412.74	2237.55
412.93	2258.62
413.12	2207.13
413.31	2275.00
413.50	2265.64
413.69	2258.62
413.88	2485.65
414.07	2403.73
414.26	2298.41
414.45	2359.26
414.64	2368.62
414.83	2406.07
415.02	2619.06
415.22	2558.21
415.41	2516.08
415.60	2361.60
415.79	2588.63
415.98	2530.12
416.17	2424.80
416.36	2663.53
416.55	2668.21
416.74	2612.04
416.93	2630.76
417.12	2722.04
417.31	2649.49
417.50	2658.85
417.69	2792.26
417.88	2693.96
418.07	2722.04
418.26	2796.94
418.45	2773.53
418.64	3042.70
418.83	2909.29
419.02	2906.95
419.21	2867.16
419.39	2949.08
419.58	2937.37
419.77	2869.50
419.96	3021.63
420.15	3035.67
420.34	2909.29
420.53	2949.08
420.72	3178.45
420.91	3103.55
421.10	2993.55
421.29	3157.38
421.48	3105.89
421.67	3075.46
421.86	3110.57
422.05	3199.51
422.24	3082.49
422.43	3150.36
422.61	3173.77
422.80	3318.88
422.99	3241.64
423.18	3192.49
423.37	3339.94
423.56	3248.66
423.75	3183.13
423.94	3176.11
424.13	3047.38
424.32	3005.25
424.50	3286.11
424.69	3342.28
424.88	3304.84
425.07	3344.63
425.26	3192.49
425.45	3246.32
425.64	3286.11
425.83	3183.13
426.01	3391.44
426.20	3241.64
426.39	3400.80
426.58	3201.85
426.77	3353.99
426.96	3391.44
427.15	3293.13
427.33	3358.67
427.52	3304.84
427.71	3499.10
427.90	3375.05
428.09	3478.04
428.28	3487.40
428.46	3566.98
428.65	3597.40
428.84	3522.51
429.03	3559.95
429.22	3599.74
429.40	3648.90
429.59	3599.74
429.78	3419.52
429.97	3370.37
430.16	3674.64
430.34	3721.45
430.53	3733.15
430.72	3698.05
430.91	3616.13
431.10	3578.68
431.28	3831.46
431.47	3803.37
431.66	3756.56
431.85	3702.73
432.03	3854.86
432.22	3852.52
432.41	3808.05
432.60	3831.46
432.79	4065.51
432.97	3913.38
433.16	3808.05
433.35	3861.88
433.54	3999.98
433.72	3962.53
433.91	3887.63
434.10	4107.64
434.28	4004.66
434.47	3999.98
434.66	4014.02
434.85	4072.53
435.03	4248.07
435.22	4060.83
435.41	4238.71
435.59	4044.45
435.78	4088.92
435.97	4231.69
436.16	4187.22
436.34	4145.09
436.53	4248.07
436.72	4294.88
436.90	4070.19
437.09	4187.22
437.28	4072.53
437.46	4234.03
437.65	4210.62
437.84	4290.20
438.02	4292.54
438.21	4414.25
438.40	4402.55
438.58	4477.44
438.77	4545.32
438.96	4376.80
439.14	4587.45
439.33	4528.94
439.52	4709.16
439.70	4678.73
439.89	4788.74
440.08	4725.54
440.26	4669.37
440.45	4510.21
440.63	4819.16
440.82	5025.13
441.01	4809.80
441.19	4926.83
441.38	4929.17
441.57	4910.44
441.75	5107.05
441.94	5121.09
442.12	4997.04
442.31	4968.96
442.50	5212.37
442.68	5130.45
442.87	5214.71
443.05	5188.97
443.24	5303.65
443.43	5135.14
443.61	5366.85
443.80	5270.89
443.98	5231.10
444.17	4945.55
444.35	5146.84
444.54	5263.86
444.73	5336.42
444.91	5254.50
445.10	5217.05
445.28	5425.36
445.47	5380.89
445.65	5308.34
445.84	5282.59
446.02	5483.88
446.21	5282.59
446.39	5313.02
446.58	5334.08
446.77	5259.18
446.95	5348.12
447.14	5570.48
447.32	5460.47
447.51	5479.19
447.69	5472.17
447.88	5514.30
448.06	5514.30
448.25	5467.49
448.43	5521.32
448.62	5406.64
448.80	5462.81
448.99	5612.60
449.17	5750.70
449.36	5631.33
449.54	5694.52
449.73	5612.60
449.91	5762.40
450.10	5818.57
450.28	5930.92
450.46	5790.49
450.65	5863.04
450.83	5717.93
451.02	5610.26
451.20	5830.27
451.39	5912.19
451.57	5685.16
451.76	5706.23
451.94	5975.39
452.13	5928.58
452.31	5851.34
452.49	5687.50
452.68	6008.16
452.86	5947.30
453.05	6094.76
453.23	6071.35
453.42	5989.43
453.60	6118.16
453.78	6129.86
453.97	5975.39
454.15	6078.37
454.34	6059.65
454.52	6094.76
454.70	6293.70
454.89	6232.85
455.07	6256.25
455.26	6256.25
455.44	6307.74
455.62	6345.19
455.81	6289.02
455.99	6183.70
456.17	6377.96
456.36	6434.13
456.54	6436.47
456.73	6492.65
456.91	6700.95
457.09	6703.29
457.28	6750.10
457.46	6434.13
457.64	6672.87
457.83	6633.08
458.01	6707.98
458.19	6822.66
458.38	6628.40
458.56	6700.95
458.74	6773.51
458.93	6946.71
459.11	6761.81
459.29	6712.66
459.48	6913.94
459.66	6885.86
459.84	6829.68
460.03	7023.95
460.21	6937.35
460.39	7007.56
460.57	6918.62
460.76	6904.58
460.94	7119.91
461.12	7096.50
461.31	6998.20
461.49	7002.88
461.67	7185.44
461.85	7110.55
462.04	7180.76
462.22	7358.64
462.40	7363.33
462.59	7328.22
462.77	7358.64
462.95	7503.76
463.13	7325.88
463.32	7438.22
463.50	7454.61
463.68	7300.13
463.86	7400.77
464.05	7545.89
464.23	7283.75
464.41	7545.89
464.59	7368.01
464.78	7609.08
464.96	7386.73
465.14	7424.18
465.32	7557.59
465.50	7662.91
465.69	7744.83
465.87	7756.54
466.05	7836.11
466.23	7693.34
466.41	7793.98
466.60	7735.47
466.78	7578.65
466.96	7838.45
467.14	7885.26
467.32	7679.30
467.51	7903.99
467.69	7672.28
467.87	7878.24
468.05	7885.26
468.23	7852.50
468.41	8049.10
468.60	8006.97
468.78	8013.99
468.96	8060.80
469.14	8035.06
469.32	8098.25
469.50	8114.64
469.69	8189.53
469.87	8255.07
470.05	8390.82
470.23	8177.83
470.41	8243.37
470.59	8351.03
470.77	8259.75
470.95	8198.90
471.14	8423.59
471.32	8229.32
471.50	8547.64
471.68	8629.56
471.86	8554.66
472.04	8507.85
472.22	8664.66
472.40	8360.39
472.58	8648.28
472.77	8674.03
472.95	8938.51
473.13	9048.51
473.31	8964.25
473.49	8964.25
473.67	8985.32
473.85	8840.20
474.03	9275.54
474.21	9172.56
474.39	9324.69
474.57	9437.04
474.75	9149.15
474.93	9401.93
475.12	9242.78
475.30	9228.73
475.48	9451.08
475.66	9411.29
475.84	9525.98
476.02	9652.37
476.20	9397.25
476.38	9879.40
476.56	9980.04
476.74	10073.67
476.92	9970.68
477.10	9942.60
477.28	10036.22
477.46	10026.86
477.64	10207.08
477.82	10211.76
478.00	10389.64
478.18	10328.78
478.36	10380.28
478.54	10740.72
478.72	10621.35
478.90	10729.02
479.08	10864.77
479.26	10949.03
479.44	10909.24
479.62	11033.29
479.80	11101.16
479.98	11337.56
480.16	11363.30
480.34	11211.17
480.52	11632.46
480.70	11407.77
480.88	11274.36
481.06	11707.36
481.24	11641.82
481.41	11693.32
481.59	12060.78
481.77	11974.18
481.95	12180.15
482.13	11971.84
482.31	12131.00
482.49	12294.83
482.67	12496.12
482.85	12678.68
483.03	12748.90
483.21	12727.83
483.39	13163.17
483.57	12861.24
483.74	13039.12
483.92	13004.02
484.10	12898.69
484.28	13511.91
484.46	13729.58
484.64	13916.83
484.82	13755.33
485.00	13666.39
485.18	14083.00
485.35	14202.37
485.53	14029.17
485.71	14019.81
485.89	14382.59
486.07	14169.60
486.25	14532.39
486.43	14441.11
486.61	14684.52
486.78	14677.50
486.96	14717.29
487.14	15145.61
487.32	15307.10
487.50	15274.34
487.68	15857.13
487.85	15559.88
488.03	15641.80
488.21	15988.20
488.39	15967.13
488.57	16011.60
488.75	16238.64
488.92	16020.97
489.10	16657.59
489.28	16283.11
489.46	16561.63
489.64	16783.98
489.81	17015.69
489.99	17163.15
490.17	16872.92
490.35	17069.53
490.53	17444.01
490.70	17610.19
490.88	17558.70
491.06	17869.99
491.24	17891.06
491.41	17710.83
491.59	18244.48
491.77	18265.54
491.95	18417.68
492.13	18218.73
492.30	18576.83
492.48	18445.76
492.66	18633.00
492.84	18876.42
493.01	18956.00
493.19	18822.59
493.37	19007.49
493.54	18743.01
493.72	19384.32
493.90	19274.31
494.08	19491.98
494.25	19559.86
494.43	19901.58
494.61	19957.75
494.79	20042.01
494.96	19873.49
495.14	20175.42
495.32	20287.76
495.49	20374.36
495.67	20697.36
495.85	20678.63
496.02	20755.87
496.20	20968.86
496.38	21221.64
496.55	20985.24
496.73	21612.51
496.91	21207.59
497.09	21446.33
497.26	21411.22
497.44	21376.11
497.62	21495.48
497.79	21830.18
497.97	21820.81
498.14	22143.81
498.32	22209.34
498.50	22284.24
498.67	22501.91
498.85	22267.86
499.03	22607.23
499.20	22714.90
499.38	22944.27
499.56	22855.33
499.73	22970.02
499.91	23103.43
500.08	23080.02
500.26	22965.34
500.44	23522.38
500.61	23290.67
500.79	23049.60
500.97	23718.99
501.14	23817.29
501.32	23730.69
501.49	23728.35
501.67	23782.18
501.84	24063.05
502.02	24212.84
502.20	24142.63
502.37	24006.87
502.55	24086.45
502.72	24170.71
502.90	24393.06
503.07	24297.10
503.25	24505.41
503.43	24741.80
503.60	24573.28
503.78	24573.28
503.95	24680.95
504.13	24882.24
504.30	25198.21
504.48	25032.03
504.65	25275.45
504.83	25598.44
505.01	25539.93
505.18	25460.35
505.36	25785.68
505.53	25340.98
505.71	25596.10
505.88	25582.06
506.06	25282.47
506.23	26045.48
506.41	25954.20
506.58	26263.15
506.76	25865.26
506.93	26225.70
507.11	26473.80
507.28	26136.76
507.46	26574.44
507.63	26314.64
507.81	26609.55
507.98	26429.33
508.16	26810.84
508.33	27112.77
508.50	26773.39
508.68	26946.59
508.85	27175.96
509.03	26965.31
509.20	27374.91
509.38	27812.59
509.55	27653.43
509.73	27709.60
509.90	27723.65
510.08	27527.04
510.25	27655.77
510.42	28067.70
510.60	27999.83
510.77	27838.33
510.95	28123.88
511.12	28210.48
511.30	27922.59
511.47	28121.54
511.64	28416.44
511.82	28484.32
511.99	28170.69
512.17	28519.43
512.34	28517.09
512.51	29064.77
512.69	28535.81
512.86	29036.69
513.04	28877.53
513.21	28765.18
513.38	29132.65
513.56	29261.38
513.73	29273.08
513.90	29050.73
514.08	29151.37
514.25	29528.20
514.43	29905.02
514.60	29996.31
514.77	29792.68
514.95	29839.49
515.12	29535.22
515.29	29692.04
515.47	30073.54
515.64	30438.67
515.81	29670.97
515.99	30115.67
516.16	30511.22
516.33	30567.40
516.51	30508.88
516.68	30171.85
516.85	30462.07
517.03	30658.68
517.20	30607.19
517.37	30735.92
517.54	30838.90
517.72	30824.86
517.89	30644.63
518.06	31075.29
518.24	31012.10
518.41	31002.74
518.58	31140.83
518.75	30820.17
518.93	31580.85
519.10	31171.25
519.27	31409.99
519.45	31353.82
519.62	31770.43
519.79	31566.81
519.96	31501.27
520.14	31835.97
520.31	31512.97
520.48	31957.67
520.65	32077.04
520.83	32280.67
521.00	32088.74
521.17	32114.49
521.34	32046.62
521.52	32313.44
521.69	32402.38
521.86	32491.32
522.03	32739.41
522.20	33071.77
522.38	32858.78
522.55	32811.97
522.72	32388.33
522.89	33022.62
523.07	33188.80
523.24	32865.80
523.41	33383.06
523.58	32865.80
523.75	33167.73
523.92	32978.15
524.10	32903.25
524.27	33256.67
524.44	33350.29
524.61	33357.32
524.78	33385.40
524.96	33682.65
525.13	33549.24
525.30	33565.62
525.47	34328.64
525.64	34146.08
525.81	34010.32
525.98	34455.03
526.16	33937.77
526.33	34232.68
526.50	34253.74
526.67	33804.36
526.84	34143.74
527.01	34326.30
527.18	34312.25
527.36	34384.81
527.53	34775.68
527.70	34909.09
527.87	34628.23
528.04	34293.53
528.21	34469.07
528.38	34756.96
528.55	34972.28
528.72	35000.37
528.89	34768.66
529.07	34672.70
529.24	34815.47
529.41	35260.17
529.58	34976.97
529.75	35042.50
529.92	35196.98
530.09	35449.75
530.26	35517.63
530.43	35477.84
530.60	35384.22
530.77	34850.58
530.94	35608.91
531.11	35248.47
531.28	35566.78
531.46	35496.56
531.63	35676.79
531.80	35555.08
531.97	36044.25
532.14	35924.88
532.31	36009.14
532.48	35899.14
532.65	36327.45
532.82	36201.07
532.99	36236.17
533.16	36285.33
533.33	36226.81
533.50	36453.84
533.67	36484.27
533.84	36215.11
534.01	36467.89
534.18	36360.22
534.35	37053.02
534.52	36540.44
534.69	36914.93
534.86	36765.14
535.03	36631.72
535.20	36533.42
535.37	36917.27
535.54	36917.27
535.71	37020.25
535.88	37195.79
536.05	37652.20
536.22	37558.58
536.38	37291.76
536.55	37614.75
536.72	37158.34
536.89	37422.83
537.06	36828.33
537.23	37619.43
537.40	37181.75
537.57	37219.20
537.74	37577.30
537.91	37846.46
538.08	37415.80
538.25	37581.98
538.42	37673.26
538.59	37727.10
538.75	38134.35
538.92	38274.78
539.09	38216.27
539.26	37888.59
539.43	37900.29
539.60	37982.21
539.77	38167.12
539.94	38335.63
540.11	38349.68
540.28	38497.13
540.44	37968.17
540.61	38586.07
540.78	38597.77
540.95	38391.81
541.12	38471.39
541.29	37916.68
541.46	38309.89
541.62	38139.03
541.79	38754.59
541.96	38583.73
542.13	38583.73
542.30	38815.44
542.47	38794.38
542.63	38932.47
542.80	39414.62
542.97	39140.78
543.14	39784.43
543.31	39220.36
543.48	39580.80
543.64	39601.86
543.81	39487.18
543.98	39562.08
544.15	39384.19
544.32	39496.54
544.48	40002.10
544.65	39531.65
544.82	40093.38
544.99	39208.65
545.16	39620.59
545.32	39697.83
545.49	39950.60
545.66	40165.93
545.83	39983.37
546.00	40343.81
546.16	40158.91
546.33	39566.76
546.50	39871.03
546.67	40076.99
546.83	39695.49
547.00	39665.06
547.17	40163.59
547.34	40126.14
547.50	40392.97
547.67	40898.52
547.84	40376.58
548.00	40449.14
548.17	40519.35
548.34	40486.59
548.51	40399.99
548.67	40512.33
548.84	40624.68
549.01	40730.00
549.18	40409.35
549.34	40924.27
549.51	40486.59
549.68	40631.70
549.84	40938.31
550.01	40804.90
550.18	40575.53
550.34	40577.87
550.51	41067.04
550.68	41003.85
550.84	40687.87
551.01	41045.97
551.18	41069.38
551.34	41198.11
551.51	41406.42
551.68	40917.25
551.84	41179.39
552.01	40816.60
552.18	41317.48
552.34	41036.61
552.51	41174.70
552.68	41258.96
552.84	41518.76
553.01	41090.44
553.18	41790.27
553.34	41397.06
553.51	41137.26
553.67	41607.70
553.84	41535.15
554.01	41706.01
554.17	41635.79
554.34	41916.65
554.51	41514.08
554.67	41935.38
554.84	41659.20
555.00	41493.02
555.17	42239.65
555.33	41977.51
555.50	42232.63
555.67	42223.26
555.83	42368.38
556.00	42429.23
556.16	42473.70
556.33	42450.30
556.50	42038.36
556.66	42316.89
556.83	41752.82
556.99	42532.22
557.16	42639.88
557.32	42747.54
557.49	42691.37
557.65	42487.74
557.82	42616.47
557.98	42412.85
558.15	42223.26
558.32	42445.62
558.48	42136.66
558.65	42134.32
558.81	42813.08
558.98	42635.20
559.14	42965.21
559.31	42728.82
559.47	42644.56
559.64	42576.69
559.80	42698.39
559.97	42380.08
560.13	42131.98
560.30	42590.73
560.46	43325.66
560.63	43098.62
560.79	43103.31
560.96	43388.85
561.12	43342.04
561.29	43145.44
561.45	43267.14
561.61	42995.64
561.78	43145.44
561.94	43131.39
562.11	43100.97
562.27	42766.27
562.44	42766.27
562.60	43145.44
562.77	43430.98
562.93	42850.53
563.10	43456.73
563.26	43194.59
563.42	43908.45
563.59	42916.06
563.75	43042.45
563.92	43208.63
564.08	43241.40
564.24	43580.78
564.41	43409.92
564.57	43587.80
564.74	43262.46
564.90	43028.41
565.07	43323.32
565.23	43306.93
565.39	42988.62
565.56	43416.94
565.72	43140.75
565.88	43592.48
566.05	43433.32
566.21	43559.71
566.38	43229.69
566.54	43852.28
566.70	43372.47
566.87	43868.66
567.03	43164.16
567.19	43791.42
567.36	43484.81
567.52	43887.39
567.68	43744.61
567.85	43826.53
568.01	44184.63
568.17	43491.83
568.34	43828.87
568.50	43964.62
568.66	43686.10
568.83	43915.47
568.99	43669.72
569.15	43456.73
569.32	43573.75
569.48	43578.43
569.64	44217.40
569.81	43716.53
569.97	44367.20
570.13	43887.39
570.30	43173.52
570.46	44018.46
570.62	43978.67
570.78	43810.15
570.95	43594.82
571.11	44074.63
571.27	43725.89
571.43	44030.16
571.60	43966.96
571.76	43798.44
571.92	43854.62
572.09	44154.21
572.25	44041.86
572.41	43639.29
572.57	44189.31
572.74	44292.30
572.90	44186.97
573.06	43819.51
573.22	44210.38
573.38	44395.28
573.55	44257.19
573.71	44765.09
573.87	44327.41
574.03	43892.07
574.20	43819.51
574.36	43863.98
574.52	44568.48
574.68	44289.96
574.84	44428.05
575.01	44758.06
575.17	44542.74
575.33	44460.82
575.49	43915.47
575.65	44671.46
575.82	44336.77
575.98	44105.06
576.14	44591.89
576.30	45029.57
576.46	44439.75
576.62	44140.16
576.79	44453.79
576.95	44308.68
577.11	44142.50
577.27	44535.71
577.43	44229.10
577.59	44292.30
577.75	44385.92
577.92	44030.16
578.08	44385.92
578.24	44442.09
578.40	44186.97
578.56	44271.23
578.72	44156.55
578.88	44584.86
579.04	44622.31
579.21	44032.50
579.37	44198.68
579.53	44519.33
579.69	44729.98
579.85	44189.31
580.01	43999.73
580.17	44603.59
580.33	44451.45
580.49	44676.15
580.65	44662.10
580.82	44495.92
580.98	44594.23
581.14	44322.72
581.30	44641.04
581.46	44072.29
581.62	44222.08
581.78	44423.37
581.94	44795.51
582.10	44404.64
582.26	44655.08
582.42	44729.98
582.58	44608.27
582.74	44198.68
582.90	44568.48
583.06	44746.36
583.22	44189.31
583.38	44493.58
583.54	44430.39
583.70	44573.16
583.86	44481.88
584.02	44086.33
584.18	44671.46
584.34	45106.80
584.50	44851.69
584.66	44739.34
584.82	44975.73
584.98	45186.38
585.14	44964.03
585.30	44449.11
585.46	44898.50
585.62	44280.60
585.78	44605.93
585.94	44292.30
586.10	44678.49
586.26	44673.81
586.42	44509.97
586.58	44502.95
586.74	44416.35
586.90	44493.58
587.06	44119.10
587.22	44669.12
587.38	44154.21
587.54	44957.01
587.70	44650.40
587.86	44987.44
588.02	44659.76
588.18	44692.53
588.34	44886.79
588.49	44830.62
588.65	44423.37
588.81	44549.76
588.97	44790.83
589.13	44491.24
589.29	44989.78
589.45	44996.80
589.61	45118.51
589.77	45221.49
589.93	44758.06
590.08	44851.69
590.24	44987.44
590.40	45399.37
590.56	45343.20
590.72	45284.68
590.88	44903.18
591.04	44683.17
591.20	44994.46
591.35	45539.80
591.51	45441.50
591.67	45177.02
591.83	45387.67
591.99	45034.25
592.15	45057.65
592.31	45097.44
592.46	44746.36
592.62	44964.03
592.78	45317.45
592.94	45202.77
593.10	45518.74
593.26	45310.43
593.41	45179.36
593.57	45322.13
593.73	45429.80
593.89	45441.50
594.05	45715.34
594.20	45392.35
594.36	45516.40
594.52	45518.74
594.68	45167.66
594.84	45298.73
594.99	45535.12
595.15	45251.92
595.31	45303.41
595.47	45500.01
595.62	45322.13
595.78	45542.14
595.94	45202.77
596.10	45595.98
596.25	45132.55
596.41	45684.92
596.57	45291.71
596.73	45649.81
596.88	45612.36
597.04	45230.85
597.20	45305.75
597.36	45275.32
597.51	45446.18
597.67	45270.64
597.83	45186.38
597.99	45771.52
598.14	45411.07
598.30	45586.61
598.46	45361.92
598.61	45778.54
598.77	45254.26
598.93	45612.36
599.09	45488.31
599.24	45830.03
599.40	45577.25
599.56	45488.31
599.71	45652.15
599.87	46178.77
600.03	45310.43
600.18	45434.48
600.34	45067.02
600.50	45696.62
600.65	45345.54
600.81	45710.66
600.97	45521.08
601.12	45570.23
601.28	45560.87
601.44	45603.00
601.59	45427.46
601.75	45516.40
601.91	45633.42
602.06	45558.53
602.22	45708.32
602.37	45455.54
602.53	45579.59
602.69	45572.57
602.84	45434.48
603.00	45408.73
603.16	45769.18
603.31	45588.95
603.47	45546.82
603.62	45834.71
603.78	45972.80
603.94	45617.04
604.09	45776.20
604.25	45560.87
604.40	45544.48
604.56	45654.49
604.71	45991.53
604.87	45457.88
605.03	45523.42
605.18	45364.26
605.34	45705.98
605.49	45113.83
605.65	45511.72
605.80	45542.14
605.96	45198.09
606.12	45296.39
606.27	45504.70
606.43	45174.68
606.58	45797.26
606.74	45490.65
606.89	45233.19
607.05	45303.41
607.20	45530.44
607.36	45640.45
607.51	45277.66
607.67	45184.04
607.82	45263.62
607.98	45350.22
608.13	45001.48
608.29	45563.21
608.44	45453.20
608.60	45151.27
608.75	45408.73
608.91	45427.46
609.06	44961.69
609.22	45963.44
609.37	45254.26
609.53	45427.46
609.68	45488.31
609.84	44755.72
609.99	45284.68
610.15	45010.84
610.30	45291.71
610.46	45059.99
610.61	44980.42
610.76	45329.16
610.92	44617.63
611.07	45029.57
611.23	44865.73
611.38	44912.54
611.54	45272.98
611.69	44882.11
611.84	45141.91
612.00	45043.61
612.15	44926.58
612.31	45102.12
612.46	44863.39
612.62	44755.72
612.77	45078.72
612.92	45443.84
613.08	44708.91
613.23	45132.55
613.39	45099.78
613.54	44858.71
613.69	44868.07
613.85	44772.11
614.00	45123.19
614.15	44655.08
614.31	44186.97
614.46	44711.25
614.62	44664.44
614.77	44921.90
614.92	44854.03
615.08	44659.76
615.23	44825.94
615.38	44980.42
615.54	44877.43
615.69	44905.52
615.84	44406.98
616.00	45081.06
616.15	44896.16
616.30	44903.18
616.46	44418.69
616.61	44395.28
616.76	44645.72
616.92	44329.75
617.07	44713.59
617.22	44397.62
617.37	44109.74
617.53	44601.25
617.68	44414.01
617.83	44755.72
617.99	44587.21
618.14	44713.59
618.29	44907.86
618.45	43913.13
618.60	44460.82
618.75	43831.21
618.90	44304.00
619.06	43950.58
619.21	44289.96
619.36	44722.96
619.51	44016.11
619.67	44278.25
619.82	44170.59
619.97	44486.56
620.12	44292.30
620.28	44112.08
620.43	44217.40
620.58	44465.50
620.73	44563.80
620.89	44500.61
621.04	44196.34
621.19	44252.51
621.34	44250.17
621.49	43632.27
621.65	43945.90
621.80	44472.52
621.95	43941.22
622.10	43845.26
622.25	43906.11
622.41	43885.04
622.56	44224.42
622.71	43828.87
622.86	44121.44
623.01	44212.72
623.16	43597.16
623.32	43714.19
623.47	43594.82
623.62	43283.53
623.77	44048.88
623.92	43758.66
624.07	43739.93
624.23	44065.27
624.38	43540.99
624.53	43723.55
624.68	43915.47
624.83	43072.88
624.98	43796.10
625.13	43072.88
625.29	43077.56
625.44	43484.81
625.59	42960.53
625.74	43253.10
625.89	43082.24
626.04	43278.85
626.19	43386.51
626.34	43339.70
626.49	43203.95
626.65	43096.28
626.80	43023.73
626.95	43192.25
627.10	42878.61
627.25	43079.90
627.40	42904.36
627.55	43229.69
627.70	43117.35
627.85	42927.77
628.00	42995.64
628.15	42529.87
628.30	42815.42
628.45	42253.69
628.60	42693.71
628.76	42436.25
628.91	42653.92
629.06	42604.77
629.21	42609.45
629.36	42862.23
629.51	42653.92
629.66	43152.46
629.81	42829.46
629.96	42799.04
630.11	42433.91
630.26	42808.40
630.41	42487.74
630.56	42953.51
630.71	42319.23
630.86	42520.51
631.01	42134.32
631.16	42300.50
631.31	42433.91
631.46	42457.32
631.61	42389.44
631.76	42658.60
631.91	42609.45
632.06	42644.56
632.21	42689.03
632.36	42351.99
632.51	41991.55
632.66	42581.37
632.81	42213.90
632.96	42649.24
633.10	42024.32
633.25	42052.41
633.40	42457.32
633.55	42284.12
633.70	42176.45
633.85	41848.78
634.00	41895.59
634.15	41633.45
634.30	41895.59
634.45	41951.76
634.60	41574.94
634.75	42096.88
634.90	41970.49
635.05	42499.45
635.19	41617.07
635.34	42202.20
635.49	41944.74
635.64	41837.08
635.79	42064.11
635.94	41591.32
636.09	42237.31
636.24	41944.74
636.39	41471.95
636.53	41443.87
636.68	41675.58
636.83	41572.60
636.98	40957.03
637.13	40879.80
637.28	41588.98
637.43	41493.02
637.57	41457.91
637.72	41104.49
637.87	41448.55
638.02	41467.27
638.17	41200.45
638.32	40765.11
638.46	40987.46
638.61	40987.46
638.76	41453.23
638.91	41202.79
639.06	40828.30
639.20	40746.39
639.35	40765.11
639.50	40741.71
639.65	41148.96
639.80	41406.42
639.94	41104.49
640.09	40917.25
640.24	41294.07
640.39	40753.41
640.54	40374.24
640.68	40872.78
640.83	41296.41
640.98	40765.11
641.13	40542.76
641.27	40875.12
641.42	40921.93
641.57	40708.94
641.72	40690.21
641.86	40921.93
642.01	40477.22
642.16	40816.60
642.31	40079.33
642.45	40416.37
642.60	40823.62
642.75	40076.99
642.90	40856.39
643.04	40519.35
643.19	40622.34
643.34	40566.16
643.48	40121.46
643.63	40891.50
643.78	40802.56
643.93	40577.87
644.07	40706.60
644.22	40809.58
644.37	39920.18
644.51	40421.05
644.66	40292.32
644.81	40224.45
644.95	40322.75
645.10	40196.36
645.25	40222.11
645.39	39744.64
645.54	40243.17
645.69	40095.72
645.83	39545.69
645.98	39978.69
646.13	39618.25
646.27	39594.84
646.42	39700.17
646.57	39833.58
646.71	39955.29
646.86	40037.20
647.00	40126.14
647.15	39672.08
647.30	40065.29
647.44	39693.15
647.59	39442.71
647.74	39662.72
647.88	40027.84
648.03	40399.99
648.17	39763.36
648.32	39920.18
648.47	40088.70
648.61	39571.44
648.76	39782.09
648.90	39431.01
649.05	39901.45
649.20	39796.13
649.34	39721.23
649.49	39758.68
649.63	39665.06
649.78	39744.64
649.92	39765.70
650.07	39646.33
650.21	39866.34
650.36	39489.52
650.51	39210.99
650.65	39690.80
650.80	39409.94
650.94	39618.25
651.09	39597.18
651.23	39218.02
651.38	39372.49
651.52	39438.03
651.67	39143.12
651.81	39346.75
651.96	39234.40
652.10	38946.51
652.25	38637.56
652.39	39133.76
652.54	39021.41
652.68	39292.91
652.83	39288.23
652.97	39021.41
653.12	38969.92
653.26	38834.17
653.41	38960.56
653.55	39276.53
653.70	38595.43
653.84	39049.50
653.99	38873.96
654.13	38787.36
654.27	38237.33
654.42	38981.62
654.56	38490.11
654.71	38707.78
654.85	38859.91
655.00	38649.27
655.14	38883.32
655.29	38581.39
655.43	38873.96
655.57	38422.23
655.72	38476.07
655.86	38597.77
656.01	38384.79
656.15	38728.84
656.30	38146.05
656.44	38714.80
656.58	38359.04
656.73	38368.40
656.87	37930.72
657.01	37935.40
657.16	38253.72
657.30	38349.68
657.45	38171.80
657.59	38597.77
657.73	37626.45
657.88	38242.01
658.02	38040.73
658.16	38148.39
658.31	38260.74
658.45	38288.82
658.60	37787.95
658.74	37963.49
658.88	38473.73
659.03	37701.35
659.17	37479.00
659.31	37691.99
659.46	37724.75
659.60	37846.46
659.74	37731.78
659.89	37504.74
660.03	37476.66
660.17	37366.65
660.32	37380.70
660.46	37263.67
660.60	37038.98
660.74	37371.33
660.89	37303.46
661.03	36921.95
661.17	36886.84
661.32	36732.37
661.46	37418.14
661.60	37123.24
661.74	36987.49
661.89	36779.18
662.03	37116.22
662.17	36488.95
662.31	36739.39
662.46	36617.68
662.60	36591.94
662.74	36566.19
662.88	36322.77
663.03	36189.36
663.17	36212.77
663.31	36205.75
663.45	36397.67
663.60	36568.53
663.74	36680.88
663.88	36226.81
664.02	36250.22
664.17	36346.18
664.31	36250.22
664.45	35786.79
664.59	36133.19
664.73	36009.14
664.88	35857.01
665.02	35424.01
665.16	35840.62
665.30	35885.09
665.44	35934.24
665.59	35564.44
665.73	35468.48
665.87	35290.60
666.01	35929.56
666.15	36070.00
666.29	35257.83
666.44	35400.60
666.58	35297.62
666.72	35178.25
666.86	35384.22
667.00	34920.79
667.14	34946.54
667.28	35016.75
667.43	35002.71
667.57	35185.27
667.71	35089.31
667.85	35218.04
667.99	35269.53
668.13	34543.97
668.27	34520.56
668.41	34384.81
668.56	34242.04
668.70	33713.08
668.84	34581.42
668.98	33949.47
669.12	34569.71
669.26	34043.09
669.40	34155.44
669.54	34462.05
669.68	34237.36
669.82	34106.29
669.96	33635.84
670.10	33715.42
670.25	33792.65
670.39	33734.14
670.53	34218.63
670.67	33525.83
670.81	33771.59
670.95	33809.04
671.09	33631.16
671.23	33390.08
671.37	33771.59
671.51	33750.52
671.65	32781.54
671.79	33287.10
671.93	33263.69
672.07	33305.82
672.21	33287.10
672.35	33015.60
672.49	32781.54
672.63	33097.52
672.77	32439.82
672.91	32767.50
673.05	32596.64
673.19	32514.72
673.33	32367.27
673.47	32343.86
673.61	32030.23
673.75	32261.94
673.89	32027.89
674.03	31732.98
674.17	31655.75
674.31	31611.28
674.45	31548.08
674.59	31690.85
674.73	31445.10
674.87	31049.55
675.01	31571.49
675.15	31426.37
675.29	31152.53
675.43	31285.94
675.56	31288.28
675.70	31175.94
675.84	30843.58
675.98	30263.13
676.12	30925.50
676.26	30902.09
676.40	30459.73
676.54	30349.73
676.68	30567.40
676.82	30246.74
676.96	30167.16
677.10	30125.04
677.23	30206.95
677.37	30050.14
677.51	30473.78
677.65	29806.72
677.79	29984.60
677.93	29572.67
678.07	29818.42
678.21	29436.92
678.34	29310.53
678.48	29268.40
678.62	29127.97
678.76	29324.57
678.90	29111.58
679.04	29230.95
679.18	29095.20
679.31	28959.45
679.45	28912.64
679.59	28723.05
679.73	28407.08
679.87	28320.48
680.00	28400.06
680.14	28512.41
680.28	28266.65
680.42	27758.75
680.56	28158.99
680.70	28023.23
680.83	27566.83
680.97	27744.71
681.11	27634.71
681.25	27449.80
681.39	27351.50
681.52	27398.31
681.66	27129.15
681.80	26962.97
681.94	26654.02
682.07	26785.09
682.21	27040.21
682.35	26586.15
682.49	26581.46
682.62	26801.47
682.76	26998.08
682.90	26459.76
683.04	26548.70
683.17	26321.66
683.31	26387.20
683.45	26202.30
683.59	26080.59
683.72	25635.89
683.86	25944.84
684.00	25781.00
684.13	25502.48
684.27	25420.56
684.41	25355.02
684.55	25511.84
684.68	25291.83
684.82	25067.14
684.96	24952.45
685.09	25174.80
685.23	24797.98
685.37	25312.89
685.50	25106.93
685.64	25010.96
685.78	25008.62
685.91	24299.44
686.05	24449.24
686.19	23648.77
686.32	24156.67
686.46	23917.93
686.60	23917.93
686.73	24056.03
686.87	23800.91
687.01	23786.86
687.14	23967.09
687.28	23711.97
687.42	23585.58
687.55	23676.86
687.69	23864.10
687.82	23442.81
687.96	22977.04
688.10	23199.39
688.23	23218.11
688.37	22803.84
688.50	23103.43
688.64	23133.86
688.78	22724.26
688.91	22487.87
689.05	22611.92
689.18	22300.62
689.32	22160.19
689.46	22415.31
689.59	22651.70
689.73	22403.61
689.86	22464.46
690.00	21977.63
690.13	21937.84
690.27	21551.65
690.41	22019.76
690.54	21247.38
690.68	21628.89
690.81	21394.84
690.95	21406.54
691.08	21338.66
691.22	20863.54
691.35	20737.15
691.49	20966.52
691.62	20755.87
691.76	20554.58
691.89	20594.37
692.03	20334.57
692.16	20322.87
692.30	20446.92
692.43	20442.24
692.57	20121.59
692.70	20159.03
692.84	20252.66
692.97	19496.66
693.11	19641.78
693.24	19686.25
693.38	19807.95
693.51	19723.69
693.65	19714.33
693.78	19316.44
693.92	19250.91
694.05	19253.25
694.19	19194.73
694.32	19227.50
694.45	19396.02
694.59	19222.82
694.72	19475.60
694.86	18937.27
694.99	18771.10
695.13	18398.95
695.26	18775.78
695.39	18155.54
695.53	18410.65
695.66	18544.06
695.80	18118.09
695.93	18277.24
696.07	17949.57
696.20	17877.01
696.33	17715.51
696.47	17528.27
696.60	17523.59
696.73	17858.29
696.87	17404.22
697.00	17755.30
697.14	17422.95
697.27	17467.42
697.40	17205.28
697.54	17371.46
697.67	17212.30
697.80	17025.06
697.94	16702.06
698.07	16807.39
698.21	17025.06
698.34	16816.75
698.47	16643.55
698.61	16381.41
698.74	16636.53
698.87	16119.27
699.01	16320.56
699.14	16421.20
699.27	16140.33
699.40	16224.59
699.54	16063.10
699.67	15646.48
699.80	16149.70
699.94	15910.96
700.07	15913.30
700.20	15831.38
700.34	15566.90
700.47	15468.60
700.60	15609.03
700.73	15723.72
700.87	15625.42
701.00	15105.82
701.13	14991.13
701.26	15215.82
701.40	15030.92
701.53	14822.61
701.66	14750.06
701.79	14686.86
701.93	14558.13
702.06	14324.08
702.19	14665.80
702.32	14525.36
702.46	14398.98
702.59	14600.26
702.72	14347.48
702.85	14464.51
702.99	14347.48
703.12	13956.61
703.25	14104.07
703.38	14139.18
703.51	14038.53
703.65	13905.12
703.78	13767.03
703.91	13633.62
704.04	13664.05
704.17	13525.96
704.31	13364.46
704.44	13446.38
704.57	13350.42
704.70	13226.37
704.83	13252.11
704.96	13383.18
705.10	12905.71
705.23	12627.19
>>>>>End Processed Spectral Data<<<<<
