SpectraSuite Data File
++++++++++++++++++++++++++++++++++++
Date: Fri Oct 25 10:48:09 EDT 2013
User: price-jones
Dark Spectrum Present: No
Reference Spectrum Present: No
Number of Sampled Component Spectra: 1
Spectrometers: USB2+H05261
Integration Time (usec): 100000 (USB2+H05261)
Spectra Averaged: 1 (USB2+H05261)
Boxcar Smoothing: 0 (USB2+H05261)
Correct for Electrical Dark: No (USB2+H05261)
Strobe/Lamp Enabled: No (USB2+H05261)
Correct for Detector Non-linearity: No (USB2+H05261)
Correct for Stray Light: No (USB2+H05261)
Number of Pixels in Processed Spectrum: 2048
>>>>>Begin Processed Spectral Data<<<<<
365.73	147.45
365.92	147.45
366.12	147.45
366.32	65.54
366.52	37.45
366.72	51.49
366.91	84.26
367.11	4.68
367.31	49.15
367.51	18.72
367.70	51.49
367.90	53.83
368.10	88.94
368.30	81.92
368.49	44.47
368.69	25.75
368.89	39.79
369.09	2.34
369.28	182.56
369.48	84.26
369.68	107.66
369.87	124.05
370.07	110.01
370.27	203.63
370.47	177.88
370.66	397.89
370.86	386.19
371.06	458.74
371.25	482.15
371.45	409.59
371.65	486.83
371.84	386.19
372.04	468.11
372.24	411.93
372.44	423.64
372.63	489.17
372.83	449.38
373.03	500.87
373.22	421.30
373.42	468.11
373.62	514.92
373.81	535.98
374.01	543.00
374.21	575.77
374.40	538.32
374.60	526.62
374.79	554.71
374.99	620.24
375.19	599.18
375.38	521.94
375.58	575.77
375.78	603.86
375.97	669.39
376.17	585.13
376.37	606.20
376.56	585.13
376.76	580.45
376.95	622.58
377.15	571.09
377.35	650.67
377.54	613.22
377.74	622.58
377.93	613.22
378.13	578.11
378.33	636.63
378.52	645.99
378.72	718.54
378.91	638.97
379.11	655.35
379.31	589.82
379.50	561.73
379.70	660.03
379.89	702.16
380.09	622.58
380.28	650.67
380.48	676.41
380.68	645.99
380.87	620.24
381.07	713.86
381.26	699.82
381.46	617.90
381.65	648.33
381.85	739.61
382.04	685.78
382.24	606.20
382.43	671.73
382.63	613.22
382.83	688.12
383.02	683.44
383.22	758.33
383.41	622.58
383.61	730.25
383.80	788.76
384.00	744.29
384.19	730.25
384.39	697.48
384.58	760.67
384.78	760.67
384.97	779.40
385.17	746.63
385.36	730.25
385.56	770.04
385.75	669.39
385.95	800.46
386.14	784.08
386.34	809.83
386.53	734.93
386.72	753.65
386.92	781.74
387.11	833.23
387.31	833.23
387.50	828.55
387.70	821.53
387.89	847.27
388.09	854.30
388.28	863.66
388.48	837.91
388.67	868.34
388.86	856.64
389.06	821.53
389.25	849.61
389.45	940.90
389.64	910.47
389.84	887.06
390.03	891.74
390.22	858.98
390.42	849.61
390.61	936.21
390.81	905.79
391.00	961.96
391.19	950.26
391.39	952.60
391.58	990.05
391.78	1039.20
391.97	924.51
392.16	978.34
392.36	954.94
392.55	882.38
392.75	940.90
392.94	931.53
393.13	1025.15
393.33	912.81
393.52	1029.84
393.71	1006.43
393.91	997.07
394.10	1025.15
394.29	980.68
394.49	1097.71
394.68	1095.37
394.88	1123.46
395.07	1078.99
395.26	1174.95
395.46	1083.67
395.65	1137.50
395.84	1083.67
396.04	1165.59
396.23	1074.31
396.42	1074.31
396.62	1048.56
396.81	1165.59
397.00	1064.94
397.19	1165.59
397.39	1179.63
397.58	1235.80
397.77	1256.87
397.97	1191.33
398.16	1149.20
398.35	1266.23
398.55	1259.21
398.74	1277.93
398.93	1263.89
399.12	1306.02
399.32	1263.89
399.51	1320.06
399.70	1387.94
399.90	1296.66
400.09	1373.89
400.28	1397.30
400.47	1362.19
400.67	1378.58
400.86	1455.81
401.05	1434.75
401.24	1392.62
401.44	1474.54
401.63	1561.14
401.82	1474.54
402.01	1469.86
402.21	1507.30
402.40	1490.92
402.59	1558.80
402.78	1497.94
402.97	1556.46
403.17	1549.43
403.36	1509.65
403.55	1657.10
403.74	1633.69
403.93	1652.42
404.13	1657.10
404.32	1551.78
404.51	1631.35
404.70	1673.48
404.89	1607.95
405.09	1724.97
405.28	1717.95
405.47	1710.93
405.66	1750.72
405.85	1678.16
406.05	1736.68
406.24	1722.63
406.43	1717.95
406.62	1802.21
406.81	1818.60
407.00	1898.17
407.20	1785.83
407.39	1748.38
407.58	1921.58
407.77	1930.94
407.96	1937.96
408.15	1923.92
408.34	1867.75
408.54	1944.99
408.73	2015.20
408.92	2040.95
409.11	2017.54
409.30	2015.20
409.49	1961.37
409.68	2120.53
409.87	2083.08
410.07	2080.74
410.26	2080.74
410.45	2059.67
410.64	2104.14
410.83	2223.51
411.02	2249.25
411.21	2148.61
411.40	2270.32
411.59	2209.47
411.78	2256.28
411.98	2181.38
412.17	2186.06
412.36	2289.04
412.55	2291.38
412.74	2471.61
412.93	2373.30
413.12	2417.77
413.31	2480.97
413.50	2413.09
413.69	2441.18
413.88	2541.82
414.07	2506.71
414.26	2523.10
414.45	2560.55
414.64	2640.12
414.83	2710.34
415.02	2637.78
415.22	2738.43
415.41	2757.15
415.60	2764.17
415.79	2771.19
415.98	2773.53
416.17	2775.88
416.36	2878.86
416.55	2736.09
416.74	2846.09
416.93	2916.31
417.12	2843.75
417.31	2930.35
417.50	3042.70
417.69	3080.14
417.88	3112.91
418.07	2895.24
418.26	3040.36
418.45	3047.38
418.64	3211.22
418.83	3190.15
419.02	3091.85
419.21	3241.64
419.39	3222.92
419.58	3267.39
419.77	3155.04
419.96	3222.92
420.15	3246.32
420.34	3094.19
420.53	3239.30
420.72	3375.05
420.91	3262.71
421.10	3361.01
421.29	3492.08
421.48	3258.03
421.67	3419.52
421.86	3405.48
422.05	3445.27
422.24	3356.33
422.43	3452.29
422.61	3552.93
422.80	3585.70
422.99	3581.02
423.18	3543.57
423.37	3527.19
423.56	3510.80
423.75	3555.27
423.94	3475.70
424.13	3290.79
424.32	3417.18
424.50	3466.33
424.69	3506.12
424.88	3545.91
425.07	3449.95
425.26	3365.69
425.45	3456.97
425.64	3435.91
425.83	3480.38
426.01	3639.53
426.20	3672.30
426.39	3449.95
426.58	3513.14
426.77	3606.77
426.96	3578.68
427.15	3478.04
427.33	3655.92
427.52	3559.95
427.71	3618.47
427.90	3747.20
428.09	3714.43
428.28	3723.79
428.46	3728.47
428.65	3669.96
428.84	3831.46
429.03	3899.33
429.22	3812.73
429.40	3822.09
429.59	3786.99
429.78	3538.89
429.97	3571.66
430.16	3796.35
430.34	3831.46
430.53	3950.82
430.72	3864.22
430.91	3761.24
431.10	3885.29
431.28	4091.26
431.47	4086.58
431.66	4065.51
431.85	3964.87
432.03	4198.92
432.22	4266.80
432.41	4131.05
432.60	4168.49
432.79	4234.03
432.97	4241.05
433.16	4243.39
433.35	4180.20
433.54	4180.20
433.72	4208.28
433.91	4180.20
434.10	4133.39
434.28	4147.43
434.47	4182.54
434.66	4379.14
434.85	4428.29
435.03	4397.87
435.22	4327.65
435.41	4587.45
435.59	4514.89
435.78	4507.87
435.97	4500.85
436.16	4587.45
436.34	4496.17
436.53	4512.55
436.72	4599.15
436.90	4538.30
437.09	4533.62
437.28	4580.43
437.46	4580.43
437.65	4674.05
437.84	4725.54
438.02	4662.35
438.21	4713.84
438.40	4521.92
438.58	4889.38
438.77	4781.71
438.96	4856.61
439.14	4903.42
439.33	4992.36
439.52	5048.54
439.70	5102.37
439.89	5200.67
440.08	4985.34
440.26	4950.23
440.45	5025.13
440.63	5231.10
440.82	5305.99
441.01	5317.70
441.19	5179.61
441.38	5376.21
441.57	5270.89
441.75	5390.25
441.94	5465.15
442.12	5343.44
442.31	5584.52
442.50	5612.60
442.68	5481.53
442.87	5720.27
443.05	5612.60
443.24	5731.97
443.43	5715.59
443.61	5668.78
443.80	5937.94
443.98	5600.90
444.17	5467.49
444.35	5600.90
444.54	5949.64
444.73	5734.31
444.91	5851.34
445.10	5600.90
445.28	5741.33
445.47	5741.33
445.65	5675.80
445.84	5837.30
446.02	5834.96
446.21	5738.99
446.39	5757.72
446.58	5928.58
446.77	5893.47
446.95	5778.78
447.14	5947.30
447.32	6010.50
447.51	6005.81
447.69	5856.02
447.88	5923.90
448.06	5832.62
448.25	5769.42
448.43	5949.64
448.62	5816.23
448.80	5954.32
448.99	5980.07
449.17	6033.90
449.36	6174.33
449.54	5966.03
449.73	6202.42
449.91	6307.74
450.10	6235.19
450.28	6340.51
450.46	6221.14
450.65	6263.27
450.83	6190.72
451.02	6265.61
451.20	6455.20
451.39	6377.96
451.57	6277.32
451.76	6307.74
451.94	6363.92
452.13	6462.22
452.31	6443.49
452.49	6162.63
452.68	6340.51
452.86	6370.94
453.05	6527.75
453.23	6434.13
453.42	6443.49
453.60	6539.46
453.78	6576.91
453.97	6504.35
454.15	6612.01
454.34	6544.14
454.52	6693.93
454.70	6766.49
454.89	6766.49
455.07	6497.33
455.26	6803.94
455.44	6890.54
455.62	6895.22
455.81	6925.65
455.99	7021.61
456.17	6939.69
456.36	6960.75
456.54	7131.61
456.73	7023.95
456.91	7222.89
457.09	7290.77
457.28	7302.47
457.46	7258.00
457.64	7185.44
457.83	7148.00
458.01	7007.56
458.19	7269.70
458.38	7258.00
458.56	7234.60
458.74	7159.70
458.93	7433.54
459.11	7391.41
459.29	7410.14
459.48	7428.86
459.66	7435.88
459.84	7473.33
460.03	7667.60
460.21	7372.69
460.39	7368.01
460.57	7581.00
460.76	7882.92
460.94	7588.02
461.12	7595.04
461.31	7857.18
461.49	7548.23
461.67	7456.95
461.85	7957.82
462.04	7655.89
462.22	8313.58
462.40	7899.31
462.59	7920.37
462.77	7913.35
462.95	7929.74
463.13	7880.58
463.32	7744.83
463.50	8030.38
463.68	7899.31
463.86	7866.54
464.05	7840.79
464.23	8002.29
464.41	8025.70
464.59	7824.41
464.78	8119.32
464.96	8201.24
465.14	8084.21
465.32	8163.79
465.50	8140.38
465.69	8280.82
465.87	8170.81
466.05	8222.30
466.23	8198.90
466.41	8159.11
466.60	8514.87
466.78	8147.40
466.96	8229.32
467.14	8369.76
467.32	8353.37
467.51	8554.66
467.69	8313.58
467.87	8484.44
468.05	8559.34
468.23	8444.65
468.41	8519.55
468.60	8421.25
468.78	8617.85
468.96	8578.06
469.14	8592.11
469.32	8695.09
469.50	8486.78
469.69	8816.80
469.87	8830.84
470.05	8837.86
470.23	8849.57
470.41	8725.52
470.59	8999.36
470.77	9118.73
470.95	8945.53
471.14	9214.69
471.32	8882.33
471.50	9064.89
471.68	8992.34
471.86	9214.69
472.04	9205.33
472.22	9362.14
472.40	8945.53
472.58	9338.74
472.77	9228.73
472.95	9479.17
473.13	9619.60
473.31	9640.67
473.49	9654.71
473.67	9647.69
473.85	9638.33
474.03	9783.44
474.21	9774.08
474.39	9872.38
474.57	10043.24
474.75	10052.60
474.93	10052.60
475.12	10073.67
475.30	10083.03
475.48	9989.41
475.66	10104.09
475.84	10047.92
476.02	10291.34
476.20	10359.21
476.38	10525.39
476.56	10712.63
476.74	10686.89
476.92	10581.56
477.10	10633.05
477.28	10913.92
477.46	10942.00
477.64	11052.01
477.82	11169.04
478.00	11367.98
478.18	11173.72
478.36	11377.34
478.54	11337.56
478.72	11225.21
478.90	11454.58
479.08	11641.82
479.26	11761.19
479.44	11709.70
479.62	11819.71
479.80	11901.62
479.98	11866.52
480.16	12149.72
480.34	12212.92
480.52	12250.36
480.70	12318.24
480.88	12402.50
481.06	12397.82
481.24	12133.34
481.41	12587.40
481.59	13172.54
481.77	12781.67
481.95	12882.31
482.13	13060.19
482.31	13006.36
482.49	13277.86
482.67	13376.16
482.85	13399.57
483.03	13675.75
483.21	13935.55
483.39	13877.04
483.57	14148.54
483.74	13870.01
483.92	14111.09
484.10	13926.19
484.28	14321.74
484.46	14368.55
484.64	14562.81
484.82	14520.68
485.00	14635.37
485.18	14932.62
485.35	15005.17
485.53	14902.19
485.71	14993.47
485.89	15183.06
486.07	15068.37
486.25	15166.67
486.43	15562.22
486.61	15510.73
486.78	15669.89
486.96	15824.36
487.14	16233.96
487.32	16067.78
487.50	16285.45
487.68	16327.58
487.85	16762.92
488.03	16814.41
488.21	16737.17
488.39	16716.11
488.57	16723.13
488.75	16922.07
488.92	17291.88
489.10	17624.23
489.28	17638.28
489.46	17757.64
489.64	17790.41
489.81	18228.09
489.99	18216.39
490.17	18270.22
490.35	18829.61
490.53	18436.40
490.70	18586.19
490.88	18750.03
491.06	18775.78
491.24	18743.01
491.41	18757.05
491.59	19066.00
491.77	19094.09
491.95	19386.66
492.13	19634.75
492.30	19716.67
492.48	19674.54
492.66	19847.74
492.84	19948.39
493.01	20039.67
493.19	19950.73
493.37	20100.52
493.54	20673.95
493.72	20498.41
493.90	20613.10
494.08	20730.12
494.25	20826.09
494.43	20940.77
494.61	20741.83
494.79	21282.49
494.96	21139.72
495.14	21048.44
495.32	21607.83
495.49	21523.57
495.67	21427.60
495.85	21884.01
496.02	21942.52
496.20	22094.66
496.38	21902.73
496.55	22384.88
496.73	22684.47
496.91	22448.08
497.09	22459.78
497.26	22808.52
497.44	22654.05
497.62	22745.33
497.79	23023.85
497.97	22789.80
498.14	23290.67
498.32	23534.09
498.50	23183.01
498.67	24023.26
498.85	23681.54
499.03	23850.06
499.20	23765.80
499.38	23943.68
499.56	24067.73
499.73	24044.32
499.91	24716.06
500.08	24526.47
500.26	24379.02
500.44	24505.41
500.61	24570.94
500.79	24170.71
500.97	24833.08
501.14	25369.07
501.32	24833.08
501.49	25106.93
501.67	24982.88
501.84	25413.54
502.02	24816.70
502.20	25479.07
502.37	25598.44
502.55	25558.65
502.72	25582.06
502.90	25610.14
503.07	25458.01
503.25	25722.49
503.43	25542.27
503.60	26199.96
503.78	26010.37
503.95	26068.89
504.13	26047.82
504.30	26249.11
504.48	26094.63
504.65	26515.93
504.83	26445.71
505.01	26771.05
505.18	26892.76
505.36	26937.23
505.53	26848.29
505.71	27440.44
505.88	27206.39
506.06	27185.32
506.23	27126.81
506.41	26820.20
506.58	27211.07
506.76	27541.08
506.93	27709.60
507.11	27307.03
507.28	27632.36
507.46	27545.76
507.63	27653.43
507.81	27758.75
507.98	27920.25
508.16	27971.74
508.33	27768.12
508.50	27899.19
508.68	28451.55
508.85	28163.67
509.03	28276.01
509.20	28458.57
509.38	28659.86
509.55	28924.34
509.73	28730.08
509.90	29146.69
510.08	28914.98
510.25	29134.99
510.42	29177.12
510.60	29289.46
510.77	29481.39
510.95	29340.96
511.12	29085.84
511.30	29666.29
511.47	29528.20
511.64	29916.73
511.82	30099.29
511.99	29450.96
512.17	30082.91
512.34	29507.13
512.51	30045.46
512.69	30543.99
512.86	30101.63
513.04	30279.51
513.21	29984.60
513.38	30331.00
513.56	30569.74
513.73	30356.75
513.90	30677.40
514.08	30277.17
514.25	30712.51
514.43	30899.75
514.60	30857.62
514.77	31098.70
514.95	31194.66
515.12	31112.74
515.29	31189.98
515.47	31646.38
515.64	31742.35
515.81	31370.20
515.99	31573.83
516.16	31370.20
516.33	31356.16
516.51	31887.46
516.68	31379.56
516.85	31276.58
517.03	31702.56
517.20	31938.95
517.37	32308.76
517.54	32077.04
517.72	32325.14
517.89	31950.65
518.06	31915.54
518.24	32084.06
518.41	32053.64
518.58	32170.66
518.75	32505.36
518.93	32730.05
519.10	32547.49
519.27	32905.59
519.45	32535.79
519.62	32872.82
519.79	32580.26
519.96	33125.60
520.14	33720.10
520.31	32900.91
520.48	33193.48
520.65	33336.25
520.83	33586.69
521.00	33256.67
521.17	33350.29
521.34	33972.88
521.52	33661.58
521.69	33570.30
521.86	33628.82
522.03	34167.14
522.20	33773.93
522.38	33844.15
522.55	33811.38
522.72	34089.90
522.89	33989.26
523.07	34143.74
523.24	33907.34
523.41	34483.11
523.58	34235.02
523.75	34572.05
523.92	34628.23
524.10	34670.36
524.27	34721.85
524.44	34679.72
524.61	35196.98
524.78	34735.89
524.96	35204.00
525.13	35304.64
525.30	35601.89
525.47	35255.49
525.64	34981.65
525.81	35218.04
525.98	35070.59
526.16	34859.94
526.33	34906.75
526.50	35543.38
526.67	35290.60
526.84	35484.86
527.01	35379.54
527.18	35875.73
527.36	35777.43
527.53	35728.28
527.70	36053.61
527.87	36210.43
528.04	36437.46
528.21	36081.70
528.38	35952.97
528.55	36175.32
528.72	35964.67
528.89	36032.55
529.07	36044.25
529.24	36208.09
529.41	36168.30
529.58	36495.97
529.75	36360.22
529.92	36390.65
530.09	36610.66
530.26	36751.09
530.43	36650.45
530.60	36414.05
530.77	36535.76
530.94	36797.90
531.11	36627.04
531.28	36928.97
531.46	37074.09
531.63	37603.05
531.80	36802.58
531.97	37160.69
532.14	36968.76
532.31	36847.05
532.48	37324.52
532.65	36884.50
532.82	37322.18
532.99	37656.88
533.16	37174.73
533.33	37493.04
533.50	38071.15
533.67	37687.31
533.84	37392.40
534.01	37558.58
534.18	37532.83
534.35	38096.90
534.52	37603.05
534.69	38108.60
534.86	37645.18
535.03	38099.24
535.20	38251.38
535.37	38302.87
535.54	38337.98
535.71	38302.87
535.88	38085.20
536.05	38389.47
536.22	38012.64
536.38	38384.79
536.55	38398.83
536.72	38101.58
536.89	38237.33
537.06	38450.32
537.23	38625.86
537.40	38752.25
537.57	38574.37
537.74	39152.48
537.91	38871.62
538.08	38815.44
538.25	38799.06
538.42	38852.89
538.59	39473.13
538.75	38600.12
538.92	38820.13
539.09	38712.46
539.26	39189.93
539.43	38976.94
539.60	39210.99
539.77	38934.81
539.94	39201.63
540.11	39044.82
540.28	38930.13
540.44	39515.26
540.61	39133.76
540.78	39274.19
540.95	39117.37
541.12	39026.09
541.29	38993.32
541.46	39735.27
541.62	39370.15
541.79	39138.44
541.96	39672.08
542.13	39491.86
542.30	39700.17
542.47	39510.58
542.63	39861.66
542.80	39910.82
542.97	40170.61
543.14	40549.78
543.31	40250.19
543.48	40369.56
543.64	40650.42
543.81	40760.43
543.98	39971.67
544.15	40402.33
544.32	40999.16
544.48	40964.06
544.65	40636.38
544.82	40697.24
544.99	40507.65
545.16	40596.59
545.32	40130.83
545.49	40912.56
545.66	40699.58
545.83	40563.82
546.00	41106.83
546.16	40657.45
546.33	40676.17
546.50	40804.90
546.67	40940.65
546.83	40816.60
547.00	41132.57
547.17	40662.13
547.34	40933.63
547.50	41188.75
547.67	41399.40
547.84	41291.73
548.00	41610.04
548.17	41532.81
548.34	41338.54
548.51	41708.35
548.67	41298.75
548.84	41738.77
549.01	41460.25
549.18	41132.57
549.34	41434.50
549.51	41085.76
549.68	41523.44
549.84	41394.71
550.01	41558.55
550.18	41490.68
550.34	41745.80
550.51	41663.88
550.68	41642.81
550.84	41338.54
551.01	41916.65
551.18	41853.46
551.34	42181.13
551.51	42031.34
551.68	42440.93
551.84	42068.79
552.01	42054.75
552.18	42129.64
552.34	41937.72
552.51	42302.84
552.68	42234.97
552.84	42536.90
553.01	42452.64
553.18	42061.77
553.34	42356.67
553.51	42117.94
553.67	42866.91
553.84	42574.34
554.01	42714.78
554.17	43058.84
554.34	43239.06
554.51	42927.77
554.67	42513.49
554.84	41989.21
555.00	42590.73
555.17	42164.75
555.33	42672.65
555.50	42899.68
555.67	42628.18
555.83	42469.02
556.00	42550.94
556.16	42735.84
556.33	42548.60
556.50	42887.98
556.66	42869.25
556.83	43009.68
556.99	42511.15
557.16	43306.93
557.32	42953.51
557.49	43100.97
557.65	43035.43
557.82	43222.67
557.98	43098.62
558.15	43173.52
558.32	42890.32
558.48	42789.67
558.65	42878.61
558.81	43182.88
558.98	43580.78
559.14	43171.18
559.31	42817.76
559.47	43627.59
559.64	43459.07
559.80	43384.17
559.97	43089.26
560.13	43236.72
560.30	42864.57
560.46	43646.31
560.63	43234.38
560.79	43320.98
560.96	43543.33
561.12	42962.87
561.29	43365.45
561.45	43625.25
561.61	43150.12
561.78	44009.09
561.94	43426.30
562.11	43267.14
562.27	43145.44
562.44	43489.49
562.60	43578.43
562.77	43531.62
562.93	43658.01
563.10	43601.84
563.26	43533.96
563.42	43646.31
563.59	43564.39
563.75	43800.79
563.92	43735.25
564.08	43569.07
564.24	43828.87
564.41	43901.43
564.57	43461.41
564.74	43976.33
564.90	43915.47
565.07	44280.60
565.23	43796.10
565.39	43737.59
565.56	44069.95
565.72	44240.81
565.88	43737.59
566.05	43791.42
566.21	43512.90
566.38	43728.23
566.54	44048.88
566.70	44472.52
566.87	43983.35
567.03	44289.96
567.19	44659.76
567.36	44116.76
567.52	43466.09
567.68	44002.07
567.85	43948.24
568.01	43814.83
568.17	43990.37
568.34	43999.73
568.50	44093.35
568.66	43721.21
568.83	44093.35
568.99	43896.75
569.15	44208.04
569.32	44282.94
569.48	43903.77
569.64	44100.37
569.81	44500.61
569.97	43721.21
570.13	43861.64
570.30	43882.70
570.46	44004.41
570.62	43594.82
570.78	43863.98
570.95	44264.21
571.11	43840.57
571.27	44069.95
571.43	44048.88
571.60	44205.70
571.76	44114.42
571.92	44140.16
572.09	44116.76
572.25	44151.87
572.41	43936.54
572.57	44329.75
572.74	44992.12
572.90	44245.49
573.06	44392.94
573.22	44641.04
573.38	44158.89
573.55	43906.11
573.71	44287.62
573.87	44348.47
574.03	43983.35
574.20	44128.46
574.36	44210.38
574.52	44535.71
574.68	44989.78
574.84	44577.84
575.01	44500.61
575.17	44224.42
575.33	44004.41
575.49	44224.42
575.65	44519.33
575.82	44685.51
575.98	43983.35
576.14	44725.30
576.30	44556.78
576.46	44215.06
576.62	44259.53
576.79	44037.18
576.95	43885.04
577.11	44601.25
577.27	44348.47
577.43	44526.35
577.59	44446.77
577.75	44334.43
577.92	44091.01
578.08	44088.67
578.24	43824.19
578.40	44311.02
578.56	44378.90
578.72	44378.90
578.88	44680.83
579.04	44458.48
579.21	44535.71
579.37	44451.45
579.53	44502.95
579.69	43936.54
579.85	44332.09
580.01	44339.11
580.17	44570.82
580.33	44772.11
580.49	44402.30
580.65	44734.66
580.82	44673.81
580.98	44566.14
581.14	44568.48
581.30	44367.20
581.46	44692.53
581.62	44219.74
581.78	44542.74
581.94	44645.72
582.10	44811.90
582.26	44758.06
582.42	44308.68
582.58	44498.26
582.74	44912.54
582.90	44594.23
583.06	44615.29
583.22	44456.14
583.38	44886.79
583.54	44465.50
583.70	44816.58
583.86	44664.44
584.02	44570.82
584.18	44797.85
584.34	44348.47
584.50	44631.68
584.66	44332.09
584.82	44395.28
584.98	45298.73
585.14	44287.62
585.30	44617.63
585.46	44610.61
585.62	44509.97
585.78	44547.42
585.94	44116.76
586.10	44229.10
586.26	44301.66
586.42	44718.28
586.58	44992.12
586.74	44626.99
586.90	44367.20
587.06	44463.16
587.22	44795.51
587.38	44477.20
587.54	44589.55
587.70	45242.56
587.86	44865.73
588.02	44219.74
588.18	44683.17
588.34	44706.57
588.49	44645.72
588.65	44119.10
588.81	44519.33
588.97	44538.05
589.13	44755.72
589.29	44793.17
589.45	44587.21
589.61	44767.43
589.77	44877.43
589.93	44699.55
590.08	44856.37
590.24	44776.79
590.40	44718.28
590.56	45148.93
590.72	44959.35
590.88	44554.44
591.04	44949.99
591.20	45057.65
591.35	45186.38
591.51	45528.10
591.67	44865.73
591.83	45059.99
591.99	44605.93
592.15	44701.89
592.31	44760.40
592.46	44949.99
592.62	44659.76
592.78	44818.92
592.94	45015.52
593.10	44795.51
593.26	44821.26
593.41	44865.73
593.57	44690.19
593.73	44893.82
593.89	45254.26
594.05	44814.24
594.20	44989.78
594.36	44868.07
594.52	44905.52
594.68	44566.14
594.84	45219.15
594.99	45111.49
595.15	44987.44
595.31	45347.88
595.47	44910.20
595.62	44868.07
595.78	44928.92
595.94	45221.49
596.10	45329.16
596.25	44992.12
596.41	44952.33
596.57	44891.48
596.73	45139.57
596.88	45069.36
597.04	44903.18
597.20	44664.44
597.36	44760.40
597.51	45551.51
597.67	45106.80
597.83	45015.52
597.99	45392.35
598.14	44987.44
598.30	44835.30
598.46	44830.62
598.61	44772.11
598.77	44928.92
598.93	44858.71
599.09	45525.76
599.24	45549.17
599.40	45141.91
599.56	45059.99
599.71	45420.44
599.87	45174.68
600.03	44856.37
600.18	44985.10
600.34	45141.91
600.50	44996.80
600.65	44999.14
600.81	45406.39
600.97	45074.04
601.12	45453.20
601.28	45137.23
601.44	45366.60
601.59	44989.78
601.75	44835.30
601.91	45345.54
602.06	45137.23
602.22	44804.88
602.37	44971.05
602.53	45214.47
602.69	45265.96
602.84	45298.73
603.00	45230.85
603.16	45315.11
603.31	44802.53
603.47	44725.30
603.62	44858.71
603.78	44809.56
603.94	44699.55
604.09	45525.76
604.25	45017.86
604.40	45160.64
604.56	45272.98
604.71	45130.21
604.87	44575.50
605.03	45174.68
605.18	44856.37
605.34	45048.29
605.49	44729.98
605.65	45371.28
605.80	44903.18
605.96	45153.62
606.12	44992.12
606.27	44947.65
606.43	44486.56
606.58	44954.67
606.74	44830.62
606.89	44877.43
607.05	45029.57
607.20	45052.97
607.36	44643.38
607.51	45331.50
607.67	44760.40
607.82	44912.54
607.98	44680.83
608.13	44713.59
608.29	44999.14
608.44	44374.22
608.60	44341.45
608.75	44275.91
608.91	44505.29
609.06	44624.65
609.22	45029.57
609.37	44868.07
609.53	44629.34
609.68	44126.12
609.84	44404.64
609.99	44854.03
610.15	44484.22
610.30	44591.89
610.46	44477.20
610.61	44835.30
610.76	44381.24
610.92	44385.92
611.07	44526.35
611.23	44601.25
611.38	44414.01
611.54	44385.92
611.69	43906.11
611.84	44512.31
612.00	44465.50
612.15	44100.37
612.31	44463.16
612.46	44470.18
612.62	44687.85
612.77	44194.00
612.92	44325.07
613.08	44074.63
613.23	44540.39
613.39	43428.64
613.54	43828.87
613.69	44027.82
613.85	44107.40
614.00	44362.51
614.15	44701.89
614.31	44374.22
614.46	44315.70
614.62	43941.22
614.77	43632.27
614.92	43978.67
615.08	44102.71
615.23	44055.90
615.38	44128.46
615.54	43789.08
615.69	44137.82
615.84	43742.27
616.00	43744.61
616.15	43746.95
616.30	43854.62
616.46	43679.08
616.61	43433.32
616.76	43643.97
616.92	43714.19
617.07	43732.91
617.22	43730.57
617.37	44025.48
617.53	43735.25
617.68	43899.09
617.83	43718.87
617.99	43840.57
618.14	43650.99
618.29	43440.34
618.45	43653.33
618.60	43105.65
618.75	43281.19
618.90	43199.27
619.06	43171.18
619.21	43639.29
619.36	43597.16
619.51	43536.30
619.67	43152.46
619.82	43220.33
619.97	43051.81
620.12	43269.48
620.28	42976.92
620.43	43482.47
620.58	43374.81
620.73	43264.80
620.89	42852.87
621.04	43253.10
621.19	42974.58
621.34	43086.92
621.49	43091.60
621.65	42871.59
621.80	43285.87
621.95	42834.14
622.10	43089.26
622.25	42756.91
622.41	42831.80
622.56	42878.61
622.71	42944.15
622.86	42876.27
623.01	42925.42
623.16	42497.11
623.32	43131.39
623.47	42749.88
623.62	43000.32
623.77	42871.59
623.92	42761.59
624.07	42380.08
624.23	42359.02
624.38	42319.23
624.53	42600.09
624.68	42937.13
624.83	42684.35
624.98	43016.71
625.13	42436.25
625.29	42366.04
625.44	42740.52
625.59	42728.82
625.74	42000.91
625.89	42150.71
626.04	42124.96
626.19	42433.91
626.34	42096.88
626.49	42176.45
626.65	42174.11
626.80	42686.69
626.95	42115.60
627.10	41888.57
627.25	41893.25
627.40	41619.41
627.55	41834.74
627.70	41570.25
627.85	41645.15
628.00	42141.35
628.15	42050.06
628.30	42005.59
628.45	42150.71
628.60	41729.41
628.76	41890.91
628.91	41914.31
629.06	41808.99
629.21	41759.84
629.36	41537.49
629.51	41453.23
629.66	41504.72
629.81	41567.91
629.96	41696.64
630.11	41598.34
630.26	41890.91
630.41	41291.73
630.56	41481.31
630.71	41546.85
630.86	41188.75
631.01	41200.45
631.16	41720.05
631.31	40971.08
631.46	40673.83
631.61	41308.11
631.76	41336.20
631.91	41633.45
632.06	41453.23
632.21	41287.05
632.36	41202.79
632.51	41008.53
632.66	41322.16
632.81	40840.01
632.96	41198.11
633.10	40563.82
633.25	40479.57
633.40	40952.35
633.55	41298.75
633.70	41069.38
633.85	41184.07
634.00	41193.43
634.15	41069.38
634.30	41193.43
634.45	41139.60
634.60	41102.15
634.75	40390.62
634.90	40528.72
635.05	40680.85
635.19	40994.48
635.34	40570.85
635.49	40584.89
635.64	40493.61
635.79	40194.02
635.94	40268.92
636.09	40987.46
636.24	40418.71
636.39	40573.19
636.53	40247.85
636.68	40233.81
636.83	40697.24
636.98	40737.02
637.13	40046.57
637.28	40442.12
637.43	40570.85
637.57	40598.93
637.72	40528.72
637.87	40474.88
638.02	40208.06
638.17	40226.79
638.32	39864.00
638.46	40170.61
638.61	40121.46
638.76	40062.95
638.91	39852.30
639.06	40004.44
639.20	39908.47
639.35	40081.67
639.50	39910.82
639.65	40030.18
639.80	40102.74
639.94	40189.34
640.09	39936.56
640.24	40271.26
640.39	39608.89
640.54	39620.59
640.68	39786.77
640.83	39393.56
640.98	39885.07
641.13	39835.92
641.27	39957.63
641.42	39428.66
641.57	39487.18
641.72	39576.12
641.86	39367.81
642.01	39150.14
642.16	39487.18
642.31	38862.26
642.45	39569.10
642.60	39133.76
642.75	39276.53
642.90	39431.01
643.04	39356.11
643.19	39496.54
643.34	39452.07
643.48	39271.85
643.63	39351.43
643.78	39470.79
643.93	39239.08
644.07	38768.63
644.22	39248.44
644.37	38899.70
644.51	39082.27
644.66	39346.75
644.81	39068.22
644.95	39236.74
645.10	39203.97
645.25	39292.91
645.39	39299.94
645.54	39253.12
645.69	38911.41
645.83	38934.81
645.98	39203.97
646.13	39019.07
646.27	39079.92
646.42	38646.93
646.57	38733.53
646.71	38796.72
646.86	38656.29
647.00	39049.50
647.15	38857.57
647.30	38941.83
647.44	38824.81
647.59	38204.56
647.74	38579.05
647.88	38373.08
648.03	38529.90
648.17	38628.20
648.32	38305.21
648.47	38539.26
648.61	38272.44
648.76	38848.21
648.90	38756.93
649.05	38625.86
649.20	38206.90
649.34	38677.35
649.49	38274.78
649.63	38309.89
649.78	38363.72
649.92	38183.50
650.07	38513.52
650.21	37731.78
650.36	38206.90
650.51	38089.88
650.65	38436.28
650.80	38345.00
650.94	38295.85
651.09	38005.62
651.23	37888.59
651.38	38005.62
651.52	38047.75
651.67	37883.91
651.81	37490.70
651.96	37991.58
652.10	37642.84
652.25	37895.61
652.39	37926.04
652.54	38068.81
652.68	37879.23
652.83	37982.21
652.97	38277.12
653.12	37830.08
653.26	37851.14
653.41	37811.35
653.55	37474.32
653.70	37357.29
653.84	37556.24
653.99	37624.11
654.13	37610.07
654.27	37605.39
654.42	37979.87
654.56	37120.90
654.71	37607.73
654.85	37282.39
655.00	37408.78
655.14	37249.63
655.29	37282.39
655.43	37659.22
655.57	36875.14
655.72	37074.09
655.86	36811.95
656.01	37123.24
656.15	37076.43
656.30	36884.50
656.44	36767.48
656.58	36905.57
656.73	36938.33
656.87	36723.01
657.01	36985.15
657.16	37006.21
657.30	36627.04
657.45	36561.51
657.59	36500.65
657.73	36788.54
657.88	36793.22
658.02	36800.24
658.16	37151.32
658.31	36959.40
658.45	36921.95
658.60	36645.77
658.74	36570.87
658.88	36442.14
659.03	36371.92
659.17	36154.26
659.31	36194.04
659.46	36093.40
659.60	36044.25
659.74	36369.58
659.89	35732.96
660.03	36100.42
660.17	35913.18
660.32	35892.12
660.46	36137.87
660.60	36133.19
660.74	36271.28
660.89	35929.56
661.03	35903.82
661.17	35903.82
661.32	35475.50
661.46	35679.13
661.60	35885.09
661.74	35246.13
661.89	35920.20
662.03	35524.65
662.17	35599.55
662.31	35534.01
662.46	35363.15
662.60	35517.63
662.74	35007.39
662.88	35548.06
663.03	35424.01
663.17	35075.27
663.31	35288.26
663.45	35353.79
663.60	34866.96
663.74	35154.85
663.88	34972.28
664.02	34595.46
664.17	35049.52
664.31	34916.11
664.45	34813.13
664.59	34806.11
664.73	34976.97
664.88	34768.66
665.02	34600.14
665.16	35065.91
665.30	35028.46
665.44	34646.95
665.59	34225.65
665.73	34253.74
665.87	34263.10
666.01	33935.43
666.15	34389.49
666.29	34548.65
666.44	34319.28
666.58	34171.82
666.72	34043.09
666.86	34223.31
667.00	34293.53
667.14	34089.90
667.28	33874.57
667.43	33610.09
667.57	33876.91
667.71	33298.80
667.85	33591.37
667.99	33364.34
668.13	33354.97
668.27	33310.50
668.41	33343.27
668.56	33670.95
668.70	33479.02
668.84	32989.85
668.98	33254.33
669.12	33064.75
669.26	33165.39
669.40	33415.83
669.54	32889.21
669.68	33111.56
669.82	32694.94
669.96	32727.71
670.10	32655.15
670.25	33041.34
670.39	32748.78
670.53	32617.71
670.67	32425.78
670.81	32844.74
670.95	32931.34
671.09	32659.84
671.23	32690.26
671.37	32428.12
671.51	32404.72
671.65	32479.61
671.79	31936.61
671.93	32116.83
672.07	31819.58
672.21	31917.89
672.35	31861.71
672.49	31826.60
672.63	32133.21
672.77	31854.69
672.91	31803.20
673.05	31765.75
673.19	31728.30
673.33	31475.52
673.47	31644.04
673.61	31358.50
673.75	31159.55
673.89	30951.24
674.03	30911.46
674.17	30824.86
674.31	30852.94
674.45	30567.40
674.59	31110.40
674.73	31452.12
674.87	30639.95
675.01	30616.55
675.15	31257.85
675.29	30668.04
675.43	30525.27
675.56	30221.00
675.70	30316.96
675.84	30270.15
675.98	29589.05
676.12	30433.99
676.26	30047.80
676.40	29589.05
676.54	30096.95
676.68	29799.70
676.82	29652.25
676.96	29706.08
677.10	29507.13
677.23	29685.01
677.37	29090.52
677.51	29186.48
677.65	29191.16
677.79	29266.06
677.93	29144.35
678.07	28823.70
678.21	28624.75
678.34	28594.32
678.48	28503.04
678.62	28596.67
678.76	27981.10
678.90	28322.82
679.04	28650.50
679.18	28203.46
679.31	28168.35
679.45	28107.49
679.59	27520.02
679.73	28112.17
679.87	27889.82
680.00	28147.28
680.14	27538.74
680.28	27625.34
680.42	27498.95
680.56	27559.81
680.70	27248.52
680.83	27386.61
680.97	27192.34
681.11	27143.19
681.25	26859.99
681.39	26927.86
681.52	26731.26
681.66	26932.54
681.80	26822.54
681.94	26307.62
682.07	26532.31
682.21	26050.16
682.35	26295.92
682.49	26574.44
682.62	26485.50
682.76	26008.03
682.90	25855.90
683.04	25898.03
683.17	26082.93
683.31	25598.44
683.45	25736.53
683.59	25553.97
683.72	25245.02
683.86	25556.31
684.00	25369.07
684.13	25785.68
684.27	25261.40
684.41	25172.46
684.55	24903.30
684.68	25249.70
684.82	24629.46
684.96	24460.94
685.09	24664.57
685.23	24334.55
685.37	24329.87
685.50	24388.38
685.64	24390.72
685.78	24414.13
685.91	24465.62
686.05	24002.19
686.19	24168.37
686.32	23880.49
686.46	23646.43
686.60	23597.28
686.73	23601.96
686.87	23393.65
687.01	23360.89
687.14	23049.60
687.28	23091.73
687.42	22963.00
687.55	22885.76
687.69	23082.36
687.82	22838.95
687.96	23051.94
688.10	22712.56
688.23	22691.49
688.37	22492.55
688.50	22324.03
688.64	22225.73
688.78	22293.60
688.91	22288.92
689.05	22183.60
689.18	21942.52
689.32	21624.21
689.46	22071.25
689.59	22115.72
689.73	21764.64
689.86	21319.94
690.00	21579.74
690.13	21846.56
690.27	21310.58
690.41	21425.26
690.54	21015.67
690.68	21245.04
690.81	21252.06
690.95	20606.08
691.08	20952.48
691.22	20840.13
691.35	20968.86
691.49	21027.37
691.62	20819.07
691.76	20692.68
691.89	20423.51
692.03	20669.27
692.16	20414.15
692.30	20613.10
692.43	20226.91
692.57	20308.83
692.70	20072.43
692.84	20107.54
692.97	19735.40
693.11	19871.15
693.24	19742.42
693.38	19585.60
693.51	19779.87
693.65	19634.75
693.78	19566.88
693.92	19412.40
694.05	19491.98
694.19	18892.80
694.32	19255.59
694.45	19260.27
694.59	18958.34
694.72	18845.99
694.86	18813.23
694.99	18623.64
695.13	18520.66
695.26	18427.04
695.39	18572.15
695.53	18459.81
695.66	18314.69
695.80	18431.72
695.93	18001.06
696.07	18321.71
696.20	18150.85
696.33	18068.94
696.47	17933.18
696.60	18141.49
696.73	18068.94
696.87	17727.22
697.00	17556.36
697.14	17708.49
697.27	17378.48
697.40	17256.77
697.54	17259.11
697.67	17163.15
697.80	17219.32
697.94	16912.71
698.07	17029.74
698.21	16966.54
698.34	16950.16
698.47	16716.11
698.61	16727.81
698.74	16678.66
698.87	16627.17
699.01	16636.53
699.14	16360.34
699.27	16400.13
699.40	16486.73
699.54	16269.06
699.67	16086.50
699.80	16147.36
699.94	16123.95
700.07	16079.48
700.20	15789.25
700.34	15861.81
700.47	15817.34
700.60	16025.65
700.73	15754.15
700.87	15662.86
701.00	15653.50
701.13	15721.38
701.26	15494.35
701.40	15442.85
701.53	15323.49
701.66	15372.64
701.79	15051.99
701.93	14757.08
702.06	14883.47
702.19	14979.43
702.32	15201.78
702.46	14626.01
702.59	14839.00
702.72	14773.46
702.85	14916.23
702.99	14860.06
703.12	14635.37
703.25	14614.30
703.38	14356.85
703.51	14466.85
703.65	14600.26
703.78	14551.11
703.91	14200.03
704.04	14085.34
704.17	14317.06
704.31	13816.18
704.44	13518.93
704.57	13640.64
704.70	13415.95
704.83	13542.34
704.96	13692.13
705.10	13825.54
705.23	13692.13
>>>>>End Processed Spectral Data<<<<<
