SpectraSuite Data File
++++++++++++++++++++++++++++++++++++
Date: Fri Oct 25 11:33:47 EDT 2013
User: price-jones
Dark Spectrum Present: No
Reference Spectrum Present: No
Number of Sampled Component Spectra: 1
Spectrometers: USB2+H05261
Integration Time (usec): 100000 (USB2+H05261)
Spectra Averaged: 1 (USB2+H05261)
Boxcar Smoothing: 0 (USB2+H05261)
Correct for Electrical Dark: No (USB2+H05261)
Strobe/Lamp Enabled: No (USB2+H05261)
Correct for Detector Non-linearity: No (USB2+H05261)
Correct for Stray Light: No (USB2+H05261)
Number of Pixels in Processed Spectrum: 2048
>>>>>Begin Processed Spectral Data<<<<<
365.73	241.08
365.92	241.08
366.12	241.08
366.32	201.29
366.52	142.77
366.72	191.92
366.91	175.54
367.11	248.10
367.31	149.79
367.51	117.03
367.70	147.45
367.90	203.63
368.10	215.33
368.30	170.86
368.49	198.95
368.69	203.63
368.89	163.84
369.09	194.26
369.28	264.48
369.48	210.65
369.68	236.39
369.87	203.63
370.07	280.86
370.27	276.18
370.47	311.29
370.66	442.36
370.86	468.11
371.06	543.00
371.25	564.07
371.45	547.69
371.65	575.77
371.84	498.53
372.04	582.79
372.24	564.07
372.44	519.60
372.63	557.05
372.83	475.13
373.03	601.52
373.22	538.32
373.42	592.16
373.62	660.03
373.81	725.57
374.01	585.13
374.21	751.31
374.40	662.37
374.60	706.84
374.79	676.41
374.99	631.94
375.19	697.48
375.38	730.25
375.58	601.52
375.78	657.69
375.97	671.73
376.17	678.76
376.37	660.03
376.56	683.44
376.76	674.07
376.95	718.54
377.15	599.18
377.35	734.93
377.54	702.16
377.74	669.39
377.93	695.14
378.13	688.12
378.33	741.95
378.52	711.52
378.72	676.41
378.91	772.38
379.11	692.80
379.31	674.07
379.50	645.99
379.70	767.70
379.89	802.80
380.09	697.48
380.28	807.48
380.48	730.25
380.68	690.46
380.87	713.86
381.07	692.80
381.26	671.73
381.46	702.16
381.65	725.57
381.85	840.25
382.04	734.93
382.24	779.40
382.43	786.42
382.63	837.91
382.83	777.06
383.02	870.68
383.22	873.02
383.41	753.65
383.61	795.78
383.80	870.68
384.00	805.14
384.19	903.45
384.39	793.44
384.58	807.48
384.78	877.70
384.97	765.36
385.17	800.46
385.36	884.72
385.56	723.23
385.75	788.76
385.95	851.96
386.14	887.06
386.34	821.53
386.53	882.38
386.72	851.96
386.92	910.47
387.11	919.83
387.31	898.77
387.50	889.40
387.70	896.43
387.89	847.27
388.09	896.43
388.28	842.59
388.48	828.55
388.67	842.59
388.86	964.30
389.06	919.83
389.25	1001.75
389.45	919.83
389.64	938.55
389.84	978.34
390.03	966.64
390.22	980.68
390.42	961.96
390.61	1057.92
390.81	978.34
391.00	976.00
391.19	1029.84
391.39	1008.77
391.58	1032.18
391.78	1055.58
391.97	1034.52
392.16	1048.56
392.36	973.66
392.55	1060.26
392.75	1027.50
392.94	1067.28
393.13	1025.15
393.33	1039.20
393.52	1060.26
393.71	1097.71
393.91	1048.56
394.10	1032.18
394.29	1046.22
394.49	1156.22
394.68	1046.22
394.88	1118.78
395.07	1146.86
395.26	1057.92
395.46	1128.14
395.65	1128.14
395.84	1188.99
396.04	1242.82
396.23	1149.20
396.42	1153.88
396.62	1266.23
396.81	1193.67
397.00	1277.93
397.19	1242.82
397.39	1205.38
397.58	1221.76
397.77	1247.51
397.97	1303.68
398.16	1266.23
398.35	1233.46
398.55	1303.68
398.74	1270.91
398.93	1383.26
399.12	1284.95
399.32	1338.79
399.51	1383.26
399.70	1357.51
399.90	1315.38
400.09	1348.15
400.28	1348.15
400.47	1376.24
400.67	1399.64
400.86	1394.96
401.05	1341.13
401.24	1320.06
401.44	1455.81
401.63	1404.32
401.82	1383.26
402.01	1315.38
402.21	1476.88
402.40	1472.20
402.59	1406.66
402.78	1570.50
402.97	1565.82
403.17	1514.33
403.36	1554.12
403.55	1729.66
403.74	1582.20
403.93	1544.75
404.13	1685.19
404.32	1509.65
404.51	1633.69
404.70	1593.90
404.89	1612.63
405.09	1685.19
405.28	1647.74
405.47	1668.80
405.66	1605.61
405.85	1734.34
406.05	1682.85
406.24	1720.29
406.43	1771.79
406.62	1844.34
406.81	1811.57
407.00	1790.51
407.20	1849.02
407.39	1820.94
407.58	1816.26
407.77	1851.36
407.96	1914.56
408.15	1907.54
408.34	1823.28
408.54	1823.28
408.73	1881.79
408.92	1944.99
409.11	1937.96
409.30	1872.43
409.49	2001.16
409.68	2038.61
409.87	2036.27
410.07	2012.86
410.26	2040.95
410.45	2101.80
410.64	2183.72
410.83	2193.08
411.02	2127.55
411.21	2141.59
411.40	2232.87
411.59	2279.68
411.78	2204.78
411.98	2139.25
412.17	2328.83
412.36	2223.51
412.55	2380.32
412.74	2370.96
412.93	2427.14
413.12	2380.32
413.31	2487.99
413.50	2497.35
413.69	2436.50
413.88	2530.12
414.07	2480.97
414.26	2553.52
414.45	2534.80
414.64	2569.91
414.83	2511.39
415.02	2750.13
415.22	2635.44
415.41	2649.49
415.60	2637.78
415.79	2703.32
415.98	2672.89
416.17	2792.26
416.36	2705.66
416.55	2771.19
416.74	2787.58
416.93	2740.77
417.12	2855.45
417.31	2792.26
417.50	2825.03
417.69	2986.52
417.88	3098.87
418.07	3030.99
418.26	2970.14
418.45	2923.33
418.64	3038.02
418.83	2923.33
419.02	3101.21
419.21	3180.79
419.39	3187.81
419.58	3030.99
419.77	2949.08
419.96	3052.06
420.15	3234.62
420.34	3080.14
420.53	3197.17
420.72	3258.03
420.91	3199.51
421.10	3126.96
421.29	3213.56
421.48	3213.56
421.67	3372.71
421.86	3225.26
422.05	3201.85
422.24	3351.65
422.43	3377.39
422.61	3314.20
422.80	3447.61
422.99	3351.65
423.18	3463.99
423.37	3440.59
423.56	3478.04
423.75	3426.54
423.94	3274.41
424.13	3363.35
424.32	3361.01
424.50	3496.76
424.69	3604.42
424.88	3461.65
425.07	3382.07
425.26	3311.86
425.45	3431.23
425.64	3339.94
425.83	3435.91
426.01	3552.93
426.20	3428.88
426.39	3585.70
426.58	3496.76
426.77	3513.14
426.96	3473.36
427.15	3599.74
427.33	3529.53
427.52	3574.00
427.71	3616.13
427.90	3623.15
428.09	3651.24
428.28	3658.26
428.46	3744.86
428.65	3637.19
428.84	3880.61
429.03	3822.09
429.22	3658.26
429.40	3850.18
429.59	3789.33
429.78	3749.54
429.97	3700.39
430.16	3686.34
430.34	3911.04
430.53	3925.08
430.72	3887.63
430.91	3936.78
431.10	3915.72
431.28	3948.48
431.47	3922.74
431.66	3939.12
431.85	3974.23
432.03	4035.08
432.22	4079.55
432.41	4011.68
432.60	4121.68
432.79	4011.68
432.97	3936.78
433.16	4224.67
433.35	4107.64
433.54	4140.41
433.72	4112.32
433.91	4084.23
434.10	4168.49
434.28	4269.14
434.47	4257.43
434.66	4355.74
434.85	4437.66
435.03	4547.66
435.22	4191.90
435.41	4547.66
435.59	4559.36
435.78	4421.27
435.97	4468.08
436.16	4269.14
436.34	4360.42
436.53	4500.85
436.72	4528.94
436.90	4404.89
437.09	4620.22
437.28	4393.19
437.46	4290.20
437.65	4425.95
437.84	4655.33
438.02	4592.13
438.21	4657.67
438.40	4636.60
438.58	4772.35
438.77	4873.00
438.96	4744.27
439.14	4884.70
439.33	4863.63
439.52	4870.65
439.70	5046.20
439.89	4997.04
440.08	5097.69
440.26	5034.49
440.45	5036.83
440.63	5233.44
440.82	5228.76
441.01	5205.35
441.19	5165.56
441.38	5366.85
441.57	5355.15
441.75	5383.23
441.94	5488.56
442.12	5205.35
442.31	5483.88
442.50	5481.53
442.68	5476.85
442.87	5437.06
443.05	5556.43
443.24	5710.91
443.43	5420.68
443.61	5563.45
443.80	5771.76
443.98	5444.09
444.17	5495.58
444.35	5619.63
444.54	5631.33
444.73	5619.63
444.91	5542.39
445.10	5661.76
445.28	5743.67
445.47	5666.44
445.65	5596.22
445.84	5816.23
446.02	5769.42
446.21	5727.29
446.39	5734.31
446.58	5846.66
446.77	5856.02
446.95	5696.86
447.14	5657.07
447.32	5734.31
447.51	5675.80
447.69	5790.49
447.88	5996.45
448.06	5827.93
448.25	5764.74
448.43	5879.43
448.62	5809.21
448.80	5795.17
448.99	6008.16
449.17	5921.56
449.36	5877.09
449.54	5886.45
449.73	5799.85
449.91	6216.46
450.10	6244.55
450.28	6228.17
450.46	6153.27
450.65	6162.63
450.83	6071.35
451.02	6235.19
451.20	6244.55
451.39	6331.15
451.57	6118.16
451.76	6207.10
451.94	6108.80
452.13	6296.04
452.31	6324.13
452.49	6284.34
452.68	6263.27
452.86	6356.90
453.05	6319.45
453.23	6319.45
453.42	6387.32
453.60	6363.92
453.78	6509.03
453.97	6431.79
454.15	6284.34
454.34	6338.17
454.52	6700.95
454.70	6333.49
454.89	6684.57
455.07	6705.63
455.26	6862.45
455.44	6621.38
455.62	6693.93
455.81	6722.02
455.99	6853.09
456.17	6752.45
456.36	6775.85
456.54	7026.29
456.73	6916.28
456.91	6946.71
457.09	7052.03
457.28	7105.87
457.46	6937.35
457.64	7143.32
457.83	7162.04
458.01	7012.24
458.19	7248.64
458.38	7377.37
458.56	7211.19
458.74	7178.42
458.93	7077.78
459.11	7197.15
459.29	7145.66
459.48	7325.88
459.66	7346.94
459.84	7379.71
460.03	7447.58
460.21	7372.69
460.39	7590.36
460.57	7403.11
460.76	7669.94
460.94	7494.40
461.12	7428.86
461.31	7609.08
461.49	7463.97
461.67	7375.03
461.85	7714.41
462.04	7611.42
462.22	7983.57
462.40	7751.85
462.59	7786.96
462.77	7782.28
462.95	7831.43
463.13	7852.50
463.32	7847.82
463.50	7889.95
463.68	7859.52
463.86	7843.14
464.05	7896.97
464.23	7920.37
464.41	7997.61
464.59	7693.34
464.78	8217.62
464.96	7899.31
465.14	8145.06
465.32	8004.63
465.50	8149.75
465.69	8072.51
465.87	8163.79
466.05	8489.12
466.23	8142.72
466.41	8229.32
466.60	8341.67
466.78	8116.98
466.96	8180.17
467.14	8329.97
467.32	8386.14
467.51	8168.47
467.69	8236.35
467.87	8198.90
468.05	8620.19
468.23	8315.92
468.41	8379.12
468.60	8594.45
468.78	8535.93
468.96	8430.61
469.14	8545.30
469.32	8741.90
469.50	8376.78
469.69	8606.15
469.87	8758.28
470.05	8840.20
470.23	8814.46
470.41	8793.39
470.59	8959.57
470.77	8879.99
470.95	9078.94
471.14	8943.19
471.32	8741.90
471.50	8851.91
471.68	9100.00
471.86	9193.62
472.04	9107.02
472.22	9378.53
472.40	8975.95
472.58	9235.75
472.77	9219.37
472.95	9378.53
473.13	9694.50
473.31	9418.32
473.49	9605.56
473.67	9455.76
473.85	9373.85
474.03	9699.18
474.21	9900.47
474.39	9703.86
474.57	9809.19
474.75	9872.38
474.93	9977.70
475.12	9853.66
475.30	9935.57
475.48	10076.01
475.66	10183.67
475.84	9935.57
476.02	10038.56
476.20	10223.46
476.38	10459.85
476.56	10539.43
476.74	10663.48
476.92	10527.73
477.10	10394.32
477.28	10609.65
477.46	10602.63
477.64	10956.05
477.82	10883.49
478.00	11012.22
478.18	11232.23
478.36	11061.37
478.54	11501.39
478.72	11335.21
478.90	11370.32
479.08	11714.38
479.26	11768.21
479.44	11810.34
479.62	11880.56
479.80	11922.69
479.98	12105.25
480.16	12311.22
480.34	12025.67
480.52	12187.17
480.70	12208.23
480.88	12503.14
481.06	12320.58
481.24	12339.30
481.41	12643.57
481.59	12535.91
481.77	12826.14
481.95	13029.76
482.13	12943.16
482.31	12931.46
482.49	13294.24
482.67	13511.91
482.85	13722.56
483.03	13652.34
483.21	13760.01
483.39	13881.72
483.57	13657.03
483.74	14029.17
483.92	13898.10
484.10	14097.05
484.28	14223.44
484.46	14626.01
484.64	14628.35
484.82	14560.47
485.00	14537.07
485.18	15164.33
485.35	15314.13
485.53	14930.28
485.71	15089.43
485.89	15407.75
486.07	15492.01
486.25	15438.17
486.43	15609.03
486.61	15754.15
486.78	15981.18
486.96	16114.59
487.14	16318.22
487.32	16187.14
487.50	16439.92
487.68	16294.81
487.85	16468.01
488.03	17071.87
488.21	16791.00
488.39	17291.88
488.57	17095.27
488.75	17214.64
488.92	17383.16
489.10	17689.77
489.28	17631.26
489.46	17954.25
489.64	18012.76
489.81	18349.80
489.99	18153.20
490.17	18387.25
490.35	18576.83
490.53	18630.66
490.70	18492.57
490.88	18778.12
491.06	18939.62
491.24	19096.43
491.41	19105.79
491.59	19302.40
491.77	19166.65
491.95	19403.04
492.13	19222.82
492.30	19246.23
492.48	19623.05
492.66	19943.70
492.84	19962.43
493.01	20278.40
493.19	20011.58
493.37	20325.21
493.54	20299.47
493.72	20692.68
493.90	20666.93
494.08	21006.31
494.25	20641.18
494.43	20931.41
494.61	21167.80
494.79	21238.02
494.96	21128.02
495.14	21465.05
495.32	21806.77
495.49	21820.81
495.67	21853.58
495.85	22075.93
496.02	22199.98
496.20	22274.88
496.38	22661.07
496.55	22602.55
496.73	23204.07
496.91	22705.54
497.09	22829.59
497.26	23012.15
497.44	23096.41
497.62	23185.35
497.79	23431.10
497.97	23482.59
498.14	23700.26
498.32	23953.04
498.50	23782.18
498.67	23817.29
498.85	23737.71
499.03	24151.99
499.20	24180.07
499.38	24425.83
499.56	24563.92
499.73	24208.16
499.91	24673.93
500.08	24727.76
500.26	24767.55
500.44	24837.76
500.61	24599.03
500.79	24884.58
500.97	24872.87
501.14	25422.90
501.32	25064.80
501.49	25436.94
501.67	25729.51
501.84	25921.43
502.02	25577.37
502.20	25530.56
502.37	26101.65
502.55	25919.09
502.72	25790.36
502.90	26085.27
503.07	26139.10
503.25	26094.63
503.43	25933.14
503.60	26249.11
503.78	26434.01
503.95	26146.12
504.13	26448.05
504.30	26630.62
504.48	26576.78
504.65	26799.13
504.83	26906.80
505.01	27159.58
505.18	27227.45
505.36	26995.74
505.53	27278.94
505.71	27489.59
505.88	27372.57
506.06	27360.86
506.23	27784.50
506.41	27873.44
506.58	27957.70
506.76	28006.85
506.93	28058.34
507.11	27756.41
507.28	28451.55
507.46	28154.30
507.63	27981.10
507.81	28627.09
507.98	28474.96
508.16	28264.31
508.33	28779.23
508.50	28657.52
508.68	29022.64
508.85	29415.85
509.03	29230.95
509.20	29254.36
509.38	29109.24
509.55	28926.68
509.73	29350.32
509.90	29572.67
510.08	29757.57
510.25	29111.58
510.42	29942.47
510.60	29893.32
510.77	29809.06
510.95	30258.45
511.12	30054.82
511.30	30331.00
511.47	30307.60
511.64	29998.65
511.82	30543.99
511.99	30728.89
512.17	30284.19
512.34	30101.63
512.51	31056.57
512.69	30876.35
512.86	30883.37
513.04	31204.02
513.21	30820.17
513.38	31377.22
513.56	31241.47
513.73	31108.06
513.90	31185.30
514.08	31122.10
514.25	31477.86
514.43	31491.91
514.60	31590.21
514.77	32027.89
514.95	31751.71
515.12	31351.48
515.29	31882.78
515.47	32077.04
515.64	32055.98
515.81	32320.46
515.99	32376.63
516.16	32278.33
516.33	32327.48
516.51	32622.39
516.68	32453.87
516.85	32357.91
517.03	32828.35
517.20	32713.67
517.37	32931.34
517.54	32952.40
517.72	32833.04
517.89	32858.78
518.06	33436.89
518.24	32821.33
518.41	32919.63
518.58	32809.63
518.75	32961.76
518.93	33654.56
519.10	33310.50
519.27	33198.16
519.45	33493.07
519.62	34029.05
519.79	33778.61
519.96	33972.88
520.14	33984.58
520.31	33727.12
520.48	34033.73
520.65	33813.72
520.83	34295.87
521.00	34380.13
521.17	34169.48
521.34	34396.51
521.52	34242.04
521.69	34251.40
521.86	34518.22
522.03	34672.70
522.20	34768.66
522.38	34991.01
522.55	35419.33
522.72	35363.15
522.89	35077.61
523.07	35508.27
523.24	35318.68
523.41	35548.06
523.58	35292.94
523.75	35983.40
523.92	35323.36
524.10	35569.12
524.27	35992.76
524.44	35669.76
524.61	35648.70
524.78	35878.07
524.96	36147.23
525.13	36385.97
525.30	35817.22
525.47	36196.38
525.64	35971.69
525.81	35981.06
525.98	36669.17
526.16	36734.71
526.33	36404.69
526.50	36601.30
526.67	36781.52
526.84	36184.68
527.01	36535.76
527.18	36835.35
527.36	36687.90
527.53	36554.49
527.70	37069.40
527.87	37184.09
528.04	36987.49
528.21	37031.96
528.38	37029.62
528.55	37436.87
528.72	37390.06
528.89	37081.11
529.07	37322.18
529.24	37486.02
529.41	37331.54
529.58	37284.73
529.75	37443.89
529.92	37708.37
530.09	37876.89
530.26	37743.48
530.43	38064.13
530.60	37565.60
530.77	37621.77
530.94	38103.92
531.11	37909.66
531.28	37720.07
531.46	38478.41
531.63	38412.87
531.80	38506.49
531.97	38389.47
532.14	38328.61
532.31	38314.57
532.48	38705.44
532.65	38590.75
532.82	38438.62
532.99	38787.36
533.16	38909.07
533.33	39255.46
533.50	38909.07
533.67	39208.65
533.84	38314.57
534.01	38621.18
534.18	38770.97
534.35	39295.25
534.52	39330.36
534.69	39309.30
534.86	39321.00
535.03	39220.36
535.20	39599.52
535.37	39768.04
535.54	39688.46
535.71	39700.17
535.88	39711.87
536.05	39711.87
536.22	39861.66
536.38	39592.50
536.55	39550.37
536.72	39814.85
536.89	39658.04
537.06	39463.77
537.23	40231.47
537.40	39826.56
537.57	39854.64
537.74	40004.44
537.91	40243.17
538.08	40421.05
538.25	40069.97
538.42	40463.18
538.59	40388.28
538.75	40172.96
538.92	40545.10
539.09	40767.45
539.26	40570.85
539.43	40875.12
539.60	40554.46
539.77	40580.21
539.94	40889.16
540.11	40825.96
540.28	40620.00
540.44	40957.03
540.61	40694.89
540.78	40832.99
540.95	40959.38
541.12	40980.44
541.29	40921.93
541.46	40861.07
541.62	40776.81
541.79	41457.91
541.96	41109.17
542.13	40947.67
542.30	41284.71
542.47	41223.86
542.63	41425.14
542.80	41890.91
542.97	41869.84
543.14	42024.32
543.31	41811.33
543.48	41745.80
543.64	42246.67
543.81	42139.00
543.98	42337.95
544.15	42211.56
544.32	42244.33
544.48	42019.64
544.65	42260.71
544.82	42543.92
544.99	42148.37
545.16	42462.00
545.32	42550.94
545.49	42487.74
545.66	42693.71
545.83	42707.76
546.00	42583.71
546.16	42700.73
546.33	42529.87
546.50	42333.27
546.67	42794.36
546.83	42422.21
547.00	42782.65
547.17	42602.43
547.34	42967.55
547.50	43091.60
547.67	43636.95
547.84	42724.14
548.00	43187.56
548.17	43421.62
548.34	43070.54
548.51	43494.18
548.67	43482.47
548.84	43468.43
549.01	42969.90
549.18	43278.85
549.34	42995.64
549.51	43503.54
549.68	43501.20
549.84	43370.13
550.01	43838.23
550.18	43871.00
550.34	43761.00
550.51	43391.19
550.68	43660.35
550.84	43433.32
551.01	44016.11
551.18	43353.74
551.34	43665.03
551.51	44224.42
551.68	44121.44
551.84	44060.58
552.01	43559.71
552.18	43894.41
552.34	43992.71
552.51	44048.88
552.68	43924.83
552.84	44299.32
553.01	44076.97
553.18	44076.97
553.34	44617.63
553.51	44072.29
553.67	44093.35
553.84	44486.56
554.01	44219.74
554.17	44610.61
554.34	44662.10
554.51	44470.18
554.67	44847.00
554.84	44680.83
555.00	44797.85
555.17	44212.72
555.33	44879.77
555.50	44589.55
555.67	44701.89
555.83	44470.18
556.00	44692.53
556.16	45247.24
556.33	44816.58
556.50	45013.18
556.66	44547.42
556.83	44746.36
556.99	45102.12
557.16	45153.62
557.32	44947.65
557.49	45160.64
557.65	44666.78
557.82	44861.05
557.98	45244.90
558.15	44917.22
558.32	44964.03
558.48	44992.12
558.65	45170.00
558.81	45256.60
558.98	45404.05
559.14	45167.66
559.31	45584.27
559.47	45216.81
559.64	45109.14
559.80	45263.62
559.97	45205.11
560.13	45359.58
560.30	45467.25
560.46	45930.67
560.63	45724.71
560.79	45687.26
560.96	46017.27
561.12	45743.43
561.29	45858.12
561.45	45612.36
561.61	46036.00
561.78	45603.00
561.94	45446.18
562.11	45832.37
562.27	45759.81
562.44	45808.96
562.60	45668.53
562.77	46117.92
562.93	45727.05
563.10	45993.87
563.26	45755.13
563.42	46536.87
563.59	45837.05
563.75	45869.82
563.92	46513.47
564.08	45715.34
564.24	46508.79
564.41	45951.74
564.57	46040.68
564.74	46403.46
564.90	45806.62
565.07	46190.47
565.23	46202.18
565.39	46218.56
565.56	46054.72
565.72	45698.96
565.88	45998.55
566.05	46085.15
566.21	46321.54
566.38	46199.83
566.54	46298.14
566.70	46181.11
566.87	46714.75
567.03	46263.03
567.19	46433.89
567.36	46347.29
567.52	46845.82
567.68	46485.38
567.85	46492.40
568.01	46305.16
568.17	46476.02
568.34	46618.79
568.50	46417.50
568.66	45970.46
568.83	46525.17
568.99	46368.35
569.15	46314.52
569.32	46480.70
569.48	46609.43
569.64	46656.24
569.81	46794.33
569.97	46834.12
570.13	46543.89
570.30	46447.93
570.46	46939.44
570.62	46855.18
570.78	46492.40
570.95	46962.85
571.11	47007.32
571.27	46689.01
571.43	46506.44
571.60	46466.66
571.76	46391.76
571.92	46754.54
572.09	46508.79
572.25	46649.22
572.41	46684.33
572.57	46883.27
572.74	47164.14
572.90	46920.72
573.06	46700.71
573.22	46927.74
573.38	46443.25
573.55	46911.36
573.71	47131.37
573.87	46845.82
574.03	47068.17
574.20	47292.86
574.36	46955.83
574.52	47112.64
574.68	46897.31
574.84	47100.94
575.01	47290.52
575.17	47171.16
575.33	46892.63
575.49	46789.65
575.65	47117.32
575.82	46955.83
575.98	46909.02
576.14	47360.74
576.30	47185.20
576.46	47320.95
576.62	47407.55
576.79	47526.92
576.95	46887.95
577.11	47082.22
577.27	47030.72
577.43	46499.42
577.59	47517.56
577.75	46962.85
577.92	46721.77
578.08	46813.05
578.24	46859.87
578.40	47522.24
578.56	47292.86
578.72	47114.98
578.88	47466.06
579.04	47274.14
579.21	46944.12
579.37	46866.89
579.53	47627.56
579.69	46880.93
579.85	46894.97
580.01	47407.55
580.17	47173.50
580.33	46969.87
580.49	47192.22
580.65	47028.38
580.82	47091.58
580.98	46902.00
581.14	47255.42
581.30	47297.55
581.46	46904.34
581.62	46803.69
581.78	46974.55
581.94	47143.07
582.10	47114.98
582.26	47529.26
582.42	47449.68
582.58	47213.29
582.74	47196.90
582.90	47257.76
583.06	47363.08
583.22	47435.64
583.38	47566.71
583.54	47332.65
583.70	47440.32
583.86	47255.42
584.02	47232.01
584.18	47337.33
584.34	47398.19
584.50	47480.11
584.66	47583.09
584.82	47856.93
584.98	48041.84
585.14	47760.97
585.30	47253.08
585.46	47377.12
585.62	47351.38
585.78	47166.48
585.94	47007.32
586.10	47447.34
586.26	47196.90
586.42	47131.37
586.58	47344.36
586.74	47311.59
586.90	47496.49
587.06	47555.00
587.22	47643.94
587.38	47243.71
587.54	47856.93
587.70	47955.24
587.86	47112.64
588.02	47311.59
588.18	47484.79
588.34	47414.57
588.49	47894.38
588.65	47239.03
588.81	47234.35
588.97	47901.40
589.13	47559.69
589.29	47253.08
589.45	47767.99
589.61	47887.36
589.77	47798.42
589.93	47686.07
590.08	47922.47
590.24	48098.01
590.40	48285.25
590.56	47899.06
590.72	48048.86
590.88	47753.95
591.04	47894.38
591.20	48011.41
591.35	47859.27
591.51	48399.94
591.67	48142.48
591.83	48130.78
591.99	47983.32
592.15	47789.06
592.31	47878.00
592.46	47622.88
592.62	48039.50
592.78	47997.37
592.94	47995.03
593.10	48224.40
593.26	48088.65
593.41	47992.68
593.57	48332.06
593.73	47632.24
593.89	48425.68
594.05	47873.32
594.20	48215.04
594.36	48526.33
594.52	48058.22
594.68	47697.78
594.84	47838.21
594.99	48329.72
595.15	48177.59
595.31	48144.82
595.47	48156.52
595.62	47955.24
595.78	48193.97
595.94	48175.25
596.10	48215.04
596.25	48250.14
596.41	48224.40
596.57	48044.18
596.73	48470.15
596.88	48421.00
597.04	48182.27
597.20	48369.51
597.36	48123.75
597.51	48079.28
597.67	47821.83
597.83	48116.73
597.99	48287.59
598.14	48083.97
598.30	48219.72
598.46	48568.46
598.61	48313.34
598.77	48313.34
598.93	48020.77
599.09	48493.56
599.24	48746.34
599.40	48435.05
599.56	48303.98
599.71	48421.00
599.87	48563.78
600.03	48697.19
600.18	48215.04
600.34	48238.44
600.50	48257.17
600.65	48376.53
600.81	48390.58
600.97	48119.07
601.12	48409.30
601.28	48261.85
601.44	48353.13
601.59	48423.34
601.75	48311.00
601.91	48362.49
602.06	48126.10
602.22	48617.61
602.37	48402.28
602.53	48273.55
602.69	47962.26
602.84	48144.82
603.00	48144.82
603.16	48158.86
603.31	48528.67
603.47	48285.25
603.62	48315.68
603.78	48638.67
603.94	48568.46
604.09	48636.33
604.25	48311.00
604.40	48210.35
604.56	48549.73
604.71	48315.68
604.87	48435.05
605.03	48318.02
605.18	48350.79
605.34	48652.72
605.49	47833.53
605.65	48259.51
605.80	48186.95
605.96	47950.56
606.12	48442.07
606.27	48523.99
606.43	48126.10
606.58	47934.17
606.74	47896.72
606.89	47973.96
607.05	48491.22
607.20	47997.37
607.36	48215.04
607.51	48168.22
607.67	48149.50
607.82	47849.91
607.98	47859.27
608.13	47765.65
608.29	48193.97
608.44	48388.24
608.60	47798.42
608.75	48081.63
608.91	48266.53
609.06	48041.84
609.22	48296.95
609.37	47784.38
609.53	48133.12
609.68	48149.50
609.84	48093.33
609.99	47964.60
610.15	48215.04
610.30	48130.78
610.46	48165.88
610.61	48083.97
610.76	48151.84
610.92	47821.83
611.07	47672.03
611.23	47592.45
611.38	47924.81
611.54	47896.72
611.69	48041.84
611.84	48046.52
612.00	47721.18
612.15	47695.44
612.31	48053.54
612.46	47667.35
612.62	47496.49
612.77	47980.98
612.92	47690.76
613.08	47931.83
613.23	48053.54
613.39	47765.65
613.54	47540.96
613.69	47889.70
613.85	47779.70
614.00	47423.93
614.15	48325.04
614.31	47533.94
614.46	47992.68
614.62	47419.25
614.77	47461.38
614.92	47559.69
615.08	47330.31
615.23	47875.66
615.38	47803.10
615.54	47358.40
615.69	48053.54
615.84	47693.10
616.00	47374.78
616.15	47810.12
616.30	47775.02
616.46	47463.72
616.61	47508.19
616.76	47594.79
616.92	47400.53
617.07	47325.63
617.22	47217.97
617.37	47065.83
617.53	47334.99
617.68	47098.60
617.83	46876.25
617.99	47547.98
618.14	47304.57
618.29	47166.48
618.45	46944.12
618.60	47224.99
618.75	47110.30
618.90	47084.56
619.06	46958.17
619.21	47063.49
619.36	47065.83
619.51	47185.20
619.67	47136.05
619.82	46813.05
619.97	47065.83
620.12	46553.26
620.28	46869.23
620.43	46958.17
620.58	47157.11
620.73	47227.33
620.89	46639.86
621.04	46609.43
621.19	47070.51
621.34	46897.31
621.49	46576.66
621.65	46593.04
621.80	47014.34
621.95	46571.98
622.10	46770.93
622.25	46630.49
622.41	46461.97
622.56	46815.40
622.71	46717.09
622.86	46637.51
623.01	46520.49
623.16	46932.42
623.32	46813.05
623.47	47012.00
623.62	46454.95
623.77	46628.15
623.92	47014.34
624.07	46579.00
624.23	46733.48
624.38	46412.82
624.53	46440.91
624.68	46059.40
624.83	46199.83
624.98	46843.48
625.13	46192.81
625.29	45970.46
625.44	45879.18
625.59	46281.75
625.74	45865.14
625.89	46309.84
626.04	46403.46
626.19	46146.00
626.34	46213.88
626.49	45715.34
626.65	45930.67
626.80	46085.15
626.95	45815.99
627.10	45471.93
627.25	46028.98
627.40	46050.04
627.55	45914.29
627.70	46040.68
627.85	45631.08
628.00	45764.49
628.15	45918.97
628.30	45315.11
628.45	45537.46
628.60	45507.04
628.76	45411.07
628.91	46066.42
629.06	45397.03
629.21	45483.63
629.36	45092.76
629.51	45748.11
629.66	45998.55
629.81	45804.28
629.96	45610.02
630.11	45617.04
630.26	45207.45
630.41	45406.39
630.56	45151.27
630.71	45588.95
630.86	44996.80
631.01	44982.76
631.16	45074.04
631.31	45106.80
631.46	45247.24
631.61	45235.53
631.76	45399.37
631.91	45256.60
632.06	45942.38
632.21	45198.09
632.36	45301.07
632.51	44982.76
632.66	45317.45
632.81	45258.94
632.96	45134.89
633.10	45338.52
633.25	44865.73
633.40	44917.22
633.55	45162.98
633.70	44825.94
633.85	44879.77
634.00	44797.85
634.15	44718.28
634.30	44978.07
634.45	44797.85
634.60	44854.03
634.75	44526.35
634.90	44748.70
635.05	45102.12
635.19	45029.57
635.34	45001.48
635.49	44933.60
635.64	44636.36
635.79	44961.69
635.94	44570.82
636.09	44804.88
636.24	44516.99
636.39	44397.62
636.53	44842.32
636.68	44418.69
636.83	44247.83
636.98	44278.25
637.13	44257.19
637.28	43824.19
637.43	44505.29
637.57	44404.64
637.72	43990.37
637.87	43906.11
638.02	44507.63
638.17	44467.84
638.32	44250.17
638.46	43887.39
638.61	44027.82
638.76	44191.65
638.91	44151.87
639.06	44158.89
639.20	43789.08
639.35	43716.53
639.50	43604.18
639.65	43920.15
639.80	43988.03
639.94	44165.91
640.09	44282.94
640.24	44327.41
640.39	43384.17
640.54	43768.02
640.68	44165.91
640.83	43814.83
640.98	43924.83
641.13	43335.02
641.27	43985.69
641.42	43697.80
641.57	43739.93
641.72	43796.10
641.86	43564.39
642.01	42869.25
642.16	43540.99
642.31	43288.21
642.45	43789.08
642.60	43316.29
642.75	43178.20
642.90	44102.71
643.04	43206.29
643.19	43281.19
643.34	43119.69
643.48	43349.06
643.63	42937.13
643.78	43267.14
643.93	43079.90
644.07	43636.95
644.22	43299.91
644.37	43126.71
644.51	43419.28
644.66	43030.75
644.81	43126.71
644.95	43145.44
645.10	43033.09
645.25	43112.67
645.39	43061.18
645.54	43318.64
645.69	42707.76
645.83	42735.84
645.98	42768.61
646.13	42731.16
646.27	42611.79
646.42	42857.55
646.57	42630.52
646.71	42878.61
646.86	42508.81
647.00	42789.67
647.15	43201.61
647.30	42958.19
647.44	42632.86
647.59	42784.99
647.74	42850.53
647.88	42665.63
648.03	42878.61
648.17	42892.66
648.32	42904.36
648.47	42920.74
648.61	42553.28
648.76	42436.25
648.90	42623.50
649.05	42494.77
649.20	42227.95
649.34	42513.49
649.49	42368.38
649.63	42735.84
649.78	42403.49
649.92	42471.36
650.07	42665.63
650.21	42408.17
650.36	42918.40
650.51	42330.93
650.65	42342.63
650.80	42026.66
650.94	42464.34
651.09	42319.23
651.23	41682.60
651.38	41642.81
651.52	41710.69
651.67	42225.60
651.81	41989.21
651.96	42059.43
652.10	41687.28
652.25	41797.29
652.39	41848.78
652.54	42197.52
652.68	42012.62
652.83	41689.62
652.97	42134.32
653.12	41855.80
653.26	42410.51
653.41	41715.37
653.55	41970.49
653.70	42031.34
653.84	41727.07
653.99	41366.63
654.13	41537.49
654.27	41338.54
654.42	41614.72
654.56	41537.49
654.71	41738.77
654.85	41769.20
655.00	41645.15
655.14	41514.08
655.29	42021.98
655.43	41872.18
655.57	41343.22
655.72	41188.75
655.86	41230.88
656.01	40837.67
656.15	41160.66
656.30	41006.19
656.44	41111.51
656.58	41588.98
656.73	41198.11
656.87	41102.15
657.01	41010.87
657.16	41418.12
657.30	41233.22
657.45	41043.63
657.59	40540.42
657.73	40179.98
657.88	40760.43
658.02	41036.61
658.16	41139.60
658.31	40840.01
658.45	40556.80
658.60	40336.79
658.74	40753.41
658.88	40825.96
659.03	40919.59
659.17	40627.02
659.31	40268.92
659.46	40112.10
659.60	40451.48
659.74	40233.81
659.89	40105.08
660.03	40011.46
660.17	40098.06
660.32	40119.12
660.46	39873.37
660.60	39419.30
660.74	39517.60
660.89	39608.89
661.03	39761.02
661.17	39590.16
661.32	39475.48
661.46	39768.04
661.60	39615.91
661.74	39636.97
661.89	39358.45
662.03	39548.03
662.17	39428.66
662.31	39309.30
662.46	39995.07
662.60	39068.22
662.74	39421.64
662.88	39325.68
663.03	38948.85
663.17	39133.76
663.31	38593.09
663.45	39241.42
663.60	39564.42
663.74	39274.19
663.88	39063.54
664.02	38780.34
664.17	39257.81
664.31	38354.36
664.45	38761.61
664.59	38749.91
664.73	38452.66
664.88	38635.22
665.02	37951.79
665.16	38485.43
665.30	38426.92
665.44	38230.31
665.59	37937.74
665.73	38218.61
665.87	37223.88
666.01	38092.22
666.15	37361.97
666.29	38307.55
666.44	37820.72
666.58	38007.96
666.72	37614.75
666.86	37799.65
667.00	38164.78
667.14	37371.33
667.28	37366.65
667.43	37769.22
667.57	37631.13
667.71	37886.25
667.85	37581.98
667.99	37502.40
668.13	37385.38
668.27	36767.48
668.41	37343.25
668.56	36575.55
668.70	37046.00
668.84	37038.98
668.98	36191.70
669.12	37240.26
669.26	36786.20
669.40	36957.06
669.54	36715.98
669.68	36552.15
669.82	36388.31
669.96	36304.05
670.10	36397.67
670.25	35871.05
670.39	36224.47
670.53	36758.11
670.67	36037.23
670.81	36467.89
670.95	36517.04
671.09	36070.00
671.23	35761.05
671.37	36037.23
671.51	35716.58
671.65	35573.80
671.79	35679.13
671.93	35772.75
672.07	35840.62
672.21	35924.88
672.35	35201.66
672.49	35391.24
672.63	35398.26
672.77	35339.75
672.91	35297.62
673.05	35035.48
673.19	34686.74
673.33	34703.12
673.47	34850.58
673.61	34752.27
673.75	34522.90
673.89	34801.43
674.03	34211.61
674.17	34085.22
674.31	34120.33
674.45	33764.57
674.59	33846.49
674.73	33968.19
674.87	33745.84
675.01	33610.09
675.15	33624.14
675.29	33525.83
675.43	33284.76
675.56	33642.86
675.70	33256.67
675.84	33333.91
675.98	32496.00
676.12	33146.67
676.26	33308.16
676.40	32790.91
676.54	32730.05
676.68	32744.09
676.82	32584.94
676.96	32744.09
677.10	32659.84
677.23	32498.34
677.37	32498.34
677.51	32395.35
677.65	31927.25
677.79	32072.36
677.93	31667.45
678.07	32105.13
678.21	31852.35
678.34	31515.31
678.48	31569.15
678.62	31622.98
678.76	31311.69
678.90	30897.41
679.04	31452.12
679.18	31372.54
679.31	31152.53
679.45	30759.32
679.59	30513.56
679.73	30724.21
679.87	30859.96
680.00	30602.50
680.14	30862.30
680.28	30274.83
680.42	30433.99
680.56	30239.72
680.70	30185.89
680.83	30190.57
680.97	29752.89
681.11	29743.53
681.25	29486.07
681.39	29287.12
681.52	29652.25
681.66	29088.18
681.80	28608.37
681.94	28973.49
682.07	28936.04
682.21	28826.04
682.35	28577.94
682.49	28741.78
682.62	28601.35
682.76	28666.88
682.90	28575.60
683.04	28573.26
683.17	28278.35
683.31	28350.91
683.45	28205.80
683.59	27597.26
683.72	27896.85
683.86	27571.51
684.00	27641.73
684.13	27461.51
684.27	27363.20
684.41	27307.03
684.55	27384.27
684.68	27058.93
684.82	27014.46
684.96	27330.44
685.09	26934.88
685.23	27101.06
685.37	27484.91
685.50	27271.92
685.64	26934.88
685.78	26607.21
685.91	26485.50
686.05	26216.34
686.19	25806.75
686.32	26122.72
686.46	25600.78
686.60	25734.19
686.73	25748.23
686.87	25675.68
687.01	25947.18
687.14	25560.99
687.28	25565.67
687.42	25408.86
687.55	25067.14
687.69	24868.19
687.82	24893.94
687.96	24797.98
688.10	24889.26
688.23	24992.24
688.37	25139.69
688.50	25146.72
688.64	24678.61
688.78	24470.30
688.91	24346.25
689.05	24327.53
689.18	24011.56
689.32	23641.75
689.46	23468.55
689.59	23786.86
689.73	23929.64
689.86	23840.70
690.00	23662.82
690.13	23866.44
690.27	23438.12
690.41	23513.02
690.54	23115.13
690.68	23246.20
690.81	22944.27
690.95	22984.06
691.08	22710.22
691.22	22382.54
691.35	22607.23
691.49	22691.49
691.62	22761.71
691.76	22319.35
691.89	22115.72
692.03	21865.28
692.16	21687.40
692.30	21947.20
692.43	22024.44
692.57	21916.78
692.70	21474.42
692.84	21654.64
692.97	21249.72
693.11	21710.81
693.24	20959.50
693.38	20802.68
693.51	20645.87
693.65	20945.45
693.78	20966.52
693.92	20702.04
694.05	20711.40
694.19	20746.51
694.32	20826.09
694.45	20617.78
694.59	20812.04
694.72	20486.71
694.86	20266.70
694.99	20287.76
695.13	19922.64
695.26	19962.43
695.39	19695.61
695.53	19632.41
695.66	19927.32
695.80	19482.62
695.93	19475.60
696.07	19246.23
696.20	19049.62
696.33	19026.21
696.47	19009.83
696.60	18953.66
696.73	19084.73
696.87	19096.43
697.00	18906.85
697.14	18710.24
697.27	18525.34
697.40	18572.15
697.54	18558.11
697.67	18497.25
697.80	18541.72
697.94	18167.24
698.07	18246.82
698.21	18054.89
698.34	17846.58
698.47	17848.93
698.61	17455.72
698.74	17303.58
698.87	17600.83
699.01	17397.20
699.14	17692.11
699.27	17289.54
699.40	17240.39
699.54	17191.23
699.67	17219.32
699.80	17121.02
699.94	16929.09
700.07	17090.59
700.20	17011.01
700.34	16807.39
700.47	16863.56
700.60	16769.94
700.73	16753.55
700.87	16311.19
701.00	16140.33
701.13	16318.22
701.26	16187.14
701.40	16016.29
701.53	15873.51
701.66	16070.12
701.79	16077.14
701.93	15796.28
702.06	15662.86
702.19	15655.84
702.32	15620.74
702.46	15419.45
702.59	15805.64
702.72	15653.50
702.85	15592.65
702.99	15267.31
703.12	15332.85
703.25	14934.96
703.38	14839.00
703.51	15077.73
703.65	14640.05
703.78	14728.99
703.91	14406.00
704.04	14572.18
704.17	14518.34
704.31	14551.11
704.44	14382.59
704.57	14436.42
704.70	14382.59
704.83	14319.40
704.96	14134.50
705.10	13809.16
705.23	14092.37
>>>>>End Processed Spectral Data<<<<<
