SpectraSuite Data File
++++++++++++++++++++++++++++++++++++
Date: Fri Oct 25 10:43:22 EDT 2013
User: price-jones
Dark Spectrum Present: No
Reference Spectrum Present: No
Number of Sampled Component Spectra: 1
Spectrometers: USB2+H05261
Integration Time (usec): 100000 (USB2+H05261)
Spectra Averaged: 1 (USB2+H05261)
Boxcar Smoothing: 0 (USB2+H05261)
Correct for Electrical Dark: No (USB2+H05261)
Strobe/Lamp Enabled: No (USB2+H05261)
Correct for Detector Non-linearity: No (USB2+H05261)
Correct for Stray Light: No (USB2+H05261)
Number of Pixels in Processed Spectrum: 2048
>>>>>Begin Processed Spectral Data<<<<<
365.73	126.39
365.92	126.39
366.12	126.39
366.32	37.45
366.52	51.49
366.72	84.26
366.91	23.41
367.11	0.00
367.31	0.00
367.51	16.38
367.70	21.06
367.90	14.04
368.10	0.00
368.30	21.06
368.49	0.00
368.69	28.09
368.89	114.69
369.09	0.00
369.28	39.79
369.48	14.04
369.68	53.83
369.87	100.64
370.07	67.88
370.27	154.48
370.47	241.08
370.66	418.96
370.86	456.40
371.06	486.83
371.25	416.62
371.45	451.72
371.65	500.87
371.84	470.45
372.04	456.40
372.24	444.70
372.44	411.93
372.63	505.56
372.83	470.45
373.03	519.60
373.22	479.81
373.42	503.22
373.62	571.09
373.81	571.09
374.01	543.00
374.21	571.09
374.40	571.09
374.60	575.77
374.79	521.94
374.99	535.98
375.19	512.58
375.38	578.11
375.58	554.71
375.78	650.67
375.97	664.71
376.17	763.01
376.37	617.90
376.56	564.07
376.76	603.86
376.95	496.19
377.15	662.37
377.35	636.63
377.54	571.09
377.74	631.94
377.93	636.63
378.13	624.92
378.33	751.31
378.52	627.26
378.72	645.99
378.91	713.86
379.11	660.03
379.31	683.44
379.50	629.60
379.70	674.07
379.89	688.12
380.09	685.78
380.28	819.19
380.48	713.86
380.68	674.07
380.87	662.37
381.07	692.80
381.26	732.59
381.46	760.67
381.65	660.03
381.85	695.14
382.04	763.01
382.24	774.72
382.43	683.44
382.63	608.54
382.83	746.63
383.02	720.88
383.22	755.99
383.41	812.17
383.61	727.91
383.80	653.01
384.00	716.20
384.19	760.67
384.39	793.44
384.58	844.93
384.78	903.45
384.97	765.36
385.17	816.85
385.36	763.01
385.56	795.78
385.75	772.38
385.95	739.61
386.14	800.46
386.34	837.91
386.53	788.76
386.72	828.55
386.92	933.87
387.11	847.27
387.31	861.32
387.50	833.23
387.70	863.66
387.89	791.10
388.09	851.96
388.28	917.49
388.48	882.38
388.67	947.92
388.86	877.70
389.06	945.58
389.25	933.87
389.45	931.53
389.64	983.02
389.84	936.21
390.03	992.39
390.22	994.73
390.42	1018.13
390.61	1008.77
390.81	1029.84
391.00	1093.03
391.19	1137.50
391.39	1043.88
391.58	1078.99
391.78	1149.20
391.97	1022.81
392.16	1060.26
392.36	1093.03
392.55	1086.01
392.75	1078.99
392.94	908.13
393.13	1020.47
393.33	1018.13
393.52	1018.13
393.71	1067.28
393.91	968.98
394.10	1153.88
394.29	1296.66
394.49	1196.01
394.68	1132.82
394.88	1193.67
395.07	1245.16
395.26	1252.19
395.46	1252.19
395.65	1266.23
395.84	1263.89
396.04	1172.61
396.23	1221.76
396.42	1273.25
396.62	1137.50
396.81	1156.22
397.00	1156.22
397.19	1287.29
397.39	1324.74
397.58	1378.58
397.77	1444.11
397.97	1481.56
398.16	1434.75
398.35	1397.30
398.55	1406.66
398.74	1544.75
398.93	1579.86
399.12	1497.94
399.32	1481.56
399.51	1549.43
399.70	1493.26
399.90	1535.39
400.09	1650.08
400.28	1621.99
400.47	1619.65
400.67	1586.88
400.86	1701.57
401.05	1696.89
401.24	1753.06
401.44	1727.32
401.63	1743.70
401.82	1764.76
402.01	1701.57
402.21	1832.64
402.40	1696.89
402.59	1799.87
402.78	1701.57
402.97	1778.81
403.17	1764.76
403.36	1884.13
403.55	1884.13
403.74	1853.70
403.93	1839.66
404.13	1930.94
404.32	1881.79
404.51	1884.13
404.70	1898.17
404.89	1959.03
405.09	1989.46
405.28	1944.99
405.47	1914.56
405.66	1980.09
405.85	2008.18
406.05	1989.46
406.24	2050.31
406.43	1956.69
406.62	2036.27
406.81	2160.31
407.00	2083.08
407.20	2076.06
407.39	2083.08
407.58	2120.53
407.77	2148.61
407.96	2211.81
408.15	2298.41
408.34	2225.85
408.54	2277.34
408.73	2239.89
408.92	2270.32
409.11	2380.32
409.30	2289.04
409.49	2298.41
409.68	2209.47
409.87	2270.32
410.07	2370.96
410.26	2347.56
410.45	2317.13
410.64	2385.01
410.83	2399.05
411.02	2473.95
411.21	2651.83
411.40	2574.59
411.59	2661.19
411.78	2579.27
411.98	2572.25
412.17	2590.97
412.36	2640.12
412.55	2785.24
412.74	2719.70
412.93	2768.85
413.12	2696.30
413.31	2853.11
413.50	2789.92
413.69	2916.31
413.88	2839.07
414.07	2827.37
414.26	2979.50
414.45	3040.36
414.64	3023.97
414.83	2946.73
415.02	3169.09
415.22	3016.95
415.41	3157.38
415.60	3190.15
415.79	3138.66
415.98	3328.24
416.17	3243.98
416.36	3236.96
416.55	3297.81
416.74	3143.34
416.93	3286.11
417.12	3248.66
417.31	3309.52
417.50	3361.01
417.69	3517.83
417.88	3489.74
418.07	3332.92
418.26	3438.25
418.45	3559.95
418.64	3595.06
418.83	3543.57
419.02	3679.32
419.21	3721.45
419.39	3590.38
419.58	3583.36
419.77	3562.30
419.96	3625.49
420.15	3733.15
420.34	3623.15
420.53	3786.99
420.72	3707.41
420.91	3854.86
421.10	3791.67
421.29	3971.89
421.48	3810.39
421.67	3861.88
421.86	3758.90
422.05	3700.39
422.24	3794.01
422.43	3770.60
422.61	3838.48
422.80	3985.93
422.99	3997.64
423.18	3918.06
423.37	3934.44
423.56	3904.01
423.75	4018.70
423.94	3765.92
424.13	3691.02
424.32	3695.71
424.50	4023.38
424.69	4091.26
424.88	3875.93
425.07	4011.68
425.26	4084.23
425.45	3964.87
425.64	3950.82
425.83	3922.74
426.01	4053.81
426.20	4025.72
426.39	3913.38
426.58	3990.61
426.77	4042.11
426.96	3983.59
427.15	3967.21
427.33	4098.28
427.52	4088.92
427.71	4212.96
427.90	4081.89
428.09	4161.47
428.28	4201.26
428.46	4159.13
428.65	4222.33
428.84	4393.19
429.03	4273.82
429.22	4067.85
429.40	4255.09
429.59	4138.07
429.78	3932.10
429.97	4088.92
430.16	3983.59
430.34	4154.45
430.53	4142.75
430.72	4131.05
430.91	4187.22
431.10	4442.34
431.28	4458.72
431.47	4678.73
431.66	4681.07
431.85	4669.37
432.03	4512.55
432.22	4711.50
432.41	4690.43
432.60	4629.58
432.79	4697.46
432.97	4690.43
433.16	4734.90
433.35	4692.77
433.54	4542.98
433.72	4751.29
433.91	4631.92
434.10	4739.58
434.28	4774.69
434.47	4903.42
434.66	4943.21
434.85	4973.64
435.03	4924.49
435.22	4901.08
435.41	5172.58
435.59	4978.32
435.78	5062.58
435.97	5210.03
436.16	5076.62
436.34	5224.08
436.53	5207.69
436.72	5179.61
436.90	5001.72
437.09	5181.95
437.28	5179.61
437.46	5207.69
437.65	5107.05
437.84	5254.50
438.02	5203.01
438.21	5135.14
438.40	5025.13
438.58	5263.86
438.77	5453.45
438.96	5408.98
439.14	5741.33
439.33	5706.23
439.52	5743.67
439.70	5570.48
439.89	5701.54
440.08	5738.99
440.26	5788.14
440.45	5717.93
440.63	5753.04
440.82	6059.65
441.01	5930.92
441.19	6026.88
441.38	6167.31
441.57	6202.42
441.75	6211.78
441.94	6270.30
442.12	6291.36
442.31	6555.84
442.50	6516.05
442.68	6392.00
442.87	6319.45
443.05	6516.05
443.24	6567.54
443.43	6408.39
443.61	6562.86
443.80	6707.98
443.98	6209.44
444.17	6305.40
444.35	6478.60
444.54	6452.86
444.73	6651.80
444.91	6492.65
445.10	6420.09
445.28	6445.84
445.47	6478.60
445.65	6389.66
445.84	6677.55
446.02	6532.44
446.21	6658.82
446.39	6581.59
446.58	6848.41
446.77	6813.30
446.95	6752.45
447.14	6717.34
447.32	6764.15
447.51	6888.20
447.69	6839.05
447.88	6808.62
448.06	6780.53
448.25	6855.43
448.43	6813.30
448.62	6740.74
448.80	6892.88
448.99	7009.90
449.17	6942.03
449.36	6897.56
449.54	7047.35
449.73	7225.23
449.91	7061.40
450.10	7026.29
450.28	7227.57
450.46	7089.48
450.65	7157.36
450.83	7246.30
451.02	7248.64
451.20	7204.17
451.39	7204.17
451.57	7241.62
451.76	7124.59
451.94	7178.42
452.13	7391.41
452.31	7288.43
452.49	7101.19
452.68	7169.06
452.86	7176.08
453.05	7234.60
453.23	7417.16
453.42	7197.15
453.60	7534.18
453.78	7478.01
453.97	7463.97
454.15	7508.44
454.34	7290.77
454.52	7510.78
454.70	7541.21
454.89	7475.67
455.07	7524.82
455.26	7573.97
455.44	7847.82
455.62	7805.69
455.81	7691.00
455.99	7784.62
456.17	7934.42
456.36	8035.06
456.54	8128.68
456.73	7894.63
456.91	7988.25
457.09	7981.23
457.28	8215.28
457.46	7957.82
457.64	8072.51
457.83	8292.52
458.01	8088.89
458.19	8402.52
458.38	8386.14
458.56	8484.44
458.74	8203.58
458.93	8224.64
459.11	8283.16
459.29	8376.78
459.48	8397.84
459.66	8285.50
459.84	8308.90
460.03	8540.61
460.21	8645.94
460.39	8465.72
460.57	8652.96
460.76	8533.59
460.94	8779.35
461.12	8671.68
461.31	8765.31
461.49	8917.44
461.67	8683.39
461.85	8793.39
462.04	8751.26
462.22	9280.22
462.40	8767.65
462.59	9034.47
462.77	8929.14
462.95	8849.57
463.13	8645.94
463.32	8931.48
463.50	8968.93
463.68	8877.65
463.86	8985.32
464.05	8844.88
464.23	8842.54
464.41	9034.47
464.59	8922.12
464.78	9107.02
464.96	9170.22
465.14	8990.00
465.32	9200.65
465.50	9142.13
465.69	9378.53
465.87	9329.38
466.05	9022.77
466.23	9114.05
466.41	9280.22
466.60	9373.85
466.78	9298.95
466.96	9167.88
467.14	9451.08
467.32	9233.41
467.51	9383.21
467.69	9247.46
467.87	9547.05
468.05	9446.40
468.23	9366.82
468.41	9301.29
468.60	9418.32
468.78	9647.69
468.96	9551.73
469.14	9785.78
469.32	9675.77
469.50	9661.73
469.69	9757.69
469.87	9893.44
470.05	9860.68
470.23	9877.06
470.41	9881.74
470.59	10188.35
470.77	9928.55
470.95	10209.42
471.14	10101.75
471.32	9977.70
471.50	10164.95
471.68	10277.29
471.86	10427.09
472.04	10487.94
472.22	10490.28
472.40	10260.91
472.58	10541.77
472.77	10366.23
472.95	10420.06
473.13	10806.25
473.31	10576.88
473.49	10335.81
473.67	10630.71
473.85	10738.38
474.03	10977.11
474.21	11066.05
474.39	10895.19
474.57	10824.98
474.75	11066.05
474.93	11295.43
475.12	11183.08
475.30	11482.67
475.48	11026.26
475.66	11307.13
475.84	11314.15
476.02	11421.81
476.20	11517.78
476.38	11548.20
476.56	11936.73
476.74	11604.38
476.92	12177.81
477.10	11777.58
477.28	12269.09
477.46	12084.19
477.64	12266.75
477.82	12348.67
478.00	12540.59
478.18	12587.40
478.36	12767.62
478.54	12767.62
478.72	12704.43
478.90	12882.31
479.08	12952.52
479.26	13107.00
479.44	13130.41
479.62	13202.96
479.80	13181.90
479.98	13392.55
480.16	13593.83
480.34	13621.92
480.52	13565.74
480.70	13825.54
480.88	13689.79
481.06	13965.98
481.24	13998.74
481.41	14195.35
481.59	14597.92
481.77	14466.85
481.95	14197.69
482.13	14560.47
482.31	14537.07
482.49	14972.41
482.67	14902.19
482.85	14925.60
483.03	15166.67
483.21	15211.14
483.39	15293.06
483.57	15400.72
483.74	15264.97
483.92	15660.52
484.10	15571.58
484.28	15702.65
484.46	15901.60
484.64	16496.10
484.82	16421.20
485.00	16184.80
485.18	16475.03
485.35	16669.30
485.53	16180.12
485.71	16252.68
485.89	16578.01
486.07	16369.71
486.25	16695.04
486.43	16725.47
486.61	16931.44
486.78	17509.55
486.96	17497.84
487.14	17764.67
487.32	17675.73
487.50	18176.60
487.68	18424.70
487.85	18352.14
488.03	18513.64
488.21	18562.79
488.39	18494.91
488.57	18618.96
488.75	18707.90
488.92	19063.66
489.10	19410.06
489.28	19253.25
489.46	19501.34
489.64	19690.93
489.81	20212.87
489.99	20180.10
490.17	20357.98
490.35	20301.81
490.53	20332.23
490.70	20362.66
490.88	20346.28
491.06	20849.49
491.24	20744.17
491.41	20760.55
491.59	20809.70
491.77	20730.12
491.95	20971.20
492.13	21390.16
492.30	21668.68
492.48	21521.23
492.66	21827.84
492.84	21490.80
493.01	22101.68
493.19	22183.60
493.37	22246.79
493.54	22450.42
493.72	22782.77
493.90	22546.38
494.08	23255.56
494.25	23110.45
494.43	23234.50
494.61	23587.92
494.79	23269.61
494.96	23686.22
495.14	23473.23
495.32	23468.55
495.49	23515.36
495.67	23751.76
495.85	23871.12
496.02	24364.98
496.20	24053.69
496.38	24671.59
496.55	24308.80
496.73	25156.08
496.91	24856.49
497.09	25013.31
497.26	25081.18
497.44	25193.53
497.62	25296.51
497.79	25207.57
497.97	25315.23
498.14	25521.20
498.32	25659.29
498.50	25961.22
498.67	25949.52
498.85	25619.50
499.03	26270.17
499.20	26403.58
499.38	26267.83
499.56	26232.72
499.73	26794.45
499.91	26422.31
500.08	26602.53
500.26	26111.02
500.44	27044.89
500.61	26993.40
500.79	26614.23
500.97	26829.56
501.14	27082.34
501.32	27175.96
501.49	27473.21
501.67	27175.96
501.84	27250.86
502.02	27646.41
502.20	27716.62
502.37	28135.58
502.55	27641.73
502.72	27960.04
502.90	28088.77
503.07	28149.62
503.25	28212.82
503.43	27875.78
503.60	28299.42
503.78	28292.40
503.95	28231.54
504.13	28608.37
504.30	28886.89
504.48	28299.42
504.65	28966.47
504.83	28786.25
505.01	28964.13
505.18	28865.83
505.36	29415.85
505.53	29359.68
505.71	29706.08
505.88	29429.90
506.06	29696.72
506.23	30141.42
506.41	29432.24
506.58	29727.14
506.76	30040.78
506.93	29762.25
507.11	29949.50
507.28	29909.71
507.46	29996.31
507.63	30118.01
507.81	30132.06
507.98	29977.58
508.16	30543.99
508.33	30576.76
508.50	31002.74
508.68	30944.22
508.85	30969.97
509.03	31028.48
509.20	31260.20
509.38	31278.92
509.55	30967.63
509.73	31297.64
509.90	31262.54
510.08	31260.20
510.25	31377.22
510.42	31466.16
510.60	31679.15
510.77	31580.85
510.95	31662.77
511.12	31634.68
511.30	32156.62
511.47	32538.13
511.64	32360.25
511.82	32271.31
511.99	32542.81
512.17	32573.24
512.34	31969.38
512.51	32243.22
512.69	32781.54
512.86	32980.49
513.04	33067.09
513.21	33263.69
513.38	32737.07
513.56	32814.31
513.73	33123.26
513.90	33284.76
514.08	32828.35
514.25	32980.49
514.43	33240.29
514.60	32973.47
514.77	33055.39
514.95	33574.98
515.12	33521.15
515.29	33432.21
515.47	34213.95
515.64	34335.66
515.81	33776.27
515.99	33766.91
516.16	33582.01
516.33	33584.35
516.51	33834.78
516.68	33228.59
516.85	33074.11
517.03	33284.76
517.20	33944.79
517.37	34389.49
517.54	34370.77
517.72	34213.95
517.89	33965.85
518.06	34005.64
518.24	34293.53
518.41	34078.20
518.58	34265.44
518.75	34417.58
518.93	34871.64
519.10	34611.84
519.27	34726.53
519.45	34881.00
519.62	35531.67
519.79	35463.80
519.96	35154.85
520.14	35314.00
520.31	34960.58
520.48	35512.95
520.65	35515.29
520.83	35292.94
521.00	36282.98
521.17	35971.69
521.34	36060.63
521.52	35714.23
521.69	36140.21
521.86	36748.75
522.03	36346.18
522.20	36608.32
522.38	36236.17
522.55	36451.50
522.72	36542.78
522.89	36252.56
523.07	36825.99
523.24	36343.84
523.41	36851.73
523.58	36804.92
523.75	37109.19
523.92	36744.07
524.10	37413.46
524.27	37282.39
524.44	37628.79
524.61	37120.90
524.78	37570.28
524.96	37572.62
525.13	37755.18
525.30	37511.77
525.47	37904.98
525.64	37219.20
525.81	37448.57
525.98	37900.29
526.16	37397.08
526.33	37504.74
526.50	37521.13
526.67	36903.23
526.84	37991.58
527.01	37340.91
527.18	37813.70
527.36	37851.14
527.53	38419.89
527.70	38464.36
527.87	38354.36
528.04	38249.03
528.21	38579.05
528.38	38515.86
528.55	38792.04
528.72	38946.51
528.89	39096.31
529.07	38775.66
529.24	38656.29
529.41	38810.76
529.58	38761.61
529.75	39164.18
529.92	39140.78
530.09	39108.01
530.26	39037.80
530.43	39105.67
530.60	38965.24
530.77	39220.36
530.94	39477.82
531.11	39608.89
531.28	39445.05
531.46	39636.97
531.63	39583.14
531.80	39431.01
531.97	39278.87
532.14	39260.15
532.31	39007.37
532.48	39559.73
532.65	39545.69
532.82	39821.87
532.99	40163.59
533.16	39754.00
533.33	40025.50
533.50	40095.72
533.67	39901.45
533.84	40011.46
534.01	40020.82
534.18	39660.38
534.35	40472.54
534.52	39828.90
534.69	40320.41
534.86	40837.67
535.03	40685.53
535.20	40755.75
535.37	40811.92
535.54	41350.24
535.71	40395.31
535.88	40870.43
536.05	40612.98
536.22	40837.67
536.38	40594.25
536.55	40392.97
536.72	41053.00
536.89	40439.78
537.06	40463.18
537.23	41099.81
537.40	41074.06
537.57	40699.58
537.74	41153.64
537.91	41116.19
538.08	41345.56
538.25	40821.28
538.42	40687.87
538.59	41352.58
538.75	40502.97
538.92	41467.27
539.09	41284.71
539.26	41422.80
539.43	41092.79
539.60	41298.75
539.77	41244.92
539.94	40952.35
540.11	41666.22
540.28	41338.54
540.44	41174.70
540.61	41539.83
540.78	41818.35
540.95	41411.10
541.12	41706.01
541.29	41532.81
541.46	41928.36
541.62	41734.09
541.79	41933.04
541.96	41518.76
542.13	41839.42
542.30	41338.54
542.47	41865.16
542.63	41956.44
542.80	42351.99
542.97	42319.23
543.14	42665.63
543.31	42267.73
543.48	42300.50
543.64	42799.04
543.81	42902.02
543.98	42960.53
544.15	42983.94
544.32	42995.64
544.48	43248.42
544.65	42733.50
544.82	42937.13
544.99	42513.49
545.16	42801.38
545.32	42649.24
545.49	43393.53
545.66	43480.13
545.83	43098.62
546.00	43309.27
546.16	42979.26
546.33	43112.67
546.50	42665.63
546.67	43068.20
546.83	42733.50
547.00	42951.17
547.17	43000.32
547.34	43171.18
547.50	43548.01
547.67	43440.34
547.84	43435.66
548.00	43452.05
548.17	44147.18
548.34	43845.26
548.51	43725.89
548.67	43732.91
548.84	43995.05
549.01	43489.49
549.18	43379.49
549.34	43370.13
549.51	43711.84
549.68	43725.89
549.84	43601.84
550.01	44238.47
550.18	43758.66
550.34	43779.72
550.51	43791.42
550.68	43587.80
550.84	43440.34
551.01	43889.73
551.18	43732.91
551.34	43681.42
551.51	44437.41
551.68	44449.11
551.84	44182.29
552.01	43770.36
552.18	44161.23
552.34	43599.50
552.51	44399.96
552.68	44098.03
552.84	44252.51
553.01	44055.90
553.18	44271.23
553.34	44505.29
553.51	44210.38
553.67	44687.85
553.84	44863.39
554.01	44767.43
554.17	44706.57
554.34	44619.97
554.51	44491.24
554.67	44648.06
554.84	45057.65
555.00	44662.10
555.17	44491.24
555.33	44500.61
555.50	44708.91
555.67	44884.45
555.83	44378.90
556.00	44671.46
556.16	45081.06
556.33	44671.46
556.50	44882.11
556.66	44996.80
556.83	44608.27
556.99	44891.48
557.16	44985.10
557.32	45017.86
557.49	45118.51
557.65	44701.89
557.82	45010.84
557.98	44828.28
558.15	45120.85
558.32	45198.09
558.48	44617.63
558.65	44774.45
558.81	44865.73
558.98	44907.86
559.14	44856.37
559.31	44938.29
559.47	45375.97
559.64	45373.63
559.80	45198.09
559.97	45385.33
560.13	44893.82
560.30	45191.06
560.46	45525.76
560.63	45399.37
560.79	45607.68
560.96	45713.00
561.12	45282.34
561.29	45289.37
561.45	45184.04
561.61	45202.77
561.78	45106.80
561.94	45261.28
562.11	45375.97
562.27	45146.59
562.44	45553.85
562.60	45673.21
562.77	45549.17
562.93	45799.60
563.10	45715.34
563.26	45146.59
563.42	45797.26
563.59	45574.91
563.75	45474.27
563.92	45504.70
564.08	45478.95
564.24	45638.11
564.41	45507.04
564.57	45476.61
564.74	45696.62
564.90	45329.16
565.07	45289.37
565.23	45294.05
565.39	45446.18
565.56	45366.60
565.72	45249.58
565.88	45495.33
566.05	45205.11
566.21	45734.07
566.38	45832.37
566.54	45677.90
566.70	45680.24
566.87	46019.61
567.03	45598.32
567.19	46169.41
567.36	46106.21
567.52	45860.46
567.68	45532.78
567.85	45813.65
568.01	45848.75
568.17	45762.15
568.34	45900.25
568.50	45628.74
568.66	45422.78
568.83	45947.06
568.99	45504.70
569.15	45478.95
569.32	45521.08
569.48	45448.52
569.64	45933.01
569.81	46110.89
569.97	45860.46
570.13	45659.17
570.30	45464.91
570.46	45453.20
570.62	45694.28
570.78	45553.85
570.95	45443.84
571.11	45762.15
571.27	45481.29
571.43	45696.62
571.60	45387.67
571.76	45642.79
571.92	45893.22
572.09	46050.04
572.25	45942.38
572.41	45666.19
572.57	45972.80
572.74	46321.54
572.90	45977.48
573.06	46096.85
573.22	45748.11
573.38	46209.20
573.55	45780.88
573.71	45860.46
573.87	46464.32
574.03	45811.31
574.20	45701.30
574.36	45549.17
574.52	45940.04
574.68	45954.08
574.84	45832.37
575.01	45422.78
575.17	45876.84
575.33	45584.27
575.49	45752.79
575.65	46244.30
575.82	45825.35
575.98	46092.17
576.14	46230.26
576.30	45975.14
576.46	45841.73
576.62	45406.39
576.79	45574.91
576.95	45736.41
577.11	46176.43
577.27	45682.58
577.43	45727.05
577.59	45661.51
577.75	45631.08
577.92	45628.74
578.08	45532.78
578.24	45851.09
578.40	45762.15
578.56	46101.53
578.72	45923.65
578.88	46623.47
579.04	45830.03
579.21	45666.19
579.37	46040.68
579.53	45708.32
579.69	45382.99
579.85	46113.23
580.01	45965.78
580.17	45713.00
580.33	45757.47
580.49	46059.40
580.65	45982.16
580.82	45979.82
580.98	45879.18
581.14	45698.96
581.30	45949.40
581.46	46127.28
581.62	45820.67
581.78	45970.46
581.94	46569.64
582.10	45883.86
582.26	45977.48
582.42	45783.22
582.58	45979.82
582.74	46410.48
582.90	45935.35
583.06	46188.13
583.22	46124.94
583.38	46454.95
583.54	46010.25
583.70	46181.11
583.86	46010.25
584.02	45886.20
584.18	46040.68
584.34	45921.31
584.50	45954.08
584.66	46050.04
584.82	46197.49
584.98	46415.16
585.14	46068.76
585.30	46040.68
585.46	45902.59
585.62	45815.99
585.78	46263.03
585.94	45940.04
586.10	45865.14
586.26	45741.09
586.42	46284.09
586.58	46354.31
586.74	46021.95
586.90	45727.05
587.06	45970.46
587.22	45900.25
587.38	46052.38
587.54	46068.76
587.70	46539.21
587.86	46038.34
588.02	45968.12
588.18	46216.22
588.34	45846.41
588.49	45586.61
588.65	45633.42
588.81	45748.11
588.97	45977.48
589.13	45593.64
589.29	45469.59
589.45	45563.21
589.61	45647.47
589.77	45883.86
589.93	45680.24
590.08	46157.70
590.24	46082.81
590.40	46270.05
590.56	46382.40
590.72	46260.69
590.88	46068.76
591.04	46073.45
591.20	46298.14
591.35	46586.02
591.51	46714.75
591.67	45823.01
591.83	46050.04
591.99	45776.20
592.15	46043.02
592.31	46176.43
592.46	46061.74
592.62	46344.95
592.78	46380.06
592.94	46253.67
593.10	45895.56
593.26	46220.90
593.41	45986.85
593.57	45467.25
593.73	45970.46
593.89	46387.08
594.05	46520.49
594.20	46040.68
594.36	46375.37
594.52	46192.81
594.68	46066.42
594.84	45846.41
594.99	46199.83
595.15	45911.95
595.31	46319.20
595.47	46241.96
595.62	46188.13
595.78	46487.72
595.94	46387.08
596.10	46356.65
596.25	46124.94
596.41	46007.91
596.57	46232.60
596.73	46206.86
596.88	45790.24
597.04	45991.53
597.20	46340.27
597.36	46103.87
597.51	46787.31
597.67	46387.08
597.83	46047.70
597.99	46459.63
598.14	45970.46
598.30	46047.70
598.46	46185.79
598.61	46457.29
598.77	45984.51
598.93	46492.40
599.09	46213.88
599.24	46576.66
599.40	46595.38
599.56	46576.66
599.71	46279.41
599.87	46300.48
600.03	46536.87
600.18	46349.63
600.34	46246.65
600.50	45881.52
600.65	46117.92
600.81	46164.73
600.97	46354.31
601.12	46539.21
601.28	46040.68
601.44	46099.19
601.59	45907.27
601.75	45893.22
601.91	45895.56
602.06	45762.15
602.22	46220.90
602.37	46106.21
602.53	46424.53
602.69	46553.26
602.84	45982.16
603.00	45844.07
603.16	46204.52
603.31	45937.69
603.47	46092.17
603.62	46108.55
603.78	46115.58
603.94	46117.92
604.09	46316.86
604.25	46284.09
604.40	45925.99
604.56	46246.65
604.71	46377.72
604.87	46405.80
605.03	45834.71
605.18	45776.20
605.34	46089.83
605.49	46117.92
605.65	46288.77
605.80	45972.80
605.96	45745.77
606.12	46071.10
606.27	45918.97
606.43	45626.40
606.58	46167.07
606.74	46101.53
606.89	46066.42
607.05	45883.86
607.20	46064.08
607.36	46375.37
607.51	46387.08
607.67	46092.17
607.82	45904.93
607.98	45869.82
608.13	45158.30
608.29	45588.95
608.44	45680.24
608.60	45687.26
608.75	45874.50
608.91	46003.23
609.06	45490.65
609.22	46019.61
609.37	45972.80
609.53	45984.51
609.68	45612.36
609.84	45750.45
609.99	45656.83
610.15	45111.49
610.30	45514.06
610.46	45797.26
610.61	45612.36
610.76	45691.94
610.92	45853.44
611.07	45471.93
611.23	45933.01
611.38	45600.66
611.54	45518.74
611.69	45249.58
611.84	45357.24
612.00	45212.13
612.15	45343.20
612.31	45392.35
612.46	45628.74
612.62	45483.63
612.77	45132.55
612.92	45551.51
613.08	45165.32
613.23	45497.67
613.39	44903.18
613.54	44790.83
613.69	45305.75
613.85	45015.52
614.00	45083.40
614.15	44926.58
614.31	45212.13
614.46	45387.67
614.62	45436.82
614.77	45076.38
614.92	44938.29
615.08	44701.89
615.23	45050.63
615.38	44832.96
615.54	44800.19
615.69	44343.79
615.84	44533.37
616.00	44973.39
616.15	45130.21
616.30	44781.47
616.46	45237.87
616.61	44287.62
616.76	44495.92
616.92	44339.11
617.07	44287.62
617.22	44275.91
617.37	44390.60
617.53	44854.03
617.68	44748.70
617.83	44437.41
617.99	44458.48
618.14	44662.10
618.29	44367.20
618.45	44226.76
618.60	44093.35
618.75	44016.11
618.90	44163.57
619.06	43723.55
619.21	44098.03
619.36	44121.44
619.51	44467.84
619.67	43805.47
619.82	44140.16
619.97	44156.55
620.12	43491.83
620.28	44091.01
620.43	44032.50
620.58	43962.28
620.73	43765.68
620.89	44296.98
621.04	44065.27
621.19	44226.76
621.34	44055.90
621.49	43660.35
621.65	43971.64
621.80	44421.03
621.95	43875.68
622.10	44091.01
622.25	43667.37
622.41	43973.98
622.56	43931.86
622.71	43796.10
622.86	43728.23
623.01	43395.87
623.16	43753.97
623.32	43613.54
623.47	44018.46
623.62	43433.32
623.77	43498.86
623.92	43304.59
624.07	43356.08
624.23	43068.20
624.38	43136.07
624.53	42904.36
624.68	43257.78
624.83	43196.93
624.98	42969.90
625.13	43145.44
625.29	43430.98
625.44	42890.32
625.59	43220.33
625.74	42923.08
625.89	43028.41
626.04	42813.08
626.19	43077.56
626.34	42766.27
626.49	43166.50
626.65	42710.10
626.80	43014.37
626.95	42878.61
627.10	43035.43
627.25	42880.95
627.40	42595.41
627.55	42099.22
627.70	42663.28
627.85	42504.13
628.00	42354.33
628.15	43180.54
628.30	42431.57
628.45	42707.76
628.60	42429.23
628.76	42501.79
628.91	42735.84
629.06	42326.25
629.21	42368.38
629.36	42139.00
629.51	42354.33
629.66	42586.05
629.81	41984.53
629.96	41624.09
630.11	42319.23
630.26	42408.17
630.41	42071.13
630.56	42155.39
630.71	41935.38
630.86	41902.61
631.01	42326.25
631.16	41949.42
631.31	41095.13
631.46	41343.22
631.61	42576.69
631.76	42089.85
631.91	42146.03
632.06	42089.85
632.21	42258.37
632.36	42188.16
632.51	41799.63
632.66	42178.79
632.81	41645.15
632.96	41811.33
633.10	41731.75
633.25	41605.36
633.40	41860.48
633.55	41830.05
633.70	41605.36
633.85	41612.38
634.00	41680.26
634.15	41607.70
634.30	41270.67
634.45	41535.15
634.60	41383.01
634.75	41481.31
634.90	41095.13
635.05	41308.11
635.19	41411.10
635.34	41469.61
635.49	41628.77
635.64	41317.48
635.79	41132.57
635.94	41207.47
636.09	40938.31
636.24	40484.25
636.39	40755.75
636.53	40959.38
636.68	40978.10
636.83	40758.09
636.98	40985.12
637.13	41170.02
637.28	41427.48
637.43	41460.25
637.57	41607.70
637.72	40961.72
637.87	40837.67
638.02	40732.34
638.17	41591.32
638.32	40636.38
638.46	40566.16
638.61	40191.68
638.76	40404.67
638.91	40634.04
639.06	40849.37
639.20	40999.16
639.35	40694.89
639.50	40172.96
639.65	40699.58
639.80	40933.63
639.94	40472.54
640.09	40570.85
640.24	40432.75
640.39	40832.99
640.54	40484.25
640.68	40196.36
640.83	40112.10
640.98	40084.01
641.13	40062.95
641.27	40233.81
641.42	39854.64
641.57	39999.76
641.72	40163.59
641.86	40065.29
642.01	40025.50
642.16	39803.15
642.31	39885.07
642.45	39978.69
642.60	39400.58
642.75	40304.02
642.90	39985.71
643.04	40184.66
643.19	39861.66
643.34	39889.75
643.48	39871.03
643.63	40004.44
643.78	39945.92
643.93	40238.49
644.07	39805.49
644.22	39576.12
644.37	39569.10
644.51	39491.86
644.66	39541.01
644.81	39550.37
644.95	39882.73
645.10	39683.78
645.25	39344.41
645.39	39543.35
645.54	39782.09
645.69	39573.78
645.83	39409.94
645.98	39002.69
646.13	39215.68
646.27	39316.32
646.42	38803.74
646.57	39290.57
646.71	39091.63
646.86	39358.45
647.00	39344.41
647.15	38773.31
647.30	39477.82
647.44	38902.04
647.59	39051.84
647.74	38698.42
647.88	39009.71
648.03	38682.03
648.17	38684.37
648.32	38478.41
648.47	38789.70
648.61	38969.92
648.76	39278.87
648.90	38572.03
649.05	39250.78
649.20	38878.64
649.34	38520.54
649.49	38569.69
649.63	38799.06
649.78	38824.81
649.92	38852.89
650.07	39026.09
650.21	38625.86
650.36	38590.75
650.51	39019.07
650.65	39122.05
650.80	39051.84
650.94	38899.70
651.09	38815.44
651.23	38209.25
651.38	38459.68
651.52	38014.98
651.67	37834.76
651.81	37928.38
651.96	38181.16
652.10	37914.34
652.25	38738.21
652.39	38429.26
652.54	38281.80
652.68	38618.84
652.83	39005.03
652.97	38675.01
653.12	38675.01
653.26	37469.64
653.41	37713.05
653.55	38443.30
653.70	38387.13
653.84	38270.10
653.99	37453.25
654.13	37914.34
654.27	37816.04
654.42	37975.19
654.56	38003.28
654.71	38139.03
654.85	37963.49
655.00	37511.77
655.14	37661.56
655.29	37364.31
655.43	37221.54
655.57	37235.58
655.72	37418.14
655.86	36910.25
656.01	36650.45
656.15	36830.67
656.30	36683.22
656.44	36968.76
656.58	37565.60
656.73	37160.69
656.87	37439.21
657.01	36669.17
657.16	37205.16
657.30	36732.37
657.45	37193.45
657.59	37069.40
657.73	36849.39
657.88	37357.29
658.02	36959.40
658.16	37347.93
658.31	37017.91
658.45	37244.94
658.60	36910.25
658.74	37029.62
658.88	37130.26
659.03	36943.02
659.17	36545.12
659.31	36587.25
659.46	36456.18
659.60	36620.02
659.74	36715.98
659.89	36257.24
660.03	36371.92
660.17	36821.31
660.32	36400.01
660.46	37036.64
660.60	36418.74
660.74	36119.15
660.89	36872.80
661.03	36006.80
661.17	36322.77
661.32	35725.94
661.46	35920.20
661.60	35653.38
661.74	36168.30
661.89	35938.93
662.03	35824.24
662.17	36130.85
662.31	35857.01
662.46	36591.94
662.60	35686.15
662.74	35873.39
662.88	35770.41
663.03	35700.19
663.17	35578.48
663.31	35440.39
663.45	35777.43
663.60	35718.92
663.74	35477.84
663.88	35065.91
664.02	34747.59
664.17	35454.44
664.31	35014.41
664.45	35026.12
664.59	35218.04
664.73	35044.84
664.88	34885.68
665.02	34450.35
665.16	35232.08
665.30	34448.00
665.44	34714.83
665.59	34581.42
665.73	34714.83
665.87	34639.93
666.01	34169.48
666.15	34293.53
666.29	34614.18
666.44	34909.09
666.58	34239.70
666.72	34417.58
666.86	34314.59
667.00	34260.76
667.14	34185.86
667.28	34244.38
667.43	33614.77
667.57	33937.77
667.71	33706.05
667.85	34415.24
667.99	33841.81
668.13	33958.83
668.27	33855.85
668.41	34220.97
668.56	33474.34
668.70	33497.75
668.84	33408.81
668.98	33418.17
669.12	33312.84
669.26	33497.75
669.40	32886.87
669.54	33254.33
669.68	33352.63
669.82	32751.12
669.96	32662.18
670.10	32769.84
670.25	33184.12
670.39	33071.77
670.53	32807.29
670.67	32821.33
670.81	32912.61
670.95	32474.93
671.09	32638.77
671.23	32519.40
671.37	32383.65
671.51	32231.52
671.65	32711.33
671.79	32308.76
671.93	31791.50
672.07	32030.23
672.21	32011.51
672.35	32142.58
672.49	31714.26
672.63	32025.55
672.77	31899.16
672.91	32084.06
673.05	31583.19
673.19	31594.89
673.33	31569.15
673.47	31426.37
673.61	31173.60
673.75	31131.47
673.89	31033.16
674.03	31140.83
674.17	31246.15
674.31	31225.09
674.45	31384.24
674.59	31314.03
674.73	31519.99
674.87	31030.82
675.01	31005.08
675.15	30520.59
675.29	30501.86
675.43	30749.96
675.56	30803.79
675.70	30494.84
675.84	30375.47
675.98	29455.64
676.12	30244.40
676.26	30403.56
676.40	30139.08
676.54	30251.42
676.68	30061.84
676.82	29762.25
676.96	29926.09
677.10	29427.56
677.23	29689.70
677.37	29535.22
677.51	29621.82
677.65	29017.96
677.79	29032.00
677.93	28807.31
678.07	28713.69
678.21	28631.77
678.34	28936.04
678.48	28355.59
678.62	28362.61
678.76	28011.53
678.90	28325.16
679.04	28250.27
679.18	28151.96
679.31	28009.19
679.45	27735.35
679.59	27761.09
679.73	27615.98
679.87	27910.89
680.00	27604.28
680.14	27967.06
680.28	27480.23
680.42	27356.18
680.56	27421.72
680.70	27728.33
680.83	27222.77
680.97	27138.51
681.11	27150.21
681.25	26899.78
681.39	27040.21
681.52	27129.15
681.66	26923.18
681.80	26724.24
681.94	26508.91
682.07	26295.92
682.21	26274.85
682.35	26340.39
682.49	26382.52
682.62	26328.69
682.76	25982.29
682.90	26188.25
683.04	26087.61
683.17	25968.24
683.31	25521.20
683.45	25727.17
683.59	25781.00
683.72	25596.10
683.86	25663.97
684.00	24943.09
684.13	25071.82
684.27	24943.09
684.41	24924.36
684.55	24847.13
684.68	24833.08
684.82	24652.86
684.96	24631.80
685.09	24622.44
685.23	24746.48
685.37	24519.45
685.50	24428.17
685.64	24812.02
685.78	24301.78
685.91	23910.91
686.05	23772.82
686.19	23807.93
686.32	23711.97
686.46	23730.69
686.60	23222.80
686.73	23370.25
686.87	23054.28
687.01	22703.20
687.14	22995.76
687.28	23042.57
687.42	22923.21
687.55	22810.86
687.69	23229.82
687.82	22850.65
687.96	22801.50
688.10	22635.32
688.23	22508.93
688.37	22794.48
688.50	22017.42
688.64	22319.35
688.78	22394.25
688.91	21771.66
689.05	22195.30
689.18	21949.54
689.32	21762.30
689.46	22078.27
689.59	22139.13
689.73	21888.69
689.86	21575.06
690.00	21575.06
690.13	21715.49
690.27	21259.09
690.41	20971.20
690.54	21151.42
690.68	21436.97
690.81	21149.08
690.95	21118.65
691.08	21158.44
691.22	20968.86
691.35	20903.32
691.49	20943.11
691.62	20776.94
691.76	20858.85
691.89	20601.40
692.03	20519.48
692.16	20526.50
692.30	20374.36
692.43	20156.69
692.57	19943.70
692.70	19831.36
692.84	19939.02
692.97	19798.59
693.11	19772.85
693.24	19293.04
693.38	19618.37
693.51	19510.71
693.65	19499.00
693.78	19482.62
693.92	19548.15
694.05	19227.50
694.19	19222.82
694.32	19168.99
694.45	19176.01
694.59	19365.59
694.72	18885.78
694.86	18686.84
694.99	18658.75
695.13	18710.24
695.26	18572.15
695.39	18504.28
695.53	18408.31
695.66	18733.65
695.80	18260.86
695.93	18244.48
696.07	18214.05
696.20	18185.96
696.33	18195.32
696.47	18209.37
696.60	17841.90
696.73	18155.54
696.87	17851.27
697.00	17444.01
697.14	17413.59
697.27	17303.58
697.40	17488.48
697.54	17436.99
697.67	17364.43
697.80	17240.39
697.94	17132.72
698.07	17287.20
698.21	17408.90
698.34	16952.50
698.47	17149.11
698.61	16554.61
698.74	16922.07
698.87	16622.48
699.01	16414.18
699.14	16393.11
699.27	16229.27
699.40	16283.11
699.54	16032.67
699.67	16271.40
699.80	15932.03
699.94	15901.60
700.07	16013.95
700.20	16140.33
700.34	16133.31
700.47	15779.89
700.60	15719.04
700.73	15669.89
700.87	15824.36
701.00	15520.09
701.13	15534.14
701.26	15248.59
701.40	15206.46
701.53	15255.61
701.66	15187.74
701.79	14941.98
701.93	15035.60
702.06	14773.46
702.19	15096.46
702.32	14759.42
702.46	14834.32
702.59	15016.88
702.72	14803.89
702.85	14745.38
702.99	14817.93
703.12	14588.56
703.25	14253.86
703.38	14410.68
703.51	14347.48
703.65	14253.86
703.78	14047.90
703.91	13935.55
704.04	14066.62
704.17	13717.88
704.31	13724.90
704.44	13738.94
704.57	13617.24
704.70	13657.03
704.83	13717.88
704.96	13441.70
705.10	13621.92
705.23	13261.48
>>>>>End Processed Spectral Data<<<<<
