SpectraSuite Data File
++++++++++++++++++++++++++++++++++++
Date: Fri Oct 25 11:34:08 EDT 2013
User: price-jones
Dark Spectrum Present: No
Reference Spectrum Present: No
Number of Sampled Component Spectra: 1
Spectrometers: USB2+H05261
Integration Time (usec): 100000 (USB2+H05261)
Spectra Averaged: 1 (USB2+H05261)
Boxcar Smoothing: 0 (USB2+H05261)
Correct for Electrical Dark: No (USB2+H05261)
Strobe/Lamp Enabled: No (USB2+H05261)
Correct for Detector Non-linearity: No (USB2+H05261)
Correct for Stray Light: No (USB2+H05261)
Number of Pixels in Processed Spectrum: 2048
>>>>>Begin Processed Spectral Data<<<<<
365.73	327.68
365.92	327.68
366.12	327.68
366.32	187.24
366.52	175.54
366.72	243.42
366.91	170.86
367.11	161.50
367.31	140.43
367.51	145.11
367.70	131.07
367.90	215.33
368.10	194.26
368.30	105.32
368.49	217.67
368.69	156.82
368.89	215.33
369.09	175.54
369.28	259.80
369.48	236.39
369.68	285.55
369.87	271.50
370.07	292.57
370.27	259.80
370.47	327.68
370.66	503.22
370.86	468.11
371.06	561.73
371.25	512.58
371.45	566.41
371.65	580.45
371.84	550.03
372.04	594.50
372.24	653.01
372.44	566.41
372.63	592.16
372.83	641.31
373.03	638.97
373.22	585.13
373.42	620.24
373.62	643.65
373.81	645.99
374.01	634.29
374.21	653.01
374.40	638.97
374.60	671.73
374.79	571.09
374.99	653.01
375.19	643.65
375.38	645.99
375.58	645.99
375.78	634.29
375.97	624.92
376.17	648.33
376.37	634.29
376.56	723.23
376.76	706.84
376.95	664.71
377.15	723.23
377.35	702.16
377.54	643.65
377.74	613.22
377.93	739.61
378.13	758.33
378.33	795.78
378.52	791.10
378.72	781.74
378.91	784.08
379.11	706.84
379.31	706.84
379.50	690.46
379.70	695.14
379.89	781.74
380.09	706.84
380.28	655.35
380.48	638.97
380.68	657.69
380.87	615.56
381.07	774.72
381.26	774.72
381.46	763.01
381.65	753.65
381.85	713.86
382.04	706.84
382.24	777.06
382.43	774.72
382.63	819.19
382.83	767.70
383.02	788.76
383.22	695.14
383.41	793.44
383.61	812.17
383.80	835.57
384.00	774.72
384.19	826.21
384.39	784.08
384.58	716.20
384.78	823.87
384.97	870.68
385.17	866.00
385.36	828.55
385.56	894.08
385.75	844.93
385.95	784.08
386.14	807.48
386.34	835.57
386.53	732.59
386.72	821.53
386.92	863.66
387.11	868.34
387.31	891.74
387.50	809.83
387.70	894.08
387.89	856.64
388.09	901.11
388.28	940.90
388.48	863.66
388.67	924.51
388.86	858.98
389.06	964.30
389.25	940.90
389.45	971.32
389.64	849.61
389.84	917.49
390.03	961.96
390.22	999.41
390.42	908.13
390.61	966.64
390.81	961.96
391.00	1004.09
391.19	976.00
391.39	943.24
391.58	971.32
391.78	887.06
391.97	933.87
392.16	945.58
392.36	1055.58
392.55	1050.90
392.75	992.39
392.94	1074.31
393.13	985.37
393.33	1086.01
393.52	1041.54
393.71	997.07
393.91	1020.47
394.10	1046.22
394.29	1109.41
394.49	1118.78
394.68	1097.71
394.88	1083.67
395.07	1142.18
395.26	1125.80
395.46	1107.07
395.65	1132.82
395.84	1212.40
396.04	1289.64
396.23	1191.33
396.42	1179.63
396.62	1198.35
396.81	1252.19
397.00	1245.16
397.19	1224.10
397.39	1132.82
397.58	1249.85
397.77	1226.44
397.97	1167.93
398.16	1191.33
398.35	1245.16
398.55	1291.98
398.74	1277.93
398.93	1259.21
399.12	1261.55
399.32	1320.06
399.51	1322.40
399.70	1355.17
399.90	1254.53
400.09	1336.45
400.28	1362.19
400.47	1345.81
400.67	1406.66
400.86	1401.98
401.05	1378.58
401.24	1390.28
401.44	1439.43
401.63	1434.75
401.82	1488.58
402.01	1521.35
402.21	1460.49
402.40	1528.37
402.59	1444.11
402.78	1526.03
402.97	1476.88
403.17	1467.52
403.36	1474.54
403.55	1582.20
403.74	1624.33
403.93	1488.58
404.13	1586.88
404.32	1671.14
404.51	1547.09
404.70	1652.42
404.89	1596.25
405.09	1610.29
405.28	1563.48
405.47	1596.25
405.66	1636.03
405.85	1783.49
406.05	1626.67
406.24	1755.40
406.43	1827.96
406.62	1816.26
406.81	1820.94
407.00	1720.29
407.20	1760.08
407.39	1743.70
407.58	1720.29
407.77	1703.91
407.96	1769.44
408.15	1832.64
408.34	1792.85
408.54	1891.15
408.73	1987.11
408.92	1813.92
409.11	1893.49
409.30	1863.07
409.49	1891.15
409.68	2019.88
409.87	2029.24
410.07	2031.58
410.26	2129.89
410.45	2036.27
410.64	2050.31
410.83	2066.69
411.02	2026.90
411.21	2129.89
411.40	2216.49
411.59	2183.72
411.78	2155.63
411.98	2078.40
412.17	2176.70
412.36	2256.28
412.55	2277.34
412.74	2305.43
412.93	2476.29
413.12	2331.17
413.31	2298.41
413.50	2246.91
413.69	2401.39
413.88	2490.33
414.07	2448.20
414.26	2438.84
414.45	2445.86
414.64	2487.99
414.83	2544.16
415.02	2445.86
415.22	2541.82
415.41	2616.72
415.60	2602.68
415.79	2567.57
415.98	2679.91
416.17	2785.24
416.36	2661.19
416.55	2630.76
416.74	2743.11
416.93	2733.75
417.12	2766.51
417.31	2787.58
417.50	2722.04
417.69	2867.16
417.88	2836.73
418.07	2850.77
418.26	2773.53
418.45	2951.42
418.64	3173.77
418.83	2881.20
419.02	2965.46
419.21	3124.62
419.39	3084.83
419.58	3138.66
419.77	2986.52
419.96	3066.10
420.15	3138.66
420.34	3056.74
420.53	3122.27
420.72	3059.08
420.91	3232.28
421.10	3262.71
421.29	3150.36
421.48	3066.10
421.67	3229.94
421.86	3241.64
422.05	3122.27
422.24	3234.62
422.43	3356.33
422.61	3211.22
422.80	3316.54
422.99	3267.39
423.18	3400.80
423.37	3449.95
423.56	3293.13
423.75	3417.18
423.94	3337.60
424.13	3108.23
424.32	3213.56
424.50	3265.05
424.69	3538.89
424.88	3426.54
425.07	3410.16
425.26	3314.20
425.45	3463.99
425.64	3344.63
425.83	3431.23
426.01	3463.99
426.20	3396.12
426.39	3321.22
426.58	3489.74
426.77	3297.81
426.96	3527.19
427.15	3431.23
427.33	3435.91
427.52	3466.33
427.71	3571.66
427.90	3611.45
428.09	3700.39
428.28	3574.00
428.46	3487.40
428.65	3548.25
428.84	3726.13
429.03	3747.20
429.22	3590.38
429.40	3632.51
429.59	3730.81
429.78	3639.53
429.97	3538.89
430.16	3772.94
430.34	3691.02
430.53	3878.27
430.72	3967.21
430.91	3655.92
431.10	3822.09
431.28	3829.12
431.47	3824.44
431.66	3936.78
431.85	3896.99
432.03	3875.93
432.22	4002.32
432.41	3971.89
432.60	4046.79
432.79	4056.15
432.97	3957.85
433.16	4145.09
433.35	3941.46
433.54	3868.91
433.72	4067.85
433.91	4065.51
434.10	4121.68
434.28	4196.58
434.47	4086.58
434.66	4170.83
434.85	4203.60
435.03	4222.33
435.22	4166.15
435.41	4297.22
435.59	4231.69
435.78	4234.03
435.97	4362.76
436.16	4170.83
436.34	4294.88
436.53	4414.25
436.72	4498.51
436.90	4442.34
437.09	4463.40
437.28	4360.42
437.46	4393.19
437.65	4472.76
437.84	4617.88
438.02	4444.68
438.21	4505.53
438.40	4383.82
438.58	4636.60
438.77	4737.24
438.96	4809.80
439.14	4674.05
439.33	4734.90
439.52	4943.21
439.70	4983.00
439.89	4992.36
440.08	4844.91
440.26	4816.82
440.45	4847.25
440.63	4980.66
440.82	5118.75
441.01	5060.24
441.19	5053.22
441.38	5085.98
441.57	5226.42
441.75	5107.05
441.94	5373.87
442.12	5401.96
442.31	5528.35
442.50	5275.57
442.68	5224.08
442.87	5348.12
443.05	5355.15
443.24	5488.56
443.43	5533.03
443.61	5444.09
443.80	5619.63
443.98	5397.28
444.17	5203.01
444.35	5432.38
444.54	5579.84
444.73	5544.73
444.91	5511.96
445.10	5603.24
445.28	5458.13
445.47	5511.96
445.65	5495.58
445.84	5680.48
446.02	5654.73
446.21	5600.90
446.39	5654.73
446.58	5497.92
446.77	5551.75
446.95	5589.20
447.14	5544.73
447.32	5771.76
447.51	5521.32
447.69	5579.84
447.88	5518.98
448.06	5540.05
448.25	5703.89
448.43	5753.04
448.62	5528.35
448.80	5783.46
448.99	5785.80
449.17	5804.53
449.36	5720.27
449.54	5834.96
449.73	5860.70
449.91	5851.34
450.10	5813.89
450.28	6064.33
450.46	5991.77
450.65	5949.64
450.83	5858.36
451.02	5858.36
451.20	6209.44
451.39	6033.90
451.57	6167.31
451.76	5902.83
451.94	6076.03
452.13	6181.35
452.31	6169.65
452.49	5984.75
452.68	6270.30
452.86	6054.97
453.05	6207.10
453.23	6286.68
453.42	6258.59
453.60	6043.26
453.78	6260.93
453.97	6413.07
454.15	6204.76
454.34	6410.73
454.52	6359.24
454.70	6289.02
454.89	6499.67
455.07	6499.67
455.26	6267.95
455.44	6520.73
455.62	6434.13
455.81	6497.33
455.99	6677.55
456.17	6576.91
456.36	6677.55
456.54	6642.44
456.73	6757.13
456.91	6693.93
457.09	6787.55
457.28	7021.61
457.46	6686.91
457.64	6925.65
457.83	6913.94
458.01	6878.83
458.19	7091.82
458.38	6963.09
458.56	7035.65
458.74	6974.80
458.93	7091.82
459.11	6993.52
459.29	7009.90
459.48	7241.62
459.66	7112.89
459.84	7108.21
460.03	7454.61
460.21	7194.81
460.39	7080.12
460.57	7337.58
460.76	7393.75
460.94	7389.07
461.12	7538.87
461.31	7248.64
461.49	7318.86
461.67	7318.86
461.85	7503.76
462.04	7445.24
462.22	7758.88
462.40	7674.62
462.59	7791.64
462.77	7492.05
462.95	7595.04
463.13	7676.96
463.32	7681.64
463.50	7679.30
463.68	7761.22
463.86	7744.83
464.05	7712.07
464.23	7705.04
464.41	7667.60
464.59	7658.23
464.78	7964.84
464.96	7850.16
465.14	7644.19
465.32	7894.63
465.50	7932.08
465.69	7903.99
465.87	7892.29
466.05	7852.50
466.23	7913.35
466.41	7964.84
466.60	8112.30
466.78	8032.72
466.96	8025.70
467.14	8119.32
467.32	8250.39
467.51	8257.41
467.69	8009.31
467.87	8107.62
468.05	8126.34
468.23	7964.84
468.41	8367.42
468.60	8217.62
468.78	8112.30
468.96	8198.90
469.14	8557.00
469.32	8514.87
469.50	8308.90
469.69	8535.93
469.87	8578.06
470.05	8341.67
470.23	8629.56
470.41	8437.63
470.59	8812.12
470.77	8613.17
470.95	8751.26
471.14	8784.03
471.32	8533.59
471.50	8786.37
471.68	8821.48
471.86	8887.01
472.04	9078.94
472.22	9100.00
472.40	8624.87
472.58	8973.61
472.77	9074.26
472.95	9107.02
473.13	9460.45
473.31	8940.85
473.49	9296.61
473.67	9221.71
473.85	9430.02
474.03	9462.79
474.21	9380.87
474.39	9652.37
474.57	9741.31
474.75	9645.35
474.93	9724.93
475.12	9696.84
475.30	9963.66
475.48	9657.05
475.66	9944.94
475.84	9799.82
476.02	10001.11
476.20	10015.15
476.38	10104.09
476.56	10167.29
476.74	10300.70
476.92	10200.05
477.10	10200.05
477.28	10539.43
477.46	10448.15
477.64	10677.52
477.82	10829.66
478.00	10958.39
478.18	10890.51
478.36	11080.10
478.54	11185.42
478.72	11267.34
478.90	11190.10
479.08	11358.62
479.26	11452.24
479.44	11487.35
479.62	11410.11
479.80	11620.76
479.98	11793.96
480.16	12060.78
480.34	11939.07
480.52	11899.28
480.70	12088.87
480.88	11775.24
481.06	12074.82
481.24	12243.34
481.41	12425.90
481.59	12596.76
481.77	12503.14
481.95	12748.90
482.13	12889.33
482.31	12842.52
482.49	13207.64
482.67	12840.18
482.85	13008.70
483.03	13231.05
483.21	13235.73
483.39	13387.86
483.57	13469.78
483.74	13982.36
483.92	13846.61
484.10	13781.07
484.28	13947.25
484.46	14132.15
484.64	14375.57
484.82	14232.80
485.00	14443.45
485.18	14361.53
485.35	14881.13
485.53	14717.29
485.71	14714.95
485.89	15016.88
486.07	15002.83
486.25	14963.04
486.43	14979.43
486.61	15063.69
486.78	15431.15
486.96	15592.65
487.14	15499.03
487.32	15789.25
487.50	15805.64
487.68	15803.30
487.85	16292.47
488.03	16463.33
488.21	16475.03
488.39	16428.22
488.57	16781.64
488.75	16652.91
488.92	16863.56
489.10	17142.08
489.28	16891.65
489.46	17331.67
489.64	17401.88
489.81	17420.61
489.99	17823.18
490.17	17752.96
490.35	18099.36
490.53	18394.27
490.70	18176.60
490.88	18216.39
491.06	18450.44
491.24	18747.69
491.41	18881.10
491.59	18841.31
491.77	18679.82
491.95	18700.88
492.13	19066.00
492.30	19302.40
492.48	19484.96
492.66	19290.70
492.84	19555.18
493.01	19913.28
493.19	19543.47
493.37	19810.29
493.54	19950.73
493.72	20203.50
493.90	19910.94
494.08	20168.40
494.25	20446.92
494.43	20470.33
494.61	20629.48
494.79	20992.26
494.96	20893.96
495.14	21022.69
495.32	21198.23
495.49	21336.32
495.67	21392.50
495.85	21514.20
496.02	21769.32
496.20	21701.45
496.38	21612.51
496.55	21825.50
496.73	22562.76
496.91	21977.63
497.09	22197.64
497.26	22602.55
497.44	22164.87
497.62	22338.07
497.79	23009.81
497.97	22504.25
498.14	22911.50
498.32	23140.88
498.50	22953.63
498.67	23147.90
498.85	23206.41
499.03	23173.64
499.20	23903.89
499.38	23716.65
499.56	23683.88
499.73	23665.16
499.91	23915.59
500.08	24418.81
500.26	23726.01
500.44	24112.20
500.61	24184.76
500.79	24056.03
500.97	24706.70
501.14	24800.32
501.32	24725.42
501.49	24599.03
501.67	24893.94
501.84	25123.31
502.02	25113.95
502.20	24982.88
502.37	24884.58
502.55	25074.16
502.72	25261.40
502.90	25254.38
503.07	25401.83
503.25	25612.48
503.43	25441.62
503.60	25521.20
503.78	25811.43
503.95	25881.64
504.13	25940.16
504.30	26235.06
504.48	26089.95
504.65	26380.18
504.83	26192.94
505.01	26609.55
505.18	26684.45
505.36	26714.87
505.53	26794.45
505.71	26977.01
505.88	26618.91
506.06	26960.63
506.23	27019.14
506.41	26998.08
506.58	27143.19
506.76	27117.45
506.93	27377.25
507.11	27056.59
507.28	27655.77
507.46	27370.22
507.63	27501.29
507.81	27772.80
507.98	27154.90
508.16	27725.99
508.33	27852.38
508.50	27931.95
508.68	27672.15
508.85	28133.24
509.03	28268.99
509.20	28191.75
509.38	28975.83
509.55	28386.02
509.73	28872.85
509.90	28823.70
510.08	28774.55
510.25	28769.86
510.42	28758.16
510.60	28861.15
510.77	29053.07
510.95	29347.98
511.12	29076.48
511.30	29455.64
511.47	29443.94
511.64	29741.19
511.82	29771.61
511.99	29509.47
512.17	29633.52
512.34	29736.51
512.51	29741.19
512.69	29996.31
512.86	30078.22
513.04	30155.46
513.21	30331.00
513.38	30253.76
513.56	30855.28
513.73	30305.26
513.90	30277.17
514.08	30363.77
514.25	30443.35
514.43	30579.10
514.60	30611.87
514.77	30583.78
514.95	31140.83
515.12	31145.51
515.29	31220.41
515.47	31105.72
515.64	31456.80
515.81	31072.95
515.99	31498.93
516.16	31723.62
516.33	31372.54
516.51	31580.85
516.68	31641.70
516.85	31681.49
517.03	31894.48
517.20	31960.02
517.37	32048.96
517.54	32226.84
517.72	31962.36
517.89	32245.56
518.06	32037.25
518.24	32156.62
518.41	32334.50
518.58	32313.44
518.75	32615.37
518.93	32617.71
519.10	32395.35
519.27	32584.94
519.45	32687.92
519.62	33394.76
519.79	33078.79
519.96	32528.77
520.14	32737.07
520.31	32788.56
520.48	33039.00
520.65	33411.15
520.83	33233.27
521.00	33708.40
521.17	33448.60
521.34	33738.82
521.52	33759.89
521.69	33785.63
521.86	33745.84
522.03	33865.21
522.20	34227.99
522.38	34485.45
522.55	34607.16
522.72	34136.71
522.89	34068.84
523.07	34843.56
523.24	34225.65
523.41	34167.14
523.58	34550.99
523.75	34906.75
523.92	34232.68
524.10	34684.40
524.27	34890.37
524.44	34920.79
524.61	34581.42
524.78	34946.54
524.96	34976.97
525.13	35065.91
525.30	35440.39
525.47	35576.14
525.64	35271.87
525.81	35482.52
525.98	35665.08
526.16	35360.81
526.33	35599.55
526.50	35786.79
526.67	35253.15
526.84	35791.47
527.01	35704.87
527.18	35896.80
527.36	36217.45
527.53	36018.50
527.70	36313.41
527.87	36311.07
528.04	35716.58
528.21	36273.62
528.38	36006.80
528.55	36442.14
528.72	36481.93
528.89	36339.16
529.07	36477.25
529.24	36388.31
529.41	36634.06
529.58	36554.49
529.75	36486.61
529.92	36699.60
530.09	36596.62
530.26	36692.58
530.43	36643.43
530.60	36755.77
530.77	37095.15
530.94	37177.07
531.11	36566.19
531.28	36924.29
531.46	37256.65
531.63	37081.11
531.80	37043.66
531.97	36882.16
532.14	37427.51
532.31	37378.36
532.48	37418.14
532.65	37525.81
532.82	37366.65
532.99	37787.95
533.16	37647.52
533.33	38101.58
533.50	38036.05
533.67	37755.18
533.84	37551.56
534.01	38197.54
534.18	37652.20
534.35	38450.32
534.52	38274.78
534.69	38415.21
534.86	38494.79
535.03	38178.82
535.20	38239.67
535.37	38445.64
535.54	38869.28
535.71	37984.55
535.88	38660.97
536.05	38817.78
536.22	39065.88
536.38	38639.90
536.55	38171.80
536.72	39009.71
536.89	38843.53
537.06	38883.32
537.23	38728.84
537.40	38597.77
537.57	38553.30
537.74	38930.13
537.91	39278.87
538.08	39082.27
538.25	39086.95
538.42	39262.49
538.59	39604.20
538.75	38986.30
538.92	39585.48
539.09	39751.66
539.26	39409.94
539.43	39428.66
539.60	39810.17
539.77	39510.58
539.94	39894.43
540.11	39732.93
540.28	39866.34
540.44	39622.93
540.61	39812.51
540.78	39864.00
540.95	40264.24
541.12	39751.66
541.29	39929.54
541.46	40051.25
541.62	40053.59
541.79	40531.06
541.96	39882.73
542.13	40299.34
542.30	39908.47
542.47	40498.29
542.63	40339.13
542.80	40545.10
542.97	41010.87
543.14	40678.51
543.31	40776.81
543.48	40975.76
543.64	41146.62
543.81	40863.41
543.98	41219.17
544.15	40751.07
544.32	41390.03
544.48	41240.24
544.65	41235.56
544.82	41258.96
544.99	41027.25
545.16	41277.69
545.32	41123.21
545.49	41773.88
545.66	41345.56
545.83	41778.56
546.00	41497.70
546.16	41319.82
546.33	41635.79
546.50	41673.24
546.67	41787.92
546.83	41233.22
547.00	41603.02
547.17	41486.00
547.34	41745.80
547.50	41837.08
547.67	42307.52
547.84	42185.82
548.00	42164.75
548.17	42492.43
548.34	42059.43
548.51	42157.73
548.67	42403.49
548.84	42239.65
549.01	42267.73
549.18	42459.66
549.34	42302.84
549.51	42717.12
549.68	42621.16
549.84	42286.46
550.01	42569.66
550.18	42389.44
550.34	42700.73
550.51	42665.63
550.68	42696.05
550.84	42096.88
551.01	43166.50
551.18	42230.29
551.34	42719.46
551.51	42546.26
551.68	42403.49
551.84	42855.21
552.01	42756.91
552.18	42616.47
552.34	43056.50
552.51	42864.57
552.68	42869.25
552.84	43182.88
553.01	43571.41
553.18	43023.73
553.34	42965.21
553.51	43246.08
553.67	43309.27
553.84	43386.51
554.01	43391.19
554.17	43407.58
554.34	43711.84
554.51	43955.26
554.67	43871.00
554.84	43613.54
555.00	43718.87
555.17	43358.42
555.33	43641.63
555.50	43573.75
555.67	43751.63
555.83	43746.95
556.00	43660.35
556.16	43887.39
556.33	43746.95
556.50	43871.00
556.66	43824.19
556.83	43519.92
556.99	44105.06
557.16	43793.76
557.32	44100.37
557.49	44341.45
557.65	43983.35
557.82	44418.69
557.98	43854.62
558.15	44196.34
558.32	44313.36
558.48	44102.71
558.65	43807.81
558.81	44261.87
558.98	43861.64
559.14	44177.61
559.31	44392.94
559.47	44013.77
559.64	44360.17
559.80	44549.76
559.97	44753.38
560.13	44486.56
560.30	43941.22
560.46	44594.23
560.63	44837.64
560.79	44865.73
560.96	44795.51
561.12	44823.60
561.29	44493.58
561.45	44535.71
561.61	44273.57
561.78	44744.02
561.94	44601.25
562.11	44636.36
562.27	44713.59
562.44	44694.87
562.60	44903.18
562.77	44882.11
562.93	45043.61
563.10	45003.82
563.26	44594.23
563.42	45027.23
563.59	44690.19
563.75	44865.73
563.92	45347.88
564.08	44989.78
564.24	45322.13
564.41	45331.50
564.57	44519.33
564.74	45034.25
564.90	44409.32
565.07	45132.55
565.23	44919.56
565.39	45247.24
565.56	44842.32
565.72	45275.32
565.88	44959.35
566.05	45132.55
566.21	45151.27
566.38	44847.00
566.54	45457.88
566.70	45490.65
566.87	44863.39
567.03	45399.37
567.19	45558.53
567.36	45371.28
567.52	45296.39
567.68	45134.89
567.85	45226.17
568.01	45373.63
568.17	45675.55
568.34	45179.36
568.50	45624.06
568.66	44999.14
568.83	45645.13
568.99	45457.88
569.15	45455.54
569.32	45544.48
569.48	45038.93
569.64	46005.57
569.81	45500.01
569.97	45553.85
570.13	45708.32
570.30	45291.71
570.46	45659.17
570.62	45717.68
570.78	45633.42
570.95	46028.98
571.11	46019.61
571.27	45422.78
571.43	45556.19
571.60	46075.79
571.76	45684.92
571.92	45897.91
572.09	45509.38
572.25	45415.76
572.41	45790.24
572.57	45792.58
572.74	45785.56
572.90	46026.63
573.06	45970.46
573.22	46188.13
573.38	45698.96
573.55	46010.25
573.71	45900.25
573.87	46253.67
574.03	45989.19
574.20	46026.63
574.36	45588.95
574.52	46183.45
574.68	46101.53
574.84	45935.35
575.01	46092.17
575.17	46469.00
575.33	45813.65
575.49	45677.90
575.65	45808.96
575.82	45895.56
575.98	45605.34
576.14	46429.21
576.30	46272.39
576.46	46024.29
576.62	45815.99
576.79	46021.95
576.95	45619.38
577.11	45911.95
577.27	46082.81
577.43	46211.54
577.59	45993.87
577.75	45947.06
577.92	45567.89
578.08	46234.94
578.24	46117.92
578.40	46511.13
578.56	46363.67
578.72	46174.09
578.88	46068.76
579.04	46536.87
579.21	45717.68
579.37	46232.60
579.53	46309.84
579.69	46007.91
579.85	46073.45
580.01	46138.98
580.17	45867.48
580.33	46356.65
580.49	46010.25
580.65	46443.25
580.82	46043.02
580.98	46431.55
581.14	45860.46
581.30	46129.62
581.46	45942.38
581.62	45902.59
581.78	45883.86
581.94	46471.34
582.10	46157.70
582.26	46553.26
582.42	45918.97
582.58	46181.11
582.74	46157.70
582.90	45895.56
583.06	45944.72
583.22	45993.87
583.38	46756.88
583.54	46295.80
583.70	46291.12
583.86	46677.30
584.02	46234.94
584.18	46829.44
584.34	46473.68
584.50	46396.44
584.66	46574.32
584.82	46438.57
584.98	46370.69
585.14	46560.28
585.30	46099.19
585.46	46272.39
585.62	46213.88
585.78	46263.03
585.94	46000.89
586.10	46190.47
586.26	46218.56
586.42	46220.90
586.58	46174.09
586.74	46305.16
586.90	46291.12
587.06	46127.28
587.22	46351.97
587.38	46277.07
587.54	46735.82
587.70	46461.97
587.86	46597.73
588.02	46281.75
588.18	46600.07
588.34	46354.31
588.49	46389.42
588.65	46892.63
588.81	46787.31
588.97	46307.50
589.13	46515.81
589.29	46291.12
589.45	46773.27
589.61	46485.38
589.77	46440.91
589.93	46644.54
590.08	46780.29
590.24	46887.95
590.40	46567.30
590.56	47037.75
590.72	46279.41
590.88	46433.89
591.04	46890.29
591.20	47051.79
591.35	46855.18
591.51	46845.82
591.67	46852.84
591.83	47103.28
591.99	46834.12
592.15	46508.79
592.31	46770.93
592.46	46981.57
592.62	47044.77
592.78	47178.18
592.94	47253.08
593.10	46948.81
593.26	47173.50
593.41	47147.75
593.57	47325.63
593.73	46993.28
593.89	47508.19
594.05	47119.66
594.20	47196.90
594.36	47152.43
594.52	46705.39
594.68	47203.92
594.84	46836.46
594.99	47194.56
595.15	47136.05
595.31	46911.36
595.47	47082.22
595.62	47026.04
595.78	47248.39
595.94	47540.96
596.10	46855.18
596.25	47435.64
596.41	46916.04
596.57	46766.24
596.73	47136.05
596.88	47154.77
597.04	47175.84
597.20	47629.90
597.36	47316.27
597.51	47288.18
597.67	46902.00
597.83	47180.52
597.99	47285.84
598.14	46569.64
598.30	46871.57
598.46	47227.33
598.61	47566.71
598.77	47442.66
598.93	46944.12
599.09	47037.75
599.24	47648.63
599.40	47217.97
599.56	47119.66
599.71	47812.46
599.87	47510.53
600.03	47393.51
600.18	47721.18
600.34	47089.24
600.50	47248.39
600.65	47377.12
600.81	47515.22
600.97	47224.99
601.12	47416.91
601.28	47133.71
601.44	47164.14
601.59	47264.78
601.75	47232.01
601.91	47650.97
602.06	47295.21
602.22	47421.59
602.37	47356.06
602.53	47826.51
602.69	47360.74
602.84	47129.03
603.00	47365.42
603.16	47260.10
603.31	47105.62
603.47	47271.80
603.62	47426.28
603.78	47339.68
603.94	47349.04
604.09	47330.31
604.25	47459.04
604.40	47316.27
604.56	47409.89
604.71	47498.83
604.87	47065.83
605.03	46862.21
605.18	47395.85
605.34	46801.35
605.49	46787.31
605.65	47337.33
605.80	47313.93
605.96	47365.42
606.12	46990.94
606.27	47086.90
606.43	47250.74
606.58	46670.28
606.74	46836.46
606.89	47627.56
607.05	47311.59
607.20	47325.63
607.36	47075.19
607.51	47002.64
607.67	47026.04
607.82	46960.51
607.98	46773.27
608.13	46997.96
608.29	47271.80
608.44	47381.80
608.60	47154.77
608.75	47393.51
608.91	47323.29
609.06	46719.43
609.22	47393.51
609.37	46653.90
609.53	46850.50
609.68	47199.24
609.84	46684.33
609.99	47028.38
610.15	47042.43
610.30	46703.05
610.46	46759.22
610.61	47012.00
610.76	46794.33
610.92	46742.84
611.07	46644.54
611.23	46600.07
611.38	46817.74
611.54	47047.11
611.69	46902.00
611.84	46782.63
612.00	46834.12
612.15	46724.11
612.31	46799.01
612.46	46579.00
612.62	46869.23
612.77	47070.51
612.92	47070.51
613.08	46387.08
613.23	46876.25
613.39	46923.06
613.54	46490.06
613.69	46410.48
613.85	46632.83
614.00	46677.30
614.15	46440.91
614.31	46515.81
614.46	46518.15
614.62	46239.62
614.77	46576.66
614.92	46380.06
615.08	46703.05
615.23	46761.56
615.38	46639.86
615.54	46658.58
615.69	46782.63
615.84	46651.56
616.00	46373.03
616.15	46649.22
616.30	46197.49
616.46	46094.51
616.61	46403.46
616.76	46213.88
616.92	46019.61
617.07	46300.48
617.22	46052.38
617.37	46150.68
617.53	46368.35
617.68	45970.46
617.83	45830.03
617.99	46696.03
618.14	46454.95
618.29	45925.99
618.45	46160.05
618.60	46323.88
618.75	46057.06
618.90	45848.75
619.06	45998.55
619.21	45893.22
619.36	46401.12
619.51	46003.23
619.67	45881.52
619.82	46026.63
619.97	46199.83
620.12	46000.89
620.28	45827.69
620.43	45982.16
620.58	45918.97
620.73	45886.20
620.89	46366.01
621.04	45911.95
621.19	45923.65
621.34	46014.93
621.49	45666.19
621.65	45682.58
621.80	45867.48
621.95	45647.47
622.10	45830.03
622.25	45705.98
622.41	45645.13
622.56	45666.19
622.71	45647.47
622.86	45801.94
623.01	45897.91
623.16	45265.96
623.32	45771.52
623.47	45319.79
623.62	45928.33
623.77	45488.31
623.92	45806.62
624.07	45617.04
624.23	45558.53
624.38	45556.19
624.53	45422.78
624.68	45563.21
624.83	45446.18
624.98	44987.44
625.13	45008.50
625.29	45214.47
625.44	45268.30
625.59	45457.88
625.74	44996.80
625.89	44758.06
626.04	45467.25
626.19	45017.86
626.34	45282.34
626.49	44713.59
626.65	44526.35
626.80	44968.71
626.95	44669.12
627.10	44306.34
627.25	44851.69
627.40	44786.15
627.55	44961.69
627.70	44715.93
627.85	45038.93
628.00	44921.90
628.15	44891.48
628.30	44708.91
628.45	44374.22
628.60	44091.01
628.76	44388.26
628.91	44505.29
629.06	44238.47
629.21	44521.67
629.36	44685.51
629.51	44458.48
629.66	44823.60
629.81	44849.35
629.96	44521.67
630.11	44474.86
630.26	44257.19
630.41	44453.79
630.56	44189.31
630.71	44383.58
630.86	44250.17
631.01	44016.11
631.16	44280.60
631.31	43756.32
631.46	44350.81
631.61	44062.93
631.76	43943.56
631.91	44638.70
632.06	44608.27
632.21	44329.75
632.36	44346.13
632.51	43765.68
632.66	44205.70
632.81	44156.55
632.96	43725.89
633.10	43559.71
633.25	43613.54
633.40	44484.22
633.55	44575.50
633.70	43564.39
633.85	43784.40
634.00	43765.68
634.15	43601.84
634.30	43786.74
634.45	43669.72
634.60	43641.63
634.75	43896.75
634.90	43922.49
635.05	43540.99
635.19	43540.99
635.34	43768.02
635.49	43679.08
635.64	43959.94
635.79	44074.63
635.94	43473.11
636.09	43592.48
636.24	43641.63
636.39	43395.87
636.53	43583.12
636.68	43438.00
636.83	43143.09
636.98	43077.56
637.13	43089.26
637.28	43072.88
637.43	43255.44
637.57	43091.60
637.72	43299.91
637.87	43154.80
638.02	43599.50
638.17	43084.58
638.32	42927.77
638.46	42527.53
638.61	42962.87
638.76	42623.50
638.91	43056.50
639.06	43030.75
639.20	42667.97
639.35	42759.25
639.50	42555.62
639.65	43037.77
639.80	42897.34
639.94	43009.68
640.09	42993.30
640.24	43234.38
640.39	42782.65
640.54	42506.47
640.68	42768.61
640.83	42740.52
640.98	42270.08
641.13	42876.27
641.27	42873.93
641.42	42251.35
641.57	42782.65
641.72	42618.81
641.86	42710.10
642.01	42359.02
642.16	42307.52
642.31	42078.15
642.45	42857.55
642.60	41930.70
642.75	42160.07
642.90	42780.31
643.04	42223.26
643.19	42260.71
643.34	42246.67
643.48	41794.95
643.63	42354.33
643.78	42293.48
643.93	42408.17
644.07	42328.59
644.22	41834.74
644.37	42134.32
644.51	42384.76
644.66	42422.21
644.81	41888.57
644.95	42171.77
645.10	42003.25
645.25	41776.22
645.39	41647.49
645.54	42054.75
645.69	42190.50
645.83	41759.84
645.98	41816.01
646.13	41579.62
646.27	42122.62
646.42	41198.11
646.57	42085.17
646.71	41837.08
646.86	41818.35
647.00	41584.30
647.15	42075.81
647.30	41853.46
647.44	41935.38
647.59	41364.29
647.74	41352.58
647.88	41689.62
648.03	41722.39
648.17	41703.67
648.32	41830.05
648.47	41762.18
648.61	41216.83
648.76	41619.41
648.90	41242.58
649.05	41572.60
649.20	41034.27
649.34	41163.00
649.49	40954.69
649.63	41493.02
649.78	41242.58
649.92	41563.23
650.07	41804.31
650.21	41368.97
650.36	41598.34
650.51	41235.56
650.65	41581.96
650.80	41273.01
650.94	41057.68
651.09	40617.66
651.23	40662.13
651.38	41214.49
651.52	40318.07
651.67	40935.97
651.81	41205.13
651.96	40821.28
652.10	40622.34
652.25	40704.26
652.39	40694.89
652.54	41380.67
652.68	40435.10
652.83	40545.10
652.97	40854.05
653.12	40671.49
653.26	40704.26
653.41	40446.80
653.55	40451.48
653.70	40634.04
653.84	40861.07
653.99	41132.57
654.13	40531.06
654.27	40526.38
654.42	40605.95
654.56	40208.06
654.71	40722.98
654.85	40587.23
655.00	40697.24
655.14	40868.09
655.29	40795.54
655.43	40641.06
655.57	40187.00
655.72	39976.35
655.86	40210.40
656.01	39889.75
656.15	39864.00
656.30	40187.00
656.44	40348.50
656.58	40360.20
656.73	40165.93
656.87	39887.41
657.01	39828.90
657.16	40142.53
657.30	40313.39
657.45	39985.71
657.59	39978.69
657.73	39578.46
657.88	39707.19
658.02	39580.80
658.16	39861.66
658.31	39641.65
658.45	39754.00
658.60	39648.68
658.74	39634.63
658.88	39744.64
659.03	39768.04
659.17	39627.61
659.31	39402.92
659.46	39136.10
659.60	39475.48
659.74	39311.64
659.89	39281.21
660.03	38932.47
660.17	39005.03
660.32	39234.40
660.46	39168.87
660.60	38609.48
660.74	39047.16
660.89	38932.47
661.03	38902.04
661.17	38539.26
661.32	38974.60
661.46	38679.69
661.60	38525.22
661.74	38885.66
661.89	38366.06
662.03	38845.87
662.17	38618.84
662.31	38155.41
662.46	38445.64
662.60	38443.30
662.74	38239.67
662.88	38185.84
663.03	37979.87
663.17	37226.22
663.31	37804.33
663.45	37947.11
663.60	38735.87
663.74	37790.29
663.88	37820.72
664.02	37488.36
664.17	38363.72
664.31	37542.19
664.45	37771.57
664.59	37851.14
664.73	38014.98
664.88	37366.65
665.02	37118.56
665.16	37577.30
665.30	37425.17
665.44	37123.24
665.59	37064.72
665.73	37380.70
665.87	37067.06
666.01	37394.74
666.15	37139.62
666.29	36662.15
666.44	37083.45
666.58	37184.09
666.72	36924.29
666.86	36327.45
667.00	36559.17
667.14	37165.37
667.28	36671.51
667.43	36891.52
667.57	36765.14
667.71	36332.14
667.85	36877.48
667.99	36484.27
668.13	36378.95
668.27	36184.68
668.41	36273.62
668.56	35445.07
668.70	35936.59
668.84	35763.39
668.98	35548.06
669.12	36144.89
669.26	36191.70
669.40	35667.42
669.54	35950.63
669.68	35833.60
669.82	35711.89
669.96	35374.86
670.10	35068.25
670.25	35019.10
670.39	35182.93
670.53	35269.53
670.67	35110.38
670.81	35388.90
670.95	35037.82
671.09	35290.60
671.23	35227.40
671.37	35093.99
671.51	34864.62
671.65	34239.70
671.79	34738.23
671.93	34728.87
672.07	34824.83
672.21	34660.99
672.35	34288.85
672.49	34714.83
672.63	34646.95
672.77	33914.36
672.91	34405.88
673.05	34045.43
673.19	33546.90
673.33	33741.16
673.47	33692.01
673.61	33483.70
673.75	33666.27
673.89	33771.59
674.03	33347.95
674.17	33275.40
674.31	33106.88
674.45	33343.27
674.59	33177.09
674.73	33067.09
674.87	32985.17
675.01	32896.23
675.15	32355.57
675.29	32793.25
675.43	32582.60
675.56	32718.35
675.70	32421.10
675.84	32851.76
675.98	31278.92
676.12	32577.92
676.26	32727.71
676.40	32065.34
676.54	31786.82
676.68	31969.38
676.82	31337.43
676.96	31700.22
677.10	32119.17
677.23	31555.10
677.37	31611.28
677.51	31318.71
677.65	31311.69
677.79	31271.90
677.93	31220.41
678.07	31419.35
678.21	30787.41
678.34	31229.77
678.48	30579.10
678.62	30817.83
678.76	30291.21
678.90	30338.02
679.04	30572.08
679.18	30602.50
679.31	30277.17
679.45	30459.73
679.59	30174.19
679.73	29788.00
679.87	29933.11
680.00	29769.27
680.14	29610.12
680.28	29596.07
680.42	29689.70
680.56	29244.99
680.70	29563.31
680.83	29221.59
680.97	28872.85
681.11	29106.90
681.25	28493.68
681.39	28570.92
681.52	28919.66
681.66	28484.32
681.80	27929.61
681.94	27903.87
682.07	28011.53
682.21	28039.62
682.35	28116.86
682.49	28051.32
682.62	27913.23
682.76	28130.90
682.90	27880.46
683.04	27585.55
683.17	28018.55
683.31	27232.13
683.45	27379.59
683.59	27014.46
683.72	26808.50
683.86	26892.76
684.00	26864.67
684.13	26913.82
684.27	26555.72
684.41	26799.13
684.55	26604.87
684.68	26532.31
684.82	26146.12
684.96	26256.13
685.09	26412.95
685.23	26160.17
685.37	26478.48
685.50	26546.36
685.64	26171.87
685.78	26038.46
685.91	25895.69
686.05	25095.22
686.19	24999.26
686.32	25717.81
686.46	25041.39
686.60	24797.98
686.73	24959.47
686.87	24910.32
687.01	24849.47
687.14	24943.09
687.28	24531.15
687.42	24868.19
687.55	24704.35
687.69	24659.88
687.82	24393.06
687.96	23981.13
688.10	24201.14
688.23	24496.05
688.37	24224.54
688.50	24414.13
688.64	24123.90
688.78	23894.53
688.91	23892.19
689.05	23754.10
689.18	23232.16
689.32	22911.50
689.46	23353.87
689.59	23276.63
689.73	23541.11
689.86	23302.37
690.00	22970.02
690.13	23080.02
690.27	22696.17
690.41	22597.87
690.54	22731.28
690.68	22286.58
690.81	22415.31
690.95	22274.88
691.08	22291.26
691.22	22132.11
691.35	21748.26
691.49	22235.09
691.62	22047.85
691.76	21734.21
691.89	21406.54
692.03	21310.58
692.16	21254.40
692.30	21324.62
692.43	21256.75
692.57	21055.46
692.70	21193.55
692.84	21050.78
692.97	20795.66
693.11	20699.70
693.24	20540.54
693.38	20563.95
693.51	20205.84
693.65	20432.88
693.78	20329.89
693.92	20374.36
694.05	20247.97
694.19	20215.21
694.32	20144.99
694.45	20355.64
694.59	19950.73
694.72	19950.73
694.86	19917.96
694.99	19606.67
695.13	19400.70
695.26	19370.27
695.39	19363.25
695.53	19157.28
695.66	19192.39
695.80	19105.79
695.93	18892.80
696.07	18817.91
696.20	18675.13
696.33	18373.21
696.47	18272.56
696.60	18389.59
696.73	18363.84
696.87	18373.21
697.00	18515.98
697.14	17998.72
697.27	18216.39
697.40	18090.00
697.54	18078.30
697.67	18068.94
697.80	17884.03
697.94	17511.89
698.07	17525.93
698.21	17345.71
698.34	17575.08
698.47	17652.32
698.61	17226.34
698.74	17057.82
698.87	17198.26
699.01	17011.01
699.14	17221.66
699.27	17076.55
699.40	16978.25
699.54	16585.04
699.67	16692.70
699.80	16954.84
699.94	16657.59
700.07	16685.68
700.20	16255.02
700.34	16133.31
700.47	16329.92
700.60	16262.04
700.73	16056.08
700.87	16081.82
701.00	15807.98
701.13	15964.79
701.26	15604.35
701.40	15852.45
701.53	15822.02
701.66	15672.23
701.79	15599.67
701.93	15346.89
702.06	15276.68
702.19	15342.21
702.32	15325.83
702.46	15279.02
702.59	15353.91
702.72	15234.55
702.85	15173.69
702.99	14857.72
703.12	14565.15
703.25	14473.87
703.38	14728.99
703.51	14473.87
703.65	14635.37
703.78	14181.31
703.91	14153.22
704.04	14181.31
704.17	14188.33
704.31	14441.11
704.44	14188.33
704.57	13895.76
704.70	14047.90
704.83	13748.31
704.96	13823.20
705.10	13647.66
705.23	13434.68
>>>>>End Processed Spectral Data<<<<<
