SpectraSuite Data File
++++++++++++++++++++++++++++++++++++
Date: Fri Oct 25 11:34:21 EDT 2013
User: price-jones
Dark Spectrum Present: No
Reference Spectrum Present: No
Number of Sampled Component Spectra: 1
Spectrometers: USB2+H05261
Integration Time (usec): 100000 (USB2+H05261)
Spectra Averaged: 1 (USB2+H05261)
Boxcar Smoothing: 0 (USB2+H05261)
Correct for Electrical Dark: No (USB2+H05261)
Strobe/Lamp Enabled: No (USB2+H05261)
Correct for Detector Non-linearity: No (USB2+H05261)
Correct for Stray Light: No (USB2+H05261)
Number of Pixels in Processed Spectrum: 2048
>>>>>Begin Processed Spectral Data<<<<<
365.73	243.42
365.92	243.42
366.12	243.42
366.32	142.77
366.52	121.71
366.72	255.12
366.91	224.69
367.11	170.86
367.31	145.11
367.51	222.35
367.70	145.11
367.90	252.78
368.10	215.33
368.30	149.79
368.49	107.66
368.69	210.65
368.89	154.48
369.09	159.16
369.28	184.90
369.48	205.97
369.68	227.03
369.87	161.50
370.07	257.46
370.27	229.37
370.47	304.27
370.66	479.81
370.86	484.49
371.06	514.92
371.25	571.09
371.45	571.09
371.65	571.09
371.84	559.39
372.04	538.32
372.24	620.24
372.44	613.22
372.63	554.71
372.83	533.64
373.03	603.86
373.22	566.41
373.42	585.13
373.62	606.20
373.81	636.63
374.01	613.22
374.21	613.22
374.40	564.07
374.60	725.57
374.79	589.82
374.99	634.29
375.19	608.54
375.38	660.03
375.58	580.45
375.78	620.24
375.97	627.26
376.17	692.80
376.37	638.97
376.56	636.63
376.76	669.39
376.95	643.65
377.15	727.91
377.35	627.26
377.54	624.92
377.74	690.46
377.93	669.39
378.13	636.63
378.33	638.97
378.52	657.69
378.72	725.57
378.91	709.18
379.11	723.23
379.31	685.78
379.50	732.59
379.70	723.23
379.89	788.76
380.09	753.65
380.28	746.63
380.48	781.74
380.68	697.48
380.87	681.10
381.07	716.20
381.26	788.76
381.46	739.61
381.65	692.80
381.85	751.31
382.04	770.04
382.24	753.65
382.43	741.95
382.63	763.01
382.83	774.72
383.02	884.72
383.22	788.76
383.41	765.36
383.61	772.38
383.80	837.91
384.00	826.21
384.19	858.98
384.39	837.91
384.58	828.55
384.78	816.85
384.97	868.34
385.17	814.51
385.36	760.67
385.56	823.87
385.75	802.80
385.95	723.23
386.14	854.30
386.34	851.96
386.53	903.45
386.72	793.44
386.92	870.68
387.11	882.38
387.31	854.30
387.50	929.19
387.70	849.61
387.89	798.12
388.09	887.06
388.28	908.13
388.48	968.98
388.67	856.64
388.86	873.02
389.06	936.21
389.25	882.38
389.45	856.64
389.64	964.30
389.84	880.04
390.03	1032.18
390.22	954.94
390.42	1029.84
390.61	1008.77
390.81	1004.09
391.00	976.00
391.19	983.02
391.39	863.66
391.58	961.96
391.78	1018.13
391.97	943.24
392.16	971.32
392.36	938.55
392.55	1050.90
392.75	1050.90
392.94	1086.01
393.13	994.73
393.33	1048.56
393.52	1081.33
393.71	1039.20
393.91	1034.52
394.10	1006.43
394.29	1060.26
394.49	1100.05
394.68	1057.92
394.88	1076.65
395.07	1020.47
395.26	1137.50
395.46	1046.22
395.65	1125.80
395.84	1165.59
396.04	1212.40
396.23	1186.65
396.42	1118.78
396.62	1207.72
396.81	1165.59
397.00	1174.95
397.19	1252.19
397.39	1137.50
397.58	1139.84
397.77	1207.72
397.97	1217.08
398.16	1299.00
398.35	1327.08
398.55	1203.04
398.74	1282.61
398.93	1245.16
399.12	1280.27
399.32	1242.82
399.51	1263.89
399.70	1341.13
399.90	1313.04
400.09	1277.93
400.28	1313.04
400.47	1411.34
400.67	1320.06
400.86	1420.71
401.05	1373.89
401.24	1462.83
401.44	1366.87
401.63	1462.83
401.82	1437.09
402.01	1460.49
402.21	1409.00
402.40	1306.02
402.59	1521.35
402.78	1521.35
402.97	1460.49
403.17	1516.67
403.36	1533.05
403.55	1448.79
403.74	1516.67
403.93	1425.39
404.13	1535.39
404.32	1647.74
404.51	1652.42
404.70	1547.09
404.89	1596.25
405.09	1582.20
405.28	1542.41
405.47	1645.40
405.66	1668.80
405.85	1600.93
406.05	1582.20
406.24	1654.76
406.43	1668.80
406.62	1713.27
406.81	1781.15
407.00	1596.25
407.20	1713.27
407.39	1633.69
407.58	1764.76
407.77	1790.51
407.96	1926.26
408.15	1783.49
408.34	1825.62
408.54	1952.01
408.73	1778.81
408.92	1811.57
409.11	1921.58
409.30	1902.86
409.49	1919.24
409.68	1839.66
409.87	1905.20
410.07	1980.09
410.26	1954.35
410.45	2062.01
410.64	1947.33
410.83	2064.35
411.02	2113.50
411.21	2080.74
411.40	2195.42
411.59	2104.14
411.78	2132.23
411.98	2050.31
412.17	2230.53
412.36	2083.08
412.55	2146.27
412.74	2356.92
412.93	2230.53
413.12	2277.34
413.31	2396.71
413.50	2434.16
413.69	2389.69
413.88	2321.81
414.07	2523.10
414.26	2466.92
414.45	2455.22
414.64	2436.50
414.83	2513.74
415.02	2480.97
415.22	2427.14
415.41	2544.16
415.60	2621.40
415.79	2462.24
415.98	2513.74
416.17	2537.14
416.36	2712.68
416.55	2710.34
416.74	2757.15
416.93	2651.83
417.12	2768.85
417.31	2754.81
417.50	2761.83
417.69	2906.95
417.88	2972.48
418.07	2895.24
418.26	2818.00
418.45	2867.16
418.64	2902.26
418.83	2984.18
419.02	2977.16
419.21	2984.18
419.39	3005.25
419.58	2935.03
419.77	2972.48
419.96	3009.93
420.15	3126.96
420.34	3012.27
420.53	3063.76
420.72	3155.04
420.91	3091.85
421.10	3197.17
421.29	3227.60
421.48	3068.44
421.67	3192.49
421.86	3129.30
422.05	3204.19
422.24	3260.37
422.43	3248.66
422.61	3229.94
422.80	3213.56
422.99	3215.90
423.18	3283.77
423.37	3417.18
423.56	3304.84
423.75	3222.92
423.94	3272.07
424.13	3035.67
424.32	3103.55
424.50	3211.22
424.69	3300.16
424.88	3386.76
425.07	3344.63
425.26	3346.97
425.45	3417.18
425.64	3267.39
425.83	3344.63
426.01	3382.07
426.20	3405.48
426.39	3356.33
426.58	3382.07
426.77	3321.22
426.96	3426.54
427.15	3403.14
427.33	3466.33
427.52	3393.78
427.71	3562.30
427.90	3480.38
428.09	3438.25
428.28	3590.38
428.46	3721.45
428.65	3531.87
428.84	3681.66
429.03	3716.77
429.22	3613.79
429.40	3644.21
429.59	3676.98
429.78	3583.36
429.97	3461.65
430.16	3648.90
430.34	3749.54
430.53	3794.01
430.72	3826.78
430.91	3756.56
431.10	3646.55
431.28	3899.33
431.47	3854.86
431.66	3981.25
431.85	3871.25
432.03	3875.93
432.22	4011.68
432.41	3871.25
432.60	3981.25
432.79	3957.85
432.97	3939.12
433.16	4060.83
433.35	4011.68
433.54	3983.59
433.72	4112.32
433.91	4067.85
434.10	4105.30
434.28	3950.82
434.47	4037.42
434.66	4180.20
434.85	4266.80
435.03	4297.22
435.22	4280.84
435.41	4273.82
435.59	4215.30
435.78	4109.98
435.97	4173.18
436.16	4273.82
436.34	4273.82
436.53	4290.20
436.72	4395.53
436.90	4304.25
437.09	4320.63
437.28	4229.35
437.46	4334.67
437.65	4411.91
437.84	4496.17
438.02	4311.27
438.21	4423.61
438.40	4521.92
438.58	4430.63
438.77	4540.64
438.96	4631.92
439.14	4643.62
439.33	4704.48
439.52	4613.20
439.70	4615.54
439.89	4737.24
440.08	4798.10
440.26	4940.87
440.45	4889.38
440.63	4898.74
440.82	5128.11
441.01	4978.32
441.19	4786.40
441.38	5121.09
441.57	5118.75
441.75	5235.78
441.94	5287.27
442.12	4973.64
442.31	5186.63
442.50	5224.08
442.68	5219.39
442.87	5205.35
443.05	5315.36
443.24	5448.77
443.43	5336.42
443.61	5528.35
443.80	5481.53
443.98	5331.74
444.17	5170.24
444.35	5263.86
444.54	5507.28
444.73	5411.32
444.91	5479.19
445.10	5474.51
445.28	5338.76
445.47	5509.62
445.65	5439.40
445.84	5563.45
446.02	5479.19
446.21	5533.03
446.39	5469.83
446.58	5636.01
446.77	5518.98
446.95	5472.17
447.14	5554.09
447.32	5652.39
447.51	5418.34
447.69	5523.66
447.88	5516.64
448.06	5563.45
448.25	5621.97
448.43	5570.48
448.62	5535.37
448.80	5514.30
448.99	5584.52
449.17	5701.54
449.36	5771.76
449.54	5792.83
449.73	5818.57
449.91	5895.81
450.10	5783.46
450.28	6045.60
450.46	5916.87
450.65	5769.42
450.83	5973.05
451.02	5792.83
451.20	5860.70
451.39	6038.58
451.57	5846.66
451.76	5989.43
451.94	6010.50
452.13	6106.46
452.31	5996.45
452.49	5998.79
452.68	6197.74
452.86	6050.28
453.05	6164.97
453.23	6118.16
453.42	6132.20
453.60	6113.48
453.78	6282.00
453.97	6214.12
454.15	6197.74
454.34	6064.33
454.52	6225.82
454.70	6272.64
454.89	6382.64
455.07	6413.07
455.26	6539.46
455.44	6370.94
455.62	6345.19
455.81	6558.18
455.99	6612.01
456.17	6502.01
456.36	6516.05
456.54	6604.99
456.73	6588.61
456.91	6892.88
457.09	6822.66
457.28	6951.39
457.46	6626.06
457.64	6817.98
457.83	6825.00
458.01	6820.32
458.19	7169.06
458.38	6972.46
458.56	6970.12
458.74	6988.84
458.93	7009.90
459.11	7073.10
459.29	6895.22
459.48	6869.47
459.66	6935.01
459.84	7091.82
460.03	7265.02
460.21	7073.10
460.39	7049.69
460.57	7286.09
460.76	7204.17
460.94	7253.32
461.12	7300.13
461.31	7550.57
461.49	7328.22
461.67	7428.86
461.85	7372.69
462.04	7311.83
462.22	7768.24
462.40	7517.80
462.59	7506.10
462.77	7552.91
462.95	7332.90
463.13	7461.63
463.32	7452.27
463.50	7506.10
463.68	7637.17
463.86	7475.67
464.05	7508.44
464.23	7297.79
464.41	7578.65
464.59	7637.17
464.78	7836.11
464.96	7700.36
465.14	7702.70
465.32	7630.15
465.50	7611.42
465.69	7726.11
465.87	7906.33
466.05	7772.92
466.23	7978.89
466.41	7936.76
466.60	7948.46
466.78	7934.42
466.96	7875.90
467.14	7913.35
467.32	8049.10
467.51	8210.60
467.69	7770.58
467.87	7992.93
468.05	8124.00
468.23	8077.19
468.41	8091.23
468.60	8109.96
468.78	8264.43
468.96	8018.68
469.14	8248.05
469.32	8365.07
469.50	8142.72
469.69	8454.02
469.87	8430.61
470.05	8463.38
470.23	8348.69
470.41	8608.49
470.59	8781.69
470.77	8533.59
470.95	8613.17
471.14	8753.60
471.32	8414.23
471.50	8767.65
471.68	8919.78
471.86	8678.71
472.04	8971.27
472.22	9172.56
472.40	8821.48
472.58	8905.74
472.77	8917.44
472.95	9015.74
473.13	9310.65
473.31	9013.40
473.49	9202.99
473.67	9205.33
473.85	9146.81
474.03	9430.02
474.21	9275.54
474.39	9551.73
474.57	9556.41
474.75	9701.52
474.93	9743.65
475.12	9640.67
475.30	9486.19
475.48	9647.69
475.66	9783.44
475.84	9827.91
476.02	9827.91
476.20	9928.55
476.38	9994.09
476.56	10218.78
476.74	10237.50
476.92	10209.42
477.10	10040.90
477.28	10160.27
477.46	10420.06
477.64	10530.07
477.82	10607.31
478.00	11047.33
478.18	10668.16
478.36	10677.52
478.54	10855.40
478.72	10949.03
478.90	11265.00
479.08	11281.38
479.26	11276.70
479.44	11218.19
479.62	11454.58
479.80	11213.51
479.98	11433.52
480.16	11770.55
480.34	11709.70
480.52	11976.52
480.70	11756.51
480.88	11698.00
481.06	11889.92
481.24	11953.12
481.41	12030.35
481.59	12196.53
481.77	12301.86
481.95	12311.22
482.13	12472.71
482.31	12439.95
482.49	12999.34
482.67	12805.07
482.85	12954.87
483.03	13240.41
483.21	13336.37
483.39	13598.51
483.57	13095.30
483.74	13589.15
483.92	13429.99
484.10	13544.68
484.28	13891.08
484.46	13858.31
484.64	14078.32
484.82	13792.78
485.00	14099.39
485.18	14714.95
485.35	14574.52
485.53	14462.17
485.71	14815.59
485.89	14892.83
486.07	14775.80
486.25	14731.33
486.43	15171.35
486.61	15140.93
486.78	15234.55
486.96	15372.64
487.14	15405.41
487.32	15674.57
487.50	15859.47
487.68	15908.62
487.85	15648.82
488.03	16414.18
488.21	16425.88
488.39	16306.51
488.57	16343.96
488.75	16919.73
488.92	16814.41
489.10	17064.85
489.28	16978.25
489.46	17472.10
489.64	16861.22
489.81	17575.08
489.99	17376.14
490.17	17418.27
490.35	17734.24
490.53	17818.50
490.70	18012.76
490.88	17905.10
491.06	18174.26
491.24	18237.45
491.41	18312.35
491.59	18654.07
491.77	18864.72
491.95	18717.26
492.13	18857.70
492.30	18787.48
492.48	18890.46
492.66	19190.05
492.84	19094.09
493.01	19412.40
493.19	19538.79
493.37	19606.67
493.54	19379.64
493.72	19878.17
493.90	19796.25
494.08	20182.44
494.25	19960.09
494.43	20292.44
494.61	20451.60
494.79	20610.76
494.96	20535.86
495.14	20472.67
495.32	21015.67
495.49	20989.92
495.67	21200.57
495.85	21256.75
496.02	21329.30
496.20	21769.32
496.38	21645.27
496.55	21696.77
496.73	21965.93
496.91	22101.68
497.09	22199.98
497.26	21954.22
497.44	22038.48
497.62	22394.25
497.79	22628.30
497.97	22548.72
498.14	22984.06
498.32	22782.77
498.50	22632.98
498.67	23002.78
498.85	22780.43
499.03	23054.28
499.20	23021.51
499.38	23356.21
499.56	23634.73
499.73	23672.18
499.91	23417.06
500.08	23733.03
500.26	23819.63
500.44	23817.29
500.61	23826.65
500.79	23861.76
500.97	24084.11
501.14	24482.00
501.32	24383.70
501.49	24369.66
501.67	24561.58
501.84	24741.80
502.02	24533.50
502.20	24676.27
502.37	24982.88
502.55	24907.98
502.72	24713.72
502.90	25069.48
503.07	25025.01
503.25	25296.51
503.43	24926.71
503.60	25481.41
503.78	25647.59
503.95	25502.48
504.13	25453.33
504.30	25773.98
504.48	25748.23
504.65	25853.56
504.83	26003.35
505.01	26401.24
505.18	26071.23
505.36	26305.28
505.53	26387.20
505.71	26635.30
505.88	26642.32
506.06	26176.55
506.23	26389.54
506.41	26504.23
506.58	26761.69
506.76	26714.87
506.93	26869.35
507.11	26761.69
507.28	27213.41
507.46	27545.76
507.63	26888.07
507.81	27255.54
507.98	27637.05
508.16	27571.51
508.33	27988.13
508.50	27669.81
508.68	27922.59
508.85	28093.45
509.03	27798.54
509.20	27992.81
509.38	27906.21
509.55	28503.04
509.73	28371.97
509.90	28130.90
510.08	28381.34
510.25	28271.33
510.42	28098.13
510.60	28936.04
510.77	28833.06
510.95	28975.83
511.12	28706.67
511.30	28931.36
511.47	29146.69
511.64	28975.83
511.82	29085.84
511.99	29230.95
512.17	29214.57
512.34	29418.19
512.51	29921.41
512.69	29759.91
512.86	29593.73
513.04	29935.45
513.21	30185.89
513.38	29916.73
513.56	30319.30
513.73	30157.80
513.90	30274.83
514.08	30010.35
514.25	30450.37
514.43	30293.55
514.60	30525.27
514.77	29989.28
514.95	30426.96
515.12	30543.99
515.29	30377.81
515.47	30831.88
515.64	30890.39
515.81	30637.61
515.99	31065.93
516.16	31222.75
516.33	31276.58
516.51	31180.62
516.68	30998.06
516.85	31503.61
517.03	31182.96
517.20	31702.56
517.37	31374.88
517.54	31681.49
517.72	31585.53
517.89	31903.84
518.06	32018.53
518.24	31889.80
518.41	31604.25
518.58	32088.74
518.75	31754.05
518.93	32170.66
519.10	32163.64
519.27	32119.17
519.45	32446.85
519.62	32643.45
519.79	32402.38
519.96	32737.07
520.14	32648.13
520.31	32329.82
520.48	32716.01
520.65	32868.14
520.83	33006.23
521.00	33242.63
521.17	32966.45
521.34	33301.14
521.52	32975.81
521.69	33345.61
521.86	33745.84
522.03	33668.61
522.20	33656.90
522.38	33809.04
522.55	33940.11
522.72	33703.71
522.89	34096.92
523.07	34274.80
523.24	33785.63
523.41	34047.77
523.58	34078.20
523.75	34284.17
523.92	34555.67
524.10	34560.35
524.27	34246.72
524.44	34389.49
524.61	34424.60
524.78	34436.30
524.96	34728.87
525.13	34689.08
525.30	35393.58
525.47	34457.37
525.64	34813.13
525.81	35122.08
525.98	34927.81
526.16	34597.80
526.33	35103.35
526.50	35370.18
526.67	34862.28
526.84	35297.62
527.01	35019.10
527.18	35367.84
527.36	35541.03
527.53	35651.04
527.70	35915.52
527.87	35711.89
528.04	35536.35
528.21	35852.33
528.38	35524.65
528.55	35798.49
528.72	35878.07
528.89	35990.42
529.07	35721.26
529.24	36247.88
529.41	36027.87
529.58	36222.13
529.75	36039.57
529.92	36261.92
530.09	36519.38
530.26	36376.61
530.43	36659.81
530.60	35950.63
530.77	36231.49
530.94	36769.82
531.11	36524.06
531.28	36524.06
531.46	36542.78
531.63	36898.55
531.80	36900.89
531.97	36905.57
532.14	37130.26
532.31	36891.52
532.48	37113.87
532.65	37432.19
532.82	37174.73
532.99	37153.66
533.16	36814.29
533.33	37666.24
533.50	37422.83
533.67	37383.04
533.84	36954.72
534.01	37614.75
534.18	37579.64
534.35	37694.33
534.52	37874.55
534.69	38038.39
534.86	37977.53
535.03	37624.11
535.20	37993.92
535.37	38134.35
535.54	38478.41
535.71	38068.81
535.88	38485.43
536.05	37958.81
536.22	37996.26
536.38	38363.72
536.55	38054.77
536.72	38277.12
536.89	38274.78
537.06	38651.61
537.23	38871.62
537.40	38569.69
537.57	38567.35
537.74	38080.52
537.91	38796.72
538.08	38471.39
538.25	38335.63
538.42	38789.70
538.59	38883.32
538.75	38841.19
538.92	39173.55
539.09	39133.76
539.26	38817.78
539.43	38913.75
539.60	39189.93
539.77	39210.99
539.94	39498.88
540.11	39391.22
540.28	39203.97
540.44	39438.03
540.61	39674.42
540.78	39660.38
540.95	39798.47
541.12	39194.61
541.29	39550.37
541.46	39386.54
541.62	39529.31
541.79	39906.13
541.96	39393.56
542.13	39833.58
542.30	39761.02
542.47	39798.47
542.63	39519.95
542.80	40257.21
542.97	40315.73
543.14	40477.22
543.31	39709.53
543.48	40109.76
543.64	40957.03
543.81	40570.85
543.98	40645.74
544.15	40158.91
544.32	40414.03
544.48	40825.96
544.65	40762.77
544.82	40952.35
544.99	40498.29
545.16	40994.48
545.32	40612.98
545.49	41097.47
545.66	41165.34
545.83	41338.54
546.00	41275.35
546.16	41116.19
546.33	40872.78
546.50	40847.03
546.67	41769.20
546.83	40573.19
547.00	41043.63
547.17	40856.39
547.34	40905.54
547.50	41656.85
547.67	41448.55
547.84	41074.06
548.00	41701.32
548.17	42284.12
548.34	41724.73
548.51	42010.28
548.67	41738.77
548.84	41769.20
549.01	41638.13
549.18	41682.60
549.34	42326.25
549.51	42155.39
549.68	42010.28
549.84	41764.52
550.01	42031.34
550.18	41895.59
550.34	42218.58
550.51	42113.26
550.68	42333.27
550.84	41797.29
551.01	42211.56
551.18	42082.83
551.34	42476.04
551.51	42190.50
551.68	42038.36
551.84	42618.81
552.01	41801.97
552.18	42410.51
552.34	42209.22
552.51	42373.06
552.68	42583.71
552.84	42597.75
553.01	42632.86
553.18	42979.26
553.34	42801.38
553.51	42635.20
553.67	42700.73
553.84	42916.06
554.01	42431.57
554.17	42396.46
554.34	43110.33
554.51	42871.59
554.67	43112.67
554.84	43269.48
555.00	43150.12
555.17	43072.88
555.33	43599.50
555.50	43056.50
555.67	42988.62
555.83	43100.97
556.00	43185.22
556.16	43859.30
556.33	43449.70
556.50	43302.25
556.66	43201.61
556.83	43044.79
556.99	43428.64
557.16	43786.74
557.32	43489.49
557.49	43456.73
557.65	43388.85
557.82	43290.55
557.98	43093.94
558.15	43157.14
558.32	43758.66
558.48	43337.36
558.65	43831.21
558.81	43517.58
558.98	43290.55
559.14	44123.78
559.31	43508.22
559.47	43746.95
559.64	43791.42
559.80	43665.03
559.97	44294.64
560.13	43604.18
560.30	43562.05
560.46	44023.14
560.63	44608.27
560.79	43992.71
560.96	44186.97
561.12	44107.40
561.29	43957.60
561.45	44112.08
561.61	44074.63
561.78	44212.72
561.94	44107.40
562.11	44091.01
562.27	44304.00
562.44	44105.06
562.60	44425.71
562.77	44294.64
562.93	44135.48
563.10	44608.27
563.26	44266.55
563.42	44861.05
563.59	44612.95
563.75	44542.74
563.92	44109.74
564.08	44308.68
564.24	44708.91
564.41	44289.96
564.57	44133.14
564.74	44552.10
564.90	44425.71
565.07	44147.18
565.23	44584.86
565.39	44495.92
565.56	44903.18
565.72	44381.24
565.88	44477.20
566.05	44678.49
566.21	44978.07
566.38	44465.50
566.54	45008.50
566.70	44779.13
566.87	44912.54
567.03	44383.58
567.19	44734.66
567.36	44453.79
567.52	44734.66
567.68	45088.08
567.85	45088.08
568.01	44875.09
568.17	44404.64
568.34	44725.30
568.50	44800.19
568.66	45015.52
568.83	44711.25
568.99	44430.39
569.15	44893.82
569.32	44779.13
569.48	45106.80
569.64	45151.27
569.81	45191.06
569.97	45013.18
570.13	45195.74
570.30	44598.91
570.46	45312.77
570.62	45368.94
570.78	45214.47
570.95	44999.14
571.11	45631.08
571.27	44940.63
571.43	45013.18
571.60	45102.12
571.76	45130.21
571.92	45153.62
572.09	45233.19
572.25	44947.65
572.41	45081.06
572.57	45277.66
572.74	45860.46
572.90	45277.66
573.06	45345.54
573.22	45539.80
573.38	45294.05
573.55	45244.90
573.71	45516.40
573.87	45303.41
574.03	45233.19
574.20	45584.27
574.36	45251.92
574.52	45464.91
574.68	45591.30
574.84	45720.02
575.01	45441.50
575.17	45684.92
575.33	45443.84
575.49	45242.56
575.65	45603.00
575.82	45588.95
575.98	45106.80
576.14	45830.03
576.30	45631.08
576.46	45682.58
576.62	45256.60
576.79	45464.91
576.95	44982.76
577.11	44807.22
577.27	45287.03
577.43	45776.20
577.59	45500.01
577.75	45495.33
577.92	45174.68
578.08	45893.22
578.24	45605.34
578.40	46064.08
578.56	45642.79
578.72	45471.93
578.88	45839.39
579.04	45535.12
579.21	45326.81
579.37	45462.57
579.53	45823.01
579.69	45408.73
579.85	45268.30
580.01	45621.72
580.17	45495.33
580.33	45933.01
580.49	45640.45
580.65	45518.74
580.82	45291.71
580.98	45244.90
581.14	45649.81
581.30	45762.15
581.46	45757.47
581.62	45670.87
581.78	45261.28
581.94	45633.42
582.10	45598.32
582.26	45450.86
582.42	45694.28
582.58	45298.73
582.74	45808.96
582.90	45752.79
583.06	45998.55
583.22	45659.17
583.38	45773.86
583.54	45270.64
583.70	45422.78
583.86	45448.52
584.02	45855.78
584.18	46155.36
584.34	45928.33
584.50	46061.74
584.66	45720.02
584.82	45958.76
584.98	45872.16
585.14	45820.67
585.30	45677.90
585.46	46188.13
585.62	45530.44
585.78	46120.26
585.94	45373.63
586.10	45673.21
586.26	45755.13
586.42	45448.52
586.58	45797.26
586.74	45567.89
586.90	45631.08
587.06	46190.47
587.22	46017.27
587.38	45694.28
587.54	45916.63
587.70	46059.40
587.86	46131.96
588.02	45827.69
588.18	45741.09
588.34	45886.20
588.49	46370.69
588.65	45387.67
588.81	45771.52
588.97	45996.21
589.13	46396.44
589.29	45675.55
589.45	46146.00
589.61	45961.10
589.77	46225.58
589.93	46309.84
590.08	46089.83
590.24	46476.02
590.40	46642.20
590.56	46157.70
590.72	46319.20
590.88	45944.72
591.04	46010.25
591.20	46284.09
591.35	46092.17
591.51	46480.70
591.67	46611.77
591.83	46464.32
591.99	46094.51
592.15	46312.18
592.31	45979.82
592.46	46204.52
592.62	46099.19
592.78	46609.43
592.94	46649.22
593.10	46291.12
593.26	46962.85
593.41	46698.37
593.57	46471.34
593.73	46836.46
593.89	47012.00
594.05	46944.12
594.20	46515.81
594.36	47016.68
594.52	46607.09
594.68	46494.74
594.84	46487.72
594.99	47323.29
595.15	46700.71
595.31	46637.51
595.47	46253.67
595.62	46429.21
595.78	46485.38
595.94	46770.93
596.10	46637.51
596.25	46363.67
596.41	46691.35
596.57	46312.18
596.73	46906.68
596.88	46913.70
597.04	46253.67
597.20	46550.91
597.36	46644.54
597.51	46855.18
597.67	46436.23
597.83	46321.54
597.99	46696.03
598.14	46457.29
598.30	46979.23
598.46	46635.17
598.61	46581.34
598.77	47049.45
598.93	46953.49
599.09	46756.88
599.24	46906.68
599.40	46726.46
599.56	46700.71
599.71	47103.28
599.87	46864.55
600.03	47082.22
600.18	46674.96
600.34	46494.74
600.50	46625.81
600.65	46770.93
600.81	46941.78
600.97	47297.55
601.12	47004.98
601.28	46782.63
601.44	46894.97
601.59	46670.28
601.75	46777.95
601.91	46799.01
602.06	46787.31
602.22	46820.08
602.37	46480.70
602.53	46628.15
602.69	46848.16
602.84	47220.31
603.00	46550.91
603.16	46459.63
603.31	46880.93
603.47	46841.14
603.62	46953.49
603.78	46401.12
603.94	46855.18
604.09	46887.95
604.25	46820.08
604.40	46536.87
604.56	46913.70
604.71	47309.25
604.87	46686.67
605.03	46059.40
605.18	47047.11
605.34	46600.07
605.49	46431.55
605.65	46939.44
605.80	46747.52
605.96	46141.32
606.12	46635.17
606.27	46724.11
606.43	46667.94
606.58	46988.60
606.74	46899.65
606.89	46609.43
607.05	46841.14
607.20	46375.37
607.36	46864.55
607.51	46564.96
607.67	46529.85
607.82	46363.67
607.98	46658.58
608.13	46417.50
608.29	46141.32
608.44	46424.53
608.60	46057.06
608.75	46632.83
608.91	46976.89
609.06	46181.11
609.22	46597.73
609.37	46396.44
609.53	46829.44
609.68	46398.78
609.84	46937.10
609.99	46513.47
610.15	46707.73
610.30	46162.39
610.46	46518.15
610.61	46265.37
610.76	46841.14
610.92	45930.67
611.07	46080.47
611.23	45977.48
611.38	46564.96
611.54	46445.59
611.69	46705.39
611.84	45886.20
612.00	46094.51
612.15	46340.27
612.31	46410.48
612.46	45935.35
612.62	46021.95
612.77	45862.80
612.92	46384.74
613.08	45933.01
613.23	46246.65
613.39	45937.69
613.54	46122.60
613.69	46178.77
613.85	45848.75
614.00	46138.98
614.15	46391.76
614.31	46263.03
614.46	45937.69
614.62	45729.39
614.77	46141.32
614.92	46178.77
615.08	45813.65
615.23	46122.60
615.38	46298.14
615.54	46057.06
615.69	45902.59
615.84	45736.41
616.00	46337.93
616.15	45890.88
616.30	46110.89
616.46	45696.62
616.61	45549.17
616.76	46157.70
616.92	45720.02
617.07	45928.33
617.22	45762.15
617.37	45202.77
617.53	46059.40
617.68	45773.86
617.83	45556.19
617.99	46237.28
618.14	45916.63
618.29	45612.36
618.45	45584.27
618.60	45043.61
618.75	44917.22
618.90	45251.92
619.06	45764.49
619.21	45298.73
619.36	45961.10
619.51	45359.58
619.67	44839.98
619.82	45469.59
619.97	45567.89
620.12	45191.06
620.28	45170.00
620.43	45558.53
620.58	45492.99
620.73	45305.75
620.89	45705.98
621.04	45357.24
621.19	45371.28
621.34	45432.14
621.49	45385.33
621.65	44989.78
621.80	45544.48
621.95	45256.60
622.10	45415.76
622.25	45052.97
622.41	44996.80
622.56	45382.99
622.71	45071.70
622.86	45111.49
623.01	45390.01
623.16	44945.31
623.32	44804.88
623.47	45280.00
623.62	44854.03
623.77	45027.23
623.92	45097.44
624.07	44907.86
624.23	45003.82
624.38	44947.65
624.53	44706.57
624.68	44423.37
624.83	44734.66
624.98	44722.96
625.13	44418.69
625.29	44451.45
625.44	44828.28
625.59	44931.26
625.74	44584.86
625.89	44493.58
626.04	44549.76
626.19	44385.92
626.34	44465.50
626.49	44264.21
626.65	43971.64
626.80	44423.37
626.95	44252.51
627.10	44023.14
627.25	44678.49
627.40	44336.77
627.55	44189.31
627.70	44264.21
627.85	44226.76
628.00	44392.94
628.15	44343.79
628.30	44081.65
628.45	43749.29
628.60	43482.47
628.76	44062.93
628.91	43817.17
629.06	44074.63
629.21	43959.94
629.36	43744.61
629.51	43821.85
629.66	44123.78
629.81	44102.71
629.96	44093.35
630.11	43908.45
630.26	44194.00
630.41	43938.88
630.56	43716.53
630.71	43325.66
630.86	43758.66
631.01	43454.39
631.16	43629.93
631.31	43531.62
631.46	43459.07
631.61	43803.13
631.76	43421.62
631.91	43856.96
632.06	43983.35
632.21	44069.95
632.36	44301.66
632.51	43264.80
632.66	43798.44
632.81	43405.23
632.96	43438.00
633.10	43833.55
633.25	43344.38
633.40	43679.08
633.55	43817.17
633.70	43529.28
633.85	43395.87
634.00	42986.28
634.15	42852.87
634.30	43260.12
634.45	42684.35
634.60	43079.90
634.75	43594.82
634.90	43180.54
635.05	43210.97
635.19	43089.26
635.34	43199.27
635.49	42836.48
635.64	42955.85
635.79	42850.53
635.94	43065.86
636.09	43026.07
636.24	42766.27
636.39	42763.93
636.53	43147.78
636.68	42787.33
636.83	42822.44
636.98	42787.33
637.13	42480.72
637.28	42473.70
637.43	42770.95
637.57	42546.26
637.72	42649.24
637.87	42377.74
638.02	42209.22
638.17	42745.20
638.32	42646.90
638.46	42560.30
638.61	42249.01
638.76	41771.54
638.91	42674.99
639.06	42124.96
639.20	42162.41
639.35	41790.27
639.50	42293.48
639.65	42216.24
639.80	42548.60
639.94	42293.48
640.09	42660.94
640.24	42646.90
640.39	42054.75
640.54	41720.05
640.68	42050.06
640.83	42630.52
640.98	41968.15
641.13	41956.44
641.27	42522.85
641.42	41977.51
641.57	41975.17
641.72	41862.82
641.86	42258.37
642.01	42021.98
642.16	42101.56
642.31	41422.80
642.45	41661.54
642.60	41392.37
642.75	41926.02
642.90	41715.37
643.04	42181.13
643.19	41303.43
643.34	41710.69
643.48	41706.01
643.63	41242.58
643.78	41340.88
643.93	41731.75
644.07	41872.18
644.22	41289.39
644.37	41507.06
644.51	41581.96
644.66	41516.42
644.81	41645.15
644.95	41598.34
645.10	41729.41
645.25	41790.27
645.39	41120.87
645.54	41474.29
645.69	41099.81
645.83	41041.29
645.98	41132.57
646.13	41364.29
646.27	40849.37
646.42	40825.96
646.57	41617.07
646.71	41563.23
646.86	41439.18
647.00	41027.25
647.15	41172.36
647.30	41521.10
647.44	41352.58
647.59	41003.85
647.74	41223.86
647.88	41446.21
648.03	41270.67
648.17	41265.99
648.32	41118.53
648.47	41008.53
648.61	40521.69
648.76	40879.80
648.90	40634.04
649.05	41163.00
649.20	40865.75
649.34	40774.47
649.49	40926.61
649.63	40730.00
649.78	40788.52
649.92	40978.10
650.07	40989.80
650.21	40875.12
650.36	40875.12
650.51	40421.05
650.65	40683.19
650.80	40882.14
650.94	40376.58
651.09	40690.21
651.23	40449.14
651.38	40196.36
651.52	40156.57
651.67	40470.20
651.81	40226.79
651.96	40224.45
652.10	40549.78
652.25	40215.08
652.39	40002.10
652.54	40500.63
652.68	40561.48
652.83	39976.35
652.97	40346.15
653.12	39924.86
653.26	39885.07
653.41	40179.98
653.55	40105.08
653.70	40084.01
653.84	40428.07
653.99	39674.42
654.13	39910.82
654.27	39969.33
654.42	40039.54
654.56	39494.20
654.71	40142.53
654.85	39871.03
655.00	40072.31
655.14	39833.58
655.29	40151.89
655.43	39901.45
655.57	39768.04
655.72	40051.25
655.86	39835.92
656.01	39222.70
656.15	39367.81
656.30	39529.31
656.44	39707.19
656.58	39618.25
656.73	39447.39
656.87	39152.48
657.01	39253.12
657.16	39620.59
657.30	39339.72
657.45	39674.42
657.59	39196.95
657.73	39461.43
657.88	39854.64
658.02	39292.91
658.16	39601.86
658.31	39388.88
658.45	38897.36
658.60	38728.84
658.74	39360.79
658.88	39136.10
659.03	39175.89
659.17	38993.32
659.31	38698.42
659.46	38747.57
659.60	39164.18
659.74	39044.82
659.89	38721.82
660.03	38237.33
660.17	39152.48
660.32	38880.98
660.46	38286.48
660.60	38185.84
660.74	38223.29
660.89	38855.23
661.03	38326.27
661.17	37933.06
661.32	38309.89
661.46	38401.17
661.60	38171.80
661.74	38148.39
661.89	38195.20
662.03	38120.31
662.17	37811.35
662.31	37787.95
662.46	37858.17
662.60	37904.98
662.74	37331.54
662.88	37771.57
663.03	37216.86
663.17	37490.70
663.31	37504.74
663.45	37481.34
663.60	37633.47
663.74	37752.84
663.88	37301.12
664.02	36954.72
664.17	37523.47
664.31	37038.98
664.45	37071.75
664.59	37006.21
664.73	37226.22
664.88	37310.48
665.02	36364.90
665.16	37216.86
665.30	36872.80
665.44	36982.80
665.59	36989.83
665.73	36610.66
665.87	36184.68
666.01	36767.48
666.15	36690.24
666.29	36694.92
666.44	36671.51
666.58	36395.33
666.72	36144.89
666.86	36385.97
667.00	36512.36
667.14	36201.07
667.28	36273.62
667.43	36084.04
667.57	36091.06
667.71	35866.37
667.85	36027.87
667.99	35849.99
668.13	35562.10
668.27	35487.20
668.41	35735.30
668.56	35290.60
668.70	35524.65
668.84	35126.76
668.98	34925.47
669.12	35391.24
669.26	35093.99
669.40	35428.69
669.54	35576.14
669.68	35405.28
669.82	35082.29
669.96	34934.84
670.10	35009.73
670.25	34843.56
670.39	34682.06
670.53	34696.10
670.67	34899.73
670.81	35232.08
670.95	34710.14
671.09	34213.95
671.23	34361.40
671.37	34438.64
671.51	34258.42
671.65	33797.34
671.79	34022.03
671.93	34501.84
672.07	34291.19
672.21	34010.32
672.35	33507.11
672.49	34043.09
672.63	33783.29
672.77	33366.68
672.91	33937.77
673.05	33703.71
673.19	33207.52
673.33	33214.54
673.47	33336.25
673.61	33015.60
673.75	33078.79
673.89	33251.99
674.03	32591.96
674.17	32510.04
674.31	32620.05
674.45	32549.83
674.59	33167.73
674.73	32802.61
674.87	32418.76
675.01	32182.37
675.15	32130.87
675.29	32109.81
675.43	32112.15
675.56	32292.37
675.70	32081.72
675.84	32121.51
675.98	31124.44
676.12	31796.18
676.26	32177.68
676.40	31630.00
676.54	31517.65
676.68	31260.20
676.82	30932.52
676.96	31433.39
677.10	31215.72
677.23	31239.13
677.37	31119.76
677.51	31105.72
677.65	30986.35
677.79	30810.81
677.93	31084.65
678.07	30380.15
678.21	30118.01
678.34	30216.32
678.48	30293.55
678.62	30534.63
678.76	30064.18
678.90	30118.01
679.04	30415.26
679.18	30040.78
679.31	29816.08
679.45	29750.55
679.59	29731.83
679.73	29687.36
679.87	29329.25
680.00	29235.63
680.14	29149.03
680.28	29186.48
680.42	29174.78
680.56	29200.52
680.70	28596.67
680.83	28561.56
680.97	28692.63
681.11	28472.62
681.25	28353.25
681.39	28147.28
681.52	28697.31
681.66	27864.08
681.80	27508.32
681.94	27674.49
682.07	27740.03
682.21	27372.57
682.35	27386.61
682.49	27414.69
682.62	27594.92
682.76	27358.52
682.90	27496.61
683.04	27077.66
683.17	27288.31
683.31	27117.45
683.45	27002.76
683.59	26508.91
683.72	26132.08
683.86	26738.28
684.00	26429.33
684.13	26600.19
684.27	26286.56
684.41	26544.02
684.55	26214.00
684.68	26001.01
684.82	25982.29
684.96	25893.35
685.09	25827.81
685.23	25781.00
685.37	25715.47
685.50	26036.12
685.64	25701.42
685.78	25333.96
685.91	25649.93
686.05	24805.00
686.19	24683.29
686.32	24776.91
686.46	24538.18
686.60	24545.20
686.73	24870.53
686.87	24327.53
687.01	24802.66
687.14	25179.48
687.28	24428.17
687.42	23943.68
687.55	24077.09
687.69	24222.20
687.82	23990.49
687.96	23929.64
688.10	24205.82
688.23	23943.68
688.37	23936.66
688.50	24009.22
688.64	23541.11
688.78	23669.84
688.91	23108.11
689.05	23087.04
689.18	23096.41
689.32	22876.40
689.46	22724.26
689.59	22824.90
689.73	22899.80
689.86	22941.93
690.00	22932.57
690.13	22965.34
690.27	22560.42
690.41	22483.19
690.54	22164.87
690.68	22040.82
690.81	22267.86
690.95	22155.51
691.08	21722.51
691.22	21813.79
691.35	21586.76
691.49	21895.71
691.62	21579.74
691.76	21296.53
691.89	21212.28
692.03	21010.99
692.16	20870.56
692.30	20905.66
692.43	20884.60
692.57	20915.03
692.70	20617.78
692.84	20699.70
692.97	20613.10
693.11	20402.45
693.24	20147.33
693.38	20451.60
693.51	20027.96
693.65	20072.43
693.78	19999.88
693.92	19990.52
694.05	19583.26
694.19	20072.43
694.32	19976.47
694.45	19899.23
694.59	20013.92
694.72	19658.16
694.86	19641.78
694.99	19229.84
695.13	19115.16
695.26	18808.54
695.39	18881.10
695.53	18993.45
695.66	18953.66
695.80	18735.99
695.93	18735.99
696.07	18712.58
696.20	18239.79
696.33	18200.01
696.47	18258.52
696.60	18216.39
696.73	18590.88
696.87	18483.21
697.00	18382.57
697.14	17895.74
697.27	18036.17
697.40	17626.57
697.54	17675.73
697.67	17252.09
697.80	17661.68
697.94	17551.68
698.07	17727.22
698.21	17401.88
698.34	17324.65
698.47	17109.32
698.61	16596.74
698.74	16802.71
698.87	16842.50
699.01	16884.62
699.14	16688.02
699.27	16835.47
699.40	16540.57
699.54	16596.74
699.67	16826.11
699.80	16432.90
699.94	16496.10
700.07	16418.86
700.20	16524.18
700.34	15932.03
700.47	16159.06
700.60	16203.53
700.73	15927.35
700.87	15913.30
701.00	15426.47
701.13	15260.29
701.26	15300.08
701.40	15494.35
701.53	15405.41
701.66	15592.65
701.79	15253.27
701.93	15176.03
702.06	15103.48
702.19	14827.29
702.32	15002.83
702.46	14881.13
702.59	14951.34
702.72	14995.81
702.85	14815.59
702.99	14850.70
703.12	14476.21
703.25	14511.32
703.38	14197.69
703.51	14469.19
703.65	14415.36
703.78	14211.73
703.91	13951.93
704.04	14071.30
704.17	13738.94
704.31	13619.58
704.44	13970.66
704.57	13909.80
704.70	13729.58
704.83	13551.70
704.96	13586.81
705.10	13331.69
705.23	13331.69
>>>>>End Processed Spectral Data<<<<<
