SpectraSuite Data File
++++++++++++++++++++++++++++++++++++
Date: Fri Oct 25 10:44:26 EDT 2013
User: price-jones
Dark Spectrum Present: No
Reference Spectrum Present: No
Number of Sampled Component Spectra: 1
Spectrometers: USB2+H05261
Integration Time (usec): 100000 (USB2+H05261)
Spectra Averaged: 1 (USB2+H05261)
Boxcar Smoothing: 0 (USB2+H05261)
Correct for Electrical Dark: No (USB2+H05261)
Strobe/Lamp Enabled: No (USB2+H05261)
Correct for Detector Non-linearity: No (USB2+H05261)
Correct for Stray Light: No (USB2+H05261)
Number of Pixels in Processed Spectrum: 2048
>>>>>Begin Processed Spectral Data<<<<<
365.73	114.69
365.92	114.69
366.12	114.69
366.32	67.88
366.52	0.00
366.72	84.26
366.91	51.49
367.11	58.51
367.31	98.30
367.51	56.17
367.70	65.54
367.90	65.54
368.10	42.13
368.30	72.56
368.49	65.54
368.69	2.34
368.89	91.28
369.09	56.17
369.28	70.22
369.48	100.64
369.68	95.96
369.87	126.39
370.07	30.43
370.27	135.75
370.47	177.88
370.66	381.51
370.86	493.85
371.06	451.72
371.25	505.56
371.45	376.83
371.65	519.60
371.84	397.89
372.04	442.36
372.24	463.43
372.44	496.19
372.63	496.19
372.83	543.00
373.03	496.19
373.22	578.11
373.42	566.41
373.62	500.87
373.81	524.28
374.01	521.94
374.21	599.18
374.40	664.71
374.60	599.18
374.79	535.98
374.99	592.16
375.19	608.54
375.38	599.18
375.58	629.60
375.78	613.22
375.97	594.50
376.17	697.48
376.37	608.54
376.56	592.16
376.76	606.20
376.95	657.69
377.15	573.43
377.35	566.41
377.54	753.65
377.74	713.86
377.93	793.44
378.13	634.29
378.33	667.05
378.52	643.65
378.72	660.03
378.91	645.99
379.11	748.97
379.31	669.39
379.50	655.35
379.70	732.59
379.89	699.82
380.09	641.31
380.28	653.01
380.48	650.67
380.68	702.16
380.87	674.07
381.07	727.91
381.26	781.74
381.46	720.88
381.65	819.19
381.85	713.86
382.04	767.70
382.24	711.52
382.43	589.82
382.63	704.50
382.83	716.20
383.02	814.51
383.22	683.44
383.41	739.61
383.61	744.29
383.80	725.57
384.00	753.65
384.19	725.57
384.39	772.38
384.58	903.45
384.78	854.30
384.97	805.14
385.17	784.08
385.36	755.99
385.56	868.34
385.75	910.47
385.95	851.96
386.14	849.61
386.34	788.76
386.53	788.76
386.72	807.48
386.92	938.55
387.11	866.00
387.31	866.00
387.50	858.98
387.70	894.08
387.89	924.51
388.09	868.34
388.28	903.45
388.48	945.58
388.67	912.81
388.86	1018.13
389.06	987.71
389.25	1004.09
389.45	968.98
389.64	1055.58
389.84	997.07
390.03	1093.03
390.22	1090.69
390.42	1011.11
390.61	1076.65
390.81	1081.33
391.00	1111.75
391.19	1111.75
391.39	1062.60
391.58	1123.46
391.78	1013.45
391.97	1053.24
392.16	1102.39
392.36	1125.80
392.55	1111.75
392.75	1006.43
392.94	957.28
393.13	1001.75
393.33	1090.69
393.52	1128.14
393.71	1032.18
393.91	1128.14
394.10	1116.44
394.29	1128.14
394.49	1261.55
394.68	1315.38
394.88	1177.29
395.07	1289.64
395.26	1313.04
395.46	1275.59
395.65	1287.29
395.84	1263.89
396.04	1397.30
396.23	1266.23
396.42	1212.40
396.62	1167.93
396.81	1191.33
397.00	1275.59
397.19	1345.81
397.39	1345.81
397.58	1364.53
397.77	1409.00
397.97	1437.09
398.16	1476.88
398.35	1509.65
398.55	1519.01
398.74	1427.73
398.93	1607.95
399.12	1607.95
399.32	1441.77
399.51	1605.61
399.70	1664.12
399.90	1647.74
400.09	1664.12
400.28	1724.97
400.47	1563.48
400.67	1713.27
400.86	1696.89
401.05	1750.72
401.24	1764.76
401.44	1750.72
401.63	1781.15
401.82	1764.76
402.01	1703.91
402.21	1820.94
402.40	1806.89
402.59	1820.94
402.78	1790.51
402.97	1809.23
403.17	1863.07
403.36	1954.35
403.55	1846.68
403.74	1959.03
403.93	1895.83
404.13	1989.46
404.32	1846.68
404.51	2017.54
404.70	2031.58
404.89	1956.69
405.09	1916.90
405.28	2071.37
405.47	2054.99
405.66	2148.61
405.85	2101.80
406.05	2050.31
406.24	2012.86
406.43	2031.58
406.62	2141.59
406.81	2127.55
407.00	2099.46
407.20	2076.06
407.39	2174.36
407.58	2139.25
407.77	2211.81
407.96	2202.44
408.15	2413.09
408.34	2253.94
408.54	2303.09
408.73	2354.58
408.92	2380.32
409.11	2495.01
409.30	2415.43
409.49	2377.98
409.68	2321.81
409.87	2356.92
410.07	2338.20
410.26	2506.71
410.45	2420.11
410.64	2457.56
410.83	2612.04
411.02	2597.99
411.21	2614.38
411.40	2700.98
411.59	2572.25
411.78	2787.58
411.98	2642.46
412.17	2810.98
412.36	2689.28
412.55	2857.79
412.74	2759.49
412.93	2867.16
413.12	2839.07
413.31	2977.16
413.50	2998.23
413.69	3023.97
413.88	3012.27
414.07	2913.97
414.26	3066.10
414.45	3026.31
414.64	3035.67
414.83	3112.91
415.02	3274.41
415.22	3166.74
415.41	3229.94
415.60	3328.24
415.79	3279.09
415.98	3386.76
416.17	3410.16
416.36	3283.77
416.55	3353.99
416.74	3480.38
416.93	3358.67
417.12	3311.86
417.31	3445.27
417.50	3501.44
417.69	3574.00
417.88	3564.64
418.07	3627.83
418.26	3454.63
418.45	3410.16
418.64	3660.60
418.83	3637.19
419.02	3550.59
419.21	3751.88
419.39	3625.49
419.58	3719.11
419.77	3506.12
419.96	3712.09
420.15	3859.54
420.34	3712.09
420.53	3878.27
420.72	4007.00
420.91	3927.42
421.10	3889.97
421.29	3985.93
421.48	3929.76
421.67	3941.46
421.86	3962.53
422.05	3915.72
422.24	3885.29
422.43	3932.10
422.61	3941.46
422.80	4079.55
422.99	4072.53
423.18	4079.55
423.37	4081.89
423.56	4159.13
423.75	3969.55
423.94	4025.72
424.13	3758.90
424.32	3798.69
424.50	4114.66
424.69	4243.39
424.88	4128.70
425.07	4060.83
425.26	4037.42
425.45	4063.17
425.64	4028.06
425.83	4117.00
426.01	4304.25
426.20	4021.04
426.39	4147.43
426.58	4124.02
426.77	4004.66
426.96	4025.72
427.15	4009.34
427.33	4128.70
427.52	4241.05
427.71	4290.20
427.90	4222.33
428.09	4198.92
428.28	4271.48
428.46	4117.00
428.65	4255.09
428.84	4528.94
429.03	4397.87
429.22	4224.67
429.40	4257.43
429.59	4365.10
429.78	4084.23
429.97	3962.53
430.16	4189.56
430.34	4159.13
430.53	4243.39
430.72	4346.37
430.91	4245.73
431.10	4360.42
431.28	4711.50
431.47	4631.92
431.66	4777.03
431.85	4674.05
432.03	4772.35
432.22	4816.82
432.41	4774.69
432.60	4915.12
432.79	4847.25
432.97	4875.34
433.16	4968.96
433.35	4887.04
433.54	4713.84
433.72	4833.21
433.91	4781.71
434.10	5004.07
434.28	4814.48
434.47	4877.68
434.66	4952.57
434.85	4971.30
435.03	5104.71
435.22	4999.38
435.41	5160.88
435.59	5294.29
435.78	5350.46
435.97	5214.71
436.16	5390.25
436.34	5217.05
436.53	5348.12
436.72	5423.02
436.90	5221.74
437.09	5298.97
437.28	5238.12
437.46	5390.25
437.65	5327.06
437.84	5444.09
438.02	5291.95
438.21	5291.95
438.40	5355.15
438.58	5479.19
438.77	5586.86
438.96	5647.71
439.14	5708.57
439.33	5661.76
439.52	5750.70
439.70	5727.29
439.89	5893.47
440.08	5872.40
440.26	5802.19
440.45	5963.68
440.63	6071.35
440.82	6237.53
441.01	6160.29
441.19	6190.72
441.38	6317.11
441.57	6361.58
441.75	6420.09
441.94	6424.77
442.12	6579.25
442.31	6537.12
442.50	6583.93
442.68	6525.41
442.87	6602.65
443.05	6476.26
443.24	6700.95
443.43	6562.86
443.61	6747.76
443.80	6787.55
443.98	6600.31
444.17	6392.00
444.35	6754.79
444.54	6862.45
444.73	6656.48
444.91	6740.74
445.10	6647.12
445.28	6647.12
445.47	6541.80
445.65	6541.80
445.84	6773.51
446.02	6773.51
446.21	6775.85
446.39	6700.95
446.58	6747.76
446.77	6614.35
446.95	6719.68
447.14	7075.44
447.32	6974.80
447.51	6874.15
447.69	6923.30
447.88	6895.22
448.06	6984.16
448.25	6766.49
448.43	6967.77
448.62	6745.42
448.80	6988.84
448.99	7150.34
449.17	7059.06
449.36	7066.08
449.54	7211.19
449.73	7363.33
449.91	7440.56
450.10	7379.71
450.28	7421.84
450.46	7197.15
450.65	7377.37
450.83	7691.00
451.02	7370.35
451.20	7468.65
451.39	7318.86
451.57	7433.54
451.76	7232.26
451.94	7445.24
452.13	7447.58
452.31	7300.13
452.49	7304.81
452.68	7466.31
452.86	7396.09
453.05	7562.27
453.23	7543.55
453.42	7421.84
453.60	7433.54
453.78	7625.47
453.97	7456.95
454.15	7808.03
454.34	7506.10
454.52	7695.68
454.70	7674.62
454.89	7911.01
455.07	7913.35
455.26	7946.12
455.44	8070.17
455.62	8095.91
455.81	8142.72
455.99	7918.03
456.17	8058.46
456.36	8149.75
456.54	8116.98
456.73	8133.36
456.91	8322.94
457.09	8383.80
457.28	8437.63
457.46	8203.58
457.64	8484.44
457.83	8444.65
458.01	8325.29
458.19	8329.97
458.38	8322.94
458.56	8255.07
458.74	8477.42
458.93	8299.54
459.11	8564.02
459.29	8568.70
459.48	8557.00
459.66	8397.84
459.84	8622.53
460.03	8964.25
460.21	8858.93
460.39	8718.50
460.57	8634.24
460.76	8929.14
460.94	8828.50
461.12	8922.12
461.31	8884.67
461.49	8933.82
461.67	8999.36
461.85	9020.42
462.04	9090.64
462.22	9210.01
462.40	9151.49
462.59	9060.21
462.77	9238.09
462.95	9191.28
463.13	9039.15
463.32	9401.93
463.50	9280.22
463.68	9252.14
463.86	9198.31
464.05	9378.53
464.23	9055.53
464.41	9287.25
464.59	9139.79
464.78	9446.40
464.96	9500.23
465.14	9259.16
465.32	9401.93
465.50	9603.22
465.69	9724.93
465.87	9650.03
466.05	9547.05
466.23	9479.17
466.41	9486.19
466.60	9554.07
466.78	9373.85
466.96	9518.96
467.14	9799.82
467.32	9542.36
467.51	9886.42
467.69	9455.76
467.87	9685.14
468.05	10047.92
468.23	9685.14
468.41	9671.09
468.60	9823.23
468.78	9958.98
468.96	9638.33
469.14	10146.22
469.32	10061.96
469.50	9760.03
469.69	9923.87
469.87	10193.03
470.05	10164.95
470.23	10141.54
470.41	10115.80
470.59	10328.78
470.77	10167.29
470.95	10076.01
471.14	10174.31
471.32	10263.25
471.50	10628.37
471.68	10801.57
471.86	10778.17
472.04	10518.37
472.22	11087.12
472.40	10647.10
472.58	10792.21
472.77	10703.27
472.95	10934.98
473.13	11122.23
473.31	10993.50
473.49	10916.26
473.67	10834.34
473.85	11023.92
474.03	11262.66
474.21	11185.42
474.39	11250.96
474.57	11410.11
474.75	11595.01
474.93	11548.20
475.12	11269.68
475.30	11583.31
475.48	11531.82
475.66	11517.78
475.84	11592.67
476.02	11702.68
476.20	11763.53
476.38	11854.81
476.56	12201.21
476.74	12196.53
476.92	12079.50
477.10	12189.51
477.28	12273.77
477.46	12372.07
477.64	12688.04
477.82	12727.83
478.00	12910.40
478.18	12901.03
478.36	13029.76
478.54	12872.95
478.72	12915.08
478.90	13156.15
479.08	13305.95
479.26	13621.92
479.44	13537.66
479.62	13593.83
479.80	13565.74
479.98	13675.75
480.16	13898.10
480.34	13872.36
480.52	14153.22
480.70	13907.46
480.88	13907.46
481.06	14436.42
481.24	14368.55
481.41	14235.14
481.59	14869.42
481.77	14747.72
481.95	15047.30
482.13	14986.45
482.31	15073.05
482.49	15267.31
482.67	15061.35
482.85	15363.28
483.03	15527.11
483.21	15634.78
483.39	15864.15
483.57	15688.61
483.74	16032.67
483.92	16013.95
484.10	16156.72
484.28	16091.18
484.46	16472.69
484.64	16631.85
484.82	16573.33
485.00	16369.71
485.18	16692.70
485.35	17123.36
485.53	16549.93
485.71	16580.36
485.89	16945.48
486.07	17088.25
486.25	17200.60
486.43	17170.17
486.61	17652.32
486.78	17792.75
486.96	18071.28
487.14	18157.88
487.32	18195.32
487.50	18677.48
487.68	18466.83
487.85	18923.23
488.03	18712.58
488.21	19286.01
488.39	18998.13
488.57	19002.81
488.75	19494.32
488.92	19363.25
489.10	19957.75
489.28	20114.56
489.46	20339.26
489.64	19964.77
489.81	20716.08
489.99	20585.01
490.17	20643.52
490.35	20889.28
490.53	20664.59
490.70	21233.34
490.88	21078.86
491.06	21460.37
491.24	21378.45
491.41	21172.49
491.59	21556.33
491.77	21280.15
491.95	21907.41
492.13	21891.03
492.30	22288.92
492.48	22258.49
492.66	22527.66
492.84	22375.52
493.01	22728.94
493.19	22604.89
493.37	23016.83
493.54	22742.99
493.72	23037.89
493.90	23040.23
494.08	23421.74
494.25	23784.52
494.43	23859.42
494.61	23817.29
494.79	24051.34
494.96	23793.89
495.14	24219.86
495.32	24187.10
495.49	24290.08
495.67	24781.59
495.85	24566.26
496.02	24531.15
496.20	25041.39
496.38	25102.25
496.55	25261.40
496.73	25434.60
496.91	25614.82
497.09	25216.93
497.26	25881.64
497.44	25844.20
497.62	25521.20
497.79	26085.27
497.97	26026.76
498.14	25708.44
498.32	26230.38
498.50	25991.65
498.67	26637.64
498.85	26536.99
499.03	27030.85
499.20	27021.48
499.38	26881.05
499.56	27154.90
499.73	26911.48
499.91	26906.80
500.08	26974.67
500.26	27281.28
500.44	27218.09
500.61	27274.26
500.79	27337.46
500.97	27538.74
501.14	27934.29
501.32	27608.96
501.49	27765.78
501.67	28046.64
501.84	28053.66
502.02	28020.89
502.20	28217.50
502.37	28587.30
502.55	28599.01
502.72	28828.38
502.90	28884.55
503.07	28922.00
503.25	28858.81
503.43	28657.52
503.60	28912.64
503.78	28615.39
503.95	28879.87
504.13	29032.00
504.30	29200.52
504.48	29575.01
504.65	29621.82
504.83	29654.59
505.01	29841.83
505.18	29860.55
505.36	30522.93
505.53	30174.19
505.71	30314.62
505.88	30333.34
506.06	30455.05
506.23	30101.63
506.41	30103.97
506.58	30553.35
506.76	30338.02
506.93	30703.15
507.11	30607.19
507.28	30635.27
507.46	30799.11
507.63	31056.57
507.81	30974.65
507.98	30925.50
508.16	31180.62
508.33	31222.75
508.50	31459.14
508.68	31557.44
508.85	31756.39
509.03	31271.90
509.20	32009.17
509.38	31791.50
509.55	32222.16
509.73	31814.90
509.90	32407.06
510.08	32203.43
510.25	32109.81
510.42	32453.87
510.60	32290.03
510.77	32184.71
510.95	32936.02
511.12	32755.80
511.30	32748.78
511.47	33209.86
511.64	33404.13
511.82	33460.30
511.99	33060.07
512.17	33048.36
512.34	32734.73
512.51	33228.59
512.69	33551.58
512.86	33193.48
513.04	33876.91
513.21	33832.44
513.38	33476.68
513.56	33621.80
513.73	33825.42
513.90	33991.60
514.08	33771.59
514.25	34232.68
514.43	33858.19
514.60	34216.29
514.77	34057.14
514.95	34548.65
515.12	34419.92
515.29	34696.10
515.47	34829.51
515.64	34707.80
515.81	34342.68
515.99	34670.36
516.16	34698.44
516.33	34103.95
516.51	34237.36
516.68	33832.44
516.85	33851.17
517.03	34085.22
517.20	34834.19
517.37	34960.58
517.54	34574.39
517.72	34986.33
517.89	34988.67
518.06	34653.97
518.24	34895.05
518.41	35063.57
518.58	35058.88
518.75	35419.33
518.93	35613.59
519.10	35754.02
519.27	35782.11
519.45	35826.58
519.62	36023.19
519.79	36023.19
519.96	36172.98
520.14	36224.47
520.31	36172.98
520.48	36264.26
520.65	36460.87
520.83	36634.06
521.00	36858.76
521.17	36765.14
521.34	37067.06
521.52	36598.96
521.69	36912.59
521.86	37001.53
522.03	37303.46
522.20	36931.31
522.38	37167.71
522.55	37247.29
522.72	37055.36
522.89	37085.79
523.07	37603.05
523.24	37446.23
523.41	37982.21
523.58	37773.91
523.75	38122.65
523.92	37607.73
524.10	38494.79
524.27	38258.40
524.44	38300.53
524.61	38113.28
524.78	38277.12
524.96	38962.90
525.13	38459.68
525.30	38682.03
525.47	38462.02
525.64	38979.28
525.81	38572.03
525.98	38560.33
526.16	38300.53
526.33	37912.00
526.50	38539.26
526.67	37998.60
526.84	38270.10
527.01	37799.65
527.18	38990.98
527.36	39143.12
527.53	38775.66
527.70	39108.01
527.87	39035.45
528.04	39021.41
528.21	39456.75
528.38	39349.09
528.55	39765.70
528.72	39580.80
528.89	39805.49
529.07	39861.66
529.24	39487.18
529.41	39569.10
529.58	39377.17
529.75	39632.29
529.92	40226.79
530.09	39798.47
530.26	39756.34
530.43	40074.65
530.60	39971.67
530.77	39885.07
530.94	40076.99
531.11	40397.65
531.28	40158.91
531.46	40591.91
531.63	40325.09
531.80	40339.13
531.97	40161.25
532.14	39800.81
532.31	39791.45
532.48	40608.29
532.65	40734.68
532.82	40217.43
532.99	40542.76
533.16	40355.52
533.33	40952.35
533.50	41345.56
533.67	40648.08
533.84	40694.89
534.01	40825.96
534.18	40844.69
534.35	41521.10
534.52	40802.56
534.69	41378.33
534.86	41624.09
535.03	41301.09
535.20	41745.80
535.37	41876.86
535.54	41500.04
535.71	41619.41
535.88	41736.43
536.05	41476.63
536.22	41670.90
536.38	41490.68
536.55	41640.47
536.72	41567.91
536.89	41446.21
537.06	41806.65
537.23	41773.88
537.40	41797.29
537.57	41886.23
537.74	41832.39
537.91	42312.20
538.08	42089.85
538.25	42153.05
538.42	42321.57
538.59	42183.48
538.75	41757.50
538.92	41734.09
539.09	42492.43
539.26	41944.74
539.43	42153.05
539.60	42550.94
539.77	42052.41
539.94	42387.10
540.11	42237.31
540.28	42260.71
540.44	42134.32
540.61	42188.16
540.78	42696.05
540.95	42443.27
541.12	42227.95
541.29	42541.58
541.46	42831.80
541.62	42398.80
541.79	42939.47
541.96	43250.76
542.13	42682.01
542.30	42698.39
542.47	42845.85
542.63	43089.26
542.80	43042.45
542.97	43426.30
543.14	43548.01
543.31	43416.94
543.48	43199.27
543.64	44154.21
543.81	43910.79
543.98	43756.32
544.15	43683.76
544.32	43753.97
544.48	44011.43
544.65	43711.84
544.82	43934.20
544.99	43625.25
545.16	43899.09
545.32	43721.21
545.49	43840.57
545.66	44140.16
545.83	43924.83
546.00	44196.34
546.16	43981.01
546.33	43608.86
546.50	43683.76
546.67	43861.64
546.83	43540.99
547.00	44140.16
547.17	43866.32
547.34	44156.55
547.50	44168.25
547.67	44236.12
547.84	44528.69
548.00	44552.10
548.17	44842.32
548.34	44341.45
548.51	44847.00
548.67	44215.06
548.84	44954.67
549.01	44091.01
549.18	44542.74
549.34	44594.23
549.51	44926.58
549.68	44739.34
549.84	44886.79
550.01	44971.05
550.18	44669.12
550.34	44910.20
550.51	44722.96
550.68	44854.03
550.84	44573.16
551.01	45048.29
551.18	45003.82
551.34	44828.28
551.51	44879.77
551.68	45247.24
551.84	44900.84
552.01	44821.26
552.18	45010.84
552.34	45134.89
552.51	44882.11
552.68	44622.31
552.84	45043.61
553.01	45354.90
553.18	45481.29
553.34	45340.86
553.51	45174.68
553.67	45027.23
553.84	45581.93
554.01	45319.79
554.17	45982.16
554.34	45649.81
554.51	45684.92
554.67	45956.42
554.84	45413.41
555.00	45661.51
555.17	45179.36
555.33	45310.43
555.50	45490.65
555.67	45656.83
555.83	45272.98
556.00	45605.34
556.16	46038.34
556.33	45500.01
556.50	45542.14
556.66	45652.15
556.83	45050.63
556.99	45642.79
557.16	45909.61
557.32	45607.68
557.49	46169.41
557.65	45357.24
557.82	45673.21
557.98	46026.63
558.15	46246.65
558.32	46288.77
558.48	45614.70
558.65	45193.40
558.81	45865.14
558.98	45645.13
559.14	45570.23
559.31	45975.14
559.47	45530.44
559.64	46286.43
559.80	45876.84
559.97	46368.35
560.13	45549.17
560.30	46075.79
560.46	46092.17
560.63	46387.08
560.79	46447.93
560.96	46436.23
561.12	46277.07
561.29	46225.58
561.45	46183.45
561.61	46096.85
561.78	45918.97
561.94	46323.88
562.11	46532.19
562.27	46120.26
562.44	46513.47
562.60	46520.49
562.77	46894.97
562.93	46106.21
563.10	46328.56
563.26	45923.65
563.42	46494.74
563.59	46370.69
563.75	46457.29
563.92	46721.77
564.08	46211.54
564.24	46686.67
564.41	46810.71
564.57	46279.41
564.74	46490.06
564.90	46529.85
565.07	46211.54
565.23	46476.02
565.39	46373.03
565.56	46466.66
565.72	46153.02
565.88	46281.75
566.05	46307.50
566.21	46967.53
566.38	45773.86
566.54	46480.70
566.70	46389.42
566.87	46925.40
567.03	46857.52
567.19	47098.60
567.36	46663.26
567.52	46635.17
567.68	46735.82
567.85	46358.99
568.01	46717.09
568.17	46784.97
568.34	46827.10
568.50	46590.70
568.66	46382.40
568.83	46539.21
568.99	46433.89
569.15	46801.35
569.32	46340.27
569.48	46445.59
569.64	46300.48
569.81	46878.59
569.97	46749.86
570.13	46518.15
570.30	46419.84
570.46	46401.12
570.62	46286.43
570.78	46176.43
570.95	46326.22
571.11	46689.01
571.27	46822.42
571.43	46492.40
571.60	46667.94
571.76	46450.27
571.92	46740.50
572.09	46553.26
572.25	46740.50
572.41	46855.18
572.57	46869.23
572.74	46820.08
572.90	46955.83
573.06	47133.71
573.22	46597.73
573.38	46693.69
573.55	46845.82
573.71	46878.59
573.87	46553.26
574.03	46873.91
574.20	46471.34
574.36	46831.78
574.52	46574.32
574.68	46529.85
574.84	46602.41
575.01	46679.64
575.17	46813.05
575.33	46588.36
575.49	47068.17
575.65	47019.02
575.82	46660.92
575.98	46644.54
576.14	47114.98
576.30	46424.53
576.46	46667.94
576.62	46686.67
576.79	46857.52
576.95	46546.23
577.11	47016.68
577.27	46681.98
577.43	46590.70
577.59	46735.82
577.75	46822.42
577.92	46630.49
578.08	46291.12
578.24	46508.79
578.40	46454.95
578.56	46960.51
578.72	46092.17
578.88	46557.94
579.04	47047.11
579.21	46841.14
579.37	46586.02
579.53	46799.01
579.69	46859.87
579.85	46644.54
580.01	46859.87
580.17	46628.15
580.33	46820.08
580.49	47030.72
580.65	47033.07
580.82	46979.23
580.98	46752.20
581.14	46611.77
581.30	46972.21
581.46	47100.94
581.62	46976.89
581.78	46780.29
581.94	46944.12
582.10	46672.62
582.26	47175.84
582.42	46866.89
582.58	46997.96
582.74	47157.11
582.90	46735.82
583.06	47522.24
583.22	47320.95
583.38	47157.11
583.54	47196.90
583.70	46525.17
583.86	47091.58
584.02	46667.94
584.18	46539.21
584.34	46813.05
584.50	46761.56
584.66	46721.77
584.82	46836.46
584.98	46993.28
585.14	47124.35
585.30	47016.68
585.46	47112.64
585.62	46810.71
585.78	46817.74
585.94	46209.20
586.10	46890.29
586.26	46791.99
586.42	47559.69
586.58	47026.04
586.74	47023.70
586.90	46857.52
587.06	46686.67
587.22	47171.16
587.38	46864.55
587.54	46904.34
587.70	46899.65
587.86	47180.52
588.02	46766.24
588.18	46703.05
588.34	46490.06
588.49	46288.77
588.65	46286.43
588.81	46223.24
588.97	46649.22
589.13	46279.41
589.29	46710.07
589.45	46728.80
589.61	46904.34
589.77	46878.59
589.93	46876.25
590.08	47178.18
590.24	47028.38
590.40	47199.24
590.56	47248.39
590.72	47201.58
590.88	46686.67
591.04	47386.49
591.20	47278.82
591.35	47400.53
591.51	47243.71
591.67	47040.09
591.83	47281.16
591.99	46777.95
592.15	47159.45
592.31	46986.25
592.46	46684.33
592.62	47016.68
592.78	47241.37
592.94	47367.76
593.10	46838.80
593.26	47002.64
593.41	46990.94
593.57	46951.15
593.73	46679.64
593.89	47124.35
594.05	47250.74
594.20	47014.34
594.36	47126.69
594.52	47150.09
594.68	46726.46
594.84	46988.60
594.99	47147.75
595.15	47281.16
595.31	47239.03
595.47	46953.49
595.62	47217.97
595.78	46925.40
595.94	47089.24
596.10	47459.04
596.25	47096.26
596.41	47334.99
596.57	47063.49
596.73	47393.51
596.88	46667.94
597.04	46852.84
597.20	47077.54
597.36	46972.21
597.51	47552.66
597.67	47363.08
597.83	47299.89
597.99	47299.89
598.14	47065.83
598.30	47042.43
598.46	47079.88
598.61	47334.99
598.77	46801.35
598.93	46621.13
599.09	47026.04
599.24	47693.10
599.40	47246.05
599.56	47136.05
599.71	47096.26
599.87	47491.81
600.03	47122.01
600.18	46817.74
600.34	47161.79
600.50	47760.97
600.65	46930.08
600.81	46965.19
600.97	47278.82
601.12	47255.42
601.28	46909.02
601.44	47187.54
601.59	46988.60
601.75	46852.84
601.91	46642.20
602.06	46564.96
602.22	47136.05
602.37	47136.05
602.53	47433.30
602.69	47217.97
602.84	46595.38
603.00	46965.19
603.16	46923.06
603.31	47122.01
603.47	47292.86
603.62	47206.26
603.78	47320.95
603.94	47091.58
604.09	46967.53
604.25	47180.52
604.40	47400.53
604.56	47285.84
604.71	46841.14
604.87	46890.29
605.03	46806.03
605.18	46958.17
605.34	46946.47
605.49	46885.61
605.65	47320.95
605.80	46827.10
605.96	46796.67
606.12	47248.39
606.27	47271.80
606.43	46452.61
606.58	47023.70
606.74	46756.88
606.89	46579.00
607.05	46756.88
607.20	46946.47
607.36	46808.37
607.51	46742.84
607.67	46724.11
607.82	46665.60
607.98	46824.76
608.13	46131.96
608.29	46529.85
608.44	46344.95
608.60	46150.68
608.75	46560.28
608.91	46237.28
609.06	46499.42
609.22	46459.63
609.37	46169.41
609.53	46401.12
609.68	46440.91
609.84	46227.92
609.99	46323.88
610.15	46141.32
610.30	46192.81
610.46	46040.68
610.61	46543.89
610.76	46281.75
610.92	46382.40
611.07	46913.70
611.23	46995.62
611.38	46593.04
611.54	46621.13
611.69	46134.30
611.84	45736.41
612.00	46302.82
612.15	46099.19
612.31	46438.57
612.46	46412.82
612.62	46223.24
612.77	45811.31
612.92	46443.25
613.08	46469.00
613.23	45972.80
613.39	46288.77
613.54	45635.77
613.69	45902.59
613.85	45647.47
614.00	45806.62
614.15	45790.24
614.31	46094.51
614.46	46129.62
614.62	45933.01
614.77	45949.40
614.92	46038.34
615.08	45691.94
615.23	45748.11
615.38	45797.26
615.54	45191.06
615.69	45572.57
615.84	45567.89
616.00	45509.38
616.15	45916.63
616.30	45441.50
616.46	45401.71
616.61	45579.59
616.76	45099.78
616.92	44851.69
617.07	45017.86
617.22	44996.80
617.37	45357.24
617.53	45514.06
617.68	45560.87
617.83	45701.30
617.99	45429.80
618.14	45834.71
618.29	45064.67
618.45	44795.51
618.60	45219.15
618.75	44811.90
618.90	45287.03
619.06	45174.68
619.21	45043.61
619.36	45432.14
619.51	45193.40
619.67	45170.00
619.82	45457.88
619.97	45268.30
620.12	44957.01
620.28	44788.49
620.43	44772.11
620.58	45024.89
620.73	44811.90
620.89	45092.76
621.04	45177.02
621.19	44786.15
621.34	45214.47
621.49	45031.91
621.65	44491.24
621.80	44418.69
621.95	44729.98
622.10	44399.96
622.25	44266.55
622.41	44568.48
622.56	44355.49
622.71	44589.55
622.86	44666.78
623.01	44821.26
623.16	44563.80
623.32	44573.16
623.47	44495.92
623.62	44226.76
623.77	44264.21
623.92	44318.04
624.07	44435.07
624.23	44500.61
624.38	44137.82
624.53	43817.17
624.68	44416.35
624.83	43962.28
624.98	43819.51
625.13	43690.78
625.29	43751.63
625.44	44088.67
625.59	43751.63
625.74	43866.32
625.89	43147.78
626.04	43515.24
626.19	43866.32
626.34	43772.70
626.49	43952.92
626.65	44093.35
626.80	44053.56
626.95	43983.35
627.10	43892.07
627.25	43540.99
627.40	43257.78
627.55	43021.39
627.70	43185.22
627.85	43033.09
628.00	43260.12
628.15	43344.38
628.30	43168.84
628.45	43632.27
628.60	43480.13
628.76	43344.38
628.91	43079.90
629.06	43014.37
629.21	43203.95
629.36	42712.44
629.51	43077.56
629.66	42440.93
629.81	42588.39
629.96	43014.37
630.11	43173.52
630.26	43421.62
630.41	43372.47
630.56	43068.20
630.71	43466.09
630.86	42880.95
631.01	42766.27
631.16	43049.47
631.31	43255.44
631.46	42321.57
631.61	42536.90
631.76	42600.09
631.91	42808.40
632.06	42382.42
632.21	42869.25
632.36	42611.79
632.51	42548.60
632.66	42845.85
632.81	42080.49
632.96	42349.65
633.10	42066.45
633.25	42532.22
633.40	42579.03
633.55	42738.18
633.70	42284.12
633.85	42265.39
634.00	42440.93
634.15	42555.62
634.30	42445.62
634.45	42438.59
634.60	42429.23
634.75	42249.01
634.90	42197.52
635.05	41935.38
635.19	41991.55
635.34	42415.19
635.49	41996.23
635.64	41848.78
635.79	41928.36
635.94	42092.19
636.09	41989.21
636.24	41944.74
636.39	41811.33
636.53	42080.49
636.68	41837.08
636.83	41755.16
636.98	42251.35
637.13	41462.59
637.28	42312.20
637.43	42195.18
637.57	42096.88
637.72	42176.45
637.87	41401.74
638.02	41965.81
638.17	41977.51
638.32	41359.61
638.46	41574.94
638.61	41776.22
638.76	41158.32
638.91	41621.75
639.06	41687.28
639.20	41343.22
639.35	41841.76
639.50	41390.03
639.65	41539.83
639.80	41336.20
639.94	41359.61
640.09	41207.47
640.24	41373.65
640.39	40751.07
640.54	40964.06
640.68	41006.19
640.83	41090.44
640.98	41106.83
641.13	40788.52
641.27	41305.77
641.42	41207.47
641.57	41081.08
641.72	40685.53
641.86	40652.76
642.01	40980.44
642.16	40800.22
642.31	40631.70
642.45	40697.24
642.60	40444.46
642.75	40573.19
642.90	40715.96
643.04	40931.29
643.19	40898.52
643.34	40479.57
643.48	40491.27
643.63	40336.79
643.78	40311.05
643.93	40261.90
644.07	40350.84
644.22	40680.85
644.37	40121.46
644.51	40430.41
644.66	40500.63
644.81	40856.39
644.95	40678.51
645.10	40807.24
645.25	40556.80
645.39	40734.68
645.54	40399.99
645.69	40158.91
645.83	40322.75
645.98	40435.10
646.13	40308.71
646.27	40322.75
646.42	40119.12
646.57	40313.39
646.71	40112.10
646.86	40409.35
647.00	40011.46
647.15	39620.59
647.30	39756.34
647.44	39882.73
647.59	39810.17
647.74	39700.17
647.88	39660.38
648.03	39941.24
648.17	40240.83
648.32	39524.63
648.47	40463.18
648.61	39618.25
648.76	39737.62
648.90	39431.01
649.05	39580.80
649.20	39711.87
649.34	40044.23
649.49	39264.83
649.63	39552.71
649.78	39688.46
649.92	39651.02
650.07	39749.32
650.21	39159.50
650.36	39742.30
650.51	39271.85
650.65	39573.78
650.80	39990.39
650.94	39632.29
651.09	39559.73
651.23	39108.01
651.38	39171.21
651.52	39393.56
651.67	38859.91
651.81	38998.01
651.96	38618.84
652.10	38932.47
652.25	39150.14
652.39	38995.67
652.54	38955.88
652.68	39356.11
652.83	39243.76
652.97	39370.15
653.12	38927.79
653.26	38745.23
653.41	39105.67
653.55	38976.94
653.70	38747.57
653.84	38827.15
653.99	38934.81
654.13	39037.80
654.27	38574.37
654.42	38780.34
654.56	38340.32
654.71	38607.14
654.85	38422.23
655.00	38604.80
655.14	38043.07
655.29	37897.95
655.43	38436.28
655.57	38209.25
655.72	38160.09
655.86	37598.37
656.01	37610.07
656.15	37752.84
656.30	37839.44
656.44	37809.01
656.58	37780.93
656.73	37909.66
656.87	37804.33
657.01	37928.38
657.16	37930.72
657.30	37699.01
657.45	37940.08
657.59	37593.68
657.73	37483.68
657.88	38162.43
658.02	38361.38
658.16	38185.84
658.31	38518.20
658.45	38064.13
658.60	37703.69
658.74	38110.94
658.88	38068.81
659.03	37553.90
659.17	37376.01
659.31	37673.26
659.46	37195.79
659.60	37528.15
659.74	37624.11
659.89	37383.04
660.03	37270.69
660.17	37148.98
660.32	37249.63
660.46	37787.95
660.60	37284.73
660.74	37361.97
660.89	37186.43
661.03	37017.91
661.17	36889.18
661.32	36594.28
661.46	36589.59
661.60	36814.29
661.74	37029.62
661.89	36865.78
662.03	36875.14
662.17	36505.34
662.31	36252.56
662.46	36884.50
662.60	36900.89
662.74	36526.40
662.88	36039.57
663.03	35924.88
663.17	36006.80
663.31	36397.67
663.45	36294.69
663.60	36018.50
663.74	36002.12
663.88	35852.33
664.02	35882.75
664.17	36236.17
664.31	36180.00
664.45	35707.21
664.59	35615.93
664.73	36034.89
664.88	35697.85
665.02	35878.07
665.16	35786.79
665.30	35615.93
665.44	35445.07
665.59	35744.66
665.73	35138.46
665.87	34986.33
666.01	35168.89
666.15	35608.91
666.29	35358.47
666.44	35136.12
666.58	35101.01
666.72	35625.29
666.86	34897.39
667.00	35449.75
667.14	34740.57
667.28	35077.61
667.43	34558.01
667.57	34628.23
667.71	34829.51
667.85	34356.72
667.99	34560.35
668.13	34429.28
668.27	34831.85
668.41	34330.98
668.56	34202.25
668.70	34871.64
668.84	34195.23
668.98	33872.23
669.12	33933.09
669.26	33703.71
669.40	33762.23
669.54	33832.44
669.68	34024.37
669.82	33237.95
669.96	33694.35
670.10	33652.22
670.25	33654.56
670.39	33474.34
670.53	33167.73
670.67	33160.71
670.81	33649.88
670.95	33378.38
671.09	33560.94
671.23	33546.90
671.37	32868.14
671.51	33071.77
671.65	32921.98
671.79	32545.15
671.93	32875.16
672.07	32748.78
672.21	33139.65
672.35	32940.70
672.49	32826.01
672.63	32570.90
672.77	32634.09
672.91	32383.65
673.05	32587.28
673.19	32507.70
673.33	32458.55
673.47	32070.02
673.61	31871.07
673.75	31948.31
673.89	32315.78
674.03	31166.57
674.17	31803.20
674.31	31852.35
674.45	32107.47
674.59	31496.59
674.73	31622.98
674.87	31728.30
675.01	31407.65
675.15	31431.05
675.29	31433.39
675.43	31456.80
675.56	31690.85
675.70	31065.93
675.84	31105.72
675.98	30108.65
676.12	30923.16
676.26	31168.91
676.40	30609.53
676.54	30600.16
676.68	30824.86
676.82	29963.54
676.96	30644.63
677.10	30543.99
677.23	30267.81
677.37	30071.20
677.51	30167.16
677.65	29951.84
677.79	29816.08
677.93	29923.75
678.07	29638.20
678.21	29345.64
678.34	29291.80
678.48	29034.35
678.62	29088.18
678.76	28746.46
678.90	28833.06
679.04	28865.83
679.18	29069.45
679.31	28692.63
679.45	28437.51
679.59	27992.81
679.73	28383.68
679.87	28250.27
680.00	28594.32
680.14	28048.98
680.28	27772.80
680.42	27955.36
680.56	28381.34
680.70	28070.04
680.83	28198.77
680.97	27634.71
681.11	27796.20
681.25	27386.61
681.39	27592.58
681.52	27611.30
681.66	27482.57
681.80	27435.76
681.94	27417.04
682.07	27140.85
682.21	27108.08
682.35	26796.79
682.49	26991.06
682.62	27131.49
682.76	26642.32
682.90	26464.44
683.04	26506.57
683.17	26586.15
683.31	25895.69
683.45	26377.84
683.59	26181.23
683.72	25893.35
683.86	25914.41
684.00	26050.16
684.13	25900.37
684.27	25404.17
684.41	25195.87
684.55	25500.14
684.68	25605.46
684.82	25539.93
684.96	25413.54
685.09	25511.84
685.23	25039.05
685.37	25032.03
685.50	25074.16
685.64	24893.94
685.78	24713.72
685.91	24762.87
686.05	24650.52
686.19	24360.30
686.32	24203.48
686.46	23857.08
686.60	23487.28
686.73	23494.30
686.87	23896.87
687.01	23669.84
687.14	23356.21
687.28	23564.51
687.42	23447.49
687.55	23267.27
687.69	23468.55
687.82	23154.92
687.96	22988.74
688.10	23264.92
688.23	22754.69
688.37	22752.35
688.50	22874.06
688.64	22628.30
688.78	22635.32
688.91	22628.30
689.05	22637.66
689.18	22979.38
689.32	22129.77
689.46	22225.73
689.59	22583.83
689.73	22185.94
689.86	22600.21
690.00	22396.59
690.13	22171.89
690.27	21809.11
690.41	21823.16
690.54	21633.57
690.68	21394.84
690.81	21460.37
690.95	21455.69
691.08	21247.38
691.22	21495.48
691.35	21418.24
691.49	21359.73
691.62	21310.58
691.76	21443.99
691.89	20840.13
692.03	21025.03
692.16	20786.30
692.30	20570.97
692.43	20458.62
692.57	20524.16
692.70	20400.11
692.84	20582.67
692.97	20297.13
693.11	20159.03
693.24	20194.14
693.38	20039.67
693.51	19915.62
693.65	20187.12
693.78	19992.86
693.92	20070.09
694.05	19428.79
694.19	19859.45
694.32	19513.05
694.45	19447.51
694.59	19283.67
694.72	19234.52
694.86	19257.93
694.99	19108.13
695.13	19344.53
695.26	18743.01
695.39	18946.64
695.53	18801.52
695.66	18970.04
695.80	18764.07
695.93	19037.92
696.07	18611.94
696.20	18583.85
696.33	18562.79
696.47	18628.32
696.60	18537.04
696.73	18270.22
696.87	18019.78
697.00	18216.39
697.14	18078.30
697.27	18253.84
697.40	18031.49
697.54	17659.34
697.67	17600.83
697.80	17420.61
697.94	17284.86
698.07	17453.37
698.21	17453.37
698.34	17308.26
698.47	16957.18
698.61	16950.16
698.74	16938.46
698.87	16709.08
699.01	16606.10
699.14	16365.03
699.27	16666.95
699.40	16519.50
699.54	16695.04
699.67	16236.30
699.80	16407.16
699.94	16180.12
700.07	16339.28
700.20	16198.85
700.34	16039.69
700.47	16159.06
700.60	16259.70
700.73	16315.87
700.87	16128.63
701.00	15936.71
701.13	15906.28
701.26	15866.49
701.40	15763.51
701.53	15585.63
701.66	15695.63
701.79	15337.53
701.93	15218.16
702.06	15014.54
702.19	15110.50
702.32	15410.09
702.46	14897.51
702.59	14916.23
702.72	14937.30
702.85	14918.57
702.99	15040.28
703.12	14941.98
703.25	14956.02
703.38	14607.28
703.51	14621.33
703.65	14473.87
703.78	14609.62
703.91	14611.96
704.04	14349.82
704.17	14111.09
704.31	14303.01
704.44	14279.61
704.57	14443.45
704.70	14010.45
704.83	14211.73
704.96	14087.68
705.10	13902.78
705.23	13790.44
>>>>>End Processed Spectral Data<<<<<
