SpectraSuite Data File
++++++++++++++++++++++++++++++++++++
Date: Fri Oct 25 10:44:34 EDT 2013
User: price-jones
Dark Spectrum Present: No
Reference Spectrum Present: No
Number of Sampled Component Spectra: 1
Spectrometers: USB2+H05261
Integration Time (usec): 100000 (USB2+H05261)
Spectra Averaged: 1 (USB2+H05261)
Boxcar Smoothing: 0 (USB2+H05261)
Correct for Electrical Dark: No (USB2+H05261)
Strobe/Lamp Enabled: No (USB2+H05261)
Correct for Detector Non-linearity: No (USB2+H05261)
Correct for Stray Light: No (USB2+H05261)
Number of Pixels in Processed Spectrum: 2048
>>>>>Begin Processed Spectral Data<<<<<
365.73	126.39
365.92	126.39
366.12	126.39
366.32	32.77
366.52	51.49
366.72	39.79
366.91	105.32
367.11	49.15
367.31	65.54
367.51	14.04
367.70	0.00
367.90	25.75
368.10	0.00
368.30	95.96
368.49	37.45
368.69	51.49
368.89	70.22
369.09	4.68
369.28	18.72
369.48	25.75
369.68	42.13
369.87	42.13
370.07	102.98
370.27	124.05
370.47	201.29
370.66	304.27
370.86	372.15
371.06	414.27
371.25	416.62
371.45	365.12
371.65	505.56
371.84	472.79
372.04	444.70
372.24	411.93
372.44	440.02
372.63	425.98
372.83	397.89
373.03	484.49
373.22	472.79
373.42	458.74
373.62	505.56
373.81	451.72
374.01	564.07
374.21	482.15
374.40	524.28
374.60	491.51
374.79	528.96
374.99	470.45
375.19	552.37
375.38	552.37
375.58	489.17
375.78	608.54
375.97	564.07
376.17	582.79
376.37	557.05
376.56	594.50
376.76	571.09
376.95	514.92
377.15	498.53
377.35	624.92
377.54	645.99
377.74	571.09
377.93	617.90
378.13	620.24
378.33	657.69
378.52	624.92
378.72	690.46
378.91	645.99
379.11	660.03
379.31	580.45
379.50	613.22
379.70	655.35
379.89	610.88
380.09	657.69
380.28	538.32
380.48	608.54
380.68	678.76
380.87	662.37
381.07	671.73
381.26	704.50
381.46	683.44
381.65	685.78
381.85	683.44
382.04	643.65
382.24	711.52
382.43	685.78
382.63	606.20
382.83	685.78
383.02	746.63
383.22	678.76
383.41	662.37
383.61	643.65
383.80	692.80
384.00	709.18
384.19	697.48
384.39	732.59
384.58	739.61
384.78	765.36
384.97	746.63
385.17	720.88
385.36	744.29
385.56	763.01
385.75	671.73
385.95	720.88
386.14	772.38
386.34	755.99
386.53	816.85
386.72	793.44
386.92	774.72
387.11	779.40
387.31	758.33
387.50	861.32
387.70	821.53
387.89	784.08
388.09	851.96
388.28	816.85
388.48	784.08
388.67	840.25
388.86	835.57
389.06	905.79
389.25	835.57
389.45	856.64
389.64	959.62
389.84	903.45
390.03	905.79
390.22	1011.11
390.42	889.40
390.61	917.49
390.81	915.15
391.00	947.92
391.19	980.68
391.39	952.60
391.58	980.68
391.78	957.28
391.97	966.64
392.16	1004.09
392.36	1095.37
392.55	978.34
392.75	1013.45
392.94	933.87
393.13	938.55
393.33	873.02
393.52	1008.77
393.71	919.83
393.91	1074.31
394.10	1004.09
394.29	1090.69
394.49	1029.84
394.68	1130.48
394.88	1144.52
395.07	1196.01
395.26	1090.69
395.46	1034.52
395.65	1109.41
395.84	1146.86
396.04	1128.14
396.23	1104.73
396.42	1139.84
396.62	1114.10
396.81	1123.46
397.00	1102.39
397.19	1179.63
397.39	1121.12
397.58	1219.42
397.77	1181.97
397.97	1282.61
398.16	1240.48
398.35	1394.96
398.55	1235.80
398.74	1338.79
398.93	1413.68
399.12	1320.06
399.32	1320.06
399.51	1322.40
399.70	1383.26
399.90	1366.87
400.09	1376.24
400.28	1565.82
400.47	1406.66
400.67	1465.18
400.86	1444.11
401.05	1437.09
401.24	1488.58
401.44	1547.09
401.63	1582.20
401.82	1493.26
402.01	1502.62
402.21	1647.74
402.40	1502.62
402.59	1544.75
402.78	1523.69
402.97	1565.82
403.17	1636.03
403.36	1617.31
403.55	1577.52
403.74	1696.89
403.93	1727.32
404.13	1614.97
404.32	1612.63
404.51	1764.76
404.70	1746.04
404.89	1710.93
405.09	1795.19
405.28	1799.87
405.47	1743.70
405.66	1799.87
405.85	1717.95
406.05	1771.79
406.24	1877.11
406.43	1844.34
406.62	1827.96
406.81	1907.54
407.00	1792.85
407.20	1792.85
407.39	1767.10
407.58	1928.60
407.77	1879.45
407.96	1942.64
408.15	2029.24
408.34	2015.20
408.54	2038.61
408.73	1994.14
408.92	2036.27
409.11	2127.55
409.30	2047.97
409.49	1977.75
409.68	2106.48
409.87	2129.89
410.07	2026.90
410.26	2099.46
410.45	2202.44
410.64	2209.47
410.83	2202.44
411.02	2230.53
411.21	2380.32
411.40	2260.96
411.59	2317.13
411.78	2305.43
411.98	2356.92
412.17	2326.49
412.36	2380.32
412.55	2434.16
412.74	2572.25
412.93	2476.29
413.12	2509.05
413.31	2630.76
413.50	2459.90
413.69	2483.31
413.88	2672.89
414.07	2553.52
414.26	2637.78
414.45	2644.81
414.64	2682.25
414.83	2621.40
415.02	2590.97
415.22	2654.17
415.41	2712.68
415.60	2834.39
415.79	2853.11
415.98	2869.50
416.17	2825.03
416.36	2956.10
416.55	2822.69
416.74	2906.95
416.93	2895.24
417.12	2970.14
417.31	3061.42
417.50	3009.93
417.69	3138.66
417.88	3087.17
418.07	3108.23
418.26	3138.66
418.45	3171.43
418.64	3274.41
418.83	3169.09
419.02	3239.30
419.21	3274.41
419.39	3330.58
419.58	3169.09
419.77	3204.19
419.96	3377.39
420.15	3428.88
420.34	3281.43
420.53	3323.56
420.72	3283.77
420.91	3379.73
421.10	3330.58
421.29	3361.01
421.48	3396.12
421.67	3496.76
421.86	3412.50
422.05	3391.44
422.24	3405.48
422.43	3323.56
422.61	3480.38
422.80	3531.87
422.99	3581.02
423.18	3468.67
423.37	3667.62
423.56	3520.17
423.75	3506.12
423.94	3569.32
424.13	3321.22
424.32	3375.05
424.50	3552.93
424.69	3609.11
424.88	3716.77
425.07	3454.63
425.26	3475.70
425.45	3482.72
425.64	3492.08
425.83	3482.72
426.01	3592.72
426.20	3667.62
426.39	3576.34
426.58	3592.72
426.77	3522.51
426.96	3763.58
427.15	3623.15
427.33	3714.43
427.52	3719.11
427.71	3702.73
427.90	3756.56
428.09	3833.80
428.28	3772.94
428.46	3777.62
428.65	3801.03
428.84	3838.48
429.03	3997.64
429.22	3808.05
429.40	3801.03
429.59	3845.50
429.78	3707.41
429.97	3772.94
430.16	3733.15
430.34	3838.48
430.53	3988.27
430.72	3960.19
430.91	3838.48
431.10	4028.06
431.28	4107.64
431.47	4276.16
431.66	4081.89
431.85	4131.05
432.03	4224.67
432.22	4411.91
432.41	4329.99
432.60	4458.72
432.79	4273.82
432.97	4311.27
433.16	4290.20
433.35	4346.37
433.54	4395.53
433.72	4365.10
433.91	4269.14
434.10	4367.44
434.28	4315.95
434.47	4458.72
434.66	4416.59
434.85	4451.70
435.03	4437.66
435.22	4456.38
435.41	4650.64
435.59	4599.15
435.78	4751.29
435.97	4535.96
436.16	4603.83
436.34	4615.54
436.53	4765.33
436.72	4676.39
436.90	4610.86
437.09	4755.97
437.28	4496.17
437.46	4643.62
437.65	4781.71
437.84	4781.71
438.02	4748.95
438.21	4592.13
438.40	4856.61
438.58	4798.10
438.77	5064.92
438.96	5039.17
439.14	5097.69
439.33	5015.77
439.52	5102.37
439.70	5242.80
439.89	5043.85
440.08	5172.58
440.26	5441.75
440.45	5210.03
440.63	5327.06
440.82	5444.09
441.01	5329.40
441.19	5495.58
441.38	5664.10
441.57	5518.98
441.75	5556.43
441.94	5404.30
442.12	5804.53
442.31	5839.64
442.50	5891.13
442.68	5736.65
442.87	5776.44
443.05	5781.12
443.24	5937.94
443.43	5809.21
443.61	5872.40
443.80	5928.58
443.98	5877.09
444.17	5692.18
444.35	6015.18
444.54	6022.20
444.73	6019.86
444.91	5778.78
445.10	5966.03
445.28	5900.49
445.47	5762.40
445.65	5879.43
445.84	5778.78
446.02	5874.74
446.21	5930.92
446.39	5989.43
446.58	5860.70
446.77	6122.84
446.95	5961.34
447.14	6122.84
447.32	6031.56
447.51	6036.24
447.69	5816.23
447.88	6104.12
448.06	6160.29
448.25	5933.26
448.43	6076.03
448.62	6125.18
448.80	6239.87
448.99	6155.61
449.17	6289.02
449.36	6024.54
449.54	6193.06
449.73	6286.68
449.91	6459.88
450.10	6457.54
450.28	6530.09
450.46	6487.96
450.65	6516.05
450.83	6595.63
451.02	6689.25
451.20	6462.22
451.39	6525.41
451.57	6602.65
451.76	6644.78
451.94	6600.31
452.13	6649.46
452.31	6462.22
452.49	6452.86
452.68	6558.18
452.86	6466.90
453.05	6555.84
453.23	6717.34
453.42	6597.97
453.60	6546.48
453.78	6801.60
453.97	6679.89
454.15	6628.40
454.34	6640.10
454.52	7047.35
454.70	6939.69
454.89	6923.30
455.07	6810.96
455.26	6970.12
455.44	7105.87
455.62	7232.26
455.81	7066.08
455.99	7131.61
456.17	7087.14
456.36	7056.72
456.54	7162.04
456.73	7035.65
456.91	7403.11
457.09	7410.14
457.28	7557.59
457.46	7431.20
457.64	7222.89
457.83	7307.15
458.01	7250.98
458.19	7566.95
458.38	7424.18
458.56	7517.80
458.74	7463.97
458.93	7485.03
459.11	7578.65
459.29	7534.18
459.48	7688.66
459.66	7620.78
459.84	7698.02
460.03	7889.95
460.21	7784.62
460.39	7765.90
460.57	7595.04
460.76	7716.75
460.94	7810.37
461.12	7808.03
461.31	7978.89
461.49	7784.62
461.67	7992.93
461.85	8119.32
462.04	7925.05
462.22	8248.05
462.40	8109.96
462.59	7985.91
462.77	8304.22
462.95	8063.15
463.13	8308.90
463.32	8189.53
463.50	8173.15
463.68	8131.02
463.86	8201.24
464.05	8159.11
464.23	8177.83
464.41	8374.44
464.59	8067.83
464.78	8432.95
464.96	8479.76
465.14	8166.13
465.32	8423.59
465.50	8479.76
465.69	8472.74
465.87	8348.69
466.05	8402.52
466.23	8348.69
466.41	8395.50
466.60	8685.73
466.78	8369.76
466.96	8369.76
467.14	8580.40
467.32	8690.41
467.51	8812.12
467.69	8411.89
467.87	8659.98
468.05	8908.08
468.23	8711.47
468.41	8685.73
468.60	8805.10
468.78	8805.10
468.96	8692.75
469.14	8950.21
469.32	9036.81
469.50	8746.58
469.69	9088.30
469.87	9142.13
470.05	9125.75
470.23	8929.14
470.41	9018.08
470.59	9118.73
470.77	9011.06
470.95	9193.62
471.14	9165.54
471.32	9268.52
471.50	9359.80
471.68	9437.04
471.86	9476.83
472.04	9460.45
472.22	9600.88
472.40	9397.25
472.58	9542.36
472.77	9614.92
472.95	9804.50
473.13	9987.07
473.31	9479.17
473.49	9825.57
473.67	9694.50
473.85	9900.47
474.03	9966.00
474.21	9923.87
474.39	10143.88
474.57	10113.45
474.75	9956.64
474.93	10120.48
475.12	10197.71
475.30	10356.87
475.48	10274.95
475.66	10356.87
475.84	10340.49
476.02	10738.38
476.20	10448.15
476.38	10438.79
476.56	10937.32
476.74	10785.19
476.92	10724.33
477.10	10862.43
477.28	11255.64
477.46	11052.01
477.64	11288.40
477.82	11534.16
478.00	11400.75
478.18	11382.03
478.36	11651.19
478.54	11552.88
478.72	11712.04
478.90	11779.92
479.08	12102.91
479.26	11908.65
479.44	12074.82
479.62	12156.74
479.80	11995.25
479.98	12285.47
480.16	12603.78
480.34	12383.77
480.52	12685.70
480.70	12669.32
480.88	12671.66
481.06	12484.42
481.24	12606.13
481.41	13177.22
481.59	12982.95
481.77	13289.56
481.95	13294.24
482.13	13434.68
482.31	13511.91
482.49	13781.07
482.67	13867.67
482.85	13893.42
483.03	14132.15
483.21	14143.86
483.39	14164.92
483.57	14228.12
483.74	14143.86
483.92	14466.85
484.10	14340.46
484.28	14506.64
484.46	14822.61
484.64	14941.98
484.82	14719.63
485.00	14782.82
485.18	15161.99
485.35	15417.11
485.53	15014.54
485.71	15089.43
485.89	15344.55
486.07	15239.23
486.25	15594.99
486.43	15267.31
486.61	15700.31
486.78	15807.98
486.96	16149.70
487.14	16559.29
487.32	16159.06
487.50	16533.54
487.68	16800.37
487.85	16676.32
488.03	17350.39
488.21	17111.66
488.39	17268.47
488.57	17453.37
488.75	17434.65
488.92	17645.30
489.10	18005.74
489.28	17940.21
489.46	18106.38
489.64	18040.85
489.81	18464.49
489.99	18480.87
490.17	18714.92
490.35	18841.31
490.53	18750.03
490.70	18927.91
490.88	18934.93
491.06	19140.90
491.24	19381.98
491.41	19080.05
491.59	19346.87
491.77	19367.93
491.95	19765.82
492.13	19917.96
492.30	19889.87
492.48	20074.77
492.66	19960.09
492.84	20489.05
493.01	20423.51
493.19	20418.83
493.37	20664.59
493.54	20774.60
493.72	21036.74
493.90	20999.29
494.08	21254.40
494.25	21165.46
494.43	21425.26
494.61	21621.87
494.79	22022.10
494.96	21378.45
495.14	21568.04
495.32	21986.99
495.49	22047.85
495.67	22040.82
495.85	22298.28
496.02	22504.25
496.20	22670.43
496.38	22925.55
496.55	22726.60
496.73	23126.83
496.91	23220.45
497.09	23278.97
497.26	23379.61
497.44	23218.11
497.62	23587.92
497.79	23646.43
497.97	23543.45
498.14	23527.06
498.32	24056.03
498.50	23995.17
498.67	23871.12
498.85	24208.16
499.03	24161.35
499.20	24582.65
499.38	24627.12
499.56	24559.24
499.73	24926.71
499.91	24769.89
500.08	24772.23
500.26	24367.32
500.44	24931.39
500.61	24861.17
500.79	24854.15
500.97	24985.22
501.14	25329.28
501.32	25317.57
501.49	25490.77
501.67	25544.61
501.84	25612.48
502.02	25750.57
502.20	25837.17
502.37	26057.18
502.55	25762.28
502.72	26279.54
502.90	26438.69
503.07	25982.29
503.25	26518.27
503.43	25947.18
503.60	26298.26
503.78	26478.48
503.95	26452.73
504.13	26696.15
504.30	26632.96
504.48	26731.26
504.65	27058.93
504.83	27101.06
505.01	27349.16
505.18	27204.05
505.36	27227.45
505.53	27232.13
505.71	27482.57
505.88	27534.06
506.06	27257.88
506.23	27613.64
506.41	27491.93
506.58	27548.11
506.76	27974.08
506.93	27716.62
507.11	27974.08
507.28	27828.97
507.46	27885.14
507.63	27955.36
507.81	28456.23
507.98	27999.83
508.16	28547.51
508.33	28816.68
508.50	28542.83
508.68	29046.05
508.85	28896.25
509.03	28847.10
509.20	29174.78
509.38	29329.25
509.55	29083.50
509.73	29523.52
509.90	29427.56
510.08	29371.38
510.25	29223.93
510.42	29961.20
510.60	29694.38
510.77	29621.82
510.95	29699.06
511.12	29685.01
511.30	30052.48
511.47	30244.40
511.64	30167.16
511.82	30375.47
511.99	30080.56
512.17	30333.34
512.34	30118.01
512.51	30419.94
512.69	30937.20
512.86	31119.76
513.04	31019.12
513.21	30845.92
513.38	31096.36
513.56	31204.02
513.73	30855.28
513.90	31068.27
514.08	30920.82
514.25	31154.87
514.43	31260.20
514.60	30881.03
514.77	31271.90
514.95	31206.36
515.12	31639.36
515.29	31967.04
515.47	31997.46
515.64	32203.43
515.81	31899.16
515.99	32084.06
516.16	31456.80
516.33	31573.83
516.51	31974.06
516.68	31608.93
516.85	31700.22
517.03	32027.89
517.20	32091.09
517.37	32133.21
517.54	32547.49
517.72	32402.38
517.89	32203.43
518.06	32041.93
518.24	32418.76
518.41	32524.08
518.58	32507.70
518.75	32713.67
518.93	32741.75
519.10	33099.86
519.27	33179.43
519.45	32940.70
519.62	33179.43
519.79	33149.01
519.96	33254.33
520.14	33312.84
520.31	32950.06
520.48	33457.96
520.65	33146.67
520.83	33855.85
521.00	33979.90
521.17	33628.82
521.34	33956.49
521.52	33846.49
521.69	34010.32
521.86	34157.78
522.03	34375.45
522.20	34340.34
522.38	34408.22
522.55	34333.32
522.72	34293.53
522.89	34595.46
523.07	34307.57
523.24	34363.75
523.41	35058.88
523.58	34768.66
523.75	35419.33
523.92	35178.25
524.10	35365.49
524.27	35271.87
524.44	35093.99
524.61	35072.93
524.78	35255.49
524.96	35566.78
525.13	35339.75
525.30	35758.70
525.47	35929.56
525.64	35292.94
525.81	35489.54
525.98	35618.27
526.16	35351.45
526.33	35431.03
526.50	35768.07
526.67	35339.75
526.84	35185.27
527.01	35491.88
527.18	35538.69
527.36	36538.10
527.53	36444.48
527.70	36177.66
527.87	36500.65
528.04	36238.51
528.21	36280.64
528.38	36238.51
528.55	36685.56
528.72	36713.64
528.89	36774.50
529.07	36692.58
529.24	36465.55
529.41	36641.09
529.58	36851.73
529.75	36931.31
529.92	36790.88
530.09	36898.55
530.26	37141.96
530.43	37088.13
530.60	36907.91
530.77	37097.49
530.94	37385.38
531.11	37345.59
531.28	37413.46
531.46	37975.19
531.63	37343.25
531.80	37591.34
531.97	37163.03
532.14	37619.43
532.31	37017.91
532.48	37427.51
532.65	37897.95
532.82	37537.51
532.99	37734.12
533.16	37626.45
533.33	37731.78
533.50	38036.05
533.67	37958.81
533.84	38258.40
534.01	38148.39
534.18	38122.65
534.35	38230.31
534.52	38136.69
534.69	38190.52
534.86	38174.14
535.03	38101.58
535.20	38546.28
535.37	38892.68
535.54	38607.14
535.71	38405.85
535.88	38300.53
536.05	38234.99
536.22	38609.48
536.38	38565.01
536.55	38618.84
536.72	39143.12
536.89	38181.16
537.06	38616.50
537.23	39030.77
537.40	38969.92
537.57	39091.63
537.74	38986.30
537.91	39147.80
538.08	39484.84
538.25	38677.35
538.42	38941.83
538.59	39061.20
538.75	39007.37
538.92	39105.67
539.09	39391.22
539.26	39077.58
539.43	39552.71
539.60	39821.87
539.77	39225.04
539.94	39159.50
540.11	39735.27
540.28	39936.56
540.44	39922.52
540.61	39356.11
540.78	39714.21
540.95	39601.86
541.12	39789.11
541.29	39604.20
541.46	39583.14
541.62	39501.22
541.79	40086.36
541.96	39718.89
542.13	39625.27
542.30	40065.29
542.47	40240.83
542.63	40194.02
542.80	40292.32
542.97	40177.64
543.14	40854.05
543.31	40825.96
543.48	40538.08
543.64	40783.83
543.81	40875.12
543.98	40713.62
544.15	40577.87
544.32	40577.87
544.48	41191.09
544.65	40868.09
544.82	41034.27
544.99	40774.47
545.16	40978.10
545.32	40421.05
545.49	41308.11
545.66	41179.39
545.83	41296.41
546.00	41359.61
546.16	41432.16
546.33	41291.73
546.50	40950.01
546.67	40823.62
546.83	40748.73
547.00	41280.03
547.17	41324.50
547.34	41640.47
547.50	41390.03
547.67	41610.04
547.84	41474.29
548.00	41780.90
548.17	41677.92
548.34	41493.02
548.51	41848.78
548.67	42185.82
548.84	42057.09
549.01	41787.92
549.18	41717.71
549.34	42045.38
549.51	42019.64
549.68	41645.15
549.84	42204.54
550.01	41958.78
550.18	41848.78
550.34	41977.51
550.51	42143.69
550.68	41883.89
550.84	41750.48
551.01	42029.00
551.18	41720.05
551.34	41830.05
551.51	42258.37
551.68	42354.33
551.84	42588.39
552.01	42438.59
552.18	42176.45
552.34	42033.68
552.51	42249.01
552.68	42195.18
552.84	42660.94
553.01	42686.69
553.18	42480.72
553.34	42473.70
553.51	42412.85
553.67	42492.43
553.84	42890.32
554.01	43063.52
554.17	42775.63
554.34	42742.86
554.51	43122.03
554.67	42962.87
554.84	42883.30
555.00	43332.68
555.17	42597.75
555.33	42703.07
555.50	42787.33
555.67	42780.31
555.83	43030.75
556.00	42883.30
556.16	43683.76
556.33	43152.46
556.50	43040.11
556.66	43203.95
556.83	43056.50
556.99	43349.06
557.16	43384.17
557.32	43033.09
557.49	42909.04
557.65	43335.02
557.82	43393.53
557.98	43391.19
558.15	43564.39
558.32	43650.99
558.48	43002.66
558.65	43002.66
558.81	43068.20
558.98	43206.29
559.14	43243.74
559.31	43065.86
559.47	43349.06
559.64	43196.93
559.80	43948.24
559.97	43611.20
560.13	43517.58
560.30	42990.96
560.46	43629.93
560.63	43093.94
560.79	43868.66
560.96	43835.89
561.12	43423.96
561.29	43510.56
561.45	43569.07
561.61	43522.26
561.78	43519.92
561.94	43388.85
562.11	43704.82
562.27	43735.25
562.44	43721.21
562.60	43838.23
562.77	43966.96
562.93	43948.24
563.10	43491.83
563.26	43709.50
563.42	44231.44
563.59	43704.82
563.75	43849.94
563.92	44025.48
564.08	44069.95
564.24	44521.67
564.41	44156.55
564.57	43578.43
564.74	43948.24
564.90	43997.39
565.07	43861.64
565.23	44395.28
565.39	43793.76
565.56	44362.51
565.72	44006.75
565.88	43885.04
566.05	44053.56
566.21	43775.04
566.38	43871.00
566.54	43969.30
566.70	44095.69
566.87	44362.51
567.03	44093.35
567.19	44830.62
567.36	44116.76
567.52	43927.17
567.68	43945.90
567.85	43871.00
568.01	44140.16
568.17	44245.49
568.34	44161.23
568.50	43868.66
568.66	43964.62
568.83	44217.40
568.99	44083.99
569.15	44027.82
569.32	43842.92
569.48	43885.04
569.64	44430.39
569.81	44411.67
569.97	44708.91
570.13	44540.39
570.30	43871.00
570.46	44304.00
570.62	44006.75
570.78	44037.18
570.95	43840.57
571.11	44634.02
571.27	44236.12
571.43	43913.13
571.60	44196.34
571.76	44114.42
571.92	44514.65
572.09	44449.11
572.25	44369.54
572.41	44505.29
572.57	44531.03
572.74	44409.32
572.90	44397.62
573.06	44746.36
573.22	44226.76
573.38	44465.50
573.55	44524.01
573.71	44388.26
573.87	44215.06
574.03	44257.19
574.20	44311.02
574.36	44201.02
574.52	44945.31
574.68	44615.29
574.84	44648.06
575.01	44367.20
575.17	44409.32
575.33	44481.88
575.49	44182.29
575.65	44694.87
575.82	44603.59
575.98	44737.00
576.14	44582.52
576.30	44638.70
576.46	44477.20
576.62	44500.61
576.79	44905.52
576.95	44119.10
577.11	44737.00
577.27	44849.35
577.43	44549.76
577.59	44336.77
577.75	44367.20
577.92	44189.31
578.08	44662.10
578.24	44612.95
578.40	44495.92
578.56	44582.52
578.72	44577.84
578.88	44631.68
579.04	44414.01
579.21	44091.01
579.37	44432.73
579.53	44940.63
579.69	44086.33
579.85	44479.54
580.01	44783.81
580.17	44500.61
580.33	44495.92
580.49	44561.46
580.65	44793.17
580.82	44739.34
580.98	44669.12
581.14	44378.90
581.30	44713.59
581.46	44545.08
581.62	44395.28
581.78	44444.43
581.94	45095.10
582.10	44704.23
582.26	44465.50
582.42	44453.79
582.58	44669.12
582.74	44711.25
582.90	45230.85
583.06	44755.72
583.22	44823.60
583.38	45038.93
583.54	44346.13
583.70	44886.79
583.86	44594.23
584.02	44343.79
584.18	44832.96
584.34	44542.74
584.50	44765.09
584.66	44423.37
584.82	44741.68
584.98	44938.29
585.14	45013.18
585.30	44334.43
585.46	44219.74
585.62	44828.28
585.78	44245.49
585.94	44505.29
586.10	44591.89
586.26	44542.74
586.42	44921.90
586.58	45261.28
586.74	44762.75
586.90	44505.29
587.06	44463.16
587.22	44816.58
587.38	44399.96
587.54	44673.81
587.70	44854.03
587.86	44376.56
588.02	44765.09
588.18	44512.31
588.34	44641.04
588.49	44428.05
588.65	44142.50
588.81	43859.30
588.97	44416.35
589.13	44748.70
589.29	44423.37
589.45	44535.71
589.61	44755.72
589.77	44837.64
589.93	44533.37
590.08	44608.27
590.24	45179.36
590.40	44781.47
590.56	45198.09
590.72	45654.49
590.88	44811.90
591.04	44650.40
591.20	44935.95
591.35	45237.87
591.51	45017.86
591.67	44917.22
591.83	45052.97
591.99	45345.54
592.15	44699.55
592.31	44655.08
592.46	44863.39
592.62	44847.00
592.78	44795.51
592.94	44793.17
593.10	44985.10
593.26	45151.27
593.41	44399.96
593.57	44596.57
593.73	44835.30
593.89	45373.63
594.05	44875.09
594.20	44900.84
594.36	45249.58
594.52	45230.85
594.68	45017.86
594.84	44825.94
594.99	45006.16
595.15	44839.98
595.31	45572.57
595.47	45010.84
595.62	45095.10
595.78	44832.96
595.94	44999.14
596.10	45116.17
596.25	45326.81
596.41	45340.86
596.57	44877.43
596.73	45120.85
596.88	44636.36
597.04	44992.12
597.20	45148.93
597.36	45001.48
597.51	45291.71
597.67	45347.88
597.83	44968.71
597.99	44828.28
598.14	44966.37
598.30	45043.61
598.46	44676.15
598.61	45134.89
598.77	44938.29
598.93	44823.60
599.09	44701.89
599.24	45755.13
599.40	45038.93
599.56	45261.28
599.71	44727.64
599.87	45160.64
600.03	45263.62
600.18	45118.51
600.34	44774.45
600.50	45174.68
600.65	44849.35
600.81	45441.50
600.97	45294.05
601.12	44807.22
601.28	45303.41
601.44	45127.87
601.59	44931.26
601.75	44893.82
601.91	45188.72
602.06	45151.27
602.22	45205.11
602.37	44624.65
602.53	44854.03
602.69	45144.25
602.84	44493.58
603.00	44978.07
603.16	44966.37
603.31	44807.22
603.47	45223.83
603.62	45008.50
603.78	45455.54
603.94	44839.98
604.09	45043.61
604.25	45184.04
604.40	45237.87
604.56	44889.13
604.71	45188.72
604.87	44542.74
605.03	44779.13
605.18	44659.76
605.34	44772.11
605.49	44179.95
605.65	44804.88
605.80	45090.42
605.96	44837.64
606.12	44940.63
606.27	45071.70
606.43	44926.58
606.58	45043.61
606.74	44727.64
606.89	44678.49
607.05	45127.87
607.20	45017.86
607.36	44781.47
607.51	45188.72
607.67	44814.24
607.82	44839.98
607.98	44718.28
608.13	44823.60
608.29	44549.76
608.44	44477.20
608.60	44285.28
608.75	44526.35
608.91	44474.86
609.06	44020.80
609.22	44851.69
609.37	44168.25
609.53	45109.14
609.68	44505.29
609.84	44341.45
609.99	44760.40
610.15	44208.04
610.30	44722.96
610.46	44582.52
610.61	43929.51
610.76	44612.95
610.92	44678.49
611.07	44622.31
611.23	44732.32
611.38	44540.39
611.54	44802.53
611.69	44016.11
611.84	43948.24
612.00	44133.14
612.15	44406.98
612.31	44376.56
612.46	44226.76
612.62	44776.79
612.77	44062.93
612.92	44353.15
613.08	43889.73
613.23	44285.28
613.39	44215.06
613.54	43812.49
613.69	44194.00
613.85	44254.85
614.00	44004.41
614.15	44390.60
614.31	44339.11
614.46	44257.19
614.62	43917.81
614.77	44233.78
614.92	44002.07
615.08	43672.06
615.23	43976.33
615.38	43555.03
615.54	43358.42
615.69	43562.05
615.84	43728.23
616.00	43761.00
616.15	43538.65
616.30	43768.02
616.46	43761.00
616.61	43576.09
616.76	43594.82
616.92	43295.23
617.07	43194.59
617.22	43243.74
617.37	43002.66
617.53	43552.69
617.68	43655.67
617.83	43693.12
617.99	43627.59
618.14	43690.78
618.29	43793.76
618.45	43519.92
618.60	43264.80
618.75	43456.73
618.90	43608.86
619.06	43796.10
619.21	43475.45
619.36	43548.01
619.51	43604.18
619.67	43555.03
619.82	43510.56
619.97	43540.99
620.12	42946.49
620.28	42717.12
620.43	43491.83
620.58	43000.32
620.73	43477.79
620.89	42831.80
621.04	43342.04
621.19	43084.58
621.34	43395.87
621.49	43189.91
621.65	42885.64
621.80	43044.79
621.95	42485.40
622.10	42777.97
622.25	42394.12
622.41	42932.45
622.56	42539.24
622.71	42787.33
622.86	42347.31
623.01	42562.64
623.16	42689.03
623.32	42447.96
623.47	42747.54
623.62	42225.60
623.77	42726.48
623.92	42707.76
624.07	42361.36
624.23	42684.35
624.38	42440.93
624.53	42450.30
624.68	42817.76
624.83	42579.03
624.98	42412.85
625.13	41851.12
625.29	42068.79
625.44	42462.00
625.59	42209.22
625.74	42295.82
625.89	41738.77
626.04	41811.33
626.19	42115.60
626.34	42197.52
626.49	42160.07
626.65	42307.52
626.80	42279.44
626.95	42106.24
627.10	42045.38
627.25	41720.05
627.40	41872.18
627.55	41645.15
627.70	41209.81
627.85	41209.81
628.00	41483.66
628.15	41600.68
628.30	41617.07
628.45	41677.92
628.60	41940.06
628.76	41773.88
628.91	41696.64
629.06	41488.34
629.21	41312.80
629.36	41385.35
629.51	41544.51
629.66	41596.00
629.81	41308.11
629.96	41504.72
630.11	41502.38
630.26	41373.65
630.41	41481.31
630.56	41373.65
630.71	41460.25
630.86	41172.36
631.01	41230.88
631.16	41191.09
631.31	41088.10
631.46	41034.27
631.61	41390.03
631.76	40851.71
631.91	41083.42
632.06	41062.36
632.21	41631.11
632.36	41137.26
632.51	40989.80
632.66	40994.48
632.81	41041.29
632.96	41064.70
633.10	40517.01
633.25	41256.62
633.40	40797.88
633.55	41242.58
633.70	40809.58
633.85	40416.37
634.00	41160.66
634.15	40730.00
634.30	40477.22
634.45	40699.58
634.60	40692.55
634.75	40610.64
634.90	40505.31
635.05	40683.19
635.19	40350.84
635.34	40392.97
635.49	40694.89
635.64	39971.67
635.79	40201.04
635.94	40872.78
636.09	40828.30
636.24	40339.13
636.39	40013.80
636.53	40233.81
636.68	40072.31
636.83	40334.45
636.98	40285.30
637.13	40278.28
637.28	40205.72
637.43	40268.92
637.57	40128.48
637.72	40102.74
637.87	39831.24
638.02	40081.67
638.17	40168.27
638.32	40034.86
638.46	40168.27
638.61	40095.72
638.76	39744.64
638.91	39861.66
639.06	40297.00
639.20	39812.51
639.35	40170.61
639.50	39812.51
639.65	40067.63
639.80	39981.03
639.94	39505.90
640.09	39681.44
640.24	39559.73
640.39	39351.43
640.54	39512.92
640.68	39718.89
640.83	39601.86
640.98	39543.35
641.13	39735.27
641.27	39613.57
641.42	39426.32
641.57	39489.52
641.72	39484.84
641.86	39117.37
642.01	38993.32
642.16	38965.24
642.31	38609.48
642.45	39374.83
642.60	39058.86
642.75	39421.64
642.90	39339.72
643.04	39290.57
643.19	39150.14
643.34	39157.16
643.48	38754.59
643.63	38841.19
643.78	38927.79
643.93	38731.18
644.07	38607.14
644.22	38649.27
644.37	38546.28
644.51	38885.66
644.66	38899.70
644.81	39304.62
644.95	39234.40
645.10	38600.12
645.25	39248.44
645.39	38190.52
645.54	38658.63
645.69	38607.14
645.83	38663.31
645.98	39140.78
646.13	38831.83
646.27	38625.86
646.42	38342.66
646.57	38733.53
646.71	38787.36
646.86	38433.94
647.00	38834.17
647.15	38696.08
647.30	38930.13
647.44	38824.81
647.59	38389.47
647.74	37921.36
647.88	38539.26
648.03	38572.03
648.17	38749.91
648.32	38010.30
648.47	38092.22
648.61	38237.33
648.76	38237.33
648.90	38403.51
649.05	38022.00
649.20	37944.76
649.34	38078.18
649.49	37874.55
649.63	37762.20
649.78	37897.95
649.92	37977.53
650.07	38445.64
650.21	37762.20
650.36	38244.35
650.51	38115.62
650.65	38099.24
650.80	38457.34
650.94	38253.72
651.09	38176.48
651.23	37832.42
651.38	38286.48
651.52	38223.29
651.67	37684.97
651.81	37834.76
651.96	37638.15
652.10	37120.90
652.25	37605.39
652.39	37345.59
652.54	37619.43
652.68	37600.71
652.83	37701.35
652.97	37909.66
653.12	37539.85
653.26	36992.17
653.41	37486.02
653.55	37310.48
653.70	36872.80
653.84	37312.82
653.99	37471.98
654.13	37273.03
654.27	36797.90
654.42	37083.45
654.56	36891.52
654.71	37596.03
654.85	37256.65
655.00	37418.14
655.14	36849.39
655.29	36645.77
655.43	36741.73
655.57	36538.10
655.72	36573.21
655.86	36697.26
656.01	36800.24
656.15	36437.46
656.30	36917.27
656.44	36851.73
656.58	36495.97
656.73	36568.53
656.87	36542.78
657.01	37055.36
657.16	36526.40
657.30	36392.99
657.45	36879.82
657.59	36385.97
657.73	36407.03
657.88	37038.98
658.02	36680.88
658.16	36900.89
658.31	36645.77
658.45	36620.02
658.60	35922.54
658.74	36577.89
658.88	36336.82
659.03	36182.34
659.17	36018.50
659.31	36170.64
659.46	36334.48
659.60	36451.50
659.74	36217.45
659.89	35950.63
660.03	35672.10
660.17	35805.52
660.32	36048.93
660.46	35978.72
660.60	36088.72
660.74	36189.36
660.89	35833.60
661.03	35648.70
661.17	35517.63
661.32	35143.14
661.46	35651.04
661.60	35690.83
661.74	35707.21
661.89	35702.53
662.03	35372.52
662.17	34934.84
662.31	35108.04
662.46	35468.48
662.60	35475.50
662.74	35016.75
662.88	35028.46
663.03	34534.60
663.17	34815.47
663.31	34883.34
663.45	35412.31
663.60	35044.84
663.74	35051.86
663.88	34611.84
664.02	34761.64
664.17	34534.60
664.31	34555.67
664.45	34639.93
664.59	34513.54
664.73	34047.77
664.88	34787.38
665.02	34590.78
665.16	34396.51
665.30	34651.63
665.44	34230.33
665.59	34003.30
665.73	33897.98
665.87	33684.99
666.01	34064.16
666.15	33741.16
666.29	33916.70
666.44	34096.92
666.58	33694.35
666.72	33668.61
666.86	33762.23
667.00	33841.81
667.14	33776.27
667.28	33635.84
667.43	32994.53
667.57	33567.96
667.71	33457.96
667.85	33214.54
667.99	33266.03
668.13	33340.93
668.27	33366.68
668.41	33481.36
668.56	32720.69
668.70	33453.28
668.84	32961.76
668.98	32849.42
669.12	32786.22
669.26	32783.88
669.40	32636.43
669.54	32437.48
669.68	32882.19
669.82	32425.78
669.96	32371.95
670.10	32594.30
670.25	32863.46
670.39	32201.09
670.53	32301.73
670.67	32460.89
670.81	32449.19
670.95	32627.07
671.09	32189.39
671.23	32098.11
671.37	32332.16
671.51	31997.46
671.65	31796.18
671.79	31793.84
671.93	31871.07
672.07	31866.39
672.21	31770.43
672.35	31868.73
672.49	31770.43
672.63	31601.91
672.77	31637.02
672.91	31452.12
673.05	31566.81
673.19	31604.25
673.33	31220.41
673.47	31047.21
673.61	30841.24
673.75	30976.99
673.89	30597.82
674.03	30541.65
674.17	30665.70
674.31	30740.60
674.45	30822.51
674.59	30431.65
674.73	31049.55
674.87	30541.65
675.01	30312.28
675.15	30494.84
675.29	30576.76
675.43	30202.27
675.56	29898.00
675.70	30274.83
675.84	30314.62
675.98	29413.51
676.12	29972.90
676.26	29788.00
676.40	29879.28
676.54	29914.39
676.68	29759.91
676.82	29619.48
676.96	29411.17
677.10	29661.61
677.23	29092.86
677.37	28856.46
677.51	28844.76
677.65	29167.76
677.79	28610.71
677.93	28692.63
678.07	28734.76
678.21	28173.03
678.34	28112.17
678.48	28147.28
678.62	28273.67
678.76	28109.83
678.90	27772.80
679.04	27452.14
679.18	28020.89
679.31	27985.79
679.45	27721.30
679.59	27751.73
679.73	27599.60
679.87	27473.21
680.00	27056.59
680.14	27166.60
680.28	27424.06
680.42	27182.98
680.56	27360.86
680.70	27012.12
680.83	27388.95
680.97	27091.70
681.11	27065.96
681.25	26712.53
681.39	26778.07
681.52	26871.69
681.66	26373.16
681.80	26639.98
681.94	26518.27
682.07	26096.97
682.21	26279.54
682.35	25909.73
682.49	26197.62
682.62	26178.89
682.76	26036.12
682.90	25525.88
683.04	25502.48
683.17	25617.16
683.31	25226.29
683.45	25507.16
683.59	25205.23
683.72	25097.56
683.86	25062.46
684.00	25034.37
684.13	25235.66
684.27	24980.54
684.41	24662.22
684.55	24547.54
684.68	24772.23
684.82	24748.82
684.96	24374.34
685.09	24388.38
685.23	24730.10
685.37	24140.29
685.50	24215.18
685.64	23875.80
685.78	23924.96
685.91	23850.06
686.05	23854.74
686.19	23318.76
686.32	23594.94
686.46	23473.23
686.60	22930.23
686.73	22869.37
686.87	23332.80
687.01	23012.15
687.14	22806.18
687.28	22808.52
687.42	22789.80
687.55	22691.49
687.69	23005.13
687.82	22607.23
687.96	22897.46
688.10	22677.45
688.23	22525.32
688.37	21891.03
688.50	22089.98
688.64	22190.62
688.78	22167.21
688.91	22408.29
689.05	22595.53
689.18	21921.46
689.32	21467.39
689.46	21855.92
689.59	21912.10
689.73	21853.58
689.86	21652.30
690.00	21685.06
690.13	21664.00
690.27	21759.96
690.41	21291.85
690.54	20933.75
690.68	20666.93
690.81	20819.07
690.95	21020.35
691.08	21029.71
691.22	20606.08
691.35	20634.16
691.49	20645.87
691.62	20809.70
691.76	20482.03
691.89	20334.57
692.03	20360.32
692.16	20137.97
692.30	20149.67
692.43	20456.28
692.57	19789.23
692.70	19763.48
692.84	19929.66
692.97	19737.74
693.11	19585.60
693.24	19531.77
693.38	19316.44
693.51	19274.31
693.65	19573.90
693.78	19339.85
693.92	19421.77
694.05	19447.51
694.19	19295.38
694.32	18766.42
694.45	18874.08
694.59	18778.12
694.72	18899.83
694.86	18382.57
694.99	18721.95
695.13	18466.83
695.26	18288.95
695.39	18232.77
695.53	18118.09
695.66	18377.89
695.80	18300.65
695.93	18202.35
696.07	18071.28
696.20	18078.30
696.33	17947.23
696.47	17823.18
696.60	17839.56
696.73	17804.46
696.87	17612.53
697.00	17813.82
697.14	17507.21
697.27	17249.75
697.40	17610.19
697.54	17334.01
697.67	17085.91
697.80	17013.35
697.94	16842.50
698.07	16741.85
698.21	16533.54
698.34	16807.39
698.47	16751.21
698.61	16496.10
698.74	16332.26
698.87	16149.70
699.01	15775.21
699.14	16011.60
699.27	15939.05
699.40	16053.73
699.54	15957.77
699.67	15805.64
699.80	16037.35
699.94	15768.19
700.07	15747.12
700.20	15967.13
700.34	15681.59
700.47	15712.02
700.60	15896.92
700.73	15693.29
700.87	15550.52
701.00	15672.23
701.13	15552.86
701.26	15297.74
701.40	15227.53
701.53	15094.11
701.66	15119.86
701.79	14981.77
701.93	15012.20
702.06	14895.17
702.19	14705.59
702.32	14736.01
702.46	14738.35
702.59	14551.11
702.72	14438.76
702.85	14600.26
702.99	14516.00
703.12	14431.74
703.25	14218.75
703.38	14270.25
703.51	13973.00
703.65	14043.21
703.78	13989.38
703.91	13748.31
704.04	14068.96
704.17	13811.50
704.31	13575.11
704.44	13642.98
704.57	13738.94
704.70	13544.68
704.83	13736.60
704.96	13680.43
705.10	13479.15
705.23	13626.60
>>>>>End Processed Spectral Data<<<<<
