SpectraSuite Data File
++++++++++++++++++++++++++++++++++++
Date: Fri Oct 25 11:34:23 EDT 2013
User: price-jones
Dark Spectrum Present: No
Reference Spectrum Present: No
Number of Sampled Component Spectra: 1
Spectrometers: USB2+H05261
Integration Time (usec): 100000 (USB2+H05261)
Spectra Averaged: 1 (USB2+H05261)
Boxcar Smoothing: 0 (USB2+H05261)
Correct for Electrical Dark: No (USB2+H05261)
Strobe/Lamp Enabled: No (USB2+H05261)
Correct for Detector Non-linearity: No (USB2+H05261)
Correct for Stray Light: No (USB2+H05261)
Number of Pixels in Processed Spectrum: 2048
>>>>>Begin Processed Spectral Data<<<<<
365.73	287.89
365.92	287.89
366.12	287.89
366.32	170.86
366.52	198.95
366.72	180.22
366.91	166.18
367.11	133.41
367.31	100.64
367.51	138.09
367.70	166.18
367.90	177.88
368.10	210.65
368.30	215.33
368.49	175.54
368.69	177.88
368.89	255.12
369.09	229.37
369.28	182.56
369.48	175.54
369.68	187.24
369.87	243.42
370.07	250.44
370.27	245.76
370.47	355.76
370.66	395.55
370.86	433.00
371.06	484.49
371.25	531.30
371.45	505.56
371.65	538.32
371.84	566.41
372.04	601.52
372.24	557.05
372.44	535.98
372.63	631.94
372.83	594.50
373.03	627.26
373.22	615.56
373.42	627.26
373.62	631.94
373.81	657.69
374.01	678.76
374.21	678.76
374.40	587.47
374.60	657.69
374.79	650.67
374.99	636.63
375.19	606.20
375.38	718.54
375.58	629.60
375.78	624.92
375.97	643.65
376.17	683.44
376.37	706.84
376.56	657.69
376.76	627.26
376.95	716.20
377.15	643.65
377.35	699.82
377.54	655.35
377.74	660.03
377.93	608.54
378.13	660.03
378.33	713.86
378.52	692.80
378.72	718.54
378.91	685.78
379.11	763.01
379.31	683.44
379.50	711.52
379.70	716.20
379.89	730.25
380.09	725.57
380.28	725.57
380.48	648.33
380.68	667.05
380.87	674.07
381.07	833.23
381.26	695.14
381.46	814.51
381.65	814.51
381.85	795.78
382.04	763.01
382.24	718.54
382.43	802.80
382.63	751.31
382.83	765.36
383.02	795.78
383.22	774.72
383.41	760.67
383.61	830.89
383.80	875.36
384.00	779.40
384.19	798.12
384.39	805.14
384.58	716.20
384.78	755.99
384.97	894.08
385.17	788.76
385.36	830.89
385.56	800.46
385.75	763.01
385.95	774.72
386.14	844.93
386.34	779.40
386.53	933.87
386.72	924.51
386.92	882.38
387.11	854.30
387.31	926.85
387.50	819.19
387.70	784.08
387.89	861.32
388.09	884.72
388.28	856.64
388.48	851.96
388.67	931.53
388.86	973.66
389.06	898.77
389.25	959.62
389.45	940.90
389.64	978.34
389.84	926.85
390.03	990.05
390.22	1011.11
390.42	1001.75
390.61	1001.75
390.81	851.96
391.00	1006.43
391.19	947.92
391.39	954.94
391.58	997.07
391.78	952.60
391.97	976.00
392.16	964.30
392.36	999.41
392.55	1142.18
392.75	1027.50
392.94	1025.15
393.13	1043.88
393.33	1074.31
393.52	1039.20
393.71	1146.86
393.91	1109.41
394.10	1062.60
394.29	1095.37
394.49	1179.63
394.68	1069.62
394.88	1071.97
395.07	1163.25
395.26	1053.24
395.46	1104.73
395.65	1088.35
395.84	1078.99
396.04	1282.61
396.23	1114.10
396.42	1046.22
396.62	1151.54
396.81	1212.40
397.00	1146.86
397.19	1179.63
397.39	1188.99
397.58	1252.19
397.77	1252.19
397.97	1207.72
398.16	1252.19
398.35	1109.41
398.55	1275.59
398.74	1259.21
398.93	1315.38
399.12	1210.06
399.32	1235.80
399.51	1390.28
399.70	1345.81
399.90	1233.46
400.09	1287.29
400.28	1315.38
400.47	1371.55
400.67	1387.94
400.86	1289.64
401.05	1385.60
401.24	1378.58
401.44	1385.60
401.63	1427.73
401.82	1392.62
402.01	1455.81
402.21	1453.47
402.40	1434.75
402.59	1514.33
402.78	1469.86
402.97	1467.52
403.17	1474.54
403.36	1523.69
403.55	1458.15
403.74	1526.03
403.93	1486.24
404.13	1507.30
404.32	1535.39
404.51	1572.84
404.70	1605.61
404.89	1523.69
405.09	1636.03
405.28	1643.06
405.47	1633.69
405.66	1694.55
405.85	1678.16
406.05	1575.18
406.24	1699.23
406.43	1755.40
406.62	1696.89
406.81	1769.44
407.00	1750.72
407.20	1769.44
407.39	1699.23
407.58	1846.68
407.77	1839.66
407.96	1792.85
408.15	1827.96
408.34	1849.02
408.54	1895.83
408.73	1842.00
408.92	1900.52
409.11	1921.58
409.30	1966.05
409.49	1891.15
409.68	1832.64
409.87	1961.37
410.07	2029.24
410.26	2024.56
410.45	2019.88
410.64	1977.75
410.83	2050.31
411.02	2038.61
411.21	2087.76
411.40	2036.27
411.59	2094.78
411.78	2129.89
411.98	2069.03
412.17	2193.08
412.36	2186.06
412.55	2338.20
412.74	2333.51
412.93	2221.17
413.12	2167.34
413.31	2251.60
413.50	2429.48
413.69	2403.73
413.88	2527.78
414.07	2380.32
414.26	2455.22
414.45	2495.01
414.64	2354.58
414.83	2483.31
415.02	2466.92
415.22	2539.48
415.41	2527.78
415.60	2511.39
415.79	2525.44
415.98	2614.38
416.17	2724.38
416.36	2623.74
416.55	2689.28
416.74	2696.30
416.93	2696.30
417.12	2668.21
417.31	2768.85
417.50	2813.32
417.69	2832.05
417.88	2895.24
418.07	2825.03
418.26	2747.79
418.45	2822.69
418.64	3007.59
418.83	3038.02
419.02	2956.10
419.21	3136.32
419.39	3045.04
419.58	2956.10
419.77	2946.73
419.96	3091.85
420.15	3054.40
420.34	3094.19
420.53	3138.66
420.72	3005.25
420.91	3201.85
421.10	3077.80
421.29	3155.04
421.48	3126.96
421.67	3194.83
421.86	3129.30
422.05	3258.03
422.24	3201.85
422.43	3297.81
422.61	3201.85
422.80	3239.30
422.99	3356.33
423.18	3307.18
423.37	3414.84
423.56	3241.64
423.75	3281.43
423.94	3176.11
424.13	3014.61
424.32	3157.38
424.50	3229.94
424.69	3368.03
424.88	3445.27
425.07	3307.18
425.26	3246.32
425.45	3351.65
425.64	3293.13
425.83	3194.83
426.01	3375.05
426.20	3351.65
426.39	3431.23
426.58	3342.28
426.77	3248.66
426.96	3260.37
427.15	3433.57
427.33	3417.18
427.52	3471.01
427.71	3410.16
427.90	3438.25
428.09	3604.42
428.28	3574.00
428.46	3475.70
428.65	3475.70
428.84	3674.64
429.03	3648.90
429.22	3632.51
429.40	3637.19
429.59	3684.00
429.78	3592.72
429.97	3410.16
430.16	3667.62
430.34	3735.50
430.53	3744.86
430.72	3707.41
430.91	3861.88
431.10	3770.60
431.28	3833.80
431.47	3831.46
431.66	3840.82
431.85	3777.62
432.03	3852.52
432.22	3927.42
432.41	3955.51
432.60	3983.59
432.79	3974.23
432.97	3995.29
433.16	3878.27
433.35	3882.95
433.54	4014.02
433.72	4170.83
433.91	4063.17
434.10	4088.92
434.28	3974.23
434.47	4028.06
434.66	4081.89
434.85	4166.15
435.03	4308.93
435.22	4250.41
435.41	4329.99
435.59	4285.52
435.78	4173.18
435.97	4344.03
436.16	4294.88
436.34	4283.18
436.53	4229.35
436.72	4472.76
436.90	4234.03
437.09	4493.83
437.28	4227.01
437.46	4538.30
437.65	4416.59
437.84	4414.25
438.02	4486.81
438.21	4461.06
438.40	4395.53
438.58	4575.75
438.77	4662.35
438.96	4720.86
439.14	4798.10
439.33	4699.80
439.52	4753.63
439.70	4664.69
439.89	4997.04
440.08	4882.36
440.26	4826.18
440.45	4858.95
440.63	4994.70
440.82	5022.79
441.01	4971.30
441.19	5078.96
441.38	4933.85
441.57	5139.82
441.75	5093.01
441.94	5053.22
442.12	5137.48
442.31	5324.72
442.50	5401.96
442.68	5282.59
442.87	5238.12
443.05	5411.32
443.24	5266.21
443.43	5313.02
443.61	5404.30
443.80	5617.29
443.98	5371.53
444.17	5156.20
444.35	5261.52
444.54	5355.15
444.73	5518.98
444.91	5474.51
445.10	5458.13
445.28	5444.09
445.47	5432.38
445.65	5296.63
445.84	5397.28
446.02	5476.85
446.21	5554.09
446.39	5516.64
446.58	5451.11
446.77	5401.96
446.95	5355.15
447.14	5383.23
447.32	5589.20
447.51	5605.58
447.69	5458.13
447.88	5605.58
448.06	5607.92
448.25	5563.45
448.43	5682.82
448.62	5624.31
448.80	5736.65
448.99	5628.99
449.17	5701.54
449.36	5771.76
449.54	5804.53
449.73	5970.71
449.91	5867.72
450.10	5846.66
450.28	5788.14
450.46	5748.36
450.65	5760.06
450.83	5926.24
451.02	5951.98
451.20	5944.96
451.39	5970.71
451.57	5823.25
451.76	5774.10
451.94	5841.98
452.13	6033.90
452.31	6092.41
452.49	5994.11
452.68	5996.45
452.86	6171.99
453.05	6160.29
453.23	6232.85
453.42	6052.63
453.60	6097.10
453.78	6162.63
453.97	6031.56
454.15	6242.21
454.34	6293.70
454.52	6256.25
454.70	6312.42
454.89	6373.28
455.07	6389.66
455.26	6406.05
455.44	6518.39
455.62	6387.32
455.81	6541.80
455.99	6471.58
456.17	6548.82
456.36	6630.74
456.54	6665.85
456.73	6834.36
456.91	6740.74
457.09	6850.75
457.28	6750.10
457.46	6750.10
457.64	6803.94
457.83	6834.36
458.01	6827.34
458.19	6902.24
458.38	6719.68
458.56	6782.87
458.74	7028.63
458.93	6925.65
459.11	6920.96
459.29	6857.77
459.48	6998.20
459.66	6958.41
459.84	7192.47
460.03	7332.90
460.21	7185.44
460.39	7131.61
460.57	7035.65
460.76	7253.32
460.94	7248.64
461.12	7283.75
461.31	7269.70
461.49	7164.38
461.67	7070.76
461.85	7297.79
462.04	7358.64
462.22	7765.90
462.40	7632.49
462.59	7459.29
462.77	7403.11
462.95	7510.78
463.13	7583.34
463.32	7449.93
463.50	7562.27
463.68	7669.94
463.86	7627.81
464.05	7398.43
464.23	7564.61
464.41	7613.76
464.59	7487.37
464.78	7901.65
464.96	7637.17
465.14	7730.79
465.32	7627.81
465.50	7801.01
465.69	7861.86
465.87	7826.75
466.05	7826.75
466.23	7941.44
466.41	8030.38
466.60	8070.17
466.78	7885.26
466.96	7817.39
467.14	7829.09
467.32	7786.96
467.51	8126.34
467.69	7838.45
467.87	7866.54
468.05	8056.12
468.23	7960.16
468.41	7929.74
468.60	8002.29
468.78	8201.24
468.96	8180.17
469.14	8191.88
469.32	8325.29
469.50	8161.45
469.69	8369.76
469.87	8617.85
470.05	8449.33
470.23	8439.97
470.41	8400.18
470.59	8631.90
470.77	8479.76
470.95	8442.31
471.14	8606.15
471.32	8430.61
471.50	8723.18
471.68	8655.30
471.86	8664.66
472.04	8678.71
472.22	8992.34
472.40	8964.25
472.58	8657.64
472.77	8887.01
472.95	9050.85
473.13	9214.69
473.31	8980.64
473.49	9053.19
473.67	8908.08
473.85	9181.92
474.03	9291.93
474.21	9533.00
474.39	9383.21
474.57	9418.32
474.75	9479.17
474.93	9397.25
475.12	9547.05
475.30	9579.81
475.48	9570.45
475.66	9689.82
475.84	9518.96
476.02	9921.53
476.20	9813.87
476.38	10003.45
476.56	10045.58
476.74	10204.74
476.92	10228.14
477.10	9982.38
477.28	10221.12
477.46	10099.41
477.64	10457.51
477.82	10574.54
478.00	10780.51
478.18	10768.80
478.36	11061.37
478.54	11098.82
478.72	10862.43
478.90	11208.83
479.08	11154.99
479.26	11440.54
479.44	11265.00
479.62	11482.67
479.80	11442.88
479.98	11241.59
480.16	11782.26
480.34	11672.25
480.52	11941.41
480.70	11796.30
480.88	11686.29
481.06	11880.56
481.24	12131.00
481.41	12386.12
481.59	12250.36
481.77	12421.22
481.95	12320.58
482.13	12549.95
482.31	12662.30
482.49	12884.65
482.67	12795.71
482.85	13069.55
483.03	13050.83
483.21	13085.94
483.39	13163.17
483.57	13233.39
483.74	13310.63
483.92	13427.65
484.10	13334.03
484.28	13879.38
484.46	13741.29
484.64	14078.32
484.82	14129.81
485.00	13963.64
485.18	14370.89
485.35	14452.81
485.53	14506.64
485.71	14635.37
485.89	14902.19
486.07	14792.19
486.25	14815.59
486.43	15075.39
486.61	15033.26
486.78	14951.34
486.96	15295.40
487.14	15578.61
487.32	15396.04
487.50	15775.21
487.68	15681.59
487.85	15826.70
488.03	15960.11
488.21	16585.04
488.39	16308.85
488.57	16283.11
488.75	16650.57
488.92	16624.83
489.10	16730.15
489.28	16786.32
489.46	16947.82
489.64	16788.66
489.81	17350.39
489.99	17359.75
490.17	17383.16
490.35	17689.77
490.53	17874.67
490.70	17951.91
490.88	17916.80
491.06	18022.12
491.24	17956.59
491.41	18302.99
491.59	18436.40
491.77	18286.61
491.95	18714.92
492.13	18726.63
492.30	18654.07
492.48	18810.89
492.66	19332.82
492.84	19562.20
493.01	19288.35
493.19	19070.68
493.37	19477.94
493.54	19543.47
493.72	19800.93
493.90	20128.61
494.08	20173.08
494.25	20208.19
494.43	20025.62
494.61	20369.68
494.79	20706.72
494.96	20620.12
495.14	20573.31
495.32	20931.41
495.49	21010.99
495.67	20833.11
495.85	21266.11
496.02	21060.14
496.20	21500.16
496.38	21490.80
496.55	21640.59
496.73	22045.51
496.91	21720.17
497.09	21792.73
497.26	22279.56
497.44	21839.54
497.62	22394.25
497.79	22677.45
497.97	22118.06
498.14	22925.55
498.32	22747.67
498.50	22595.53
498.67	22944.27
498.85	22963.00
499.03	23232.16
499.20	23288.33
499.38	22991.08
499.56	23569.19
499.73	23293.01
499.91	23667.50
500.08	23660.48
500.26	23538.77
500.44	23934.32
500.61	23812.61
500.79	23824.31
500.97	24205.82
501.14	24184.76
501.32	24498.39
501.49	24166.03
501.67	24599.03
501.84	24580.31
502.02	24182.42
502.20	24425.83
502.37	24779.25
502.55	24748.82
502.72	25069.48
502.90	24821.38
503.07	24786.27
503.25	24856.49
503.43	25120.97
503.60	25385.45
503.78	25605.46
503.95	25333.96
504.13	25539.93
504.30	25668.66
504.48	25710.78
504.65	25869.94
504.83	26176.55
505.01	25954.20
505.18	25813.77
505.36	26073.57
505.53	26349.75
505.71	26239.75
505.88	26677.43
506.06	26221.02
506.23	26670.40
506.41	26242.09
506.58	26838.92
506.76	26749.98
506.93	26670.40
507.11	27040.21
507.28	26897.44
507.46	27161.92
507.63	27173.62
507.81	27330.44
507.98	27101.06
508.16	27728.33
508.33	27449.80
508.50	27660.45
508.68	27620.66
508.85	27637.05
509.03	27662.79
509.20	27744.71
509.38	28346.23
509.55	27852.38
509.73	28268.99
509.90	28023.23
510.08	28386.02
510.25	28561.56
510.42	28727.74
510.60	28591.98
510.77	28531.13
510.95	29050.73
511.12	28554.54
511.30	28762.84
511.47	28994.56
511.64	28933.70
511.82	28973.49
511.99	29039.03
512.17	29542.24
512.34	29441.60
512.51	29523.52
512.69	30068.86
512.86	29696.72
513.04	29656.93
513.21	29933.11
513.38	29851.19
513.56	30087.59
513.73	29394.79
513.90	29933.11
514.08	29869.92
514.25	30328.66
514.43	29923.75
514.60	30281.85
514.77	30546.33
514.95	30419.94
515.12	30347.39
515.29	30670.38
515.47	30696.13
515.64	30579.10
515.81	30677.40
515.99	30576.76
516.16	31023.80
516.33	31222.75
516.51	31435.74
516.68	31054.23
516.85	30780.39
517.03	31374.88
517.20	31484.89
517.37	31482.55
517.54	31611.28
517.72	31688.51
517.89	31683.83
518.06	31494.25
518.24	32060.66
518.41	31709.58
518.58	31660.43
518.75	31824.26
518.93	32044.27
519.10	32126.19
519.27	32077.04
519.45	31955.33
519.62	32311.10
519.79	32510.04
519.96	32444.51
520.14	32327.48
520.31	32409.40
520.48	32622.39
520.65	32987.51
520.83	32818.99
521.00	32943.04
521.17	33289.44
521.34	33350.29
521.52	33106.88
521.69	33053.05
521.86	33315.19
522.03	33081.13
522.20	33305.82
522.38	33933.09
522.55	33347.95
522.72	33647.54
522.89	33797.34
523.07	33881.60
523.24	33446.26
523.41	33795.00
523.58	33432.21
523.75	33984.58
523.92	33874.57
524.10	34532.26
524.27	34101.61
524.44	33975.22
524.61	34684.40
524.78	33802.02
524.96	34611.84
525.13	34330.98
525.30	34670.36
525.47	34541.63
525.64	34457.37
525.81	35054.20
525.98	35054.20
526.16	34810.79
526.33	34719.51
526.50	35140.80
526.67	35227.40
526.84	35115.06
527.01	35159.53
527.18	35447.41
527.36	35002.71
527.53	35276.55
527.70	35594.87
527.87	35683.81
528.04	35587.85
528.21	35831.26
528.38	35414.65
528.55	35875.73
528.72	35782.11
528.89	35821.90
529.07	35405.28
529.24	35601.89
529.41	35859.35
529.58	35938.93
529.75	35915.52
529.92	36091.06
530.09	36121.49
530.26	36154.26
530.43	36189.36
530.60	35793.81
530.77	36545.12
530.94	36360.22
531.11	36018.50
531.28	36172.98
531.46	36474.91
531.63	36940.68
531.80	36507.68
531.97	37048.34
532.14	36676.19
532.31	36622.36
532.48	36964.08
532.65	37411.12
532.82	37027.28
532.99	37120.90
533.16	36811.95
533.33	37237.92
533.50	37380.70
533.67	37191.11
533.84	37167.71
534.01	37067.06
534.18	37523.47
534.35	37670.92
534.52	37439.21
534.69	38047.75
534.86	37804.33
535.03	37308.14
535.20	38033.71
535.37	38160.09
535.54	37930.72
535.71	37635.81
535.88	37895.61
536.05	38234.99
536.22	38176.48
536.38	37794.97
536.55	38316.91
536.72	38319.25
536.89	37743.48
537.06	38169.46
537.23	38464.36
537.40	38277.12
537.57	38246.69
537.74	38237.33
537.91	38803.74
538.08	38487.77
538.25	38408.19
538.42	38391.81
538.59	38937.15
538.75	38462.02
538.92	39110.35
539.09	39201.63
539.26	38909.07
539.43	39220.36
539.60	39072.90
539.77	38686.71
539.94	39374.83
540.11	38974.60
540.28	39028.43
540.44	39063.54
540.61	38761.61
540.78	39159.50
540.95	39412.28
541.12	39201.63
541.29	38986.30
541.46	39255.46
541.62	39337.38
541.79	39597.18
541.96	39536.33
542.13	38967.58
542.30	39608.89
542.47	39810.17
542.63	39395.90
542.80	40030.18
542.97	39992.73
543.14	40313.39
543.31	40233.81
543.48	40161.25
543.64	40238.49
543.81	40411.69
543.98	40659.79
544.15	40442.12
544.32	40519.35
544.48	40690.21
544.65	40627.02
544.82	40383.60
544.99	40318.07
545.16	41041.29
545.32	40460.84
545.49	41130.23
545.66	40737.02
545.83	40624.68
546.00	41254.28
546.16	40718.30
546.33	41001.50
546.50	40879.80
546.67	40952.35
546.83	40889.16
547.00	40690.21
547.17	41017.89
547.34	40985.12
547.50	41392.37
547.67	41443.87
547.84	41769.20
548.00	41528.13
548.17	41928.36
548.34	41668.56
548.51	41605.36
548.67	41567.91
548.84	41741.11
549.01	41586.64
549.18	41340.88
549.34	41956.44
549.51	41757.50
549.68	41874.52
549.84	41415.78
550.01	41820.69
550.18	41619.41
550.34	41940.06
550.51	42092.19
550.68	41991.55
550.84	41858.14
551.01	42277.10
551.18	42120.28
551.34	42050.06
551.51	41883.89
551.68	41710.69
551.84	42120.28
552.01	42330.93
552.18	42391.78
552.34	42277.10
552.51	42176.45
552.68	42094.53
552.84	42396.46
553.01	42391.78
553.18	43028.41
553.34	42319.23
553.51	42403.49
553.67	42574.34
553.84	42726.48
554.01	42700.73
554.17	42628.18
554.34	42525.19
554.51	42939.47
554.67	42887.98
554.84	42682.01
555.00	42508.81
555.17	42691.37
555.33	43227.35
555.50	43264.80
555.67	43363.11
555.83	42993.30
556.00	43433.32
556.16	43674.40
556.33	43159.48
556.50	43033.09
556.66	43182.88
556.83	42911.38
556.99	43150.12
557.16	43585.46
557.32	43456.73
557.49	43604.18
557.65	43173.52
557.82	43180.54
557.98	43416.94
558.15	43363.11
558.32	43629.93
558.48	43159.48
558.65	43648.65
558.81	43517.58
558.98	43412.26
559.14	43615.88
559.31	43356.08
559.47	43592.48
559.64	44048.88
559.80	43442.68
559.97	43533.96
560.13	43480.13
560.30	43728.23
560.46	43784.40
560.63	44051.22
560.79	43571.41
560.96	44144.84
561.12	44076.97
561.29	43803.13
561.45	44334.43
561.61	43824.19
561.78	44339.11
561.94	44088.67
562.11	43613.54
562.27	43915.47
562.44	44076.97
562.60	44217.40
562.77	43959.94
562.93	43959.94
563.10	44577.84
563.26	44456.14
563.42	44755.72
563.59	44481.88
563.75	44112.08
563.92	44409.32
564.08	44119.10
564.24	44608.27
564.41	44259.53
564.57	44231.44
564.74	44414.01
564.90	44130.80
565.07	44435.07
565.23	44231.44
565.39	44594.23
565.56	44591.89
565.72	44322.72
565.88	44603.59
566.05	44624.65
566.21	44320.38
566.38	44605.93
566.54	44741.68
566.70	44577.84
566.87	44582.52
567.03	44381.24
567.19	44598.91
567.36	44374.22
567.52	44411.67
567.68	44708.91
567.85	44612.95
568.01	44718.28
568.17	44692.53
568.34	45008.50
568.50	44718.28
568.66	44631.68
568.83	44577.84
568.99	44596.57
569.15	44868.07
569.32	44856.37
569.48	44519.33
569.64	45647.47
569.81	44957.01
569.97	44942.97
570.13	44952.33
570.30	44727.64
570.46	45024.89
570.62	45177.02
570.78	44776.79
570.95	44863.39
571.11	45071.70
571.27	44744.02
571.43	44678.49
571.60	44666.78
571.76	44811.90
571.92	44744.02
572.09	45036.59
572.25	44877.43
572.41	44746.36
572.57	45027.23
572.74	45565.55
572.90	45088.08
573.06	45401.71
573.22	45144.25
573.38	45432.14
573.55	45254.26
573.71	45460.23
573.87	45123.19
574.03	45172.34
574.20	44842.32
574.36	44949.99
574.52	45310.43
574.68	44973.39
574.84	45357.24
575.01	45378.31
575.17	44926.58
575.33	45310.43
575.49	45059.99
575.65	44952.33
575.82	45188.72
575.98	45399.37
576.14	45471.93
576.30	45598.32
576.46	45048.29
576.62	45336.18
576.79	45303.41
576.95	45048.29
577.11	45162.98
577.27	45476.61
577.43	45275.32
577.59	45474.27
577.75	45174.68
577.92	45038.93
578.08	45244.90
578.24	45759.81
578.40	45649.81
578.56	45277.66
578.72	45436.82
578.88	45347.88
579.04	45528.10
579.21	45411.07
579.37	45514.06
579.53	45361.92
579.69	45275.32
579.85	45137.23
580.01	45382.99
580.17	45455.54
580.33	45490.65
580.49	45783.22
580.65	45322.13
580.82	45184.04
580.98	45256.60
581.14	45268.30
581.30	45598.32
581.46	45371.28
581.62	45572.57
581.78	44999.14
581.94	45425.12
582.10	45219.15
582.26	45219.15
582.42	45441.50
582.58	45785.56
582.74	45624.06
582.90	45570.23
583.06	45429.80
583.22	45408.73
583.38	45710.66
583.54	45233.19
583.70	45500.01
583.86	46050.04
584.02	45230.85
584.18	46047.70
584.34	46010.25
584.50	45708.32
584.66	45841.73
584.82	45738.75
584.98	45984.51
585.14	45689.60
585.30	45310.43
585.46	45748.11
585.62	45607.68
585.78	45792.58
585.94	45397.03
586.10	45619.38
586.26	45429.80
586.42	45354.90
586.58	45874.50
586.74	45748.11
586.90	45469.59
587.06	45303.41
587.22	46490.06
587.38	45476.61
587.54	45631.08
587.70	45907.27
587.86	45713.00
588.02	45673.21
588.18	45319.79
588.34	45621.72
588.49	45925.99
588.65	45537.46
588.81	45755.13
588.97	45769.18
589.13	45689.60
589.29	45975.14
589.45	45717.68
589.61	45759.81
589.77	46059.40
589.93	45855.78
590.08	46153.02
590.24	46036.00
590.40	46394.10
590.56	46770.93
590.72	46005.57
590.88	46176.43
591.04	45951.74
591.20	46466.66
591.35	46169.41
591.51	46616.45
591.67	46277.07
591.83	46499.42
591.99	46146.00
592.15	45883.86
592.31	46108.55
592.46	45989.19
592.62	45914.29
592.78	46246.65
592.94	46473.68
593.10	46564.96
593.26	46511.13
593.41	46328.56
593.57	46258.35
593.73	46436.23
593.89	46288.77
594.05	46871.57
594.20	46426.87
594.36	46579.00
594.52	46127.28
594.68	46403.46
594.84	46298.14
594.99	46660.92
595.15	46270.05
595.31	46632.83
595.47	46375.37
595.62	46445.59
595.78	46335.59
595.94	46354.31
596.10	45984.51
596.25	46494.74
596.41	46728.80
596.57	46061.74
596.73	46663.26
596.88	46663.26
597.04	46494.74
597.20	46469.00
597.36	46248.99
597.51	46344.95
597.67	46527.51
597.83	46267.71
597.99	46422.19
598.14	46286.43
598.30	46574.32
598.46	46593.04
598.61	46780.29
598.77	46363.67
598.93	46045.36
599.09	46866.89
599.24	47194.56
599.40	46820.08
599.56	46705.39
599.71	47124.35
599.87	47004.98
600.03	46913.70
600.18	46422.19
600.34	46476.02
600.50	46618.79
600.65	46710.07
600.81	46705.39
600.97	46707.73
601.12	46366.01
601.28	46880.93
601.44	46518.15
601.59	46593.04
601.75	46466.66
601.91	47096.26
602.06	46459.63
602.22	46824.76
602.37	46564.96
602.53	46986.25
602.69	46309.84
602.84	46342.61
603.00	46698.37
603.16	46789.65
603.31	46377.72
603.47	46906.68
603.62	46691.35
603.78	46869.23
603.94	46663.26
604.09	46803.69
604.25	46377.72
604.40	46101.53
604.56	46483.04
604.71	46951.15
604.87	46284.09
605.03	46293.46
605.18	46101.53
605.34	46380.06
605.49	46525.17
605.65	46342.61
605.80	46167.07
605.96	46206.86
606.12	46588.36
606.27	46433.89
606.43	46546.23
606.58	46972.21
606.74	46431.55
606.89	46681.98
607.05	47016.68
607.20	46820.08
607.36	46773.27
607.51	46515.81
607.67	46230.26
607.82	46642.20
607.98	46658.58
608.13	46358.99
608.29	46738.16
608.44	46761.56
608.60	46153.02
608.75	46569.64
608.91	46478.36
609.06	46150.68
609.22	46518.15
609.37	46138.98
609.53	46550.91
609.68	46487.72
609.84	46253.67
609.99	46146.00
610.15	46204.52
610.30	46272.39
610.46	46429.21
610.61	46164.73
610.76	46174.09
610.92	45848.75
611.07	46124.94
611.23	45518.74
611.38	46167.07
611.54	46267.71
611.69	46307.50
611.84	46340.27
612.00	45734.07
612.15	46085.15
612.31	45977.48
612.46	46206.86
612.62	45951.74
612.77	46162.39
612.92	46220.90
613.08	46344.95
613.23	46024.29
613.39	46057.06
613.54	45633.42
613.69	45750.45
613.85	45951.74
614.00	46197.49
614.15	45867.48
614.31	45900.25
614.46	45485.97
614.62	45750.45
614.77	45530.44
614.92	46354.31
615.08	45900.25
615.23	46099.19
615.38	45771.52
615.54	45902.59
615.69	46389.42
615.84	45848.75
616.00	46323.88
616.15	45797.26
616.30	46087.49
616.46	45553.85
616.61	45799.60
616.76	45752.79
616.92	45642.79
617.07	45687.26
617.22	45574.91
617.37	45146.59
617.53	45668.53
617.68	45373.63
617.83	45509.38
617.99	45872.16
618.14	45738.75
618.29	45268.30
618.45	45315.11
618.60	45390.01
618.75	45322.13
618.90	45500.01
619.06	45144.25
619.21	45593.64
619.36	45713.00
619.51	45081.06
619.67	44526.35
619.82	44952.33
619.97	45256.60
620.12	45008.50
620.28	45303.41
620.43	45364.26
620.58	45223.83
620.73	45462.57
620.89	45296.39
621.04	45619.38
621.19	45354.90
621.34	44823.60
621.49	45109.14
621.65	45048.29
621.80	45081.06
621.95	45090.42
622.10	45647.47
622.25	45097.44
622.41	44849.35
622.56	44545.08
622.71	44858.71
622.86	45186.38
623.01	44814.24
623.16	44933.60
623.32	44634.02
623.47	45221.49
623.62	44839.98
623.77	44622.31
623.92	45057.65
624.07	44842.32
624.23	45097.44
624.38	44949.99
624.53	44734.66
624.68	44619.97
624.83	44589.55
624.98	44528.69
625.13	44189.31
625.29	44678.49
625.44	44561.46
625.59	44381.24
625.74	44011.43
625.89	44334.43
626.04	44257.19
626.19	44348.47
626.34	44186.97
626.49	44002.07
626.65	43854.62
626.80	44121.44
626.95	44184.63
627.10	43978.67
627.25	44069.95
627.40	44083.99
627.55	44268.89
627.70	44233.78
627.85	43978.67
628.00	44091.01
628.15	44154.21
628.30	43800.79
628.45	43438.00
628.60	43613.54
628.76	43501.20
628.91	43714.19
629.06	43608.86
629.21	43929.51
629.36	43686.10
629.51	43601.84
629.66	43964.62
629.81	43728.23
629.96	43913.13
630.11	43662.69
630.26	43269.48
630.41	43625.25
630.56	43423.96
630.71	43814.83
630.86	43508.22
631.01	43391.19
631.16	43447.36
631.31	42976.92
631.46	43674.40
631.61	43550.35
631.76	43365.45
631.91	43952.92
632.06	43807.81
632.21	43641.63
632.36	43889.73
632.51	43433.32
632.66	43433.32
632.81	43463.75
632.96	43391.19
633.10	43012.02
633.25	43122.03
633.40	43096.28
633.55	43407.58
633.70	43372.47
633.85	42557.96
634.00	42602.43
634.15	42625.84
634.30	42986.28
634.45	43473.11
634.60	42848.19
634.75	43262.46
634.90	43126.71
635.05	43498.86
635.19	42738.18
635.34	43075.22
635.49	42628.18
635.64	43145.44
635.79	43047.13
635.94	43054.15
636.09	42754.57
636.24	42621.16
636.39	42658.60
636.53	42848.19
636.68	42227.95
636.83	42342.63
636.98	42122.62
637.13	42740.52
637.28	42286.46
637.43	42553.28
637.57	42869.25
637.72	42419.87
637.87	42586.05
638.02	42803.72
638.17	42639.88
638.32	42040.70
638.46	41944.74
638.61	41841.76
638.76	42059.43
638.91	42405.83
639.06	41977.51
639.20	42241.99
639.35	42490.09
639.50	41942.40
639.65	42000.91
639.80	42635.20
639.94	42021.98
640.09	42335.61
640.24	42227.95
640.39	42075.81
640.54	41483.66
640.68	42153.05
640.83	42380.08
640.98	41790.27
641.13	41539.83
641.27	42469.02
641.42	41750.48
641.57	41469.61
641.72	42045.38
641.86	41563.23
642.01	41614.72
642.16	41525.78
642.31	41366.63
642.45	41832.39
642.60	41731.75
642.75	41375.99
642.90	41577.28
643.04	41572.60
643.19	41670.90
643.34	41195.77
643.48	41408.76
643.63	41464.93
643.78	41158.32
643.93	41668.56
644.07	41944.74
644.22	41425.14
644.37	41060.02
644.51	41380.67
644.66	41605.36
644.81	41600.68
644.95	41350.24
645.10	41134.92
645.25	41504.72
645.39	40917.25
645.54	40947.67
645.69	40275.94
645.83	40699.58
645.98	40882.14
646.13	40966.40
646.27	41085.76
646.42	40753.41
646.57	41006.19
646.71	41251.94
646.86	41289.39
647.00	40947.67
647.15	41078.74
647.30	40872.78
647.44	41081.08
647.59	40540.42
647.74	40966.40
647.88	40844.69
648.03	40802.56
648.17	41223.86
648.32	40903.20
648.47	40961.72
648.61	40257.21
648.76	41001.50
648.90	40772.13
649.05	40804.90
649.20	40449.14
649.34	40463.18
649.49	40673.83
649.63	40697.24
649.78	40428.07
649.92	40545.10
650.07	41118.53
650.21	40329.77
650.36	40542.76
650.51	40231.47
650.65	40430.41
650.80	40594.25
650.94	40556.80
651.09	40315.73
651.23	40327.43
651.38	40119.12
651.52	40060.61
651.67	40287.64
651.81	40128.48
651.96	40154.23
652.10	40065.29
652.25	39880.39
652.39	40376.58
652.54	40065.29
652.68	40147.21
652.83	40210.40
652.97	40039.54
653.12	40130.83
653.26	39894.43
653.41	39749.32
653.55	40109.76
653.70	39798.47
653.84	39723.57
653.99	40201.04
654.13	40081.67
654.27	39580.80
654.42	39754.00
654.56	39768.04
654.71	39920.18
654.85	39707.19
655.00	40287.64
655.14	39524.63
655.29	40264.24
655.43	39707.19
655.57	39817.19
655.72	39709.53
655.86	39398.24
656.01	39545.69
656.15	39414.62
656.30	39569.10
656.44	39917.84
656.58	39791.45
656.73	39365.47
656.87	39122.05
657.01	38857.57
657.16	39370.15
657.30	38923.11
657.45	39243.76
657.59	38869.28
657.73	39026.09
657.88	39175.89
658.02	39541.01
658.16	39012.05
658.31	38967.58
658.45	39278.87
658.60	38611.82
658.74	38951.20
658.88	39072.90
659.03	38717.14
659.17	38401.17
659.31	38888.00
659.46	38602.46
659.60	38958.22
659.74	38780.34
659.89	38183.50
660.03	38195.20
660.17	38705.44
660.32	38354.36
660.46	38646.93
660.60	38366.06
660.74	38242.01
660.89	38522.88
661.03	37874.55
661.17	37834.76
661.32	38106.26
661.46	38101.58
661.60	37947.11
661.74	38036.05
661.89	37830.08
662.03	38174.14
662.17	37729.44
662.31	37610.07
662.46	37951.79
662.60	37773.91
662.74	37209.84
662.88	37581.98
663.03	37106.85
663.17	37228.56
663.31	37181.75
663.45	37134.94
663.60	37343.25
663.74	37593.68
663.88	37244.94
664.02	37298.78
664.17	37385.38
664.31	37310.48
664.45	36999.19
664.59	37188.77
664.73	36720.66
664.88	37193.45
665.02	36727.69
665.16	37116.22
665.30	36676.19
665.44	36734.71
665.59	36631.72
665.73	36477.25
665.87	36430.44
666.01	36842.37
666.15	36395.33
666.29	36481.93
666.44	36687.90
666.58	36547.47
666.72	36219.79
666.86	36119.15
667.00	35826.58
667.14	36184.68
667.28	35948.29
667.43	35789.13
667.57	36140.21
667.71	35901.48
667.85	36180.00
667.99	35835.94
668.13	35306.98
668.27	35777.43
668.41	35271.87
668.56	35267.19
668.70	34756.96
668.84	34679.72
668.98	35461.46
669.12	35136.12
669.26	35103.35
669.40	34948.88
669.54	34911.43
669.68	34962.92
669.82	35508.27
669.96	34160.12
670.10	34621.20
670.25	34735.89
670.39	34775.68
670.53	34459.71
670.67	34639.93
670.81	34239.70
670.95	34937.18
671.09	34560.35
671.23	34522.90
671.37	34527.58
671.51	33905.00
671.65	34122.67
671.79	34157.78
671.93	34176.50
672.07	34316.93
672.21	33574.98
672.35	33649.88
672.49	34279.49
672.63	33717.76
672.77	33661.58
672.91	33745.84
673.05	33530.51
673.19	33469.66
673.33	33226.24
673.47	33046.02
673.61	32861.12
673.75	32730.05
673.89	33310.50
674.03	32929.00
674.17	32692.60
674.31	32858.78
674.45	32655.15
674.59	32748.78
674.73	32315.78
674.87	32170.66
675.01	32503.02
675.15	32102.79
675.29	31901.50
675.43	31936.61
675.56	32243.22
675.70	32114.49
675.84	31859.37
675.98	31007.42
676.12	32095.77
676.26	32016.19
676.40	31414.67
676.54	31241.47
676.68	31337.43
676.82	30719.53
676.96	31178.28
677.10	31239.13
677.23	31271.90
677.37	31084.65
677.51	30820.17
677.65	31070.61
677.79	30782.73
677.93	30309.94
678.07	30253.76
678.21	30326.32
678.34	30209.29
678.48	30120.35
678.62	30038.44
678.76	29907.37
678.90	29949.50
679.04	30237.38
679.18	30190.57
679.31	29563.31
679.45	29692.04
679.59	29640.54
679.73	29364.36
679.87	29371.38
680.00	29083.50
680.14	29179.46
680.28	29324.57
680.42	29177.12
680.56	28744.12
680.70	28428.15
680.83	28435.17
680.97	28390.70
681.11	28489.00
681.25	28491.34
681.39	27971.74
681.52	28266.65
681.66	27775.14
681.80	27592.58
681.94	27410.01
682.07	27360.86
682.21	27243.84
682.35	27489.59
682.49	27309.37
682.62	27491.93
682.76	27473.21
682.90	27283.62
683.04	27393.63
683.17	26969.99
683.31	26677.43
683.45	26579.12
683.59	26480.82
683.72	26319.32
683.86	26354.43
684.00	26281.88
684.13	26471.46
684.27	25984.63
684.41	26176.55
684.55	25832.49
684.68	25919.09
684.82	25600.78
684.96	25734.19
685.09	25802.07
685.23	25673.34
685.37	26036.12
685.50	25827.81
685.64	25507.16
685.78	25542.27
685.91	24975.86
686.05	25010.96
686.19	24393.06
686.32	24922.02
686.46	24463.28
686.60	24341.57
686.73	24704.35
686.87	24489.03
687.01	24648.18
687.14	24842.45
687.28	24648.18
687.42	23957.72
687.55	24159.01
687.69	24016.24
687.82	23978.79
687.96	23969.43
688.10	23906.23
688.23	24063.05
688.37	23758.78
688.50	24091.13
688.64	23372.59
688.78	23501.32
688.91	23051.94
689.05	22941.93
689.18	22977.04
689.32	22623.62
689.46	22518.29
689.59	23178.33
689.73	22923.21
689.86	22876.40
690.00	22972.36
690.13	22806.18
690.27	22614.26
690.41	22164.87
690.54	22120.40
690.68	22064.23
690.81	22129.77
690.95	21797.41
691.08	21549.31
691.22	21467.39
691.35	21521.23
691.49	21930.82
691.62	21579.74
691.76	21303.56
691.89	21020.35
692.03	20950.14
692.16	20554.58
692.30	20821.41
692.43	20800.34
692.57	20559.27
692.70	20636.50
692.84	20828.43
692.97	20205.84
693.11	20348.62
693.24	20114.56
693.38	20435.22
693.51	19913.28
693.65	20252.66
693.78	19709.65
693.92	19976.47
694.05	19882.85
694.19	19747.10
694.32	19880.51
694.45	19967.11
694.59	19634.75
694.72	19878.17
694.86	18998.13
694.99	19117.50
695.13	18918.55
695.26	18902.17
695.39	19143.24
695.53	19073.03
695.66	18956.00
695.80	18611.94
695.93	18710.24
696.07	18483.21
696.20	18162.56
696.33	17907.44
696.47	18127.45
696.60	18373.21
696.73	18462.15
696.87	18403.63
697.00	18176.60
697.14	18054.89
697.27	17671.04
697.40	17673.39
697.54	17776.37
697.67	17619.55
697.80	17509.55
697.94	17523.59
698.07	17228.68
698.21	17350.39
698.34	17214.64
698.47	16992.29
698.61	16439.92
698.74	16898.67
698.87	16720.79
699.01	16697.38
699.14	16732.49
699.27	16676.32
699.40	16507.80
699.54	16458.65
699.67	16587.38
699.80	16556.95
699.94	16065.44
700.07	16482.05
700.20	15950.75
700.34	16123.95
700.47	16072.46
700.60	16168.42
700.73	16009.26
700.87	15967.13
701.00	15538.82
701.13	15616.05
701.26	15367.96
701.40	15398.38
701.53	15571.58
701.66	15534.14
701.79	15234.55
701.93	14932.62
702.06	14775.80
702.19	14913.89
702.32	15124.54
702.46	15126.88
702.59	14778.14
702.72	14967.73
702.85	14965.39
702.99	14803.89
703.12	14450.47
703.25	14408.34
703.38	14286.63
703.51	14333.44
703.65	14267.91
703.78	13975.34
703.91	13935.55
704.04	13923.85
704.17	13582.13
704.31	13877.04
704.44	13832.57
704.57	13858.31
704.70	13495.53
704.83	13481.49
704.96	13446.38
705.10	13469.78
705.23	13256.79
>>>>>End Processed Spectral Data<<<<<
