SpectraSuite Data File
++++++++++++++++++++++++++++++++++++
Date: Fri Oct 25 10:47:53 EDT 2013
User: price-jones
Dark Spectrum Present: No
Reference Spectrum Present: No
Number of Sampled Component Spectra: 1
Spectrometers: USB2+H05261
Integration Time (usec): 100000 (USB2+H05261)
Spectra Averaged: 1 (USB2+H05261)
Boxcar Smoothing: 0 (USB2+H05261)
Correct for Electrical Dark: No (USB2+H05261)
Strobe/Lamp Enabled: No (USB2+H05261)
Correct for Detector Non-linearity: No (USB2+H05261)
Correct for Stray Light: No (USB2+H05261)
Number of Pixels in Processed Spectrum: 2048
>>>>>Begin Processed Spectral Data<<<<<
365.73	147.45
365.92	147.45
366.12	147.45
366.32	0.00
366.52	11.70
366.72	0.00
366.91	121.71
367.11	70.22
367.31	2.34
367.51	37.45
367.70	0.00
367.90	14.04
368.10	0.00
368.30	44.47
368.49	65.54
368.69	107.66
368.89	142.77
369.09	37.45
369.28	72.56
369.48	30.43
369.68	93.62
369.87	161.50
370.07	138.09
370.27	154.48
370.47	252.78
370.66	358.10
370.86	440.02
371.06	407.25
371.25	477.47
371.45	423.64
371.65	521.94
371.84	447.04
372.04	468.11
372.24	444.70
372.44	528.96
372.63	442.36
372.83	540.66
373.03	552.37
373.22	451.72
373.42	489.17
373.62	603.86
373.81	489.17
374.01	507.90
374.21	526.62
374.40	592.16
374.60	552.37
374.79	512.58
374.99	498.53
375.19	606.20
375.38	477.47
375.58	564.07
375.78	580.45
375.97	573.43
376.17	660.03
376.37	566.41
376.56	554.71
376.76	594.50
376.95	564.07
377.15	538.32
377.35	606.20
377.54	578.11
377.74	650.67
377.93	589.82
378.13	557.05
378.33	629.60
378.52	615.56
378.72	606.20
378.91	566.41
379.11	603.86
379.31	545.34
379.50	573.43
379.70	660.03
379.89	603.86
380.09	608.54
380.28	660.03
380.48	613.22
380.68	641.31
380.87	669.39
381.07	653.01
381.26	674.07
381.46	660.03
381.65	653.01
381.85	718.54
382.04	648.33
382.24	624.92
382.43	664.71
382.63	648.33
382.83	681.10
383.02	809.83
383.22	770.04
383.41	638.97
383.61	711.52
383.80	774.72
384.00	685.78
384.19	702.16
384.39	744.29
384.58	828.55
384.78	755.99
384.97	786.42
385.17	734.93
385.36	744.29
385.56	746.63
385.75	819.19
385.95	734.93
386.14	863.66
386.34	704.50
386.53	786.42
386.72	746.63
386.92	819.19
387.11	835.57
387.31	805.14
387.50	809.83
387.70	851.96
387.89	880.04
388.09	763.01
388.28	767.70
388.48	856.64
388.67	823.87
388.86	964.30
389.06	903.45
389.25	943.24
389.45	903.45
389.64	833.23
389.84	912.81
390.03	891.74
390.22	866.00
390.42	910.47
390.61	835.57
390.81	896.43
391.00	1004.09
391.19	997.07
391.39	1004.09
391.58	837.91
391.78	950.26
391.97	978.34
392.16	952.60
392.36	952.60
392.55	1008.77
392.75	987.71
392.94	994.73
393.13	917.49
393.33	1004.09
393.52	1006.43
393.71	1097.71
393.91	926.85
394.10	1011.11
394.29	1100.05
394.49	959.62
394.68	1062.60
394.88	1022.81
395.07	1118.78
395.26	1109.41
395.46	1093.03
395.65	1158.57
395.84	1088.35
396.04	1177.29
396.23	1137.50
396.42	1118.78
396.62	1111.75
396.81	1167.93
397.00	1104.73
397.19	1207.72
397.39	1203.04
397.58	1249.85
397.77	1193.67
397.97	1299.00
398.16	1301.34
398.35	1284.95
398.55	1242.82
398.74	1315.38
398.93	1383.26
399.12	1284.95
399.32	1273.25
399.51	1355.17
399.70	1341.13
399.90	1366.87
400.09	1387.94
400.28	1413.68
400.47	1448.79
400.67	1416.02
400.86	1451.13
401.05	1427.73
401.24	1439.43
401.44	1474.54
401.63	1511.99
401.82	1418.36
402.01	1509.65
402.21	1547.09
402.40	1509.65
402.59	1584.54
402.78	1476.88
402.97	1542.41
403.17	1483.90
403.36	1582.20
403.55	1631.35
403.74	1563.48
403.93	1647.74
404.13	1753.06
404.32	1636.03
404.51	1610.29
404.70	1708.59
404.89	1598.59
405.09	1661.78
405.28	1729.66
405.47	1713.27
405.66	1720.29
405.85	1769.44
406.05	1713.27
406.24	1724.97
406.43	1689.87
406.62	1839.66
406.81	1940.30
407.00	1809.23
407.20	1940.30
407.39	1750.72
407.58	1935.62
407.77	1909.88
407.96	1907.54
408.15	1954.35
408.34	1952.01
408.54	2031.58
408.73	2008.18
408.92	2003.50
409.11	2031.58
409.30	1996.48
409.49	1944.99
409.68	2054.99
409.87	2092.44
410.07	2001.16
410.26	2169.68
410.45	2153.29
410.64	2141.59
410.83	2218.83
411.02	2342.88
411.21	2202.44
411.40	2258.62
411.59	2277.34
411.78	2289.04
411.98	2326.49
412.17	2370.96
412.36	2282.02
412.55	2436.50
412.74	2429.48
412.93	2471.61
413.12	2443.52
413.31	2640.12
413.50	2471.61
413.69	2553.52
413.88	2583.95
414.07	2684.59
414.26	2520.76
414.45	2630.76
414.64	2628.42
414.83	2665.87
415.02	2691.62
415.22	2715.02
415.41	2841.41
415.60	2757.15
415.79	2857.79
415.98	2860.13
416.17	2958.44
416.36	2876.52
416.55	2860.13
416.74	2846.09
416.93	2782.90
417.12	2930.35
417.31	3007.59
417.50	2949.08
417.69	3089.51
417.88	3126.96
418.07	3049.72
418.26	3056.74
418.45	3023.97
418.64	3141.00
418.83	3133.98
419.02	3115.25
419.21	3311.86
419.39	3176.11
419.58	3187.81
419.77	3180.79
419.96	3255.69
420.15	3229.94
420.34	3335.26
420.53	3363.35
420.72	3353.99
420.91	3325.90
421.10	3353.99
421.29	3456.97
421.48	3524.85
421.67	3459.31
421.86	3382.07
422.05	3555.27
422.24	3461.65
422.43	3466.33
422.61	3496.76
422.80	3623.15
422.99	3545.91
423.18	3421.86
423.37	3566.98
423.56	3435.91
423.75	3569.32
423.94	3375.05
424.13	3297.81
424.32	3648.90
424.50	3524.85
424.69	3522.51
424.88	3562.30
425.07	3536.55
425.26	3300.16
425.45	3492.08
425.64	3459.31
425.83	3536.55
426.01	3653.58
426.20	3632.51
426.39	3669.96
426.58	3503.78
426.77	3648.90
426.96	3662.94
427.15	3702.73
427.33	3517.83
427.52	3719.11
427.71	3637.19
427.90	3826.78
428.09	3857.20
428.28	3756.56
428.46	3768.26
428.65	3747.20
428.84	3878.27
429.03	3822.09
429.22	3665.28
429.40	3819.75
429.59	3845.50
429.78	3653.58
429.97	3679.32
430.16	3775.28
430.34	3742.52
430.53	3852.52
430.72	4007.00
430.91	3861.88
431.10	3985.93
431.28	3943.80
431.47	4147.43
431.66	4060.83
431.85	4154.45
432.03	4114.66
432.22	4175.52
432.41	4290.20
432.60	4219.99
432.79	4320.63
432.97	4318.29
433.16	4278.50
433.35	4105.30
433.54	4231.69
433.72	4273.82
433.91	4255.09
434.10	4447.02
434.28	4182.54
434.47	4337.01
434.66	4477.44
434.85	4432.97
435.03	4432.97
435.22	4493.83
435.41	4578.09
435.59	4505.53
435.78	4571.07
435.97	4559.36
436.16	4568.73
436.34	4355.74
436.53	4697.46
436.72	4730.22
436.90	4540.64
437.09	4568.73
437.28	4585.11
437.46	4896.40
437.65	4678.73
437.84	4723.20
438.02	4718.52
438.21	4711.50
438.40	4479.79
438.58	5008.75
438.77	4863.63
438.96	4828.53
439.14	4868.31
439.33	5020.45
439.52	5242.80
439.70	5156.20
439.89	5006.41
440.08	5172.58
440.26	5146.84
440.45	5221.74
440.63	5207.69
440.82	5282.59
441.01	5385.57
441.19	5277.91
441.38	5401.96
441.57	5516.64
441.75	5530.69
441.94	5607.92
442.12	5643.03
442.31	5722.61
442.50	5760.06
442.68	5628.99
442.87	5736.65
443.05	5760.06
443.24	5781.12
443.43	5481.53
443.61	5841.98
443.80	5839.64
443.98	5720.27
444.17	5514.30
444.35	5877.09
444.54	5856.02
444.73	5846.66
444.91	5832.62
445.10	5846.66
445.28	5877.09
445.47	5790.49
445.65	5837.30
445.84	5783.46
446.02	5984.75
446.21	6038.58
446.39	5783.46
446.58	5933.26
446.77	6008.16
446.95	5853.68
447.14	6066.67
447.32	6010.50
447.51	5891.13
447.69	5909.85
447.88	6083.05
448.06	6076.03
448.25	5832.62
448.43	5994.11
448.62	5823.25
448.80	5951.98
448.99	6092.41
449.17	6108.80
449.36	5905.17
449.54	6090.07
449.73	6387.32
449.91	6373.28
450.10	6277.32
450.28	6319.45
450.46	6375.62
450.65	6436.47
450.83	6354.55
451.02	6443.49
451.20	6654.14
451.39	6455.20
451.57	6384.98
451.76	6420.09
451.94	6321.79
452.13	6363.92
452.31	6562.86
452.49	6392.00
452.68	6403.71
452.86	6579.25
453.05	6757.13
453.23	6499.67
453.42	6597.97
453.60	6511.37
453.78	6719.68
453.97	6588.61
454.15	6523.07
454.34	6609.67
454.52	6705.63
454.70	6846.07
454.89	6623.72
455.07	6614.35
455.26	6927.99
455.44	6967.77
455.62	6759.47
455.81	6848.41
455.99	7028.63
456.17	6991.18
456.36	6974.80
456.54	7112.89
456.73	7162.04
456.91	7171.40
457.09	7204.17
457.28	7253.32
457.46	7105.87
457.64	7454.61
457.83	7253.32
458.01	7176.08
458.19	7386.73
458.38	7211.19
458.56	7293.11
458.74	7300.13
458.93	7410.14
459.11	7501.42
459.29	7487.37
459.48	7527.16
459.66	7480.35
459.84	7644.19
460.03	7611.42
460.21	7756.54
460.39	7597.38
460.57	7618.44
460.76	7733.13
460.94	7676.96
461.12	7913.35
461.31	7686.32
461.49	7648.87
461.67	7468.65
461.85	7866.54
462.04	7939.10
462.22	8138.04
462.40	8067.83
462.59	7875.90
462.77	8049.10
462.95	8028.04
463.13	8051.44
463.32	7824.41
463.50	8030.38
463.68	8163.79
463.86	8065.49
464.05	7971.86
464.23	8086.55
464.41	8037.40
464.59	8049.10
464.78	8243.37
464.96	8168.47
465.14	8175.49
465.32	8241.03
465.50	8226.98
465.69	8210.60
465.87	8533.59
466.05	8283.16
466.23	8205.92
466.41	8311.24
466.60	8519.55
466.78	8400.18
466.96	8437.63
467.14	8276.13
467.32	8362.73
467.51	8542.96
467.69	8374.44
467.87	8355.71
468.05	8606.15
468.23	8526.57
468.41	8664.66
468.60	8608.49
468.78	8659.98
468.96	8622.53
469.14	8613.17
469.32	8842.54
469.50	8510.19
469.69	8772.33
469.87	8809.78
470.05	8840.20
470.23	8901.06
470.41	8870.63
470.59	8844.88
470.77	8868.29
470.95	9184.26
471.14	9160.86
471.32	9020.42
471.50	9270.86
471.68	9198.31
471.86	9266.18
472.04	9352.78
472.22	9551.73
472.40	9427.68
472.58	9298.95
472.77	9458.10
472.95	9624.28
473.13	9846.63
473.31	9631.30
473.49	9675.77
473.67	9884.08
473.85	9804.50
474.03	10050.26
474.21	9844.29
474.39	10104.09
474.57	9802.16
474.75	10120.48
474.93	10200.05
475.12	9905.15
475.30	10333.47
475.48	10071.33
475.66	10272.61
475.84	10050.26
476.02	10354.53
476.20	10338.15
476.38	10555.82
476.56	10616.67
476.74	10745.40
476.92	10616.67
477.10	10789.87
477.28	10986.47
477.46	10766.46
477.64	11070.73
477.82	11044.99
478.00	11213.51
478.18	11382.03
478.36	11494.37
478.54	11705.02
478.72	11477.99
478.90	11653.53
479.08	11611.40
479.26	11918.01
479.44	11838.43
479.62	12091.21
479.80	12037.38
479.98	12217.60
480.16	12379.09
480.34	12046.74
480.52	12585.06
480.70	12540.59
480.88	12233.98
481.06	12531.23
481.24	12678.68
481.41	12973.59
481.59	12732.51
481.77	13160.83
481.95	12886.99
482.13	13048.49
482.31	13256.79
482.49	13312.97
482.67	13472.12
482.85	13722.56
483.03	13844.27
483.21	14045.55
483.39	13816.18
483.57	13984.70
483.74	14083.00
483.92	14200.03
484.10	14176.62
484.28	14534.73
484.46	14677.50
484.64	14787.50
484.82	14817.93
485.00	14736.01
485.18	15066.03
485.35	15391.36
485.53	15126.88
485.71	15173.69
485.89	15138.58
486.07	15302.42
486.25	15274.34
486.43	16002.24
486.61	15564.56
486.78	16032.67
486.96	16084.16
487.14	16210.55
487.32	16308.85
487.50	16449.28
487.68	16168.42
487.85	16791.00
488.03	16833.13
488.21	16987.61
488.39	16753.55
488.57	17027.40
488.75	17317.62
488.92	17664.02
489.10	17612.53
489.28	17497.84
489.46	18195.32
489.64	17841.90
489.81	18239.79
489.99	18097.02
490.17	18597.90
490.35	18738.33
490.53	18775.78
490.70	18583.85
490.88	18876.42
491.06	19264.95
491.24	18562.79
491.41	19314.10
491.59	19080.05
491.77	19335.17
491.95	19412.40
492.13	19487.30
492.30	19995.20
492.48	19704.97
492.66	19775.19
492.84	19810.29
493.01	20294.79
493.19	20173.08
493.37	20428.20
493.54	20566.29
493.72	20659.91
493.90	20521.82
494.08	20882.26
494.25	21015.67
494.43	21104.61
494.61	21322.28
494.79	21392.50
494.96	21053.12
495.14	21284.83
495.32	21654.64
495.49	21743.58
495.67	21600.80
495.85	22033.80
496.02	22382.54
496.20	22281.90
496.38	22555.74
496.55	22429.35
496.73	23122.15
496.91	22635.32
497.09	22991.08
497.26	23098.75
497.44	22883.42
497.62	23145.56
497.79	23468.55
497.97	23190.03
498.14	23667.50
498.32	23716.65
498.50	23585.58
498.67	23950.70
498.85	23700.26
499.03	24140.29
499.20	24180.07
499.38	24107.52
499.56	24030.28
499.73	24662.22
499.91	24400.08
500.08	24737.12
500.26	24615.41
500.44	24687.97
500.61	25048.41
500.79	24634.14
500.97	24680.95
501.14	25111.61
501.32	24987.56
501.49	24790.95
501.67	24919.68
501.84	25296.51
502.02	25242.68
502.20	25378.43
502.37	25633.55
502.55	25795.04
502.72	25766.96
502.90	26148.46
503.07	25610.14
503.25	25895.69
503.43	26111.02
503.60	26382.52
503.78	26143.78
503.95	26621.25
504.13	26403.58
504.30	26665.72
504.48	26642.32
504.65	26836.58
504.83	26677.43
505.01	26721.90
505.18	26689.13
505.36	27136.17
505.53	27260.22
505.71	27386.61
505.88	27157.24
506.06	27253.20
506.23	27491.93
506.41	26965.31
506.58	27110.43
506.76	27646.41
506.93	27208.73
507.11	27632.36
507.28	27824.29
507.46	27744.71
507.63	28044.30
507.81	27782.16
507.98	27974.08
508.16	28692.63
508.33	28481.98
508.50	28421.13
508.68	28683.27
508.85	28613.05
509.03	28460.91
509.20	29139.67
509.38	28837.74
509.55	28858.81
509.73	29127.97
509.90	29378.40
510.08	29247.33
510.25	28929.02
510.42	29207.55
510.60	29811.40
510.77	29415.85
510.95	29640.54
511.12	29708.42
511.30	29858.21
511.47	29780.98
511.64	30155.46
511.82	30206.95
511.99	29846.51
512.17	30153.12
512.34	30164.82
512.51	30277.17
512.69	30426.96
512.86	30457.39
513.04	30878.69
513.21	30836.56
513.38	30806.13
513.56	31016.78
513.73	30136.74
513.90	30347.39
514.08	30986.35
514.25	30920.82
514.43	30747.62
514.60	30766.34
514.77	30824.86
514.95	31597.23
515.12	31440.42
515.29	30836.56
515.47	31693.19
515.64	31730.64
515.81	31409.99
515.99	31632.34
516.16	31552.76
516.33	31889.80
516.51	31782.13
516.68	31557.44
516.85	31564.46
517.03	31644.04
517.20	32060.66
517.37	32163.64
517.54	32243.22
517.72	32327.48
517.89	32402.38
518.06	32332.16
518.24	32009.17
518.41	31887.46
518.58	32378.97
518.75	32769.84
518.93	32727.71
519.10	32774.52
519.27	32900.91
519.45	32975.81
519.62	33195.82
519.79	33310.50
519.96	33242.63
520.14	32818.99
520.31	33223.90
520.48	33729.46
520.65	33326.89
520.83	33528.17
521.00	33362.00
521.17	33752.87
521.34	33706.05
521.52	33874.57
521.69	34183.52
521.86	33876.91
522.03	33495.41
522.20	34298.21
522.38	34227.99
522.55	34188.21
522.72	34223.31
522.89	34164.80
523.07	34679.72
523.24	34246.72
523.41	34082.88
523.58	34410.56
523.75	34960.58
523.92	34813.13
524.10	34808.45
524.27	34780.36
524.44	34995.69
524.61	34810.79
524.78	35108.04
524.96	35297.62
525.13	35728.28
525.30	35920.20
525.47	35714.23
525.64	35545.72
525.81	35936.59
525.98	35129.10
526.16	34979.31
526.33	35283.58
526.50	35529.33
526.67	35306.98
526.84	35613.59
527.01	35468.48
527.18	35796.15
527.36	35974.03
527.53	35576.14
527.70	36217.45
527.87	35941.27
528.04	35840.62
528.21	36123.83
528.38	35917.86
528.55	36430.44
528.72	36343.84
528.89	36381.29
529.07	36463.21
529.24	35875.73
529.41	35955.31
529.58	36533.42
529.75	36678.54
529.92	36556.83
530.09	36886.84
530.26	36844.71
530.43	36486.61
530.60	36706.62
530.77	36823.65
530.94	37277.71
531.11	37188.77
531.28	37008.55
531.46	37338.57
531.63	37338.57
531.80	36795.56
531.97	37067.06
532.14	37324.52
532.31	37085.79
532.48	37439.21
532.65	37509.43
532.82	37132.60
532.99	37825.40
533.16	37371.33
533.33	37727.10
533.50	37572.62
533.67	37865.19
533.84	37350.27
534.01	37670.92
534.18	37619.43
534.35	37956.47
534.52	38185.84
534.69	38169.46
534.86	38293.50
535.03	38031.36
535.20	38366.06
535.37	38455.00
535.54	38682.03
535.71	38492.45
535.88	38576.71
536.05	38253.72
536.22	38665.65
536.38	38108.60
536.55	38602.46
536.72	38735.87
536.89	38572.03
537.06	38714.80
537.23	38953.54
537.40	38990.98
537.57	38756.93
537.74	39208.65
537.91	39236.74
538.08	38768.63
538.25	38789.70
538.42	39108.01
538.59	39494.20
538.75	38756.93
538.92	39402.92
539.09	39260.15
539.26	39152.48
539.43	38693.74
539.60	39215.68
539.77	39096.31
539.94	39555.05
540.11	39377.17
540.28	39274.19
540.44	39311.64
540.61	39393.56
540.78	39819.53
540.95	39643.99
541.12	39655.70
541.29	39859.32
541.46	39484.84
541.62	39791.45
541.79	40306.37
541.96	39213.34
542.13	40275.94
542.30	39976.35
542.47	40114.44
542.63	39931.88
542.80	40421.05
542.97	40718.30
543.14	40650.42
543.31	40673.83
543.48	40308.71
543.64	40783.83
543.81	40657.45
543.98	40512.33
544.15	40507.65
544.32	40802.56
544.48	41284.71
544.65	40947.67
544.82	40856.39
544.99	40425.73
545.16	40514.67
545.32	40620.00
545.49	41160.66
545.66	41226.20
545.83	40821.28
546.00	41284.71
546.16	41043.63
546.33	40828.30
546.50	40591.91
546.67	40545.10
546.83	41092.79
547.00	40858.73
547.17	41013.21
547.34	41092.79
547.50	41310.46
547.67	41909.63
547.84	40935.97
548.00	41923.68
548.17	41537.49
548.34	41478.97
548.51	41741.11
548.67	41881.55
548.84	41703.67
549.01	41474.29
549.18	41420.46
549.34	41862.82
549.51	41785.58
549.68	42026.66
549.84	41670.90
550.01	42483.06
550.18	41682.60
550.34	41991.55
550.51	42014.96
550.68	42139.00
550.84	41687.28
551.01	42143.69
551.18	42174.11
551.34	42419.87
551.51	42232.63
551.68	41979.85
551.84	42183.48
552.01	41998.57
552.18	42590.73
552.34	42073.47
552.51	42178.79
552.68	42190.50
552.84	42873.93
553.01	43147.78
553.18	42684.35
553.34	42525.19
553.51	42391.78
553.67	42176.45
553.84	42848.19
554.01	42639.88
554.17	42906.70
554.34	42902.02
554.51	42923.08
554.67	43002.66
554.84	42726.48
555.00	42499.45
555.17	42948.83
555.33	43019.05
555.50	43147.78
555.67	43019.05
555.83	43035.43
556.00	43456.73
556.16	43391.19
556.33	43449.70
556.50	43009.68
556.66	43206.29
556.83	42749.88
556.99	43098.62
557.16	42897.34
557.32	43056.50
557.49	43604.18
557.65	42911.38
557.82	43028.41
557.98	42682.01
558.15	43229.69
558.32	43152.46
558.48	43119.69
558.65	43508.22
558.81	43512.90
558.98	43421.62
559.14	43842.92
559.31	43414.60
559.47	43615.88
559.64	43655.67
559.80	43587.80
559.97	43470.77
560.13	42951.17
560.30	43105.65
560.46	43655.67
560.63	43571.41
560.79	43777.38
560.96	43894.41
561.12	43927.17
561.29	43892.07
561.45	43601.84
561.61	43489.49
561.78	43566.73
561.94	43552.69
562.11	44231.44
562.27	43393.53
562.44	43723.55
562.60	44140.16
562.77	43959.94
562.93	43973.98
563.10	44023.14
563.26	43934.20
563.42	44030.16
563.59	43688.44
563.75	44058.24
563.92	44030.16
564.08	44161.23
564.24	44245.49
564.41	44133.14
564.57	44051.22
564.74	44130.80
564.90	44144.84
565.07	44048.88
565.23	43854.62
565.39	43981.01
565.56	44025.48
565.72	43978.67
565.88	44430.39
566.05	43761.00
566.21	44041.86
566.38	43634.61
566.54	43983.35
566.70	44531.03
566.87	44294.64
567.03	44046.54
567.19	44105.06
567.36	44458.48
567.52	43885.04
567.68	44226.76
567.85	44521.67
568.01	44247.83
568.17	44107.40
568.34	44123.78
568.50	43721.21
568.66	44058.24
568.83	44507.63
568.99	44437.41
569.15	44081.65
569.32	44161.23
569.48	43959.94
569.64	44467.84
569.81	44566.14
569.97	44304.00
570.13	44233.78
570.30	44575.50
570.46	44137.82
570.62	43957.60
570.78	44041.86
570.95	44208.04
571.11	44135.48
571.27	43711.84
571.43	44591.89
571.60	44495.92
571.76	44037.18
571.92	44254.85
572.09	44762.75
572.25	44514.65
572.41	44533.37
572.57	44196.34
572.74	45036.59
572.90	44524.01
573.06	44706.57
573.22	44406.98
573.38	44524.01
573.55	44381.24
573.71	44676.15
573.87	44364.85
574.03	44268.89
574.20	44488.90
574.36	44528.69
574.52	44428.05
574.68	44357.83
574.84	44416.35
575.01	44594.23
575.17	44601.25
575.33	44184.63
575.49	44109.74
575.65	44680.83
575.82	44720.62
575.98	44568.48
576.14	44467.84
576.30	44643.38
576.46	44395.28
576.62	44318.04
576.79	44446.77
576.95	43955.26
577.11	44416.35
577.27	44641.04
577.43	44957.01
577.59	44083.99
577.75	44444.43
577.92	44552.10
578.08	44348.47
578.24	44650.40
578.40	44601.25
578.56	44788.49
578.72	44257.19
578.88	44767.43
579.04	44718.28
579.21	44229.10
579.37	44416.35
579.53	44301.66
579.69	44275.91
579.85	44877.43
580.01	44729.98
580.17	44879.77
580.33	44575.50
580.49	44744.02
580.65	44769.77
580.82	44875.09
580.98	44844.66
581.14	44540.39
581.30	44903.18
581.46	44781.47
581.62	44954.67
581.78	44486.56
581.94	44811.90
582.10	44989.78
582.26	44634.02
582.42	44715.93
582.58	44432.73
582.74	44580.18
582.90	44516.99
583.06	44985.10
583.22	44910.20
583.38	44863.39
583.54	45104.46
583.70	44877.43
583.86	44584.86
584.02	44587.21
584.18	45052.97
584.34	44552.10
584.50	44772.11
584.66	44877.43
584.82	44767.43
584.98	44865.73
585.14	44514.65
585.30	44765.09
585.46	45041.27
585.62	44872.75
585.78	44701.89
585.94	44020.80
586.10	44526.35
586.26	44566.14
586.42	45378.31
586.58	44921.90
586.74	44928.92
586.90	44528.69
587.06	44886.79
587.22	45118.51
587.38	44676.15
587.54	44804.88
587.70	44809.56
587.86	45088.08
588.02	44598.91
588.18	44610.61
588.34	44795.51
588.49	44533.37
588.65	44144.84
588.81	44238.47
588.97	44350.81
589.13	44509.97
589.29	44636.36
589.45	44947.65
589.61	44809.56
589.77	45015.52
589.93	44708.91
590.08	45329.16
590.24	44884.45
590.40	45141.91
590.56	45284.68
590.72	44626.99
590.88	44186.97
591.04	45062.33
591.20	45382.99
591.35	45237.87
591.51	45425.12
591.67	45291.71
591.83	45235.53
591.99	44964.03
592.15	44779.13
592.31	44978.07
592.46	45151.27
592.62	45043.61
592.78	44975.73
592.94	44739.34
593.10	45031.91
593.26	45088.08
593.41	44949.99
593.57	45111.49
593.73	44636.36
593.89	45113.83
594.05	44807.22
594.20	45003.82
594.36	44961.69
594.52	45179.36
594.68	45076.38
594.84	45265.96
594.99	45537.46
595.15	45137.23
595.31	45366.60
595.47	44999.14
595.62	44893.82
595.78	45471.93
595.94	45495.33
596.10	45467.25
596.25	45411.07
596.41	45628.74
596.57	45064.67
596.73	45390.01
596.88	45017.86
597.04	45371.28
597.20	45446.18
597.36	45085.74
597.51	45024.89
597.67	45570.23
597.83	45289.37
597.99	45607.68
598.14	45497.67
598.30	45038.93
598.46	45034.25
598.61	45422.78
598.77	45399.37
598.93	44877.43
599.09	45228.51
599.24	45488.31
599.40	45598.32
599.56	45830.03
599.71	45366.60
599.87	45584.27
600.03	45326.81
600.18	45350.22
600.34	45485.97
600.50	45139.57
600.65	45160.64
600.81	45429.80
600.97	45219.15
601.12	45331.50
601.28	45724.71
601.44	45336.18
601.59	45425.12
601.75	45382.99
601.91	45221.49
602.06	45244.90
602.22	45401.71
602.37	45137.23
602.53	44802.53
602.69	45350.22
602.84	44971.05
603.00	45378.31
603.16	45485.97
603.31	44856.37
603.47	45052.97
603.62	45111.49
603.78	45663.85
603.94	45181.70
604.09	45509.38
604.25	44886.79
604.40	45254.26
604.56	45043.61
604.71	44942.97
604.87	45434.48
605.03	45162.98
605.18	45390.01
605.34	45172.34
605.49	44715.93
605.65	45375.97
605.80	44694.87
605.96	45174.68
606.12	45003.82
606.27	45324.47
606.43	45261.28
606.58	45319.79
606.74	45249.58
606.89	44734.66
607.05	45514.06
607.20	44708.91
607.36	44868.07
607.51	45579.59
607.67	45083.40
607.82	45050.63
607.98	45315.11
608.13	44643.38
608.29	44596.57
608.44	44392.94
608.60	44362.51
608.75	44664.44
608.91	44694.87
609.06	44381.24
609.22	44863.39
609.37	44722.96
609.53	44594.23
609.68	44896.16
609.84	44690.19
609.99	45015.52
610.15	44847.00
610.30	44718.28
610.46	44243.15
610.61	44439.75
610.76	44395.28
610.92	44266.55
611.07	44638.70
611.23	44488.90
611.38	45092.76
611.54	44243.15
611.69	44563.80
611.84	44250.17
612.00	44626.99
612.15	44301.66
612.31	44481.88
612.46	44130.80
612.62	44531.03
612.77	43969.30
612.92	44350.81
613.08	44435.07
613.23	44369.54
613.39	44549.76
613.54	44095.69
613.69	44582.52
613.85	43660.35
614.00	44236.12
614.15	44484.22
614.31	44444.43
614.46	44402.30
614.62	44388.26
614.77	43863.98
614.92	44470.18
615.08	44254.85
615.23	43966.96
615.38	43976.33
615.54	43510.56
615.69	44135.48
615.84	43901.43
616.00	44402.30
616.15	43753.97
616.30	43943.56
616.46	43784.40
616.61	43782.06
616.76	43800.79
616.92	43536.30
617.07	43819.51
617.22	43222.67
617.37	43606.52
617.53	43835.89
617.68	43875.68
617.83	43924.83
617.99	43945.90
618.14	43522.26
618.29	43225.01
618.45	43302.25
618.60	43725.89
618.75	43763.34
618.90	43491.83
619.06	43892.07
619.21	43239.06
619.36	44170.59
619.51	43590.14
619.67	43882.70
619.82	43110.33
619.97	43807.81
620.12	43650.99
620.28	42803.72
620.43	43510.56
620.58	43096.28
620.73	43405.23
620.89	43302.25
621.04	43386.51
621.19	43328.00
621.34	43391.19
621.49	43054.15
621.65	42824.78
621.80	43395.87
621.95	42747.54
622.10	43466.09
622.25	43159.48
622.41	42515.83
622.56	43021.39
622.71	43395.87
622.86	42937.13
623.01	42761.59
623.16	43414.60
623.32	43143.09
623.47	42983.94
623.62	43175.86
623.77	42696.05
623.92	43232.04
624.07	42845.85
624.23	42707.76
624.38	42501.79
624.53	42342.63
624.68	42593.07
624.83	42946.49
624.98	42689.03
625.13	42665.63
625.29	42775.63
625.44	42590.73
625.59	42548.60
625.74	42286.46
625.89	42155.39
626.04	41869.84
626.19	42202.20
626.34	42363.70
626.49	41975.17
626.65	42148.37
626.80	42417.53
626.95	42146.03
627.10	41944.74
627.25	42249.01
627.40	42216.24
627.55	41750.48
627.70	41551.53
627.85	41724.73
628.00	42000.91
628.15	42344.97
628.30	41493.02
628.45	41794.95
628.60	42115.60
628.76	42120.28
628.91	41860.48
629.06	41958.78
629.21	41347.90
629.36	41734.09
629.51	41486.00
629.66	41799.63
629.81	41729.41
629.96	41694.30
630.11	41855.80
630.26	41209.81
630.41	42220.92
630.56	41193.43
630.71	41179.39
630.86	41163.00
631.01	41160.66
631.16	41635.79
631.31	41397.06
631.46	40858.73
631.61	41408.76
631.76	41610.04
631.91	41596.00
632.06	41085.76
632.21	41476.63
632.36	41462.59
632.51	41085.76
632.66	41411.10
632.81	40842.35
632.96	41212.15
633.10	40732.34
633.25	41256.62
633.40	41331.52
633.55	41476.63
633.70	40870.43
633.85	40886.82
634.00	41315.14
634.15	41095.13
634.30	41226.20
634.45	40938.31
634.60	40811.92
634.75	41029.59
634.90	40643.40
635.05	40987.46
635.19	40783.83
635.34	41116.19
635.49	41244.92
635.64	40762.77
635.79	40882.14
635.94	40648.08
636.09	40395.31
636.24	40552.12
636.39	40484.25
636.53	40051.25
636.68	39868.69
636.83	40179.98
636.98	40687.87
637.13	40435.10
637.28	40430.41
637.43	40781.49
637.57	40987.46
637.72	40224.45
637.87	40982.78
638.02	40760.43
638.17	40449.14
638.32	40233.81
638.46	40187.00
638.61	39952.94
638.76	40294.66
638.91	40304.02
639.06	40566.16
639.20	40650.42
639.35	40460.84
639.50	39936.56
639.65	40416.37
639.80	40011.46
639.94	39959.97
640.09	39859.32
640.24	40437.44
640.39	39791.45
640.54	40013.80
640.68	39798.47
640.83	39929.54
640.98	39814.85
641.13	39983.37
641.27	39899.11
641.42	39627.61
641.57	39718.89
641.72	39814.85
641.86	39929.54
642.01	39400.58
642.16	39414.62
642.31	39152.48
642.45	39840.60
642.60	39323.34
642.75	38946.51
642.90	39487.18
643.04	39187.59
643.19	39203.97
643.34	39517.60
643.48	39250.78
643.63	39564.42
643.78	39012.05
643.93	39199.29
644.07	39145.46
644.22	39501.22
644.37	38780.34
644.51	39203.97
644.66	39304.62
644.81	39255.46
644.95	38939.49
645.10	38866.94
645.25	39611.23
645.39	39288.23
645.54	39093.97
645.69	39070.56
645.83	39108.01
645.98	38902.04
646.13	38871.62
646.27	38742.89
646.42	39122.05
646.57	38473.73
646.71	39070.56
646.86	38820.13
647.00	38934.81
647.15	38583.73
647.30	39030.77
647.44	38822.47
647.59	38827.15
647.74	38572.03
647.88	38471.39
648.03	38560.33
648.17	38721.82
648.32	38309.89
648.47	38862.26
648.61	38405.85
648.76	38850.55
648.90	38817.78
649.05	38581.39
649.20	38745.23
649.34	38462.02
649.49	37993.92
649.63	38085.20
649.78	38309.89
649.92	38038.39
650.07	38511.17
650.21	38323.93
650.36	38188.18
650.51	38359.04
650.65	38888.00
650.80	38576.71
650.94	38607.14
651.09	38312.23
651.23	38127.33
651.38	37656.88
651.52	37970.51
651.67	38202.22
651.81	38047.75
651.96	37942.42
652.10	38162.43
652.25	37897.95
652.39	38211.59
652.54	37937.74
652.68	38391.81
652.83	38073.49
652.97	38211.59
653.12	37785.61
653.26	37593.68
653.41	38146.05
653.55	37869.87
653.70	37294.10
653.84	37682.62
653.99	37694.33
654.13	37469.64
654.27	37574.96
654.42	37488.36
654.56	37439.21
654.71	37493.04
654.85	37219.20
655.00	37670.92
655.14	37383.04
655.29	36893.86
655.43	37294.10
655.57	37036.64
655.72	37275.37
655.86	37127.92
656.01	37516.45
656.15	36924.29
656.30	36985.15
656.44	37331.54
656.58	37195.79
656.73	37160.69
656.87	36470.23
657.01	36720.66
657.16	37237.92
657.30	37090.47
657.45	36514.70
657.59	37046.00
657.73	36381.29
657.88	36631.72
658.02	36620.02
658.16	36390.65
658.31	36797.90
658.45	36624.70
658.60	36933.65
658.74	36994.51
658.88	36903.23
659.03	36818.97
659.17	36086.38
659.31	36514.70
659.46	36350.86
659.60	36392.99
659.74	36697.26
659.89	35941.27
660.03	36299.37
660.17	36430.44
660.32	36079.36
660.46	36332.14
660.60	36786.20
660.74	36383.63
660.89	36273.62
661.03	35683.81
661.17	36070.00
661.32	35459.12
661.46	35793.81
661.60	35763.39
661.74	35702.53
661.89	35473.16
662.03	35730.62
662.17	35611.25
662.31	35824.24
662.46	35889.77
662.60	36109.78
662.74	35332.73
662.88	35213.36
663.03	35491.88
663.17	35314.00
663.31	34864.62
663.45	34881.00
663.60	35239.11
663.74	34913.77
663.88	34881.00
664.02	35077.61
664.17	35314.00
664.31	35035.48
664.45	34749.93
664.59	34487.79
664.73	34745.25
664.88	34714.83
665.02	34506.52
665.16	34597.80
665.30	34515.88
665.44	34630.57
665.59	34469.07
665.73	34588.44
665.87	34190.55
666.01	34185.86
666.15	34565.03
666.29	34370.77
666.44	34036.07
666.58	34040.75
666.72	34106.29
666.86	34045.43
667.00	34190.55
667.14	33769.25
667.28	33579.67
667.43	33905.00
667.57	33769.25
667.71	33282.42
667.85	33731.80
667.99	33469.66
668.13	33406.47
668.27	33486.04
668.41	33160.71
668.56	33350.29
668.70	33399.44
668.84	33369.02
668.98	32891.55
669.12	33170.07
669.26	33521.15
669.40	33350.29
669.54	33432.21
669.68	33432.21
669.82	33151.35
669.96	32914.95
670.10	32910.27
670.25	33111.56
670.39	32900.91
670.53	32437.48
670.67	32692.60
670.81	32835.38
670.95	32744.09
671.09	32786.22
671.23	32631.75
671.37	32641.11
671.51	32519.40
671.65	31915.54
671.79	32102.79
671.93	32004.49
672.07	32084.06
672.21	32039.59
672.35	32093.43
672.49	32287.69
672.63	32128.53
672.77	31515.31
672.91	32093.43
673.05	31763.41
673.19	31349.14
673.33	31302.32
673.47	31583.19
673.61	31117.42
673.75	31140.83
673.89	30866.98
674.03	30831.88
674.17	30934.86
674.31	30808.47
674.45	30941.88
674.59	31044.87
674.73	31079.97
674.87	30698.47
675.01	30998.06
675.15	30789.75
675.29	30504.20
675.43	30745.28
675.56	30735.92
675.70	30522.93
675.84	30478.46
675.98	29219.25
676.12	29673.31
676.26	30092.27
676.40	30347.39
676.54	29893.32
676.68	29462.66
676.82	29305.85
676.96	29551.60
677.10	29993.97
677.23	29378.40
677.37	29766.93
677.51	29261.38
677.65	29371.38
677.79	29069.45
677.93	29165.42
678.07	28760.50
678.21	28823.70
678.34	28659.86
678.48	28231.54
678.62	28259.63
678.76	28751.14
678.90	28318.14
679.04	28428.15
679.18	28453.89
679.31	28210.48
679.45	28002.17
679.59	27791.52
679.73	27627.68
679.87	27875.78
680.00	28093.45
680.14	27948.34
680.28	27391.29
680.42	27491.93
680.56	27384.27
680.70	27328.10
680.83	27428.74
680.97	26932.54
681.11	27087.02
681.25	27077.66
681.39	26874.03
681.52	26768.71
681.66	26911.48
681.80	26654.02
681.94	26536.99
682.07	26361.45
682.21	26398.90
682.35	26352.09
682.49	26494.86
682.62	26520.61
682.76	26279.54
682.90	26082.93
683.04	25820.79
683.17	25708.44
683.31	25671.00
683.45	25682.70
683.59	25469.71
683.72	25446.30
683.86	25343.32
684.00	25511.84
684.13	25692.06
684.27	25827.81
684.41	25268.42
684.55	25088.20
684.68	24603.71
684.82	25092.88
684.96	24517.11
685.09	24603.71
685.23	24751.17
685.37	24531.15
685.50	24814.36
685.64	24187.10
685.78	24472.64
685.91	24407.11
686.05	24140.29
686.19	23962.40
686.32	24070.07
686.46	23608.98
686.60	23494.30
686.73	23372.59
686.87	23159.60
687.01	23417.06
687.14	23061.30
687.28	23344.50
687.42	23269.61
687.55	23103.43
687.69	22806.18
687.82	23110.45
687.96	22946.61
688.10	22541.70
688.23	22611.92
688.37	22665.75
688.50	22530.00
688.64	22555.74
688.78	22590.85
688.91	22199.98
689.05	22349.78
689.18	22277.22
689.32	21902.73
689.46	21930.82
689.59	21799.75
689.73	22078.27
689.86	21465.05
690.00	21720.17
690.13	22111.04
690.27	21500.16
690.41	21762.30
690.54	21273.13
690.68	21015.67
690.81	21202.91
690.95	21025.03
691.08	20886.94
691.22	20741.83
691.35	20650.55
691.49	21043.76
691.62	21034.39
691.76	20931.41
691.89	20753.53
692.03	20278.40
692.16	20556.93
692.30	20706.72
692.43	20259.68
692.57	20290.10
692.70	20126.27
692.84	20060.73
692.97	20233.93
693.11	20065.41
693.24	19754.12
693.38	19510.71
693.51	19768.16
693.65	20128.61
693.78	19779.87
693.92	19880.51
694.05	19494.32
694.19	19262.61
694.32	19157.28
694.45	19176.01
694.59	18841.31
694.72	18815.57
694.86	18813.23
694.99	18562.79
695.13	18593.22
695.26	18583.85
695.39	18277.24
695.53	18258.52
695.66	18167.24
695.80	18462.15
695.93	18160.22
696.07	17783.39
696.20	18115.75
696.33	17785.73
696.47	18097.02
696.60	17816.16
696.73	17795.09
696.87	17635.94
697.00	17792.75
697.14	17743.60
697.27	17516.57
697.40	17568.06
697.54	17287.20
697.67	17530.61
697.80	17453.37
697.94	17287.20
698.07	17078.89
698.21	16931.44
698.34	16816.75
698.47	16683.34
698.61	16926.75
698.74	16556.95
698.87	16369.71
699.01	16248.00
699.14	16549.93
699.27	16390.77
699.40	16451.63
699.54	16011.60
699.67	16032.67
699.80	15777.55
699.94	15730.74
700.07	15896.92
700.20	15967.13
700.34	15995.22
700.47	15735.42
700.60	16152.04
700.73	15861.81
700.87	15342.21
701.00	15669.89
701.13	15791.59
701.26	15737.76
701.40	15187.74
701.53	15477.96
701.66	15314.13
701.79	15115.18
701.93	15152.63
702.06	14913.89
702.19	14817.93
702.32	15012.20
702.46	14750.06
702.59	14761.76
702.72	14885.81
702.85	14785.16
702.99	14593.24
703.12	14707.93
703.25	14286.63
703.38	14413.02
703.51	14506.64
703.65	14319.40
703.78	14085.34
703.91	14246.84
704.04	14031.51
704.17	13923.85
704.31	13949.59
704.44	13696.82
704.57	13879.38
704.70	13862.99
704.83	13652.34
704.96	13853.63
705.10	13654.69
705.23	13612.56
>>>>>End Processed Spectral Data<<<<<
