SpectraSuite Data File
++++++++++++++++++++++++++++++++++++
Date: Fri Oct 25 10:43:17 EDT 2013
User: price-jones
Dark Spectrum Present: No
Reference Spectrum Present: No
Number of Sampled Component Spectra: 1
Spectrometers: USB2+H05261
Integration Time (usec): 100000 (USB2+H05261)
Spectra Averaged: 1 (USB2+H05261)
Boxcar Smoothing: 0 (USB2+H05261)
Correct for Electrical Dark: No (USB2+H05261)
Strobe/Lamp Enabled: No (USB2+H05261)
Correct for Detector Non-linearity: No (USB2+H05261)
Correct for Stray Light: No (USB2+H05261)
Number of Pixels in Processed Spectrum: 2048
>>>>>Begin Processed Spectral Data<<<<<
365.73	131.07
365.92	131.07
366.12	131.07
366.32	0.00
366.52	46.81
366.72	79.58
366.91	53.83
367.11	0.00
367.31	16.38
367.51	30.43
367.70	30.43
367.90	2.34
368.10	2.34
368.30	11.70
368.49	0.00
368.69	88.94
368.89	0.00
369.09	53.83
369.28	25.75
369.48	46.81
369.68	102.98
369.87	60.85
370.07	105.32
370.27	93.62
370.47	248.10
370.66	327.68
370.86	407.25
371.06	505.56
371.25	435.34
371.45	491.51
371.65	528.96
371.84	437.68
372.04	458.74
372.24	475.13
372.44	418.96
372.63	496.19
372.83	489.17
373.03	505.56
373.22	510.24
373.42	561.73
373.62	559.39
373.81	510.24
374.01	634.29
374.21	538.32
374.40	500.87
374.60	606.20
374.79	573.43
374.99	620.24
375.19	704.50
375.38	554.71
375.58	582.79
375.78	608.54
375.97	627.26
376.17	636.63
376.37	533.64
376.56	540.66
376.76	585.13
376.95	613.22
377.15	671.73
377.35	573.43
377.54	716.20
377.74	699.82
377.93	603.86
378.13	617.90
378.33	716.20
378.52	545.34
378.72	620.24
378.91	676.41
379.11	601.52
379.31	678.76
379.50	711.52
379.70	653.01
379.89	692.80
380.09	660.03
380.28	664.71
380.48	631.94
380.68	634.29
380.87	622.58
381.07	702.16
381.26	784.08
381.46	683.44
381.65	777.06
381.85	702.16
382.04	660.03
382.24	709.18
382.43	725.57
382.63	725.57
382.83	704.50
383.02	741.95
383.22	819.19
383.41	709.18
383.61	667.05
383.80	774.72
384.00	788.76
384.19	716.20
384.39	837.91
384.58	807.48
384.78	884.72
384.97	751.31
385.17	800.46
385.36	889.40
385.56	755.99
385.75	784.08
385.95	760.67
386.14	880.04
386.34	786.42
386.53	826.21
386.72	805.14
386.92	835.57
387.11	891.74
387.31	915.15
387.50	903.45
387.70	919.83
387.89	844.93
388.09	931.53
388.28	828.55
388.48	856.64
388.67	954.94
388.86	889.40
389.06	961.96
389.25	884.72
389.45	1081.33
389.64	924.51
389.84	926.85
390.03	933.87
390.22	1032.18
390.42	1013.45
390.61	997.07
390.81	943.24
391.00	1025.15
391.19	1043.88
391.39	1083.67
391.58	1027.50
391.78	1104.73
391.97	1039.20
392.16	985.37
392.36	1039.20
392.55	1029.84
392.75	1032.18
392.94	999.41
393.13	1018.13
393.33	978.34
393.52	1053.24
393.71	1048.56
393.91	1074.31
394.10	1109.41
394.29	1156.22
394.49	1181.97
394.68	1172.61
394.88	1167.93
395.07	1224.10
395.26	1224.10
395.46	1196.01
395.65	1224.10
395.84	1144.52
396.04	1261.55
396.23	1242.82
396.42	1146.86
396.62	1181.97
396.81	1160.91
397.00	1224.10
397.19	1291.98
397.39	1266.23
397.58	1376.24
397.77	1343.47
397.97	1394.96
398.16	1465.18
398.35	1397.30
398.55	1455.81
398.74	1441.77
398.93	1561.14
399.12	1544.75
399.32	1486.24
399.51	1493.26
399.70	1497.94
399.90	1589.22
400.09	1565.82
400.28	1582.20
400.47	1619.65
400.67	1619.65
400.86	1598.59
401.05	1542.41
401.24	1659.44
401.44	1795.19
401.63	1682.85
401.82	1694.55
402.01	1811.57
402.21	1732.00
402.40	1790.51
402.59	1767.10
402.78	1785.83
402.97	1717.95
403.17	1778.81
403.36	1771.79
403.55	1813.92
403.74	1832.64
403.93	1849.02
404.13	1909.88
404.32	1870.09
404.51	1799.87
404.70	1884.13
404.89	2026.90
405.09	1954.35
405.28	1926.26
405.47	1874.77
405.66	2008.18
405.85	1966.05
406.05	1928.60
406.24	1956.69
406.43	2024.56
406.62	2069.03
406.81	2052.65
407.00	2036.27
407.20	2090.10
407.39	2066.69
407.58	2092.44
407.77	2104.14
407.96	2134.57
408.15	2167.34
408.34	2153.29
408.54	2242.23
408.73	2155.63
408.92	2331.17
409.11	2317.13
409.30	2253.94
409.49	2188.40
409.68	2120.53
409.87	2298.41
410.07	2387.35
410.26	2389.69
410.45	2385.01
410.64	2429.48
410.83	2473.95
411.02	2558.21
411.21	2459.90
411.40	2576.93
411.59	2579.27
411.78	2612.04
411.98	2530.12
412.17	2686.94
412.36	2691.62
412.55	2647.15
412.74	2759.49
412.93	2738.43
413.12	2693.96
413.31	2888.22
413.50	2829.71
413.69	2787.58
413.88	2888.22
414.07	2855.45
414.26	2825.03
414.45	2965.46
414.64	2820.35
414.83	3026.31
415.02	2991.20
415.22	3063.76
415.41	3070.78
415.60	3098.87
415.79	3145.68
415.98	3215.90
416.17	3246.32
416.36	3166.74
416.55	3180.79
416.74	3197.17
416.93	3178.45
417.12	3243.98
417.31	3269.73
417.50	3286.11
417.69	3527.19
417.88	3356.33
418.07	3316.54
418.26	3538.89
418.45	3592.72
418.64	3604.42
418.83	3566.98
419.02	3630.17
419.21	3740.18
419.39	3616.13
419.58	3485.06
419.77	3590.38
419.96	3655.92
420.15	3751.88
420.34	3744.86
420.53	3822.09
420.72	3669.96
420.91	3833.80
421.10	3889.97
421.29	3796.35
421.48	3824.44
421.67	3810.39
421.86	3693.37
422.05	3782.31
422.24	3700.39
422.43	3733.15
422.61	3918.06
422.80	3761.24
422.99	3796.35
423.18	3894.65
423.37	3836.14
423.56	3873.59
423.75	3981.25
423.94	3831.46
424.13	3578.68
424.32	3911.04
424.50	3866.56
424.69	3946.14
424.88	4100.62
425.07	4053.81
425.26	3822.09
425.45	3847.84
425.64	3948.48
425.83	3770.60
426.01	4016.36
426.20	4037.42
426.39	3971.89
426.58	3990.61
426.77	3999.98
426.96	3997.64
427.15	4042.11
427.33	4063.17
427.52	4007.00
427.71	4018.70
427.90	4091.26
428.09	4210.62
428.28	4039.76
428.46	4187.22
428.65	4149.77
428.84	4290.20
429.03	4177.86
429.22	4021.04
429.40	4205.94
429.59	4189.56
429.78	3887.63
429.97	3801.03
430.16	4049.13
430.34	4067.85
430.53	4189.56
430.72	4187.22
430.91	4145.09
431.10	4255.09
431.28	4376.80
431.47	4587.45
431.66	4695.11
431.85	4489.15
432.03	4521.92
432.22	4725.54
432.41	4568.73
432.60	4641.28
432.79	4657.67
432.97	4737.24
433.16	4730.22
433.35	4615.54
433.54	4617.88
433.72	4571.07
433.91	4664.69
434.10	4568.73
434.28	4711.50
434.47	4748.95
434.66	4926.83
434.85	4823.84
435.03	5032.15
435.22	4889.38
435.41	4947.89
435.59	4870.65
435.78	5046.20
435.97	4978.32
436.16	5132.79
436.34	5287.27
436.53	5174.92
436.72	5151.52
436.90	4990.02
437.09	5008.75
437.28	5093.01
437.46	5228.76
437.65	5121.09
437.84	5078.96
438.02	5259.18
438.21	5153.86
438.40	5156.20
438.58	5490.90
438.77	5352.81
438.96	5327.06
439.14	5420.68
439.33	5556.43
439.52	5731.97
439.70	5675.80
439.89	5657.07
440.08	5570.48
440.26	5675.80
440.45	5738.99
440.63	5664.10
440.82	5954.32
441.01	5762.40
441.19	6092.41
441.38	6073.69
441.57	6108.80
441.75	6155.61
441.94	6279.66
442.12	6321.79
442.31	6445.84
442.50	6200.08
442.68	6298.38
442.87	6164.97
443.05	6326.47
443.24	6387.32
443.43	6314.77
443.61	6375.62
443.80	6457.54
443.98	6221.14
444.17	6282.00
444.35	6588.61
444.54	6569.88
444.73	6504.35
444.91	6403.71
445.10	6462.22
445.28	6417.75
445.47	6277.32
445.65	6359.24
445.84	6317.11
446.02	6368.60
446.21	6462.22
446.39	6443.49
446.58	6396.68
446.77	6586.27
446.95	6445.84
447.14	6796.92
447.32	6644.78
447.51	6572.22
447.69	6443.49
447.88	6679.89
448.06	6736.06
448.25	6740.74
448.43	6780.53
448.62	6782.87
448.80	6712.66
448.99	6696.27
449.17	6902.24
449.36	6829.68
449.54	6958.41
449.73	7075.44
449.91	6998.20
450.10	7145.66
450.28	7225.23
450.46	7293.11
450.65	7222.89
450.83	7225.23
451.02	6979.48
451.20	7103.53
451.39	7073.10
451.57	7143.32
451.76	7117.57
451.94	7166.72
452.13	7192.47
452.31	7279.07
452.49	6876.49
452.68	7255.66
452.86	7150.34
453.05	7356.30
453.23	7440.56
453.42	7276.73
453.60	7440.56
453.78	7370.35
453.97	7316.51
454.15	7379.71
454.34	7232.26
454.52	7393.75
454.70	7393.75
454.89	7393.75
455.07	7494.40
455.26	7566.95
455.44	7698.02
455.62	7768.24
455.81	7667.60
455.99	7719.09
456.17	7784.62
456.36	7744.83
456.54	7815.05
456.73	7847.82
456.91	8234.00
457.09	8046.76
457.28	8180.17
457.46	7934.42
457.64	8126.34
457.83	8072.51
458.01	8016.33
458.19	8168.47
458.38	8093.57
458.56	8215.28
458.74	8086.55
458.93	8379.12
459.11	8252.73
459.29	8170.81
459.48	8231.66
459.66	8301.88
459.84	8294.86
460.03	8592.11
460.21	8421.25
460.39	8409.54
460.57	8594.45
460.76	8432.95
460.94	8627.21
461.12	8533.59
461.31	8659.98
461.49	8695.09
461.67	8594.45
461.85	8865.95
462.04	8627.21
462.22	9301.29
462.40	8812.12
462.59	9022.77
462.77	9130.43
462.95	8837.86
463.13	8828.50
463.32	8840.20
463.50	8868.29
463.68	8765.31
463.86	8926.80
464.05	8809.78
464.23	8854.25
464.41	8997.02
464.59	8957.23
464.78	9060.21
464.96	9071.92
465.14	9001.70
465.32	9312.99
465.50	9350.44
465.69	9195.96
465.87	9558.75
466.05	9004.04
466.23	9109.36
466.41	8952.55
466.60	9188.94
466.78	9179.58
466.96	9355.12
467.14	9392.57
467.32	9261.50
467.51	9572.79
467.69	9114.05
467.87	9287.25
468.05	9528.32
468.23	9565.77
468.41	9369.16
468.60	9497.89
468.78	9561.09
468.96	9448.74
469.14	9717.90
469.32	9654.71
469.50	9331.72
469.69	9731.95
469.87	9771.74
470.05	9834.93
470.23	9802.16
470.41	9692.16
470.59	9825.57
470.77	9923.87
470.95	9788.12
471.14	9982.38
471.32	10050.26
471.50	10195.37
471.68	10174.31
471.86	10167.29
472.04	10417.72
472.22	10569.86
472.40	10115.80
472.58	10026.86
472.77	10368.57
472.95	10424.75
473.13	10672.84
473.31	10338.15
473.49	10352.19
473.67	10604.97
473.85	10621.35
474.03	10839.02
474.21	10768.80
474.39	10974.77
474.57	11014.56
474.75	11054.35
474.93	11030.94
475.12	11028.60
475.30	11035.63
475.48	11143.29
475.66	11173.72
475.84	11143.29
476.02	11316.49
476.20	11328.19
476.38	11536.50
476.56	11744.81
476.74	11698.00
476.92	11812.68
477.10	11955.46
477.28	12198.87
477.46	11950.78
477.64	12123.98
477.82	12266.75
478.00	12627.19
478.18	12320.58
478.36	12538.25
478.54	12669.32
478.72	12564.00
478.90	12631.87
479.08	13090.62
479.26	13181.90
479.44	13249.77
479.62	12966.57
479.80	13305.95
479.98	13415.95
480.16	13600.85
480.34	13378.50
480.52	13682.77
480.70	13582.13
480.88	13635.96
481.06	13898.10
481.24	13914.48
481.41	13867.67
481.59	14314.72
481.77	14174.28
481.95	14207.05
482.13	14448.13
482.31	14455.15
482.49	14516.00
482.67	14611.96
482.85	14885.81
483.03	14995.81
483.21	15169.01
483.39	15295.40
483.57	15318.81
483.74	15262.63
483.92	15351.57
484.10	15220.50
484.28	15672.23
484.46	16004.58
484.64	16067.78
484.82	15896.92
485.00	16107.57
485.18	16114.59
485.35	16180.12
485.53	15974.16
485.71	16121.61
485.89	16376.73
486.07	16130.97
486.25	16624.83
486.43	16837.81
486.61	16826.11
486.78	16954.84
486.96	17575.08
487.14	17694.45
487.32	17673.39
487.50	17703.81
487.68	18111.07
487.85	18291.29
488.03	18200.01
488.21	18576.83
488.39	18288.95
488.57	18628.32
488.75	18719.60
488.92	18883.44
489.10	19236.86
489.28	19463.90
489.46	19655.82
489.64	19398.36
489.81	20126.27
489.99	20088.82
490.17	20159.03
490.35	20322.87
490.53	20278.40
490.70	20437.56
490.88	20460.96
491.06	20524.16
491.24	20603.74
491.41	20652.89
491.59	20491.39
491.77	20545.22
491.95	20943.11
492.13	20980.56
492.30	21600.80
492.48	21364.41
492.66	21654.64
492.84	21809.11
493.01	22113.38
493.19	22113.38
493.37	22080.61
493.54	22097.00
493.72	22249.13
493.90	22520.63
494.08	22733.62
494.25	22904.48
494.43	22909.16
494.61	23388.97
494.79	23407.70
494.96	23131.51
495.14	23339.82
495.32	23765.80
495.49	23630.05
495.67	23695.58
495.85	23779.84
496.02	23934.32
496.20	23990.49
496.38	24269.01
496.55	24638.82
496.73	24765.21
496.91	24589.67
497.09	24697.33
497.26	24971.18
497.44	24851.81
497.62	25003.94
497.79	25088.20
497.97	24989.90
498.14	25055.43
498.32	25240.34
498.50	25294.17
498.67	25869.94
498.85	25996.33
499.03	25671.00
499.20	25848.88
499.38	25977.61
499.56	26221.02
499.73	26391.88
499.91	26188.25
500.08	26609.55
500.26	26047.82
500.44	26127.40
500.61	26455.08
500.79	26349.75
500.97	26813.18
501.14	26930.20
501.32	26593.17
501.49	26899.78
501.67	26904.46
501.84	27140.85
502.02	27030.85
502.20	27611.30
502.37	27475.55
502.55	27845.35
502.72	27515.34
502.90	27831.31
503.07	27412.35
503.25	27824.29
503.43	27510.66
503.60	27812.59
503.78	27852.38
503.95	28011.53
504.13	28224.52
504.30	28505.38
504.48	28950.09
504.65	28601.35
504.83	28577.94
505.01	29064.77
505.18	29062.43
505.36	29205.20
505.53	29268.40
505.71	29551.60
505.88	29247.33
506.06	29181.80
506.23	29661.61
506.41	29556.28
506.58	29677.99
506.76	29933.11
506.93	29869.92
507.11	29954.18
507.28	29830.13
507.46	29813.74
507.63	29703.74
507.81	30384.83
507.98	30307.60
508.16	30539.31
508.33	30335.68
508.50	30651.66
508.68	30787.41
508.85	30932.52
509.03	30845.92
509.20	30972.31
509.38	31295.30
509.55	30923.16
509.73	31316.37
509.90	31232.11
510.08	31477.86
510.25	31213.38
510.42	31683.83
510.60	31704.90
510.77	31510.63
510.95	31833.63
511.12	31622.98
511.30	32198.75
511.47	31978.74
511.64	31941.29
511.82	32470.25
511.99	31751.71
512.17	32271.31
512.34	31840.65
512.51	32416.42
512.69	32147.26
512.86	32477.27
513.04	32549.83
513.21	32400.04
513.38	32575.58
513.56	32395.35
513.73	32510.04
513.90	32950.06
514.08	32699.62
514.25	33008.58
514.43	32959.42
514.60	32877.51
514.77	33223.90
514.95	33324.55
515.12	33366.68
515.29	33383.06
515.47	33790.31
515.64	33993.94
515.81	33549.24
515.99	33881.60
516.16	33577.33
516.33	33525.83
516.51	33284.76
516.68	33055.39
516.85	33081.13
517.03	33008.58
517.20	33729.46
517.37	34146.08
517.54	34199.91
517.72	33816.06
517.89	33507.11
518.06	33673.29
518.24	33839.47
518.41	34075.86
518.58	34288.85
518.75	33928.41
518.93	34581.42
519.10	34398.85
519.27	34728.87
519.45	34885.68
519.62	35028.46
519.79	34965.26
519.96	35086.97
520.14	35431.03
520.31	35028.46
520.48	34991.01
520.65	35007.39
520.83	35566.78
521.00	35716.58
521.17	35274.21
521.34	35967.01
521.52	35985.74
521.69	35618.27
521.86	35995.10
522.03	35742.32
522.20	35901.48
522.38	36182.34
522.55	36268.94
522.72	35847.64
522.89	36027.87
523.07	36116.81
523.24	36748.75
523.41	36524.06
523.58	36435.12
523.75	37209.84
523.92	37156.00
524.10	36978.12
524.27	36767.48
524.44	37294.10
524.61	36950.04
524.78	37195.79
524.96	36973.44
525.13	37474.32
525.30	37282.39
525.47	37408.78
525.64	37385.38
525.81	37322.18
525.98	37078.77
526.16	37567.94
526.33	37064.72
526.50	37570.28
526.67	36802.58
526.84	37055.36
527.01	36896.20
527.18	37495.38
527.36	38127.33
527.53	37792.63
527.70	38607.14
527.87	38017.32
528.04	37708.37
528.21	38316.91
528.38	38218.61
528.55	38520.54
528.72	38527.56
528.89	38590.75
529.07	38539.26
529.24	38483.09
529.41	38553.30
529.58	38204.56
529.75	38902.04
529.92	38855.23
530.09	39112.69
530.26	38487.77
530.43	39105.67
530.60	38866.94
530.77	38738.21
530.94	39026.09
531.11	38597.77
531.28	39126.74
531.46	39625.27
531.63	39646.33
531.80	39316.32
531.97	38670.33
532.14	39180.57
532.31	39234.40
532.48	39498.88
532.65	39482.50
532.82	39318.66
532.99	39667.40
533.16	39269.51
533.33	39470.79
533.50	39894.43
533.67	39522.29
533.84	39646.33
534.01	39995.07
534.18	39515.26
534.35	40203.38
534.52	39819.53
534.69	40006.78
534.86	40252.53
535.03	40114.44
535.20	40744.05
535.37	40659.79
535.54	40802.56
535.71	40198.70
535.88	40589.57
536.05	40451.48
536.22	40587.23
536.38	40430.41
536.55	39814.85
536.72	40437.44
536.89	40465.52
537.06	40437.44
537.23	40687.87
537.40	40566.16
537.57	40746.39
537.74	40690.21
537.91	41186.41
538.08	41280.03
538.25	40882.14
538.42	40765.11
538.59	41031.93
538.75	40718.30
538.92	41153.64
539.09	41539.83
539.26	41258.96
539.43	41003.85
539.60	41125.55
539.77	40638.72
539.94	40996.82
540.11	41195.77
540.28	41273.01
540.44	41371.31
540.61	41240.24
540.78	41296.41
540.95	40896.18
541.12	41036.61
541.29	41769.20
541.46	41471.95
541.62	41801.97
541.79	41897.93
541.96	41603.02
542.13	41556.21
542.30	41642.81
542.47	41776.22
542.63	41467.27
542.80	41993.89
542.97	42146.03
543.14	42124.96
543.31	42216.24
543.48	42363.70
543.64	42604.77
543.81	42656.26
543.98	42447.96
544.15	42190.50
544.32	42279.44
544.48	42897.34
544.65	42618.81
544.82	42384.76
544.99	42010.28
545.16	42185.82
545.32	42302.84
545.49	43208.63
545.66	43201.61
545.83	43145.44
546.00	43014.37
546.16	42887.98
546.33	42703.07
546.50	42801.38
546.67	42770.95
546.83	42885.64
547.00	42719.46
547.17	43157.14
547.34	42927.77
547.50	43210.97
547.67	43323.32
547.84	42787.33
548.00	43562.05
548.17	43505.88
548.34	43430.98
548.51	43798.44
548.67	43536.30
548.84	43746.95
549.01	43049.47
549.18	43365.45
549.34	43337.36
549.51	43599.50
549.68	43377.15
549.84	43112.67
550.01	43856.96
550.18	42960.53
550.34	43328.00
550.51	43466.09
550.68	43770.36
550.84	43241.40
551.01	43716.53
551.18	43622.90
551.34	43447.36
551.51	44072.29
551.68	43636.95
551.84	43730.57
552.01	43814.83
552.18	43522.26
552.34	43459.07
552.51	43821.85
552.68	44051.22
552.84	44091.01
553.01	44423.37
553.18	43964.62
553.34	44247.83
553.51	44069.95
553.67	44765.09
553.84	44371.88
554.01	44435.07
554.17	44296.98
554.34	44388.26
554.51	44161.23
554.67	44474.86
554.84	44081.65
555.00	44296.98
555.17	44582.52
555.33	44638.70
555.50	44442.09
555.67	44170.59
555.83	44638.70
556.00	44589.55
556.16	44786.15
556.33	44608.27
556.50	44437.41
556.66	44924.24
556.83	44226.76
556.99	44425.71
557.16	44978.07
557.32	44800.19
557.49	44711.25
557.65	44577.84
557.82	44566.14
557.98	44311.02
558.15	45027.23
558.32	44959.35
558.48	44690.19
558.65	44933.60
558.81	45155.96
558.98	44020.80
559.14	44968.71
559.31	44261.87
559.47	44744.02
559.64	45230.85
559.80	45081.06
559.97	44772.11
560.13	45041.27
560.30	44898.50
560.46	45141.91
560.63	45282.34
560.79	45329.16
560.96	45310.43
561.12	45235.53
561.29	44708.91
561.45	44678.49
561.61	45411.07
561.78	44814.24
561.94	44711.25
562.11	44776.79
562.27	44844.66
562.44	45457.88
562.60	45324.47
562.77	45221.49
562.93	45462.57
563.10	45518.74
563.26	44762.75
563.42	44992.12
563.59	45172.34
563.75	45411.07
563.92	45577.25
564.08	45284.68
564.24	45151.27
564.41	45560.87
564.57	45104.46
564.74	45158.30
564.90	45544.48
565.07	45254.26
565.23	45265.96
565.39	45432.14
565.56	45294.05
565.72	45099.78
565.88	45200.43
566.05	44968.71
566.21	45656.83
566.38	45160.64
566.54	45448.52
566.70	45525.76
566.87	45965.78
567.03	45530.44
567.19	46234.94
567.36	45368.94
567.52	45429.80
567.68	45432.14
567.85	45202.77
568.01	45193.40
568.17	45474.27
568.34	45507.04
568.50	45865.14
568.66	45254.26
568.83	45823.01
568.99	45083.40
569.15	45659.17
569.32	45448.52
569.48	45401.71
569.64	45830.03
569.81	45476.61
569.97	45469.59
570.13	45647.47
570.30	45394.69
570.46	45312.77
570.62	45436.82
570.78	45265.96
570.95	45013.18
571.11	45399.37
571.27	45408.73
571.43	45523.42
571.60	45846.41
571.76	45825.35
571.92	45677.90
572.09	45481.29
572.25	45612.36
572.41	45724.71
572.57	45998.55
572.74	46199.83
572.90	45710.66
573.06	45649.81
573.22	45696.62
573.38	45780.88
573.55	45177.02
573.71	45799.60
573.87	45687.26
574.03	45551.51
574.20	45757.47
574.36	45654.49
574.52	45530.44
574.68	45546.82
574.84	45792.58
575.01	45577.25
575.17	45621.72
575.33	45429.80
575.49	45556.19
575.65	46089.83
575.82	45755.13
575.98	45579.59
576.14	45895.56
576.30	45750.45
576.46	45563.21
576.62	45635.77
576.79	45612.36
576.95	45090.42
577.11	45263.62
577.27	45570.23
577.43	45373.63
577.59	45425.12
577.75	45808.96
577.92	45743.43
578.08	45237.87
578.24	45687.26
578.40	45668.53
578.56	45925.99
578.72	45893.22
578.88	46197.49
579.04	45713.00
579.21	45530.44
579.37	45640.45
579.53	45673.21
579.69	45715.34
579.85	45427.46
580.01	45696.62
580.17	45436.82
580.33	45631.08
580.49	45904.93
580.65	45705.98
580.82	45691.94
580.98	45935.35
581.14	45558.53
581.30	46253.67
581.46	45979.82
581.62	45720.02
581.78	45668.53
581.94	46178.77
582.10	46073.45
582.26	45605.34
582.42	45701.30
582.58	45638.11
582.74	45762.15
582.90	46089.83
583.06	45909.61
583.22	45755.13
583.38	45886.20
583.54	46333.24
583.70	46017.27
583.86	45989.19
584.02	45713.00
584.18	45745.77
584.34	45528.10
584.50	45886.20
584.66	45914.29
584.82	45518.74
584.98	45984.51
585.14	45687.26
585.30	45549.17
585.46	45457.88
585.62	45434.48
585.78	45998.55
585.94	46005.57
586.10	45591.30
586.26	45610.02
586.42	45841.73
586.58	45911.95
586.74	45961.10
586.90	45750.45
587.06	45673.21
587.22	46012.59
587.38	45673.21
587.54	45888.54
587.70	46012.59
587.86	46000.89
588.02	45989.19
588.18	45684.92
588.34	45406.39
588.49	45713.00
588.65	45219.15
588.81	45640.45
588.97	45001.48
589.13	45319.79
589.29	45401.71
589.45	45537.46
589.61	45591.30
589.77	46146.00
589.93	45603.00
590.08	45675.55
590.24	45806.62
590.40	46263.03
590.56	46204.52
590.72	45996.21
590.88	45846.41
591.04	46113.23
591.20	46148.34
591.35	45933.01
591.51	46141.32
591.67	45659.17
591.83	46082.81
591.99	45390.01
592.15	45537.46
592.31	46295.80
592.46	45893.22
592.62	45745.77
592.78	45951.74
592.94	46099.19
593.10	45780.88
593.26	46068.76
593.41	46174.09
593.57	45813.65
593.73	45694.28
593.89	46026.63
594.05	45996.21
594.20	45635.77
594.36	45961.10
594.52	45785.56
594.68	46080.47
594.84	46050.04
594.99	46216.22
595.15	45853.44
595.31	46174.09
595.47	45972.80
595.62	46216.22
595.78	46244.30
595.94	46319.20
596.10	45935.35
596.25	45792.58
596.41	45933.01
596.57	45659.17
596.73	46316.86
596.88	45834.71
597.04	46131.96
597.20	45963.44
597.36	46040.68
597.51	46138.98
597.67	46036.00
597.83	45785.56
597.99	46064.08
598.14	46183.45
598.30	46246.65
598.46	46094.51
598.61	46419.84
598.77	45654.49
598.93	46075.79
599.09	46153.02
599.24	46483.04
599.40	46146.00
599.56	46024.29
599.71	46162.39
599.87	46169.41
600.03	46050.04
600.18	45830.03
600.34	46122.60
600.50	46033.66
600.65	45883.86
600.81	46064.08
600.97	46377.72
601.12	46366.01
601.28	45977.48
601.44	46092.17
601.59	45830.03
601.75	45865.14
601.91	45778.54
602.06	45722.37
602.22	46089.83
602.37	45914.29
602.53	45832.37
602.69	46291.12
602.84	45797.26
603.00	45804.28
603.16	45717.68
603.31	46021.95
603.47	46143.66
603.62	45500.01
603.78	46101.53
603.94	46110.89
604.09	46155.36
604.25	46028.98
604.40	45792.58
604.56	45797.26
604.71	46183.45
604.87	45792.58
605.03	45888.54
605.18	45713.00
605.34	45853.44
605.49	45956.42
605.65	46003.23
605.80	45909.61
605.96	46160.05
606.12	45539.80
606.27	45750.45
606.43	45296.39
606.58	45698.96
606.74	45729.39
606.89	45443.84
607.05	45631.08
607.20	46176.43
607.36	46160.05
607.51	45937.69
607.67	45481.29
607.82	45808.96
607.98	45715.34
608.13	45378.31
608.29	45359.58
608.44	45483.63
608.60	45191.06
608.75	45350.22
608.91	45713.00
609.06	45289.37
609.22	45862.80
609.37	45191.06
609.53	45691.94
609.68	45537.46
609.84	45392.35
609.99	45312.77
610.15	45015.52
610.30	45104.46
610.46	45418.10
610.61	45460.23
610.76	45399.37
610.92	45453.20
611.07	45298.73
611.23	45345.54
611.38	45254.26
611.54	45478.95
611.69	45209.79
611.84	45441.50
612.00	45228.51
612.15	45092.76
612.31	45137.23
612.46	45420.44
612.62	45380.65
612.77	44657.42
612.92	45301.07
613.08	45144.25
613.23	44865.73
613.39	44765.09
613.54	44926.58
613.69	44814.24
613.85	44626.99
614.00	44727.64
614.15	44961.69
614.31	45008.50
614.46	45010.84
614.62	44884.45
614.77	44622.31
614.92	44657.42
615.08	44783.81
615.23	44779.13
615.38	44584.86
615.54	44399.96
615.69	44488.90
615.84	44844.66
616.00	44821.26
616.15	44795.51
616.30	44711.25
616.46	44364.85
616.61	43906.11
616.76	44236.12
616.92	43831.21
617.07	44109.74
617.22	44133.14
617.37	44339.11
617.53	44851.69
617.68	45151.27
617.83	44371.88
617.99	44362.51
618.14	43875.68
618.29	44247.83
618.45	43789.08
618.60	44399.96
618.75	44154.21
618.90	43789.08
619.06	43601.84
619.21	43931.86
619.36	44051.22
619.51	43922.49
619.67	43622.90
619.82	43826.53
619.97	44198.68
620.12	43922.49
620.28	43250.76
620.43	43660.35
620.58	43711.84
620.73	43718.87
620.89	43915.47
621.04	44182.29
621.19	44151.87
621.34	43761.00
621.49	43625.25
621.65	43669.72
621.80	43814.83
621.95	43828.87
622.10	43812.49
622.25	43533.96
622.41	43517.58
622.56	43239.06
622.71	43543.33
622.86	43459.07
623.01	43447.36
623.16	43398.21
623.32	43728.23
623.47	43166.50
623.62	43349.06
623.77	42892.66
623.92	43615.88
624.07	42918.40
624.23	43215.65
624.38	43061.18
624.53	43264.80
624.68	43363.11
624.83	43208.63
624.98	43021.39
625.13	42845.85
625.29	42747.54
625.44	42890.32
625.59	43086.92
625.74	42543.92
625.89	42941.81
626.04	42864.57
626.19	42454.98
626.34	42841.17
626.49	42834.14
626.65	42770.95
626.80	42522.85
626.95	42450.30
627.10	42380.08
627.25	43056.50
627.40	42370.72
627.55	42295.82
627.70	42253.69
627.85	42609.45
628.00	42377.74
628.15	42632.86
628.30	42534.56
628.45	42696.05
628.60	42272.42
628.76	42387.10
628.91	42520.51
629.06	42415.19
629.21	42082.83
629.36	42424.55
629.51	42288.80
629.66	42157.73
629.81	42265.39
629.96	42141.35
630.11	41785.58
630.26	42286.46
630.41	42190.50
630.56	41443.87
630.71	42108.58
630.86	42267.73
631.01	41691.96
631.16	41483.66
631.31	41701.32
631.46	41504.72
631.61	41675.58
631.76	42059.43
631.91	41869.84
632.06	41514.08
632.21	42066.45
632.36	42122.62
632.51	41291.73
632.66	41736.43
632.81	41270.67
632.96	41923.68
633.10	41577.28
633.25	41137.26
633.40	41645.15
633.55	41579.62
633.70	41532.81
633.85	41418.12
634.00	41366.63
634.15	41296.41
634.30	41324.50
634.45	41483.66
634.60	41116.19
634.75	40999.16
634.90	41305.77
635.05	41509.40
635.19	41188.75
635.34	41427.48
635.49	41064.70
635.64	40938.31
635.79	41010.87
635.94	40671.49
636.09	40697.24
636.24	40327.43
636.39	40947.67
636.53	40673.83
636.68	40952.35
636.83	40868.09
636.98	40765.11
637.13	41277.69
637.28	41647.49
637.43	41230.88
637.57	40973.42
637.72	40737.02
637.87	41017.89
638.02	40877.46
638.17	40755.75
638.32	40886.82
638.46	40198.70
638.61	40612.98
638.76	40294.66
638.91	40219.77
639.06	40591.91
639.20	40524.04
639.35	40612.98
639.50	40329.77
639.65	40680.85
639.80	40201.04
639.94	40395.31
640.09	40245.51
640.24	40399.99
640.39	39782.09
640.54	40088.70
640.68	40149.55
640.83	40355.52
640.98	40086.36
641.13	40044.23
641.27	40334.45
641.42	40355.52
641.57	40044.23
641.72	39709.53
641.86	40020.82
642.01	39498.88
642.16	39665.06
642.31	39763.36
642.45	39807.83
642.60	39913.16
642.75	39510.58
642.90	39732.93
643.04	39765.70
643.19	39578.46
643.34	39578.46
643.48	39620.59
643.63	39550.37
643.78	39739.96
643.93	39306.96
644.07	39248.44
644.22	39356.11
644.37	39063.54
644.51	39225.04
644.66	39798.47
644.81	39299.94
644.95	39335.04
645.10	39480.16
645.25	39489.52
645.39	39412.28
645.54	39271.85
645.69	39150.14
645.83	39323.34
645.98	39028.43
646.13	38761.61
646.27	39103.33
646.42	39215.68
646.57	39346.75
646.71	39313.98
646.86	38913.75
647.00	38808.42
647.15	38822.47
647.30	38862.26
647.44	38412.87
647.59	38937.15
647.74	38572.03
647.88	38923.11
648.03	38934.81
648.17	38981.62
648.32	39033.11
648.47	38604.80
648.61	38616.50
648.76	38810.76
648.90	38735.87
649.05	38473.73
649.20	39091.63
649.34	38817.78
649.49	38595.43
649.63	38789.70
649.78	38646.93
649.92	38607.14
650.07	38660.97
650.21	38258.40
650.36	38408.19
650.51	38473.73
650.65	39133.76
650.80	39019.07
650.94	38703.10
651.09	38359.04
651.23	38225.63
651.38	38029.02
651.52	38122.65
651.67	38185.84
651.81	38349.68
651.96	37998.60
652.10	38071.15
652.25	38352.02
652.39	38246.69
652.54	38356.70
652.68	38246.69
652.83	38263.08
652.97	38288.82
653.12	38548.62
653.26	37783.27
653.41	37879.23
653.55	37865.19
653.70	38043.07
653.84	37418.14
653.99	37591.34
654.13	37804.33
654.27	37713.05
654.42	37937.74
654.56	37944.76
654.71	37823.06
654.85	37883.91
655.00	37858.17
655.14	37614.75
655.29	37317.50
655.43	37104.51
655.57	37127.92
655.72	36989.83
655.86	37469.64
656.01	36816.63
656.15	36598.96
656.30	36999.19
656.44	37120.90
656.58	37125.58
656.73	37013.23
656.87	37251.97
657.01	36961.74
657.16	37312.82
657.30	36257.24
657.45	36912.59
657.59	36854.08
657.73	36271.28
657.88	37118.56
658.02	36877.48
658.16	37099.83
658.31	37195.79
658.45	36741.73
658.60	36957.06
658.74	36959.40
658.88	36435.12
659.03	36671.51
659.17	36559.17
659.31	36360.22
659.46	36348.52
659.60	36341.50
659.74	36397.67
659.89	35887.43
660.03	36620.02
660.17	36900.89
660.32	36465.55
660.46	36589.59
660.60	36533.42
660.74	36154.26
660.89	36142.55
661.03	35931.90
661.17	36158.94
661.32	36240.86
661.46	35866.37
661.60	35805.52
661.74	36025.53
661.89	35538.69
662.03	35578.48
662.17	36077.02
662.31	35861.69
662.46	36203.41
662.60	35791.47
662.74	35910.84
662.88	35770.41
663.03	34845.90
663.17	35613.59
663.31	35447.41
663.45	35552.74
663.60	35442.73
663.74	35154.85
663.88	35077.61
664.02	35161.87
664.17	35023.78
664.31	34761.64
664.45	34714.83
664.59	34808.45
664.73	35005.05
664.88	34747.59
665.02	34345.02
665.16	34316.93
665.30	34157.78
665.44	34398.85
665.59	34199.91
665.73	34761.64
665.87	34022.03
666.01	33921.38
666.15	34487.79
666.29	34033.73
666.44	34326.30
666.58	34188.21
666.72	34148.42
666.86	34480.77
667.00	34127.35
667.14	33703.71
667.28	33958.83
667.43	33619.46
667.57	33921.38
667.71	34106.29
667.85	33769.25
667.99	33998.62
668.13	33919.04
668.27	33764.57
668.41	33605.41
668.56	33626.48
668.70	33233.27
668.84	33151.35
668.98	33273.06
669.12	33413.49
669.26	33324.55
669.40	32994.53
669.54	33050.70
669.68	32952.40
669.82	32676.22
669.96	32720.69
670.10	32879.85
670.25	32893.89
670.39	32538.13
670.53	32711.33
670.67	32383.65
670.81	32407.06
670.95	32362.59
671.09	32488.98
671.23	32390.67
671.37	32175.34
671.51	32388.33
671.65	31810.22
671.79	31789.16
671.93	32046.62
672.07	32095.77
672.21	32095.77
672.35	31426.37
672.49	31875.76
672.63	31793.84
672.77	31529.36
672.91	31550.42
673.05	32067.68
673.19	31852.35
673.33	31693.19
673.47	31168.91
673.61	30960.61
673.75	31426.37
673.89	31262.54
674.03	30944.22
674.17	31255.51
674.31	30745.28
674.45	31599.57
674.59	31049.55
674.73	31171.25
674.87	31189.98
675.01	30335.68
675.15	30693.79
675.29	30602.50
675.43	30553.35
675.56	30586.12
675.70	30356.75
675.84	30553.35
675.98	29401.81
676.12	30129.72
676.26	30298.23
676.40	30438.67
676.54	30169.51
676.68	29919.07
676.82	29338.62
676.96	29741.19
677.10	29883.96
677.23	29390.11
677.37	29549.26
677.51	29336.27
677.65	29092.86
677.79	28931.36
677.93	28929.02
678.07	28781.57
678.21	28400.06
678.34	28446.87
678.48	28201.11
678.62	28093.45
678.76	28290.06
678.90	28053.66
679.04	27950.68
679.18	28304.10
679.31	27995.15
679.45	27908.55
679.59	27421.72
679.73	27861.74
679.87	27707.26
680.00	27517.68
680.14	27346.82
680.28	27564.49
680.42	27304.69
680.56	27573.85
680.70	27253.20
680.83	27126.81
680.97	27122.13
681.11	27091.70
681.25	27379.59
681.39	26838.92
681.52	26878.71
681.66	26515.93
681.80	26256.13
681.94	26682.11
682.07	26555.72
682.21	26263.15
682.35	26321.66
682.49	26492.52
682.62	25837.17
682.76	26253.79
682.90	25378.43
683.04	25832.49
683.17	25778.66
683.31	25614.82
683.45	25348.00
683.59	25731.85
683.72	25184.16
683.86	25525.88
684.00	25090.54
684.13	25242.68
684.27	24769.89
684.41	25174.80
684.55	24554.56
684.68	24900.96
684.82	24847.13
684.96	24718.40
685.09	24613.07
685.23	24348.59
685.37	24226.89
685.50	24507.75
685.64	24467.96
685.78	24437.53
685.91	23861.76
686.05	24081.77
686.19	23716.65
686.32	23660.48
686.46	23456.85
686.60	23173.64
686.73	23377.27
686.87	22831.93
687.01	23075.34
687.14	22988.74
687.28	22761.71
687.42	22806.18
687.55	22485.53
687.69	22902.14
687.82	22522.98
687.96	22874.06
688.10	22771.07
688.23	22717.24
688.37	22391.91
688.50	22431.69
688.64	22211.68
688.78	22462.12
688.91	21734.21
689.05	21626.55
689.18	21820.81
689.32	21553.99
689.46	21949.54
689.59	22190.62
689.73	22167.21
689.86	21680.38
690.00	21352.71
690.13	21341.00
690.27	21144.40
690.41	21195.89
690.54	21132.70
690.68	21254.40
690.81	21600.80
690.95	20947.79
691.08	21013.33
691.22	20978.22
691.35	20580.33
691.49	20594.37
691.62	20552.24
691.76	20713.74
691.89	20489.05
692.03	20460.96
692.16	20360.32
692.30	20222.23
692.43	20159.03
692.57	19833.70
692.70	19726.04
692.84	19618.37
692.97	19597.31
693.11	19583.26
693.24	19419.42
693.38	19590.28
693.51	19592.62
693.65	19440.49
693.78	19459.21
693.92	19295.38
694.05	19178.35
694.19	19281.33
694.32	19094.09
694.45	19176.01
694.59	19131.54
694.72	18916.21
694.86	18941.96
694.99	18785.14
695.13	18614.28
695.26	18476.19
695.39	18314.69
695.53	18625.98
695.66	18328.74
695.80	18286.61
695.93	18045.53
696.07	18160.22
696.20	17879.35
696.33	17930.84
696.47	17652.32
696.60	17748.28
696.73	17788.07
696.87	17619.55
697.00	17495.50
697.14	17401.88
697.27	17397.20
697.40	17411.25
697.54	17104.64
697.67	16989.95
697.80	17130.38
697.94	17067.19
698.07	17088.25
698.21	17268.47
698.34	17135.06
698.47	16931.44
698.61	16781.64
698.74	16751.21
698.87	16570.99
699.01	16578.01
699.14	16166.08
699.27	16072.46
699.40	16503.12
699.54	16105.23
699.67	15831.38
699.80	15747.12
699.94	16051.39
700.07	15742.44
700.20	16156.72
700.34	15702.65
700.47	15817.34
700.60	15761.17
700.73	15861.81
700.87	15651.16
701.00	15587.97
701.13	15517.75
701.26	15325.83
701.40	15372.64
701.53	14991.13
701.66	15190.08
701.79	15089.43
701.93	14965.39
702.06	14731.33
702.19	14663.46
702.32	14745.38
702.46	15012.20
702.59	14745.38
702.72	14525.36
702.85	14991.13
702.99	14633.03
703.12	14270.25
703.25	14352.16
703.38	14349.82
703.51	14466.85
703.65	14235.14
703.78	13860.65
703.91	14003.43
704.04	13958.96
704.17	13689.79
704.31	13970.66
704.44	13518.93
704.57	13535.32
704.70	13547.02
704.83	13483.83
704.96	13582.13
705.10	13678.09
705.23	13242.75
>>>>>End Processed Spectral Data<<<<<
