SpectraSuite Data File
++++++++++++++++++++++++++++++++++++
Date: Fri Oct 25 10:43:47 EDT 2013
User: price-jones
Dark Spectrum Present: No
Reference Spectrum Present: No
Number of Sampled Component Spectra: 1
Spectrometers: USB2+H05261
Integration Time (usec): 100000 (USB2+H05261)
Spectra Averaged: 1 (USB2+H05261)
Boxcar Smoothing: 0 (USB2+H05261)
Correct for Electrical Dark: No (USB2+H05261)
Strobe/Lamp Enabled: No (USB2+H05261)
Correct for Detector Non-linearity: No (USB2+H05261)
Correct for Stray Light: No (USB2+H05261)
Number of Pixels in Processed Spectrum: 2048
>>>>>Begin Processed Spectral Data<<<<<
365.73	140.43
365.92	140.43
366.12	140.43
366.32	0.00
366.52	110.01
366.72	0.00
366.91	25.75
367.11	56.17
367.31	21.06
367.51	0.00
367.70	0.00
367.90	18.72
368.10	0.00
368.30	4.68
368.49	0.00
368.69	63.19
368.89	23.41
369.09	81.92
369.28	65.54
369.48	18.72
369.68	117.03
369.87	42.13
370.07	117.03
370.27	119.37
370.47	201.29
370.66	402.57
370.86	423.64
371.06	477.47
371.25	475.13
371.45	493.85
371.65	458.74
371.84	456.40
372.04	418.96
372.24	519.60
372.44	503.22
372.63	552.37
372.83	526.62
373.03	566.41
373.22	451.72
373.42	552.37
373.62	543.00
373.81	540.66
374.01	517.26
374.21	559.39
374.40	493.85
374.60	500.87
374.79	552.37
374.99	578.11
375.19	599.18
375.38	589.82
375.58	620.24
375.78	575.77
375.97	613.22
376.17	573.43
376.37	585.13
376.56	521.94
376.76	641.31
376.95	624.92
377.15	692.80
377.35	634.29
377.54	676.41
377.74	720.88
377.93	667.05
378.13	648.33
378.33	641.31
378.52	653.01
378.72	645.99
378.91	692.80
379.11	667.05
379.31	578.11
379.50	678.76
379.70	697.48
379.89	793.44
380.09	655.35
380.28	732.59
380.48	699.82
380.68	655.35
380.87	683.44
381.07	662.37
381.26	748.97
381.46	741.95
381.65	690.46
381.85	734.93
382.04	697.48
382.24	690.46
382.43	716.20
382.63	669.39
382.83	704.50
383.02	737.27
383.22	737.27
383.41	716.20
383.61	718.54
383.80	779.40
384.00	716.20
384.19	755.99
384.39	809.83
384.58	816.85
384.78	840.25
384.97	791.10
385.17	770.04
385.36	826.21
385.56	858.98
385.75	753.65
385.95	828.55
386.14	875.36
386.34	748.97
386.53	800.46
386.72	739.61
386.92	795.78
387.11	964.30
387.31	844.93
387.50	908.13
387.70	784.08
387.89	875.36
388.09	849.61
388.28	816.85
388.48	887.06
388.67	875.36
388.86	889.40
389.06	1015.79
389.25	947.92
389.45	903.45
389.64	980.68
389.84	1015.79
390.03	1011.11
390.22	1011.11
390.42	1039.20
390.61	973.66
390.81	1043.88
391.00	1090.69
391.19	1078.99
391.39	1048.56
391.58	1067.28
391.78	1020.47
391.97	1062.60
392.16	1041.54
392.36	1025.15
392.55	966.64
392.75	985.37
392.94	940.90
393.13	957.28
393.33	1029.84
393.52	1102.39
393.71	1011.11
393.91	1184.31
394.10	1060.26
394.29	1196.01
394.49	1081.33
394.68	1273.25
394.88	1118.78
395.07	1123.46
395.26	1329.42
395.46	1188.99
395.65	1219.42
395.84	1203.04
396.04	1256.87
396.23	1224.10
396.42	1088.35
396.62	1181.97
396.81	1177.29
397.00	1196.01
397.19	1359.85
397.39	1273.25
397.58	1399.64
397.77	1362.19
397.97	1427.73
398.16	1383.26
398.35	1561.14
398.55	1523.69
398.74	1479.22
398.93	1586.88
399.12	1411.34
399.32	1446.45
399.51	1409.00
399.70	1558.80
399.90	1523.69
400.09	1556.46
400.28	1598.59
400.47	1589.22
400.67	1657.10
400.86	1530.71
401.05	1650.08
401.24	1640.72
401.44	1657.10
401.63	1629.01
401.82	1720.29
402.01	1699.23
402.21	1739.02
402.40	1736.68
402.59	1694.55
402.78	1769.44
402.97	1767.10
403.17	1846.68
403.36	1727.32
403.55	1804.55
403.74	1834.98
403.93	1769.44
404.13	1916.90
404.32	1893.49
404.51	1746.04
404.70	1886.47
404.89	1851.36
405.09	1912.22
405.28	1914.56
405.47	1870.09
405.66	1975.41
405.85	1942.64
406.05	1919.24
406.24	2010.52
406.43	1991.80
406.62	2073.71
406.81	2071.37
407.00	1989.46
407.20	2024.56
407.39	1970.73
407.58	2111.16
407.77	2136.91
407.96	2218.83
408.15	2132.23
408.34	2197.76
408.54	2136.91
408.73	2303.09
408.92	2307.77
409.11	2335.85
409.30	2207.13
409.49	2179.04
409.68	2277.34
409.87	2218.83
410.07	2296.07
410.26	2314.79
410.45	2422.45
410.64	2310.11
410.83	2462.24
411.02	2539.48
411.21	2495.01
411.40	2525.44
411.59	2581.61
411.78	2513.74
411.98	2588.63
412.17	2539.48
412.36	2576.93
412.55	2651.83
412.74	2761.83
412.93	2710.34
413.12	2689.28
413.31	2647.15
413.50	2672.89
413.69	2801.62
413.88	2876.52
414.07	2937.37
414.26	2813.32
414.45	2916.31
414.64	2932.69
414.83	3045.04
415.02	2981.84
415.22	2984.18
415.41	2993.55
415.60	3061.42
415.79	3138.66
415.98	3236.96
416.17	3110.57
416.36	3222.92
416.55	3192.49
416.74	3192.49
416.93	3229.94
417.12	3325.90
417.31	3297.81
417.50	3342.28
417.69	3424.20
417.88	3265.05
418.07	3379.73
418.26	3349.31
418.45	3646.55
418.64	3503.78
418.83	3555.27
419.02	3529.53
419.21	3548.25
419.39	3548.25
419.58	3529.53
419.77	3517.83
419.96	3742.52
420.15	3667.62
420.34	3665.28
420.53	3756.56
420.72	3838.48
420.91	3679.32
421.10	3911.04
421.29	3772.94
421.48	3712.09
421.67	3775.28
421.86	3754.22
422.05	3620.81
422.24	3716.77
422.43	3721.45
422.61	3700.39
422.80	3894.65
422.99	3861.88
423.18	3988.27
423.37	3936.78
423.56	3946.14
423.75	3829.12
423.94	3836.14
424.13	3576.34
424.32	3742.52
424.50	3976.57
424.69	3873.59
424.88	3960.19
425.07	3803.37
425.26	3857.20
425.45	3892.31
425.64	3941.46
425.83	3960.19
426.01	3929.76
426.20	3946.14
426.39	3939.12
426.58	3983.59
426.77	3847.84
426.96	4007.00
427.15	3950.82
427.33	4102.96
427.52	4126.36
427.71	4084.23
427.90	4124.02
428.09	4007.00
428.28	4201.26
428.46	4100.62
428.65	4166.15
428.84	4145.09
429.03	4196.58
429.22	3880.61
429.40	4091.26
429.59	4079.55
429.78	3990.61
429.97	3810.39
430.16	4114.66
430.34	4109.98
430.53	4042.11
430.72	4086.58
430.91	4222.33
431.10	4243.39
431.28	4442.34
431.47	4603.83
431.66	4592.13
431.85	4470.42
432.03	4561.70
432.22	4636.60
432.41	4702.14
432.60	4568.73
432.79	4599.15
432.97	4748.95
433.16	4734.90
433.35	4578.09
433.54	4648.30
433.72	4690.43
433.91	4727.88
434.10	4671.71
434.28	4692.77
434.47	4844.91
434.66	4863.63
434.85	4699.80
435.03	4837.89
435.22	4877.68
435.41	5142.16
435.59	5001.72
435.78	4973.64
435.97	5071.94
436.16	4954.91
436.34	5177.26
436.53	5034.49
436.72	5238.12
436.90	5203.01
437.09	5041.51
437.28	4950.23
437.46	5015.77
437.65	5074.28
437.84	5025.13
438.02	5151.52
438.21	5165.56
438.40	5050.88
438.58	5336.42
438.77	5359.83
438.96	5305.99
439.14	5502.60
439.33	5572.82
439.52	5511.96
439.70	5568.13
439.89	5453.45
440.08	5643.03
440.26	5706.23
440.45	5612.60
440.63	5806.87
440.82	5867.72
441.01	5631.33
441.19	5937.94
441.38	5961.34
441.57	5921.56
441.75	6092.41
441.94	6312.42
442.12	6242.21
442.31	6310.08
442.50	6258.59
442.68	6223.48
442.87	6157.95
443.05	6291.36
443.24	6359.24
443.43	6361.58
443.61	6462.22
443.80	6462.22
443.98	6258.59
444.17	6155.61
444.35	6630.74
444.54	6623.72
444.73	6403.71
444.91	6384.98
445.10	6384.98
445.28	6359.24
445.47	6225.82
445.65	6289.02
445.84	6504.35
446.02	6626.06
446.21	6569.88
446.39	6579.25
446.58	6698.61
446.77	6604.99
446.95	6434.13
447.14	6630.74
447.32	6586.27
447.51	6799.26
447.69	6485.62
447.88	6509.03
448.06	6527.75
448.25	6675.21
448.43	6607.33
448.62	6616.69
448.80	6609.67
448.99	6761.81
449.17	6658.82
449.36	6808.62
449.54	7012.24
449.73	7091.82
449.91	6904.58
450.10	7101.19
450.28	7119.91
450.46	7124.59
450.65	7131.61
450.83	7213.53
451.02	7094.16
451.20	6965.43
451.39	7166.72
451.57	7246.30
451.76	7150.34
451.94	7145.66
452.13	7115.23
452.31	7101.19
452.49	7087.14
452.68	7318.86
452.86	7190.13
453.05	7131.61
453.23	7236.94
453.42	7080.12
453.60	7356.30
453.78	7295.45
453.97	7204.17
454.15	7314.17
454.34	7265.02
454.52	7342.26
454.70	7382.05
454.89	7513.12
455.07	7555.25
455.26	7545.89
455.44	7709.72
455.62	7758.88
455.81	7562.27
455.99	7639.51
456.17	7763.56
456.36	7850.16
456.54	8028.04
456.73	7906.33
456.91	8142.72
457.09	7873.56
457.28	8109.96
457.46	7887.61
457.64	8093.57
457.83	8009.31
458.01	7836.11
458.19	8128.68
458.38	8173.15
458.56	8280.82
458.74	8145.06
458.93	8198.90
459.11	8205.92
459.29	8395.50
459.48	8358.05
459.66	8390.82
459.84	8191.88
460.03	8486.78
460.21	8505.51
460.39	8346.35
460.57	8425.93
460.76	8430.61
460.94	8514.87
461.12	8348.69
461.31	8599.13
461.49	8468.06
461.67	8606.15
461.85	8697.43
462.04	8437.63
462.22	8826.16
462.40	8805.10
462.59	8755.94
462.77	8856.59
462.95	8889.35
463.13	8809.78
463.32	8779.35
463.50	8964.25
463.68	8966.59
463.86	8826.16
464.05	8725.52
464.23	8784.03
464.41	8908.08
464.59	8753.60
464.78	9083.62
464.96	9034.47
465.14	8870.63
465.32	9160.86
465.50	9076.60
465.69	9270.86
465.87	9022.77
466.05	8945.53
466.23	9226.39
466.41	9053.19
466.60	9280.22
466.78	9289.59
466.96	9081.28
467.14	9219.37
467.32	9418.32
467.51	9413.63
467.69	9102.34
467.87	9179.58
468.05	9490.87
468.23	9186.60
468.41	9261.50
468.60	9462.79
468.78	9528.32
468.96	9500.23
469.14	9701.52
469.32	9661.73
469.50	9399.59
469.69	9647.69
469.87	9825.57
470.05	9954.30
470.23	9628.96
470.41	9884.08
470.59	9944.94
470.77	9788.12
470.95	9975.36
471.14	9947.28
471.32	9790.46
471.50	10293.68
471.68	10270.27
471.86	10073.67
472.04	10361.55
472.22	10375.59
472.40	10223.46
472.58	10221.12
472.77	10324.10
472.95	10471.56
473.13	10871.79
473.31	10567.52
473.49	10399.00
473.67	10525.39
473.85	10483.26
474.03	10810.93
474.21	10822.64
474.39	11117.54
474.57	10993.50
474.75	11197.12
474.93	10956.05
475.12	10923.28
475.30	11173.72
475.48	11035.63
475.66	11356.28
475.84	11014.56
476.02	11234.57
476.20	11157.33
476.38	11742.47
476.56	11847.79
476.74	11653.53
476.92	11775.24
477.10	11754.17
477.28	11918.01
477.46	11906.31
477.64	12189.51
477.82	12189.51
478.00	12575.70
478.18	12360.37
478.36	12657.62
478.54	12556.97
478.72	12374.41
478.90	12531.23
479.08	12772.30
479.26	13069.55
479.44	13350.42
479.62	13200.62
479.80	13121.04
479.98	13401.91
480.16	13624.26
480.34	13385.52
480.52	13469.78
480.70	13434.68
480.88	13488.51
481.06	13568.09
481.24	13855.97
481.41	13923.85
481.59	14340.46
481.77	14183.65
481.95	14174.28
482.13	14462.17
482.31	14630.69
482.49	14754.74
482.67	14693.88
482.85	14874.10
483.03	14944.32
483.21	15016.88
483.39	15211.14
483.57	15405.41
483.74	15276.68
483.92	15391.36
484.10	15077.73
484.28	15805.64
484.46	15786.91
484.64	16512.48
484.82	15861.81
485.00	16159.06
485.18	16159.06
485.35	16397.79
485.53	16194.17
485.71	16208.21
485.89	16180.12
486.07	16109.91
486.25	16645.89
486.43	16652.91
486.61	16659.93
486.78	16952.50
486.96	17228.68
487.14	17481.46
487.32	17490.82
487.50	17797.43
487.68	18022.12
487.85	18148.51
488.03	18228.09
488.21	18431.72
488.39	18588.53
488.57	18455.12
488.75	18558.11
488.92	18939.62
489.10	19129.20
489.28	18923.23
489.46	19508.37
489.64	19583.26
489.81	19777.53
489.99	19758.80
490.17	20119.24
490.35	19995.20
490.53	20357.98
490.70	19924.98
490.88	20128.61
491.06	20699.70
491.24	20418.83
491.41	20673.95
491.59	20994.61
491.77	20547.56
491.95	20959.50
492.13	20917.37
492.30	21296.53
492.48	21528.25
492.66	21582.08
492.84	21678.04
493.01	21949.54
493.19	21998.70
493.37	22190.62
493.54	22412.97
493.72	22202.32
493.90	22333.39
494.08	22909.16
494.25	23047.26
494.43	23028.53
494.61	23367.91
494.79	23112.79
494.96	23445.15
495.14	23218.11
495.32	23597.28
495.49	23468.55
495.67	23828.99
495.85	23850.06
496.02	23948.36
496.20	24222.20
496.38	24177.73
496.55	24114.54
496.73	24624.78
496.91	24837.76
497.09	24751.17
497.26	24673.93
497.44	24723.08
497.62	24989.90
497.79	24882.24
497.97	24739.46
498.14	25422.90
498.32	25830.15
498.50	25420.56
498.67	25881.64
498.85	25750.57
499.03	26103.99
499.20	25926.11
499.38	25930.80
499.56	26225.70
499.73	26162.51
499.91	26157.83
500.08	26515.93
500.26	26010.37
500.44	26513.59
500.61	26150.81
500.79	26328.69
500.97	26398.90
501.14	26838.92
501.32	27157.24
501.49	26742.96
501.67	26930.20
501.84	27211.07
502.02	27222.77
502.20	27428.74
502.37	27768.12
502.55	27754.07
502.72	27648.75
502.90	27763.43
503.07	27831.31
503.25	27531.72
503.43	27548.11
503.60	28191.75
503.78	27662.79
503.95	28051.32
504.13	27974.08
504.30	28339.21
504.48	28683.27
504.65	28514.75
504.83	28767.52
505.01	28975.83
505.18	28945.41
505.36	29631.18
505.53	29205.20
505.71	29586.71
505.88	29677.99
506.06	29200.52
506.23	29221.59
506.41	29462.66
506.58	29607.78
506.76	29404.15
506.93	29628.84
507.11	29890.98
507.28	29682.67
507.46	29858.21
507.63	30029.07
507.81	30162.48
507.98	29963.54
508.16	30270.15
508.33	30125.04
508.50	30520.59
508.68	30529.95
508.85	30462.07
509.03	30593.14
509.20	31028.48
509.38	30841.24
509.55	30909.11
509.73	31454.46
509.90	31082.31
510.08	30955.93
510.25	31229.77
510.42	31477.86
510.60	31548.08
510.77	31655.75
510.95	32032.57
511.12	31517.65
511.30	32058.32
511.47	32053.64
511.64	32079.38
511.82	32032.57
511.99	32313.44
512.17	32081.72
512.34	32245.56
512.51	32687.92
512.69	32474.93
512.86	32318.12
513.04	32615.37
513.21	32816.65
513.38	32797.93
513.56	32683.24
513.73	32458.55
513.90	32744.09
514.08	32950.06
514.25	33177.09
514.43	33394.76
514.60	32554.51
514.77	33237.95
514.95	33074.11
515.12	33153.69
515.29	33226.24
515.47	33825.42
515.64	33890.96
515.81	33642.86
515.99	33282.42
516.16	33680.31
516.33	32945.38
516.51	33401.79
516.68	32931.34
516.85	33329.23
517.03	33228.59
517.20	33619.46
517.37	33919.04
517.54	34424.60
517.72	34216.29
517.89	33605.41
518.06	33771.59
518.24	34181.18
518.41	34047.77
518.58	34876.32
518.75	34260.76
518.93	34719.51
519.10	34539.29
519.27	35019.10
519.45	34848.24
519.62	35283.58
519.79	35402.94
519.96	34539.29
520.14	35342.09
520.31	34991.01
520.48	34920.79
520.65	35316.34
520.83	35587.85
521.00	35599.55
521.17	35119.74
521.34	35997.44
521.52	35639.34
521.69	35894.46
521.86	36109.78
522.03	36362.56
522.20	35849.99
522.38	36016.16
522.55	36348.52
522.72	36177.66
522.89	35873.39
523.07	36514.70
523.24	36084.04
523.41	36498.31
523.58	36638.75
523.75	37347.93
523.92	36994.51
524.10	37113.87
524.27	36818.97
524.44	37167.71
524.61	37116.22
524.78	37251.97
524.96	37266.01
525.13	37425.17
525.30	37268.35
525.47	37818.38
525.64	37567.94
525.81	37280.05
525.98	36999.19
526.16	37361.97
526.33	37219.20
526.50	37427.51
526.67	36486.61
526.84	37413.46
527.01	37001.53
527.18	37624.11
527.36	37628.79
527.53	38029.02
527.70	38064.13
527.87	38501.81
528.04	37848.80
528.21	38124.99
528.38	38628.20
528.55	38923.11
528.72	38520.54
528.89	38820.13
529.07	38206.90
529.24	38352.02
529.41	38590.75
529.58	38497.13
529.75	38394.15
529.92	38483.09
530.09	38602.46
530.26	38976.94
530.43	38824.81
530.60	38600.12
530.77	39093.97
530.94	39023.75
531.11	38969.92
531.28	39526.97
531.46	39426.32
531.63	39299.94
531.80	39571.44
531.97	39290.57
532.14	39433.35
532.31	39040.14
532.48	39250.78
532.65	39377.17
532.82	39129.08
532.99	39501.22
533.16	38944.17
533.33	39573.78
533.50	39557.39
533.67	39739.96
533.84	39533.99
534.01	39679.10
534.18	40196.36
534.35	40339.13
534.52	39859.32
534.69	40435.10
534.86	40107.42
535.03	40622.34
535.20	40889.16
535.37	40547.44
535.54	40423.39
535.71	40549.78
535.88	40594.25
536.05	40399.99
536.22	40236.15
536.38	40673.83
536.55	40390.62
536.72	40439.78
536.89	40208.06
537.06	40428.07
537.23	40959.38
537.40	40666.81
537.57	40730.00
537.74	40711.28
537.91	40837.67
538.08	40622.34
538.25	40734.68
538.42	41097.47
538.59	40837.67
538.75	40999.16
538.92	41155.98
539.09	41331.52
539.26	41263.64
539.43	40924.27
539.60	41570.25
539.77	40732.34
539.94	41170.02
540.11	41151.30
540.28	41177.04
540.44	41048.32
540.61	41666.22
540.78	40868.09
540.95	41036.61
541.12	41343.22
541.29	41408.76
541.46	42050.06
541.62	41359.61
541.79	41673.24
541.96	41546.85
542.13	41333.86
542.30	41720.05
542.47	41511.74
542.63	41832.39
542.80	41874.52
542.97	42342.63
543.14	42429.23
543.31	41975.17
543.48	42291.14
543.64	42607.11
543.81	42775.63
543.98	42983.94
544.15	42555.62
544.32	42361.36
544.48	43082.24
544.65	42705.41
544.82	42466.68
544.99	42314.55
545.16	42665.63
545.32	42604.77
545.49	42593.07
545.66	43061.18
545.83	42995.64
546.00	43096.28
546.16	42932.45
546.33	42691.37
546.50	42494.77
546.67	43063.52
546.83	42792.01
547.00	42953.51
547.17	43084.58
547.34	42890.32
547.50	42887.98
547.67	43419.28
547.84	43304.59
548.00	43430.98
548.17	43496.52
548.34	43445.02
548.51	43896.75
548.67	43569.07
548.84	43969.30
549.01	43082.24
549.18	43601.84
549.34	43543.33
549.51	43611.20
549.68	43601.84
549.84	44172.93
550.01	44020.80
550.18	43356.08
550.34	43723.55
550.51	43484.81
550.68	43901.43
550.84	43306.93
551.01	43711.84
551.18	44088.67
551.34	43648.65
551.51	44233.78
551.68	44116.76
551.84	43772.70
552.01	44039.52
552.18	44114.42
552.34	43381.83
552.51	43597.16
552.68	44030.16
552.84	43887.39
553.01	44191.65
553.18	43859.30
553.34	44296.98
553.51	44126.12
553.67	44158.89
553.84	44273.57
554.01	44603.59
554.17	44577.84
554.34	44566.14
554.51	44465.50
554.67	44240.81
554.84	44472.52
555.00	44570.82
555.17	44325.07
555.33	44383.58
555.50	44744.02
555.67	44556.78
555.83	44215.06
556.00	44603.59
556.16	45027.23
556.33	44561.46
556.50	44830.62
556.66	44680.83
556.83	44549.76
556.99	44512.31
557.16	44832.96
557.32	44488.90
557.49	44992.12
557.65	44748.70
557.82	44891.48
557.98	45123.19
558.15	44498.26
558.32	44697.21
558.48	44439.75
558.65	44446.77
558.81	44540.39
558.98	44697.21
559.14	44751.04
559.31	44460.82
559.47	44891.48
559.64	44942.97
559.80	44865.73
559.97	44928.92
560.13	44992.12
560.30	44715.93
560.46	45052.97
560.63	45385.33
560.79	45102.12
560.96	45404.05
561.12	45195.74
561.29	45146.59
561.45	44928.92
561.61	45202.77
561.78	44542.74
561.94	45062.33
562.11	44973.39
562.27	44781.47
562.44	45287.03
562.60	45467.25
562.77	45315.11
562.93	45336.18
563.10	45549.17
563.26	45144.25
563.42	45504.70
563.59	44793.17
563.75	45261.28
563.92	45565.55
564.08	45432.14
564.24	45680.24
564.41	45352.56
564.57	45247.24
564.74	45373.63
564.90	45366.60
565.07	45588.95
565.23	45752.79
565.39	45448.52
565.56	45422.78
565.72	45064.67
565.88	45275.32
566.05	45432.14
566.21	45350.22
566.38	45265.96
566.54	45179.36
566.70	45947.06
566.87	45811.31
567.03	45762.15
567.19	45656.83
567.36	45916.63
567.52	45333.84
567.68	45521.08
567.85	45043.61
568.01	45544.48
568.17	45326.81
568.34	45783.22
568.50	45687.26
568.66	45485.97
568.83	45647.47
568.99	45698.96
569.15	45902.59
569.32	45495.33
569.48	45586.61
569.64	45799.60
569.81	45897.91
569.97	45471.93
570.13	45441.50
570.30	45296.39
570.46	45106.80
570.62	45251.92
570.78	45219.15
570.95	45331.50
571.11	45544.48
571.27	45385.33
571.43	45837.05
571.60	45804.28
571.76	45790.24
571.92	45708.32
572.09	45935.35
572.25	45352.56
572.41	46155.36
572.57	46206.86
572.74	46213.88
572.90	45645.13
573.06	46033.66
573.22	45928.33
573.38	45453.20
573.55	46017.27
573.71	46108.55
573.87	45780.88
574.03	45673.21
574.20	45780.88
574.36	45638.11
574.52	45551.51
574.68	45958.76
574.84	45731.73
575.01	45476.61
575.17	45907.27
575.33	45752.79
575.49	45549.17
575.65	46007.91
575.82	46038.34
575.98	45532.78
576.14	45797.26
576.30	45914.29
576.46	45902.59
576.62	45656.83
576.79	45621.72
576.95	45801.94
577.11	45748.11
577.27	45811.31
577.43	46115.58
577.59	45610.02
577.75	45511.72
577.92	45357.24
578.08	45783.22
578.24	45113.83
578.40	45881.52
578.56	45413.41
578.72	46057.06
578.88	45834.71
579.04	45942.38
579.21	45567.89
579.37	45883.86
579.53	45841.73
579.69	46150.68
579.85	45713.00
580.01	45731.73
580.17	45958.76
580.33	46183.45
580.49	45958.76
580.65	46082.81
580.82	45925.99
580.98	45579.59
581.14	45666.19
581.30	46043.02
581.46	46028.98
581.62	46199.83
581.78	45504.70
581.94	46391.76
582.10	46106.21
582.26	46199.83
582.42	46155.36
582.58	46256.01
582.74	46138.98
582.90	45741.09
583.06	46113.23
583.22	46043.02
583.38	46316.86
583.54	45914.29
583.70	46344.95
583.86	46288.77
584.02	45792.58
584.18	46183.45
584.34	45965.78
584.50	46080.47
584.66	45755.13
584.82	45895.56
584.98	46246.65
585.14	46033.66
585.30	45928.33
585.46	45935.35
585.62	45422.78
585.78	45762.15
585.94	45638.11
586.10	45703.64
586.26	45647.47
586.42	46527.51
586.58	46256.01
586.74	45897.91
586.90	45923.65
587.06	45991.53
587.22	46010.25
587.38	45652.15
587.54	46085.15
587.70	46033.66
587.86	45979.82
588.02	45734.07
588.18	46061.74
588.34	45591.30
588.49	45586.61
588.65	45504.70
588.81	45457.88
588.97	45668.53
589.13	45595.98
589.29	45677.90
589.45	45705.98
589.61	45577.25
589.77	46450.27
589.93	45921.31
590.08	46010.25
590.24	46560.28
590.40	46721.77
590.56	46312.18
590.72	46066.42
590.88	46143.66
591.04	46258.35
591.20	46335.59
591.35	45914.29
591.51	46555.60
591.67	46043.02
591.83	45844.07
591.99	45876.84
592.15	46216.22
592.31	46019.61
592.46	46155.36
592.62	45799.60
592.78	46295.80
592.94	46195.15
593.10	46124.94
593.26	46651.56
593.41	46162.39
593.57	46059.40
593.73	46021.95
593.89	46307.50
594.05	46066.42
594.20	46216.22
594.36	46155.36
594.52	46354.31
594.68	46047.70
594.84	45956.42
594.99	46497.08
595.15	46026.63
595.31	46424.53
595.47	46129.62
595.62	46265.37
595.78	46220.90
595.94	46698.37
596.10	46703.05
596.25	46312.18
596.41	46415.16
596.57	45820.67
596.73	46466.66
596.88	45729.39
597.04	46260.69
597.20	46265.37
597.36	45944.72
597.51	46396.44
597.67	46162.39
597.83	46506.44
597.99	46609.43
598.14	45984.51
598.30	45935.35
598.46	45963.44
598.61	46667.94
598.77	46138.98
598.93	46316.86
599.09	46021.95
599.24	46698.37
599.40	46408.14
599.56	46323.88
599.71	46225.58
599.87	46564.96
600.03	46443.25
600.18	46040.68
600.34	45869.82
600.50	46401.12
600.65	46281.75
600.81	46157.70
600.97	46085.15
601.12	46028.98
601.28	46686.67
601.44	45949.40
601.59	46190.47
601.75	46258.35
601.91	45603.00
602.06	46373.03
602.22	46328.56
602.37	46286.43
602.53	46110.89
602.69	46665.60
602.84	46155.36
603.00	45975.14
603.16	46000.89
603.31	45827.69
603.47	46026.63
603.62	45825.35
603.78	46323.88
603.94	46010.25
604.09	46445.59
604.25	46291.12
604.40	45949.40
604.56	46218.56
604.71	46171.75
604.87	46103.87
605.03	46101.53
605.18	45670.87
605.34	45811.31
605.49	45799.60
605.65	46148.34
605.80	46040.68
605.96	46157.70
606.12	46131.96
606.27	45897.91
606.43	46021.95
606.58	45996.21
606.74	45811.31
606.89	46033.66
607.05	45549.17
607.20	46181.11
607.36	46061.74
607.51	46160.05
607.67	46190.47
607.82	45488.31
607.98	45743.43
608.13	45736.41
608.29	45642.79
608.44	45979.82
608.60	45752.79
608.75	46251.33
608.91	45717.68
609.06	45673.21
609.22	45998.55
609.37	45436.82
609.53	45638.11
609.68	45811.31
609.84	45839.39
609.99	45682.58
610.15	45572.57
610.30	45322.13
610.46	45544.48
610.61	45256.60
610.76	45914.29
610.92	46040.68
611.07	45993.87
611.23	45359.58
611.38	45949.40
611.54	45556.19
611.69	45492.99
611.84	45099.78
612.00	44828.28
612.15	45256.60
612.31	45799.60
612.46	45214.47
612.62	45399.37
612.77	45471.93
612.92	45397.03
613.08	45184.04
613.23	44942.97
613.39	45102.12
613.54	44512.31
613.69	44973.39
613.85	44477.20
614.00	45167.66
614.15	45272.98
614.31	45013.18
614.46	45162.98
614.62	45013.18
614.77	45413.41
614.92	44898.50
615.08	44678.49
615.23	44882.11
615.38	44842.32
615.54	44500.61
615.69	44706.57
615.84	44746.36
616.00	44783.81
616.15	44659.76
616.30	44933.60
616.46	44811.90
616.61	44570.82
616.76	44477.20
616.92	44184.63
617.07	44430.39
617.22	44458.48
617.37	44524.01
617.53	44320.38
617.68	44678.49
617.83	44500.61
617.99	44634.02
618.14	44596.57
618.29	44222.08
618.45	44053.56
618.60	44137.82
618.75	43938.88
618.90	44172.93
619.06	44179.95
619.21	44278.25
619.36	44098.03
619.51	44797.85
619.67	44264.21
619.82	44107.40
619.97	44519.33
620.12	44261.87
620.28	43901.43
620.43	44491.24
620.58	44121.44
620.73	43716.53
620.89	43793.76
621.04	44198.68
621.19	44062.93
621.34	43931.86
621.49	43936.54
621.65	44093.35
621.80	44734.66
621.95	44076.97
622.10	43676.74
622.25	43887.39
622.41	43679.08
622.56	43737.59
622.71	44065.27
622.86	44009.09
623.01	43873.34
623.16	43660.35
623.32	43714.19
623.47	43732.91
623.62	43601.84
623.77	43564.39
623.92	43763.34
624.07	43363.11
624.23	43023.73
624.38	43416.94
624.53	43430.98
624.68	43735.25
624.83	43711.84
624.98	43391.19
625.13	43068.20
625.29	42930.11
625.44	43372.47
625.59	42838.83
625.74	43105.65
625.89	42693.71
626.04	43098.62
626.19	42974.58
626.34	43136.07
626.49	43285.87
626.65	43084.58
626.80	43414.60
626.95	42384.76
627.10	42792.01
627.25	42637.54
627.40	42834.14
627.55	42361.36
627.70	42541.58
627.85	42099.22
628.00	42667.97
628.15	42632.86
628.30	42740.52
628.45	42878.61
628.60	42440.93
628.76	42494.77
628.91	42391.78
629.06	42447.96
629.21	42256.03
629.36	42426.89
629.51	42337.95
629.66	41923.68
629.81	42307.52
629.96	42412.85
630.11	42609.45
630.26	42532.22
630.41	42906.70
630.56	42094.53
630.71	42110.92
630.86	42113.26
631.01	41766.86
631.16	42164.75
631.31	41872.18
631.46	41727.07
631.61	41881.55
631.76	41460.25
631.91	42127.30
632.06	42038.36
632.21	41844.10
632.36	42263.05
632.51	41937.72
632.66	42160.07
632.81	41462.59
632.96	41635.79
633.10	41738.77
633.25	41928.36
633.40	41579.62
633.55	41855.80
633.70	41872.18
633.85	41729.41
634.00	41677.92
634.15	41605.36
634.30	41324.50
634.45	41368.97
634.60	41790.27
634.75	41387.69
634.90	41167.68
635.05	41422.80
635.19	41085.76
635.34	41696.64
635.49	41460.25
635.64	41008.53
635.79	41017.89
635.94	41060.02
636.09	41167.68
636.24	41081.08
636.39	40985.12
636.53	40987.46
636.68	41305.77
636.83	41305.77
636.98	41322.16
637.13	40767.45
637.28	40968.74
637.43	41109.17
637.57	41027.25
637.72	41074.06
637.87	40762.77
638.02	41048.32
638.17	41113.85
638.32	41074.06
638.46	40950.01
638.61	40627.02
638.76	40273.60
638.91	40669.15
639.06	40657.45
639.20	40938.31
639.35	41003.85
639.50	40690.21
639.65	40526.38
639.80	40627.02
639.94	40212.74
640.09	40598.93
640.24	40730.00
640.39	40484.25
640.54	40196.36
640.68	40266.58
640.83	40435.10
640.98	40414.03
641.13	40048.91
641.27	40718.30
641.42	40205.72
641.57	40596.59
641.72	40156.57
641.86	39971.67
642.01	40222.11
642.16	40407.01
642.31	39789.11
642.45	40098.06
642.60	39999.76
642.75	40030.18
642.90	40196.36
643.04	40088.70
643.19	39674.42
643.34	39927.20
643.48	39999.76
643.63	39643.99
643.78	39840.60
643.93	40023.16
644.07	39751.66
644.22	40266.58
644.37	39658.04
644.51	39732.93
644.66	39662.72
644.81	39938.90
644.95	39817.19
645.10	39360.79
645.25	39913.16
645.39	39281.21
645.54	39737.62
645.69	39564.42
645.83	39248.44
645.98	39117.37
646.13	39119.71
646.27	39496.54
646.42	39180.57
646.57	39117.37
646.71	38913.75
646.86	39206.31
647.00	39454.41
647.15	39459.09
647.30	39047.16
647.44	39356.11
647.59	39065.88
647.74	38988.64
647.88	38965.24
648.03	38902.04
648.17	38843.53
648.32	38911.41
648.47	38768.63
648.61	38621.18
648.76	38658.63
648.90	38885.66
649.05	38939.49
649.20	38859.91
649.34	38972.26
649.49	39070.56
649.63	38295.85
649.78	39089.29
649.92	38527.56
650.07	39285.89
650.21	39257.81
650.36	38710.12
650.51	38529.90
650.65	39136.10
650.80	38817.78
650.94	38550.96
651.09	38679.69
651.23	38326.27
651.38	38579.05
651.52	38476.07
651.67	37942.42
651.81	38211.59
651.96	37984.55
652.10	38616.50
652.25	38583.73
652.39	38560.33
652.54	38632.88
652.68	38249.03
652.83	38050.09
652.97	38401.17
653.12	38576.71
653.26	38239.67
653.41	37773.91
653.55	38115.62
653.70	38075.84
653.84	38005.62
653.99	38045.41
654.13	37904.98
654.27	38066.47
654.42	37832.42
654.56	37944.76
654.71	37710.71
654.85	37668.58
655.00	37951.79
655.14	37462.61
655.29	37483.68
655.43	37706.03
655.57	36921.95
655.72	37350.27
655.86	37329.20
656.01	37357.29
656.15	36734.71
656.30	36889.18
656.44	37130.26
656.58	37682.62
656.73	37354.95
656.87	37078.77
657.01	37207.50
657.16	37418.14
657.30	36858.76
657.45	37359.63
657.59	37029.62
657.73	37294.10
657.88	37324.52
658.02	37111.53
658.16	37558.58
658.31	37200.47
658.45	37212.18
658.60	37392.40
658.74	37352.61
658.88	37315.16
659.03	36526.40
659.17	36648.11
659.31	36245.54
659.46	36467.89
659.60	36992.17
659.74	37057.70
659.89	36851.73
660.03	36294.69
660.17	36989.83
660.32	36919.61
660.46	36685.56
660.60	36503.00
660.74	36580.23
660.89	36378.95
661.03	36264.26
661.17	36053.61
661.32	36290.01
661.46	35908.50
661.60	36477.25
661.74	36027.87
661.89	36187.02
662.03	36016.16
662.17	35889.77
662.31	36009.14
662.46	36694.92
662.60	36098.08
662.74	35983.40
662.88	35730.62
663.03	36156.60
663.17	35641.68
663.31	35445.07
663.45	35388.90
663.60	35393.58
663.74	35412.31
663.88	35775.09
664.02	35292.94
664.17	35229.74
664.31	35131.44
664.45	35019.10
664.59	35449.75
664.73	35260.17
664.88	34962.92
665.02	34895.05
665.16	34845.90
665.30	34670.36
665.44	34820.15
665.59	34520.56
665.73	34976.97
665.87	34466.73
666.01	34567.37
666.15	34431.62
666.29	34597.80
666.44	34546.31
666.58	34263.10
666.72	34103.95
666.86	34150.76
667.00	34529.92
667.14	34139.05
667.28	34305.23
667.43	34316.93
667.57	34176.50
667.71	34368.43
667.85	34153.10
667.99	34003.30
668.13	34073.52
668.27	34064.16
668.41	34333.32
668.56	33865.21
668.70	33635.84
668.84	33493.07
668.98	33633.50
669.12	33500.09
669.26	33460.30
669.40	33982.24
669.54	33303.48
669.68	33659.24
669.82	32783.88
669.96	33591.37
670.10	33167.73
670.25	32797.93
670.39	32877.51
670.53	32755.80
670.67	33083.47
670.81	32739.41
670.95	33340.93
671.09	32638.77
671.23	32397.70
671.37	32711.33
671.51	32402.38
671.65	32095.77
671.79	32306.41
671.93	32222.16
672.07	31906.18
672.21	32355.57
672.35	31929.59
672.49	32144.92
672.63	32491.32
672.77	32208.11
672.91	32013.85
673.05	31711.92
673.19	31681.49
673.33	31543.40
673.47	31456.80
673.61	31676.81
673.75	31360.84
673.89	31299.98
674.03	31274.24
674.17	31288.28
674.31	31292.96
674.45	31159.55
674.59	31152.53
674.73	31620.64
674.87	31538.72
675.01	30932.52
675.15	31077.63
675.29	30796.77
675.43	30508.88
675.56	30433.99
675.70	30565.06
675.84	30731.23
675.98	29551.60
676.12	30347.39
676.26	30230.36
676.40	30143.76
676.54	30412.92
676.68	30401.22
676.82	29336.27
676.96	29762.25
677.10	29715.44
677.23	29926.09
677.37	29376.06
677.51	29844.17
677.65	28938.38
677.79	28959.45
677.93	28762.84
678.07	29046.05
678.21	28676.24
678.34	28814.34
678.48	28528.79
678.62	28608.37
678.76	28325.16
678.90	28451.55
679.04	28215.16
679.18	28250.27
679.31	28020.89
679.45	27936.63
679.59	27777.48
679.73	28093.45
679.87	27880.46
680.00	28100.47
680.14	28091.11
680.28	27824.29
680.42	27274.26
680.56	27484.91
680.70	27484.91
680.83	27360.86
680.97	27206.39
681.11	27178.30
681.25	27119.79
681.39	26658.70
681.52	26962.97
681.66	26913.82
681.80	26906.80
681.94	26885.73
682.07	26843.60
682.21	26647.00
682.35	26733.60
682.49	26546.36
682.62	26298.26
682.76	26188.25
682.90	26017.40
683.04	26284.22
683.17	26017.40
683.31	25986.97
683.45	25811.43
683.59	25706.10
683.72	25582.06
683.86	25689.72
684.00	25865.26
684.13	25649.93
684.27	25212.25
684.41	25118.63
684.55	24734.78
684.68	24968.84
684.82	25062.46
684.96	24584.99
685.09	24975.86
685.23	24692.65
685.37	24542.86
685.50	24566.26
685.64	24996.92
685.78	24482.00
685.91	24196.46
686.05	24074.75
686.19	24074.75
686.32	23971.77
686.46	23562.17
686.60	23185.35
686.73	23264.92
686.87	23424.08
687.01	23330.46
687.14	22991.08
687.28	22742.99
687.42	23342.16
687.55	22773.41
687.69	22829.59
687.82	22902.14
687.96	22560.42
688.10	22946.61
688.23	22675.11
688.37	22946.61
688.50	22665.75
688.64	22532.34
688.78	22499.57
688.91	22064.23
689.05	22202.32
689.18	22097.00
689.32	21783.37
689.46	22033.80
689.59	22125.08
689.73	22363.82
689.86	21954.22
690.00	21474.42
690.13	21764.64
690.27	21350.37
690.41	21184.19
690.54	21188.87
690.68	21153.76
690.81	21205.25
690.95	21436.97
691.08	21135.04
691.22	21001.63
691.35	20915.03
691.49	20989.92
691.62	21055.46
691.76	20725.44
691.89	20744.17
692.03	20772.25
692.16	20552.24
692.30	20554.58
692.43	20126.27
692.57	20149.67
692.70	20095.84
692.84	19962.43
692.97	19946.05
693.11	19932.00
693.24	19721.35
693.38	19814.98
693.51	19681.56
693.65	19580.92
693.78	19431.13
693.92	19290.70
694.05	19442.83
694.19	19384.32
694.32	19527.09
694.45	19335.17
694.59	19187.71
694.72	19094.09
694.86	18860.04
694.99	18806.20
695.13	18974.72
695.26	18654.07
695.39	18492.57
695.53	18616.62
695.66	18675.13
695.80	18640.03
695.93	18286.61
696.07	18380.23
696.20	18288.95
696.33	18347.46
696.47	18216.39
696.60	18139.15
696.73	17855.95
696.87	17628.92
697.00	17628.92
697.14	17291.88
697.27	17547.00
697.40	17352.73
697.54	17294.22
697.67	17198.26
697.80	17238.05
697.94	17209.96
698.07	17104.64
698.21	17118.68
698.34	16905.69
698.47	16901.01
698.61	16566.31
698.74	16725.47
698.87	16760.58
699.01	16531.20
699.14	16460.99
699.27	16191.83
699.40	16503.12
699.54	16435.24
699.67	16325.24
699.80	16379.07
699.94	16142.67
700.07	16037.35
700.20	16123.95
700.34	16013.95
700.47	15981.18
700.60	15932.03
700.73	15971.82
700.87	15791.59
701.00	15594.99
701.13	15456.90
701.26	15246.25
701.40	15506.05
701.53	15302.42
701.66	15297.74
701.79	15028.58
701.93	15044.96
702.06	14998.15
702.19	14567.49
702.32	14555.79
702.46	14839.00
702.59	14916.23
702.72	14780.48
702.85	14831.97
702.99	14689.20
703.12	14483.24
703.25	14457.49
703.38	14420.04
703.51	14242.16
703.65	14216.41
703.78	14183.65
703.91	13912.14
704.04	13834.91
704.17	14057.26
704.31	13994.06
704.44	13720.22
704.57	13724.90
704.70	13596.17
704.83	13738.94
704.96	13764.69
705.10	13469.78
705.23	13540.00
>>>>>End Processed Spectral Data<<<<<
