SpectraSuite Data File
++++++++++++++++++++++++++++++++++++
Date: Fri Oct 25 10:47:00 EDT 2013
User: price-jones
Dark Spectrum Present: No
Reference Spectrum Present: No
Number of Sampled Component Spectra: 1
Spectrometers: USB2+H05261
Integration Time (usec): 100000 (USB2+H05261)
Spectra Averaged: 1 (USB2+H05261)
Boxcar Smoothing: 0 (USB2+H05261)
Correct for Electrical Dark: No (USB2+H05261)
Strobe/Lamp Enabled: No (USB2+H05261)
Correct for Detector Non-linearity: No (USB2+H05261)
Correct for Stray Light: No (USB2+H05261)
Number of Pixels in Processed Spectrum: 2048
>>>>>Begin Processed Spectral Data<<<<<
365.73	133.41
365.92	133.41
366.12	133.41
366.32	79.58
366.52	30.43
366.72	72.56
366.91	86.60
367.11	37.45
367.31	53.83
367.51	2.34
367.70	56.17
367.90	84.26
368.10	32.77
368.30	49.15
368.49	23.41
368.69	39.79
368.89	112.35
369.09	0.00
369.28	30.43
369.48	100.64
369.68	149.79
369.87	159.16
370.07	149.79
370.27	110.01
370.47	180.22
370.66	367.46
370.86	411.93
371.06	341.72
371.25	503.22
371.45	433.00
371.65	463.43
371.84	447.04
372.04	386.19
372.24	442.36
372.44	442.36
372.63	486.83
372.83	512.58
373.03	533.64
373.22	472.79
373.42	550.03
373.62	461.09
373.81	561.73
374.01	575.77
374.21	587.47
374.40	498.53
374.60	557.05
374.79	547.69
374.99	582.79
375.19	568.75
375.38	636.63
375.58	550.03
375.78	603.86
375.97	585.13
376.17	606.20
376.37	674.07
376.56	592.16
376.76	561.73
376.95	582.79
377.15	601.52
377.35	653.01
377.54	653.01
377.74	669.39
377.93	669.39
378.13	580.45
378.33	580.45
378.52	636.63
378.72	582.79
378.91	692.80
379.11	561.73
379.31	631.94
379.50	643.65
379.70	671.73
379.89	683.44
380.09	709.18
380.28	713.86
380.48	657.69
380.68	662.37
380.87	662.37
381.07	786.42
381.26	674.07
381.46	664.71
381.65	603.86
381.85	720.88
382.04	765.36
382.24	713.86
382.43	655.35
382.63	671.73
382.83	751.31
383.02	706.84
383.22	678.76
383.41	746.63
383.61	711.52
383.80	770.04
384.00	692.80
384.19	702.16
384.39	748.97
384.58	816.85
384.78	774.72
384.97	793.44
385.17	741.95
385.36	748.97
385.56	744.29
385.75	807.48
385.95	812.17
386.14	723.23
386.34	828.55
386.53	844.93
386.72	791.10
386.92	870.68
387.11	842.59
387.31	849.61
387.50	917.49
387.70	779.40
387.89	844.93
388.09	933.87
388.28	837.91
388.48	816.85
388.67	901.11
388.86	898.77
389.06	912.81
389.25	940.90
389.45	933.87
389.64	968.98
389.84	1020.47
390.03	983.02
390.22	1015.79
390.42	952.60
390.61	933.87
390.81	1008.77
391.00	968.98
391.19	1053.24
391.39	1004.09
391.58	994.73
391.78	1013.45
391.97	1064.94
392.16	978.34
392.36	1050.90
392.55	1081.33
392.75	971.32
392.94	973.66
393.13	863.66
393.33	1041.54
393.52	1060.26
393.71	1062.60
393.91	1123.46
394.10	1067.28
394.29	1043.88
394.49	1177.29
394.68	1100.05
394.88	1142.18
395.07	1214.74
395.26	1123.46
395.46	1179.63
395.65	1210.06
395.84	1160.91
396.04	1170.27
396.23	1048.56
396.42	1109.41
396.62	1188.99
396.81	1196.01
397.00	1139.84
397.19	1238.14
397.39	1275.59
397.58	1296.66
397.77	1310.70
397.97	1331.76
398.16	1331.76
398.35	1432.41
398.55	1331.76
398.74	1338.79
398.93	1432.41
399.12	1406.66
399.32	1348.15
399.51	1418.36
399.70	1334.11
399.90	1500.28
400.09	1411.34
400.28	1409.00
400.47	1409.00
400.67	1411.34
400.86	1542.41
401.05	1495.60
401.24	1570.50
401.44	1626.67
401.63	1603.27
401.82	1589.22
402.01	1626.67
402.21	1654.76
402.40	1607.95
402.59	1542.41
402.78	1668.80
402.97	1586.88
403.17	1706.25
403.36	1722.63
403.55	1720.29
403.74	1746.04
403.93	1671.14
404.13	1797.53
404.32	1743.70
404.51	1760.08
404.70	1797.53
404.89	1732.00
405.09	1834.98
405.28	1795.19
405.47	1797.53
405.66	1816.26
405.85	1823.28
406.05	1863.07
406.24	1877.11
406.43	1961.37
406.62	2092.44
406.81	1956.69
407.00	1970.73
407.20	1963.71
407.39	2031.58
407.58	2029.24
407.77	2012.86
407.96	2043.29
408.15	2165.00
408.34	2092.44
408.54	2150.95
408.73	2097.12
408.92	2064.35
409.11	2111.16
409.30	2209.47
409.49	2106.48
409.68	2150.95
409.87	2202.44
410.07	2125.21
410.26	2176.70
410.45	2197.76
410.64	2347.56
410.83	2303.09
411.02	2284.36
411.21	2455.22
411.40	2324.15
411.59	2434.16
411.78	2410.75
411.98	2436.50
412.17	2483.31
412.36	2473.95
412.55	2502.03
412.74	2539.48
412.93	2607.36
413.12	2455.22
413.31	2576.93
413.50	2572.25
413.69	2649.49
413.88	2724.38
414.07	2635.44
414.26	2825.03
414.45	2670.55
414.64	2684.59
414.83	2876.52
415.02	2761.83
415.22	2909.29
415.41	2965.46
415.60	2895.24
415.79	2906.95
415.98	2916.31
416.17	3035.67
416.36	3012.27
416.55	2991.20
416.74	2949.08
416.93	3016.95
417.12	3070.78
417.31	3117.59
417.50	3136.32
417.69	3307.18
417.88	3262.71
418.07	3129.30
418.26	3157.38
418.45	3236.96
418.64	3410.16
418.83	3316.54
419.02	3159.72
419.21	3281.43
419.39	3398.46
419.58	3229.94
419.77	3293.13
419.96	3356.33
420.15	3538.89
420.34	3332.92
420.53	3405.48
420.72	3669.96
420.91	3538.89
421.10	3363.35
421.29	3707.41
421.48	3384.41
421.67	3632.51
421.86	3616.13
422.05	3599.74
422.24	3590.38
422.43	3569.32
422.61	3482.72
422.80	3620.81
422.99	3709.75
423.18	3667.62
423.37	3707.41
423.56	3684.00
423.75	3630.17
423.94	3590.38
424.13	3440.59
424.32	3520.17
424.50	3578.68
424.69	3653.58
424.88	3735.50
425.07	3737.84
425.26	3674.64
425.45	3730.81
425.64	3714.43
425.83	3712.09
426.01	3838.48
426.20	3721.45
426.39	3808.05
426.58	3756.56
426.77	3672.30
426.96	3702.73
427.15	3681.66
427.33	3847.84
427.52	3719.11
427.71	3861.88
427.90	3786.99
428.09	3838.48
428.28	3871.25
428.46	3971.89
428.65	3896.99
428.84	4039.76
429.03	4032.74
429.22	3871.25
429.40	4074.87
429.59	4074.87
429.78	3688.68
429.97	3702.73
430.16	3854.86
430.34	4014.02
430.53	4114.66
430.72	3992.95
430.91	3908.69
431.10	4067.85
431.28	4135.73
431.47	4351.06
431.66	4477.44
431.85	4390.84
432.03	4470.42
432.22	4386.16
432.41	4432.97
432.60	4425.95
432.79	4430.63
432.97	4435.32
433.16	4423.61
433.35	4484.47
433.54	4418.93
433.72	4386.16
433.91	4313.61
434.10	4421.27
434.28	4559.36
434.47	4587.45
434.66	4582.77
434.85	4727.88
435.03	4753.63
435.22	4676.39
435.41	4765.33
435.59	4744.27
435.78	4793.42
435.97	4863.63
436.16	4802.78
436.34	4856.61
436.53	4863.63
436.72	4844.91
436.90	4758.31
437.09	4851.93
437.28	4718.52
437.46	4954.91
437.65	4896.40
437.84	4908.10
438.02	4807.46
438.21	4922.15
438.40	4882.36
438.58	5095.35
438.77	5151.52
438.96	5088.32
439.14	5090.67
439.33	5135.14
439.52	5149.18
439.70	5416.00
439.89	5397.28
440.08	5369.19
440.26	5247.48
440.45	5514.30
440.63	5362.17
440.82	5598.56
441.01	5579.84
441.19	5647.71
441.38	5638.35
441.57	5755.38
441.75	5785.80
441.94	5841.98
442.12	5909.85
442.31	5935.60
442.50	5877.09
442.68	5973.05
442.87	5825.59
443.05	5928.58
443.24	5928.58
443.43	5921.56
443.61	6064.33
443.80	6230.51
443.98	5849.00
444.17	5710.91
444.35	6052.63
444.54	6356.90
444.73	6237.53
444.91	6043.26
445.10	6036.24
445.28	6157.95
445.47	5937.94
445.65	5973.05
445.84	6061.99
446.02	6305.40
446.21	6033.90
446.39	6073.69
446.58	6064.33
446.77	6174.33
446.95	5940.28
447.14	6366.26
447.32	6441.15
447.51	6359.24
447.69	6181.35
447.88	6183.70
448.06	6251.57
448.25	6324.13
448.43	6289.02
448.62	6244.55
448.80	6361.58
448.99	6314.77
449.17	6441.15
449.36	6319.45
449.54	6530.09
449.73	6516.05
449.91	6541.80
450.10	6750.10
450.28	6590.95
450.46	6710.32
450.65	6686.91
450.83	6677.55
451.02	6581.59
451.20	6700.95
451.39	6785.21
451.57	6836.70
451.76	6855.43
451.94	6820.32
452.13	6843.73
452.31	6705.63
452.49	6658.82
452.68	6913.94
452.86	6745.42
453.05	6787.55
453.23	7007.56
453.42	6799.26
453.60	6799.26
453.78	7030.97
453.97	6935.01
454.15	6993.52
454.34	6860.11
454.52	7108.21
454.70	7105.87
454.89	7157.36
455.07	7054.37
455.26	6956.07
455.44	7169.06
455.62	7314.17
455.81	7187.79
455.99	7248.64
456.17	7342.26
456.36	7358.64
456.54	7433.54
456.73	7424.18
456.91	7576.31
457.09	7721.43
457.28	7927.39
457.46	7637.17
457.64	7950.80
457.83	7672.28
458.01	7564.61
458.19	7868.88
458.38	7517.80
458.56	7735.47
458.74	7627.81
458.93	7658.23
459.11	7616.10
459.29	7882.92
459.48	7808.03
459.66	7815.05
459.84	7878.24
460.03	7976.55
460.21	8121.66
460.39	8079.53
460.57	7974.21
460.76	8135.70
460.94	8138.04
461.12	8166.13
461.31	8105.28
461.49	8170.81
461.67	8180.17
461.85	8404.86
462.04	8065.49
462.22	8648.28
462.40	8360.39
462.59	8203.58
462.77	8306.56
462.95	8329.97
463.13	8339.33
463.32	8533.59
463.50	8634.24
463.68	8332.31
463.86	8479.76
464.05	8063.15
464.23	8458.70
464.41	8514.87
464.59	8313.58
464.78	8762.97
464.96	8557.00
465.14	8496.14
465.32	8491.46
465.50	8711.47
465.69	8947.87
465.87	8718.50
466.05	8629.56
466.23	8791.05
466.41	8667.00
466.60	8760.63
466.78	8798.07
466.96	8737.22
467.14	8617.85
467.32	8961.91
467.51	8997.02
467.69	8624.87
467.87	8896.38
468.05	9266.18
468.23	8730.20
468.41	8847.22
468.60	8821.48
468.78	8966.59
468.96	9104.68
469.14	9128.09
469.32	9207.67
469.50	8966.59
469.69	9160.86
469.87	9256.82
470.05	9348.10
470.23	9219.37
470.41	9273.20
470.59	9582.15
470.77	9336.40
470.95	9423.00
471.14	9544.70
471.32	9474.49
471.50	9565.77
471.68	9640.67
471.86	9699.18
472.04	9753.01
472.22	10022.17
472.40	9586.83
472.58	9666.41
472.77	9799.82
472.95	9853.66
473.13	10274.95
473.31	9912.17
473.49	9783.44
473.67	9764.72
473.85	10171.97
474.03	10363.89
474.21	10169.63
474.39	10483.26
474.57	10476.24
474.75	10562.84
474.93	10480.92
475.12	10469.22
475.30	10333.47
475.48	10656.46
475.66	10743.06
475.84	10684.55
476.02	10597.95
476.20	10981.79
476.38	10810.93
476.56	11206.48
476.74	11243.93
476.92	11328.19
477.10	11087.12
477.28	11400.75
477.46	11466.28
477.64	11459.26
477.82	11529.48
478.00	11852.47
478.18	11721.40
478.36	11793.96
478.54	11971.84
478.72	12156.74
478.90	12091.21
479.08	12390.80
479.26	12116.95
479.44	12365.05
479.62	12479.74
479.80	12449.31
479.98	12741.88
480.16	12922.10
480.34	12688.04
480.52	13111.68
480.70	13095.30
480.88	12769.96
481.06	12828.48
481.24	13331.69
481.41	13153.81
481.59	13582.13
481.77	13675.75
481.95	13352.76
482.13	13891.08
482.31	13837.25
482.49	14136.84
482.67	14307.69
482.85	14134.50
483.03	14190.67
483.21	14415.36
483.39	14651.75
483.57	14457.49
483.74	14698.56
483.92	15007.52
484.10	14588.56
484.28	15026.24
484.46	15201.78
484.64	15346.89
484.82	15520.09
485.00	15466.26
485.18	15515.41
485.35	15501.37
485.53	15232.21
485.71	15571.58
485.89	15618.39
486.07	15789.25
486.25	15845.43
486.43	16093.52
486.61	16269.06
486.78	16226.93
486.96	16512.48
487.14	16673.98
487.32	16779.30
487.50	17074.21
487.68	17439.33
487.85	17495.50
488.03	17654.66
488.21	17781.05
488.39	17764.67
488.57	17523.59
488.75	18178.94
488.92	17980.00
489.10	18583.85
489.28	18204.69
489.46	18707.90
489.64	18717.26
489.81	19161.97
489.99	19131.54
490.17	19122.18
490.35	19360.91
490.53	19304.74
490.70	19496.66
490.88	19377.30
491.06	19782.21
491.24	19601.99
491.41	19983.49
491.59	20236.27
491.77	19995.20
491.95	19934.34
492.13	20306.49
492.30	20444.58
492.48	20805.02
492.66	20830.77
492.84	20737.15
493.01	20999.29
493.19	20861.19
493.37	21172.49
493.54	21352.71
493.72	21472.07
493.90	21458.03
494.08	21830.18
494.25	21963.59
494.43	21965.93
494.61	22061.89
494.79	22506.59
494.96	22300.62
495.14	22089.98
495.32	22218.71
495.49	22796.82
495.67	22955.97
495.85	22869.37
496.02	23337.48
496.20	23377.27
496.38	23122.15
496.55	23410.04
496.73	23950.70
496.91	23637.07
497.09	23934.32
497.26	24063.05
497.44	23805.59
497.62	23910.91
497.79	24301.78
497.97	24257.31
498.14	23999.85
498.32	24149.65
498.50	24362.64
498.67	24854.15
498.85	24851.81
499.03	25186.50
499.20	24910.32
499.38	25055.43
499.56	25221.61
499.73	25261.40
499.91	25149.06
500.08	25359.70
500.26	25362.04
500.44	25422.90
500.61	25776.32
500.79	25486.09
500.97	25572.69
501.14	26258.47
501.32	25799.73
501.49	26225.70
501.67	26370.82
501.84	26347.41
502.02	26436.35
502.20	26457.42
502.37	26497.20
502.55	26635.30
502.72	26616.57
502.90	26799.13
503.07	26457.42
503.25	27033.19
503.43	26792.11
503.60	27187.66
503.78	27449.80
503.95	26937.23
504.13	27318.73
504.30	27424.06
504.48	27199.37
504.65	27758.75
504.83	27838.33
505.01	27997.49
505.18	27756.41
505.36	27943.66
505.53	28027.92
505.71	28699.65
505.88	28437.51
506.06	28163.67
506.23	28254.95
506.41	28168.35
506.58	28208.14
506.76	28304.10
506.93	28835.40
507.11	28783.91
507.28	28568.58
507.46	28945.41
507.63	29242.65
507.81	29064.77
507.98	29020.30
508.16	29399.47
508.33	29106.90
508.50	29387.77
508.68	29399.47
508.85	29993.97
509.03	29844.17
509.20	29802.04
509.38	29766.93
509.55	29715.44
509.73	29993.97
509.90	30195.25
510.08	30050.14
510.25	30340.36
510.42	30089.93
510.60	30239.72
510.77	30778.04
510.95	30771.02
511.12	30813.15
511.30	30841.24
511.47	30948.90
511.64	30925.50
511.82	30927.84
511.99	30948.90
512.17	30801.45
512.34	31094.02
512.51	31157.21
512.69	31349.14
512.86	31356.16
513.04	31805.54
513.21	31538.72
513.38	31236.79
513.56	31882.78
513.73	31632.34
513.90	31850.01
514.08	31559.78
514.25	31936.61
514.43	32002.14
514.60	32018.53
514.77	32182.37
514.95	32219.81
515.12	32266.63
515.29	32744.09
515.47	32622.39
515.64	32563.87
515.81	32598.98
515.99	32510.04
516.16	32507.70
516.33	32519.40
516.51	32664.52
516.68	32163.64
516.85	31945.97
517.03	32514.72
517.20	33230.93
517.37	33317.53
517.54	33308.16
517.72	33282.42
517.89	33193.48
518.06	32978.15
518.24	33432.21
518.41	33146.67
518.58	33319.87
518.75	33450.94
518.93	33834.78
519.10	33661.58
519.27	33996.28
519.45	34029.05
519.62	34080.54
519.79	34197.57
519.96	33940.11
520.14	34146.08
520.31	34199.91
520.48	34616.52
520.65	34410.56
520.83	34651.63
521.00	34808.45
521.17	34345.02
521.34	34656.31
521.52	34918.45
521.69	34899.73
521.86	35302.30
522.03	35187.61
522.20	35016.75
522.38	35297.62
522.55	35248.47
522.72	34974.63
522.89	35234.42
523.07	35262.51
523.24	35349.11
523.41	35739.98
523.58	35119.74
523.75	35868.71
523.92	35941.27
524.10	35903.82
524.27	36332.14
524.44	36219.79
524.61	35971.69
524.78	36261.92
524.96	36491.29
525.13	36395.33
525.30	36669.17
525.47	36554.49
525.64	36407.03
525.81	36416.40
525.98	36360.22
526.16	36037.23
526.33	36325.11
526.50	36477.25
526.67	36439.80
526.84	36299.37
527.01	36231.49
527.18	36552.15
527.36	36713.64
527.53	36856.42
527.70	37376.01
527.87	37406.44
528.04	37490.70
528.21	37254.31
528.38	37181.75
528.55	37427.51
528.72	37574.96
528.89	37619.43
529.07	37460.27
529.24	37502.40
529.41	37741.14
529.58	37553.90
529.75	37652.20
529.92	37717.73
530.09	37516.45
530.26	37691.99
530.43	38036.05
530.60	37504.74
530.77	37682.62
530.94	38490.11
531.11	38230.31
531.28	38335.63
531.46	38586.07
531.63	38433.94
531.80	38469.04
531.97	38014.98
532.14	38637.56
532.31	37958.81
532.48	38356.70
532.65	38429.26
532.82	38504.15
532.99	38988.64
533.16	38665.65
533.33	38476.07
533.50	38857.57
533.67	39112.69
533.84	38752.25
534.01	38653.95
534.18	38890.34
534.35	39250.78
534.52	39019.07
534.69	39274.19
534.86	39330.36
535.03	39161.84
535.20	39199.29
535.37	39206.31
535.54	39651.02
535.71	39431.01
535.88	39723.57
536.05	39077.58
536.22	39587.82
536.38	39988.05
536.55	40030.18
536.72	39519.95
536.89	39548.03
537.06	39690.80
537.23	39737.62
537.40	39749.32
537.57	39784.43
537.74	39655.70
537.91	39929.54
538.08	39878.05
538.25	39943.58
538.42	40322.75
538.59	40259.55
538.75	40334.45
538.92	40238.49
539.09	40271.26
539.26	39754.00
539.43	40102.74
539.60	40540.42
539.77	40116.78
539.94	40247.85
540.11	40191.68
540.28	40065.29
540.44	40198.70
540.61	39959.97
540.78	40020.82
540.95	40591.91
541.12	40645.74
541.29	40521.69
541.46	40493.61
541.62	40935.97
541.79	40608.29
541.96	40556.80
542.13	40903.20
542.30	40896.18
542.47	41195.77
542.63	41127.89
542.80	41146.62
542.97	41560.89
543.14	41603.02
543.31	41598.34
543.48	41944.74
543.64	42129.64
543.81	41778.56
543.98	42223.26
544.15	41481.31
544.32	41670.90
544.48	41937.72
544.65	41780.90
544.82	42251.35
544.99	41731.75
545.16	42050.06
545.32	41731.75
545.49	42054.75
545.66	41881.55
545.83	42522.85
546.00	42103.90
546.16	42494.77
546.33	41916.65
546.50	41841.76
546.67	41832.39
546.83	42263.05
547.00	42131.98
547.17	42169.43
547.34	42160.07
547.50	42440.93
547.67	42492.43
547.84	42160.07
548.00	42990.96
548.17	42686.69
548.34	42326.25
548.51	42845.85
548.67	42841.17
548.84	42850.53
549.01	42986.28
549.18	42342.63
549.34	42635.20
549.51	42918.40
549.68	42974.58
549.84	43192.25
550.01	42988.62
550.18	42543.92
550.34	43122.03
550.51	43012.02
550.68	42834.14
550.84	42777.97
551.01	43047.13
551.18	43154.80
551.34	43217.99
551.51	43278.85
551.68	43325.66
551.84	43225.01
552.01	43107.99
552.18	43484.81
552.34	42717.12
552.51	43653.33
552.68	43372.47
552.84	43353.74
553.01	43608.86
553.18	43058.84
553.34	43154.80
553.51	43531.62
553.67	43910.79
553.84	43405.23
554.01	43636.95
554.17	43756.32
554.34	43854.62
554.51	43824.19
554.67	43847.60
554.84	43625.25
555.00	43536.30
555.17	44039.52
555.33	44102.71
555.50	43756.32
555.67	43819.51
555.83	44079.31
556.00	43910.79
556.16	44219.74
556.33	44074.63
556.50	43618.22
556.66	43863.98
556.83	43604.18
556.99	44091.01
557.16	44060.58
557.32	44371.88
557.49	43597.16
557.65	43871.00
557.82	43999.73
557.98	43903.77
558.15	44062.93
558.32	44385.92
558.48	44168.25
558.65	43992.71
558.81	43868.66
558.98	44156.55
559.14	44332.09
559.31	44367.20
559.47	44273.57
559.64	44362.51
559.80	44739.34
559.97	44683.17
560.13	43973.98
560.30	44369.54
560.46	44203.36
560.63	44163.57
560.79	44547.42
560.96	44795.51
561.12	44177.61
561.29	44430.39
561.45	44704.23
561.61	44554.44
561.78	44505.29
561.94	44329.75
562.11	44645.72
562.27	44535.71
562.44	44367.20
562.60	44626.99
562.77	44669.12
562.93	44868.07
563.10	44786.15
563.26	44416.35
563.42	45226.17
563.59	45057.65
563.75	44411.67
563.92	44582.52
564.08	44966.37
564.24	45116.17
564.41	45088.08
564.57	44439.75
564.74	45464.91
564.90	44837.64
565.07	45399.37
565.23	44514.65
565.39	44732.32
565.56	45132.55
565.72	44697.21
565.88	44783.81
566.05	44552.10
566.21	45303.41
566.38	44683.17
566.54	45134.89
566.70	45233.19
566.87	45223.83
567.03	44832.96
567.19	45502.35
567.36	45265.96
567.52	45277.66
567.68	44945.31
567.85	44966.37
568.01	44957.01
568.17	44877.43
568.34	45305.75
568.50	45160.64
568.66	45162.98
568.83	45324.47
568.99	44884.45
569.15	44940.63
569.32	45467.25
569.48	44645.72
569.64	45071.70
569.81	45153.62
569.97	44989.78
570.13	45095.10
570.30	44584.86
570.46	44914.88
570.62	44884.45
570.78	44900.84
570.95	45017.86
571.11	45497.67
571.27	44762.75
571.43	44992.12
571.60	45392.35
571.76	45233.19
571.92	44987.44
572.09	45207.45
572.25	45191.06
572.41	45338.52
572.57	45574.91
572.74	45420.44
572.90	44554.44
573.06	45291.71
573.22	45160.64
573.38	45490.65
573.55	44844.66
573.71	45408.73
573.87	44807.22
574.03	45031.91
574.20	45074.04
574.36	45242.56
574.52	45057.65
574.68	45404.05
574.84	45504.70
575.01	45221.49
575.17	45282.34
575.33	45345.54
575.49	45212.13
575.65	45453.20
575.82	45153.62
575.98	45146.59
576.14	45488.31
576.30	45467.25
576.46	45027.23
576.62	44989.78
576.79	45542.14
576.95	44942.97
577.11	45830.03
577.27	45577.25
577.43	45570.23
577.59	45471.93
577.75	45504.70
577.92	45184.04
578.08	45310.43
578.24	45251.92
578.40	45013.18
578.56	45467.25
578.72	45577.25
578.88	45626.40
579.04	45713.00
579.21	45361.92
579.37	45738.75
579.53	45109.14
579.69	44931.26
579.85	45790.24
580.01	45523.42
580.17	45696.62
580.33	45518.74
580.49	45296.39
580.65	45780.88
580.82	45432.14
580.98	45593.64
581.14	45567.89
581.30	45528.10
581.46	45287.03
581.62	45797.26
581.78	45556.19
581.94	45713.00
582.10	45954.08
582.26	45441.50
582.42	45598.32
582.58	45799.60
582.74	45280.00
582.90	45621.72
583.06	45385.33
583.22	45624.06
583.38	46080.47
583.54	45607.68
583.70	45001.48
583.86	45352.56
584.02	44919.56
584.18	45675.55
584.34	45827.69
584.50	45359.58
584.66	45900.25
584.82	45148.93
584.98	45797.26
585.14	45621.72
585.30	45558.53
585.46	45532.78
585.62	45551.51
585.78	45642.79
585.94	45125.53
586.10	45481.29
586.26	45235.53
586.42	45371.28
586.58	45397.03
586.74	45638.11
586.90	45272.98
587.06	45193.40
587.22	45811.31
587.38	45099.78
587.54	45949.40
587.70	46057.06
587.86	45514.06
588.02	45743.43
588.18	46293.46
588.34	45394.69
588.49	45141.91
588.65	45083.40
588.81	45013.18
588.97	45495.33
589.13	45064.67
589.29	45251.92
589.45	45584.27
589.61	45432.14
589.77	45801.94
589.93	45736.41
590.08	45776.20
590.24	46272.39
590.40	45970.46
590.56	46099.19
590.72	45815.99
590.88	45748.11
591.04	45691.94
591.20	46216.22
591.35	46068.76
591.51	46129.62
591.67	45705.98
591.83	45900.25
591.99	46003.23
592.15	45841.73
592.31	45743.43
592.46	45823.01
592.62	45525.76
592.78	45804.28
592.94	46099.19
593.10	45771.52
593.26	46031.32
593.41	45951.74
593.57	45677.90
593.73	45633.42
593.89	45961.10
594.05	45698.96
594.20	45635.77
594.36	46064.08
594.52	46192.81
594.68	46270.05
594.84	46099.19
594.99	46138.98
595.15	45612.36
595.31	45977.48
595.47	45963.44
595.62	46333.24
595.78	45780.88
595.94	45928.33
596.10	45865.14
596.25	46129.62
596.41	46085.15
596.57	45834.71
596.73	45846.41
596.88	45429.80
597.04	45631.08
597.20	46138.98
597.36	46169.41
597.51	45710.66
597.67	45860.46
597.83	46033.66
597.99	46162.39
598.14	46012.59
598.30	46082.81
598.46	45769.18
598.61	45918.97
598.77	45799.60
598.93	45593.64
599.09	45982.16
599.24	46150.68
599.40	45790.24
599.56	46185.79
599.71	45797.26
599.87	46237.28
600.03	45895.56
600.18	46176.43
600.34	46101.53
600.50	46225.58
600.65	45684.92
600.81	46272.39
600.97	45928.33
601.12	46131.96
601.28	46494.74
601.44	45804.28
601.59	45764.49
601.75	45427.46
601.91	45717.68
602.06	45684.92
602.22	45996.21
602.37	45979.82
602.53	45839.39
602.69	45881.52
602.84	45925.99
603.00	45830.03
603.16	45874.50
603.31	45593.64
603.47	45755.13
603.62	45675.55
603.78	45841.73
603.94	45928.33
604.09	46017.27
604.25	45546.82
604.40	45949.40
604.56	45460.23
604.71	45488.31
604.87	45668.53
605.03	45595.98
605.18	45708.32
605.34	45645.13
605.49	45717.68
605.65	45811.31
605.80	45780.88
605.96	46129.62
606.12	45961.10
606.27	45780.88
606.43	45331.50
606.58	45895.56
606.74	45485.97
606.89	45830.03
607.05	45670.87
607.20	45762.15
607.36	45556.19
607.51	45689.60
607.67	46028.98
607.82	45542.14
607.98	45354.90
608.13	45350.22
608.29	45146.59
608.44	45251.92
608.60	45200.43
608.75	45638.11
608.91	45137.23
609.06	45691.94
609.22	45944.72
609.37	45373.63
609.53	45944.72
609.68	45434.48
609.84	45450.86
609.99	45893.22
610.15	45188.72
610.30	45357.24
610.46	45434.48
610.61	45366.60
610.76	45336.18
610.92	45059.99
611.07	45923.65
611.23	45270.64
611.38	45375.97
611.54	45092.76
611.69	44832.96
611.84	45067.02
612.00	45083.40
612.15	45137.23
612.31	45401.71
612.46	45188.72
612.62	45151.27
612.77	44978.07
612.92	45647.47
613.08	44907.86
613.23	45109.14
613.39	44828.28
613.54	44802.53
613.69	44641.04
613.85	44882.11
614.00	45045.95
614.15	45256.60
614.31	45291.71
614.46	45048.29
614.62	44919.56
614.77	44765.09
614.92	44744.02
615.08	44809.56
615.23	44477.20
615.38	44556.78
615.54	44598.91
615.69	44465.50
615.84	44353.15
616.00	44898.50
616.15	44706.57
616.30	44573.16
616.46	44495.92
616.61	44175.27
616.76	44662.10
616.92	44414.01
617.07	44334.43
617.22	44105.06
617.37	44020.80
617.53	44772.11
617.68	44446.77
617.83	44409.32
617.99	44678.49
618.14	44442.09
618.29	44299.32
618.45	44388.26
618.60	44165.91
618.75	44432.73
618.90	44334.43
619.06	44350.81
619.21	44542.74
619.36	44224.42
619.51	44282.94
619.67	44002.07
619.82	43999.73
619.97	44135.48
620.12	43236.72
620.28	43566.73
620.43	43597.16
620.58	43995.05
620.73	43791.42
620.89	43634.61
621.04	43906.11
621.19	43763.34
621.34	43959.94
621.49	43959.94
621.65	43587.80
621.80	43796.10
621.95	43241.40
622.10	44023.14
622.25	43885.04
622.41	43597.16
622.56	43225.01
622.71	44170.59
622.86	43552.69
623.01	43725.89
623.16	43866.32
623.32	43313.95
623.47	43959.94
623.62	43433.32
623.77	43274.16
623.92	43236.72
624.07	43051.81
624.23	43168.84
624.38	43136.07
624.53	43428.64
624.68	43416.94
624.83	43105.65
624.98	43089.26
625.13	43239.06
625.29	43517.58
625.44	43494.18
625.59	43203.95
625.74	42902.02
625.89	42607.11
626.04	42351.99
626.19	42883.30
626.34	42920.74
626.49	43164.16
626.65	43126.71
626.80	43107.99
626.95	42843.51
627.10	42700.73
627.25	42417.53
627.40	42492.43
627.55	42377.74
627.70	42162.41
627.85	42171.77
628.00	42459.66
628.15	42906.70
628.30	42728.82
628.45	42670.31
628.60	42389.44
628.76	43084.58
628.91	42834.14
629.06	42342.63
629.21	42295.82
629.36	42036.02
629.51	42564.98
629.66	41914.31
629.81	41897.93
629.96	42469.02
630.11	42232.63
630.26	42342.63
630.41	42384.76
630.56	42204.54
630.71	42139.00
630.86	42403.49
631.01	41752.82
631.16	41921.34
631.31	42382.42
631.46	41963.46
631.61	41790.27
631.76	42443.27
631.91	41867.50
632.06	41989.21
632.21	41832.39
632.36	41820.69
632.51	41553.87
632.66	42064.11
632.81	41392.37
632.96	41495.36
633.10	41794.95
633.25	41652.17
633.40	41179.39
633.55	42101.56
633.70	41619.41
633.85	41689.62
634.00	42029.00
634.15	41591.32
634.30	41357.27
634.45	41778.56
634.60	41167.68
634.75	41488.34
634.90	41551.53
635.05	41549.19
635.19	41291.73
635.34	41404.08
635.49	41586.64
635.64	40844.69
635.79	41251.94
635.94	41605.36
636.09	41399.40
636.24	41078.74
636.39	41090.44
636.53	40966.40
636.68	40629.36
636.83	41184.07
636.98	41212.15
637.13	40910.22
637.28	40910.22
637.43	40737.02
637.57	41509.40
637.72	40744.05
637.87	41167.68
638.02	41092.79
638.17	40959.38
638.32	40495.95
638.46	39997.41
638.61	40563.82
638.76	40535.74
638.91	40870.43
639.06	40954.69
639.20	40730.00
639.35	40715.96
639.50	40407.01
639.65	41034.27
639.80	40739.36
639.94	40620.00
640.09	40938.31
640.24	40509.99
640.39	40842.35
640.54	40350.84
640.68	40444.46
640.83	40545.10
640.98	40006.78
641.13	39950.60
641.27	40194.02
641.42	40257.21
641.57	40353.18
641.72	40460.84
641.86	39824.22
642.01	40142.53
642.16	40418.71
642.31	39875.71
642.45	40032.52
642.60	39681.44
642.75	39576.12
642.90	40002.10
643.04	40020.82
643.19	39674.42
643.34	40079.33
643.48	39817.19
643.63	40299.34
643.78	39821.87
643.93	39620.59
644.07	39810.17
644.22	39480.16
644.37	39487.18
644.51	39571.44
644.66	39908.47
644.81	39807.83
644.95	39749.32
645.10	39463.77
645.25	39688.46
645.39	39962.31
645.54	39756.34
645.69	39599.52
645.83	39707.19
645.98	39541.01
646.13	39510.58
646.27	40016.14
646.42	39227.38
646.57	39805.49
646.71	39597.18
646.86	39538.67
647.00	39566.76
647.15	39906.13
647.30	39161.84
647.44	39358.45
647.59	39250.78
647.74	39166.52
647.88	38799.06
648.03	39084.61
648.17	39414.62
648.32	38733.53
648.47	38852.89
648.61	38801.40
648.76	38909.07
648.90	38614.16
649.05	38845.87
649.20	38705.44
649.34	39419.30
649.49	38611.82
649.63	38965.24
649.78	38920.77
649.92	38899.70
650.07	38756.93
650.21	38670.33
650.36	39232.06
650.51	38815.44
650.65	39182.91
650.80	39040.14
650.94	39203.97
651.09	39213.34
651.23	38356.70
651.38	38855.23
651.52	38330.95
651.67	38494.79
651.81	38698.42
651.96	38412.87
652.10	38499.47
652.25	38155.41
652.39	37853.48
652.54	38459.68
652.68	38527.56
652.83	38836.51
652.97	38639.90
653.12	38424.57
653.26	38522.88
653.41	38497.13
653.55	38108.60
653.70	38253.72
653.84	37940.08
653.99	38375.42
654.13	38539.26
654.27	38307.55
654.42	38134.35
654.56	38101.58
654.71	38031.36
654.85	38522.88
655.00	38132.01
655.14	37680.28
655.29	37312.82
655.43	37479.00
655.57	37769.22
655.72	37308.14
655.86	37315.16
656.01	37605.39
656.15	37551.56
656.30	37322.18
656.44	37394.74
656.58	37347.93
656.73	37298.78
656.87	37053.02
657.01	37617.09
657.16	37301.12
657.30	36987.49
657.45	37139.62
657.59	37677.94
657.73	37001.53
657.88	37359.63
658.02	37371.33
658.16	37607.73
658.31	37008.55
658.45	37415.80
658.60	37006.21
658.74	36928.97
658.88	37570.28
659.03	36893.86
659.17	36774.50
659.31	36879.82
659.46	37254.31
659.60	36402.35
659.74	36947.70
659.89	36404.69
660.03	36732.37
660.17	36694.92
660.32	36739.39
660.46	36868.12
660.60	36568.53
660.74	36645.77
660.89	36540.44
661.03	36257.24
661.17	36378.95
661.32	36282.98
661.46	36210.43
661.60	36332.14
661.74	36025.53
661.89	36608.32
662.03	35985.74
662.17	36065.31
662.31	35955.31
662.46	36339.16
662.60	35941.27
662.74	36058.29
662.88	35908.50
663.03	35857.01
663.17	35742.32
663.31	35660.40
663.45	35545.72
663.60	35409.96
663.74	35534.01
663.88	35424.01
664.02	35452.09
664.17	35646.36
664.31	35026.12
664.45	34969.94
664.59	35157.19
664.73	35194.64
664.88	35634.66
665.02	34979.31
665.16	34721.85
665.30	35122.08
665.44	34756.96
665.59	35005.05
665.73	34635.25
665.87	34733.55
666.01	34604.82
666.15	34988.67
666.29	34724.19
666.44	34665.67
666.58	34672.70
666.72	34586.10
666.86	34665.67
667.00	34593.12
667.14	34462.05
667.28	34316.93
667.43	34019.69
667.57	34637.59
667.71	34176.50
667.85	33879.25
667.99	34352.04
668.13	34188.21
668.27	33876.91
668.41	34223.31
668.56	33659.24
668.70	33553.92
668.84	33757.55
668.98	34029.05
669.12	33795.00
669.26	33464.98
669.40	33521.15
669.54	33333.91
669.68	33612.43
669.82	33434.55
669.96	32912.61
670.10	33223.90
670.25	33874.57
670.39	33469.66
670.53	33425.19
670.67	32788.56
670.81	32966.45
670.95	33432.21
671.09	33277.74
671.23	33001.55
671.37	32847.08
671.51	32830.69
671.65	32540.47
671.79	32304.07
671.93	32699.62
672.07	32987.51
672.21	32627.07
672.35	32421.10
672.49	32236.20
672.63	32308.76
672.77	32362.59
672.91	32079.38
673.05	32107.47
673.19	31875.76
673.33	31585.53
673.47	31861.71
673.61	31538.72
673.75	31297.64
673.89	31475.52
674.03	31234.45
674.17	31428.71
674.31	31349.14
674.45	31349.14
674.59	31728.30
674.73	31189.98
674.87	31400.63
675.01	31328.07
675.15	31019.12
675.29	30869.33
675.43	31021.46
675.56	31283.60
675.70	30782.73
675.84	30866.98
675.98	29670.97
676.12	30298.23
676.26	30129.72
676.40	30410.58
676.54	30401.22
676.68	30139.08
676.82	29567.99
676.96	29895.66
677.10	30000.99
677.23	29872.26
677.37	29766.93
677.51	29518.84
677.65	29518.84
677.79	29411.17
677.93	29495.43
678.07	29343.30
678.21	29193.50
678.34	29127.97
678.48	29127.97
678.62	28971.15
678.76	29008.60
678.90	28472.62
679.04	28896.25
679.18	28486.66
679.31	28114.52
679.45	28648.16
679.59	28503.04
679.73	27924.93
679.87	28065.36
680.00	27946.00
680.14	27503.64
680.28	28053.66
680.42	27779.82
680.56	27859.40
680.70	27618.32
680.83	27742.37
680.97	27356.18
681.11	27470.87
681.25	27173.62
681.39	27124.47
681.52	27250.86
681.66	26895.10
681.80	27187.66
681.94	26939.57
682.07	26794.45
682.21	26843.60
682.35	26593.17
682.49	26487.84
682.62	26895.10
682.76	26448.05
682.90	26279.54
683.04	26389.54
683.17	26246.77
683.31	26368.48
683.45	26288.90
683.59	25680.36
683.72	25874.62
683.86	25439.28
684.00	25600.78
684.13	25516.52
684.27	25799.73
684.41	25455.67
684.55	25603.12
684.68	25603.12
684.82	25207.57
684.96	25305.87
685.09	24966.49
685.23	24760.53
685.37	24573.28
685.50	24905.64
685.64	24753.51
685.78	24662.22
685.91	24671.59
686.05	24060.71
686.19	23943.68
686.32	24430.51
686.46	23594.94
686.60	23653.45
686.73	23983.47
686.87	23716.65
687.01	23592.60
687.14	23372.59
687.28	22988.74
687.42	23754.10
687.55	23454.51
687.69	23374.93
687.82	23215.77
687.96	23201.73
688.10	22963.00
688.23	22923.21
688.37	22637.66
688.50	22384.88
688.64	22181.26
688.78	22698.52
688.91	22307.65
689.05	22574.47
689.18	22347.44
689.32	22017.42
689.46	22167.21
689.59	22649.36
689.73	22298.28
689.86	21886.35
690.00	21972.95
690.13	21886.35
690.27	21881.67
690.41	21624.21
690.54	21422.92
690.68	21207.59
690.81	21387.82
690.95	20868.22
691.08	20908.01
691.22	21451.01
691.35	20919.71
691.49	20695.02
691.62	20737.15
691.76	21348.03
691.89	20781.62
692.03	20503.09
692.16	20334.57
692.30	20369.68
692.43	20397.77
692.57	20278.40
692.70	20044.35
692.84	20105.20
692.97	20102.86
693.11	19807.95
693.24	19646.46
693.38	19719.01
693.51	19779.87
693.65	19840.72
693.78	19929.66
693.92	20098.18
694.05	19623.05
694.19	19594.96
694.32	19140.90
694.45	19267.29
694.59	19234.52
694.72	18885.78
694.86	19044.94
694.99	19056.64
695.13	18963.02
695.26	18771.10
695.39	18459.81
695.53	18703.22
695.66	18499.59
695.80	18686.84
695.93	18363.84
696.07	18075.96
696.20	18370.86
696.33	18216.39
696.47	18221.07
696.60	18225.75
696.73	18228.09
696.87	18134.47
697.00	18157.88
697.14	17888.71
697.27	17900.42
697.40	17928.50
697.54	17708.49
697.67	17167.83
697.80	17275.49
697.94	17455.72
698.07	17266.13
698.21	17362.09
698.34	17593.81
698.47	17090.59
698.61	16776.96
698.74	16716.11
698.87	16950.16
699.01	16500.78
699.14	16706.74
699.27	16718.45
699.40	16559.29
699.54	16217.57
699.67	16250.34
699.80	16233.96
699.94	16168.42
700.07	16259.70
700.20	16320.56
700.34	16030.33
700.47	16004.58
700.60	16074.80
700.73	16152.04
700.87	15925.00
701.00	15683.93
701.13	15613.71
701.26	15983.52
701.40	15763.51
701.53	15337.53
701.66	15417.11
701.79	15426.47
701.93	15267.31
702.06	15096.46
702.19	14871.76
702.32	15241.57
702.46	15297.74
702.59	14635.37
702.72	15119.86
702.85	14733.67
702.99	14850.70
703.12	14918.57
703.25	14721.97
703.38	14527.71
703.51	14675.16
703.65	14628.35
703.78	14195.35
703.91	14499.62
704.04	14469.19
704.17	14223.44
704.31	14078.32
704.44	14148.54
704.57	13902.78
704.70	13858.31
704.83	13776.39
704.96	13818.52
705.10	13820.86
705.23	13841.93
>>>>>End Processed Spectral Data<<<<<
