SpectraSuite Data File
++++++++++++++++++++++++++++++++++++
Date: Fri Oct 25 11:34:44 EDT 2013
User: price-jones
Dark Spectrum Present: No
Reference Spectrum Present: No
Number of Sampled Component Spectra: 1
Spectrometers: USB2+H05261
Integration Time (usec): 100000 (USB2+H05261)
Spectra Averaged: 1 (USB2+H05261)
Boxcar Smoothing: 0 (USB2+H05261)
Correct for Electrical Dark: No (USB2+H05261)
Strobe/Lamp Enabled: No (USB2+H05261)
Correct for Detector Non-linearity: No (USB2+H05261)
Correct for Stray Light: No (USB2+H05261)
Number of Pixels in Processed Spectrum: 2048
>>>>>Begin Processed Spectral Data<<<<<
365.73	306.61
365.92	306.61
366.12	306.61
366.32	210.65
366.52	194.26
366.72	191.92
366.91	205.97
367.11	210.65
367.31	208.31
367.51	154.48
367.70	166.18
367.90	159.16
368.10	245.76
368.30	191.92
368.49	166.18
368.69	241.08
368.89	198.95
369.09	156.82
369.28	245.76
369.48	205.97
369.68	194.26
369.87	248.10
370.07	215.33
370.27	339.38
370.47	322.99
370.66	524.28
370.86	533.64
371.06	571.09
371.25	538.32
371.45	507.90
371.65	526.62
371.84	519.60
372.04	507.90
372.24	559.39
372.44	533.64
372.63	627.26
372.83	615.56
373.03	573.43
373.22	641.31
373.42	660.03
373.62	627.26
373.81	683.44
374.01	645.99
374.21	671.73
374.40	674.07
374.60	671.73
374.79	636.63
374.99	699.82
375.19	690.46
375.38	678.76
375.58	627.26
375.78	695.14
375.97	613.22
376.17	653.01
376.37	594.50
376.56	692.80
376.76	718.54
376.95	627.26
377.15	643.65
377.35	718.54
377.54	676.41
377.74	688.12
377.93	648.33
378.13	613.22
378.33	690.46
378.52	678.76
378.72	627.26
378.91	634.29
379.11	631.94
379.31	667.05
379.50	641.31
379.70	681.10
379.89	720.88
380.09	697.48
380.28	713.86
380.48	713.86
380.68	711.52
380.87	767.70
381.07	802.80
381.26	784.08
381.46	744.29
381.65	758.33
381.85	699.82
382.04	767.70
382.24	823.87
382.43	751.31
382.63	791.10
382.83	758.33
383.02	798.12
383.22	781.74
383.41	730.25
383.61	875.36
383.80	774.72
384.00	711.52
384.19	816.85
384.39	875.36
384.58	812.17
384.78	805.14
384.97	828.55
385.17	847.27
385.36	739.61
385.56	786.42
385.75	833.23
385.95	866.00
386.14	830.89
386.34	870.68
386.53	774.72
386.72	816.85
386.92	858.98
387.11	875.36
387.31	821.53
387.50	805.14
387.70	814.51
387.89	873.02
388.09	868.34
388.28	866.00
388.48	800.46
388.67	863.66
388.86	880.04
389.06	861.32
389.25	875.36
389.45	940.90
389.64	854.30
389.84	896.43
390.03	966.64
390.22	968.98
390.42	950.26
390.61	882.38
390.81	950.26
391.00	954.94
391.19	961.96
391.39	880.04
391.58	943.24
391.78	945.58
391.97	983.02
392.16	1015.79
392.36	1081.33
392.55	940.90
392.75	1015.79
392.94	997.07
393.13	1050.90
393.33	1069.62
393.52	1022.81
393.71	1041.54
393.91	1135.16
394.10	1048.56
394.29	1027.50
394.49	1008.77
394.68	1114.10
394.88	1015.79
395.07	1184.31
395.26	1097.71
395.46	1123.46
395.65	1088.35
395.84	1128.14
396.04	1184.31
396.23	1104.73
396.42	1151.54
396.62	1158.57
396.81	1170.27
397.00	1100.05
397.19	1179.63
397.39	1219.42
397.58	1210.06
397.77	1174.95
397.97	1224.10
398.16	1266.23
398.35	1221.76
398.55	1303.68
398.74	1280.27
398.93	1336.45
399.12	1203.04
399.32	1242.82
399.51	1284.95
399.70	1294.32
399.90	1299.00
400.09	1291.98
400.28	1331.76
400.47	1451.13
400.67	1383.26
400.86	1270.91
401.05	1453.47
401.24	1359.85
401.44	1376.24
401.63	1331.76
401.82	1413.68
402.01	1345.81
402.21	1404.32
402.40	1448.79
402.59	1490.92
402.78	1430.07
402.97	1430.07
403.17	1516.67
403.36	1462.83
403.55	1493.26
403.74	1542.41
403.93	1462.83
404.13	1483.90
404.32	1460.49
404.51	1610.29
404.70	1497.94
404.89	1535.39
405.09	1671.14
405.28	1657.10
405.47	1600.93
405.66	1614.97
405.85	1579.86
406.05	1680.50
406.24	1643.06
406.43	1701.57
406.62	1657.10
406.81	1694.55
407.00	1687.53
407.20	1722.63
407.39	1713.27
407.58	1781.15
407.77	1823.28
407.96	1872.43
408.15	1764.76
408.34	1760.08
408.54	1816.26
408.73	1851.36
408.92	1790.51
409.11	1825.62
409.30	1919.24
409.49	1879.45
409.68	1802.21
409.87	1909.88
410.07	1949.67
410.26	2008.18
410.45	1881.79
410.64	1961.37
410.83	1987.11
411.02	2083.08
411.21	2115.84
411.40	1956.69
411.59	2139.25
411.78	2045.63
411.98	2097.12
412.17	2115.84
412.36	2181.38
412.55	2186.06
412.74	2172.02
412.93	2218.83
413.12	2167.34
413.31	2298.41
413.50	2310.11
413.69	2270.32
413.88	2406.07
414.07	2277.34
414.26	2335.85
414.45	2434.16
414.64	2377.98
414.83	2434.16
415.02	2480.97
415.22	2518.42
415.41	2532.46
415.60	2513.74
415.79	2518.42
415.98	2693.96
416.17	2630.76
416.36	2506.71
416.55	2684.59
416.74	2757.15
416.93	2700.98
417.12	2719.70
417.31	2724.38
417.50	2768.85
417.69	2906.95
417.88	2771.19
418.07	2722.04
418.26	2885.88
418.45	2867.16
418.64	2853.11
418.83	2904.60
419.02	2979.50
419.21	2928.01
419.39	3049.72
419.58	2991.20
419.77	3035.67
419.96	2958.44
420.15	3098.87
420.34	3014.61
420.53	3028.65
420.72	3176.11
420.91	3155.04
421.10	3211.22
421.29	3000.57
421.48	3150.36
421.67	3122.27
421.86	3185.47
422.05	3133.98
422.24	3094.19
422.43	3141.00
422.61	3197.17
422.80	3286.11
422.99	3295.47
423.18	3283.77
423.37	3290.79
423.56	3286.11
423.75	3286.11
423.94	3234.62
424.13	3145.68
424.32	3155.04
424.50	3218.24
424.69	3346.97
424.88	3323.56
425.07	3377.39
425.26	3187.81
425.45	3089.51
425.64	3258.03
425.83	3243.98
426.01	3403.14
426.20	3311.86
426.39	3178.45
426.58	3173.77
426.77	3316.54
426.96	3321.22
427.15	3393.78
427.33	3475.70
427.52	3361.01
427.71	3398.46
427.90	3421.86
428.09	3506.12
428.28	3588.04
428.46	3595.06
428.65	3456.97
428.84	3672.30
429.03	3609.11
429.22	3389.10
429.40	3566.98
429.59	3613.79
429.78	3489.74
429.97	3578.68
430.16	3571.66
430.34	3578.68
430.53	3641.87
430.72	3765.92
430.91	3721.45
431.10	3679.32
431.28	3702.73
431.47	3684.00
431.66	3892.31
431.85	3861.88
432.03	3854.86
432.22	3882.95
432.41	3920.40
432.60	3861.88
432.79	3948.48
432.97	3840.82
433.16	3953.16
433.35	3754.22
433.54	4014.02
433.72	4011.68
433.91	4070.19
434.10	4142.75
434.28	3925.08
434.47	4065.51
434.66	4159.13
434.85	4079.55
435.03	3997.64
435.22	4112.32
435.41	4084.23
435.59	4180.20
435.78	4093.60
435.97	4262.12
436.16	4187.22
436.34	4135.73
436.53	4222.33
436.72	4372.12
436.90	4098.28
437.09	4329.99
437.28	4030.40
437.46	4360.42
437.65	4271.48
437.84	4472.76
438.02	4458.72
438.21	4369.78
438.40	4344.03
438.58	4477.44
438.77	4482.13
438.96	4528.94
439.14	4442.34
439.33	4631.92
439.52	4690.43
439.70	4613.20
439.89	4645.96
440.08	4784.06
440.26	4765.33
440.45	4877.68
440.63	4699.80
440.82	4980.66
441.01	4880.02
441.19	4835.55
441.38	4894.06
441.57	5004.07
441.75	5118.75
441.94	5043.85
442.12	5240.46
442.31	5125.77
442.50	5046.20
442.68	5195.99
442.87	5125.77
443.05	5184.29
443.24	5268.55
443.43	5331.74
443.61	5331.74
443.80	5444.09
443.98	5254.50
444.17	5046.20
444.35	5287.27
444.54	5298.97
444.73	5420.68
444.91	5401.96
445.10	5413.66
445.28	5219.39
445.47	5305.99
445.65	5495.58
445.84	5270.89
446.02	5406.64
446.21	5420.68
446.39	5270.89
446.58	5348.12
446.77	5467.49
446.95	5331.74
447.14	5425.36
447.32	5479.19
447.51	5413.66
447.69	5507.28
447.88	5390.25
448.06	5507.28
448.25	5446.43
448.43	5631.33
448.62	5603.24
448.80	5600.90
448.99	5638.35
449.17	5568.13
449.36	5586.86
449.54	5619.63
449.73	5827.93
449.91	5624.31
450.10	5790.49
450.28	5860.70
450.46	5699.20
450.65	5886.45
450.83	5888.79
451.02	5633.67
451.20	5818.57
451.39	5914.53
451.57	5970.71
451.76	5832.62
451.94	5830.27
452.13	6017.52
452.31	5909.85
452.49	5713.25
452.68	5980.07
452.86	6054.97
453.05	6113.48
453.23	6129.86
453.42	5994.11
453.60	5937.94
453.78	6097.10
453.97	6097.10
454.15	6073.69
454.34	6057.31
454.52	5987.09
454.70	6354.55
454.89	6221.14
455.07	6078.37
455.26	6354.55
455.44	6317.11
455.62	6335.83
455.81	6476.26
455.99	6216.46
456.17	6436.47
456.36	6401.37
456.54	6314.77
456.73	6712.66
456.91	6597.97
457.09	6644.78
457.28	6862.45
457.46	6649.46
457.64	6754.79
457.83	6593.29
458.01	6712.66
458.19	6782.87
458.38	6768.83
458.56	6939.69
458.74	6768.83
458.93	6785.21
459.11	6883.52
459.29	6935.01
459.48	7117.57
459.66	6855.43
459.84	6911.60
460.03	7070.76
460.21	7061.40
460.39	6946.71
460.57	6991.18
460.76	7152.68
460.94	7056.72
461.12	7190.13
461.31	7227.57
461.49	7098.84
461.67	7070.76
461.85	7288.43
462.04	7162.04
462.22	7265.02
462.40	7297.79
462.59	7363.33
462.77	7293.11
462.95	7405.46
463.13	7208.85
463.32	7293.11
463.50	7379.71
463.68	7459.29
463.86	7428.86
464.05	7377.37
464.23	7482.69
464.41	7433.54
464.59	7246.30
464.78	7662.91
464.96	7534.18
465.14	7225.23
465.32	7534.18
465.50	7777.60
465.69	7676.96
465.87	7714.41
466.05	7646.53
466.23	7517.80
466.41	7545.89
466.60	7892.29
466.78	7681.64
466.96	7520.14
467.14	7801.01
467.32	7801.01
467.51	7889.95
467.69	7817.39
467.87	7880.58
468.05	8011.65
468.23	7950.80
468.41	7992.93
468.60	7992.93
468.78	7964.84
468.96	8035.06
469.14	8189.53
469.32	8327.63
469.50	8128.68
469.69	8402.52
469.87	8294.86
470.05	8313.58
470.23	8519.55
470.41	8379.12
470.59	8484.44
470.77	8318.26
470.95	8463.38
471.14	8671.68
471.32	8374.44
471.50	8369.76
471.68	8613.17
471.86	8807.44
472.04	8727.86
472.22	8755.94
472.40	8798.07
472.58	8669.34
472.77	8929.14
472.95	9107.02
473.13	9055.53
473.31	8884.67
473.49	8814.46
473.67	8863.61
473.85	8973.61
474.03	9207.67
474.21	9130.43
474.39	9219.37
474.57	9202.99
474.75	9268.52
474.93	9446.40
475.12	9387.89
475.30	9305.97
475.48	9486.19
475.66	9525.98
475.84	9635.99
476.02	9680.46
476.20	9710.88
476.38	9886.42
476.56	9832.59
476.74	10003.45
476.92	9951.96
477.10	10038.56
477.28	10087.71
477.46	10083.03
477.64	10420.06
477.82	10249.21
478.00	10305.38
478.18	10368.57
478.36	10771.15
478.54	10548.79
478.72	10644.76
478.90	10810.93
479.08	10857.75
479.26	10932.64
479.44	10836.68
479.62	11063.71
479.80	11286.06
479.98	11543.52
480.16	11658.21
480.34	11370.32
480.52	11749.49
480.70	11775.24
480.88	11506.07
481.06	11496.71
481.24	11712.04
481.41	11812.68
481.59	12233.98
481.77	12198.87
481.95	12222.28
482.13	12217.60
482.31	12224.62
482.49	12638.89
482.67	12645.91
482.85	13011.04
483.03	12564.00
483.21	12891.67
483.39	12973.59
483.57	12854.22
483.74	13167.85
483.92	13142.11
484.10	13317.65
484.28	13458.08
484.46	13720.22
484.64	13940.23
484.82	13851.29
485.00	13841.93
485.18	14153.22
485.35	14047.90
485.53	14265.57
485.71	14431.74
485.89	14562.81
486.07	14635.37
486.25	14448.13
486.43	14448.13
486.61	14970.07
486.78	14977.09
486.96	14834.32
487.14	15194.76
487.32	15096.46
487.50	15337.53
487.68	15494.35
487.85	15637.12
488.03	15943.73
488.21	15967.13
488.39	16222.25
488.57	16229.27
488.75	16180.12
488.92	16404.81
489.10	16702.06
489.28	16924.41
489.46	16819.09
489.64	16968.88
489.81	17027.40
489.99	17132.72
490.17	17420.61
490.35	17488.48
490.53	17465.08
490.70	17638.28
490.88	17411.25
491.06	17741.26
491.24	18097.02
491.41	17884.03
491.59	18005.74
491.77	18017.44
491.95	18057.23
492.13	18429.38
492.30	18518.32
492.48	18478.53
492.66	18600.24
492.84	18820.25
493.01	18970.04
493.19	19037.92
493.37	19164.31
493.54	19236.86
493.72	19304.74
493.90	19707.31
494.08	19847.74
494.25	19686.25
494.43	19702.63
494.61	20175.42
494.79	20194.14
494.96	20107.54
495.14	20088.82
495.32	20739.49
495.49	20606.08
495.67	20751.19
495.85	20676.29
496.02	20872.90
496.20	21078.86
496.38	21249.72
496.55	21261.43
496.73	21593.78
496.91	21598.46
497.09	21448.67
497.26	21759.96
497.44	21591.44
497.62	21598.46
497.79	22059.55
497.97	21659.32
498.14	22349.78
498.32	22295.94
498.50	22382.54
498.67	22693.83
498.85	22387.22
499.03	22824.90
499.20	22871.72
499.38	22593.19
499.56	22993.42
499.73	23145.56
499.91	23276.63
500.08	23208.75
500.26	23463.87
500.44	23222.80
500.61	23403.02
500.79	23187.69
500.97	23828.99
501.14	23941.34
501.32	23789.20
501.49	23463.87
501.67	24004.53
501.84	23899.21
502.02	24247.95
502.20	24294.76
502.37	24240.93
502.55	24278.38
502.72	24638.82
502.90	24428.17
503.07	24507.75
503.25	24524.13
503.43	24692.65
503.60	24851.81
503.78	25062.46
503.95	25078.84
504.13	25200.55
504.30	24957.13
504.48	25338.64
504.65	25245.02
504.83	25319.92
505.01	25446.30
505.18	25617.16
505.36	25687.38
505.53	25778.66
505.71	25886.32
505.88	25727.17
506.06	25855.90
506.23	25893.35
506.41	25954.20
506.58	26029.10
506.76	26223.36
506.93	26520.61
507.11	26382.52
507.28	26771.05
507.46	26455.08
507.63	26742.96
507.81	27096.38
507.98	26499.55
508.16	27098.72
508.33	27037.87
508.50	27421.72
508.68	27302.35
508.85	27316.39
509.03	27407.67
509.20	27433.42
509.38	27618.32
509.55	27714.28
509.73	27634.71
509.90	27751.73
510.08	27784.50
510.25	28287.71
510.42	28016.21
510.60	28105.15
510.77	27995.15
510.95	28318.14
511.12	28355.59
511.30	28423.47
511.47	28627.09
511.64	28538.15
511.82	28308.78
511.99	28692.63
512.17	28774.55
512.34	28720.71
512.51	29181.80
512.69	29275.42
512.86	28837.74
513.04	29174.78
513.21	29230.95
513.38	29167.76
513.56	29500.11
513.73	29415.85
513.90	29397.13
514.08	29376.06
514.25	29340.96
514.43	29771.61
514.60	29661.61
514.77	30103.97
514.95	30213.98
515.12	29923.75
515.29	29823.11
515.47	30082.91
515.64	30335.68
515.81	30127.38
515.99	30375.47
516.16	30373.13
516.33	30625.91
516.51	30309.94
516.68	30040.78
516.85	30618.89
517.03	30888.05
517.20	30981.67
517.37	30906.77
517.54	30895.07
517.72	30843.58
517.89	30937.20
518.06	31548.08
518.24	31164.23
518.41	31145.51
518.58	31342.11
518.75	31292.96
518.93	31878.10
519.10	31337.43
519.27	31580.85
519.45	31730.64
519.62	31732.98
519.79	31887.46
519.96	32107.47
520.14	31590.21
520.31	31660.43
520.48	31817.24
520.65	31955.33
520.83	32533.45
521.00	32697.28
521.17	32180.03
521.34	32259.60
521.52	32680.90
521.69	32769.84
521.86	32940.70
522.03	33172.41
522.20	32673.88
522.38	32842.40
522.55	33219.22
522.72	33017.94
522.89	32849.42
523.07	33380.72
523.24	33308.16
523.41	33036.66
523.58	33053.05
523.75	33553.92
523.92	33118.58
524.10	33380.72
524.27	33687.33
524.44	33710.74
524.61	33886.28
524.78	33832.44
524.96	34380.13
525.13	33949.47
525.30	34267.78
525.47	33776.27
525.64	34401.19
525.81	34272.46
525.98	34092.24
526.16	34045.43
526.33	34576.73
526.50	34651.63
526.67	34117.99
526.84	34220.97
527.01	34267.78
527.18	34387.15
527.36	34653.97
527.53	34848.24
527.70	35007.39
527.87	35182.93
528.04	34597.80
528.21	34871.64
528.38	34855.26
528.55	35096.33
528.72	35204.00
528.89	35175.91
529.07	35072.93
529.24	35288.26
529.41	35196.98
529.58	35255.49
529.75	35592.53
529.92	35686.15
530.09	35576.14
530.26	35637.00
530.43	35473.16
530.60	35372.52
530.77	35739.98
530.94	35440.39
531.11	35908.50
531.28	35356.13
531.46	35611.25
531.63	36360.22
531.80	35896.80
531.97	36273.62
532.14	36002.12
532.31	36306.39
532.48	36465.55
532.65	36987.49
532.82	36538.10
532.99	36577.89
533.16	35950.63
533.33	36208.09
533.50	36411.71
533.67	36580.23
533.84	36198.73
534.01	36856.42
534.18	36741.73
534.35	36947.70
534.52	36982.80
534.69	37254.31
534.86	37296.44
535.03	37191.11
535.20	37294.10
535.37	36973.44
535.54	37090.47
535.71	37212.18
535.88	37202.82
536.05	37324.52
536.22	37097.49
536.38	37502.40
536.55	37450.91
536.72	37621.77
536.89	36870.46
537.06	37706.03
537.23	37947.11
537.40	37663.90
537.57	37874.55
537.74	37930.72
537.91	38068.81
538.08	37689.65
538.25	37551.56
538.42	37942.42
538.59	37928.38
538.75	38050.09
538.92	37907.32
539.09	38096.90
539.26	38277.12
539.43	38258.40
539.60	38209.25
539.77	38153.07
539.94	38494.79
540.11	38759.27
540.28	38508.83
540.44	38511.17
540.61	38789.70
540.78	38387.13
540.95	38450.32
541.12	38611.82
541.29	38838.85
541.46	38810.76
541.62	38850.55
541.79	38899.70
541.96	38726.50
542.13	38621.18
542.30	39213.34
542.47	38897.36
542.63	38773.31
542.80	38981.62
542.97	39480.16
543.14	39735.27
543.31	39220.36
543.48	39285.89
543.64	39999.76
543.81	39681.44
543.98	39639.31
544.15	39496.54
544.32	39622.93
544.48	40020.82
544.65	39922.52
544.82	39828.90
544.99	39793.79
545.16	39943.58
545.32	39950.60
545.49	40332.11
545.66	40620.00
545.83	39950.60
546.00	40179.98
546.16	39903.79
546.33	40034.86
546.50	39828.90
546.67	40467.86
546.83	40046.57
547.00	40032.52
547.17	40065.29
547.34	40399.99
547.50	40493.61
547.67	40957.03
547.84	40502.97
548.00	40612.98
548.17	41043.63
548.34	41034.27
548.51	41165.34
548.67	40907.88
548.84	40722.98
549.01	40889.16
549.18	40416.37
549.34	41184.07
549.51	40872.78
549.68	40861.07
549.84	41013.21
550.01	41326.84
550.18	41078.74
550.34	41415.78
550.51	41579.62
550.68	40994.48
550.84	40968.74
551.01	41029.59
551.18	41249.60
551.34	41333.86
551.51	41453.23
551.68	41373.65
551.84	40966.40
552.01	41497.70
552.18	41347.90
552.34	41544.51
552.51	41696.64
552.68	41163.00
552.84	41872.18
553.01	41834.74
553.18	41895.59
553.34	41715.37
553.51	41867.50
553.67	42267.73
553.84	41855.80
554.01	42127.30
554.17	41851.12
554.34	42171.77
554.51	41816.01
554.67	42359.02
554.84	41972.83
555.00	41581.96
555.17	41940.06
555.33	42129.64
555.50	42234.97
555.67	41916.65
555.83	42567.32
556.00	42333.27
556.16	42651.58
556.33	42693.71
556.50	42419.87
556.66	42595.41
556.83	42239.65
556.99	42539.24
557.16	42742.86
557.32	42562.64
557.49	42366.04
557.65	42398.80
557.82	42752.23
557.98	42377.74
558.15	42471.36
558.32	42639.88
558.48	42480.72
558.65	42560.30
558.81	42817.76
558.98	42588.39
559.14	42939.47
559.31	43026.07
559.47	42712.44
559.64	42855.21
559.80	43091.60
559.97	43082.24
560.13	43075.22
560.30	42803.72
560.46	43356.08
560.63	43253.10
560.79	43398.21
560.96	43285.87
561.12	43217.99
561.29	42890.32
561.45	43225.01
561.61	43381.83
561.78	43152.46
561.94	43281.19
562.11	43414.60
562.27	42829.46
562.44	43236.72
562.60	43037.77
562.77	43313.95
562.93	43412.26
563.10	43517.58
563.26	42883.30
563.42	43796.10
563.59	43555.03
563.75	43405.23
563.92	43510.56
564.08	43583.12
564.24	43325.66
564.41	43576.09
564.57	43318.64
564.74	43660.35
564.90	43365.45
565.07	43730.57
565.23	43737.59
565.39	43363.11
565.56	43782.06
565.72	43360.76
565.88	43627.59
566.05	43765.68
566.21	43723.55
566.38	43625.25
566.54	44116.76
566.70	44212.72
566.87	43618.22
567.03	43765.68
567.19	43461.41
567.36	43943.56
567.52	43543.33
567.68	44095.69
567.85	44023.14
568.01	43863.98
568.17	43676.74
568.34	43833.55
568.50	43962.28
568.66	43817.17
568.83	44205.70
568.99	43948.24
569.15	43852.28
569.32	43768.02
569.48	43693.12
569.64	43971.64
569.81	43887.39
569.97	44086.33
570.13	44058.24
570.30	43775.04
570.46	44044.20
570.62	44402.30
570.78	43646.31
570.95	44069.95
571.11	44226.76
571.27	43995.05
571.43	43840.57
571.60	44341.45
571.76	43765.68
571.92	44315.70
572.09	44327.41
572.25	44233.78
572.41	44198.68
572.57	44336.77
572.74	44605.93
572.90	44495.92
573.06	44315.70
573.22	44598.91
573.38	44046.54
573.55	44488.90
573.71	44629.34
573.87	44505.29
574.03	44491.24
574.20	44343.79
574.36	44083.99
574.52	44559.12
574.68	44280.60
574.84	44652.74
575.01	44666.78
575.17	44542.74
575.33	44634.02
575.49	44278.25
575.65	44568.48
575.82	44418.69
575.98	44353.15
576.14	44545.08
576.30	45024.89
576.46	44746.36
576.62	44472.52
576.79	44556.78
576.95	43889.73
577.11	44346.13
577.27	44849.35
577.43	44545.08
577.59	44514.65
577.75	44690.19
577.92	44240.81
578.08	44680.83
578.24	44472.52
578.40	44947.65
578.56	44830.62
578.72	44587.21
578.88	44818.92
579.04	44514.65
579.21	44381.24
579.37	44538.05
579.53	44802.53
579.69	44748.70
579.85	44353.15
580.01	44699.55
580.17	44772.11
580.33	44421.03
580.49	44982.76
580.65	44432.73
580.82	44470.18
580.98	44699.55
581.14	44247.83
581.30	44739.34
581.46	44526.35
581.62	44582.52
581.78	44641.04
581.94	44687.85
582.10	44542.74
582.26	44793.17
582.42	44442.09
582.58	44701.89
582.74	44430.39
582.90	44744.02
583.06	44947.65
583.22	44828.28
583.38	44893.82
583.54	44891.48
583.70	44802.53
583.86	45195.74
584.02	44699.55
584.18	45095.10
584.34	45020.20
584.50	45455.54
584.66	45069.36
584.82	44985.10
584.98	45357.24
585.14	45062.33
585.30	44669.12
585.46	44575.50
585.62	44608.27
585.78	44999.14
585.94	44666.78
586.10	44610.61
586.26	44547.42
586.42	44446.77
586.58	44765.09
586.74	45289.37
586.90	44655.08
587.06	44680.83
587.22	45081.06
587.38	45055.31
587.54	44907.86
587.70	45181.70
587.86	45055.31
588.02	45160.64
588.18	44755.72
588.34	44940.63
588.49	45055.31
588.65	44594.23
588.81	45188.72
588.97	45179.36
589.13	44884.45
589.29	45151.27
589.45	45277.66
589.61	45336.18
589.77	45525.76
589.93	44959.35
590.08	45067.02
590.24	45223.83
590.40	45593.64
590.56	45476.61
590.72	45413.41
590.88	45186.38
591.04	44772.11
591.20	45883.86
591.35	45560.87
591.51	45469.59
591.67	45544.48
591.83	45457.88
591.99	45048.29
592.15	45097.44
592.31	45537.46
592.46	45378.31
592.62	45059.99
592.78	45474.27
592.94	45429.80
593.10	45794.92
593.26	45617.04
593.41	45825.35
593.57	45432.14
593.73	45446.18
593.89	45916.63
594.05	45617.04
594.20	45518.74
594.36	45951.74
594.52	45460.23
594.68	45429.80
594.84	45270.64
594.99	45743.43
595.15	45713.00
595.31	45603.00
595.47	45294.05
595.62	45668.53
595.78	45287.03
595.94	45869.82
596.10	45574.91
596.25	45504.70
596.41	45965.78
596.57	45275.32
596.73	45783.22
596.88	46171.75
597.04	45345.54
597.20	45808.96
597.36	45563.21
597.51	45603.00
597.67	45287.03
597.83	45382.99
597.99	45935.35
598.14	45436.82
598.30	45497.67
598.46	45357.24
598.61	45930.67
598.77	45481.29
598.93	45474.27
599.09	45516.40
599.24	46092.17
599.40	45436.82
599.56	45736.41
599.71	46085.15
599.87	46082.81
600.03	45867.48
600.18	45766.84
600.34	46031.32
600.50	45820.67
600.65	45675.55
600.81	46408.14
600.97	45858.12
601.12	45785.56
601.28	45792.58
601.44	45738.75
601.59	45888.54
601.75	45638.11
601.91	45546.82
602.06	45792.58
602.22	45787.90
602.37	45645.13
602.53	45762.15
602.69	45787.90
602.84	45497.67
603.00	45762.15
603.16	45853.44
603.31	45900.25
603.47	45675.55
603.62	45523.42
603.78	45755.13
603.94	46150.68
604.09	45385.33
604.25	45677.90
604.40	45464.91
604.56	45677.90
604.71	46216.22
604.87	45420.44
605.03	45244.90
605.18	45579.59
605.34	45858.12
605.49	45542.14
605.65	45521.08
605.80	45633.42
605.96	45633.42
606.12	45848.75
606.27	45731.73
606.43	45717.68
606.58	45661.51
606.74	45581.93
606.89	45525.76
607.05	45429.80
607.20	45811.31
607.36	45603.00
607.51	45610.02
607.67	45736.41
607.82	45591.30
607.98	45219.15
608.13	45684.92
608.29	45729.39
608.44	45556.19
608.60	45715.34
608.75	45813.65
608.91	45322.13
609.06	45539.80
609.22	46127.28
609.37	45303.41
609.53	45879.18
609.68	45675.55
609.84	45361.92
609.99	45478.95
610.15	46094.51
610.30	45488.31
610.46	45221.49
610.61	45345.54
610.76	45570.23
610.92	45237.87
611.07	44732.32
611.23	45120.85
611.38	45624.06
611.54	45106.80
611.69	45509.38
611.84	45317.45
612.00	45027.23
612.15	45088.08
612.31	45539.80
612.46	44982.76
612.62	45186.38
612.77	45216.81
612.92	45308.09
613.08	45324.47
613.23	44973.39
613.39	45081.06
613.54	45064.67
613.69	45254.26
613.85	45247.24
614.00	45059.99
614.15	45408.73
614.31	44786.15
614.46	44839.98
614.62	44428.05
614.77	45059.99
614.92	44753.38
615.08	45048.29
615.23	44851.69
615.38	45006.16
615.54	45038.93
615.69	45111.49
615.84	44903.18
616.00	45130.21
616.15	45109.14
616.30	45031.91
616.46	44655.08
616.61	44748.70
616.76	45336.18
616.92	44926.58
617.07	44732.32
617.22	45170.00
617.37	44638.70
617.53	44830.62
617.68	44549.76
617.83	44694.87
617.99	45326.81
618.14	44769.77
618.29	44378.90
618.45	44371.88
618.60	44783.81
618.75	43728.23
618.90	44154.21
619.06	44566.14
619.21	44140.16
619.36	45118.51
619.51	44456.14
619.67	44186.97
619.82	44240.81
619.97	44395.28
620.12	44690.19
620.28	44498.26
620.43	44280.60
620.58	44399.96
620.73	44811.90
620.89	44140.16
621.04	44481.88
621.19	44470.18
621.34	44322.72
621.49	43658.01
621.65	44423.37
621.80	44369.54
621.95	43927.17
622.10	43772.70
622.25	43959.94
622.41	43735.25
622.56	44041.86
622.71	44285.28
622.86	44002.07
623.01	44175.27
623.16	43922.49
623.32	43791.42
623.47	43859.30
623.62	43746.95
623.77	44161.23
623.92	43681.42
624.07	44009.09
624.23	44011.43
624.38	43899.09
624.53	44156.55
624.68	43641.63
624.83	43854.62
624.98	43625.25
625.13	43133.73
625.29	43690.78
625.44	43833.55
625.59	43744.61
625.74	44006.75
625.89	43730.57
626.04	43512.90
626.19	43257.78
626.34	43744.61
626.49	42962.87
626.65	43124.37
626.80	43325.66
626.95	42866.91
627.10	43152.46
627.25	43625.25
627.40	43789.08
627.55	43119.69
627.70	43512.90
627.85	43700.14
628.00	43374.81
628.15	43140.75
628.30	43063.52
628.45	42955.85
628.60	42838.83
628.76	43012.02
628.91	43100.97
629.06	42813.08
629.21	42773.29
629.36	43002.66
629.51	42656.26
629.66	43028.41
629.81	42745.20
629.96	43002.66
630.11	42834.14
630.26	42953.51
630.41	42899.68
630.56	42611.79
630.71	43063.52
630.86	42560.30
631.01	42415.19
631.16	42504.13
631.31	42508.81
631.46	42536.90
631.61	42677.33
631.76	42351.99
631.91	42843.51
632.06	42777.97
632.21	43178.20
632.36	42831.80
632.51	42305.18
632.66	42808.40
632.81	42667.97
632.96	42553.28
633.10	42424.55
633.25	42356.67
633.40	42078.15
633.55	42721.80
633.70	42300.50
633.85	42082.83
634.00	42265.39
634.15	42319.23
634.30	42178.79
634.45	42026.66
634.60	42469.02
634.75	42246.67
634.90	42129.64
635.05	42581.37
635.19	41961.12
635.34	42302.84
635.49	42029.00
635.64	42052.41
635.79	42342.63
635.94	41991.55
636.09	42410.51
636.24	42424.55
636.39	41874.52
636.53	42244.33
636.68	41603.02
636.83	41392.37
636.98	41666.22
637.13	41612.38
637.28	41769.20
637.43	41439.18
637.57	42080.49
637.72	41799.63
637.87	41787.92
638.02	41488.34
638.17	41371.31
638.32	41291.73
638.46	41095.13
638.61	41057.68
638.76	41696.64
638.91	41535.15
639.06	41256.62
639.20	41315.14
639.35	41361.95
639.50	41001.50
639.65	40954.69
639.80	41577.28
639.94	41256.62
640.09	41319.82
640.24	41235.56
640.39	40863.41
640.54	40741.71
640.68	41031.93
640.83	41591.32
640.98	41308.11
641.13	40992.14
641.27	41331.52
641.42	41006.19
641.57	41015.55
641.72	41251.94
641.86	41050.66
642.01	40549.78
642.16	40807.24
642.31	40556.80
642.45	41404.08
642.60	40416.37
642.75	40786.18
642.90	41078.74
643.04	40896.18
643.19	40659.79
643.34	40737.02
643.48	40098.06
643.63	40854.05
643.78	40832.99
643.93	41151.30
644.07	40554.46
644.22	40776.81
644.37	40339.13
644.51	40687.87
644.66	40959.38
644.81	40563.82
644.95	40795.54
645.10	40559.14
645.25	40381.26
645.39	40357.86
645.54	40194.02
645.69	39772.72
645.83	40222.11
645.98	40524.04
646.13	40016.14
646.27	40488.93
646.42	40030.18
646.57	40128.48
646.71	40416.37
646.86	40371.90
647.00	40491.27
647.15	40442.12
647.30	40086.36
647.44	40261.90
647.59	39805.49
647.74	39917.84
647.88	40109.76
648.03	40474.88
648.17	40332.11
648.32	39976.35
648.47	39894.43
648.61	39878.05
648.76	39758.68
648.90	39854.64
649.05	39679.10
649.20	39796.13
649.34	39880.39
649.49	40027.84
649.63	39852.30
649.78	39908.47
649.92	39927.20
650.07	40252.53
650.21	39826.56
650.36	39819.53
650.51	39669.74
650.65	40105.08
650.80	39791.45
650.94	39803.15
651.09	39421.64
651.23	39051.84
651.38	39576.12
651.52	39117.37
651.67	39342.06
651.81	39365.47
651.96	39798.47
652.10	39009.71
652.25	39058.86
652.39	39108.01
652.54	39147.80
652.68	38869.28
652.83	38937.15
652.97	39512.92
653.12	39033.11
653.26	39475.48
653.41	39337.38
653.55	39543.35
653.70	39316.32
653.84	39138.44
653.99	39405.26
654.13	39405.26
654.27	38892.68
654.42	39075.24
654.56	39084.61
654.71	38953.54
654.85	39395.90
655.00	38698.42
655.14	39079.92
655.29	39182.91
655.43	39374.83
655.57	38738.21
655.72	38539.26
655.86	38218.61
656.01	38710.12
656.15	38225.63
656.30	38583.73
656.44	38787.36
656.58	38644.59
656.73	38731.18
656.87	38052.43
657.01	38618.84
657.16	38424.57
657.30	38157.75
657.45	38597.77
657.59	38117.96
657.73	37661.56
657.88	38237.33
658.02	38553.30
658.16	38478.41
658.31	38471.39
658.45	37895.61
658.60	38122.65
658.74	38281.80
658.88	37921.36
659.03	38190.52
659.17	38178.82
659.31	37525.81
659.46	37867.53
659.60	38160.09
659.74	37825.40
659.89	37308.14
660.03	37383.04
660.17	37764.54
660.32	37483.68
660.46	37848.80
660.60	37696.67
660.74	37811.35
660.89	37640.50
661.03	37233.24
661.17	36947.70
661.32	36992.17
661.46	37354.95
661.60	37001.53
661.74	37350.27
661.89	37474.32
662.03	37031.96
662.17	37027.28
662.31	36697.26
662.46	37013.23
662.60	36589.59
662.74	36435.12
662.88	36526.40
663.03	36746.41
663.17	36348.52
663.31	36673.85
663.45	36912.59
663.60	36980.46
663.74	36802.58
663.88	36617.68
664.02	36732.37
664.17	36828.33
664.31	36477.25
664.45	36517.04
664.59	35878.07
664.73	36165.96
664.88	36631.72
665.02	35484.86
665.16	36100.42
665.30	36053.61
665.44	35917.86
665.59	35655.72
665.73	35871.05
665.87	35136.12
666.01	35576.14
666.15	35428.69
666.29	35615.93
666.44	35735.30
666.58	35426.35
666.72	35505.93
666.86	35461.46
667.00	34873.98
667.14	35391.24
667.28	35218.04
667.43	35026.12
667.57	35438.05
667.71	35241.45
667.85	35126.76
667.99	35253.15
668.13	34988.67
668.27	34838.87
668.41	34780.36
668.56	34649.29
668.70	34888.03
668.84	34272.46
668.98	34162.46
669.12	34473.75
669.26	34302.89
669.40	34471.41
669.54	34366.09
669.68	34258.42
669.82	34129.69
669.96	34167.14
670.10	33895.64
670.25	33963.51
670.39	33640.52
670.53	33867.55
670.67	33935.43
670.81	34190.55
670.95	33848.83
671.09	33972.88
671.23	33809.04
671.37	33574.98
671.51	33338.59
671.65	33273.06
671.79	33701.37
671.93	33326.89
672.07	33434.55
672.21	33184.12
672.35	32907.93
672.49	33181.77
672.63	32992.19
672.77	33415.83
672.91	32816.65
673.05	32755.80
673.19	32470.25
673.33	32708.99
673.47	32505.36
673.61	32182.37
673.75	32568.55
673.89	32238.54
674.03	31941.29
674.17	31948.31
674.31	31868.73
674.45	31784.48
674.59	31999.80
674.73	31969.38
674.87	31718.94
675.01	31527.02
675.15	31330.41
675.29	31154.87
675.43	31391.26
675.56	31342.11
675.70	31049.55
675.84	31323.39
675.98	30129.72
676.12	30726.55
676.26	30916.14
676.40	30838.90
676.54	30932.52
676.68	30515.90
676.82	30693.79
676.96	30359.09
677.10	30529.95
677.23	30611.87
677.37	30483.14
677.51	30347.39
677.65	30405.90
677.79	29912.05
677.93	30188.23
678.07	30274.83
678.21	29741.19
678.34	29357.34
678.48	29319.89
678.62	29495.43
678.76	29308.19
678.90	28811.99
679.04	29469.69
679.18	29158.39
679.31	29163.08
679.45	28985.19
679.59	28606.03
679.73	29139.67
679.87	28776.89
680.00	28594.32
680.14	28697.31
680.28	28603.69
680.42	28489.00
680.56	27997.49
680.70	27775.14
680.83	28016.21
680.97	27964.72
681.11	27887.48
681.25	27679.18
681.39	27679.18
681.52	27744.71
681.66	27314.05
681.80	26899.78
681.94	27159.58
682.07	26916.16
682.21	26958.29
682.35	26845.94
682.49	26843.60
682.62	26693.81
682.76	26808.50
682.90	26775.73
683.04	26668.06
683.17	26719.56
683.31	26033.78
683.45	26195.28
683.59	25689.72
683.72	26003.35
683.86	25797.38
684.00	25769.30
684.13	25689.72
684.27	25378.43
684.41	25586.74
684.55	25448.64
684.68	25511.84
684.82	25333.96
684.96	25319.92
685.09	24833.08
685.23	25010.96
685.37	25167.78
685.50	25483.75
685.64	24884.58
685.78	24753.51
685.91	24559.24
686.05	24144.97
686.19	24070.07
686.32	24163.69
686.46	23630.05
686.60	23939.00
686.73	24266.67
686.87	24287.74
687.01	23964.75
687.14	24112.20
687.28	23931.98
687.42	23819.63
687.55	23618.35
687.69	23447.49
687.82	23332.80
687.96	23194.71
688.10	23180.67
688.23	23386.63
688.37	23255.56
688.50	23183.01
688.64	22899.80
688.78	22869.37
688.91	22668.09
689.05	22888.10
689.18	22728.94
689.32	22462.12
689.46	22485.53
689.59	22256.15
689.73	22696.17
689.86	22410.63
690.00	21954.22
690.13	22038.48
690.27	22005.72
690.41	22094.66
690.54	21589.10
690.68	21682.72
690.81	21572.72
690.95	21479.10
691.08	21249.72
691.22	21441.65
691.35	20840.13
691.49	21268.45
691.62	20964.18
691.76	20758.21
691.89	20798.00
692.03	20402.45
692.16	20493.73
692.30	20467.98
692.43	20657.57
692.57	20283.08
692.70	20348.62
692.84	20063.07
692.97	20006.90
693.11	19981.15
693.24	19754.12
693.38	19974.13
693.51	19707.31
693.65	19506.02
693.78	19576.24
693.92	19428.79
694.05	19391.34
694.19	19466.24
694.32	19346.87
694.45	19410.06
694.59	19061.32
694.72	19374.95
694.86	18845.99
694.99	18899.83
695.13	18532.36
695.26	18717.26
695.39	18375.55
695.53	18401.29
695.66	18616.62
695.80	18200.01
695.93	18143.83
696.07	18148.51
696.20	17972.97
696.33	17926.16
696.47	17685.09
696.60	17713.17
696.73	18026.81
696.87	17750.62
697.00	17675.73
697.14	17474.44
697.27	17186.55
697.40	17343.37
697.54	17359.75
697.67	17310.60
697.80	17263.79
697.94	17135.06
698.07	17216.98
698.21	16807.39
698.34	16746.53
698.47	16365.03
698.61	16610.78
698.74	16589.72
698.87	16638.87
699.01	16290.13
699.14	16554.61
699.27	16287.79
699.40	16271.40
699.54	15786.91
699.67	16037.35
699.80	16114.59
699.94	15756.49
700.07	15960.11
700.20	15728.40
700.34	15515.41
700.47	15552.86
700.60	15751.81
700.73	15716.70
700.87	15110.50
701.00	15204.12
701.13	15016.88
701.26	15026.24
701.40	15023.90
701.53	14717.29
701.66	15054.33
701.79	15042.62
701.93	14714.95
702.06	14576.86
702.19	14754.74
702.32	14340.46
702.46	14656.43
702.59	14413.02
702.72	14698.56
702.85	14469.19
702.99	14256.20
703.12	14370.89
703.25	14115.77
703.38	14031.51
703.51	13928.53
703.65	13905.12
703.78	13792.78
703.91	13575.11
704.04	13514.25
704.17	13668.73
704.31	13310.63
704.44	13460.42
704.57	13540.00
704.70	13455.74
704.83	13118.70
704.96	13256.79
705.10	12947.84
705.23	13125.72
>>>>>End Processed Spectral Data<<<<<
