SpectraSuite Data File
++++++++++++++++++++++++++++++++++++
Date: Fri Oct 25 10:47:03 EDT 2013
User: price-jones
Dark Spectrum Present: No
Reference Spectrum Present: No
Number of Sampled Component Spectra: 1
Spectrometers: USB2+H05261
Integration Time (usec): 100000 (USB2+H05261)
Spectra Averaged: 1 (USB2+H05261)
Boxcar Smoothing: 0 (USB2+H05261)
Correct for Electrical Dark: No (USB2+H05261)
Strobe/Lamp Enabled: No (USB2+H05261)
Correct for Detector Non-linearity: No (USB2+H05261)
Correct for Stray Light: No (USB2+H05261)
Number of Pixels in Processed Spectrum: 2048
>>>>>Begin Processed Spectral Data<<<<<
365.73	95.96
365.92	95.96
366.12	95.96
366.32	0.00
366.52	42.13
366.72	49.15
366.91	0.00
367.11	32.77
367.31	105.32
367.51	18.72
367.70	56.17
367.90	4.68
368.10	30.43
368.30	0.00
368.49	72.56
368.69	110.01
368.89	35.11
369.09	46.81
369.28	91.28
369.48	51.49
369.68	191.92
369.87	86.60
370.07	126.39
370.27	72.56
370.47	159.16
370.66	367.46
370.86	402.57
371.06	477.47
371.25	444.70
371.45	437.68
371.65	496.19
371.84	421.30
372.04	477.47
372.24	397.89
372.44	519.60
372.63	547.69
372.83	498.53
373.03	454.06
373.22	482.15
373.42	468.11
373.62	533.64
373.81	486.83
374.01	603.86
374.21	564.07
374.40	510.24
374.60	587.47
374.79	514.92
374.99	531.30
375.19	608.54
375.38	585.13
375.58	587.47
375.78	521.94
375.97	648.33
376.17	603.86
376.37	662.37
376.56	650.67
376.76	606.20
376.95	653.01
377.15	634.29
377.35	606.20
377.54	648.33
377.74	660.03
377.93	561.73
378.13	643.65
378.33	641.31
378.52	624.92
378.72	573.43
378.91	575.77
379.11	606.20
379.31	674.07
379.50	608.54
379.70	629.60
379.89	699.82
380.09	624.92
380.28	641.31
380.48	610.88
380.68	643.65
380.87	685.78
381.07	669.39
381.26	685.78
381.46	669.39
381.65	681.10
381.85	713.86
382.04	702.16
382.24	704.50
382.43	711.52
382.63	594.50
382.83	681.10
383.02	655.35
383.22	737.27
383.41	678.76
383.61	631.94
383.80	779.40
384.00	770.04
384.19	678.76
384.39	720.88
384.58	807.48
384.78	767.70
384.97	772.38
385.17	772.38
385.36	800.46
385.56	748.97
385.75	744.29
385.95	716.20
386.14	767.70
386.34	720.88
386.53	849.61
386.72	760.67
386.92	812.17
387.11	802.80
387.31	814.51
387.50	781.74
387.70	870.68
387.89	889.40
388.09	882.38
388.28	917.49
388.48	898.77
388.67	791.10
388.86	947.92
389.06	849.61
389.25	950.26
389.45	912.81
389.64	908.13
389.84	945.58
390.03	938.55
390.22	912.81
390.42	954.94
390.61	980.68
390.81	1041.54
391.00	910.47
391.19	858.98
391.39	964.30
391.58	1069.62
391.78	1027.50
391.97	1022.81
392.16	943.24
392.36	1008.77
392.55	957.28
392.75	896.43
392.94	938.55
393.13	1027.50
393.33	1041.54
393.52	959.62
393.71	1013.45
393.91	1104.73
394.10	1142.18
394.29	1123.46
394.49	1053.24
394.68	1100.05
394.88	1034.52
395.07	1181.97
395.26	1184.31
395.46	1135.16
395.65	1153.88
395.84	1149.20
396.04	1205.38
396.23	1130.48
396.42	1123.46
396.62	1022.81
396.81	1039.20
397.00	1163.25
397.19	1191.33
397.39	1263.89
397.58	1207.72
397.77	1231.12
397.97	1273.25
398.16	1336.45
398.35	1329.42
398.55	1240.48
398.74	1338.79
398.93	1394.96
399.12	1233.46
399.32	1385.60
399.51	1397.30
399.70	1455.81
399.90	1324.74
400.09	1362.19
400.28	1458.15
400.47	1378.58
400.67	1385.60
400.86	1441.77
401.05	1472.20
401.24	1549.43
401.44	1519.01
401.63	1502.62
401.82	1584.54
402.01	1523.69
402.21	1544.75
402.40	1640.72
402.59	1575.18
402.78	1619.65
402.97	1680.50
403.17	1657.10
403.36	1626.67
403.55	1694.55
403.74	1729.66
403.93	1748.38
404.13	1612.63
404.32	1643.06
404.51	1727.32
404.70	1799.87
404.89	1750.72
405.09	1743.70
405.28	1802.21
405.47	1727.32
405.66	1818.60
405.85	1834.98
406.05	1750.72
406.24	1905.20
406.43	1816.26
406.62	1881.79
406.81	1820.94
407.00	1736.68
407.20	1785.83
407.39	1902.86
407.58	1961.37
407.77	1984.77
407.96	1961.37
408.15	1952.01
408.34	1996.48
408.54	2054.99
408.73	2008.18
408.92	2136.91
409.11	2101.80
409.30	2083.08
409.49	2052.65
409.68	2097.12
409.87	2172.02
410.07	2113.50
410.26	2291.38
410.45	2260.96
410.64	2015.20
410.83	2190.74
411.02	2314.79
411.21	2356.92
411.40	2342.88
411.59	2267.98
411.78	2382.67
411.98	2363.94
412.17	2464.58
412.36	2375.64
412.55	2462.24
412.74	2576.93
412.93	2462.24
413.12	2424.80
413.31	2593.31
413.50	2506.71
413.69	2560.55
413.88	2555.86
414.07	2726.72
414.26	2750.13
414.45	2675.23
414.64	2686.94
414.83	2640.12
415.02	2871.84
415.22	2789.92
415.41	2843.75
415.60	2846.09
415.79	2736.09
415.98	2979.50
416.17	2946.73
416.36	3021.63
416.55	2942.05
416.74	2949.08
416.93	2918.65
417.12	3042.70
417.31	3042.70
417.50	3021.63
417.69	3042.70
417.88	3185.47
418.07	3073.12
418.26	3262.71
418.45	3056.74
418.64	3199.51
418.83	3253.34
419.02	3183.13
419.21	3159.72
419.39	3288.45
419.58	3220.58
419.77	3276.75
419.96	3389.10
420.15	3335.26
420.34	3208.87
420.53	3302.50
420.72	3328.24
420.91	3332.92
421.10	3562.30
421.29	3431.23
421.48	3463.99
421.67	3421.86
421.86	3471.01
422.05	3583.36
422.24	3485.06
422.43	3524.85
422.61	3489.74
422.80	3559.95
422.99	3599.74
423.18	3501.44
423.37	3574.00
423.56	3667.62
423.75	3524.85
423.94	3494.42
424.13	3384.41
424.32	3531.87
424.50	3609.11
424.69	3684.00
424.88	3674.64
425.07	3648.90
425.26	3602.08
425.45	3620.81
425.64	3665.28
425.83	3588.04
426.01	3791.67
426.20	3758.90
426.39	3679.32
426.58	3651.24
426.77	3665.28
426.96	3726.13
427.15	3651.24
427.33	3770.60
427.52	3684.00
427.71	3927.42
427.90	3765.92
428.09	3772.94
428.28	4035.08
428.46	3885.29
428.65	3861.88
428.84	4079.55
429.03	4035.08
429.22	3812.73
429.40	3852.52
429.59	4014.02
429.78	3686.34
429.97	3742.52
430.16	3791.67
430.34	3861.88
430.53	3978.91
430.72	3892.31
430.91	4025.72
431.10	4023.38
431.28	4180.20
431.47	4196.58
431.66	4210.62
431.85	4107.64
432.03	4325.31
432.22	4306.59
432.41	4301.90
432.60	4344.03
432.79	4294.88
432.97	4287.86
433.16	4264.46
433.35	4294.88
433.54	4449.36
433.72	4269.14
433.91	4154.45
434.10	4545.32
434.28	4355.74
434.47	4526.60
434.66	4472.76
434.85	4594.47
435.03	4395.53
435.22	4603.83
435.41	4697.46
435.59	4521.92
435.78	4643.62
435.97	4578.09
436.16	4788.74
436.34	4636.60
436.53	4713.84
436.72	4805.12
436.90	4755.97
437.09	4697.46
437.28	4627.24
437.46	4704.48
437.65	4809.80
437.84	4936.19
438.02	4833.21
438.21	4851.93
438.40	4793.42
438.58	4968.96
438.77	5018.11
438.96	4975.98
439.14	5048.54
439.33	5039.17
439.52	5191.31
439.70	5298.97
439.89	5228.76
440.08	5179.61
440.26	5310.68
440.45	5273.23
440.63	5334.08
440.82	5556.43
441.01	5547.07
441.19	5504.94
441.38	5490.90
441.57	5582.18
441.75	5743.67
441.94	5636.01
442.12	5701.54
442.31	5767.08
442.50	5919.21
442.68	5729.63
442.87	5851.34
443.05	5764.74
443.24	5935.60
443.43	5912.19
443.61	5912.19
443.80	5977.73
443.98	5804.53
444.17	5572.82
444.35	5989.43
444.54	6155.61
444.73	5942.62
444.91	6054.97
445.10	5959.00
445.28	5937.94
445.47	5933.26
445.65	5994.11
445.84	6118.16
446.02	6040.92
446.21	6076.03
446.39	6047.94
446.58	6071.35
446.77	6073.69
446.95	6022.20
447.14	6026.88
447.32	6270.30
447.51	6157.95
447.69	6125.18
447.88	6120.50
448.06	6083.05
448.25	6265.61
448.43	6232.85
448.62	6069.01
448.80	6094.76
448.99	6399.02
449.17	6370.94
449.36	6174.33
449.54	6258.59
449.73	6352.21
449.91	6567.54
450.10	6581.59
450.28	6530.09
450.46	6502.01
450.65	6480.94
450.83	6623.72
451.02	6494.99
451.20	6476.26
451.39	6534.78
451.57	6569.88
451.76	6525.41
451.94	6600.31
452.13	6633.08
452.31	6696.27
452.49	6581.59
452.68	6712.66
452.86	6600.31
453.05	6747.76
453.23	6684.57
453.42	6544.14
453.60	6684.57
453.78	6892.88
453.97	6846.07
454.15	6808.62
454.34	6693.93
454.52	6848.41
454.70	6927.99
454.89	6909.26
455.07	6974.80
455.26	7077.78
455.44	7096.50
455.62	7026.29
455.81	7007.56
455.99	7194.81
456.17	7133.95
456.36	6930.33
456.54	7267.36
456.73	7192.47
456.91	7358.64
457.09	7353.96
457.28	7564.61
457.46	7351.62
457.64	7396.09
457.83	7269.70
458.01	7463.97
458.19	7576.31
458.38	7478.01
458.56	7609.08
458.74	7590.36
458.93	7545.89
459.11	7590.36
459.29	7627.81
459.48	7709.72
459.66	7573.97
459.84	7822.07
460.03	7756.54
460.21	7754.19
460.39	7878.24
460.57	7777.60
460.76	8088.89
460.94	7878.24
461.12	7850.16
461.31	8032.72
461.49	7990.59
461.67	7875.90
461.85	8081.87
462.04	8098.25
462.22	8533.59
462.40	8219.96
462.59	8194.22
462.77	8255.07
462.95	8152.09
463.13	8250.39
463.32	8313.58
463.50	8402.52
463.68	8358.05
463.86	8271.45
464.05	8266.77
464.23	8180.17
464.41	8580.40
464.59	8243.37
464.78	8456.36
464.96	8486.78
465.14	8414.23
465.32	8517.21
465.50	8353.37
465.69	8615.51
465.87	8390.82
466.05	8571.04
466.23	8439.97
466.41	8542.96
466.60	8807.44
466.78	8470.40
466.96	8610.83
467.14	8439.97
467.32	8695.09
467.51	8629.56
467.69	8669.34
467.87	8737.22
468.05	8571.04
468.23	8786.37
468.41	8704.45
468.60	8585.08
468.78	8781.69
468.96	8952.55
469.14	8819.14
469.32	8975.95
469.50	8676.37
469.69	8938.51
469.87	9076.60
470.05	9100.00
470.23	9092.98
470.41	9071.92
470.59	9252.14
470.77	9167.88
470.95	9217.03
471.14	9341.08
471.32	9242.78
471.50	9525.98
471.68	9446.40
471.86	9610.24
472.04	9486.19
472.22	9755.35
472.40	9556.41
472.58	9439.38
472.77	9455.76
472.95	9741.31
473.13	9949.62
473.31	9825.57
473.49	9778.76
473.67	9771.74
473.85	10005.79
474.03	10174.31
474.21	9879.40
474.39	10286.65
474.57	10054.94
474.75	10349.85
474.93	10370.91
475.12	10305.38
475.30	10530.07
475.48	10516.03
475.66	10478.58
475.84	10338.15
476.02	10754.76
476.20	10705.61
476.38	10696.25
476.56	10916.26
476.74	10820.30
476.92	10785.19
477.10	11129.25
477.28	10995.84
477.46	10860.09
477.64	11468.62
477.82	11522.46
478.00	11604.38
478.18	11344.58
478.36	11506.07
478.54	11550.54
478.72	11871.20
478.90	11847.79
479.08	12128.66
479.26	12072.48
479.44	12201.21
479.62	12131.00
479.80	12379.09
479.98	12404.84
480.16	12463.35
480.34	12718.47
480.52	12896.35
480.70	12709.11
480.88	12659.96
481.06	12819.11
481.24	13144.45
481.41	13233.39
481.59	13303.60
481.77	13261.48
481.95	13315.31
482.13	13652.34
482.31	13366.80
482.49	13748.31
482.67	14061.94
482.85	13942.57
483.03	13898.10
483.21	14141.52
483.39	13942.57
483.57	14246.84
483.74	14637.71
483.92	14448.13
484.10	14464.51
484.28	15014.54
484.46	15042.62
484.64	15328.17
484.82	14670.48
485.00	15009.86
485.18	15239.23
485.35	15419.45
485.53	14925.60
485.71	15227.53
485.89	15559.88
486.07	15335.19
486.25	15712.02
486.43	15957.77
486.61	15889.90
486.78	16355.66
486.96	16285.45
487.14	16500.78
487.32	16285.45
487.50	16645.89
487.68	16748.87
487.85	17099.95
488.03	17565.72
488.21	17135.06
488.39	17036.76
488.57	17411.25
488.75	17638.28
488.92	17706.15
489.10	18171.92
489.28	18263.20
489.46	18354.48
489.64	18314.69
489.81	18801.52
489.99	18586.19
490.17	18735.99
490.35	19124.52
490.53	18977.06
490.70	19204.10
490.88	18977.06
491.06	19389.00
491.24	19351.55
491.41	19300.06
491.59	19461.55
491.77	19438.15
491.95	19814.98
492.13	20170.74
492.30	20098.18
492.48	20386.07
492.66	20484.37
492.84	20507.77
493.01	20772.25
493.19	20517.14
493.37	20802.68
493.54	20730.12
493.72	21198.23
493.90	20886.94
494.08	21579.74
494.25	21577.40
494.43	21532.93
494.61	21624.21
494.79	22249.13
494.96	21841.88
495.14	21916.78
495.32	22408.29
495.49	22057.21
495.67	22256.15
495.85	22632.98
496.02	22464.46
496.20	22810.86
496.38	22991.08
496.55	22883.42
496.73	23264.92
496.91	23047.26
497.09	23300.03
497.26	23412.38
497.44	23304.71
497.62	23672.18
497.79	23828.99
497.97	23536.43
498.14	24168.37
498.32	23859.42
498.50	24219.86
498.67	24603.71
498.85	24437.53
499.03	24587.33
499.20	24474.98
499.38	24692.65
499.56	24964.15
499.73	24687.97
499.91	24800.32
500.08	25343.32
500.26	25029.69
500.44	25184.16
500.61	25170.12
500.79	25116.29
500.97	25207.57
501.14	25621.84
501.32	25963.56
501.49	25694.40
501.67	25715.47
501.84	25935.48
502.02	25507.16
502.20	25872.28
502.37	26206.98
502.55	26038.46
502.72	26106.34
502.90	26368.48
503.07	26321.66
503.25	26405.92
503.43	26342.73
503.60	26808.50
503.78	26707.85
503.95	26536.99
504.13	26752.32
504.30	26771.05
504.48	27016.80
504.65	27014.46
504.83	27122.13
505.01	27449.80
505.18	27257.88
505.36	27786.84
505.53	27733.01
505.71	27840.67
505.88	27988.13
506.06	27583.21
506.23	28002.17
506.41	28009.19
506.58	27903.87
506.76	27967.06
506.93	28381.34
507.11	28018.55
507.28	28458.57
507.46	28334.53
507.63	28458.57
507.81	28601.35
507.98	28631.77
508.16	28811.99
508.33	28425.81
508.50	29039.03
508.68	29078.82
508.85	29518.84
509.03	29418.19
509.20	29551.60
509.38	29113.92
509.55	29371.38
509.73	29411.17
509.90	29380.74
510.08	29586.71
510.25	29652.25
510.42	29820.77
510.60	29890.98
510.77	30134.40
510.95	30501.86
511.12	30157.80
511.30	30361.43
511.47	30721.87
511.64	30590.80
511.82	30536.97
511.99	30478.46
512.17	30476.12
512.34	30515.90
512.51	30890.39
512.69	31122.10
512.86	30923.16
513.04	31002.74
513.21	31117.42
513.38	31175.94
513.56	31274.24
513.73	31269.56
513.90	31321.05
514.08	31557.44
514.25	31501.27
514.43	31398.29
514.60	31398.29
514.77	31683.83
514.95	31637.02
515.12	31707.24
515.29	31852.35
515.47	32149.60
515.64	32369.61
515.81	32126.19
515.99	31679.15
516.16	32126.19
516.33	32091.09
516.51	32418.76
516.68	31522.34
516.85	31885.12
517.03	32173.00
517.20	32191.73
517.37	32559.19
517.54	32882.19
517.72	32556.85
517.89	32481.95
518.06	32610.68
518.24	32751.12
518.41	32500.68
518.58	32790.91
518.75	32921.98
518.93	33050.70
519.10	33401.79
519.27	33277.74
519.45	33645.20
519.62	33869.89
519.79	33357.32
519.96	33579.67
520.14	33853.51
520.31	33862.87
520.48	33886.28
520.65	33909.68
520.83	33940.11
521.00	34064.16
521.17	34195.23
521.34	34026.71
521.52	34087.56
521.69	34717.17
521.86	34457.37
522.03	34576.73
522.20	34604.82
522.38	34611.84
522.55	34731.21
522.72	34881.00
522.89	34792.06
523.07	35199.32
523.24	34677.38
523.41	35033.14
523.58	34574.39
523.75	35608.91
523.92	35201.66
524.10	35704.87
524.27	35194.64
524.44	35129.10
524.61	35339.75
524.78	35379.54
524.96	35552.74
525.13	36060.63
525.30	36208.09
525.47	36109.78
525.64	36055.95
525.81	36020.84
525.98	35821.90
526.16	35641.68
526.33	35660.40
526.50	35992.76
526.67	35817.22
526.84	35505.93
527.01	35700.19
527.18	35758.70
527.36	36369.58
527.53	36465.55
527.70	36807.26
527.87	36751.09
528.04	36339.16
528.21	36919.61
528.38	36486.61
528.55	36886.84
528.72	36959.40
528.89	37469.64
529.07	37256.65
529.24	36999.19
529.41	37067.06
529.58	36687.90
529.75	37350.27
529.92	37310.48
530.09	37050.68
530.26	37287.07
530.43	37743.48
530.60	37425.17
530.77	37504.74
530.94	37668.58
531.11	37872.21
531.28	37605.39
531.46	37858.17
531.63	38244.35
531.80	37904.98
531.97	37380.70
532.14	37392.40
532.31	37855.82
532.48	38405.85
532.65	37897.95
532.82	37663.90
532.99	38630.54
533.16	37919.02
533.33	38071.15
533.50	37764.54
533.67	38300.53
533.84	38211.59
534.01	38625.86
534.18	38354.36
534.35	38672.67
534.52	38817.78
534.69	38698.42
534.86	38588.41
535.03	38518.20
535.20	38820.13
535.37	39363.13
535.54	39255.46
535.71	38630.54
535.88	38656.29
536.05	38890.34
536.22	39210.99
536.38	39054.18
536.55	39346.75
536.72	38897.36
536.89	38682.03
537.06	39232.06
537.23	39206.31
537.40	39318.66
537.57	39281.21
537.74	39447.39
537.91	40020.82
538.08	39700.17
538.25	39515.26
538.42	39559.73
538.59	39924.86
538.75	39349.09
538.92	39735.27
539.09	39583.14
539.26	39807.83
539.43	40025.50
539.60	39775.06
539.77	39772.72
539.94	39945.92
540.11	39611.23
540.28	39957.63
540.44	40158.91
540.61	40149.55
540.78	40025.50
540.95	40020.82
541.12	39775.06
541.29	39892.09
541.46	40418.71
541.62	40177.64
541.79	40301.68
541.96	39999.76
542.13	40477.22
542.30	40645.74
542.47	40755.75
542.63	40765.11
542.80	40346.15
542.97	40657.45
543.14	41050.66
543.31	40957.03
543.48	40912.56
543.64	41572.60
543.81	41151.30
543.98	41088.10
544.15	41095.13
544.32	41698.98
544.48	41904.95
544.65	41338.54
544.82	40910.22
544.99	41195.77
545.16	41535.15
545.32	41261.30
545.49	41174.70
545.66	41647.49
545.83	41628.77
546.00	41689.62
546.16	41574.94
546.33	41481.31
546.50	41380.67
546.67	41546.85
546.83	41181.73
547.00	41553.87
547.17	41317.48
547.34	41621.75
547.50	41766.86
547.67	42223.26
547.84	41907.29
548.00	41879.21
548.17	42373.06
548.34	42527.53
548.51	42223.26
548.67	42153.05
548.84	42351.99
549.01	42471.36
549.18	42162.41
549.34	42225.60
549.51	42518.17
549.68	42536.90
549.84	42476.04
550.01	42581.37
550.18	42157.73
550.34	41801.97
550.51	42281.78
550.68	42253.69
550.84	41673.24
551.01	42464.34
551.18	42848.19
551.34	42749.88
551.51	42742.86
551.68	42550.94
551.84	42576.69
552.01	42644.56
552.18	42792.01
552.34	42211.56
552.51	42796.70
552.68	42567.32
552.84	42864.57
553.01	42712.44
553.18	42609.45
553.34	42761.59
553.51	42902.02
553.67	42632.86
553.84	43328.00
554.01	43171.18
554.17	43447.36
554.34	43496.52
554.51	43533.96
554.67	43351.40
554.84	43489.49
555.00	43021.39
555.17	43005.00
555.33	43285.87
555.50	43033.09
555.67	43166.50
555.83	43426.30
556.00	43555.03
556.16	43611.20
556.33	43356.08
556.50	43276.51
556.66	43463.75
556.83	43477.79
556.99	43714.19
557.16	43707.16
557.32	43973.98
557.49	43548.01
557.65	43386.51
557.82	43482.47
557.98	43821.85
558.15	43892.07
558.32	43725.89
558.48	43599.50
558.65	44149.53
558.81	43725.89
558.98	43887.39
559.14	43739.93
559.31	43728.23
559.47	43433.32
559.64	43878.02
559.80	44418.69
559.97	43791.42
560.13	43672.06
560.30	43999.73
560.46	43901.43
560.63	44362.51
560.79	44076.97
560.96	44128.46
561.12	44048.88
561.29	43887.39
561.45	44186.97
561.61	43922.49
561.78	43831.21
561.94	43702.48
562.11	44325.07
562.27	44048.88
562.44	43955.26
562.60	44294.64
562.77	44521.67
562.93	44289.96
563.10	44460.82
563.26	43826.53
563.42	44449.11
563.59	44109.74
563.75	44699.55
563.92	44498.26
564.08	44477.20
564.24	44336.77
564.41	44786.15
564.57	44280.60
564.74	44521.67
564.90	44547.42
565.07	44758.06
565.23	44044.20
565.39	44107.40
565.56	44318.04
565.72	44304.00
565.88	44435.07
566.05	44107.40
566.21	44458.48
566.38	44472.52
566.54	44406.98
566.70	44634.02
566.87	44921.90
567.03	44409.32
567.19	45034.25
567.36	44477.20
567.52	44275.91
567.68	44521.67
567.85	44304.00
568.01	44594.23
568.17	44168.25
568.34	44818.92
568.50	45071.70
568.66	44294.64
568.83	44694.87
568.99	44334.43
569.15	44715.93
569.32	44421.03
569.48	44484.22
569.64	44718.28
569.81	44942.97
569.97	44868.07
570.13	44938.29
570.30	44641.04
570.46	44320.38
570.62	44673.81
570.78	44875.09
570.95	44889.13
571.11	44847.00
571.27	44851.69
571.43	44704.23
571.60	44973.39
571.76	44568.48
571.92	44718.28
572.09	43997.39
572.25	44999.14
572.41	44634.02
572.57	44818.92
572.74	45226.17
572.90	44788.49
573.06	44928.92
573.22	44905.52
573.38	44617.63
573.55	44456.14
573.71	44898.50
573.87	44591.89
574.03	44877.43
574.20	44816.58
574.36	44587.21
574.52	44980.42
574.68	45134.89
574.84	45013.18
575.01	44692.53
575.17	44891.48
575.33	44790.83
575.49	44804.88
575.65	45326.81
575.82	45684.92
575.98	44954.67
576.14	45050.63
576.30	44870.41
576.46	45226.17
576.62	45198.09
576.79	45181.70
576.95	44711.25
577.11	44720.62
577.27	44968.71
577.43	45102.12
577.59	45118.51
577.75	44769.77
577.92	44903.18
578.08	45034.25
578.24	44610.61
578.40	44442.09
578.56	45111.49
578.72	45207.45
578.88	45544.48
579.04	45153.62
579.21	45097.44
579.37	44439.75
579.53	44947.65
579.69	44570.82
579.85	44776.79
580.01	45312.77
580.17	45069.36
580.33	44832.96
580.49	45024.89
580.65	44996.80
580.82	45329.16
580.98	44982.76
581.14	44837.64
581.30	45230.85
581.46	45017.86
581.62	45216.81
581.78	44942.97
581.94	45338.52
582.10	45191.06
582.26	45226.17
582.42	45509.38
582.58	45092.76
582.74	44706.57
582.90	45097.44
583.06	45230.85
583.22	45034.25
583.38	45338.52
583.54	44957.01
583.70	44760.40
583.86	44968.71
584.02	44797.85
584.18	45413.41
584.34	44919.56
584.50	45380.65
584.66	44722.96
584.82	44882.11
584.98	44910.20
585.14	45425.12
585.30	45085.74
585.46	44767.43
585.62	45034.25
585.78	44671.46
585.94	44524.01
586.10	45144.25
586.26	44978.07
586.42	45282.34
586.58	45200.43
586.74	45062.33
586.90	44847.00
587.06	45001.48
587.22	45471.93
587.38	45233.19
587.54	45310.43
587.70	45265.96
587.86	45216.81
588.02	45029.57
588.18	45174.68
588.34	45261.28
588.49	44741.68
588.65	44755.72
588.81	44825.94
588.97	45092.76
589.13	44498.26
589.29	44753.38
589.45	45170.00
589.61	45432.14
589.77	45502.35
589.93	45312.77
590.08	45212.13
590.24	45532.78
590.40	45467.25
590.56	45696.62
590.72	45289.37
590.88	44774.45
591.04	45380.65
591.20	45530.44
591.35	45272.98
591.51	45535.12
591.67	45511.72
591.83	45261.28
591.99	45322.13
592.15	45191.06
592.31	45413.41
592.46	45378.31
592.62	44842.32
592.78	45455.54
592.94	45628.74
593.10	45514.06
593.26	45476.61
593.41	44996.80
593.57	45165.32
593.73	45102.12
593.89	45172.34
594.05	45336.18
594.20	45380.65
594.36	45827.69
594.52	45502.35
594.68	45153.62
594.84	45764.49
594.99	45574.91
595.15	45490.65
595.31	45450.86
595.47	45745.77
595.62	45705.98
595.78	45844.07
595.94	45794.92
596.10	45652.15
596.25	45298.73
596.41	45455.54
596.57	45869.82
596.73	45436.82
596.88	44900.84
597.04	45308.09
597.20	45769.18
597.36	45858.12
597.51	45570.23
597.67	45532.78
597.83	45523.42
597.99	45947.06
598.14	45284.68
598.30	45715.34
598.46	45705.98
598.61	45481.29
598.77	45537.46
598.93	45729.39
599.09	45219.15
599.24	45750.45
599.40	46131.96
599.56	45588.95
599.71	45507.04
599.87	45925.99
600.03	45628.74
600.18	45429.80
600.34	45422.78
600.50	45593.64
600.65	45572.57
600.81	45914.29
600.97	45680.24
601.12	46204.52
601.28	46244.30
601.44	45408.73
601.59	45687.26
601.75	45312.77
601.91	45132.55
602.06	45207.45
602.22	45415.76
602.37	45670.87
602.53	45439.16
602.69	45827.69
602.84	45586.61
603.00	45488.31
603.16	45373.63
603.31	45125.53
603.47	45244.90
603.62	45411.07
603.78	46014.93
603.94	45294.05
604.09	45453.20
604.25	45893.22
604.40	45345.54
604.56	45734.07
604.71	45603.00
604.87	45263.62
605.03	45521.08
605.18	45123.19
605.34	45577.25
605.49	45282.34
605.65	45312.77
605.80	45610.02
605.96	45530.44
606.12	45457.88
606.27	45975.14
606.43	45219.15
606.58	45703.64
606.74	45017.86
606.89	44982.76
607.05	45411.07
607.20	45219.15
607.36	45144.25
607.51	45799.60
607.67	45574.91
607.82	45572.57
607.98	45350.22
608.13	45249.58
608.29	45062.33
608.44	45219.15
608.60	44687.85
608.75	44832.96
608.91	44994.46
609.06	44779.13
609.22	45174.68
609.37	45048.29
609.53	45340.86
609.68	45471.93
609.84	45008.50
609.99	45296.39
610.15	44975.73
610.30	44847.00
610.46	44713.59
610.61	44669.12
610.76	45125.53
610.92	45116.17
611.07	44882.11
611.23	44514.65
611.38	45041.27
611.54	44886.79
611.69	44509.97
611.84	44687.85
612.00	44854.03
612.15	44465.50
612.31	44573.16
612.46	44987.44
612.62	45083.40
612.77	44617.63
612.92	44814.24
613.08	44626.99
613.23	44432.73
613.39	44498.26
613.54	44774.45
613.69	44634.02
613.85	44549.76
614.00	44877.43
614.15	45207.45
614.31	44776.79
614.46	44669.12
614.62	44765.09
614.77	44753.38
614.92	44493.58
615.08	44030.16
615.23	44507.63
615.38	44739.34
615.54	44229.10
615.69	44296.98
615.84	44189.31
616.00	44502.95
616.15	44493.58
616.30	44346.13
616.46	44201.02
616.61	44186.97
616.76	44172.93
616.92	44208.04
617.07	44250.17
617.22	44091.01
617.37	44041.86
617.53	44179.95
617.68	44355.49
617.83	44046.54
617.99	44495.92
618.14	44219.74
618.29	44060.58
618.45	44130.80
618.60	44018.46
618.75	43817.17
618.90	44076.97
619.06	44254.85
619.21	44109.74
619.36	44133.14
619.51	43976.33
619.67	43363.11
619.82	44509.97
619.97	44126.12
620.12	43709.50
620.28	43653.33
620.43	43400.55
620.58	44011.43
620.73	44011.43
620.89	43409.92
621.04	43756.32
621.19	43545.67
621.34	43342.04
621.49	43655.67
621.65	43267.14
621.80	43206.29
621.95	43044.79
622.10	43002.66
622.25	43229.69
622.41	43103.31
622.56	43545.67
622.71	43903.77
622.86	43292.89
623.01	43049.47
623.16	43636.95
623.32	43274.16
623.47	43342.04
623.62	43208.63
623.77	43112.67
623.92	43232.04
624.07	42667.97
624.23	42913.72
624.38	43208.63
624.53	42237.31
624.68	42873.93
624.83	43215.65
624.98	42845.85
625.13	42593.07
625.29	43035.43
625.44	42878.61
625.59	42342.63
625.74	42202.20
625.89	42340.29
626.04	41965.81
626.19	42724.14
626.34	43201.61
626.49	42862.23
626.65	42686.69
626.80	42983.94
626.95	42564.98
627.10	42447.96
627.25	42176.45
627.40	42387.10
627.55	41640.47
627.70	42150.71
627.85	42284.12
628.00	42000.91
628.15	42450.30
628.30	42267.73
628.45	42370.72
628.60	42377.74
628.76	42433.91
628.91	42429.23
629.06	42237.31
629.21	42438.59
629.36	42227.95
629.51	41612.38
629.66	41975.17
629.81	41691.96
629.96	41773.88
630.11	41883.89
630.26	42256.03
630.41	42040.70
630.56	41780.90
630.71	42033.68
630.86	42099.22
631.01	41565.57
631.16	41921.34
631.31	41565.57
631.46	41361.95
631.61	42012.62
631.76	41839.42
631.91	41511.74
632.06	41645.15
632.21	41687.28
632.36	41907.29
632.51	41776.22
632.66	41530.47
632.81	41134.92
632.96	41392.37
633.10	41305.77
633.25	41324.50
633.40	41570.25
633.55	41151.30
633.70	41340.88
633.85	41617.07
634.00	41184.07
634.15	41375.99
634.30	41099.81
634.45	41029.59
634.60	41230.88
634.75	41029.59
634.90	40818.94
635.05	41151.30
635.19	41148.96
635.34	41593.66
635.49	41280.03
635.64	40772.13
635.79	40926.61
635.94	40893.84
636.09	40982.78
636.24	40622.34
636.39	40662.13
636.53	40517.01
636.68	40966.40
636.83	40650.42
636.98	41010.87
637.13	40360.20
637.28	40980.44
637.43	41069.38
637.57	40919.59
637.72	41083.42
637.87	40404.67
638.02	40755.75
638.17	40430.41
638.32	40275.94
638.46	40271.26
638.61	40554.46
638.76	39852.30
638.91	40170.61
639.06	40313.39
639.20	40493.61
639.35	40662.13
639.50	40381.26
639.65	40423.39
639.80	40563.82
639.94	40172.96
640.09	40325.09
640.24	40191.68
640.39	40112.10
640.54	39730.59
640.68	40172.96
640.83	39805.49
640.98	39817.19
641.13	39971.67
641.27	40156.57
641.42	40055.93
641.57	40165.93
641.72	40294.66
641.86	39686.12
642.01	39709.53
642.16	39323.34
642.31	39342.06
642.45	39938.90
642.60	39482.50
642.75	39557.39
642.90	40051.25
643.04	39711.87
643.19	39290.57
643.34	39669.74
643.48	39585.48
643.63	39321.00
643.78	39328.02
643.93	39473.13
644.07	38841.19
644.22	39093.97
644.37	39342.06
644.51	39629.95
644.66	39196.95
644.81	39709.53
644.95	39283.55
645.10	39536.33
645.25	39566.76
645.39	39372.49
645.54	39328.02
645.69	38862.26
645.83	39210.99
645.98	39173.55
646.13	39367.81
646.27	39344.41
646.42	39379.51
646.57	39070.56
646.71	39613.57
646.86	38995.67
647.00	39077.58
647.15	39260.15
647.30	39147.80
647.44	39229.72
647.59	38906.73
647.74	38745.23
647.88	38618.84
648.03	38906.73
648.17	38855.23
648.32	38656.29
648.47	38525.22
648.61	38384.79
648.76	38588.41
648.90	38960.56
649.05	38869.28
649.20	38583.73
649.34	38347.34
649.49	38738.21
649.63	38813.10
649.78	38511.17
649.92	38169.46
650.07	38834.17
650.21	38656.29
650.36	38609.48
650.51	38096.90
650.65	38843.53
650.80	38803.74
650.94	38476.07
651.09	38518.20
651.23	38340.32
651.38	38459.68
651.52	38108.60
651.67	38073.49
651.81	37867.53
651.96	38396.49
652.10	38337.98
652.25	38120.31
652.39	37926.04
652.54	38202.22
652.68	38237.33
652.83	38223.29
652.97	38117.96
653.12	38195.20
653.26	37947.11
653.41	38277.12
653.55	37640.50
653.70	38040.73
653.84	38174.14
653.99	38225.63
654.13	38101.58
654.27	38005.62
654.42	38033.71
654.56	37757.52
654.71	37930.72
654.85	37479.00
655.00	37830.08
655.14	37748.16
655.29	37535.17
655.43	37589.00
655.57	37099.83
655.72	37132.60
655.86	37769.22
656.01	36917.27
656.15	37263.67
656.30	36905.57
656.44	37280.05
656.58	37380.70
656.73	36737.05
656.87	36851.73
657.01	37200.47
657.16	37172.39
657.30	36795.56
657.45	36905.57
657.59	36753.43
657.73	37139.62
657.88	37022.59
658.02	36938.33
658.16	37191.11
658.31	37050.68
658.45	36835.35
658.60	36811.95
658.74	37153.66
658.88	36708.96
659.03	37008.55
659.17	36926.63
659.31	36596.62
659.46	36163.62
659.60	36769.82
659.74	36400.01
659.89	36147.23
660.03	36531.08
660.17	36608.32
660.32	36528.74
660.46	36575.55
660.60	36168.30
660.74	36240.86
660.89	36275.96
661.03	36123.83
661.17	35908.50
661.32	35461.46
661.46	35931.90
661.60	35868.71
661.74	35990.42
661.89	36079.36
662.03	36151.91
662.17	35807.86
662.31	36048.93
662.46	35578.48
662.60	35981.06
662.74	35716.58
662.88	35894.46
663.03	35772.75
663.17	35494.22
663.31	35433.37
663.45	35243.79
663.60	35723.60
663.74	35201.66
663.88	35225.06
664.02	35194.64
664.17	35604.23
664.31	34742.91
664.45	34876.32
664.59	34965.26
664.73	35449.75
664.88	35353.79
665.02	34817.81
665.16	34815.47
665.30	34410.56
665.44	34644.61
665.59	34712.49
665.73	34532.26
665.87	34328.64
666.01	34148.42
666.15	34754.61
666.29	34696.10
666.44	34487.79
666.58	34396.51
666.72	34550.99
666.86	34284.17
667.00	34649.29
667.14	34471.41
667.28	33993.94
667.43	34197.57
667.57	34274.80
667.71	34227.99
667.85	34202.25
667.99	33649.88
668.13	33715.42
668.27	33769.25
668.41	33916.70
668.56	33453.28
668.70	33406.47
668.84	33893.30
668.98	32861.12
669.12	33469.66
669.26	33322.21
669.40	33067.09
669.54	33373.70
669.68	33200.50
669.82	33010.92
669.96	32875.16
670.10	33259.01
670.25	33163.05
670.39	33118.58
670.53	32528.77
670.67	32793.25
670.81	33013.26
670.95	32716.01
671.09	32669.20
671.23	32617.71
671.37	33200.50
671.51	32442.17
671.65	32271.31
671.79	32011.51
671.93	32393.01
672.07	32524.08
672.21	31873.42
672.35	31922.57
672.49	32063.00
672.63	32027.89
672.77	32507.70
672.91	31524.68
673.05	31842.99
673.19	31756.39
673.33	31618.30
673.47	31501.27
673.61	31108.06
673.75	31271.90
673.89	31299.98
674.03	30962.95
674.17	31253.17
674.31	31208.70
674.45	31309.35
674.59	31112.74
674.73	31484.89
674.87	31314.03
675.01	30836.56
675.15	30822.51
675.29	31250.83
675.43	30661.02
675.56	30904.43
675.70	31089.34
675.84	30361.43
675.98	29472.03
676.12	30368.45
676.26	30026.73
676.40	30307.60
676.54	29905.02
676.68	29935.45
676.82	29654.59
676.96	29673.31
677.10	29652.25
677.23	29523.52
677.37	29537.56
677.51	29235.63
677.65	29645.23
677.79	28837.74
677.93	28786.25
678.07	29046.05
678.21	28929.02
678.34	29151.37
678.48	28830.72
678.62	29008.60
678.76	28783.91
678.90	28573.26
679.04	28383.68
679.18	28500.70
679.31	27892.16
679.45	27768.12
679.59	27744.71
679.73	28011.53
679.87	27695.56
680.00	27957.70
680.14	27524.70
680.28	27608.96
680.42	27653.43
680.56	27239.15
680.70	27632.36
680.83	27606.62
680.97	27161.92
681.11	27339.80
681.25	26934.88
681.39	27044.89
681.52	27019.14
681.66	26520.61
681.80	26658.70
681.94	26780.41
682.07	26735.94
682.21	26293.58
682.35	26574.44
682.49	26211.66
682.62	26324.01
682.76	26314.64
682.90	25830.15
683.04	26239.75
683.17	26288.90
683.31	25785.68
683.45	25846.54
683.59	25556.31
683.72	25720.15
683.86	25525.88
684.00	25340.98
684.13	25200.55
684.27	25783.34
684.41	25329.28
684.55	25460.35
684.68	24961.81
684.82	24896.28
684.96	25099.90
685.09	24837.76
685.23	24711.38
685.37	24617.75
685.50	24636.48
685.64	24767.55
685.78	24215.18
685.91	24374.34
686.05	23997.51
686.19	23620.69
686.32	24198.80
686.46	23662.82
686.60	23527.06
686.73	23716.65
686.87	23428.76
687.01	23620.69
687.14	23274.29
687.28	23166.62
687.42	23161.94
687.55	22981.72
687.69	22843.63
687.82	22946.61
687.96	23419.40
688.10	22735.96
688.23	22579.15
688.37	22642.34
688.50	22108.70
688.64	22457.44
688.78	22256.15
688.91	21958.91
689.05	22356.80
689.18	22286.58
689.32	21708.47
689.46	22204.66
689.59	22061.89
689.73	22515.95
689.86	21362.07
690.00	21652.30
690.13	22085.30
690.27	21701.45
690.41	21348.03
690.54	21373.77
690.68	21032.05
690.81	21083.55
690.95	20975.88
691.08	21074.18
691.22	21034.39
691.35	21060.14
691.49	21364.41
691.62	20908.01
691.76	21078.86
691.89	20664.59
692.03	20898.64
692.16	20070.09
692.30	20280.74
692.43	20109.88
692.57	20367.34
692.70	20262.02
692.84	20032.65
692.97	19878.17
693.11	19742.42
693.24	19609.01
693.38	19592.62
693.51	19768.16
693.65	19674.54
693.78	19356.23
693.92	19737.74
694.05	19522.41
694.19	19328.14
694.32	19412.40
694.45	19594.96
694.59	19098.77
694.72	18820.25
694.86	18913.87
694.99	18932.59
695.13	18822.59
695.26	18750.03
695.39	18258.52
695.53	18321.71
695.66	18204.69
695.80	18363.84
695.93	18455.12
696.07	18235.11
696.20	18071.28
696.33	17881.69
696.47	17916.80
696.60	17898.08
696.73	17930.84
696.87	18080.64
697.00	17853.61
697.14	17699.13
697.27	17820.84
697.40	17706.15
697.54	17277.83
697.67	17373.80
697.80	17376.14
697.94	17291.88
698.07	17326.99
698.21	17317.62
698.34	17186.55
698.47	17039.10
698.61	16610.78
698.74	16519.50
698.87	16741.85
699.01	16549.93
699.14	16418.86
699.27	16627.17
699.40	16238.64
699.54	16430.56
699.67	16109.91
699.80	16177.78
699.94	16182.46
700.07	16102.89
700.20	15936.71
700.34	15896.92
700.47	15936.71
700.60	15939.05
700.73	16051.39
700.87	15709.68
701.00	15641.80
701.13	15695.63
701.26	15740.10
701.40	15496.69
701.53	15447.54
701.66	15449.88
701.79	15159.65
701.93	15068.37
702.06	15061.35
702.19	14743.03
702.32	14965.39
702.46	14647.07
702.59	14630.69
702.72	14574.52
702.85	14923.26
702.99	14471.53
703.12	14789.85
703.25	14679.84
703.38	14445.79
703.51	14307.69
703.65	14607.28
703.78	14190.67
703.91	14127.47
704.04	14265.57
704.17	14111.09
704.31	14288.97
704.44	13661.71
704.57	13680.43
704.70	13467.44
704.83	13685.11
704.96	13504.89
705.10	13598.51
705.23	13895.76
>>>>>End Processed Spectral Data<<<<<
