SpectraSuite Data File
++++++++++++++++++++++++++++++++++++
Date: Fri Oct 25 11:34:41 EDT 2013
User: price-jones
Dark Spectrum Present: No
Reference Spectrum Present: No
Number of Sampled Component Spectra: 1
Spectrometers: USB2+H05261
Integration Time (usec): 100000 (USB2+H05261)
Spectra Averaged: 1 (USB2+H05261)
Boxcar Smoothing: 0 (USB2+H05261)
Correct for Electrical Dark: No (USB2+H05261)
Strobe/Lamp Enabled: No (USB2+H05261)
Correct for Detector Non-linearity: No (USB2+H05261)
Correct for Stray Light: No (USB2+H05261)
Number of Pixels in Processed Spectrum: 2048
>>>>>Begin Processed Spectral Data<<<<<
365.73	313.63
365.92	313.63
366.12	313.63
366.32	191.92
366.52	187.24
366.72	212.99
366.91	163.84
367.11	194.26
367.31	138.09
367.51	182.56
367.70	180.22
367.90	170.86
368.10	154.48
368.30	212.99
368.49	140.43
368.69	215.33
368.89	262.14
369.09	191.92
369.28	187.24
369.48	215.33
369.68	262.14
369.87	205.97
370.07	259.80
370.27	353.42
370.47	325.33
370.66	479.81
370.86	482.15
371.06	578.11
371.25	528.96
371.45	564.07
371.65	596.84
371.84	482.15
372.04	540.66
372.24	540.66
372.44	547.69
372.63	627.26
372.83	653.01
373.03	580.45
373.22	638.97
373.42	531.30
373.62	596.84
373.81	603.86
374.01	585.13
374.21	638.97
374.40	596.84
374.60	674.07
374.79	606.20
374.99	573.43
375.19	648.33
375.38	650.67
375.58	678.76
375.78	669.39
375.97	676.41
376.17	636.63
376.37	653.01
376.56	645.99
376.76	648.33
376.95	648.33
377.15	709.18
377.35	648.33
377.54	657.69
377.74	777.06
377.93	636.63
378.13	720.88
378.33	734.93
378.52	620.24
378.72	704.50
378.91	653.01
379.11	676.41
379.31	723.23
379.50	641.31
379.70	695.14
379.89	702.16
380.09	807.48
380.28	664.71
380.48	667.05
380.68	662.37
380.87	645.99
381.07	711.52
381.26	760.67
381.46	758.33
381.65	734.93
381.85	791.10
382.04	746.63
382.24	716.20
382.43	800.46
382.63	816.85
382.83	814.51
383.02	699.82
383.22	777.06
383.41	795.78
383.61	739.61
383.80	699.82
384.00	765.36
384.19	793.44
384.39	844.93
384.58	763.01
384.78	772.38
384.97	884.72
385.17	777.06
385.36	781.74
385.56	826.21
385.75	741.95
385.95	819.19
386.14	861.32
386.34	772.38
386.53	877.70
386.72	830.89
386.92	882.38
387.11	795.78
387.31	858.98
387.50	807.48
387.70	833.23
387.89	851.96
388.09	842.59
388.28	887.06
388.48	884.72
388.67	973.66
388.86	877.70
389.06	910.47
389.25	877.70
389.45	861.32
389.64	957.28
389.84	912.81
390.03	901.11
390.22	917.49
390.42	924.51
390.61	1013.45
390.81	929.19
391.00	936.21
391.19	1090.69
391.39	940.90
391.58	1011.11
391.78	976.00
391.97	1093.03
392.16	999.41
392.36	990.05
392.55	1022.81
392.75	1036.86
392.94	983.02
393.13	1013.45
393.33	1034.52
393.52	987.71
393.71	957.28
393.91	1083.67
394.10	1036.86
394.29	1039.20
394.49	1015.79
394.68	1130.48
394.88	1090.69
395.07	1118.78
395.26	1064.94
395.46	1029.84
395.65	1076.65
395.84	1053.24
396.04	1083.67
396.23	1078.99
396.42	1179.63
396.62	1156.22
396.81	1207.72
397.00	1128.14
397.19	1130.48
397.39	1071.97
397.58	1181.97
397.77	1233.46
397.97	1231.12
398.16	1095.37
398.35	1263.89
398.55	1184.31
398.74	1266.23
398.93	1207.72
399.12	1167.93
399.32	1280.27
399.51	1359.85
399.70	1259.21
399.90	1284.95
400.09	1280.27
400.28	1345.81
400.47	1352.83
400.67	1416.02
400.86	1284.95
401.05	1369.21
401.24	1394.96
401.44	1432.41
401.63	1390.28
401.82	1380.92
402.01	1425.39
402.21	1273.25
402.40	1394.96
402.59	1397.30
402.78	1467.52
402.97	1462.83
403.17	1467.52
403.36	1476.88
403.55	1542.41
403.74	1460.49
403.93	1476.88
404.13	1542.41
404.32	1521.35
404.51	1547.09
404.70	1586.88
404.89	1460.49
405.09	1514.33
405.28	1490.92
405.47	1455.81
405.66	1591.56
405.85	1638.38
406.05	1607.95
406.24	1668.80
406.43	1715.61
406.62	1776.47
406.81	1762.42
407.00	1739.02
407.20	1675.82
407.39	1661.78
407.58	1729.66
407.77	1842.00
407.96	1776.47
408.15	1825.62
408.34	1783.49
408.54	1823.28
408.73	1825.62
408.92	1867.75
409.11	1886.47
409.30	1893.49
409.49	1872.43
409.68	1912.22
409.87	1907.54
410.07	1989.46
410.26	1952.01
410.45	1973.07
410.64	1928.60
410.83	1947.33
411.02	1973.07
411.21	2115.84
411.40	2062.01
411.59	2038.61
411.78	2078.40
411.98	2094.78
412.17	2174.36
412.36	2183.72
412.55	2258.62
412.74	2162.66
412.93	2246.91
413.12	2188.40
413.31	2312.45
413.50	2310.11
413.69	2349.90
413.88	2375.64
414.07	2424.80
414.26	2464.58
414.45	2338.20
414.64	2436.50
414.83	2485.65
415.02	2387.35
415.22	2495.01
415.41	2448.20
415.60	2569.91
415.79	2532.46
415.98	2548.84
416.17	2480.97
416.36	2593.31
416.55	2581.61
416.74	2710.34
416.93	2689.28
417.12	2630.76
417.31	2754.81
417.50	2729.06
417.69	2738.43
417.88	2855.45
418.07	2738.43
418.26	2855.45
418.45	2785.24
418.64	2913.97
418.83	2951.42
419.02	2874.18
419.21	3056.74
419.39	3080.14
419.58	2946.73
419.77	2888.22
419.96	2995.89
420.15	3094.19
420.34	2918.65
420.53	3019.29
420.72	3054.40
420.91	2963.12
421.10	2974.82
421.29	3028.65
421.48	3082.49
421.67	3047.38
421.86	3108.23
422.05	3197.17
422.24	3199.51
422.43	3269.73
422.61	3227.60
422.80	3164.40
422.99	3269.73
423.18	3178.45
423.37	3283.77
423.56	3337.60
423.75	3145.68
423.94	3171.43
424.13	3122.27
424.32	3126.96
424.50	3183.13
424.69	3368.03
424.88	3358.67
425.07	3300.16
425.26	3269.73
425.45	3297.81
425.64	3157.38
425.83	3311.86
426.01	3213.56
426.20	3346.97
426.39	3307.18
426.58	3328.24
426.77	3258.03
426.96	3426.54
427.15	3391.44
427.33	3424.20
427.52	3400.80
427.71	3417.18
427.90	3428.88
428.09	3428.88
428.28	3545.91
428.46	3566.98
428.65	3550.59
428.84	3529.53
429.03	3693.37
429.22	3466.33
429.40	3517.83
429.59	3503.78
429.78	3361.01
429.97	3496.76
430.16	3550.59
430.34	3669.96
430.53	3843.16
430.72	3662.94
430.91	3698.05
431.10	3613.79
431.28	3740.18
431.47	3733.15
431.66	3798.69
431.85	3777.62
432.03	3866.56
432.22	3962.53
432.41	3960.19
432.60	3772.94
432.79	3911.04
432.97	3798.69
433.16	4002.32
433.35	4030.40
433.54	3953.16
433.72	4039.76
433.91	3990.61
434.10	3894.65
434.28	3939.12
434.47	4142.75
434.66	4093.60
434.85	4051.47
435.03	4035.08
435.22	4021.04
435.41	4212.96
435.59	4074.87
435.78	4149.77
435.97	4156.79
436.16	4037.42
436.34	4095.94
436.53	4264.46
436.72	4416.59
436.90	4201.26
437.09	4440.00
437.28	4163.81
437.46	4273.82
437.65	4301.90
437.84	4332.33
438.02	4482.13
438.21	4437.66
438.40	4341.69
438.58	4550.00
438.77	4484.47
438.96	4505.53
439.14	4664.69
439.33	4599.15
439.52	4718.52
439.70	4720.86
439.89	4695.11
440.08	4898.74
440.26	4800.44
440.45	4812.14
440.63	4851.93
440.82	4784.06
441.01	4767.67
441.19	4858.95
441.38	4980.66
441.57	4973.64
441.75	4999.38
441.94	5078.96
442.12	5107.05
442.31	5240.46
442.50	5097.69
442.68	5233.44
442.87	5167.90
443.05	5172.58
443.24	5181.95
443.43	5188.97
443.61	5437.06
443.80	5444.09
443.98	5294.29
444.17	4985.34
444.35	5170.24
444.54	5303.65
444.73	5479.19
444.91	5458.13
445.10	5317.70
445.28	5336.42
445.47	5282.59
445.65	5460.47
445.84	5444.09
446.02	5439.40
446.21	5467.49
446.39	5453.45
446.58	5408.98
446.77	5460.47
446.95	5228.76
447.14	5252.16
447.32	5551.75
447.51	5441.75
447.69	5479.19
447.88	5638.35
448.06	5507.28
448.25	5521.32
448.43	5502.60
448.62	5504.94
448.80	5565.79
448.99	5518.98
449.17	5591.54
449.36	5458.13
449.54	5696.86
449.73	5792.83
449.91	5731.97
450.10	5720.27
450.28	5706.23
450.46	5919.21
450.65	5867.72
450.83	5865.38
451.02	5788.14
451.20	6019.86
451.39	5799.85
451.57	5849.00
451.76	5703.89
451.94	5799.85
452.13	6019.86
452.31	5886.45
452.49	5781.12
452.68	5764.74
452.86	5982.41
453.05	6029.22
453.23	6073.69
453.42	6066.67
453.60	6052.63
453.78	6118.16
453.97	5963.68
454.15	5998.79
454.34	6129.86
454.52	6094.76
454.70	6354.55
454.89	6181.35
455.07	6267.95
455.26	6319.45
455.44	6239.87
455.62	6408.39
455.81	6291.36
455.99	6361.58
456.17	6258.59
456.36	6370.94
456.54	6408.39
456.73	6658.82
456.91	6509.03
457.09	6766.49
457.28	6803.94
457.46	6703.29
457.64	6890.54
457.83	6672.87
458.01	6691.59
458.19	6855.43
458.38	6761.81
458.56	6682.23
458.74	6841.39
458.93	6803.94
459.11	6927.99
459.29	6829.68
459.48	6883.52
459.66	7014.59
459.84	6925.65
460.03	6909.26
460.21	6991.18
460.39	6949.05
460.57	7030.97
460.76	7218.21
460.94	7033.31
461.12	7136.29
461.31	7194.81
461.49	7180.76
461.67	7173.74
461.85	7307.15
462.04	7225.23
462.22	7531.84
462.40	7346.94
462.59	7389.07
462.77	7470.99
462.95	7510.78
463.13	7370.35
463.32	7314.17
463.50	7499.08
463.68	7531.84
463.86	7609.08
464.05	7274.38
464.23	7538.87
464.41	7398.43
464.59	7396.09
464.78	7955.48
464.96	7398.43
465.14	7485.03
465.32	7515.46
465.50	7630.15
465.69	7810.37
465.87	7901.65
466.05	7747.17
466.23	7566.95
466.41	7459.29
466.60	7775.26
466.78	7747.17
466.96	7637.17
467.14	7700.36
467.32	8006.97
467.51	7939.10
467.69	7646.53
467.87	7964.84
468.05	7922.71
468.23	7859.52
468.41	7840.79
468.60	7892.29
468.78	7967.18
468.96	7964.84
469.14	8088.89
469.32	8194.22
469.50	8046.76
469.69	8198.90
469.87	8336.99
470.05	8072.51
470.23	8168.47
470.41	8297.20
470.59	8241.03
470.77	8334.65
470.95	8362.73
471.14	8423.59
471.32	8297.20
471.50	8650.62
471.68	8638.92
471.86	8636.58
472.04	8657.64
472.22	8676.37
472.40	8552.32
472.58	8645.94
472.77	8753.60
472.95	8954.89
473.13	9053.19
473.31	8816.80
473.49	8957.23
473.67	9062.55
473.85	9235.75
474.03	9254.48
474.21	9046.17
474.39	9210.01
474.57	9228.73
474.75	9217.03
474.93	9392.57
475.12	9301.29
475.30	9451.08
475.48	9561.09
475.66	9425.34
475.84	9359.80
476.02	9633.64
476.20	9736.63
476.38	9837.27
476.56	10043.24
476.74	9832.59
476.92	9977.70
477.10	9951.96
477.28	10293.68
477.46	9851.31
477.64	10246.87
477.82	10232.82
478.00	10361.55
478.18	10441.13
478.36	10656.46
478.54	10691.57
478.72	10820.30
478.90	10965.41
479.08	10956.05
479.26	10913.92
479.44	11044.99
479.62	11089.46
479.80	11143.29
479.98	11360.96
480.16	11674.59
480.34	11318.83
480.52	11777.58
480.70	11779.92
480.88	11625.44
481.06	11672.25
481.24	11784.60
481.41	11805.66
481.59	12170.79
481.77	12030.35
481.95	11967.16
482.13	12472.71
482.31	12126.32
482.49	12451.65
482.67	12439.95
482.85	12561.66
483.03	12835.50
483.21	12936.14
483.39	13191.26
483.57	13078.91
483.74	12999.34
483.92	13282.54
484.10	13238.07
484.28	13640.64
484.46	13727.24
484.64	13884.06
484.82	13617.24
485.00	13914.48
485.18	13912.14
485.35	14085.34
485.53	14288.97
485.71	14494.94
485.89	14363.87
486.07	14628.35
486.25	14462.17
486.43	14658.78
486.61	14813.25
486.78	14857.72
486.96	14843.68
487.14	15044.96
487.32	15094.11
487.50	15382.00
487.68	15665.21
487.85	15941.39
488.03	16009.26
488.21	15882.88
488.39	15941.39
488.57	16198.85
488.75	15925.00
488.92	16304.17
489.10	16358.00
489.28	16713.77
489.46	16732.49
489.64	16629.51
489.81	16783.98
489.99	17102.29
490.17	17142.08
490.35	17399.54
490.53	17497.84
490.70	17563.38
490.88	17551.68
491.06	17666.36
491.24	17900.42
491.41	17764.67
491.59	17919.14
491.77	18033.83
491.95	18211.71
492.13	18286.61
492.30	18829.61
492.48	18525.34
492.66	18485.55
492.84	18696.20
493.01	19147.92
493.19	18876.42
493.37	19112.81
493.54	19381.98
493.72	19218.14
493.90	19482.62
494.08	19721.35
494.25	19906.26
494.43	19704.97
494.61	19756.46
494.79	20271.38
494.96	19889.87
495.14	20393.09
495.32	20306.49
495.49	20465.64
495.67	20634.16
495.85	20671.61
496.02	21050.78
496.20	20980.56
496.38	21034.39
496.55	21053.12
496.73	21420.58
496.91	21591.44
497.09	21355.05
497.26	21509.52
497.44	21570.38
497.62	21743.58
497.79	22008.06
497.97	21755.28
498.14	21832.52
498.32	22471.48
498.50	22214.02
498.67	22485.53
498.85	22436.38
499.03	22569.79
499.20	22434.03
499.38	23119.81
499.56	22967.68
499.73	23082.36
499.91	23234.50
500.08	23147.90
500.26	23124.49
500.44	23552.81
500.61	23332.80
500.79	23337.48
500.97	23690.90
501.14	23901.55
501.32	24081.77
501.49	23852.40
501.67	24084.11
501.84	24056.03
502.02	24100.50
502.20	24013.90
502.37	24294.76
502.55	24189.44
502.72	24584.99
502.90	24315.83
503.07	24517.11
503.25	24657.54
503.43	24589.67
503.60	24823.72
503.78	25137.35
503.95	24753.51
504.13	25219.27
504.30	25235.66
504.48	25064.80
504.65	25315.23
504.83	25294.17
505.01	25818.45
505.18	25619.50
505.36	25827.81
505.53	25638.23
505.71	25710.78
505.88	25916.75
506.06	25759.94
506.23	25867.60
506.41	25783.34
506.58	26314.64
506.76	26293.58
506.93	26593.17
507.11	26059.52
507.28	26916.16
507.46	26541.68
507.63	26801.47
507.81	27068.30
507.98	26745.30
508.16	27260.22
508.33	27002.76
508.50	27002.76
508.68	27063.61
508.85	27377.25
509.03	27091.70
509.20	27063.61
509.38	27845.35
509.55	27426.40
509.73	27505.98
509.90	27578.53
510.08	27878.12
510.25	27552.79
510.42	28004.51
510.60	28203.46
510.77	28154.30
510.95	28107.49
511.12	28203.46
511.30	28163.67
511.47	28245.58
511.64	28407.08
511.82	28769.86
511.99	28517.09
512.17	28706.67
512.34	28528.79
512.51	28919.66
512.69	29352.66
512.86	28996.90
513.04	29144.35
513.21	28865.83
513.38	29205.20
513.56	29399.47
513.73	28900.94
513.90	29172.44
514.08	29460.32
514.25	29497.77
514.43	29694.38
514.60	29490.75
514.77	29977.58
514.95	29516.50
515.12	29443.94
515.29	30113.33
515.47	30139.08
515.64	30096.95
515.81	30178.87
515.99	30225.68
516.16	30604.84
516.33	30576.76
516.51	30436.33
516.68	30480.80
516.85	30579.10
517.03	31145.51
517.20	31112.74
517.37	30838.90
517.54	31101.04
517.72	30572.08
517.89	30892.73
518.06	31239.13
518.24	31014.44
518.41	31344.45
518.58	30881.03
518.75	31227.43
518.93	31494.25
519.10	31445.10
519.27	31718.94
519.45	31536.38
519.62	31817.24
519.79	32034.91
519.96	31449.78
520.14	31866.39
520.31	31421.69
520.48	31901.50
520.65	31845.33
520.83	32598.98
521.00	32315.78
521.17	31938.95
521.34	32409.40
521.52	32877.51
521.69	32474.93
521.86	32685.58
522.03	32870.48
522.20	32814.31
522.38	33181.77
522.55	33015.60
522.72	32973.47
522.89	33141.99
523.07	33233.27
523.24	32943.04
523.41	33294.12
523.58	32889.21
523.75	33214.54
523.92	32910.27
524.10	33476.68
524.27	33516.47
524.44	33666.27
524.61	33582.01
524.78	34015.01
524.96	33942.45
525.13	33886.28
525.30	33991.60
525.47	33902.66
525.64	34113.31
525.81	34148.42
525.98	34087.56
526.16	34555.67
526.33	34054.79
526.50	34543.97
526.67	33858.19
526.84	34497.16
527.01	34469.07
527.18	34618.86
527.36	34625.89
527.53	34396.51
527.70	35154.85
527.87	34705.46
528.04	34841.21
528.21	35028.46
528.38	35044.84
528.55	35325.71
528.72	34869.30
528.89	35070.59
529.07	35147.82
529.24	34850.58
529.41	35367.84
529.58	35456.78
529.75	35185.27
529.92	35154.85
530.09	35084.63
530.26	35260.17
530.43	35679.13
530.60	35314.00
530.77	35534.01
530.94	35627.63
531.11	35566.78
531.28	35934.24
531.46	35929.56
531.63	35974.03
531.80	36037.23
531.97	36147.23
532.14	36116.81
532.31	36020.84
532.48	36505.34
532.65	36161.28
532.82	36236.17
532.99	36507.68
533.16	36477.25
533.33	36334.48
533.50	36486.61
533.67	36348.52
533.84	36566.19
534.01	36479.59
534.18	36526.40
534.35	36634.06
534.52	37116.22
534.69	37151.32
534.86	36992.17
535.03	36807.26
535.20	37017.91
535.37	37251.97
535.54	37282.39
535.71	37111.53
535.88	37476.66
536.05	37354.95
536.22	37446.23
536.38	37514.11
536.55	37378.36
536.72	37340.91
536.89	37383.04
537.06	37497.72
537.23	37457.93
537.40	37441.55
537.57	38075.84
537.74	37539.85
537.91	37820.72
538.08	37846.46
538.25	37535.17
538.42	37764.54
538.59	38462.02
538.75	37865.19
538.92	38036.05
539.09	38232.65
539.26	38263.08
539.43	38417.55
539.60	38724.16
539.77	38408.19
539.94	38473.73
540.11	38679.69
540.28	38609.48
540.44	38469.04
540.61	38471.39
540.78	38195.20
540.95	38286.48
541.12	38593.09
541.29	38660.97
541.46	39012.05
541.62	38862.26
541.79	38576.71
541.96	38501.81
542.13	38588.41
542.30	38745.23
542.47	38937.15
542.63	38909.07
542.80	39201.63
542.97	39297.59
543.14	39548.03
543.31	39047.16
543.48	39452.07
543.64	39622.93
543.81	39765.70
543.98	39604.20
544.15	39569.10
544.32	39856.98
544.48	40088.70
544.65	39817.19
544.82	39791.45
544.99	39580.80
545.16	39643.99
545.32	39618.25
545.49	40304.02
545.66	40425.73
545.83	40163.59
546.00	40304.02
546.16	39648.68
546.33	40058.27
546.50	40065.29
546.67	40091.04
546.83	39854.64
547.00	40233.81
547.17	39978.69
547.34	40250.19
547.50	40470.20
547.67	40554.46
547.84	40472.54
548.00	40479.57
548.17	40793.20
548.34	40900.86
548.51	40891.50
548.67	40875.12
548.84	40851.71
549.01	40320.41
549.18	40767.45
549.34	41137.26
549.51	41258.96
549.68	40847.03
549.84	41151.30
550.01	40940.65
550.18	41132.57
550.34	40999.16
550.51	41146.62
550.68	40891.50
550.84	41195.77
551.01	41509.40
551.18	41422.80
551.34	40957.03
551.51	41085.76
551.68	41303.43
551.84	41462.59
552.01	41256.62
552.18	41542.17
552.34	41282.37
552.51	41769.20
552.68	41617.07
552.84	41340.88
553.01	42246.67
553.18	41769.20
553.34	41626.43
553.51	41371.31
553.67	41766.86
553.84	42265.39
554.01	41649.83
554.17	42003.25
554.34	42265.39
554.51	41951.76
554.67	42525.19
554.84	41743.45
555.00	41713.03
555.17	42146.03
555.33	42014.96
555.50	41904.95
555.67	42354.33
555.83	41734.09
556.00	42525.19
556.16	42726.48
556.33	42859.89
556.50	42188.16
556.66	42204.54
556.83	42368.38
556.99	42534.56
557.16	42663.28
557.32	42349.65
557.49	42761.59
557.65	42017.30
557.82	42792.01
557.98	42649.24
558.15	42960.53
558.32	42817.76
558.48	42583.71
558.65	42377.74
558.81	42836.48
558.98	42834.14
559.14	43042.45
559.31	42527.53
559.47	42607.11
559.64	43054.15
559.80	42480.72
559.97	43042.45
560.13	42487.74
560.30	43070.54
560.46	43136.07
560.63	42918.40
560.79	43002.66
560.96	43133.73
561.12	43281.19
561.29	43328.00
561.45	43166.50
561.61	43356.08
561.78	43208.63
561.94	43398.21
562.11	43129.05
562.27	43288.21
562.44	42916.06
562.60	43325.66
562.77	43440.34
562.93	43185.22
563.10	43461.41
563.26	43225.01
563.42	43751.63
563.59	43559.71
563.75	43601.84
563.92	43007.34
564.08	43318.64
564.24	43573.75
564.41	43611.20
564.57	43515.24
564.74	43763.34
564.90	43384.17
565.07	43782.06
565.23	43480.13
565.39	43484.81
565.56	43882.70
565.72	43349.06
565.88	43761.00
566.05	43222.67
566.21	43274.16
566.38	43414.60
566.54	43597.16
566.70	43402.89
566.87	44498.26
567.03	43524.60
567.19	43871.00
567.36	43990.37
567.52	43868.66
567.68	44095.69
567.85	43704.82
568.01	44062.93
568.17	43903.77
568.34	43463.75
568.50	44196.34
568.66	43580.78
568.83	43959.94
568.99	43833.55
569.15	43945.90
569.32	43875.68
569.48	43419.28
569.64	44406.98
569.81	44149.53
569.97	44091.01
570.13	44091.01
570.30	43988.03
570.46	44296.98
570.62	44406.98
570.78	44311.02
570.95	44463.16
571.11	44271.23
571.27	44034.84
571.43	44142.50
571.60	44098.03
571.76	44414.01
571.92	43751.63
572.09	43901.43
572.25	44294.64
572.41	43711.84
572.57	44355.49
572.74	44596.57
572.90	44278.25
573.06	44467.84
573.22	44287.62
573.38	44259.53
573.55	44404.64
573.71	44884.45
573.87	44790.83
574.03	44601.25
574.20	44329.75
574.36	44524.01
574.52	44336.77
574.68	44194.00
574.84	44528.69
575.01	45067.02
575.17	44837.64
575.33	44285.28
575.49	44329.75
575.65	44362.51
575.82	44662.10
575.98	44369.54
576.14	44854.03
576.30	45024.89
576.46	44718.28
576.62	44236.12
576.79	44699.55
576.95	44165.91
577.11	44484.22
577.27	44552.10
577.43	44762.75
577.59	44137.82
577.75	44123.78
577.92	44587.21
578.08	44212.72
578.24	44552.10
578.40	44776.79
578.56	44587.21
578.72	44194.00
578.88	44790.83
579.04	44631.68
579.21	44507.63
579.37	44500.61
579.53	44849.35
579.69	44872.75
579.85	44683.17
580.01	44643.38
580.17	44357.83
580.33	44519.33
580.49	44900.84
580.65	45097.44
580.82	44849.35
580.98	44362.51
581.14	44596.57
581.30	44573.16
581.46	44406.98
581.62	44605.93
581.78	44753.38
581.94	45059.99
582.10	44673.81
582.26	44924.24
582.42	44634.02
582.58	44575.50
582.74	44935.95
582.90	44409.32
583.06	44982.76
583.22	44601.25
583.38	44928.92
583.54	44875.09
583.70	44748.70
583.86	44596.57
584.02	44500.61
584.18	45275.32
584.34	44823.60
584.50	44790.83
584.66	44868.07
584.82	44755.72
584.98	45020.20
585.14	44975.73
585.30	44355.49
585.46	44900.84
585.62	44554.44
585.78	45083.40
585.94	44538.05
586.10	44664.44
586.26	44519.33
586.42	44729.98
586.58	44818.92
586.74	44926.58
586.90	44758.06
587.06	44409.32
587.22	44931.26
587.38	44648.06
587.54	45020.20
587.70	45165.32
587.86	45083.40
588.02	44992.12
588.18	44839.98
588.34	45301.07
588.49	44868.07
588.65	44811.90
588.81	44868.07
588.97	44772.11
589.13	45244.90
589.29	45038.93
589.45	45717.68
589.61	44821.26
589.77	45184.04
589.93	44781.47
590.08	45502.35
590.24	45364.26
590.40	45347.88
590.56	45738.75
590.72	45425.12
590.88	45041.27
591.04	45244.90
591.20	45296.39
591.35	45359.58
591.51	45977.48
591.67	45436.82
591.83	45598.32
591.99	45806.62
592.15	45146.59
592.31	45162.98
592.46	45174.68
592.62	45289.37
592.78	45191.06
592.94	45773.86
593.10	45392.35
593.26	45174.68
593.41	45483.63
593.57	45291.71
593.73	45556.19
593.89	45909.61
594.05	45483.63
594.20	45530.44
594.36	45600.66
594.52	45200.43
594.68	45186.38
594.84	45696.62
594.99	45925.99
595.15	45556.19
595.31	45684.92
595.47	46101.53
595.62	45769.18
595.78	45785.56
595.94	45425.12
596.10	45815.99
596.25	45823.01
596.41	45514.06
596.57	45439.16
596.73	46036.00
596.88	45675.55
597.04	45617.04
597.20	45432.14
597.36	45839.39
597.51	45703.64
597.67	45727.05
597.83	45764.49
597.99	45823.01
598.14	45230.85
598.30	45654.49
598.46	45680.24
598.61	45846.41
598.77	45373.63
598.93	45752.79
599.09	45265.96
599.24	46279.41
599.40	45631.08
599.56	45492.99
599.71	46082.81
599.87	46445.59
600.03	45752.79
600.18	45757.47
600.34	45464.91
600.50	45432.14
600.65	45928.33
600.81	46052.38
600.97	45911.95
601.12	45977.48
601.28	45652.15
601.44	45605.34
601.59	45813.65
601.75	45902.59
601.91	45591.30
602.06	45734.07
602.22	46078.13
602.37	46050.04
602.53	45528.10
602.69	45914.29
602.84	46038.34
603.00	45794.92
603.16	45567.89
603.31	45535.12
603.47	46057.06
603.62	45581.93
603.78	46239.62
603.94	45869.82
604.09	45984.51
604.25	45670.87
604.40	45682.58
604.56	45951.74
604.71	45621.72
604.87	45446.18
605.03	45698.96
605.18	45595.98
605.34	45846.41
605.49	45481.29
605.65	45865.14
605.80	45483.63
605.96	45336.18
606.12	45507.04
606.27	45734.07
606.43	45574.91
606.58	46017.27
606.74	45137.23
606.89	45631.08
607.05	45846.41
607.20	45645.13
607.36	45467.25
607.51	45406.39
607.67	45153.62
607.82	45263.62
607.98	45614.70
608.13	45462.57
608.29	45392.35
608.44	45647.47
608.60	45443.84
608.75	45783.22
608.91	45736.41
609.06	45371.28
609.22	45607.68
609.37	45067.02
609.53	45448.52
609.68	45212.13
609.84	45497.67
609.99	45579.59
610.15	45677.90
610.30	45406.39
610.46	45170.00
610.61	45364.26
610.76	45570.23
610.92	44999.14
611.07	45249.58
611.23	45364.26
611.38	45469.59
611.54	45315.11
611.69	45411.07
611.84	45546.82
612.00	44875.09
612.15	45099.78
612.31	45130.21
612.46	44816.58
612.62	45158.30
612.77	45315.11
612.92	45633.42
613.08	45392.35
613.23	45560.87
613.39	45148.93
613.54	44893.82
613.69	44992.12
613.85	45186.38
614.00	44975.73
614.15	45420.44
614.31	45029.57
614.46	45315.11
614.62	44830.62
614.77	44954.67
614.92	44947.65
615.08	45160.64
615.23	44893.82
615.38	45041.27
615.54	44861.05
615.69	44968.71
615.84	44732.32
616.00	44886.79
616.15	44673.81
616.30	44605.93
616.46	44713.59
616.61	44903.18
616.76	44854.03
616.92	44769.77
617.07	45038.93
617.22	44350.81
617.37	44392.94
617.53	44421.03
617.68	44706.57
617.83	44509.97
617.99	44945.31
618.14	44804.88
618.29	44655.08
618.45	44430.39
618.60	44947.65
618.75	44854.03
618.90	44341.45
619.06	44399.96
619.21	44144.84
619.36	45013.18
619.51	44315.70
619.67	44224.42
619.82	44439.75
619.97	44870.41
620.12	44467.84
620.28	44442.09
620.43	44664.44
620.58	44619.97
620.73	44294.64
620.89	44133.14
621.04	44659.76
621.19	44580.18
621.34	44011.43
621.49	44130.80
621.65	43981.01
621.80	44116.76
621.95	44121.44
622.10	43856.96
622.25	44219.74
622.41	44294.64
622.56	44126.12
622.71	44304.00
622.86	43751.63
623.01	44332.09
623.16	43908.45
623.32	44023.14
623.47	43929.51
623.62	43826.53
623.77	43878.02
623.92	43973.98
624.07	44004.41
624.23	44161.23
624.38	44212.72
624.53	43866.32
624.68	43632.27
624.83	43660.35
624.98	44058.24
625.13	43278.85
625.29	43601.84
625.44	43548.01
625.59	43725.89
625.74	43789.08
625.89	43093.94
626.04	43353.74
626.19	43311.61
626.34	43372.47
626.49	43351.40
626.65	43320.98
626.80	43379.49
626.95	42995.64
627.10	43058.84
627.25	43496.52
627.40	43171.18
627.55	43384.17
627.70	43189.91
627.85	43381.83
628.00	43391.19
628.15	43115.01
628.30	43072.88
628.45	42993.30
628.60	43028.41
628.76	43115.01
628.91	43264.80
629.06	42923.08
629.21	43075.22
629.36	42588.39
629.51	42803.72
629.66	42871.59
629.81	43089.26
629.96	42742.86
630.11	42548.60
630.26	42700.73
630.41	42740.52
630.56	42684.35
630.71	43196.93
630.86	42958.19
631.01	42642.22
631.16	42361.36
631.31	42916.06
631.46	42117.94
631.61	42976.92
631.76	42714.78
631.91	43061.18
632.06	43033.09
632.21	42564.98
632.36	42576.69
632.51	42557.96
632.66	42735.84
632.81	42574.34
632.96	42639.88
633.10	42075.81
633.25	42525.19
633.40	42794.36
633.55	42693.71
633.70	42511.15
633.85	42567.32
634.00	42094.53
634.15	42223.26
634.30	42747.54
634.45	42127.30
634.60	41965.81
634.75	42213.90
634.90	42253.69
635.05	42143.69
635.19	42286.46
635.34	42176.45
635.49	41968.15
635.64	42155.39
635.79	42171.77
635.94	42122.62
636.09	42431.57
636.24	42007.94
636.39	41827.71
636.53	41785.58
636.68	41631.11
636.83	41752.82
636.98	41586.64
637.13	41659.20
637.28	41439.18
637.43	41462.59
637.57	41357.27
637.72	41848.78
637.87	41544.51
638.02	41771.54
638.17	41397.06
638.32	41502.38
638.46	41062.36
638.61	41380.67
638.76	41383.01
638.91	41542.17
639.06	41186.41
639.20	40854.05
639.35	41322.16
639.50	41127.89
639.65	41514.08
639.80	41097.47
639.94	41783.24
640.09	41687.28
640.24	41258.96
640.39	40624.68
640.54	40854.05
640.68	41476.63
640.83	40985.12
640.98	41057.68
641.13	40711.28
641.27	41394.71
641.42	41319.82
641.57	40725.32
641.72	41464.93
641.86	40727.66
642.01	40526.38
642.16	40793.20
642.31	40404.67
642.45	40898.52
642.60	40638.72
642.75	40959.38
642.90	40821.28
643.04	40900.86
643.19	40605.95
643.34	40545.10
643.48	40222.11
643.63	40638.72
643.78	40996.82
643.93	40617.66
644.07	41179.39
644.22	40617.66
644.37	40451.48
644.51	40865.75
644.66	40840.01
644.81	40559.14
644.95	40678.51
645.10	40488.93
645.25	40091.04
645.39	40182.32
645.54	40383.60
645.69	39676.76
645.83	39981.03
645.98	40495.95
646.13	40423.39
646.27	40201.04
646.42	39817.19
646.57	40212.74
646.71	40233.81
646.86	40685.53
647.00	40114.44
647.15	39981.03
647.30	39995.07
647.44	40084.01
647.59	39971.67
647.74	40062.95
647.88	40395.31
648.03	40414.03
648.17	40084.01
648.32	40041.88
648.47	40404.67
648.61	40360.20
648.76	39894.43
648.90	40051.25
649.05	39791.45
649.20	39929.54
649.34	39672.08
649.49	39316.32
649.63	39849.96
649.78	39484.84
649.92	39990.39
650.07	40084.01
650.21	39791.45
650.36	39974.01
650.51	39454.41
650.65	39990.39
650.80	39896.77
650.94	39615.91
651.09	39665.06
651.23	39819.53
651.38	39309.30
651.52	38817.78
651.67	38824.81
651.81	39545.69
651.96	39360.79
652.10	39407.60
652.25	39030.77
652.39	39608.89
652.54	39318.66
652.68	39166.52
652.83	39321.00
652.97	39391.22
653.12	39164.18
653.26	39056.52
653.41	39335.04
653.55	39152.48
653.70	39391.22
653.84	39288.23
653.99	39470.79
654.13	39033.11
654.27	38855.23
654.42	39068.22
654.56	38707.78
654.71	38801.40
654.85	38724.16
655.00	39136.10
655.14	39222.70
655.29	39100.99
655.43	39428.66
655.57	38703.10
655.72	38539.26
655.86	38979.28
656.01	38651.61
656.15	38569.69
656.30	38749.91
656.44	38822.47
656.58	38635.22
656.73	38651.61
656.87	38419.89
657.01	38586.07
657.16	38675.01
657.30	38698.42
657.45	38614.16
657.59	38377.76
657.73	38162.43
657.88	38455.00
658.02	38398.83
658.16	38787.36
658.31	38288.82
658.45	38501.81
658.60	38529.90
658.74	37982.21
658.88	38192.86
659.03	37986.89
659.17	37790.29
659.31	37874.55
659.46	37830.08
659.60	38122.65
659.74	37574.96
659.89	37708.37
660.03	37605.39
660.17	38188.18
660.32	37469.64
660.46	37743.48
660.60	37418.14
660.74	37200.47
660.89	37703.69
661.03	37549.21
661.17	37228.56
661.32	37303.46
661.46	37174.73
661.60	37214.52
661.74	36734.71
661.89	37015.57
662.03	37383.04
662.17	37031.96
662.31	37167.71
662.46	37511.77
662.60	36570.87
662.74	36666.83
662.88	36598.96
663.03	36491.29
663.17	36821.31
663.31	36226.81
663.45	36563.85
663.60	36613.00
663.74	37055.36
663.88	36603.64
664.02	36294.69
664.17	36416.40
664.31	36095.74
664.45	36079.36
664.59	36215.11
664.73	36060.63
664.88	36137.87
665.02	35950.63
665.16	36091.06
665.30	35882.75
665.44	36215.11
665.59	35707.21
665.73	35821.90
665.87	35501.25
666.01	36196.38
666.15	35967.01
666.29	35346.77
666.44	35859.35
666.58	35868.71
666.72	35594.87
666.86	35466.14
667.00	35494.22
667.14	35037.82
667.28	35211.02
667.43	35498.91
667.57	35122.08
667.71	34916.11
667.85	35180.59
667.99	34983.99
668.13	35007.39
668.27	34883.34
668.41	35161.87
668.56	34192.89
668.70	34398.85
668.84	34291.19
668.98	34286.51
669.12	34338.00
669.26	34632.91
669.40	34363.75
669.54	34307.57
669.68	34387.15
669.82	34340.34
669.96	33862.87
670.10	33560.94
670.25	34235.02
670.39	33919.04
670.53	34101.61
670.67	33647.54
670.81	34202.25
670.95	33916.70
671.09	33617.11
671.23	33326.89
671.37	33305.82
671.51	33277.74
671.65	33418.17
671.79	33167.73
671.93	33647.54
672.07	34033.73
672.21	33481.36
672.35	33221.56
672.49	32975.81
672.63	33118.58
672.77	32966.45
672.91	33006.23
673.05	32407.06
673.19	32385.99
673.33	32598.98
673.47	32329.82
673.61	32123.85
673.75	32243.22
673.89	32236.20
674.03	31868.73
674.17	32137.90
674.31	31810.22
674.45	31927.25
674.59	31861.71
674.73	31938.95
674.87	31400.63
675.01	31945.97
675.15	31353.82
675.29	31424.03
675.43	31349.14
675.56	31585.53
675.70	31391.26
675.84	31208.70
675.98	30281.85
676.12	30581.44
676.26	30864.64
676.40	31026.14
676.54	30766.34
676.68	30480.80
676.82	30307.60
676.96	31028.48
677.10	30661.02
677.23	30370.79
677.37	30515.90
677.51	30366.11
677.65	30398.88
677.79	30134.40
677.93	30298.23
678.07	29837.15
678.21	29984.60
678.34	29455.64
678.48	29666.29
678.62	29319.89
678.76	29205.20
678.90	28978.17
679.04	29579.69
679.18	29319.89
679.31	28889.23
679.45	28769.86
679.59	28535.81
679.73	28666.88
679.87	28685.61
680.00	28982.85
680.14	28484.32
680.28	28769.86
680.42	28779.23
680.56	28278.35
680.70	27875.78
680.83	28006.85
680.97	28102.81
681.11	27922.59
681.25	27824.29
681.39	27445.12
681.52	27536.40
681.66	27381.93
681.80	26995.74
681.94	26881.05
682.07	26955.95
682.21	26785.09
682.35	26937.23
682.49	26778.07
682.62	27058.93
682.76	27101.06
682.90	26799.13
683.04	26366.13
683.17	26225.70
683.31	25996.33
683.45	26155.49
683.59	25575.03
683.72	26272.51
683.86	25722.49
684.00	26136.76
684.13	25816.11
684.27	25710.78
684.41	25151.40
684.55	25851.22
684.68	25638.23
684.82	25163.10
684.96	24964.15
685.09	25287.15
685.23	25214.59
685.37	25193.53
685.50	25345.66
685.64	25296.51
685.78	24781.59
685.91	24622.44
686.05	24390.72
686.19	23983.47
686.32	24177.73
686.46	24095.82
686.60	23850.06
686.73	24264.33
686.87	23957.72
687.01	24049.00
687.14	24070.07
687.28	23805.59
687.42	23634.73
687.55	23536.43
687.69	23866.44
687.82	23241.52
687.96	23414.72
688.10	23545.79
688.23	23080.02
688.37	23140.88
688.50	23360.89
688.64	22869.37
688.78	22958.31
688.91	22834.27
689.05	22829.59
689.18	22534.68
689.32	22136.79
689.46	22284.24
689.59	22185.94
689.73	22382.54
689.86	22560.42
690.00	22026.78
690.13	22162.53
690.27	21893.37
690.41	22045.51
690.54	21621.87
690.68	21703.79
690.81	21612.51
690.95	21333.98
691.08	21420.58
691.22	21214.62
691.35	21135.04
691.49	21151.42
691.62	21209.93
691.76	20816.72
691.89	20599.05
692.03	20301.81
692.16	20720.76
692.30	20538.20
692.43	20287.76
692.57	20156.69
692.70	20367.34
692.84	20077.12
692.97	19756.46
693.11	19946.05
693.24	19770.51
693.38	19810.29
693.51	19499.00
693.65	19601.99
693.78	19428.79
693.92	19594.96
694.05	18998.13
694.19	19316.44
694.32	19260.27
694.45	19365.59
694.59	19370.27
694.72	19063.66
694.86	19140.90
694.99	19150.26
695.13	18939.62
695.26	18321.71
695.39	18455.12
695.53	18429.38
695.66	18656.41
695.80	18310.01
695.93	18403.63
696.07	18197.67
696.20	18015.10
696.33	17837.22
696.47	17441.67
696.60	17888.71
696.73	17886.37
696.87	17729.56
697.00	17919.14
697.14	17500.19
697.27	17329.33
697.40	17539.97
697.54	17352.73
697.67	17444.01
697.80	17331.67
697.94	17062.51
698.07	16858.88
698.21	16842.50
698.34	16730.15
698.47	16847.18
698.61	16194.17
698.74	16470.35
698.87	16524.18
699.01	16210.55
699.14	16327.58
699.27	16149.70
699.40	16072.46
699.54	15990.54
699.67	16187.14
699.80	16168.42
699.94	15920.32
700.07	16184.80
700.20	15868.83
700.34	15602.01
700.47	15679.25
700.60	15747.12
700.73	15623.08
700.87	15318.81
701.00	15316.47
701.13	15002.83
701.26	15197.10
701.40	15225.18
701.53	15026.24
701.66	14946.66
701.79	14857.72
701.93	14581.54
702.06	14698.56
702.19	14532.39
702.32	14932.62
702.46	14839.00
702.59	14567.49
702.72	14279.61
702.85	14551.11
702.99	14408.34
703.12	14490.26
703.25	14200.03
703.38	14099.39
703.51	14223.44
703.65	13846.61
703.78	13951.93
703.91	13614.90
704.04	13544.68
704.17	13675.75
704.31	13741.29
704.44	13582.13
704.57	13418.29
704.70	13504.89
704.83	13371.48
704.96	13336.37
705.10	13156.15
705.23	13020.40
>>>>>End Processed Spectral Data<<<<<
