SpectraSuite Data File
++++++++++++++++++++++++++++++++++++
Date: Fri Oct 25 11:34:34 EDT 2013
User: price-jones
Dark Spectrum Present: No
Reference Spectrum Present: No
Number of Sampled Component Spectra: 1
Spectrometers: USB2+H05261
Integration Time (usec): 100000 (USB2+H05261)
Spectra Averaged: 1 (USB2+H05261)
Boxcar Smoothing: 0 (USB2+H05261)
Correct for Electrical Dark: No (USB2+H05261)
Strobe/Lamp Enabled: No (USB2+H05261)
Correct for Detector Non-linearity: No (USB2+H05261)
Correct for Stray Light: No (USB2+H05261)
Number of Pixels in Processed Spectrum: 2048
>>>>>Begin Processed Spectral Data<<<<<
365.73	250.44
365.92	250.44
366.12	250.44
366.32	224.69
366.52	124.05
366.72	229.37
366.91	224.69
367.11	194.26
367.31	205.97
367.51	180.22
367.70	166.18
367.90	259.80
368.10	163.84
368.30	215.33
368.49	175.54
368.69	255.12
368.89	191.92
369.09	198.95
369.28	283.20
369.48	252.78
369.68	198.95
369.87	259.80
370.07	255.12
370.27	194.26
370.47	337.04
370.66	475.13
370.86	484.49
371.06	554.71
371.25	608.54
371.45	543.00
371.65	657.69
371.84	571.09
372.04	517.26
372.24	540.66
372.44	505.56
372.63	608.54
372.83	514.92
373.03	662.37
373.22	650.67
373.42	599.18
373.62	648.33
373.81	648.33
374.01	667.05
374.21	683.44
374.40	613.22
374.60	655.35
374.79	645.99
374.99	650.67
375.19	674.07
375.38	613.22
375.58	601.52
375.78	585.13
375.97	645.99
376.17	732.59
376.37	648.33
376.56	667.05
376.76	603.86
376.95	610.88
377.15	634.29
377.35	638.97
377.54	657.69
377.74	648.33
377.93	678.76
378.13	645.99
378.33	786.42
378.52	713.86
378.72	695.14
378.91	674.07
379.11	617.90
379.31	741.95
379.50	676.41
379.70	709.18
379.89	720.88
380.09	613.22
380.28	711.52
380.48	709.18
380.68	662.37
380.87	657.69
381.07	622.58
381.26	720.88
381.46	770.04
381.65	692.80
381.85	767.70
382.04	746.63
382.24	772.38
382.43	802.80
382.63	758.33
382.83	784.08
383.02	765.36
383.22	723.23
383.41	800.46
383.61	786.42
383.80	837.91
384.00	753.65
384.19	744.29
384.39	823.87
384.58	821.53
384.78	816.85
384.97	866.00
385.17	781.74
385.36	816.85
385.56	854.30
385.75	744.29
385.95	840.25
386.14	849.61
386.34	849.61
386.53	826.21
386.72	837.91
386.92	744.29
387.11	833.23
387.31	856.64
387.50	905.79
387.70	819.19
387.89	863.66
388.09	826.21
388.28	858.98
388.48	882.38
388.67	823.87
388.86	847.27
389.06	858.98
389.25	943.24
389.45	931.53
389.64	936.21
389.84	961.96
390.03	931.53
390.22	997.07
390.42	910.47
390.61	943.24
390.81	866.00
391.00	959.62
391.19	968.98
391.39	987.71
391.58	954.94
391.78	961.96
391.97	971.32
392.16	877.70
392.36	997.07
392.55	1013.45
392.75	987.71
392.94	1053.24
393.13	1011.11
393.33	994.73
393.52	1053.24
393.71	1088.35
393.91	1078.99
394.10	1111.75
394.29	1083.67
394.49	1074.31
394.68	1104.73
394.88	1069.62
395.07	1121.12
395.26	1137.50
395.46	1076.65
395.65	1151.54
395.84	1221.76
396.04	1212.40
396.23	1212.40
396.42	1191.33
396.62	1128.14
396.81	1121.12
397.00	1104.73
397.19	1132.82
397.39	1179.63
397.58	1191.33
397.77	1226.44
397.97	1259.21
398.16	1219.42
398.35	1252.19
398.55	1212.40
398.74	1238.14
398.93	1324.74
399.12	1266.23
399.32	1296.66
399.51	1322.40
399.70	1196.01
399.90	1235.80
400.09	1210.06
400.28	1294.32
400.47	1313.04
400.67	1320.06
400.86	1341.13
401.05	1418.36
401.24	1369.21
401.44	1371.55
401.63	1306.02
401.82	1404.32
402.01	1380.92
402.21	1366.87
402.40	1432.41
402.59	1474.54
402.78	1509.65
402.97	1437.09
403.17	1549.43
403.36	1526.03
403.55	1439.43
403.74	1446.45
403.93	1521.35
404.13	1570.50
404.32	1547.09
404.51	1584.54
404.70	1530.71
404.89	1547.09
405.09	1619.65
405.28	1568.16
405.47	1638.38
405.66	1645.40
405.85	1673.48
406.05	1638.38
406.24	1650.08
406.43	1729.66
406.62	1741.36
406.81	1720.29
407.00	1706.25
407.20	1605.61
407.39	1764.76
407.58	1802.21
407.77	1783.49
407.96	1849.02
408.15	1783.49
408.34	1750.72
408.54	1820.94
408.73	1816.26
408.92	1959.03
409.11	1776.47
409.30	1968.39
409.49	1858.39
409.68	1980.09
409.87	1902.86
410.07	1942.64
410.26	1956.69
410.45	2066.69
410.64	2019.88
410.83	2015.20
411.02	2080.74
411.21	2104.14
411.40	2111.16
411.59	2113.50
411.78	2101.80
411.98	2143.93
412.17	2066.69
412.36	2188.40
412.55	2275.00
412.74	2260.96
412.93	2296.07
413.12	2246.91
413.31	2387.35
413.50	2349.90
413.69	2230.53
413.88	2406.07
414.07	2429.48
414.26	2366.28
414.45	2476.29
414.64	2518.42
414.83	2450.54
415.02	2530.12
415.22	2476.29
415.41	2480.97
415.60	2520.76
415.79	2480.97
415.98	2612.04
416.17	2548.84
416.36	2581.61
416.55	2544.16
416.74	2731.41
416.93	2752.47
417.12	2717.36
417.31	2705.66
417.50	2857.79
417.69	2825.03
417.88	2913.97
418.07	2738.43
418.26	2768.85
418.45	2822.69
418.64	2956.10
418.83	2794.60
419.02	2813.32
419.21	2937.37
419.39	2951.42
419.58	2920.99
419.77	2944.39
419.96	3063.76
420.15	3063.76
420.34	3042.70
420.53	2984.18
420.72	2979.50
420.91	2979.50
421.10	3089.51
421.29	3173.77
421.48	3122.27
421.67	3281.43
421.86	3159.72
422.05	3101.21
422.24	3192.49
422.43	3218.24
422.61	3173.77
422.80	3133.98
422.99	3232.28
423.18	3218.24
423.37	3236.96
423.56	3180.79
423.75	3316.54
423.94	3204.19
424.13	3033.33
424.32	3229.94
424.50	3297.81
424.69	3365.69
424.88	3414.84
425.07	3243.98
425.26	3185.47
425.45	3103.55
425.64	3255.69
425.83	3332.92
426.01	3386.76
426.20	3382.07
426.39	3251.00
426.58	3262.71
426.77	3265.05
426.96	3405.48
427.15	3419.52
427.33	3452.29
427.52	3393.78
427.71	3386.76
427.90	3433.57
428.09	3691.02
428.28	3590.38
428.46	3517.83
428.65	3501.44
428.84	3592.72
429.03	3751.88
429.22	3454.63
429.40	3578.68
429.59	3623.15
429.78	3489.74
429.97	3478.04
430.16	3515.48
430.34	3588.04
430.53	3686.34
430.72	3695.71
430.91	3684.00
431.10	3693.37
431.28	3845.50
431.47	3847.84
431.66	3789.33
431.85	3775.28
432.03	3861.88
432.22	4021.04
432.41	3913.38
432.60	3861.88
432.79	3864.22
432.97	3882.95
433.16	3971.89
433.35	3889.97
433.54	3955.51
433.72	3985.93
433.91	4021.04
434.10	4007.00
434.28	4114.66
434.47	4021.04
434.66	4074.87
434.85	4184.88
435.03	4042.11
435.22	4196.58
435.41	4205.94
435.59	4140.41
435.78	4196.58
435.97	4264.46
436.16	4360.42
436.34	4224.67
436.53	4208.28
436.72	4238.71
436.90	4138.07
437.09	4416.59
437.28	4351.06
437.46	4271.48
437.65	4510.21
437.84	4425.95
438.02	4397.87
438.21	4486.81
438.40	4322.97
438.58	4535.96
438.77	4533.62
438.96	4491.49
439.14	4683.41
439.33	4624.90
439.52	4676.39
439.70	4664.69
439.89	4933.85
440.08	4758.31
440.26	4861.29
440.45	4849.59
440.63	4933.85
440.82	4908.10
441.01	4954.91
441.19	5036.83
441.38	5041.51
441.57	5006.41
441.75	5011.09
441.94	5008.75
442.12	5071.94
442.31	5261.52
442.50	5322.38
442.68	5252.16
442.87	5071.94
443.05	5207.69
443.24	5329.40
443.43	5198.33
443.61	5144.50
443.80	5378.55
443.98	5170.24
444.17	5097.69
444.35	5327.06
444.54	5392.59
444.73	5404.30
444.91	5331.74
445.10	5432.38
445.28	5191.31
445.47	5373.87
445.65	5451.11
445.84	5511.96
446.02	5408.98
446.21	5486.22
446.39	5352.81
446.58	5509.62
446.77	5523.66
446.95	5493.24
447.14	5495.58
447.32	5465.15
447.51	5523.66
447.69	5577.50
447.88	5523.66
448.06	5481.53
448.25	5689.84
448.43	5518.98
448.62	5526.00
448.80	5617.29
448.99	5673.46
449.17	5760.06
449.36	5493.24
449.54	5654.73
449.73	5652.39
449.91	5757.72
450.10	5823.25
450.28	5834.96
450.46	5816.23
450.65	5863.04
450.83	5909.85
451.02	5881.77
451.20	5961.34
451.39	6150.93
451.57	5846.66
451.76	6012.84
451.94	5923.90
452.13	5942.62
452.31	5961.34
452.49	5877.09
452.68	5870.06
452.86	5975.39
453.05	6029.22
453.23	6207.10
453.42	6083.05
453.60	6047.94
453.78	6099.44
453.97	6033.90
454.15	6183.70
454.34	6134.54
454.52	6059.65
454.70	6237.53
454.89	6312.42
455.07	6164.97
455.26	6331.15
455.44	6293.70
455.62	6300.72
455.81	6410.73
455.99	6572.22
456.17	6448.18
456.36	6476.26
456.54	6555.84
456.73	6569.88
456.91	6555.84
457.09	6548.82
457.28	6871.81
457.46	6677.55
457.64	6747.76
457.83	6806.28
458.01	6672.87
458.19	6803.94
458.38	6656.48
458.56	6726.70
458.74	6768.83
458.93	6963.09
459.11	6801.60
459.29	6874.15
459.48	6799.26
459.66	6970.12
459.84	7084.80
460.03	7143.32
460.21	6991.18
460.39	7094.16
460.57	7171.40
460.76	6977.14
460.94	7094.16
461.12	7201.83
461.31	7101.19
461.49	7190.13
461.67	7152.68
461.85	7506.10
462.04	7232.26
462.22	7719.09
462.40	7412.48
462.59	7393.75
462.77	7260.34
462.95	7201.83
463.13	7391.41
463.32	7515.46
463.50	7662.91
463.68	7557.59
463.86	7639.51
464.05	7470.99
464.23	7379.71
464.41	7611.42
464.59	7386.73
464.78	7679.30
464.96	7749.51
465.14	7648.87
465.32	7707.38
465.50	7712.07
465.69	7798.66
465.87	7861.86
466.05	7702.70
466.23	7847.82
466.41	7698.02
466.60	7779.94
466.78	7798.66
466.96	7679.30
467.14	7955.48
467.32	8016.33
467.51	7843.14
467.69	7597.38
467.87	7850.16
468.05	7990.59
468.23	7941.44
468.41	7920.37
468.60	7929.74
468.78	8133.36
468.96	8088.89
469.14	8262.09
469.32	8418.91
469.50	7999.95
469.69	8280.82
469.87	8376.78
470.05	8439.97
470.23	8374.44
470.41	8425.93
470.59	8671.68
470.77	8341.67
470.95	8215.28
471.14	8664.66
471.32	8542.96
471.50	8589.77
471.68	8542.96
471.86	8896.38
472.04	8688.07
472.22	8898.72
472.40	8559.34
472.58	9069.58
472.77	8812.12
472.95	8877.65
473.13	9125.75
473.31	9015.74
473.49	9027.45
473.67	9008.72
473.85	8805.10
474.03	9289.59
474.21	9446.40
474.39	9226.39
474.57	9371.50
474.75	9315.33
474.93	9507.26
475.12	9394.91
475.30	9593.86
475.48	9558.75
475.66	9727.27
475.84	9687.48
476.02	9713.22
476.20	9671.09
476.38	9844.29
476.56	10092.39
476.74	10029.20
476.92	10153.24
477.10	10003.45
477.28	10104.09
477.46	10111.11
477.64	10399.00
477.82	10286.65
478.00	10497.30
478.18	10565.18
478.36	10600.29
478.54	10839.02
478.72	10630.71
478.90	10998.18
479.08	11047.33
479.26	10998.18
479.44	11052.01
479.62	11154.99
479.80	11513.10
479.98	11459.26
480.16	11440.54
480.34	11658.21
480.52	11578.63
480.70	11545.86
480.88	11569.27
481.06	11749.49
481.24	11714.38
481.41	11850.13
481.59	12100.57
481.77	12154.40
481.95	12112.27
482.13	12329.94
482.31	12538.25
482.49	12695.07
482.67	12552.29
482.85	12692.73
483.03	13020.40
483.21	13107.00
483.39	12863.58
483.57	12877.63
483.74	13149.13
483.92	13224.03
484.10	13378.50
484.28	13549.36
484.46	13715.54
484.64	13785.76
484.82	13729.58
485.00	13951.93
485.18	14183.65
485.35	14494.94
485.53	14232.80
485.71	14286.63
485.89	14846.02
486.07	14349.82
486.25	14684.52
486.43	14946.66
486.61	14682.18
486.78	14927.94
486.96	15143.27
487.14	15040.28
487.32	15344.55
487.50	15377.32
487.68	15449.88
487.85	15866.49
488.03	16208.21
488.21	16360.34
488.39	16252.68
488.57	16020.97
488.75	16376.73
488.92	16374.39
489.10	16615.46
489.28	16723.13
489.46	16985.27
489.64	16723.13
489.81	16917.39
489.99	16980.59
490.17	17177.19
490.35	17373.80
490.53	17593.81
490.70	17556.36
490.88	17605.51
491.06	17701.47
491.24	17996.38
491.41	18061.91
491.59	18373.21
491.77	18129.79
491.95	18485.55
492.13	18471.51
492.30	18499.59
492.48	18836.63
492.66	19016.85
492.84	18941.96
493.01	19152.60
493.19	19014.51
493.37	19339.85
493.54	19131.54
493.72	19779.87
493.90	19496.66
494.08	19765.82
494.25	19660.50
494.43	20140.31
494.61	20411.81
494.79	20091.16
494.96	20037.33
495.14	20493.73
495.32	20657.57
495.49	20395.43
495.67	21081.21
495.85	21149.08
496.02	20959.50
496.20	21280.15
496.38	21364.41
496.55	21149.08
496.73	21699.11
496.91	21628.89
497.09	21603.14
497.26	21778.68
497.44	21493.14
497.62	21668.68
497.79	22279.56
497.97	22216.36
498.14	22513.61
498.32	22302.96
498.50	22574.47
498.67	22787.46
498.85	22764.05
499.03	22590.85
499.20	22871.72
499.38	22754.69
499.56	23012.15
499.73	23124.49
499.91	23075.34
500.08	23187.69
500.26	23133.86
500.44	23248.54
500.61	23482.59
500.79	23384.29
500.97	23887.51
501.14	24306.46
501.32	23939.00
501.49	24240.93
501.67	23892.19
501.84	24180.07
502.02	24374.34
502.20	24329.87
502.37	24254.97
502.55	24465.62
502.72	24577.97
502.90	24507.75
503.07	24603.71
503.25	24458.60
503.43	24980.54
503.60	25020.33
503.78	24861.17
503.95	24840.11
504.13	25092.88
504.30	25174.80
504.48	25263.74
504.65	25425.24
504.83	25259.06
505.01	25647.59
505.18	25773.98
505.36	26094.63
505.53	25652.27
505.71	26043.14
505.88	25610.14
506.06	25687.38
506.23	26038.46
506.41	26197.62
506.58	26218.68
506.76	26534.65
506.93	26513.59
507.11	26316.98
507.28	26761.69
507.46	26693.81
507.63	26881.05
507.81	26766.37
507.98	26859.99
508.16	27065.96
508.33	27173.62
508.50	27318.73
508.68	27667.47
508.85	27522.36
509.03	27428.74
509.20	27290.65
509.38	27864.08
509.55	28074.73
509.73	28030.26
509.90	27943.66
510.08	27927.27
510.25	27969.40
510.42	28432.83
510.60	28175.37
510.77	28442.19
510.95	28804.97
511.12	28254.95
511.30	28334.53
511.47	28589.64
511.64	28503.04
511.82	28701.99
511.99	28386.02
512.17	29109.24
512.34	29165.42
512.51	29357.34
512.69	29003.92
512.86	29326.91
513.04	29603.10
513.21	29357.34
513.38	29673.31
513.56	29699.06
513.73	29511.81
513.90	29572.67
514.08	29565.65
514.25	29701.40
514.43	30089.93
514.60	29921.41
514.77	30036.09
514.95	30115.67
515.12	30302.92
515.29	30129.72
515.47	30085.25
515.64	30469.09
515.81	30368.45
515.99	30728.89
516.16	30808.47
516.33	30934.86
516.51	30916.14
516.68	30885.71
516.85	30747.62
517.03	30993.37
517.20	31061.25
517.37	31012.10
517.54	31096.36
517.72	31173.60
517.89	31328.07
518.06	31578.51
518.24	31257.85
518.41	31491.91
518.58	31473.18
518.75	31407.65
518.93	31714.26
519.10	31482.55
519.27	32060.66
519.45	31447.44
519.62	32046.62
519.79	31798.52
519.96	31971.72
520.14	32470.25
520.31	31644.04
520.48	32280.67
520.65	32105.13
520.83	32556.85
521.00	32594.30
521.17	32215.13
521.34	32929.00
521.52	32624.73
521.69	32683.24
521.86	32877.51
522.03	32842.40
522.20	33350.29
522.38	33347.95
522.55	32982.83
522.72	33207.52
522.89	33401.79
523.07	33472.00
523.24	33130.28
523.41	33551.58
523.58	33357.32
523.75	33617.11
523.92	33879.25
524.10	33771.59
524.27	33979.90
524.44	34258.42
524.61	34244.38
524.78	33900.32
524.96	33926.07
525.13	34242.04
525.30	34356.72
525.47	34354.38
525.64	34064.16
525.81	34380.13
525.98	34623.54
526.16	34347.36
526.33	34216.29
526.50	34614.18
526.67	34691.42
526.84	35000.37
527.01	34609.50
527.18	34925.47
527.36	34747.59
527.53	35157.19
527.70	35105.70
527.87	35665.08
528.04	35225.06
528.21	35110.38
528.38	35002.71
528.55	35438.05
528.72	35182.93
528.89	35199.32
529.07	35503.59
529.24	35552.74
529.41	35714.23
529.58	35562.10
529.75	35599.55
529.92	35637.00
530.09	35660.40
530.26	36002.12
530.43	35929.56
530.60	35943.61
530.77	36009.14
530.94	36027.87
531.11	35927.22
531.28	36385.97
531.46	35992.76
531.63	36268.94
531.80	35704.87
531.97	36491.29
532.14	36390.65
532.31	36392.99
532.48	36538.10
532.65	36432.78
532.82	36697.26
532.99	36706.62
533.16	36889.18
533.33	36638.75
533.50	36591.94
533.67	36772.16
533.84	36636.41
534.01	36811.95
534.18	36961.74
534.35	37441.55
534.52	37116.22
534.69	37305.80
534.86	37610.07
535.03	36933.65
535.20	37659.22
535.37	37486.02
535.54	37244.94
535.71	37284.73
535.88	37769.22
536.05	37397.08
536.22	37703.69
536.38	37942.42
536.55	37581.98
536.72	37912.00
536.89	37256.65
537.06	38113.28
537.23	38506.49
537.40	37652.20
537.57	37820.72
537.74	38258.40
537.91	38522.88
538.08	37991.58
538.25	38115.62
538.42	38162.43
538.59	38387.13
538.75	38122.65
538.92	38288.82
539.09	38520.54
539.26	38658.63
539.43	38469.04
539.60	38848.21
539.77	38452.66
539.94	38895.02
540.11	38550.96
540.28	38408.19
540.44	38319.25
540.61	38815.44
540.78	38520.54
540.95	38827.15
541.12	38911.41
541.29	39335.04
541.46	38602.46
541.62	39098.65
541.79	39234.40
541.96	38930.13
542.13	39098.65
542.30	39147.80
542.47	39400.58
542.63	39381.85
542.80	39578.46
542.97	39749.32
543.14	39690.80
543.31	39789.11
543.48	39510.58
543.64	40142.53
543.81	39812.51
543.98	39742.30
544.15	39786.77
544.32	39992.73
544.48	40299.34
544.65	40072.31
544.82	40175.30
544.99	40142.53
545.16	40772.13
545.32	40069.97
545.49	40144.87
545.66	40514.67
545.83	40524.04
546.00	40409.35
546.16	40147.21
546.33	40428.07
546.50	40308.71
546.67	40851.71
546.83	39988.05
547.00	40341.47
547.17	40608.29
547.34	40217.43
547.50	40666.81
547.67	41071.72
547.84	40701.92
548.00	41317.48
548.17	41132.57
548.34	41132.57
548.51	41195.77
548.67	41120.87
548.84	41233.22
549.01	41017.89
549.18	41064.70
549.34	41057.68
549.51	41258.96
549.68	41244.92
549.84	41574.94
550.01	41556.21
550.18	41247.26
550.34	41794.95
550.51	41710.69
550.68	42061.77
550.84	41144.28
551.01	41687.28
551.18	41198.11
551.34	41542.17
551.51	41539.83
551.68	41736.43
551.84	41598.34
552.01	41514.08
552.18	41764.52
552.34	41750.48
552.51	42075.81
552.68	41804.31
552.84	41907.29
553.01	42277.10
553.18	41970.49
553.34	41759.84
553.51	41881.55
553.67	41914.31
553.84	42382.42
554.01	42747.54
554.17	42117.94
554.34	42431.57
554.51	42043.04
554.67	42806.06
554.84	42686.69
555.00	42087.51
555.17	42457.32
555.33	42410.51
555.50	42909.04
555.67	42658.60
555.83	42522.85
556.00	42609.45
556.16	43051.81
556.33	42850.53
556.50	42555.62
556.66	42752.23
556.83	42532.22
556.99	42632.86
557.16	43234.38
557.32	43086.92
557.49	42967.55
557.65	42691.37
557.82	42878.61
557.98	43056.50
558.15	42895.00
558.32	43096.28
558.48	43084.58
558.65	42906.70
558.81	43140.75
558.98	43037.77
559.14	43112.67
559.31	43220.33
559.47	42735.84
559.64	43061.18
559.80	43641.63
559.97	43000.32
560.13	42974.58
560.30	43297.57
560.46	43372.47
560.63	43739.93
560.79	43339.70
560.96	43906.11
561.12	43791.42
561.29	43580.78
561.45	43540.99
561.61	43943.56
561.78	43339.70
561.94	43653.33
562.11	43440.34
562.27	43524.60
562.44	43840.57
562.60	44004.41
562.77	43508.22
562.93	43402.89
563.10	43592.48
563.26	43206.29
563.42	44212.72
563.59	43592.48
563.75	44039.52
563.92	43686.10
564.08	43711.84
564.24	43487.15
564.41	44105.06
564.57	43665.03
564.74	43573.75
564.90	43625.25
565.07	43665.03
565.23	43849.94
565.39	43871.00
565.56	43992.71
565.72	43711.84
565.88	44053.56
566.05	44217.40
566.21	44018.46
566.38	43964.62
566.54	44304.00
566.70	44133.14
566.87	43847.60
567.03	44034.84
567.19	44465.50
567.36	44287.62
567.52	44037.18
567.68	44182.29
567.85	44329.75
568.01	44217.40
568.17	43983.35
568.34	44729.98
568.50	44147.18
568.66	43943.56
568.83	44329.75
568.99	44479.54
569.15	44650.40
569.32	44086.33
569.48	44336.77
569.64	44172.93
569.81	44488.90
569.97	44142.50
570.13	44821.26
570.30	44151.87
570.46	44727.64
570.62	44610.61
570.78	44526.35
570.95	44694.87
571.11	44465.50
571.27	44067.61
571.43	44144.84
571.60	44502.95
571.76	44266.55
571.92	44538.05
572.09	44105.06
572.25	44238.47
572.41	44329.75
572.57	44264.21
572.74	45275.32
572.90	44584.86
573.06	44940.63
573.22	44631.68
573.38	44776.79
573.55	44837.64
573.71	44900.84
573.87	44980.42
574.03	44601.25
574.20	45090.42
574.36	44568.48
574.52	44830.62
574.68	44680.83
574.84	44935.95
575.01	44989.78
575.17	44973.39
575.33	44737.00
575.49	44486.56
575.65	44844.66
575.82	44664.44
575.98	44701.89
576.14	44790.83
576.30	44884.45
576.46	45059.99
576.62	44924.24
576.79	44917.22
576.95	44301.66
577.11	44509.97
577.27	44795.51
577.43	44760.40
577.59	44847.00
577.75	44577.84
577.92	44357.83
578.08	44978.07
578.24	44870.41
578.40	45193.40
578.56	45291.71
578.72	44938.29
578.88	45162.98
579.04	45090.42
579.21	44807.22
579.37	44882.11
579.53	45284.68
579.69	44655.08
579.85	44924.24
580.01	45284.68
580.17	45024.89
580.33	45382.99
580.49	44835.30
580.65	45038.93
580.82	44493.58
580.98	44828.28
581.14	44271.23
581.30	44966.37
581.46	44863.39
581.62	44800.19
581.78	44835.30
581.94	45256.60
582.10	45415.76
582.26	45705.98
582.42	44729.98
582.58	45207.45
582.74	45078.72
582.90	44685.51
583.06	45205.11
583.22	44847.00
583.38	44938.29
583.54	44729.98
583.70	45048.29
583.86	45256.60
584.02	45116.17
584.18	45240.21
584.34	45071.70
584.50	45717.68
584.66	45207.45
584.82	44825.94
584.98	45624.06
585.14	45759.81
585.30	45324.47
585.46	45088.08
585.62	45078.72
585.78	45207.45
585.94	44701.89
586.10	45027.23
586.26	44823.60
586.42	45153.62
586.58	44975.73
586.74	45003.82
586.90	45151.27
587.06	45256.60
587.22	45170.00
587.38	44875.09
587.54	45326.81
587.70	45090.42
587.86	45167.66
588.02	44870.41
588.18	45446.18
588.34	45457.88
588.49	45277.66
588.65	45174.68
588.81	44935.95
588.97	45235.53
589.13	45352.56
589.29	45343.20
589.45	45298.73
589.61	45610.02
589.77	45722.37
589.93	45366.60
590.08	45478.95
590.24	45549.17
590.40	45876.84
590.56	45595.98
590.72	45488.31
590.88	45354.90
591.04	45404.05
591.20	45900.25
591.35	45827.69
591.51	46396.44
591.67	45549.17
591.83	46021.95
591.99	45518.74
592.15	45752.79
592.31	45909.61
592.46	45507.04
592.62	45523.42
592.78	45762.15
592.94	45776.20
593.10	46045.36
593.26	45794.92
593.41	45713.00
593.57	46024.29
593.73	45668.53
593.89	46033.66
594.05	46197.49
594.20	45881.52
594.36	46298.14
594.52	45771.52
594.68	45689.60
594.84	45591.30
594.99	45787.90
595.15	45794.92
595.31	45818.33
595.47	46291.12
595.62	45895.56
595.78	45675.55
595.94	46057.06
596.10	45858.12
596.25	45954.08
596.41	46195.15
596.57	45834.71
596.73	46003.23
596.88	46288.77
597.04	45610.02
597.20	46314.52
597.36	46138.98
597.51	45942.38
597.67	45832.37
597.83	46171.75
597.99	46431.55
598.14	45914.29
598.30	45949.40
598.46	46085.15
598.61	46300.48
598.77	46426.87
598.93	46050.04
599.09	46075.79
599.24	46246.65
599.40	46192.81
599.56	46176.43
599.71	46604.75
599.87	46344.95
600.03	46110.89
600.18	46272.39
600.34	46241.96
600.50	46225.58
600.65	46068.76
600.81	46211.54
600.97	46115.58
601.12	45872.16
601.28	45942.38
601.44	45996.21
601.59	45677.90
601.75	45780.88
601.91	46426.87
602.06	46106.21
602.22	46087.49
602.37	45766.84
602.53	45914.29
602.69	46036.00
602.84	45808.96
603.00	46232.60
603.16	46033.66
603.31	46351.97
603.47	46108.55
603.62	46115.58
603.78	46106.21
603.94	45975.14
604.09	45787.90
604.25	45614.70
604.40	45909.61
604.56	45925.99
604.71	46319.20
604.87	46124.94
605.03	45593.64
605.18	46094.51
605.34	46024.29
605.49	45918.97
605.65	46176.43
605.80	46387.08
605.96	46124.94
606.12	45556.19
606.27	46300.48
606.43	45642.79
606.58	46071.10
606.74	46110.89
606.89	46124.94
607.05	46424.53
607.20	46239.62
607.36	45928.33
607.51	45928.33
607.67	45869.82
607.82	45858.12
607.98	46349.63
608.13	45951.74
608.29	45846.41
608.44	45888.54
608.60	45846.41
608.75	46216.22
608.91	45680.24
609.06	45823.01
609.22	46106.21
609.37	45453.20
609.53	45654.49
609.68	46309.84
609.84	45787.90
609.99	45874.50
610.15	45888.54
610.30	45806.62
610.46	45834.71
610.61	45764.49
610.76	46003.23
610.92	45556.19
611.07	45509.38
611.23	45097.44
611.38	45628.74
611.54	45717.68
611.69	45511.72
611.84	45656.83
612.00	45455.54
612.15	45757.47
612.31	45930.67
612.46	45193.40
612.62	45422.78
612.77	45123.19
612.92	45909.61
613.08	45420.44
613.23	45839.39
613.39	45382.99
613.54	45523.42
613.69	45820.67
613.85	45280.00
614.00	45551.51
614.15	45848.75
614.31	45219.15
614.46	44882.11
614.62	44992.12
614.77	45336.18
614.92	45366.60
615.08	45242.56
615.23	45118.51
615.38	45448.52
615.54	45155.96
615.69	45500.01
615.84	45024.89
616.00	45378.31
616.15	45408.73
616.30	45544.48
616.46	45390.01
616.61	45031.91
616.76	44889.13
616.92	44636.36
617.07	44748.70
617.22	45205.11
617.37	44697.21
617.53	45184.04
617.68	44889.13
617.83	44821.26
617.99	45022.54
618.14	45038.93
618.29	44928.92
618.45	44481.88
618.60	45221.49
618.75	44332.09
618.90	44626.99
619.06	44570.82
619.21	44870.41
619.36	44851.69
619.51	44722.96
619.67	44767.43
619.82	44823.60
619.97	44694.87
620.12	44694.87
620.28	44327.41
620.43	44870.41
620.58	44751.04
620.73	45102.12
620.89	45462.57
621.04	44996.80
621.19	44926.58
621.34	44594.23
621.49	44556.78
621.65	44641.04
621.80	44779.13
621.95	44280.60
622.10	44362.51
622.25	44411.67
622.41	44016.11
622.56	44425.71
622.71	44587.21
622.86	44680.83
623.01	44350.81
623.16	44376.56
623.32	44619.97
623.47	44402.30
623.62	44250.17
623.77	44355.49
623.92	44203.36
624.07	44334.43
624.23	44704.23
624.38	44453.79
624.53	44374.22
624.68	43831.21
624.83	43973.98
624.98	44140.16
625.13	44137.82
625.29	43892.07
625.44	44172.93
625.59	43782.06
625.74	44147.18
625.89	43711.84
626.04	43683.76
626.19	43796.10
626.34	43423.96
626.49	43100.97
626.65	43505.88
626.80	43868.66
626.95	43447.36
627.10	43508.22
627.25	43770.36
627.40	43826.53
627.55	43966.96
627.70	43768.02
627.85	43604.18
628.00	43805.47
628.15	43739.93
628.30	43468.43
628.45	43161.82
628.60	43058.84
628.76	43452.05
628.91	42993.30
629.06	43054.15
629.21	43215.65
629.36	43044.79
629.51	43325.66
629.66	43468.43
629.81	42934.79
629.96	43084.58
630.11	43131.39
630.26	43185.22
630.41	43103.31
630.56	43030.75
630.71	43274.16
630.86	42841.17
631.01	42572.00
631.16	42829.46
631.31	43012.02
631.46	42899.68
631.61	43014.37
631.76	43201.61
631.91	43145.44
632.06	43508.22
632.21	43168.84
632.36	43098.62
632.51	42913.72
632.66	43061.18
632.81	43208.63
632.96	43267.14
633.10	42485.40
633.25	42930.11
633.40	42909.04
633.55	42658.60
633.70	42637.54
633.85	42745.20
634.00	42658.60
634.15	42527.53
634.30	42464.34
634.45	42307.52
634.60	42162.41
634.75	42600.09
634.90	42670.31
635.05	42707.76
635.19	42389.44
635.34	42705.41
635.49	42029.00
635.64	42550.94
635.79	42850.53
635.94	42586.05
636.09	42307.52
636.24	42337.95
636.39	42199.86
636.53	42581.37
636.68	42298.16
636.83	41743.45
636.98	42298.16
637.13	41888.57
637.28	41893.25
637.43	41940.06
637.57	41839.42
637.72	41743.45
637.87	42155.39
638.02	42082.83
638.17	42038.36
638.32	41914.31
638.46	41668.56
638.61	41769.20
638.76	41567.91
638.91	41862.82
639.06	41483.66
639.20	41429.82
639.35	41460.25
639.50	41518.76
639.65	41794.95
639.80	41619.41
639.94	41951.76
640.09	41563.23
640.24	41628.77
640.39	41418.12
640.54	40872.78
640.68	41544.51
640.83	42000.91
640.98	41645.15
641.13	41181.73
641.27	41596.00
641.42	41488.34
641.57	41067.04
641.72	41448.55
641.86	41448.55
642.01	41015.55
642.16	41144.28
642.31	40694.89
642.45	41289.39
642.60	41331.52
642.75	40879.80
642.90	41062.36
643.04	41368.97
643.19	40919.59
643.34	40692.55
643.48	40727.66
643.63	40957.03
643.78	40648.08
643.93	41200.45
644.07	41244.92
644.22	41462.59
644.37	40767.45
644.51	41230.88
644.66	40989.80
644.81	40989.80
644.95	40643.40
645.10	40872.78
645.25	40587.23
645.39	40580.21
645.54	40692.55
645.69	40655.11
645.83	40362.54
645.98	40844.69
646.13	40177.64
646.27	40390.62
646.42	40271.26
646.57	40664.47
646.71	40669.15
646.86	40875.12
647.00	40800.22
647.15	40807.24
647.30	40753.41
647.44	40301.68
647.59	40837.67
647.74	40385.94
647.88	40463.18
648.03	40765.11
648.17	40924.27
648.32	40175.30
648.47	40671.49
648.61	40399.99
648.76	40240.83
648.90	40287.64
649.05	40006.78
649.20	39812.51
649.34	40004.44
649.49	40130.83
649.63	40254.87
649.78	40205.72
649.92	40226.79
650.07	40304.02
650.21	40301.68
650.36	40168.27
650.51	40135.51
650.65	40271.26
650.80	40308.71
650.94	39929.54
651.09	40275.94
651.23	39803.15
651.38	39768.04
651.52	39810.17
651.67	39538.67
651.81	39651.02
651.96	39629.95
652.10	39938.90
652.25	39732.93
652.39	39416.96
652.54	39426.32
652.68	39510.58
652.83	39723.57
652.97	39611.23
653.12	39288.23
653.26	39512.92
653.41	39730.59
653.55	39578.46
653.70	39578.46
653.84	39342.06
653.99	39304.62
654.13	39566.76
654.27	39381.85
654.42	39023.75
654.56	39072.90
654.71	39407.60
654.85	39110.35
655.00	39409.94
655.14	39140.78
655.29	39449.73
655.43	39398.24
655.57	39108.01
655.72	38834.17
655.86	39086.95
656.01	38883.32
656.15	38820.13
656.30	38604.80
656.44	38859.91
656.58	39012.05
656.73	38953.54
656.87	39079.92
657.01	38347.34
657.16	39285.89
657.30	38815.44
657.45	38883.32
657.59	38480.75
657.73	38363.72
657.88	38588.41
658.02	38548.62
658.16	38897.36
658.31	38389.47
658.45	39147.80
658.60	38576.71
658.74	38621.18
658.88	38778.00
659.03	38319.25
659.17	38237.33
659.31	38286.48
659.46	38040.73
659.60	38520.54
659.74	38298.19
659.89	37841.78
660.03	37394.74
660.17	38012.64
660.32	37972.85
660.46	38005.62
660.60	37909.66
660.74	37586.66
660.89	38143.71
661.03	37322.18
661.17	37518.79
661.32	37670.92
661.46	37645.18
661.60	37263.67
661.74	37266.01
661.89	37376.01
662.03	37319.84
662.17	37509.43
662.31	36849.39
662.46	37479.00
662.60	37090.47
662.74	36978.12
662.88	37165.37
663.03	36842.37
663.17	36418.74
663.31	36521.72
663.45	37092.81
663.60	37214.52
663.74	37240.26
663.88	36856.42
664.02	36753.43
664.17	37223.88
664.31	36180.00
664.45	36407.03
664.59	36495.97
664.73	36325.11
664.88	36034.89
665.02	36224.47
665.16	36400.01
665.30	36210.43
665.44	36332.14
665.59	35833.60
665.73	35969.35
665.87	35852.33
666.01	36011.48
666.15	36222.13
666.29	35838.28
666.44	36112.13
666.58	36205.75
666.72	35749.34
666.86	35615.93
667.00	35770.41
667.14	35952.97
667.28	35716.58
667.43	35337.41
667.57	35716.58
667.71	35634.66
667.85	35651.04
667.99	35524.65
668.13	35023.78
668.27	35000.37
668.41	35023.78
668.56	34628.23
668.70	34836.53
668.84	34756.96
668.98	34522.90
669.12	34838.87
669.26	34302.89
669.40	34628.23
669.54	34644.61
669.68	34684.40
669.82	34752.27
669.96	34045.43
670.10	33996.28
670.25	34188.21
670.39	34197.57
670.53	34178.84
670.67	33776.27
670.81	34249.06
670.95	34588.44
671.09	34003.30
671.23	33970.54
671.37	34199.91
671.51	33813.72
671.65	33584.35
671.79	33724.78
671.93	33876.91
672.07	33497.75
672.21	33535.20
672.35	33031.98
672.49	33450.94
672.63	33219.22
672.77	33085.81
672.91	33275.40
673.05	33041.34
673.19	33031.98
673.33	32910.27
673.47	32959.42
673.61	32671.54
673.75	32542.81
673.89	32765.16
674.03	32149.60
674.17	32046.62
674.31	32264.28
674.45	32020.87
674.59	32161.30
674.73	32020.87
674.87	32044.27
675.01	31875.76
675.15	31555.10
675.29	31573.83
675.43	31477.86
675.56	31800.86
675.70	31662.77
675.84	31264.88
675.98	30417.60
676.12	31496.59
676.26	31527.02
676.40	31363.18
676.54	31016.78
676.68	31171.25
676.82	30403.56
676.96	31033.16
677.10	30771.02
677.23	30316.96
677.37	30710.17
677.51	30363.77
677.65	30602.50
677.79	30745.28
677.93	29947.15
678.07	30181.21
678.21	29869.92
678.34	29785.66
678.48	29511.81
678.62	29762.25
678.76	29689.70
678.90	29689.70
679.04	29558.63
679.18	29322.23
679.31	29095.20
679.45	29074.13
679.59	29032.00
679.73	29118.60
679.87	28933.70
680.00	28711.35
680.14	28589.64
680.28	28786.25
680.42	28306.44
680.56	28615.39
680.70	28009.19
680.83	28493.68
680.97	28453.89
681.11	28371.97
681.25	28081.75
681.39	27346.82
681.52	27658.11
681.66	27578.53
681.80	27257.88
681.94	27138.51
682.07	26953.61
682.21	26759.34
682.35	27159.58
682.49	26967.65
682.62	26808.50
682.76	26927.86
682.90	27147.87
683.04	26775.73
683.17	26857.65
683.31	26565.08
683.45	26621.25
683.59	26354.43
683.72	26239.75
683.86	26167.19
684.00	26054.84
684.13	26052.50
684.27	25551.63
684.41	25923.77
684.55	26003.35
684.68	25598.44
684.82	25177.14
684.96	25331.62
685.09	25146.72
685.23	25310.55
685.37	25455.67
685.50	25493.12
685.64	25621.84
685.78	24952.45
685.91	25214.59
686.05	24727.76
686.19	24126.24
686.32	24629.46
686.46	24418.81
686.60	24566.26
686.73	24226.89
686.87	24435.19
687.01	24393.06
687.14	24060.71
687.28	23880.49
687.42	24208.16
687.55	23831.33
687.69	23798.57
687.82	23424.08
687.96	23702.61
688.10	23428.76
688.23	23805.59
688.37	23461.53
688.50	23536.43
688.64	23346.84
688.78	23171.30
688.91	23288.33
689.05	23019.17
689.18	22909.16
689.32	22405.95
689.46	22211.68
689.59	22541.70
689.73	22988.74
689.86	22696.17
690.00	22361.48
690.13	22572.13
690.27	22064.23
690.41	22214.02
690.54	22052.53
690.68	21834.86
690.81	21762.30
690.95	21600.80
691.08	21317.60
691.22	21422.92
691.35	21476.76
691.49	21509.52
691.62	21537.61
691.76	20577.99
691.89	20561.61
692.03	20760.55
692.16	20482.03
692.30	20582.67
692.43	20631.82
692.57	20140.31
692.70	20318.19
692.84	20222.23
692.97	19939.02
693.11	20308.83
693.24	19974.13
693.38	20042.01
693.51	19704.97
693.65	19847.74
693.78	19466.24
693.92	19583.26
694.05	19695.61
694.19	19484.96
694.32	19625.39
694.45	19719.01
694.59	19711.99
694.72	19503.68
694.86	19110.47
694.99	19000.47
695.13	18731.31
695.26	18951.32
695.39	18689.18
695.53	18686.84
695.66	18745.35
695.80	18597.90
695.93	18518.32
696.07	18258.52
696.20	18258.52
696.33	18078.30
696.47	18125.11
696.60	17914.46
696.73	17970.63
696.87	18054.89
697.00	18008.08
697.14	17603.17
697.27	17549.34
697.40	17561.04
697.54	17371.46
697.67	17692.11
697.80	17125.70
697.94	17305.92
698.07	17125.70
698.21	16926.75
698.34	16964.20
698.47	16901.01
698.61	16601.42
698.74	16589.72
698.87	16559.29
699.01	16552.27
699.14	16240.98
699.27	16360.34
699.40	16215.23
699.54	16271.40
699.67	16168.42
699.80	16039.69
699.94	16025.65
700.07	16077.14
700.20	16229.27
700.34	15702.65
700.47	15730.74
700.60	15971.82
700.73	15754.15
700.87	15545.84
701.00	15496.69
701.13	15262.63
701.26	15440.51
701.40	15382.00
701.53	15044.96
701.66	14836.66
701.79	15192.42
701.93	14876.44
702.06	14618.99
702.19	14717.29
702.32	14848.36
702.46	14738.35
702.59	14824.95
702.72	14951.34
702.85	14768.78
702.99	14480.89
703.12	14331.10
703.25	14090.02
703.38	14083.00
703.51	13877.04
703.65	14150.88
703.78	13743.63
703.91	13750.65
704.04	13867.67
704.17	13635.96
704.31	13661.71
704.44	13532.98
704.57	13624.26
704.70	13652.34
704.83	13268.50
704.96	13317.65
705.10	13165.51
705.23	12996.99
>>>>>End Processed Spectral Data<<<<<
