SpectraSuite Data File
++++++++++++++++++++++++++++++++++++
Date: Fri Oct 25 11:34:29 EDT 2013
User: price-jones
Dark Spectrum Present: No
Reference Spectrum Present: No
Number of Sampled Component Spectra: 1
Spectrometers: USB2+H05261
Integration Time (usec): 100000 (USB2+H05261)
Spectra Averaged: 1 (USB2+H05261)
Boxcar Smoothing: 0 (USB2+H05261)
Correct for Electrical Dark: No (USB2+H05261)
Strobe/Lamp Enabled: No (USB2+H05261)
Correct for Detector Non-linearity: No (USB2+H05261)
Correct for Stray Light: No (USB2+H05261)
Number of Pixels in Processed Spectrum: 2048
>>>>>Begin Processed Spectral Data<<<<<
365.73	217.67
365.92	217.67
366.12	217.67
366.32	248.10
366.52	231.71
366.72	259.80
366.91	147.45
367.11	163.84
367.31	135.75
367.51	147.45
367.70	166.18
367.90	187.24
368.10	173.20
368.30	182.56
368.49	222.35
368.69	257.46
368.89	212.99
369.09	264.48
369.28	222.35
369.48	229.37
369.68	194.26
369.87	212.99
370.07	278.52
370.27	308.95
370.47	353.42
370.66	468.11
370.86	538.32
371.06	606.20
371.25	561.73
371.45	564.07
371.65	557.05
371.84	484.49
372.04	491.51
372.24	535.98
372.44	554.71
372.63	524.28
372.83	648.33
373.03	622.58
373.22	575.77
373.42	568.75
373.62	620.24
373.81	671.73
374.01	664.71
374.21	561.73
374.40	627.26
374.60	573.43
374.79	610.88
374.99	650.67
375.19	683.44
375.38	695.14
375.58	690.46
375.78	648.33
375.97	624.92
376.17	638.97
376.37	699.82
376.56	667.05
376.76	643.65
376.95	734.93
377.15	650.67
377.35	638.97
377.54	718.54
377.74	678.76
377.93	650.67
378.13	711.52
378.33	758.33
378.52	622.58
378.72	669.39
378.91	697.48
379.11	697.48
379.31	737.27
379.50	695.14
379.70	805.14
379.89	739.61
380.09	627.26
380.28	697.48
380.48	655.35
380.68	657.69
380.87	704.50
381.07	730.25
381.26	718.54
381.46	784.08
381.65	688.12
381.85	746.63
382.04	706.84
382.24	770.04
382.43	770.04
382.63	730.25
382.83	758.33
383.02	732.59
383.22	854.30
383.41	662.37
383.61	772.38
383.80	856.64
384.00	760.67
384.19	748.97
384.39	830.89
384.58	788.76
384.78	823.87
384.97	823.87
385.17	809.83
385.36	784.08
385.56	844.93
385.75	758.33
385.95	830.89
386.14	805.14
386.34	798.12
386.53	875.36
386.72	802.80
386.92	805.14
387.11	947.92
387.31	891.74
387.50	882.38
387.70	945.58
387.89	929.19
388.09	884.72
388.28	870.68
388.48	816.85
388.67	851.96
388.86	870.68
389.06	915.15
389.25	903.45
389.45	830.89
389.64	940.90
389.84	957.28
390.03	983.02
390.22	954.94
390.42	961.96
390.61	997.07
390.81	880.04
391.00	961.96
391.19	968.98
391.39	980.68
391.58	912.81
391.78	992.39
391.97	957.28
392.16	1013.45
392.36	1018.13
392.55	1062.60
392.75	1053.24
392.94	1083.67
393.13	1025.15
393.33	1046.22
393.52	1060.26
393.71	1128.14
393.91	992.39
394.10	1046.22
394.29	1081.33
394.49	1107.07
394.68	1032.18
394.88	1121.12
395.07	1081.33
395.26	1032.18
395.46	1074.31
395.65	1156.22
395.84	1144.52
396.04	1156.22
396.23	1139.84
396.42	1104.73
396.62	1123.46
396.81	1146.86
397.00	1153.88
397.19	1196.01
397.39	1130.48
397.58	1177.29
397.77	1217.08
397.97	1191.33
398.16	1142.18
398.35	1193.67
398.55	1200.69
398.74	1273.25
398.93	1289.64
399.12	1282.61
399.32	1151.54
399.51	1181.97
399.70	1327.08
399.90	1343.47
400.09	1387.94
400.28	1315.38
400.47	1270.91
400.67	1390.28
400.86	1362.19
401.05	1432.41
401.24	1338.79
401.44	1392.62
401.63	1432.41
401.82	1350.49
402.01	1409.00
402.21	1493.26
402.40	1385.60
402.59	1362.19
402.78	1420.71
402.97	1495.60
403.17	1486.24
403.36	1558.80
403.55	1483.90
403.74	1572.84
403.93	1542.41
404.13	1516.67
404.32	1610.29
404.51	1584.54
404.70	1476.88
404.89	1640.72
405.09	1675.82
405.28	1626.67
405.47	1607.95
405.66	1720.29
405.85	1607.95
406.05	1549.43
406.24	1741.36
406.43	1689.87
406.62	1760.08
406.81	1741.36
407.00	1746.04
407.20	1701.57
407.39	1692.21
407.58	1757.74
407.77	1860.73
407.96	1706.25
408.15	1867.75
408.34	1739.02
408.54	1818.60
408.73	1856.04
408.92	1762.42
409.11	1884.13
409.30	1886.47
409.49	1858.39
409.68	1827.96
409.87	1963.71
410.07	2071.37
410.26	1879.45
410.45	2099.46
410.64	1944.99
410.83	2031.58
411.02	1998.82
411.21	2132.23
411.40	2108.82
411.59	2101.80
411.78	2122.87
411.98	2186.06
412.17	2209.47
412.36	2162.66
412.55	2253.94
412.74	2244.57
412.93	2204.78
413.12	2186.06
413.31	2373.30
413.50	2389.69
413.69	2211.81
413.88	2373.30
414.07	2286.70
414.26	2370.96
414.45	2422.45
414.64	2445.86
414.83	2415.43
415.02	2640.12
415.22	2518.42
415.41	2597.99
415.60	2630.76
415.79	2583.95
415.98	2654.17
416.17	2595.65
416.36	2558.21
416.55	2654.17
416.74	2623.74
416.93	2768.85
417.12	2712.68
417.31	2799.28
417.50	2754.81
417.69	2920.99
417.88	2722.04
418.07	2822.69
418.26	2846.09
418.45	2981.84
418.64	2965.46
418.83	2935.03
419.02	2890.56
419.21	2897.58
419.39	2937.37
419.58	3101.21
419.77	3059.08
419.96	2958.44
420.15	3098.87
420.34	3066.10
420.53	3070.78
420.72	3014.61
420.91	3129.30
421.10	3073.12
421.29	3091.85
421.48	3126.96
421.67	3112.91
421.86	3197.17
422.05	3211.22
422.24	3222.92
422.43	3344.63
422.61	3403.14
422.80	3218.24
422.99	3192.49
423.18	3269.73
423.37	3438.25
423.56	3178.45
423.75	3267.39
423.94	3218.24
424.13	3126.96
424.32	3108.23
424.50	3365.69
424.69	3438.25
424.88	3463.99
425.07	3253.34
425.26	3279.09
425.45	3325.90
425.64	3304.84
425.83	3272.07
426.01	3330.58
426.20	3274.41
426.39	3382.07
426.58	3361.01
426.77	3412.50
426.96	3391.44
427.15	3410.16
427.33	3480.38
427.52	3531.87
427.71	3419.52
427.90	3445.27
428.09	3527.19
428.28	3597.40
428.46	3660.60
428.65	3562.30
428.84	3700.39
429.03	3641.87
429.22	3510.80
429.40	3641.87
429.59	3705.07
429.78	3552.93
429.97	3433.57
430.16	3541.23
430.34	3688.68
430.53	3691.02
430.72	3744.86
430.91	3815.07
431.10	3700.39
431.28	3789.33
431.47	3843.16
431.66	3840.82
431.85	3911.04
432.03	3819.75
432.22	3955.51
432.41	3861.88
432.60	3918.06
432.79	3815.07
432.97	3962.53
433.16	3859.54
433.35	4044.45
433.54	3946.14
433.72	3985.93
433.91	3999.98
434.10	4098.28
434.28	4011.68
434.47	4194.24
434.66	4053.81
434.85	4147.43
435.03	4112.32
435.22	4133.39
435.41	4163.81
435.59	4245.73
435.78	4257.43
435.97	4196.58
436.16	4215.30
436.34	4250.41
436.53	4264.46
436.72	4320.63
436.90	4222.33
437.09	4386.16
437.28	4428.29
437.46	4329.99
437.65	4421.27
437.84	4447.02
438.02	4358.08
438.21	4540.64
438.40	4365.10
438.58	4505.53
438.77	4727.88
438.96	4447.02
439.14	4713.84
439.33	4603.83
439.52	4711.50
439.70	4695.11
439.89	4709.16
440.08	4748.95
440.26	4718.52
440.45	4891.72
440.63	4908.10
440.82	4915.12
441.01	4784.06
441.19	5006.41
441.38	5135.14
441.57	5128.11
441.75	5078.96
441.94	5301.31
442.12	5097.69
442.31	5125.77
442.50	5210.03
442.68	5219.39
442.87	5263.86
443.05	5430.04
443.24	5376.21
443.43	5329.40
443.61	5341.10
443.80	5420.68
443.98	5327.06
444.17	5067.26
444.35	5238.12
444.54	5476.85
444.73	5341.10
444.91	5240.46
445.10	5577.50
445.28	5371.53
445.47	5221.74
445.65	5479.19
445.84	5509.62
446.02	5486.22
446.21	5497.92
446.39	5453.45
446.58	5472.17
446.77	5511.96
446.95	5387.91
447.14	5460.47
447.32	5575.16
447.51	5394.93
447.69	5549.41
447.88	5584.52
448.06	5668.78
448.25	5455.79
448.43	5589.20
448.62	5500.26
448.80	5500.26
448.99	5701.54
449.17	5753.04
449.36	5617.29
449.54	5598.56
449.73	5804.53
449.91	6003.47
450.10	5907.51
450.28	6064.33
450.46	5820.91
450.65	5902.83
450.83	6033.90
451.02	5851.34
451.20	5970.71
451.39	5846.66
451.57	5865.38
451.76	5893.47
451.94	5884.11
452.13	6017.52
452.31	6129.86
452.49	6036.24
452.68	5980.07
452.86	6092.41
453.05	6069.01
453.23	6225.82
453.42	6214.12
453.60	5933.26
453.78	6169.65
453.97	6181.35
454.15	6108.80
454.34	6225.82
454.52	6094.76
454.70	6251.57
454.89	6363.92
455.07	6242.21
455.26	6293.70
455.44	6396.68
455.62	6300.72
455.81	6452.86
455.99	6457.54
456.17	6466.90
456.36	6506.69
456.54	6434.13
456.73	6661.16
456.91	6614.35
457.09	6626.06
457.28	6963.09
457.46	6684.57
457.64	6675.21
457.83	6829.68
458.01	6710.32
458.19	6853.09
458.38	6927.99
458.56	6970.12
458.74	7030.97
458.93	6909.26
459.11	6930.33
459.29	6963.09
459.48	7049.69
459.66	7042.67
459.84	6984.16
460.03	7145.66
460.21	7037.99
460.39	7009.90
460.57	7157.36
460.76	7122.25
460.94	7101.19
461.12	7075.44
461.31	7328.22
461.49	7344.60
461.67	7213.53
461.85	7105.87
462.04	7335.24
462.22	7606.74
462.40	7550.57
462.59	7290.77
462.77	7300.13
462.95	7410.14
463.13	7360.98
463.32	7461.63
463.50	7583.34
463.68	7775.26
463.86	7658.23
464.05	7522.48
464.23	7590.36
464.41	7426.52
464.59	7473.33
464.78	7782.28
464.96	7583.34
465.14	7468.65
465.32	7826.75
465.50	7700.36
465.69	7803.35
465.87	7714.41
466.05	7747.17
466.23	7639.51
466.41	8044.42
466.60	7845.48
466.78	7784.62
466.96	7878.24
467.14	7808.03
467.32	7929.74
467.51	8004.63
467.69	7829.09
467.87	8070.17
468.05	8154.43
468.23	7922.71
468.41	7903.99
468.60	8037.40
468.78	8168.47
468.96	8081.87
469.14	8196.56
469.32	8332.31
469.50	8088.89
469.69	8491.46
469.87	8589.77
470.05	8306.56
470.23	8229.32
470.41	8472.74
470.59	8341.67
470.77	8547.64
470.95	8451.67
471.14	8549.98
471.32	8348.69
471.50	8498.49
471.68	8575.72
471.86	8505.51
472.04	8879.99
472.22	8926.80
472.40	8699.77
472.58	8879.99
472.77	8938.51
472.95	9027.45
473.13	9352.78
473.31	8837.86
473.49	9083.62
473.67	8973.61
473.85	9219.37
474.03	9282.56
474.21	9338.74
474.39	9516.62
474.57	9427.68
474.75	9376.19
474.93	9397.25
475.12	9322.35
475.30	9738.97
475.48	9738.97
475.66	9813.87
475.84	9430.02
476.02	9823.23
476.20	9841.95
476.38	9818.55
476.56	9902.81
476.74	10345.17
476.92	9935.57
477.10	10347.51
477.28	10162.61
477.46	10129.84
477.64	10293.68
477.82	10513.69
478.00	10635.39
478.18	10455.17
478.36	10714.97
478.54	10623.69
478.72	10984.13
478.90	11066.05
479.08	10920.94
479.26	11002.86
479.44	11265.00
479.62	11363.30
479.80	11283.72
479.98	11353.94
480.16	11763.53
480.34	11548.20
480.52	11871.20
480.70	11522.46
480.88	11836.09
481.06	11758.85
481.24	11836.09
481.41	12135.68
481.59	12098.23
481.77	12236.32
481.95	12095.89
482.13	12545.27
482.31	12212.92
482.49	12748.90
482.67	12755.92
482.85	12704.43
483.03	12982.95
483.21	13060.19
483.39	13177.22
483.57	13226.37
483.74	13483.83
483.92	13312.97
484.10	13401.91
484.28	13385.52
484.46	13940.23
484.64	14258.54
484.82	13795.12
485.00	13893.42
485.18	14382.59
485.35	14368.55
485.53	14260.88
485.71	14441.11
485.89	14831.97
486.07	14628.35
486.25	14593.24
486.43	14768.78
486.61	14822.61
486.78	14946.66
486.96	15234.55
487.14	15316.47
487.32	15566.90
487.50	15704.99
487.68	15744.78
487.85	15927.35
488.03	15840.75
488.21	16123.95
488.39	16304.17
488.57	16397.79
488.75	16425.88
488.92	16697.38
489.10	16629.51
489.28	16636.53
489.46	17153.79
489.64	17109.32
489.81	17359.75
489.99	17202.94
490.17	17504.87
490.35	17722.54
490.53	17596.15
490.70	17710.83
490.88	17635.94
491.06	17893.40
491.24	17832.54
491.41	18387.25
491.59	18157.88
491.77	18321.71
491.95	18520.66
492.13	18698.54
492.30	18855.36
492.48	18824.93
492.66	19119.84
492.84	18836.63
493.01	19286.01
493.19	18993.45
493.37	19573.90
493.54	19438.15
493.72	19824.34
493.90	19744.76
494.08	19908.60
494.25	19981.15
494.43	20011.58
494.61	20266.70
494.79	20091.16
494.96	20030.30
495.14	20421.17
495.32	20870.56
495.49	20706.72
495.67	20737.15
495.85	21069.50
496.02	21350.37
496.20	21348.03
496.38	21507.18
496.55	21177.17
496.73	22087.64
496.91	21465.05
497.09	21820.81
497.26	21982.31
497.44	21891.03
497.62	21930.82
497.79	22419.99
497.97	22106.36
498.14	22410.63
498.32	22483.19
498.50	22492.55
498.67	22782.77
498.85	22838.95
499.03	23042.57
499.20	22979.38
499.38	23204.07
499.56	23527.06
499.73	23377.27
499.91	23452.17
500.08	23569.19
500.26	23583.24
500.44	23824.31
500.61	23992.83
500.79	23763.46
500.97	23520.04
501.14	24456.26
501.32	24201.14
501.49	24208.16
501.67	24283.06
501.84	24713.72
502.02	24196.46
502.20	24442.21
502.37	24479.66
502.55	24315.83
502.72	24559.24
502.90	24477.32
503.07	24381.36
503.25	24931.39
503.43	24924.36
503.60	25172.46
503.78	25336.30
503.95	25146.72
504.13	25296.51
504.30	25621.84
504.48	25612.48
504.65	25909.73
504.83	25553.97
505.01	26008.03
505.18	25699.08
505.36	26195.28
505.53	25853.56
505.71	26377.84
505.88	26022.08
506.06	26118.04
506.23	26094.63
506.41	26366.13
506.58	26129.74
506.76	26618.91
506.93	26698.49
507.11	26712.53
507.28	26902.12
507.46	26803.82
507.63	27199.37
507.81	27199.37
507.98	27218.09
508.16	27417.04
508.33	27400.65
508.50	27552.79
508.68	27124.47
508.85	27702.58
509.03	27517.68
509.20	27929.61
509.38	28112.17
509.55	28004.51
509.73	28006.85
509.90	28013.87
510.08	28079.41
510.25	28170.69
510.42	28526.45
510.60	28196.43
510.77	28439.85
510.95	29024.98
511.12	28409.42
511.30	28489.00
511.47	28727.74
511.64	29067.11
511.82	29221.59
511.99	28603.69
512.17	29034.35
512.34	28959.45
512.51	29408.83
512.69	29364.36
512.86	29184.14
513.04	29905.02
513.21	29226.27
513.38	29851.19
513.56	29991.62
513.73	29460.32
513.90	29415.85
514.08	29825.45
514.25	30162.48
514.43	30040.78
514.60	30455.05
514.77	30120.35
514.95	30349.73
515.12	30120.35
515.29	29846.51
515.47	30682.08
515.64	30871.67
515.81	30185.89
515.99	30628.25
516.16	31211.04
516.33	31056.57
516.51	31112.74
516.68	30953.58
516.85	31463.82
517.03	31356.16
517.20	31152.53
517.37	31012.10
517.54	31573.83
517.72	31421.69
517.89	31349.14
518.06	31496.59
518.24	31241.47
518.41	31618.30
518.58	31356.16
518.75	31491.91
518.93	31632.34
519.10	31536.38
519.27	31725.96
519.45	31894.48
519.62	32219.81
519.79	32254.92
519.96	32360.25
520.14	32437.48
520.31	32254.92
520.48	32442.17
520.65	32704.31
520.83	32779.20
521.00	32872.82
521.17	32723.03
521.34	32671.54
521.52	33146.67
521.69	32926.66
521.86	33294.12
522.03	33216.88
522.20	33617.11
522.38	33404.13
522.55	33500.09
522.72	33607.75
522.89	33448.60
523.07	33731.80
523.24	33429.87
523.41	33336.25
523.58	33727.12
523.75	33713.08
523.92	33727.12
524.10	33792.65
524.27	33853.51
524.44	34127.35
524.61	34143.74
524.78	34164.80
524.96	34258.42
525.13	34155.44
525.30	34579.07
525.47	34520.56
525.64	34178.84
525.81	34574.39
525.98	34614.18
526.16	34270.12
526.33	34756.96
526.50	35096.33
526.67	34869.30
526.84	34869.30
527.01	34658.65
527.18	35304.64
527.36	35047.18
527.53	34771.00
527.70	35096.33
527.87	35468.48
528.04	35002.71
528.21	35271.87
528.38	35519.97
528.55	35590.19
528.72	35751.68
528.89	35379.54
529.07	35459.12
529.24	35690.83
529.41	35962.33
529.58	35880.41
529.75	35676.79
529.92	35770.41
530.09	35899.14
530.26	36004.46
530.43	35936.59
530.60	35955.31
530.77	35913.18
530.94	36306.39
531.11	36128.51
531.28	36252.56
531.46	36264.26
531.63	36189.36
531.80	36481.93
531.97	36774.50
532.14	36514.70
532.31	36737.05
532.48	36779.18
532.65	36477.25
532.82	36669.17
532.99	36940.68
533.16	36893.86
533.33	37106.85
533.50	37244.94
533.67	36800.24
533.84	36933.65
534.01	37413.46
534.18	37109.19
534.35	37329.20
534.52	37125.58
534.69	37507.08
534.86	37422.83
535.03	36898.55
535.20	37593.68
535.37	38007.96
535.54	37954.13
535.71	37502.40
535.88	37846.46
536.05	37776.25
536.22	37907.32
536.38	37720.07
536.55	37696.67
536.72	38440.96
536.89	37919.02
537.06	38368.40
537.23	38082.86
537.40	37738.80
537.57	37661.56
537.74	38029.02
537.91	38490.11
538.08	38424.57
538.25	38127.33
538.42	38382.45
538.59	39096.31
538.75	38223.29
538.92	38550.96
539.09	38604.80
539.26	38749.91
539.43	38628.20
539.60	38450.32
539.77	38609.48
539.94	39232.06
540.11	39005.03
540.28	38871.62
540.44	38930.13
540.61	38363.72
540.78	38684.37
540.95	39260.15
541.12	38756.93
541.29	38789.70
541.46	39154.82
541.62	39180.57
541.79	39447.39
541.96	38981.62
542.13	39019.07
542.30	39442.71
542.47	39372.49
542.63	39313.98
542.80	39557.39
542.97	40397.65
543.14	40250.19
543.31	39854.64
543.48	39793.79
543.64	40297.00
543.81	40142.53
543.98	40020.82
544.15	40638.72
544.32	40098.06
544.48	40414.03
544.65	40378.92
544.82	40374.24
544.99	40034.86
545.16	40327.43
545.32	40133.17
545.49	40779.15
545.66	40814.26
545.83	40713.62
546.00	40292.32
546.16	40275.94
546.33	40811.92
546.50	40243.17
546.67	40954.69
546.83	40336.79
547.00	40680.85
547.17	40816.60
547.34	40996.82
547.50	41137.26
547.67	41336.20
547.84	40964.06
548.00	41390.03
548.17	41214.49
548.34	40879.80
548.51	41596.00
548.67	41371.31
548.84	41212.15
549.01	41773.88
549.18	41240.24
549.34	41801.97
549.51	41621.75
549.68	41724.73
549.84	41670.90
550.01	41832.39
550.18	41766.86
550.34	41858.14
550.51	42064.11
550.68	42043.04
550.84	41429.82
551.01	41933.04
551.18	42057.09
551.34	41928.36
551.51	41778.56
551.68	41839.42
551.84	41752.82
552.01	42073.47
552.18	41689.62
552.34	41792.61
552.51	42211.56
552.68	41993.89
552.84	42110.92
553.01	42225.60
553.18	42080.49
553.34	41965.81
553.51	41928.36
553.67	42639.88
553.84	42124.96
554.01	42770.95
554.17	42113.26
554.34	43154.80
554.51	42658.60
554.67	43051.81
554.84	42939.47
555.00	42363.70
555.17	42649.24
555.33	43016.71
555.50	42473.70
555.67	42850.53
555.83	42623.50
556.00	42660.94
556.16	43629.93
556.33	43318.64
556.50	43037.77
556.66	42883.30
556.83	42822.44
556.99	43461.41
557.16	43587.80
557.32	43330.34
557.49	42808.40
557.65	42937.13
557.82	43084.58
557.98	43138.41
558.15	43079.90
558.32	43358.42
558.48	42740.52
558.65	42700.73
558.81	43316.29
558.98	43374.81
559.14	43178.20
559.31	42976.92
559.47	43255.44
559.64	43093.94
559.80	43807.81
559.97	43426.30
560.13	43395.87
560.30	43225.01
560.46	43749.29
560.63	43557.37
560.79	43920.15
560.96	43931.86
561.12	43889.73
561.29	43742.27
561.45	43906.11
561.61	43700.14
561.78	43711.84
561.94	43985.69
562.11	43672.06
562.27	43845.26
562.44	43679.08
562.60	44343.79
562.77	43812.49
562.93	43655.67
563.10	44215.06
563.26	43660.35
563.42	44137.82
563.59	43676.74
563.75	43482.47
563.92	43798.44
564.08	43959.94
564.24	44453.79
564.41	43817.17
564.57	44074.63
564.74	44210.38
564.90	44107.40
565.07	43826.53
565.23	44217.40
565.39	44069.95
565.56	44350.81
565.72	44142.50
565.88	43768.02
566.05	43927.17
566.21	44194.00
566.38	44306.34
566.54	43931.86
566.70	44519.33
566.87	44332.09
567.03	43997.39
567.19	44563.80
567.36	44395.28
567.52	44397.62
567.68	44650.40
567.85	44622.31
568.01	44477.20
568.17	44673.81
568.34	44559.12
568.50	44395.28
568.66	44280.60
568.83	44289.96
568.99	44301.66
569.15	44444.43
569.32	44392.94
569.48	44163.57
569.64	44987.44
569.81	44587.21
569.97	44598.91
570.13	44512.31
570.30	44587.21
570.46	44907.86
570.62	45006.16
570.78	44493.58
570.95	44390.60
571.11	44898.50
571.27	44786.15
571.43	44685.51
571.60	44339.11
571.76	44282.94
571.92	44498.26
572.09	44734.66
572.25	44449.11
572.41	44690.19
572.57	44835.30
572.74	45404.05
572.90	44629.34
573.06	44765.09
573.22	45057.65
573.38	45134.89
573.55	44800.19
573.71	45188.72
573.87	45294.05
574.03	45083.40
574.20	45485.97
574.36	44680.83
574.52	44858.71
574.68	45074.04
574.84	45326.81
575.01	45216.81
575.17	45439.16
575.33	45287.03
575.49	44538.05
575.65	45305.75
575.82	44921.90
575.98	44596.57
576.14	45003.82
576.30	45504.70
576.46	44858.71
576.62	45263.62
576.79	44732.32
576.95	44823.60
577.11	44477.20
577.27	44870.41
577.43	45113.83
577.59	45151.27
577.75	44737.00
577.92	45024.89
578.08	44999.14
578.24	45036.59
578.40	45397.03
578.56	44935.95
578.72	45160.64
578.88	45336.18
579.04	45153.62
579.21	45146.59
579.37	45067.02
579.53	44847.00
579.69	44854.03
579.85	44837.64
580.01	45059.99
580.17	45485.97
580.33	45450.86
580.49	44947.65
580.65	45045.95
580.82	44964.03
580.98	44968.71
581.14	44996.80
581.30	45502.35
581.46	45013.18
581.62	45109.14
581.78	44938.29
581.94	44961.69
582.10	45195.74
582.26	45607.68
582.42	45160.64
582.58	45272.98
582.74	45249.58
582.90	45064.67
583.06	45155.96
583.22	45085.74
583.38	44926.58
583.54	45380.65
583.70	45537.46
583.86	45713.00
584.02	45769.18
584.18	45387.67
584.34	45312.77
584.50	45223.83
584.66	45801.94
584.82	45855.78
584.98	45790.24
585.14	45460.23
585.30	45385.33
585.46	45071.70
585.62	45570.23
585.78	45439.16
585.94	45350.22
586.10	45467.25
586.26	45067.02
586.42	45385.33
586.58	45249.58
586.74	45235.53
586.90	45291.71
587.06	45565.55
587.22	45144.25
587.38	45373.63
587.54	45247.24
587.70	46047.70
587.86	45514.06
588.02	45408.73
588.18	45254.26
588.34	45603.00
588.49	45153.62
588.65	45492.99
588.81	45347.88
588.97	45476.61
589.13	45221.49
589.29	45832.37
589.45	45792.58
589.61	46005.57
589.77	45710.66
589.93	45713.00
590.08	45741.09
590.24	45666.19
590.40	46155.36
590.56	46078.13
590.72	45783.22
590.88	45682.58
591.04	45567.89
591.20	46223.24
591.35	45830.03
591.51	46246.65
591.67	45918.97
591.83	46260.69
591.99	45933.01
592.15	45937.69
592.31	45848.75
592.46	45705.98
592.62	45823.01
592.78	46073.45
592.94	46546.23
593.10	46040.68
593.26	46368.35
593.41	45818.33
593.57	46206.86
593.73	46195.15
593.89	46202.18
594.05	46028.98
594.20	46237.28
594.36	46211.54
594.52	46202.18
594.68	46239.62
594.84	45745.77
594.99	46258.35
595.15	46073.45
595.31	46356.65
595.47	46033.66
595.62	46234.94
595.78	46028.98
595.94	46195.15
596.10	45722.37
596.25	46251.33
596.41	46213.88
596.57	46120.26
596.73	46450.27
596.88	46012.59
597.04	46223.24
597.20	46272.39
597.36	46138.98
597.51	46412.82
597.67	46234.94
597.83	45574.91
597.99	46387.08
598.14	46136.64
598.30	46185.79
598.46	46328.56
598.61	46447.93
598.77	46562.62
598.93	46684.33
599.09	46005.57
599.24	46340.27
599.40	46195.15
599.56	46387.08
599.71	46452.61
599.87	46768.58
600.03	46333.24
600.18	46354.31
600.34	46021.95
600.50	46298.14
600.65	46358.99
600.81	46787.31
600.97	46225.58
601.12	46309.84
601.28	46635.17
601.44	46099.19
601.59	46192.81
601.75	46436.23
601.91	46330.90
602.06	46295.80
602.22	46869.23
602.37	46078.13
602.53	46328.56
602.69	46340.27
602.84	45705.98
603.00	46239.62
603.16	46141.32
603.31	46782.63
603.47	46576.66
603.62	46370.69
603.78	46213.88
603.94	46286.43
604.09	46075.79
604.25	46073.45
604.40	46211.54
604.56	46136.64
604.71	46579.00
604.87	46033.66
605.03	46155.36
605.18	45738.75
605.34	46284.09
605.49	45893.22
605.65	46450.27
605.80	46305.16
605.96	45993.87
606.12	46195.15
606.27	46274.73
606.43	46162.39
606.58	45865.14
606.74	46120.26
606.89	46443.25
607.05	46417.50
607.20	46129.62
607.36	46536.87
607.51	46244.30
607.67	45942.38
607.82	46021.95
607.98	46167.07
608.13	46295.80
608.29	46209.20
608.44	46363.67
608.60	46361.33
608.75	45750.45
608.91	46265.37
609.06	45724.71
609.22	46377.72
609.37	45783.22
609.53	45909.61
609.68	45815.99
609.84	46183.45
609.99	45881.52
610.15	46038.34
610.30	46307.50
610.46	45799.60
610.61	46036.00
610.76	46167.07
610.92	45860.46
611.07	45830.03
611.23	45827.69
611.38	45907.27
611.54	45900.25
611.69	45860.46
611.84	46206.86
612.00	45851.09
612.15	46068.76
612.31	45914.29
612.46	45394.69
612.62	45352.56
612.77	45450.86
612.92	46188.13
613.08	45743.43
613.23	45804.28
613.39	46021.95
613.54	45319.79
613.69	45886.20
613.85	45755.13
614.00	45247.24
614.15	46064.08
614.31	45593.64
614.46	45570.23
614.62	45500.01
614.77	45869.82
614.92	45762.15
615.08	45612.36
615.23	45457.88
615.38	45940.04
615.54	45310.43
615.69	45256.60
615.84	45291.71
616.00	45549.17
616.15	45464.91
616.30	45694.28
616.46	45586.61
616.61	45345.54
616.76	45677.90
616.92	45422.78
617.07	45308.09
617.22	45265.96
617.37	45083.40
617.53	45448.52
617.68	45125.53
617.83	45240.21
617.99	45600.66
618.14	45415.76
618.29	45043.61
618.45	44797.85
618.60	44865.73
618.75	45188.72
618.90	44793.17
619.06	44966.37
619.21	45282.34
619.36	45085.74
619.51	44624.65
619.67	44854.03
619.82	44800.19
619.97	45214.47
620.12	45029.57
620.28	44776.79
620.43	44985.10
620.58	45055.31
620.73	44891.48
620.89	45006.16
621.04	45031.91
621.19	44868.07
621.34	44568.48
621.49	44430.39
621.65	44842.32
621.80	45305.75
621.95	44521.67
622.10	44919.56
622.25	44982.76
622.41	44479.54
622.56	44776.79
622.71	44952.33
622.86	44685.51
623.01	44678.49
623.16	44348.47
623.32	44608.27
623.47	44713.59
623.62	44470.18
623.77	44477.20
623.92	44718.28
624.07	44690.19
624.23	44996.80
624.38	44748.70
624.53	44109.74
624.68	44158.89
624.83	44261.87
624.98	44481.88
625.13	43962.28
625.29	44376.56
625.44	44116.76
625.59	44362.51
625.74	43901.43
625.89	44109.74
626.04	44109.74
626.19	43835.89
626.34	43805.47
626.49	43660.35
626.65	43908.45
626.80	43861.64
626.95	43606.52
627.10	43632.27
627.25	44041.86
627.40	43997.39
627.55	43672.06
627.70	43835.89
627.85	43943.56
628.00	44161.23
628.15	43688.44
628.30	43288.21
628.45	43505.88
628.60	43423.96
628.76	43409.92
628.91	43700.14
629.06	43529.28
629.21	43084.58
629.36	43072.88
629.51	43557.37
629.66	43831.21
629.81	43285.87
629.96	43351.40
630.11	43281.19
630.26	43398.21
630.41	43950.58
630.56	43622.90
630.71	43562.05
630.86	42887.98
631.01	42918.40
631.16	43161.82
631.31	43140.75
631.46	43196.93
631.61	43477.79
631.76	43129.05
631.91	43145.44
632.06	43847.60
632.21	43559.71
632.36	43456.73
632.51	42749.88
632.66	43079.90
632.81	43140.75
632.96	43241.40
633.10	42656.26
633.25	43365.45
633.40	43037.77
633.55	43339.70
633.70	43145.44
633.85	42504.13
634.00	42927.77
634.15	42377.74
634.30	42602.43
634.45	42719.46
634.60	42415.19
634.75	42993.30
634.90	42672.65
635.05	42958.19
635.19	42644.56
635.34	42897.34
635.49	42256.03
635.64	42593.07
635.79	42897.34
635.94	42674.99
636.09	43124.37
636.24	42029.00
636.39	42904.36
636.53	42782.65
636.68	42412.85
636.83	42178.79
636.98	42124.96
637.13	41907.29
637.28	42206.88
637.43	42129.64
637.57	42319.23
637.72	41834.74
637.87	42518.17
638.02	42349.65
638.17	42155.39
638.32	41895.59
638.46	41935.38
638.61	42033.68
638.76	42150.71
638.91	41916.65
639.06	41511.74
639.20	41785.58
639.35	41778.56
639.50	41687.28
639.65	42068.79
639.80	42265.39
639.94	41813.67
640.09	41982.19
640.24	42029.00
640.39	41525.78
640.54	41418.12
640.68	42019.64
640.83	41820.69
640.98	41769.20
641.13	41500.04
641.27	42036.02
641.42	41488.34
641.57	41429.82
641.72	41514.08
641.86	41546.85
642.01	41095.13
642.16	41493.02
642.31	40765.11
642.45	41507.06
642.60	40921.93
642.75	41244.92
642.90	41457.91
643.04	41270.67
643.19	41106.83
643.34	41333.86
643.48	41022.57
643.63	41256.62
643.78	40999.16
643.93	41563.23
644.07	41502.38
644.22	41450.89
644.37	40964.06
644.51	41165.34
644.66	41230.88
644.81	41483.66
644.95	41186.41
645.10	40964.06
645.25	41076.40
645.39	40921.93
645.54	41006.19
645.69	40509.99
645.83	40617.66
645.98	40568.51
646.13	40435.10
646.27	40807.24
646.42	40299.34
646.57	40814.26
646.71	40802.56
646.86	41118.53
647.00	40694.89
647.15	40730.00
647.30	40975.76
647.44	40727.66
647.59	40353.18
647.74	40219.77
647.88	41097.47
648.03	40444.46
648.17	40657.45
648.32	40437.44
648.47	40849.37
648.61	40046.57
648.76	40147.21
648.90	40744.05
649.05	40409.35
649.20	40278.28
649.34	40397.65
649.49	40388.28
649.63	40507.65
649.78	40376.58
649.92	40135.51
650.07	40828.30
650.21	40374.24
650.36	40594.25
650.51	40357.86
650.65	40531.06
650.80	40505.31
650.94	40034.86
651.09	40217.43
651.23	39824.22
651.38	39775.06
651.52	39564.42
651.67	40465.52
651.81	39950.60
651.96	39627.61
652.10	39777.40
652.25	39709.53
652.39	40009.12
652.54	40343.81
652.68	39772.72
652.83	39599.52
652.97	40238.49
653.12	39981.03
653.26	39594.84
653.41	39746.98
653.55	39751.66
653.70	39709.53
653.84	39945.92
653.99	39723.57
654.13	39768.04
654.27	39395.90
654.42	39651.02
654.56	39524.63
654.71	39632.29
654.85	39594.84
655.00	39873.37
655.14	39416.96
655.29	39952.94
655.43	39922.52
655.57	39164.18
655.72	39112.69
655.86	39248.44
656.01	39023.75
656.15	39037.80
656.30	38445.64
656.44	39178.23
656.58	39131.42
656.73	39328.02
656.87	39035.45
657.01	38841.19
657.16	38925.45
657.30	38873.96
657.45	39058.86
657.59	38705.44
657.73	38546.28
657.88	38576.71
658.02	38824.81
658.16	38824.81
658.31	38780.34
658.45	38520.54
658.60	38061.79
658.74	39115.03
658.88	38962.90
659.03	38548.62
659.17	38473.73
659.31	38693.74
659.46	38499.47
659.60	38490.11
659.74	38476.07
659.89	38094.56
660.03	37979.87
660.17	38426.92
660.32	38314.57
660.46	37816.04
660.60	38113.28
660.74	37926.04
660.89	38239.67
661.03	37401.76
661.17	37624.11
661.32	37652.20
661.46	37972.85
661.60	37708.37
661.74	37579.64
661.89	37310.48
662.03	37553.90
662.17	37724.75
662.31	37507.08
662.46	37338.57
662.60	37338.57
662.74	37277.71
662.88	37270.69
663.03	36828.33
663.17	36851.73
663.31	36774.50
663.45	36802.58
663.60	37366.65
663.74	37277.71
663.88	36598.96
664.02	36975.78
664.17	37336.23
664.31	36978.12
664.45	36170.64
664.59	36713.64
664.73	36744.07
664.88	36505.34
665.02	36847.05
665.16	36304.05
665.30	36442.14
665.44	36865.78
665.59	36170.64
665.73	36009.14
665.87	36039.57
666.01	35964.67
666.15	36168.30
666.29	36109.78
666.44	36058.29
666.58	36439.80
666.72	35730.62
666.86	35477.84
667.00	36084.04
667.14	35800.83
667.28	35798.49
667.43	35667.42
667.57	36023.19
667.71	35887.43
667.85	35747.00
667.99	35639.34
668.13	35208.68
668.27	35372.52
668.41	35323.36
668.56	34677.38
668.70	35070.59
668.84	34930.16
668.98	34349.70
669.12	35185.27
669.26	34848.24
669.40	35030.80
669.54	34892.71
669.68	34785.04
669.82	34583.76
669.96	34380.13
670.10	34220.97
670.25	34635.25
670.39	34185.86
670.53	34405.88
670.67	34377.79
670.81	34785.04
670.95	34218.63
671.09	34487.79
671.23	33930.75
671.37	33949.47
671.51	33809.04
671.65	33900.32
671.79	34209.27
671.93	34117.99
672.07	33825.42
672.21	33354.97
672.35	33490.73
672.49	33757.55
672.63	33598.39
672.77	33441.57
672.91	33188.80
673.05	33212.20
673.19	32940.70
673.33	33181.77
673.47	32926.66
673.61	32610.68
673.75	32826.01
673.89	32458.55
674.03	32460.89
674.17	32329.82
674.31	32390.67
674.45	32390.67
674.59	32243.22
674.73	32531.11
674.87	32168.32
675.01	31789.16
675.15	32074.70
675.29	31990.44
675.43	31807.88
675.56	32039.59
675.70	31660.43
675.84	31740.00
675.98	30569.74
676.12	31672.13
676.26	31597.23
676.40	31384.24
676.54	31016.78
676.68	31063.59
676.82	30607.19
676.96	31056.57
677.10	31133.81
677.23	30689.10
677.37	30850.60
677.51	30796.77
677.65	30565.06
677.79	30298.23
677.93	30370.79
678.07	30216.32
678.21	29649.91
678.34	30103.97
678.48	30096.95
678.62	30115.67
678.76	29738.85
678.90	29928.43
679.04	29507.13
679.18	29778.64
679.31	29207.55
679.45	29659.27
679.59	29324.57
679.73	29483.73
679.87	28854.12
680.00	28833.06
680.14	29191.16
680.28	28624.75
680.42	28685.61
680.56	28507.72
680.70	28566.24
680.83	28271.33
680.97	28009.19
681.11	28465.60
681.25	27716.62
681.39	27948.34
681.52	27608.96
681.66	27534.06
681.80	27344.48
681.94	27606.62
682.07	27339.80
682.21	27374.91
682.35	27187.66
682.49	27655.77
682.62	27131.49
682.76	27159.58
682.90	27295.33
683.04	27402.99
683.17	26993.40
683.31	26338.05
683.45	26707.85
683.59	26497.20
683.72	26199.96
683.86	26129.74
684.00	26242.09
684.13	26375.50
684.27	26464.44
684.41	25642.91
684.55	26012.71
684.68	25565.67
684.82	25429.92
684.96	25907.39
685.09	25296.51
685.23	25883.98
685.37	25687.38
685.50	25565.67
685.64	25106.93
685.78	25153.74
685.91	25509.50
686.05	24898.62
686.19	24432.85
686.32	24554.56
686.46	24299.44
686.60	24332.21
686.73	24072.41
686.87	24252.63
687.01	24491.37
687.14	24369.66
687.28	23990.49
687.42	24067.73
687.55	24130.92
687.69	23726.01
687.82	23522.38
687.96	23747.08
688.10	23632.39
688.23	23381.95
688.37	23477.91
688.50	23585.58
688.64	23386.63
688.78	23367.91
688.91	23304.71
689.05	23126.83
689.18	23035.55
689.32	22590.85
689.46	22642.34
689.59	22630.64
689.73	22761.71
689.86	22630.64
690.00	22415.31
690.13	22492.55
690.27	22319.35
690.41	22061.89
690.54	21998.70
690.68	22113.38
690.81	21825.50
690.95	21664.00
691.08	21582.08
691.22	21621.87
691.35	21687.40
691.49	21614.85
691.62	21551.65
691.76	21137.38
691.89	20816.72
692.03	20535.86
692.16	21025.03
692.30	20954.82
692.43	21013.33
692.57	20961.84
692.70	20386.07
692.84	20170.74
692.97	20465.64
693.11	20140.31
693.24	20355.64
693.38	20074.77
693.51	19866.47
693.65	19864.13
693.78	20112.22
693.92	19381.98
694.05	19639.44
694.19	19632.41
694.32	19634.75
694.45	19431.13
694.59	19667.52
694.72	19449.85
694.86	19349.21
694.99	19145.58
695.13	18970.04
695.26	18731.31
695.39	18665.77
695.53	18675.13
695.66	18862.38
695.80	18569.81
695.93	18665.77
696.07	18253.84
696.20	18136.81
696.33	18148.51
696.47	18115.75
696.60	18082.98
696.73	17944.89
696.87	17823.18
697.00	18221.07
697.14	17844.24
697.27	17399.54
697.40	17640.62
697.54	17666.36
697.67	17422.95
697.80	17603.17
697.94	17289.54
698.07	17238.05
698.21	17062.51
698.34	16968.88
698.47	16926.75
698.61	16704.40
698.74	16795.68
698.87	16854.20
699.01	16510.14
699.14	16472.69
699.27	16580.36
699.40	16477.37
699.54	16395.45
699.67	15946.07
699.80	16248.00
699.94	16063.10
700.07	16280.77
700.20	16163.74
700.34	16086.50
700.47	15901.60
700.60	15990.54
700.73	15868.83
700.87	15791.59
701.00	15604.35
701.13	15339.87
701.26	15288.38
701.40	15396.04
701.53	15073.05
701.66	15447.54
701.79	15286.04
701.93	15082.41
702.06	14707.93
702.19	14611.96
702.32	14848.36
702.46	14850.70
702.59	14939.64
702.72	14813.25
702.85	14724.31
702.99	14602.60
703.12	14527.71
703.25	14464.51
703.38	14274.93
703.51	14171.94
703.65	14197.69
703.78	14078.32
703.91	13788.10
704.04	13930.87
704.17	13710.86
704.31	13657.03
704.44	13717.88
704.57	13596.17
704.70	13631.28
704.83	13446.38
704.96	13476.80
705.10	13455.74
705.23	13231.05
>>>>>End Processed Spectral Data<<<<<
