SpectraSuite Data File
++++++++++++++++++++++++++++++++++++
Date: Fri Oct 25 10:43:35 EDT 2013
User: price-jones
Dark Spectrum Present: No
Reference Spectrum Present: No
Number of Sampled Component Spectra: 1
Spectrometers: USB2+H05261
Integration Time (usec): 100000 (USB2+H05261)
Spectra Averaged: 1 (USB2+H05261)
Boxcar Smoothing: 0 (USB2+H05261)
Correct for Electrical Dark: No (USB2+H05261)
Strobe/Lamp Enabled: No (USB2+H05261)
Correct for Detector Non-linearity: No (USB2+H05261)
Correct for Stray Light: No (USB2+H05261)
Number of Pixels in Processed Spectrum: 2048
>>>>>Begin Processed Spectral Data<<<<<
365.73	105.32
365.92	105.32
366.12	105.32
366.32	79.58
366.52	35.11
366.72	21.06
366.91	0.00
367.11	37.45
367.31	0.00
367.51	21.06
367.70	51.49
367.90	63.19
368.10	18.72
368.30	9.36
368.49	2.34
368.69	0.00
368.89	37.45
369.09	25.75
369.28	42.13
369.48	32.77
369.68	88.94
369.87	161.50
370.07	124.05
370.27	133.41
370.47	234.05
370.66	365.12
370.86	447.04
371.06	468.11
371.25	468.11
371.45	442.36
371.65	353.42
371.84	421.30
372.04	528.96
372.24	493.85
372.44	535.98
372.63	486.83
372.83	559.39
373.03	514.92
373.22	521.94
373.42	603.86
373.62	505.56
373.81	606.20
374.01	603.86
374.21	582.79
374.40	540.66
374.60	571.09
374.79	498.53
374.99	610.88
375.19	631.94
375.38	585.13
375.58	655.35
375.78	620.24
375.97	655.35
376.17	603.86
376.37	613.22
376.56	641.31
376.76	631.94
376.95	531.30
377.15	641.31
377.35	723.23
377.54	653.01
377.74	622.58
377.93	660.03
378.13	566.41
378.33	643.65
378.52	648.33
378.72	648.33
378.91	559.39
379.11	697.48
379.31	582.79
379.50	683.44
379.70	688.12
379.89	697.48
380.09	648.33
380.28	723.23
380.48	695.14
380.68	737.27
380.87	704.50
381.07	657.69
381.26	725.57
381.46	772.38
381.65	692.80
381.85	770.04
382.04	681.10
382.24	662.37
382.43	690.46
382.63	662.37
382.83	709.18
383.02	800.46
383.22	816.85
383.41	774.72
383.61	770.04
383.80	741.95
384.00	763.01
384.19	746.63
384.39	854.30
384.58	844.93
384.78	826.21
384.97	837.91
385.17	812.17
385.36	940.90
385.56	819.19
385.75	837.91
385.95	896.43
386.14	891.74
386.34	856.64
386.53	861.32
386.72	870.68
386.92	882.38
387.11	861.32
387.31	898.77
387.50	875.36
387.70	924.51
387.89	875.36
388.09	877.70
388.28	952.60
388.48	884.72
388.67	1015.79
388.86	959.62
389.06	891.74
389.25	891.74
389.45	954.94
389.64	978.34
389.84	1050.90
390.03	922.17
390.22	940.90
390.42	1039.20
390.61	1018.13
390.81	976.00
391.00	1069.62
391.19	1231.12
391.39	1025.15
391.58	1193.67
391.78	1097.71
391.97	1095.37
392.16	1006.43
392.36	1090.69
392.55	1039.20
392.75	936.21
392.94	971.32
393.13	1027.50
393.33	1006.43
393.52	968.98
393.71	1027.50
393.91	1053.24
394.10	1170.27
394.29	1167.93
394.49	1186.65
394.68	1235.80
394.88	1228.78
395.07	1334.11
395.26	1270.91
395.46	1231.12
395.65	1193.67
395.84	1221.76
396.04	1233.46
396.23	1172.61
396.42	1170.27
396.62	1221.76
396.81	1275.59
397.00	1214.74
397.19	1348.15
397.39	1331.76
397.58	1416.02
397.77	1392.62
397.97	1397.30
398.16	1455.81
398.35	1481.56
398.55	1451.13
398.74	1544.75
398.93	1631.35
399.12	1500.28
399.32	1540.07
399.51	1533.05
399.70	1668.80
399.90	1549.43
400.09	1547.09
400.28	1689.87
400.47	1598.59
400.67	1757.74
400.86	1689.87
401.05	1621.99
401.24	1753.06
401.44	1790.51
401.63	1717.95
401.82	1774.13
402.01	1764.76
402.21	1699.23
402.40	1767.10
402.59	1762.42
402.78	1818.60
402.97	1741.36
403.17	1842.00
403.36	1886.47
403.55	1874.77
403.74	1884.13
403.93	1907.54
404.13	1916.90
404.32	1881.79
404.51	1914.56
404.70	1996.48
404.89	2001.16
405.09	2118.18
405.28	1956.69
405.47	1963.71
405.66	2010.52
405.85	2019.88
406.05	1977.75
406.24	2148.61
406.43	2143.93
406.62	2202.44
406.81	2186.06
407.00	2141.59
407.20	2157.97
407.39	2026.90
407.58	2228.19
407.77	2134.57
407.96	2195.42
408.15	2239.89
408.34	2345.22
408.54	2319.47
408.73	2328.83
408.92	2506.71
409.11	2331.17
409.30	2441.18
409.49	2363.94
409.68	2370.96
409.87	2216.49
410.07	2263.30
410.26	2525.44
410.45	2394.37
410.64	2298.41
410.83	2605.02
411.02	2558.21
411.21	2644.81
411.40	2609.70
411.59	2766.51
411.78	2698.64
411.98	2693.96
412.17	2846.09
412.36	2773.53
412.55	2679.91
412.74	2745.45
412.93	2878.86
413.12	2855.45
413.31	3014.61
413.50	2897.58
413.69	2972.48
413.88	2979.50
414.07	2867.16
414.26	3009.93
414.45	3033.33
414.64	3070.78
414.83	3096.53
415.02	3157.38
415.22	3105.89
415.41	3265.05
415.60	3176.11
415.79	3199.51
415.98	3316.54
416.17	3243.98
416.36	3234.62
416.55	3265.05
416.74	3276.75
416.93	3260.37
417.12	3297.81
417.31	3438.25
417.50	3382.07
417.69	3562.30
417.88	3438.25
418.07	3440.59
418.26	3492.08
418.45	3639.53
418.64	3700.39
418.83	3674.64
419.02	3592.72
419.21	3737.84
419.39	3590.38
419.58	3637.19
419.77	3576.34
419.96	3763.58
420.15	3817.41
420.34	3868.91
420.53	3662.94
420.72	3784.65
420.91	3962.53
421.10	3794.01
421.29	3950.82
421.48	3878.27
421.67	3906.35
421.86	3985.93
422.05	3936.78
422.24	3962.53
422.43	3887.63
422.61	3908.69
422.80	3918.06
422.99	3946.14
423.18	4053.81
423.37	4011.68
423.56	4016.36
423.75	3988.27
423.94	4086.58
424.13	3892.31
424.32	3836.14
424.50	3978.91
424.69	4114.66
424.88	3997.64
425.07	3927.42
425.26	3962.53
425.45	3896.99
425.64	4035.08
425.83	3988.27
426.01	4035.08
426.20	4205.94
426.39	4128.70
426.58	4255.09
426.77	4058.49
426.96	3859.54
427.15	4100.62
427.33	4145.09
427.52	4053.81
427.71	4152.11
427.90	4173.18
428.09	4077.21
428.28	4184.88
428.46	4173.18
428.65	4203.60
428.84	4395.53
429.03	4404.89
429.22	4131.05
429.40	4257.43
429.59	4299.56
429.78	3969.55
429.97	4058.49
430.16	4191.90
430.34	4175.52
430.53	4212.96
430.72	4271.48
430.91	4222.33
431.10	4386.16
431.28	4685.75
431.47	4788.74
431.66	4685.75
431.85	4603.83
432.03	4545.32
432.22	4784.06
432.41	4641.28
432.60	4720.86
432.79	4863.63
432.97	4931.51
433.16	4905.76
433.35	4622.56
433.54	4706.82
433.72	4709.16
433.91	4786.40
434.10	4851.93
434.28	4868.31
434.47	4929.17
434.66	4851.93
434.85	5018.11
435.03	5055.56
435.22	4987.68
435.41	5181.95
435.59	5322.38
435.78	5219.39
435.97	5303.65
436.16	5195.99
436.34	5298.97
436.53	5181.95
436.72	5397.28
436.90	5130.45
437.09	5303.65
437.28	5163.22
437.46	5226.42
437.65	5074.28
437.84	5256.84
438.02	5156.20
438.21	5233.44
438.40	5130.45
438.58	5413.66
438.77	5500.26
438.96	5502.60
439.14	5619.63
439.33	5722.61
439.52	5837.30
439.70	5715.59
439.89	5767.08
440.08	5633.67
440.26	5762.40
440.45	5902.83
440.63	5980.07
440.82	6054.97
441.01	5870.06
441.19	6139.23
441.38	6305.40
441.57	6223.48
441.75	6225.82
441.94	6375.62
442.12	6296.04
442.31	6520.73
442.50	6394.34
442.68	6511.37
442.87	6375.62
443.05	6555.84
443.24	6576.91
443.43	6520.73
443.61	6506.69
443.80	6871.81
443.98	6434.13
444.17	6370.94
444.35	6523.07
444.54	6932.67
444.73	6722.02
444.91	6490.31
445.10	6642.44
445.28	6502.01
445.47	6565.20
445.65	6548.82
445.84	6452.86
446.02	6773.51
446.21	6597.97
446.39	6504.35
446.58	6810.96
446.77	6796.92
446.95	6803.94
447.14	6733.72
447.32	6874.15
447.51	6651.80
447.69	6906.92
447.88	6937.35
448.06	6925.65
448.25	6895.22
448.43	6942.03
448.62	6944.37
448.80	6731.38
448.99	6944.37
449.17	6867.13
449.36	6843.73
449.54	7098.84
449.73	7190.13
449.91	7342.26
450.10	7295.45
450.28	7288.43
450.46	7295.45
450.65	7344.60
450.83	7463.97
451.02	7307.15
451.20	7419.50
451.39	7199.49
451.57	7293.11
451.76	7250.98
451.94	7316.51
452.13	7382.05
452.31	7250.98
452.49	7171.40
452.68	7398.43
452.86	7351.62
453.05	7414.82
453.23	7529.50
453.42	7288.43
453.60	7541.21
453.78	7510.78
453.97	7639.51
454.15	7461.63
454.34	7705.04
454.52	7719.09
454.70	7625.47
454.89	7705.04
455.07	7562.27
455.26	7702.70
455.44	7983.57
455.62	7782.28
455.81	7782.28
455.99	7880.58
456.17	7939.10
456.36	8006.97
456.54	8140.38
456.73	8074.85
456.91	8109.96
457.09	8152.09
457.28	8524.23
457.46	8044.42
457.64	8582.74
457.83	8208.26
458.01	8065.49
458.19	8559.34
458.38	8248.05
458.56	8226.98
458.74	8383.80
458.93	8482.10
459.11	8489.12
459.29	8386.14
459.48	8409.54
459.66	8589.77
459.84	8437.63
460.03	8557.00
460.21	8580.40
460.39	8498.49
460.57	8704.45
460.76	8739.56
460.94	8891.70
461.12	8706.79
461.31	8919.78
461.49	8837.86
461.67	8791.05
461.85	9053.19
462.04	8987.66
462.22	9408.95
462.40	9174.90
462.59	9006.38
462.77	9128.09
462.95	9104.68
463.13	8872.97
463.32	8985.32
463.50	9214.69
463.68	9294.27
463.86	9387.89
464.05	9039.15
464.23	9055.53
464.41	9324.69
464.59	8936.17
464.78	9493.21
464.96	9153.84
465.14	9078.94
465.32	9383.21
465.50	9392.57
465.69	9312.99
465.87	9537.68
466.05	9469.81
466.23	9380.87
466.41	9415.98
466.60	9394.91
466.78	9275.54
466.96	9502.58
467.14	9577.47
467.32	9390.23
467.51	9610.24
467.69	9523.64
467.87	9687.48
468.05	9785.78
468.23	9715.56
468.41	9652.37
468.60	9902.81
468.78	9905.15
468.96	9575.13
469.14	9692.16
469.32	9947.28
469.50	9479.17
469.69	9839.61
469.87	9996.43
470.05	9966.00
470.23	9954.30
470.41	10204.74
470.59	10202.40
470.77	10083.03
470.95	10141.54
471.14	10242.18
471.32	10120.48
471.50	10548.79
471.68	10548.79
471.86	10483.26
472.04	10436.45
472.22	10813.28
472.40	10317.08
472.58	10427.09
472.77	10380.28
472.95	10885.83
473.13	10916.26
473.31	10726.68
473.49	10672.84
473.67	10808.59
473.85	10963.07
474.03	11302.45
474.21	11257.98
474.39	11194.78
474.57	11293.08
474.75	11332.87
474.93	11470.97
475.12	11398.41
475.30	11318.83
475.48	11468.62
475.66	11557.57
475.84	11351.60
476.02	11449.90
476.20	11494.37
476.38	11896.94
476.56	12035.03
476.74	12159.08
476.92	11908.65
477.10	12100.57
477.28	12388.46
477.46	12262.07
477.64	12493.78
477.82	12552.29
478.00	12800.39
478.18	12835.50
478.36	12877.63
478.54	12870.61
478.72	12985.29
478.90	13238.07
479.08	13399.57
479.26	13511.91
479.44	13521.27
479.62	13474.46
479.80	13617.24
479.98	13650.00
480.16	13762.35
480.34	13907.46
480.52	14129.81
480.70	13886.40
480.88	13886.40
481.06	14326.42
481.24	14167.26
481.41	14406.00
481.59	14607.28
481.77	14600.26
481.95	14834.32
482.13	14689.20
482.31	14766.44
482.49	15197.10
482.67	14946.66
482.85	15199.44
483.03	15597.33
483.21	15339.87
483.39	15793.94
483.57	15515.41
483.74	15602.01
483.92	15859.47
484.10	15765.85
484.28	16079.48
484.46	16222.25
484.64	16556.95
484.82	16297.15
485.00	16421.20
485.18	16599.08
485.35	16791.00
485.53	16428.22
485.71	16512.48
485.89	16610.78
486.07	16655.25
486.25	16676.32
486.43	17284.86
486.61	17214.64
486.78	17422.95
486.96	17776.37
487.14	17961.27
487.32	18022.12
487.50	18185.96
487.68	18398.95
487.85	18721.95
488.03	18567.47
488.21	19000.47
488.39	18977.06
488.57	18970.04
488.75	19115.16
488.92	19220.48
489.10	19510.71
489.28	19665.18
489.46	20177.76
489.64	19775.19
489.81	20442.24
489.99	20397.77
490.17	20231.59
490.35	20776.94
490.53	20283.08
490.70	20662.25
490.88	20575.65
491.06	21025.03
491.24	20837.79
491.41	21345.69
491.59	20945.45
491.77	21027.37
491.95	21233.34
492.13	21406.54
492.30	22059.55
492.48	21764.64
492.66	22089.98
492.84	22022.10
493.01	22305.31
493.19	22471.48
493.37	22340.41
493.54	22710.22
493.72	22768.73
493.90	23112.79
494.08	23201.73
494.25	23573.88
494.43	23564.51
494.61	23559.83
494.79	23761.12
494.96	23901.55
495.14	23541.11
495.32	24112.20
495.49	24311.14
495.67	24114.54
495.85	24489.03
496.02	24671.59
496.20	24620.10
496.38	24788.61
496.55	25020.33
496.73	25277.79
496.91	25090.54
497.09	25216.93
497.26	25572.69
497.44	25195.87
497.62	25659.29
497.79	25706.10
497.97	25397.15
498.14	25640.57
498.32	26017.40
498.50	26155.49
498.67	26551.04
498.85	26394.22
499.03	26644.66
499.20	26522.95
499.38	26239.75
499.56	26625.93
499.73	26412.95
499.91	26932.54
500.08	27103.40
500.26	26864.67
500.44	27372.57
500.61	27166.60
500.79	26916.16
500.97	27180.64
501.14	27456.82
501.32	27667.47
501.49	27367.88
501.67	27379.59
501.84	27510.66
502.02	28142.60
502.20	27920.25
502.37	27953.02
502.55	28187.07
502.72	28561.56
502.90	28655.18
503.07	28084.09
503.25	28283.03
503.43	28465.60
503.60	28393.04
503.78	28528.79
503.95	28156.64
504.13	28861.15
504.30	28847.10
504.48	29041.37
504.65	29146.69
504.83	29275.42
505.01	29666.29
505.18	29270.74
505.36	29603.10
505.53	30040.78
505.71	30302.92
505.88	30345.05
506.06	29839.49
506.23	30251.42
506.41	30122.69
506.58	29930.77
506.76	30277.17
506.93	30279.51
507.11	30043.12
507.28	30637.61
507.46	30368.45
507.63	30412.92
507.81	30246.74
507.98	30785.07
508.16	30958.27
508.33	30827.20
508.50	31227.43
508.68	31417.01
508.85	31601.91
509.03	31541.06
509.20	31386.58
509.38	31562.12
509.55	31704.90
509.73	31517.65
509.90	32058.32
510.08	31782.13
510.25	31690.85
510.42	32074.70
510.60	31934.27
510.77	32304.07
510.95	32439.82
511.12	32322.80
511.30	32304.07
511.47	32994.53
511.64	33027.30
511.82	32947.72
511.99	32301.73
512.17	32664.52
512.34	32439.82
512.51	33078.79
512.69	33055.39
512.86	33287.10
513.04	33221.56
513.21	33474.34
513.38	33074.11
513.56	33322.21
513.73	33383.06
513.90	33586.69
514.08	33099.86
514.25	33624.14
514.43	33366.68
514.60	33607.75
514.77	33689.67
514.95	34192.89
515.12	34204.59
515.29	34033.73
515.47	34192.89
515.64	34220.97
515.81	34377.79
515.99	34150.76
516.16	33956.49
516.33	34155.44
516.51	33886.28
516.68	33670.95
516.85	33666.27
517.03	33916.70
517.20	34251.40
517.37	34719.51
517.54	34740.57
517.72	34829.51
517.89	34195.23
518.06	33982.24
518.24	34309.91
518.41	34850.58
518.58	34637.59
518.75	34951.22
518.93	35374.86
519.10	35005.05
519.27	35070.59
519.45	35426.35
519.62	35302.30
519.79	35618.27
519.96	35782.11
520.14	36275.96
520.31	35669.76
520.48	35929.56
520.65	35702.53
520.83	36271.28
521.00	36402.35
521.17	36165.96
521.34	36400.01
521.52	36350.86
521.69	36402.35
521.86	36720.66
522.03	36692.58
522.20	36570.87
522.38	36825.99
522.55	36715.98
522.72	36734.71
522.89	36699.60
523.07	37235.58
523.24	37284.73
523.41	37347.93
523.58	36966.42
523.75	37968.17
523.92	37633.47
524.10	37684.97
524.27	37368.99
524.44	37572.62
524.61	37654.54
524.78	38068.81
524.96	37593.68
525.13	37645.18
525.30	38036.05
525.47	38309.89
525.64	38075.84
525.81	37977.53
525.98	38113.28
526.16	37530.49
526.33	37474.32
526.50	37834.76
526.67	37481.34
526.84	38209.25
527.01	37813.70
527.18	38213.93
527.36	38417.55
527.53	38529.90
527.70	39063.54
527.87	39082.27
528.04	38644.59
528.21	38574.37
528.38	39049.50
528.55	39131.42
528.72	39335.04
528.89	39302.28
529.07	39133.76
529.24	39264.83
529.41	39037.80
529.58	38967.58
529.75	39124.40
529.92	39356.11
530.09	39548.03
530.26	39449.73
530.43	39662.72
530.60	39431.01
530.77	39770.38
530.94	39966.99
531.11	39356.11
531.28	39761.02
531.46	40179.98
531.63	39754.00
531.80	39569.10
531.97	40334.45
532.14	39901.45
532.31	39384.19
532.48	39945.92
532.65	39824.22
532.82	39606.55
532.99	40140.19
533.16	40013.80
533.33	40350.84
533.50	40395.31
533.67	40034.86
533.84	40009.12
534.01	40528.72
534.18	40435.10
534.35	40739.36
534.52	40463.18
534.69	40617.66
534.86	41095.13
535.03	41041.29
535.20	41338.54
535.37	41256.62
535.54	40830.65
535.71	41022.57
535.88	41024.91
536.05	41003.85
536.22	41352.58
536.38	41163.00
536.55	40744.05
536.72	41174.70
536.89	41048.32
537.06	41153.64
537.23	41530.47
537.40	41303.43
537.57	41596.00
537.74	41633.45
537.91	41916.65
538.08	41338.54
538.25	41202.79
538.42	41673.24
538.59	41687.28
538.75	40985.12
538.92	42153.05
539.09	41502.38
539.26	41488.34
539.43	41804.31
539.60	41832.39
539.77	41706.01
539.94	41738.77
540.11	41750.48
540.28	41923.68
540.44	41581.96
540.61	42059.43
540.78	41841.76
540.95	41633.45
541.12	41928.36
541.29	42267.73
541.46	42724.14
541.62	42476.04
541.79	42286.46
541.96	42017.30
542.13	41949.42
542.30	42178.79
542.47	42763.93
542.63	42347.31
542.80	42593.07
542.97	42932.45
543.14	42932.45
543.31	42658.60
543.48	43255.44
543.64	43026.07
543.81	43058.84
543.98	43210.97
544.15	42897.34
544.32	43253.10
544.48	43360.76
544.65	42946.49
544.82	43807.81
544.99	42948.83
545.16	43091.60
545.32	43206.29
545.49	43000.32
545.66	43632.27
545.83	43393.53
546.00	43538.65
546.16	43346.72
546.33	43299.91
546.50	43210.97
546.67	44067.61
546.83	43653.33
547.00	43660.35
547.17	43711.84
547.34	43498.86
547.50	43927.17
547.67	43828.87
547.84	43885.04
548.00	43854.62
548.17	44278.25
548.34	43852.28
548.51	44390.60
548.67	43976.33
548.84	44261.87
549.01	43936.54
549.18	43718.87
549.34	43966.96
549.51	43885.04
549.68	43981.01
549.84	44102.71
550.01	44421.03
550.18	43936.54
550.34	43999.73
550.51	44105.06
550.68	44570.82
550.84	43489.49
551.01	44472.52
551.18	44311.02
551.34	44081.65
551.51	44556.78
551.68	44641.04
551.84	44718.28
552.01	44123.78
552.18	44711.25
552.34	44273.57
552.51	44978.07
552.68	44699.55
552.84	43976.33
553.01	45359.58
553.18	44947.65
553.34	44631.68
553.51	45050.63
553.67	44556.78
553.84	45125.53
554.01	45614.70
554.17	45303.41
554.34	44781.47
554.51	44678.49
554.67	44605.93
554.84	45003.82
555.00	45048.29
555.17	45422.78
555.33	45162.98
555.50	44942.97
555.67	45212.13
555.83	45092.76
556.00	45165.32
556.16	45134.89
556.33	45034.25
556.50	45198.09
556.66	45284.68
556.83	44577.84
556.99	45326.81
557.16	45270.64
557.32	45202.77
557.49	45041.27
557.65	45298.73
557.82	45151.27
557.98	45258.94
558.15	45537.46
558.32	45359.58
558.48	45305.75
558.65	45476.61
558.81	45064.67
558.98	45165.32
559.14	45160.64
559.31	45048.29
559.47	45303.41
559.64	45614.70
559.80	45521.08
559.97	45521.08
560.13	45336.18
560.30	45724.71
560.46	45989.19
560.63	45776.20
560.79	45794.92
560.96	46110.89
561.12	45434.48
561.29	45427.46
561.45	45766.84
561.61	46031.32
561.78	45315.11
561.94	45511.72
562.11	45741.09
562.27	45511.72
562.44	45890.88
562.60	45689.60
562.77	45935.35
562.93	46080.47
563.10	45778.54
563.26	45846.41
563.42	46146.00
563.59	45560.87
563.75	45701.30
563.92	46089.83
564.08	46113.23
564.24	46113.23
564.41	45872.16
564.57	45722.37
564.74	45478.95
564.90	45806.62
565.07	45965.78
565.23	46162.39
565.39	45886.20
565.56	46150.68
565.72	45237.87
565.88	45787.90
566.05	45759.81
566.21	46138.98
566.38	45752.79
566.54	45853.44
566.70	45996.21
566.87	46270.05
567.03	46021.95
567.19	46382.40
567.36	46127.28
567.52	45956.42
567.68	46387.08
567.85	46085.15
568.01	46061.74
568.17	45989.19
568.34	46014.93
568.50	46361.33
568.66	45940.04
568.83	45947.06
568.99	45993.87
569.15	45841.73
569.32	46309.84
569.48	46043.02
569.64	46515.81
569.81	45968.12
569.97	45769.18
570.13	46506.44
570.30	45792.58
570.46	45942.38
570.62	45844.07
570.78	45982.16
570.95	45815.99
571.11	45757.47
571.27	45925.99
571.43	46251.33
571.60	46398.78
571.76	46160.05
571.92	45806.62
572.09	46075.79
572.25	46183.45
572.41	46213.88
572.57	46560.28
572.74	46464.32
572.90	46375.37
573.06	46466.66
573.22	46438.57
573.38	46096.85
573.55	46080.47
573.71	46171.75
573.87	46302.82
574.03	46078.13
574.20	46485.38
574.36	45890.88
574.52	46293.46
574.68	46333.24
574.84	46267.71
575.01	46302.82
575.17	46209.20
575.33	45588.95
575.49	45895.56
575.65	46351.97
575.82	46373.03
575.98	45923.65
576.14	46483.04
576.30	46422.19
576.46	46277.07
576.62	46078.13
576.79	45848.75
576.95	46419.84
577.11	46581.34
577.27	46445.59
577.43	46241.96
577.59	46181.11
577.75	46344.95
577.92	45975.14
578.08	45682.58
578.24	45951.74
578.40	46436.23
578.56	46361.33
578.72	46632.83
578.88	46344.95
579.04	46092.17
579.21	46141.32
579.37	46560.28
579.53	46525.17
579.69	46398.78
579.85	45993.87
580.01	45879.18
580.17	46288.77
580.33	46440.91
580.49	46230.26
580.65	46288.77
580.82	46567.30
580.98	46007.91
581.14	45801.94
581.30	46405.80
581.46	46234.94
581.62	46604.75
581.78	46380.06
581.94	46340.27
582.10	46450.27
582.26	46511.13
582.42	46478.36
582.58	46087.49
582.74	46384.74
582.90	46476.02
583.06	47019.02
583.22	46382.40
583.38	46635.17
583.54	46806.03
583.70	46401.12
583.86	46447.93
584.02	46068.76
584.18	46464.32
584.34	46469.00
584.50	46740.50
584.66	46403.46
584.82	46581.34
584.98	46651.56
585.14	46504.10
585.30	46167.07
585.46	46197.49
585.62	46190.47
585.78	46040.68
585.94	46052.38
586.10	46550.91
586.26	45956.42
586.42	46873.91
586.58	46555.60
586.74	46679.64
586.90	46478.36
587.06	46150.68
587.22	46333.24
587.38	46298.14
587.54	46515.81
587.70	46525.17
587.86	46450.27
588.02	46265.37
588.18	46742.84
588.34	45977.48
588.49	45717.68
588.65	45701.30
588.81	46328.56
588.97	45813.65
589.13	46045.36
589.29	45944.72
589.45	46244.30
589.61	46291.12
589.77	46471.34
589.93	46270.05
590.08	46396.44
590.24	46761.56
590.40	46684.33
590.56	46710.07
590.72	46539.21
590.88	46258.35
591.04	46527.51
591.20	46728.80
591.35	46777.95
591.51	46389.42
591.67	46057.06
591.83	46550.91
591.99	45958.76
592.15	46075.79
592.31	46131.96
592.46	46639.86
592.62	46389.42
592.78	46808.37
592.94	46981.57
593.10	46387.08
593.26	46527.51
593.41	46658.58
593.57	46295.80
593.73	46246.65
593.89	46948.81
594.05	46576.66
594.20	46560.28
594.36	46609.43
594.52	46440.91
594.68	46366.01
594.84	46335.59
594.99	46930.08
595.15	46265.37
595.31	46927.74
595.47	46831.78
595.62	46932.42
595.78	46967.53
595.94	46253.67
596.10	46597.73
596.25	46487.72
596.41	46494.74
596.57	46483.04
596.73	46618.79
596.88	46305.16
597.04	46698.37
597.20	46387.08
597.36	46803.69
597.51	47136.05
597.67	46906.68
597.83	46670.28
597.99	46667.94
598.14	46312.18
598.30	46761.56
598.46	46373.03
598.61	46794.33
598.77	46267.71
598.93	46632.83
599.09	46614.11
599.24	46646.88
599.40	46775.61
599.56	46672.62
599.71	46555.60
599.87	46508.79
600.03	46560.28
600.18	46471.34
600.34	46401.12
600.50	46616.45
600.65	46319.20
600.81	46759.22
600.97	46925.40
601.12	46990.94
601.28	46677.30
601.44	46794.33
601.59	46358.99
601.75	46248.99
601.91	46714.75
602.06	46195.15
602.22	46621.13
602.37	46218.56
602.53	46518.15
602.69	46885.61
602.84	46539.21
603.00	46953.49
603.16	46347.29
603.31	46454.95
603.47	46494.74
603.62	46459.63
603.78	46569.64
603.94	46529.85
604.09	46574.32
604.25	46342.61
604.40	46447.93
604.56	46476.02
604.71	46665.60
604.87	46431.55
605.03	46429.21
605.18	46270.05
605.34	46323.88
605.49	46471.34
605.65	46110.89
605.80	46546.23
605.96	46387.08
606.12	46270.05
606.27	46541.55
606.43	46092.17
606.58	46642.20
606.74	46616.45
606.89	46021.95
607.05	46171.75
607.20	46494.74
607.36	46501.76
607.51	46871.57
607.67	46202.18
607.82	46024.29
607.98	46260.69
608.13	46176.43
608.29	45640.45
608.44	45717.68
608.60	45921.31
608.75	46363.67
608.91	46363.67
609.06	46183.45
609.22	45961.10
609.37	45687.26
609.53	45848.75
609.68	45855.78
609.84	46113.23
609.99	45663.85
610.15	45851.09
610.30	45549.17
610.46	45595.98
610.61	46136.64
610.76	45764.49
610.92	46124.94
611.07	45762.15
611.23	45963.44
611.38	45991.53
611.54	45659.17
611.69	46061.74
611.84	45502.35
612.00	45624.06
612.15	45228.51
612.31	45394.69
612.46	45937.69
612.62	45687.26
612.77	45345.54
612.92	45654.49
613.08	45230.85
613.23	45401.71
613.39	45165.32
613.54	44577.84
613.69	45172.34
613.85	45621.72
614.00	45497.67
614.15	45464.91
614.31	44563.80
614.46	45558.53
614.62	45713.00
614.77	45490.65
614.92	45088.08
615.08	45439.16
615.23	44877.43
615.38	45162.98
615.54	44994.46
615.69	45219.15
615.84	45017.86
616.00	45050.63
616.15	44917.22
616.30	45366.60
616.46	45289.37
616.61	44851.69
616.76	45069.36
616.92	44746.36
617.07	45036.59
617.22	44552.10
617.37	44896.16
617.53	45291.71
617.68	45001.48
617.83	45219.15
617.99	44868.07
618.14	44917.22
618.29	44645.72
618.45	44364.85
618.60	44540.39
618.75	45095.10
618.90	44388.26
619.06	44594.23
619.21	44479.54
619.36	45109.14
619.51	44416.35
619.67	44154.21
619.82	44538.05
619.97	44830.62
620.12	43625.25
620.28	43775.04
620.43	44559.12
620.58	44212.72
620.73	44402.30
620.89	44240.81
621.04	44271.23
621.19	44428.05
621.34	44224.42
621.49	44196.34
621.65	44058.24
621.80	44435.07
621.95	43658.01
622.10	44425.71
622.25	44098.03
622.41	43863.98
622.56	44161.23
622.71	44437.41
622.86	43938.88
623.01	43707.16
623.16	44144.84
623.32	44172.93
623.47	43597.16
623.62	43732.91
623.77	43885.04
623.92	43929.51
624.07	43407.58
624.23	43763.34
624.38	43655.67
624.53	43496.52
624.68	43225.01
624.83	43807.81
624.98	43438.00
625.13	43105.65
625.29	43620.56
625.44	43248.42
625.59	43007.34
625.74	43129.05
625.89	43098.62
626.04	43042.45
626.19	43222.67
626.34	43269.48
626.49	42904.36
626.65	43009.68
626.80	43606.52
626.95	42749.88
627.10	43070.54
627.25	43522.26
627.40	42738.18
627.55	42401.14
627.70	42836.48
627.85	42593.07
628.00	43189.91
628.15	43515.24
628.30	43201.61
628.45	43255.44
628.60	42696.05
628.76	42906.70
628.91	43047.13
629.06	42258.37
629.21	42501.79
629.36	42518.17
629.51	42501.79
629.66	42433.91
629.81	42469.02
629.96	42410.51
630.11	42157.73
630.26	42726.48
630.41	42878.61
630.56	42438.59
630.71	42471.36
630.86	42670.31
631.01	42330.93
631.16	42167.09
631.31	41558.55
631.46	42260.71
631.61	41963.46
631.76	42227.95
631.91	42469.02
632.06	42178.79
632.21	42497.11
632.36	41923.68
632.51	41986.87
632.66	42267.73
632.81	42005.59
632.96	41818.35
633.10	41652.17
633.25	41916.65
633.40	41977.51
633.55	42094.53
633.70	41909.63
633.85	41813.67
634.00	41996.23
634.15	42047.72
634.30	41790.27
634.45	41446.21
634.60	41928.36
634.75	41490.68
634.90	41577.28
635.05	41647.49
635.19	41956.44
635.34	41928.36
635.49	41493.02
635.64	41464.93
635.79	41502.38
635.94	41277.69
636.09	41336.20
636.24	41385.35
636.39	41338.54
636.53	41053.00
636.68	41294.07
636.83	40957.03
636.98	41298.75
637.13	41354.93
637.28	41570.25
637.43	41387.69
637.57	41645.15
637.72	41085.76
637.87	41345.56
638.02	41132.57
638.17	41350.24
638.32	41268.33
638.46	40947.67
638.61	40407.01
638.76	41017.89
638.91	40872.78
639.06	41205.13
639.20	41677.92
639.35	40856.39
639.50	41177.04
639.65	40973.42
639.80	40634.04
639.94	40765.11
640.09	40907.88
640.24	40570.85
640.39	40828.30
640.54	40535.74
640.68	40535.74
640.83	40758.09
640.98	40254.87
641.13	40275.94
641.27	40699.58
641.42	40596.59
641.57	40931.29
641.72	40631.70
641.86	40311.05
642.01	39990.39
642.16	40285.30
642.31	40037.20
642.45	40449.14
642.60	39931.88
642.75	40252.53
642.90	40006.78
643.04	40299.34
643.19	40175.30
643.34	40154.23
643.48	40168.27
643.63	40158.91
643.78	39896.77
643.93	40142.53
644.07	39779.74
644.22	39473.13
644.37	39948.26
644.51	40165.93
644.66	40154.23
644.81	40369.56
644.95	40208.06
645.10	39936.56
645.25	39728.25
645.39	39931.88
645.54	39648.68
645.69	39604.20
645.83	39494.20
645.98	39515.26
646.13	39557.39
646.27	39632.29
646.42	39203.97
646.57	39463.77
646.71	39157.16
646.86	39529.31
647.00	39232.06
647.15	39164.18
647.30	39122.05
647.44	38962.90
647.59	39388.88
647.74	39185.25
647.88	39283.55
648.03	39126.74
648.17	39323.34
648.32	39117.37
648.47	39669.74
648.61	38953.54
648.76	39131.42
648.90	39096.31
649.05	38953.54
649.20	39189.93
649.34	38646.93
649.49	38684.37
649.63	39086.95
649.78	39253.12
649.92	38888.00
650.07	39402.92
650.21	38738.21
650.36	39353.77
650.51	38778.00
650.65	39864.00
650.80	39400.58
650.94	38789.70
651.09	38508.83
651.23	38473.73
651.38	38665.65
651.52	38560.33
651.67	38522.88
651.81	38188.18
651.96	38813.10
652.10	38899.70
652.25	38553.30
652.39	39035.45
652.54	38644.59
652.68	38426.92
652.83	38817.78
652.97	38871.62
653.12	38834.17
653.26	38225.63
653.41	38349.68
653.55	38359.04
653.70	38234.99
653.84	38281.80
653.99	37975.19
654.13	38417.55
654.27	38522.88
654.42	37797.31
654.56	38232.65
654.71	38312.23
654.85	37818.38
655.00	38183.50
655.14	37993.92
655.29	37890.93
655.43	38022.00
655.57	37551.56
655.72	37071.75
655.86	37298.78
656.01	36863.44
656.15	37102.17
656.30	37549.21
656.44	37261.33
656.58	37780.93
656.73	37511.77
656.87	37310.48
657.01	37479.00
657.16	37397.08
657.30	37046.00
657.45	37233.24
657.59	37223.88
657.73	37200.47
657.88	37214.52
658.02	37235.58
658.16	37549.21
658.31	37486.02
658.45	37146.64
658.60	37270.69
658.74	37233.24
658.88	37556.24
659.03	37013.23
659.17	36905.57
659.31	37031.96
659.46	37053.02
659.60	37184.09
659.74	36821.31
659.89	36856.42
660.03	36603.64
660.17	36950.04
660.32	36753.43
660.46	36392.99
660.60	36594.28
660.74	36655.13
660.89	36491.29
661.03	36273.62
661.17	36355.54
661.32	36512.36
661.46	36240.86
661.60	35922.54
661.74	35924.88
661.89	36355.54
662.03	36407.03
662.17	36224.47
662.31	36521.72
662.46	35997.44
662.60	36397.67
662.74	36395.33
662.88	36133.19
663.03	35775.09
663.17	35814.88
663.31	35828.92
663.45	35978.72
663.60	35730.62
663.74	35526.99
663.88	35524.65
664.02	35395.92
664.17	35194.64
664.31	35566.78
664.45	34998.03
664.59	35119.74
664.73	35428.69
664.88	35159.53
665.02	34913.77
665.16	34752.27
665.30	35208.68
665.44	34838.87
665.59	34689.08
665.73	34775.68
665.87	34857.60
666.01	34462.05
666.15	34855.26
666.29	34869.30
666.44	34747.59
666.58	34625.89
666.72	34539.29
666.86	34314.59
667.00	34862.28
667.14	34043.09
667.28	34188.21
667.43	34490.13
667.57	34356.72
667.71	34405.88
667.85	34419.92
667.99	34515.88
668.13	34410.56
668.27	34239.70
668.41	34326.30
668.56	34239.70
668.70	33839.47
668.84	33778.61
668.98	33464.98
669.12	34235.02
669.26	33834.78
669.40	33514.13
669.54	33586.69
669.68	33769.25
669.82	32959.42
669.96	33331.57
670.10	32718.35
670.25	33083.47
670.39	33055.39
670.53	32907.93
670.67	33104.54
670.81	32954.74
670.95	33022.62
671.09	32575.58
671.23	32580.26
671.37	33113.90
671.51	32818.99
671.65	32488.98
671.79	31791.50
671.93	32964.10
672.07	32701.96
672.21	32374.29
672.35	32697.28
672.49	32250.24
672.63	32027.89
672.77	32058.32
672.91	32020.87
673.05	31803.20
673.19	31714.26
673.33	31599.57
673.47	31632.34
673.61	31218.07
673.75	31154.87
673.89	31431.05
674.03	31604.25
674.17	31257.85
674.31	31562.12
674.45	31398.29
674.59	31449.78
674.73	31089.34
674.87	31742.35
675.01	30864.64
675.15	30801.45
675.29	31150.19
675.43	31040.18
675.56	30888.05
675.70	30848.26
675.84	30567.40
675.98	29893.32
676.12	30424.62
676.26	30211.64
676.40	30455.05
676.54	30260.79
676.68	30216.32
676.82	29837.15
676.96	30043.12
677.10	30110.99
677.23	29846.51
677.37	29575.01
677.51	29792.68
677.65	29759.91
677.79	29071.79
677.93	28826.04
678.07	29132.65
678.21	28769.86
678.34	28746.46
678.48	29041.37
678.62	28713.69
678.76	28968.81
678.90	28739.44
679.04	28795.61
679.18	28400.06
679.31	28201.11
679.45	27899.19
679.59	28025.57
679.73	27833.65
679.87	27981.10
680.00	27718.96
680.14	27941.32
680.28	27679.18
680.42	27618.32
680.56	27779.82
680.70	27653.43
680.83	27386.61
680.97	27529.38
681.11	27080.00
681.25	27351.50
681.39	27414.69
681.52	27068.30
681.66	26895.10
681.80	27260.22
681.94	26675.09
682.07	26747.64
682.21	26628.27
682.35	26614.23
682.49	26735.94
682.62	26192.94
682.76	26199.96
682.90	26288.90
683.04	26314.64
683.17	25986.97
683.31	26111.02
683.45	25724.83
683.59	25764.62
683.72	25671.00
683.86	25598.44
684.00	25666.31
684.13	25266.08
684.27	25287.15
684.41	25713.13
684.55	24863.51
684.68	25046.07
684.82	24982.88
684.96	25013.31
685.09	24940.75
685.23	24884.58
685.37	25174.80
685.50	24915.00
685.64	24842.45
685.78	24716.06
685.91	23974.11
686.05	24374.34
686.19	24013.90
686.32	23978.79
686.46	23819.63
686.60	23728.35
686.73	23344.50
686.87	23168.96
687.01	23056.62
687.14	23087.04
687.28	23047.26
687.42	22988.74
687.55	23061.30
687.69	23096.41
687.82	22813.20
687.96	22941.93
688.10	22675.11
688.23	22527.66
688.37	22778.09
688.50	22363.82
688.64	22647.02
688.78	22410.63
688.91	21940.18
689.05	22384.88
689.18	22071.25
689.32	21668.68
689.46	22178.92
689.59	22490.21
689.73	22092.32
689.86	21846.56
690.00	21387.82
690.13	21944.86
690.27	21343.35
690.41	21032.05
690.54	21097.59
690.68	21383.13
690.81	21298.88
690.95	21242.70
691.08	20919.71
691.22	21242.70
691.35	21238.02
691.49	21046.10
691.62	21170.15
691.76	20893.96
691.89	20896.30
692.03	20617.78
692.16	20893.96
692.30	20219.89
692.43	20130.95
692.57	19985.83
692.70	20255.00
692.84	19974.13
692.97	19697.95
693.11	19623.05
693.24	19625.39
693.38	19609.01
693.51	19489.64
693.65	19583.26
693.78	19510.71
693.92	19314.10
694.05	19461.55
694.19	19431.13
694.32	19461.55
694.45	19101.11
694.59	19276.65
694.72	19140.90
694.86	18916.21
694.99	18874.08
695.13	18497.25
695.26	18658.75
695.39	18824.93
695.53	18909.19
695.66	18843.65
695.80	18515.98
695.93	18354.48
696.07	18473.85
696.20	18405.97
696.33	18537.04
696.47	18010.42
696.60	18401.29
696.73	17942.55
696.87	17972.97
697.00	17689.77
697.14	17628.92
697.27	17355.07
697.40	17577.42
697.54	17666.36
697.67	17167.83
697.80	17488.48
697.94	17043.78
698.07	17397.20
698.21	17233.36
698.34	17547.00
698.47	16982.93
698.61	16791.00
698.74	16720.79
698.87	16599.08
699.01	16655.25
699.14	16540.57
699.27	16563.97
699.40	16444.60
699.54	16175.44
699.67	16121.61
699.80	16109.91
699.94	16212.89
700.07	16079.48
700.20	16248.00
700.34	15948.41
700.47	15889.90
700.60	15829.04
700.73	15817.34
700.87	15667.55
701.00	15541.16
701.13	15304.76
701.26	15405.41
701.40	15630.10
701.53	15274.34
701.66	15426.47
701.79	15122.20
701.93	15374.98
702.06	14911.55
702.19	14855.38
702.32	14911.55
702.46	14850.70
702.59	14937.30
702.72	14991.13
702.85	14614.30
702.99	14684.52
703.12	14537.07
703.25	14286.63
703.38	14609.62
703.51	14525.36
703.65	14370.89
703.78	14244.50
703.91	14097.05
704.04	14052.58
704.17	14024.49
704.31	13935.55
704.44	13713.20
704.57	13865.33
704.70	13745.97
704.83	13626.60
704.96	13717.88
705.10	13544.68
705.23	13582.13
>>>>>End Processed Spectral Data<<<<<
