SpectraSuite Data File
++++++++++++++++++++++++++++++++++++
Date: Fri Oct 25 10:47:52 EDT 2013
User: price-jones
Dark Spectrum Present: No
Reference Spectrum Present: No
Number of Sampled Component Spectra: 1
Spectrometers: USB2+H05261
Integration Time (usec): 100000 (USB2+H05261)
Spectra Averaged: 1 (USB2+H05261)
Boxcar Smoothing: 0 (USB2+H05261)
Correct for Electrical Dark: No (USB2+H05261)
Strobe/Lamp Enabled: No (USB2+H05261)
Correct for Detector Non-linearity: No (USB2+H05261)
Correct for Stray Light: No (USB2+H05261)
Number of Pixels in Processed Spectrum: 2048
>>>>>Begin Processed Spectral Data<<<<<
365.73	84.26
365.92	84.26
366.12	84.26
366.32	46.81
366.52	0.00
366.72	93.62
366.91	60.85
367.11	28.09
367.31	0.00
367.51	2.34
367.70	72.56
367.90	21.06
368.10	102.98
368.30	0.00
368.49	51.49
368.69	16.38
368.89	32.77
369.09	79.58
369.28	18.72
369.48	88.94
369.68	91.28
369.87	121.71
370.07	102.98
370.27	98.30
370.47	227.03
370.66	379.17
370.86	409.59
371.06	428.32
371.25	421.30
371.45	395.55
371.65	433.00
371.84	435.34
372.04	430.66
372.24	514.92
372.44	484.49
372.63	470.45
372.83	449.38
373.03	519.60
373.22	510.24
373.42	524.28
373.62	507.90
373.81	540.66
374.01	519.60
374.21	561.73
374.40	507.90
374.60	526.62
374.79	550.03
374.99	521.94
375.19	545.34
375.38	514.92
375.58	510.24
375.78	617.90
375.97	580.45
376.17	585.13
376.37	578.11
376.56	554.71
376.76	559.39
376.95	575.77
377.15	634.29
377.35	482.15
377.54	580.45
377.74	592.16
377.93	557.05
378.13	575.77
378.33	627.26
378.52	641.31
378.72	648.33
378.91	596.84
379.11	540.66
379.31	667.05
379.50	596.84
379.70	704.50
379.89	699.82
380.09	657.69
380.28	695.14
380.48	634.29
380.68	620.24
380.87	645.99
381.07	723.23
381.26	667.05
381.46	697.48
381.65	678.76
381.85	674.07
382.04	641.31
382.24	685.78
382.43	681.10
382.63	688.12
382.83	669.39
383.02	699.82
383.22	819.19
383.41	741.95
383.61	653.01
383.80	751.31
384.00	702.16
384.19	751.31
384.39	744.29
384.58	774.72
384.78	713.86
384.97	620.24
385.17	732.59
385.36	690.46
385.56	709.18
385.75	727.91
385.95	770.04
386.14	866.00
386.34	770.04
386.53	844.93
386.72	711.52
386.92	823.87
387.11	800.46
387.31	786.42
387.50	915.15
387.70	713.86
387.89	795.78
388.09	809.83
388.28	847.27
388.48	905.79
388.67	847.27
388.86	891.74
389.06	844.93
389.25	903.45
389.45	901.11
389.64	889.40
389.84	952.60
390.03	959.62
390.22	957.28
390.42	950.26
390.61	847.27
390.81	973.66
391.00	992.39
391.19	882.38
391.39	1013.45
391.58	922.17
391.78	952.60
391.97	945.58
392.16	919.83
392.36	976.00
392.55	999.41
392.75	954.94
392.94	1043.88
393.13	1001.75
393.33	933.87
393.52	1006.43
393.71	990.05
393.91	961.96
394.10	1064.94
394.29	1081.33
394.49	1048.56
394.68	1046.22
394.88	1107.07
395.07	1050.90
395.26	973.66
395.46	1114.10
395.65	1116.44
395.84	1130.48
396.04	1151.54
396.23	1060.26
396.42	1107.07
396.62	1111.75
396.81	1128.14
397.00	1074.31
397.19	1064.94
397.39	1114.10
397.58	1299.00
397.77	1284.95
397.97	1242.82
398.16	1343.47
398.35	1263.89
398.55	1322.40
398.74	1301.34
398.93	1336.45
399.12	1322.40
399.32	1348.15
399.51	1348.15
399.70	1329.42
399.90	1343.47
400.09	1390.28
400.28	1385.60
400.47	1355.17
400.67	1521.35
400.86	1547.09
401.05	1444.11
401.24	1432.41
401.44	1446.45
401.63	1612.63
401.82	1465.18
402.01	1476.88
402.21	1666.46
402.40	1481.56
402.59	1607.95
402.78	1614.97
402.97	1572.84
403.17	1568.16
403.36	1544.75
403.55	1607.95
403.74	1666.46
403.93	1640.72
404.13	1687.53
404.32	1685.19
404.51	1645.40
404.70	1647.74
404.89	1654.76
405.09	1813.92
405.28	1678.16
405.47	1708.59
405.66	1764.76
405.85	1713.27
406.05	1856.04
406.24	1795.19
406.43	1678.16
406.62	1802.21
406.81	1891.15
407.00	1755.40
407.20	1827.96
407.39	1767.10
407.58	1968.39
407.77	1916.90
407.96	1956.69
408.15	1963.71
408.34	1970.73
408.54	1991.80
408.73	1963.71
408.92	1968.39
409.11	2052.65
409.30	1977.75
409.49	1961.37
409.68	2125.21
409.87	1963.71
410.07	2012.86
410.26	2197.76
410.45	2118.18
410.64	2155.63
410.83	2120.53
411.02	2157.97
411.21	2211.81
411.40	2251.60
411.59	2228.19
411.78	2258.62
411.98	2275.00
412.17	2366.28
412.36	2356.92
412.55	2422.45
412.74	2438.84
412.93	2555.86
413.12	2499.69
413.31	2476.29
413.50	2473.95
413.69	2504.37
413.88	2630.76
414.07	2548.84
414.26	2663.53
414.45	2609.70
414.64	2574.59
414.83	2743.11
415.02	2803.96
415.22	2675.23
415.41	2733.75
415.60	2782.90
415.79	2787.58
415.98	2848.43
416.17	2885.88
416.36	2750.13
416.55	2808.64
416.74	2881.20
416.93	2892.90
417.12	2768.85
417.31	3005.25
417.50	2825.03
417.69	3021.63
417.88	3061.42
418.07	3047.38
418.26	3012.27
418.45	3180.79
418.64	3103.55
418.83	3248.66
419.02	3117.59
419.21	3141.00
419.39	3213.56
419.58	3276.75
419.77	3080.14
419.96	3201.85
420.15	3236.96
420.34	3290.79
420.53	3311.86
420.72	3389.10
420.91	3300.16
421.10	3309.52
421.29	3461.65
421.48	3346.97
421.67	3379.73
421.86	3330.58
422.05	3356.33
422.24	3372.71
422.43	3419.52
422.61	3548.25
422.80	3494.42
422.99	3508.46
423.18	3576.34
423.37	3564.64
423.56	3459.31
423.75	3431.23
423.94	3424.20
424.13	3304.84
424.32	3314.20
424.50	3595.06
424.69	3592.72
424.88	3606.77
425.07	3440.59
425.26	3468.67
425.45	3562.30
425.64	3527.19
425.83	3557.61
426.01	3578.68
426.20	3625.49
426.39	3658.26
426.58	3611.45
426.77	3646.55
426.96	3543.57
427.15	3613.79
427.33	3698.05
427.52	3609.11
427.71	3691.02
427.90	3749.54
428.09	3749.54
428.28	3700.39
428.46	3847.84
428.65	3808.05
428.84	3885.29
429.03	3925.08
429.22	3712.09
429.40	3765.92
429.59	3761.24
429.78	3501.44
429.97	3630.17
430.16	3716.77
430.34	3880.61
430.53	3770.60
430.72	3906.35
430.91	3971.89
431.10	3728.47
431.28	4079.55
431.47	4259.78
431.66	4060.83
431.85	4060.83
432.03	4079.55
432.22	4227.01
432.41	4107.64
432.60	4203.60
432.79	4262.12
432.97	4248.07
433.16	4320.63
433.35	4168.49
433.54	4248.07
433.72	4191.90
433.91	4142.75
434.10	4341.69
434.28	4231.69
434.47	4376.80
434.66	4341.69
434.85	4514.89
435.03	4531.28
435.22	4470.42
435.41	4503.19
435.59	4507.87
435.78	4550.00
435.97	4617.88
436.16	4559.36
436.34	4610.86
436.53	4725.54
436.72	4669.37
436.90	4559.36
437.09	4685.75
437.28	4627.24
437.46	4652.98
437.65	4613.20
437.84	4575.75
438.02	4664.69
438.21	4615.54
438.40	4681.07
438.58	4919.81
438.77	4760.65
438.96	4798.10
439.14	4919.81
439.33	5043.85
439.52	4966.62
439.70	4954.91
439.89	5053.22
440.08	5135.14
440.26	5158.54
440.45	5118.75
440.63	5308.34
440.82	5296.63
441.01	5437.06
441.19	5416.00
441.38	5392.59
441.57	5535.37
441.75	5511.96
441.94	5844.32
442.12	5628.99
442.31	5689.84
442.50	5561.11
442.68	5427.70
442.87	5582.18
443.05	5598.56
443.24	5757.72
443.43	5788.14
443.61	5760.06
443.80	5926.24
443.98	5884.11
444.17	5521.32
444.35	5764.74
444.54	5877.09
444.73	5804.53
444.91	5792.83
445.10	5816.23
445.28	5762.40
445.47	5748.36
445.65	5886.45
445.84	5884.11
446.02	5902.83
446.21	5912.19
446.39	5809.21
446.58	6036.24
446.77	5907.51
446.95	5764.74
447.14	5970.71
447.32	6043.26
447.51	6019.86
447.69	5980.07
447.88	6022.20
448.06	5956.66
448.25	6047.94
448.43	6003.47
448.62	5872.40
448.80	5961.34
448.99	6232.85
449.17	6057.31
449.36	6022.20
449.54	6221.14
449.73	6296.04
449.91	6228.17
450.10	6389.66
450.28	6298.38
450.46	6272.64
450.65	6366.26
450.83	6375.62
451.02	6408.39
451.20	6450.52
451.39	6312.42
451.57	6399.02
451.76	6413.07
451.94	6590.95
452.13	6604.99
452.31	6546.48
452.49	6532.44
452.68	6410.73
452.86	6494.99
453.05	6626.06
453.23	6551.16
453.42	6471.58
453.60	6595.63
453.78	6661.16
453.97	6438.81
454.15	6677.55
454.34	6679.89
454.52	6764.15
454.70	6773.51
454.89	6602.65
455.07	6691.59
455.26	6939.69
455.44	6904.58
455.62	6867.13
455.81	6918.62
455.99	6862.45
456.17	7145.66
456.36	6935.01
456.54	7002.88
456.73	7199.49
456.91	7136.29
457.09	7204.17
457.28	7176.08
457.46	7080.12
457.64	7581.00
457.83	7115.23
458.01	7145.66
458.19	7431.20
458.38	7227.57
458.56	7295.45
458.74	7351.62
458.93	7131.61
459.11	7403.11
459.29	7325.88
459.48	7475.67
459.66	7435.88
459.84	7538.87
460.03	7674.62
460.21	7419.50
460.39	7644.19
460.57	7562.27
460.76	7573.97
460.94	7478.01
461.12	7850.16
461.31	7801.01
461.49	7698.02
461.67	7686.32
461.85	8095.91
462.04	7728.45
462.22	8383.80
462.40	7948.46
462.59	7950.80
462.77	8074.85
462.95	8011.65
463.13	7854.84
463.32	7948.46
463.50	8018.68
463.68	8116.98
463.86	8152.09
464.05	7969.52
464.23	8074.85
464.41	8109.96
464.59	8072.51
464.78	8315.92
464.96	8053.78
465.14	8098.25
465.32	8297.20
465.50	8234.00
465.69	8262.09
465.87	8325.29
466.05	8294.86
466.23	8449.33
466.41	8231.66
466.60	8620.19
466.78	8313.58
466.96	8198.90
467.14	8372.10
467.32	8580.40
467.51	8634.24
467.69	8475.08
467.87	8578.06
468.05	8566.36
468.23	8482.10
468.41	8379.12
468.60	8723.18
468.78	8575.72
468.96	8589.77
469.14	8814.46
469.32	8596.79
469.50	8631.90
469.69	8861.27
469.87	8863.61
470.05	8858.93
470.23	8767.65
470.41	8985.32
470.59	8685.73
470.77	8924.46
470.95	8915.10
471.14	9350.44
471.32	9036.81
471.50	9284.91
471.68	9102.34
471.86	9525.98
472.04	9245.12
472.22	9596.20
472.40	9202.99
472.58	9476.83
472.77	9488.53
472.95	9528.32
473.13	9914.51
473.31	9586.83
473.49	9603.22
473.67	9628.96
473.85	9607.90
474.03	9933.23
474.21	9895.78
474.39	10022.17
474.57	10017.49
474.75	9977.70
474.93	10066.64
475.12	10040.90
475.30	10265.59
475.48	9935.57
475.66	10249.21
475.84	10155.58
476.02	10223.46
476.20	10345.17
476.38	10565.18
476.56	10995.84
476.74	10628.37
476.92	10927.96
477.10	10546.45
477.28	10909.24
477.46	10761.78
477.64	11063.71
477.82	11075.42
478.00	11517.78
478.18	11417.13
478.36	11206.48
478.54	11337.56
478.72	11721.40
478.90	11541.18
479.08	11609.06
479.26	11880.56
479.44	11950.78
479.62	12035.03
479.80	12264.41
479.98	12032.69
480.16	12306.54
480.34	12233.98
480.52	12510.16
480.70	12826.14
480.88	12362.71
481.06	12477.40
481.24	12320.58
481.41	12547.61
481.59	12994.65
481.77	13172.54
481.95	12922.10
482.13	13408.93
482.31	13074.23
482.49	13556.38
482.67	13774.05
482.85	13781.07
483.03	13715.54
483.21	13774.05
483.39	13912.14
483.57	13872.36
483.74	14221.10
483.92	14066.62
484.10	14303.01
484.28	14717.29
484.46	14516.00
484.64	15091.77
484.82	14387.27
485.00	14860.06
485.18	15059.01
485.35	15007.52
485.53	14927.94
485.71	14932.62
485.89	15154.97
486.07	15318.81
486.25	15360.94
486.43	15391.36
486.61	15529.45
486.78	16191.83
486.96	16020.97
487.14	16137.99
487.32	16334.60
487.50	16681.00
487.68	16688.02
487.85	16706.74
488.03	16690.36
488.21	17106.98
488.39	17053.14
488.57	17036.76
488.75	17149.11
488.92	17575.08
489.10	17530.61
489.28	17858.29
489.46	17781.05
489.64	17678.07
489.81	18352.14
489.99	18331.08
490.17	18307.67
490.35	18787.48
490.53	18520.66
490.70	18750.03
490.88	18689.18
491.06	19138.56
491.24	19250.91
491.41	18988.77
491.59	18916.21
491.77	18946.64
491.95	19349.21
492.13	19765.82
492.30	20042.01
492.48	19716.67
492.66	19775.19
492.84	19803.27
493.01	19868.81
493.19	19681.56
493.37	20449.26
493.54	20563.95
493.72	20713.74
493.90	20840.13
494.08	20924.39
494.25	21221.64
494.43	21216.96
494.61	21305.90
494.79	21280.15
494.96	21369.09
495.14	21254.40
495.32	21879.33
495.49	21640.59
495.67	22190.62
495.85	21907.41
496.02	22089.98
496.20	22448.08
496.38	22434.03
496.55	22321.69
496.73	22862.35
496.91	22738.30
497.09	22759.37
497.26	23009.81
497.44	23180.67
497.62	23021.51
497.79	23192.37
497.97	23349.18
498.14	23318.76
498.32	23817.29
498.50	23690.90
498.67	23777.50
498.85	23770.48
499.03	24086.45
499.20	23948.36
499.38	24009.22
499.56	24301.78
499.73	24559.24
499.91	24439.87
500.08	24388.38
500.26	24236.25
500.44	24697.33
500.61	24306.46
500.79	24276.04
500.97	25081.18
501.14	25432.26
501.32	25436.94
501.49	25020.33
501.67	25394.81
501.84	25411.20
502.02	25390.13
502.20	25392.47
502.37	26059.52
502.55	25729.51
502.72	26019.74
502.90	25692.06
503.07	25729.51
503.25	25914.41
503.43	25722.49
503.60	25984.63
503.78	26031.44
503.95	26085.27
504.13	26522.95
504.30	26604.87
504.48	26562.74
504.65	26443.37
504.83	26824.88
505.01	27063.61
505.18	26874.03
505.36	27234.47
505.53	27374.91
505.71	27379.59
505.88	27337.46
506.06	27473.21
506.23	27704.92
506.41	27288.31
506.58	27534.06
506.76	27725.99
506.93	28065.36
507.11	27527.04
507.28	28123.88
507.46	27623.00
507.63	27796.20
507.81	27751.73
507.98	28105.15
508.16	28194.09
508.33	28540.49
508.50	28479.64
508.68	28606.03
508.85	28725.39
509.03	28610.71
509.20	28926.68
509.38	28940.72
509.55	29223.93
509.73	29050.73
509.90	29081.16
510.08	29116.26
510.25	28987.53
510.42	29146.69
510.60	29486.07
510.77	29390.11
510.95	29680.33
511.12	29699.06
511.30	30080.56
511.47	30003.33
511.64	30291.21
511.82	30190.57
511.99	29713.10
512.17	30047.80
512.34	30085.25
512.51	30143.76
512.69	30682.08
512.86	30567.40
513.04	30913.80
513.21	30677.40
513.38	30719.53
513.56	30632.93
513.73	30455.05
513.90	30731.23
514.08	30637.61
514.25	30855.28
514.43	30948.90
514.60	31009.76
514.77	31070.61
514.95	31159.55
515.12	31189.98
515.29	31288.28
515.47	31440.42
515.64	31571.49
515.81	31463.82
515.99	31482.55
516.16	31248.49
516.33	31545.74
516.51	31566.81
516.68	31236.79
516.85	31658.09
517.03	31688.51
517.20	31721.28
517.37	32425.78
517.54	32107.47
517.72	32320.46
517.89	32371.95
518.06	31901.50
518.24	31859.37
518.41	32034.91
518.58	32264.28
518.75	32170.66
518.93	32732.39
519.10	32664.52
519.27	32706.65
519.45	32650.47
519.62	32929.00
519.79	33315.19
519.96	33483.70
520.14	33411.15
520.31	32910.27
520.48	33116.24
520.65	33404.13
520.83	33528.17
521.00	33809.04
521.17	33811.38
521.34	33649.88
521.52	33584.35
521.69	33853.51
521.86	34031.39
522.03	33930.75
522.20	33928.41
522.38	34466.73
522.55	33975.22
522.72	34113.31
522.89	34354.38
523.07	34270.12
523.24	34059.48
523.41	34277.15
523.58	34256.08
523.75	35000.37
523.92	34543.97
524.10	35360.81
524.27	34848.24
524.44	34778.02
524.61	34792.06
524.78	34937.18
524.96	35213.36
525.13	35409.96
525.30	35510.61
525.47	35747.00
525.64	34988.67
525.81	35161.87
525.98	35276.55
526.16	35227.40
526.33	35194.64
526.50	35889.77
526.67	35529.33
526.84	35171.23
527.01	35264.85
527.18	35711.89
527.36	35892.12
527.53	36264.26
527.70	36144.89
527.87	36107.44
528.04	36254.90
528.21	36161.28
528.38	36437.46
528.55	36285.33
528.72	36430.44
528.89	36435.12
529.07	36559.17
529.24	35964.67
529.41	36634.06
529.58	36545.12
529.75	36416.40
529.92	36715.98
530.09	36767.48
530.26	36833.01
530.43	37104.51
530.60	36762.79
530.77	36748.75
530.94	36999.19
531.11	37008.55
531.28	36711.30
531.46	37036.64
531.63	37069.40
531.80	37371.33
531.97	37207.50
532.14	37216.86
532.31	36914.93
532.48	37493.04
532.65	37542.19
532.82	37617.09
532.99	37661.56
533.16	37364.31
533.33	37525.81
533.50	37942.42
533.67	38017.32
533.84	37778.59
534.01	37881.57
534.18	37961.15
534.35	38052.43
534.52	38218.61
534.69	38078.18
534.86	38272.44
535.03	37717.73
535.20	38225.63
535.37	38223.29
535.54	38349.68
535.71	38286.48
535.88	38190.52
536.05	38548.62
536.22	38778.00
536.38	38422.23
536.55	38543.94
536.72	38923.11
536.89	38305.21
537.06	38925.45
537.23	38632.88
537.40	38717.14
537.57	38890.34
537.74	39257.81
537.91	38972.26
538.08	39049.50
538.25	38588.41
538.42	38780.34
538.59	39365.47
538.75	38958.22
538.92	38913.75
539.09	39629.95
539.26	39182.91
539.43	39105.67
539.60	39145.46
539.77	38890.34
539.94	39683.78
540.11	39194.61
540.28	39393.56
540.44	39292.91
540.61	39342.06
540.78	39555.05
540.95	39477.82
541.12	39555.05
541.29	39470.79
541.46	39473.13
541.62	39938.90
541.79	39777.40
541.96	39824.22
542.13	39779.74
542.30	40069.97
542.47	39861.66
542.63	39608.89
542.80	40016.14
542.97	40840.01
543.14	40238.49
543.31	40418.71
543.48	40514.67
543.64	40856.39
543.81	40734.68
543.98	40524.04
544.15	40308.71
544.32	40793.20
544.48	40987.46
544.65	40701.92
544.82	40715.96
544.99	40364.88
545.16	40971.08
545.32	40802.56
545.49	41163.00
545.66	40933.63
545.83	41062.36
546.00	40942.99
546.16	40683.19
546.33	40762.77
546.50	40652.76
546.67	41006.19
546.83	40589.57
547.00	41462.59
547.17	41024.91
547.34	40800.22
547.50	41120.87
547.67	41677.92
547.84	41743.45
548.00	41336.20
548.17	41867.50
548.34	41408.76
548.51	41769.20
548.67	41804.31
548.84	41663.88
549.01	41544.51
549.18	42094.53
549.34	41867.50
549.51	42272.42
549.68	41691.96
549.84	41734.09
550.01	42298.16
550.18	42040.70
550.34	42251.35
550.51	41970.49
550.68	41876.86
550.84	41471.95
551.01	41848.78
551.18	41759.84
551.34	42113.26
551.51	42185.82
551.68	42333.27
551.84	42146.03
552.01	41968.15
552.18	42080.49
552.34	42225.60
552.51	42328.59
552.68	42443.27
552.84	42244.33
553.01	42508.81
553.18	42700.73
553.34	42506.47
553.51	42110.92
553.67	42291.14
553.84	42731.16
554.01	42841.17
554.17	43107.99
554.34	43047.13
554.51	42550.94
554.67	42724.14
554.84	42696.05
555.00	42394.12
555.17	42597.75
555.33	42609.45
555.50	42892.66
555.67	42497.11
555.83	42871.59
556.00	42447.96
556.16	43569.07
556.33	43058.84
556.50	43430.98
556.66	42820.10
556.83	43061.18
556.99	43571.41
557.16	43112.67
557.32	43416.94
557.49	43267.14
557.65	43227.35
557.82	42897.34
557.98	42927.77
558.15	43061.18
558.32	43384.17
558.48	42780.31
558.65	43255.44
558.81	43098.62
558.98	43388.85
559.14	43681.42
559.31	43199.27
559.47	43246.08
559.64	43751.63
559.80	43531.62
559.97	43412.26
560.13	43199.27
560.30	43115.01
560.46	43686.10
560.63	43524.60
560.79	43650.99
560.96	43985.69
561.12	43428.64
561.29	43669.72
561.45	43370.13
561.61	43323.32
561.78	43988.03
561.94	43592.48
562.11	43840.57
562.27	43421.62
562.44	43704.82
562.60	43896.75
562.77	43983.35
562.93	43845.26
563.10	43552.69
563.26	43761.00
563.42	43882.70
563.59	43683.76
563.75	43601.84
563.92	44009.09
564.08	43480.13
564.24	44009.09
564.41	44191.65
564.57	43756.32
564.74	43856.96
564.90	44074.63
565.07	44191.65
565.23	43704.82
565.39	43981.01
565.56	43915.47
565.72	44065.27
565.88	44027.82
566.05	44233.78
566.21	43854.62
566.38	43875.68
566.54	44069.95
566.70	44177.61
566.87	44325.07
567.03	44105.06
567.19	43995.05
567.36	44395.28
567.52	44058.24
567.68	44285.28
567.85	43852.28
568.01	44311.02
568.17	44055.90
568.34	44158.89
568.50	44135.48
568.66	44411.67
568.83	43950.58
568.99	44301.66
569.15	44011.43
569.32	44336.77
569.48	44165.91
569.64	44645.72
569.81	43959.94
569.97	44278.25
570.13	44208.04
570.30	44105.06
570.46	44109.74
570.62	44362.51
570.78	43548.01
570.95	44051.22
571.11	44311.02
571.27	44079.31
571.43	44222.08
571.60	44446.77
571.76	43999.73
571.92	44231.44
572.09	44273.57
572.25	44254.85
572.41	44369.54
572.57	44156.55
572.74	45048.29
572.90	44582.52
573.06	44287.62
573.22	44985.10
573.38	44442.09
573.55	43880.36
573.71	44708.91
573.87	44208.04
574.03	44289.96
574.20	44512.31
574.36	44451.45
574.52	44631.68
574.68	44957.01
574.84	44519.33
575.01	44301.66
575.17	44414.01
575.33	44289.96
575.49	44449.11
575.65	44500.61
575.82	44353.15
575.98	44561.46
576.14	45106.80
576.30	44673.81
576.46	43990.37
576.62	44610.61
576.79	44538.05
576.95	44561.46
577.11	44304.00
577.27	44540.39
577.43	44854.03
577.59	44570.82
577.75	44322.72
577.92	44238.47
578.08	44186.97
578.24	44142.50
578.40	44409.32
578.56	44734.66
578.72	44374.22
578.88	44671.46
579.04	45132.55
579.21	44477.20
579.37	44830.62
579.53	44348.47
579.69	44428.05
579.85	44547.42
580.01	44811.90
580.17	44224.42
580.33	45052.97
580.49	45418.10
580.65	44753.38
580.82	44870.41
580.98	44713.59
581.14	44142.50
581.30	44863.39
581.46	44528.69
581.62	44453.79
581.78	44811.90
581.94	44994.46
582.10	44729.98
582.26	44542.74
582.42	44949.99
582.58	44428.05
582.74	44538.05
582.90	44917.22
583.06	44849.35
583.22	44797.85
583.38	44788.49
583.54	44449.11
583.70	44729.98
583.86	44870.41
584.02	44252.51
584.18	44924.24
584.34	44942.97
584.50	44601.25
584.66	44442.09
584.82	44872.75
584.98	44758.06
585.14	44453.79
585.30	44526.35
585.46	44626.99
585.62	44519.33
585.78	44399.96
585.94	44261.87
586.10	44659.76
586.26	44598.91
586.42	44898.50
586.58	45153.62
586.74	44767.43
586.90	44409.32
587.06	44383.58
587.22	44898.50
587.38	45078.72
587.54	45249.58
587.70	44760.40
587.86	44980.42
588.02	44844.66
588.18	45125.53
588.34	44774.45
588.49	44645.72
588.65	44552.10
588.81	44245.49
588.97	44421.03
589.13	44294.64
589.29	44910.20
589.45	44701.89
589.61	44975.73
589.77	45188.72
589.93	44900.84
590.08	44996.80
590.24	45001.48
590.40	45074.04
590.56	45586.61
590.72	45139.57
590.88	44598.91
591.04	44905.52
591.20	45364.26
591.35	45244.90
591.51	45162.98
591.67	44942.97
591.83	45263.62
591.99	45095.10
592.15	44994.46
592.31	44835.30
592.46	44758.06
592.62	44708.91
592.78	45118.51
592.94	45265.96
593.10	44947.65
593.26	45284.68
593.41	44486.56
593.57	45134.89
593.73	44973.39
593.89	45439.16
594.05	45036.59
594.20	44509.97
594.36	45411.07
594.52	44884.45
594.68	45415.76
594.84	45191.06
594.99	45787.90
595.15	44690.19
595.31	45586.61
595.47	45301.07
595.62	45029.57
595.78	45478.95
595.94	45254.26
596.10	45448.52
596.25	45109.14
596.41	45207.45
596.57	45401.71
596.73	45165.32
596.88	44774.45
597.04	45184.04
597.20	45460.23
597.36	44884.45
597.51	45380.65
597.67	45141.91
597.83	44978.07
597.99	45432.14
598.14	45263.62
598.30	45139.57
598.46	45062.33
598.61	45153.62
598.77	45132.55
598.93	44868.07
599.09	44893.82
599.24	45378.31
599.40	45361.92
599.56	45565.55
599.71	45020.20
599.87	45340.86
600.03	44638.70
600.18	45111.49
600.34	45193.40
600.50	45272.98
600.65	44898.50
600.81	44966.37
600.97	45331.50
601.12	45570.23
601.28	45322.13
601.44	44891.48
601.59	45240.21
601.75	44662.10
601.91	44968.71
602.06	45062.33
602.22	45076.38
602.37	45282.34
602.53	44847.00
602.69	45532.78
602.84	45287.03
603.00	45193.40
603.16	44957.01
603.31	44949.99
603.47	45102.12
603.62	44563.80
603.78	45647.47
603.94	45148.93
604.09	45148.93
604.25	45207.45
604.40	45020.20
604.56	44978.07
604.71	45083.40
604.87	45272.98
605.03	44722.96
605.18	44694.87
605.34	44884.45
605.49	44774.45
605.65	45092.76
605.80	45385.33
605.96	45170.00
606.12	44933.60
606.27	44912.54
606.43	44893.82
606.58	45390.01
606.74	44992.12
606.89	44905.52
607.05	44832.96
607.20	44781.47
607.36	44861.05
607.51	45141.91
607.67	44596.57
607.82	45097.44
607.98	45008.50
608.13	44786.15
608.29	44561.46
608.44	44313.36
608.60	44301.66
608.75	44362.51
608.91	44926.58
609.06	44336.77
609.22	45006.16
609.37	44470.18
609.53	44919.56
609.68	44669.12
609.84	45050.63
609.99	44458.48
610.15	44509.97
610.30	44669.12
610.46	44697.21
610.61	45013.18
610.76	44832.96
610.92	44264.21
611.07	44369.54
611.23	44156.55
611.38	44755.72
611.54	44402.30
611.69	44437.41
611.84	44566.14
612.00	44236.12
612.15	44549.76
612.31	44423.37
612.46	44074.63
612.62	45067.02
612.77	44552.10
612.92	44432.73
613.08	44009.09
613.23	44570.82
613.39	44409.32
613.54	43854.62
613.69	44226.76
613.85	44514.65
614.00	44231.44
614.15	44491.24
614.31	44507.63
614.46	44432.73
614.62	44034.84
614.77	44158.89
614.92	44055.90
615.08	44332.09
615.23	43859.30
615.38	43880.36
615.54	43693.12
615.69	44037.18
615.84	43543.33
616.00	43679.08
616.15	43746.95
616.30	43854.62
616.46	43880.36
616.61	43639.29
616.76	43501.20
616.92	43793.76
617.07	43908.45
617.22	43868.66
617.37	43936.54
617.53	43758.66
617.68	44360.17
617.83	43887.39
617.99	43571.41
618.14	43725.89
618.29	43395.87
618.45	43414.60
618.60	43562.05
618.75	43885.04
618.90	43646.31
619.06	43845.26
619.21	43325.66
619.36	43718.87
619.51	43805.47
619.67	43175.86
619.82	43505.88
619.97	43847.60
620.12	43143.09
620.28	42831.80
620.43	43515.24
620.58	43159.48
620.73	43058.84
620.89	43381.83
621.04	43255.44
621.19	42993.30
621.34	43012.02
621.49	42918.40
621.65	43206.29
621.80	43288.21
621.95	42784.99
622.10	43033.09
622.25	42794.36
622.41	42930.11
622.56	42759.25
622.71	43189.91
622.86	43262.46
623.01	43494.18
623.16	43267.14
623.32	43229.69
623.47	43026.07
623.62	43157.14
623.77	42948.83
623.92	42784.99
624.07	42370.72
624.23	42639.88
624.38	42557.96
624.53	42993.30
624.68	42562.64
624.83	43033.09
624.98	42986.28
625.13	42550.94
625.29	42557.96
625.44	42415.19
625.59	42309.86
625.74	42586.05
625.89	42181.13
626.04	41944.74
626.19	42574.34
626.34	42108.58
626.49	42351.99
626.65	42309.86
626.80	42515.83
626.95	42113.26
627.10	42012.62
627.25	41727.07
627.40	41853.46
627.55	42012.62
627.70	41881.55
627.85	41811.33
628.00	42026.66
628.15	42396.46
628.30	42274.76
628.45	42085.17
628.60	42567.32
628.76	41881.55
628.91	41881.55
629.06	42103.90
629.21	42007.94
629.36	41649.83
629.51	41682.60
629.66	41443.87
629.81	41853.46
629.96	41666.22
630.11	41907.29
630.26	41593.66
630.41	41883.89
630.56	41715.37
630.71	41530.47
630.86	41790.27
631.01	41448.55
631.16	41532.81
631.31	41130.23
631.46	40659.79
631.61	41172.36
631.76	41420.46
631.91	41427.48
632.06	41743.45
632.21	41478.97
632.36	41350.24
632.51	41174.70
632.66	41411.10
632.81	40751.07
632.96	41064.70
633.10	40678.51
633.25	40704.26
633.40	41188.75
633.55	41097.47
633.70	41303.43
633.85	41010.87
634.00	41277.69
634.15	41069.38
634.30	40739.36
634.45	40816.60
634.60	41022.57
634.75	40704.26
634.90	41076.40
635.05	40741.71
635.19	41202.79
635.34	40872.78
635.49	40500.63
635.64	40706.60
635.79	40528.72
635.94	40533.40
636.09	40781.49
636.24	40601.27
636.39	40112.10
636.53	40531.06
636.68	40048.91
636.83	40563.82
636.98	40545.10
637.13	40325.09
637.28	40669.15
637.43	40664.47
637.57	40622.34
637.72	40559.14
637.87	40259.55
638.02	40364.88
638.17	40201.04
638.32	40191.68
638.46	40474.88
638.61	40446.80
638.76	39821.87
638.91	40271.26
639.06	40135.51
639.20	40327.43
639.35	40154.23
639.50	39936.56
639.65	40472.54
639.80	40053.59
639.94	40194.02
640.09	40102.74
640.24	39344.41
640.39	39690.80
640.54	39632.29
640.68	39597.18
640.83	39878.05
640.98	39920.18
641.13	39552.71
641.27	40332.11
641.42	39342.06
641.57	39704.85
641.72	39887.41
641.86	39337.38
642.01	39218.02
642.16	39372.49
642.31	39007.37
642.45	39611.23
642.60	39187.59
642.75	39388.88
642.90	39400.58
643.04	39178.23
643.19	39005.03
643.34	39353.77
643.48	39746.98
643.63	39543.35
643.78	38990.98
643.93	39164.18
644.07	38696.08
644.22	38981.62
644.37	39016.73
644.51	38962.90
644.66	39431.01
644.81	39131.42
644.95	39159.50
645.10	39639.31
645.25	39166.52
645.39	39243.76
645.54	39260.15
645.69	39033.11
645.83	38555.64
645.98	39189.93
646.13	38864.60
646.27	39196.95
646.42	39084.61
646.57	38979.28
646.71	38326.27
646.86	38824.81
647.00	39339.72
647.15	39117.37
647.30	39035.45
647.44	38656.29
647.59	38595.43
647.74	38586.07
647.88	38485.43
648.03	38440.96
648.17	38625.86
648.32	38401.17
648.47	38792.04
648.61	38550.96
648.76	38660.97
648.90	38394.15
649.05	38541.60
649.20	38560.33
649.34	38696.08
649.49	38469.04
649.63	38185.84
649.78	38223.29
649.92	38569.69
650.07	38316.91
650.21	37921.36
650.36	38242.01
650.51	38445.64
650.65	38616.50
650.80	38253.72
650.94	38574.37
651.09	38139.03
651.23	38293.50
651.38	38366.06
651.52	37495.38
651.67	38281.80
651.81	38160.09
651.96	37848.80
652.10	38014.98
652.25	37591.34
652.39	37497.72
652.54	37743.48
652.68	37970.51
652.83	37846.46
652.97	37940.08
653.12	37846.46
653.26	37977.53
653.41	38169.46
653.55	37577.30
653.70	37677.94
653.84	37916.68
653.99	37900.29
654.13	37818.38
654.27	37406.44
654.42	38017.32
654.56	37596.03
654.71	37680.28
654.85	37560.92
655.00	37727.10
655.14	37394.74
655.29	37095.15
655.43	37312.82
655.57	36715.98
655.72	37132.60
655.86	36933.65
656.01	36701.94
656.15	36833.01
656.30	36910.25
656.44	37055.36
656.58	37418.14
656.73	36460.87
656.87	36987.49
657.01	36889.18
657.16	36739.39
657.30	36917.27
657.45	36519.38
657.59	36741.73
657.73	36914.93
657.88	36620.02
658.02	36720.66
658.16	36849.39
658.31	36563.85
658.45	36802.58
658.60	36531.08
658.74	36952.38
658.88	36610.66
659.03	36582.57
659.17	36081.70
659.31	36554.49
659.46	36596.62
659.60	36851.73
659.74	36343.84
659.89	35854.67
660.03	36196.38
660.17	36446.82
660.32	36421.08
660.46	36367.24
660.60	36149.57
660.74	36226.81
660.89	36397.67
661.03	35620.61
661.17	35793.81
661.32	35632.32
661.46	35812.54
661.60	35515.29
661.74	35646.36
661.89	35976.37
662.03	35915.52
662.17	35349.11
662.31	35658.06
662.46	35789.13
662.60	35409.96
662.74	35302.30
662.88	35388.90
663.03	35428.69
663.17	35728.28
663.31	35002.71
663.45	35168.89
663.60	35126.76
663.74	34932.50
663.88	35051.86
664.02	35379.54
664.17	35173.57
664.31	34515.88
664.45	34862.28
664.59	34991.01
664.73	34855.26
664.88	34995.69
665.02	34700.78
665.16	35009.73
665.30	34380.13
665.44	34424.60
665.59	34185.86
665.73	34019.69
665.87	33958.83
666.01	34368.43
666.15	34426.94
666.29	33722.44
666.44	34597.80
666.58	33893.30
666.72	34216.29
666.86	34316.93
667.00	34003.30
667.14	34073.52
667.28	34057.14
667.43	34005.64
667.57	33820.74
667.71	33823.08
667.85	33965.85
667.99	33570.30
668.13	33275.40
668.27	33612.43
668.41	33507.11
668.56	33298.80
668.70	33991.60
668.84	33188.80
668.98	33137.30
669.12	33474.34
669.26	33020.28
669.40	33085.81
669.54	32802.61
669.68	33207.52
669.82	33031.98
669.96	32685.58
670.10	32247.90
670.25	32481.95
670.39	32781.54
670.53	32339.18
670.67	32797.93
670.81	32779.20
670.95	32580.26
671.09	32713.67
671.23	32577.92
671.37	32297.05
671.51	32542.81
671.65	32311.10
671.79	32044.27
671.93	32421.10
672.07	32556.85
672.21	32102.79
672.35	31662.77
672.49	31948.31
672.63	32137.90
672.77	32112.15
672.91	31409.99
673.05	31819.58
673.19	32100.45
673.33	31679.15
673.47	31505.95
673.61	31108.06
673.75	31377.22
673.89	31065.93
674.03	30953.58
674.17	31250.83
674.31	31051.89
674.45	30918.48
674.59	31122.10
674.73	31318.71
674.87	30565.06
675.01	30934.86
675.15	30691.44
675.29	30646.97
675.43	30724.21
675.56	30630.59
675.70	30321.64
675.84	29795.02
675.98	29116.26
676.12	30284.19
676.26	30064.18
676.40	30113.33
676.54	29858.21
676.68	30040.78
676.82	29392.45
676.96	29362.02
677.10	29392.45
677.23	29811.40
677.37	29397.13
677.51	29355.00
677.65	29380.74
677.79	28842.42
677.93	29123.29
678.07	28753.48
678.21	28662.20
678.34	28489.00
678.48	28823.70
678.62	28503.04
678.76	28416.44
678.90	28676.24
679.04	28261.97
679.18	28313.46
679.31	27742.37
679.45	28016.21
679.59	27938.97
679.73	27873.44
679.87	27845.35
680.00	27718.96
680.14	27637.05
680.28	27543.42
680.42	27496.61
680.56	27370.22
680.70	27480.23
680.83	27328.10
680.97	27199.37
681.11	26986.38
681.25	27028.51
681.39	26969.99
681.52	27140.85
681.66	26733.60
681.80	26705.51
681.94	26675.09
682.07	26920.84
682.21	26424.65
682.35	26195.28
682.49	26321.66
682.62	26150.81
682.76	26197.62
682.90	25926.11
683.04	26101.65
683.17	25909.73
683.31	26153.15
683.45	26038.46
683.59	25610.14
683.72	25373.75
683.86	25291.83
684.00	25158.42
684.13	25448.64
684.27	25366.73
684.41	25181.82
684.55	25186.50
684.68	24828.40
684.82	24833.08
684.96	24950.11
685.09	24519.45
685.23	24388.38
685.37	24692.65
685.50	24119.22
685.64	24702.01
685.78	24381.36
685.91	24449.24
686.05	24020.92
686.19	23814.95
686.32	23953.04
686.46	23545.79
686.60	23536.43
686.73	23695.58
686.87	23129.17
687.01	23435.78
687.14	23335.14
687.28	22813.20
687.42	22946.61
687.55	22991.08
687.69	23157.26
687.82	23037.89
687.96	22796.82
688.10	22815.54
688.23	22668.09
688.37	22410.63
688.50	22541.70
688.64	22436.38
688.78	22211.68
688.91	22097.00
689.05	22101.68
689.18	21839.54
689.32	21919.12
689.46	21970.61
689.59	22183.60
689.73	21781.03
689.86	21614.85
690.00	21820.81
690.13	21762.30
690.27	21439.31
690.41	21593.78
690.54	21259.09
690.68	21001.63
690.81	21221.64
690.95	21198.23
691.08	21324.62
691.22	20950.14
691.35	21102.27
691.49	20879.92
691.62	21003.97
691.76	20971.20
691.89	20652.89
692.03	20418.83
692.16	20549.90
692.30	20107.54
692.43	20355.64
692.57	20091.16
692.70	20016.26
692.84	19880.51
692.97	19955.41
693.11	19585.60
693.24	19592.62
693.38	19477.94
693.51	19461.55
693.65	19758.80
693.78	19623.05
693.92	19243.88
694.05	19075.37
694.19	19351.55
694.32	19145.58
694.45	19400.70
694.59	18963.02
694.72	18813.23
694.86	18719.60
694.99	18953.66
695.13	18410.65
695.26	18408.31
695.39	18073.62
695.53	18338.10
695.66	18328.74
695.80	18459.81
695.93	18218.73
696.07	18146.17
696.20	18192.98
696.33	18162.56
696.47	18153.20
696.60	17937.87
696.73	17783.39
696.87	17659.34
697.00	17633.60
697.14	17441.67
697.27	17518.91
697.40	17865.31
697.54	17572.74
697.67	17259.11
697.80	17528.27
697.94	16666.95
698.07	17055.48
698.21	17074.21
698.34	16865.90
698.47	16905.69
698.61	16624.83
698.74	16563.97
698.87	16739.51
699.01	16521.84
699.14	16210.55
699.27	16528.86
699.40	16350.98
699.54	16189.49
699.67	16407.16
699.80	16219.91
699.94	16074.80
700.07	16051.39
700.20	16168.42
700.34	16032.67
700.47	16084.16
700.60	15892.24
700.73	15793.94
700.87	15550.52
701.00	15726.06
701.13	15552.86
701.26	15613.71
701.40	15562.22
701.53	15290.72
701.66	15215.82
701.79	15105.82
701.93	14960.70
702.06	14747.72
702.19	14871.76
702.32	14904.53
702.46	14766.44
702.59	14785.16
702.72	14607.28
702.85	14473.87
702.99	14668.14
703.12	14993.47
703.25	14710.27
703.38	14494.94
703.51	14178.97
703.65	14508.98
703.78	14026.83
703.91	14087.68
704.04	14026.83
704.17	13965.98
704.31	14022.15
704.44	13722.56
704.57	13710.86
704.70	13607.87
704.83	13715.54
704.96	13640.64
705.10	13760.01
705.23	13813.84
>>>>>End Processed Spectral Data<<<<<
