SpectraSuite Data File
++++++++++++++++++++++++++++++++++++
Date: Fri Oct 25 10:44:39 EDT 2013
User: price-jones
Dark Spectrum Present: No
Reference Spectrum Present: No
Number of Sampled Component Spectra: 1
Spectrometers: USB2+H05261
Integration Time (usec): 100000 (USB2+H05261)
Spectra Averaged: 1 (USB2+H05261)
Boxcar Smoothing: 0 (USB2+H05261)
Correct for Electrical Dark: No (USB2+H05261)
Strobe/Lamp Enabled: No (USB2+H05261)
Correct for Detector Non-linearity: No (USB2+H05261)
Correct for Stray Light: No (USB2+H05261)
Number of Pixels in Processed Spectrum: 2048
>>>>>Begin Processed Spectral Data<<<<<
365.73	105.32
365.92	105.32
366.12	105.32
366.32	32.77
366.52	32.77
366.72	51.49
366.91	35.11
367.11	0.00
367.31	42.13
367.51	44.47
367.70	56.17
367.90	60.85
368.10	93.62
368.30	30.43
368.49	56.17
368.69	53.83
368.89	28.09
369.09	56.17
369.28	44.47
369.48	60.85
369.68	86.60
369.87	95.96
370.07	112.35
370.27	128.73
370.47	184.90
370.66	409.59
370.86	341.72
371.06	468.11
371.25	510.24
371.45	470.45
371.65	526.62
371.84	465.77
372.04	372.15
372.24	409.59
372.44	491.51
372.63	465.77
372.83	514.92
373.03	461.09
373.22	489.17
373.42	491.51
373.62	505.56
373.81	440.02
374.01	505.56
374.21	498.53
374.40	592.16
374.60	596.84
374.79	566.41
374.99	454.06
375.19	526.62
375.38	512.58
375.58	524.28
375.78	554.71
375.97	589.82
376.17	564.07
376.37	634.29
376.56	603.86
376.76	507.90
376.95	580.45
377.15	571.09
377.35	596.84
377.54	566.41
377.74	575.77
377.93	533.64
378.13	599.18
378.33	636.63
378.52	582.79
378.72	550.03
378.91	615.56
379.11	566.41
379.31	538.32
379.50	554.71
379.70	615.56
379.89	690.46
380.09	643.65
380.28	622.58
380.48	603.86
380.68	657.69
380.87	603.86
381.07	631.94
381.26	592.16
381.46	592.16
381.65	547.69
381.85	650.67
382.04	648.33
382.24	603.86
382.43	674.07
382.63	725.57
382.83	716.20
383.02	704.50
383.22	695.14
383.41	594.50
383.61	723.23
383.80	772.38
384.00	744.29
384.19	669.39
384.39	791.10
384.58	784.08
384.78	716.20
384.97	755.99
385.17	758.33
385.36	758.33
385.56	676.41
385.75	669.39
385.95	685.78
386.14	786.42
386.34	711.52
386.53	725.57
386.72	734.93
386.92	821.53
387.11	786.42
387.31	798.12
387.50	772.38
387.70	809.83
387.89	807.48
388.09	842.59
388.28	699.82
388.48	777.06
388.67	765.36
388.86	753.65
389.06	835.57
389.25	875.36
389.45	901.11
389.64	908.13
389.84	931.53
390.03	915.15
390.22	959.62
390.42	891.74
390.61	926.85
390.81	964.30
391.00	945.58
391.19	929.19
391.39	924.51
391.58	898.77
391.78	978.34
391.97	889.40
392.16	924.51
392.36	985.37
392.55	959.62
392.75	905.79
392.94	901.11
393.13	978.34
393.33	931.53
393.52	919.83
393.71	966.64
393.91	1020.47
394.10	1055.58
394.29	1043.88
394.49	1048.56
394.68	1062.60
394.88	1144.52
395.07	1074.31
395.26	1053.24
395.46	1086.01
395.65	1086.01
395.84	1146.86
396.04	1078.99
396.23	1050.90
396.42	1137.50
396.62	1135.16
396.81	1125.80
397.00	1116.44
397.19	1111.75
397.39	1144.52
397.58	1200.69
397.77	1228.78
397.97	1231.12
398.16	1231.12
398.35	1296.66
398.55	1219.42
398.74	1254.53
398.93	1273.25
399.12	1371.55
399.32	1261.55
399.51	1299.00
399.70	1315.38
399.90	1437.09
400.09	1371.55
400.28	1366.87
400.47	1462.83
400.67	1394.96
400.86	1324.74
401.05	1425.39
401.24	1394.96
401.44	1411.34
401.63	1476.88
401.82	1472.20
402.01	1427.73
402.21	1514.33
402.40	1406.66
402.59	1547.09
402.78	1533.05
402.97	1607.95
403.17	1556.46
403.36	1472.20
403.55	1579.86
403.74	1593.90
403.93	1607.95
404.13	1664.12
404.32	1535.39
404.51	1561.14
404.70	1694.55
404.89	1596.25
405.09	1722.63
405.28	1715.61
405.47	1753.06
405.66	1699.23
405.85	1736.68
406.05	1825.62
406.24	1764.76
406.43	1771.79
406.62	1834.98
406.81	1907.54
407.00	1741.36
407.20	1809.23
407.39	1813.92
407.58	1834.98
407.77	1907.54
407.96	1991.80
408.15	1963.71
408.34	1895.83
408.54	1989.46
408.73	1937.96
408.92	1923.92
409.11	1994.14
409.30	1987.11
409.49	1987.11
409.68	1966.05
409.87	2005.84
410.07	2101.80
410.26	2078.40
410.45	2207.13
410.64	2111.16
410.83	2148.61
411.02	2129.89
411.21	2209.47
411.40	2186.06
411.59	2335.85
411.78	2380.32
411.98	2291.38
412.17	2448.20
412.36	2338.20
412.55	2401.39
412.74	2361.60
412.93	2345.22
413.12	2380.32
413.31	2485.65
413.50	2441.18
413.69	2583.95
413.88	2581.61
414.07	2520.76
414.26	2534.80
414.45	2558.21
414.64	2593.31
414.83	2558.21
415.02	2656.51
415.22	2722.04
415.41	2850.77
415.60	2705.66
415.79	2712.68
415.98	2871.84
416.17	2832.05
416.36	2855.45
416.55	2818.00
416.74	2902.26
416.93	2918.65
417.12	2892.90
417.31	2951.42
417.50	3108.23
417.69	3009.93
417.88	3052.06
418.07	3129.30
418.26	2981.84
418.45	3098.87
418.64	3176.11
418.83	3143.34
419.02	3222.92
419.21	3183.13
419.39	3091.85
419.58	3194.83
419.77	3126.96
419.96	3204.19
420.15	3300.16
420.34	3213.56
420.53	3215.90
420.72	3346.97
420.91	3337.60
421.10	3412.50
421.29	3456.97
421.48	3243.98
421.67	3438.25
421.86	3330.58
422.05	3297.81
422.24	3405.48
422.43	3346.97
422.61	3396.12
422.80	3529.53
422.99	3536.55
423.18	3487.40
423.37	3456.97
423.56	3433.57
423.75	3651.24
423.94	3478.04
424.13	3370.37
424.32	3316.54
424.50	3440.59
424.69	3618.47
424.88	3655.92
425.07	3510.80
425.26	3520.17
425.45	3487.40
425.64	3555.27
425.83	3454.63
426.01	3485.06
426.20	3557.61
426.39	3606.77
426.58	3576.34
426.77	3543.57
426.96	3592.72
427.15	3501.44
427.33	3681.66
427.52	3634.85
427.71	3693.37
427.90	3667.62
428.09	3709.75
428.28	3772.94
428.46	3719.11
428.65	3737.84
428.84	3868.91
429.03	3871.25
429.22	3740.18
429.40	3693.37
429.59	3775.28
429.78	3527.19
429.97	3618.47
430.16	3688.68
430.34	3796.35
430.53	3681.66
430.72	3770.60
430.91	3822.09
431.10	3974.23
431.28	4217.65
431.47	4065.51
431.66	4210.62
431.85	4117.00
432.03	4067.85
432.22	4217.65
432.41	4236.37
432.60	4140.41
432.79	4159.13
432.97	4107.64
433.16	4276.16
433.35	4205.94
433.54	4124.02
433.72	4182.54
433.91	4257.43
434.10	4297.22
434.28	4245.73
434.47	4229.35
434.66	4379.14
434.85	4418.93
435.03	4421.27
435.22	4339.35
435.41	4573.41
435.59	4451.70
435.78	4540.64
435.97	4657.67
436.16	4587.45
436.34	4620.22
436.53	4587.45
436.72	4575.75
436.90	4486.81
437.09	4615.54
437.28	4582.77
437.46	4580.43
437.65	4709.16
437.84	4711.50
438.02	4662.35
438.21	4723.20
438.40	4622.56
438.58	4849.59
438.77	4828.53
438.96	4716.18
439.14	5029.81
439.33	4978.32
439.52	4959.60
439.70	5027.47
439.89	4952.57
440.08	5048.54
440.26	5076.62
440.45	5240.46
440.63	5221.74
440.82	5406.64
441.01	5261.52
441.19	5362.17
441.38	5467.49
441.57	5359.83
441.75	5542.39
441.94	5540.05
442.12	5593.88
442.31	5671.12
442.50	5792.83
442.68	5572.82
442.87	5675.80
443.05	5659.42
443.24	5682.82
443.43	5710.91
443.61	5640.69
443.80	5820.91
443.98	5607.92
444.17	5628.99
444.35	5600.90
444.54	5776.44
444.73	5813.89
444.91	5909.85
445.10	5771.76
445.28	5813.89
445.47	5769.42
445.65	5713.25
445.84	5645.37
446.02	5813.89
446.21	6078.37
446.39	5846.66
446.58	5858.36
446.77	5874.74
446.95	5823.25
447.14	5827.93
447.32	6106.46
447.51	5872.40
447.69	5888.79
447.88	5996.45
448.06	6040.92
448.25	5998.79
448.43	6057.31
448.62	5935.60
448.80	5884.11
448.99	6029.22
449.17	6113.48
449.36	6010.50
449.54	6134.54
449.73	6324.13
449.91	6345.19
450.10	6246.89
450.28	6352.21
450.46	6382.64
450.65	6377.96
450.83	6384.98
451.02	6317.11
451.20	6312.42
451.39	6459.88
451.57	6331.15
451.76	6274.98
451.94	6394.34
452.13	6382.64
452.31	6361.58
452.49	6338.17
452.68	6551.16
452.86	6471.58
453.05	6469.24
453.23	6399.02
453.42	6443.49
453.60	6530.09
453.78	6607.33
453.97	6544.14
454.15	6621.38
454.34	6333.49
454.52	6773.51
454.70	6642.44
454.89	6799.26
455.07	6612.01
455.26	6860.11
455.44	6817.98
455.62	6930.33
455.81	6857.77
455.99	7094.16
456.17	6759.47
456.36	7019.27
456.54	7077.78
456.73	6953.73
456.91	7316.51
457.09	7208.85
457.28	7412.48
457.46	6970.12
457.64	7279.07
457.83	6995.86
458.01	7049.69
458.19	7421.84
458.38	7353.96
458.56	7386.73
458.74	7197.15
458.93	7379.71
459.11	7573.97
459.29	7410.14
459.48	7473.33
459.66	7463.97
459.84	7719.09
460.03	7660.57
460.21	7527.16
460.39	7499.08
460.57	7492.05
460.76	7524.82
460.94	7545.89
461.12	7669.94
461.31	7653.55
461.49	7655.89
461.67	7541.21
461.85	7791.64
462.04	7901.65
462.22	8121.66
462.40	7974.21
462.59	7871.22
462.77	7707.38
462.95	7854.84
463.13	7941.44
463.32	7740.15
463.50	8098.25
463.68	8149.75
463.86	8119.32
464.05	7960.16
464.23	7976.55
464.41	8168.47
464.59	7943.78
464.78	8021.02
464.96	8009.31
465.14	8149.75
465.32	8086.55
465.50	8276.13
465.69	8404.86
465.87	8236.35
466.05	8322.94
466.23	8173.15
466.41	8229.32
466.60	8498.49
466.78	8290.18
466.96	8294.86
467.14	8521.89
467.32	8491.46
467.51	8475.08
467.69	8243.37
467.87	8437.63
468.05	8594.45
468.23	8334.65
468.41	8472.74
468.60	8683.39
468.78	8585.08
468.96	8414.23
469.14	8709.13
469.32	8697.43
469.50	8461.04
469.69	8730.20
469.87	8959.57
470.05	8819.14
470.23	8844.88
470.41	8802.75
470.59	8919.78
470.77	8638.92
470.95	8922.12
471.14	9111.71
471.32	8933.82
471.50	9277.88
471.68	9186.60
471.86	9202.99
472.04	9212.35
472.22	9619.60
472.40	9362.14
472.58	9364.48
472.77	9266.18
472.95	9425.34
473.13	9685.14
473.31	9504.92
473.49	9530.66
473.67	9633.64
473.85	9488.53
474.03	9816.21
474.21	9666.41
474.39	9771.74
474.57	9870.04
474.75	10038.56
474.93	10171.97
475.12	9963.66
475.30	10111.11
475.48	10050.26
475.66	10176.65
475.84	10111.11
476.02	10361.55
476.20	10370.91
476.38	10380.28
476.56	10665.82
476.74	10413.04
476.92	10558.16
477.10	10553.48
477.28	10782.85
477.46	10857.75
477.64	10824.98
477.82	10911.58
478.00	11365.64
478.18	11414.79
478.36	11321.17
478.54	11541.18
478.72	11185.42
478.90	11463.94
479.08	11695.66
479.26	11728.42
479.44	12035.03
479.62	11880.56
479.80	11999.93
479.98	11913.33
480.16	12182.49
480.34	12163.76
480.52	12512.50
480.70	12400.16
480.88	12416.54
481.06	12456.33
481.24	12503.14
481.41	12830.82
481.59	13057.85
481.77	13107.00
481.95	12882.31
482.13	13004.02
482.31	12929.12
482.49	13610.22
482.67	13490.85
482.85	13654.69
483.03	13680.43
483.21	13650.00
483.39	13912.14
483.57	13928.53
483.74	14010.45
483.92	14167.26
484.10	14202.37
484.28	14335.78
484.46	14499.62
484.64	14918.57
484.82	14658.78
485.00	14567.49
485.18	14960.70
485.35	15206.46
485.53	14712.61
485.71	14944.32
485.89	15061.35
486.07	15112.84
486.25	15288.38
486.43	15477.96
486.61	15555.20
486.78	15812.66
486.96	15704.99
487.14	16201.19
487.32	16152.04
487.50	16421.20
487.68	16350.98
487.85	16704.40
488.03	16554.61
488.21	17001.65
488.39	17158.47
488.57	17137.40
488.75	17156.13
488.92	17549.34
489.10	17809.14
489.28	17362.09
489.46	17919.14
489.64	18050.21
489.81	18288.95
489.99	18164.90
490.17	18513.64
490.35	18555.77
490.53	18209.37
490.70	18471.51
490.88	18490.23
491.06	18778.12
491.24	18794.50
491.41	18864.72
491.59	19007.49
491.77	18827.27
491.95	19208.78
492.13	19552.84
492.30	19534.11
492.48	19875.83
492.66	19861.79
492.84	19992.86
493.01	19903.92
493.19	19889.87
493.37	20247.97
493.54	20393.09
493.72	20395.43
493.90	20695.02
494.08	20917.37
494.25	20900.98
494.43	20856.51
494.61	21219.30
494.79	21298.88
494.96	21303.56
495.14	21195.89
495.32	21331.64
495.49	21762.30
495.67	21727.19
495.85	22244.45
496.02	22197.64
496.20	22204.66
496.38	21961.25
496.55	22391.91
496.73	22796.82
496.91	22731.28
497.09	22810.86
497.26	22930.23
497.44	22813.20
497.62	22845.97
497.79	23101.09
497.97	23070.66
498.14	22953.63
498.32	23449.83
498.50	23754.10
498.67	23922.62
498.85	23365.57
499.03	24154.33
499.20	23754.10
499.38	24334.55
499.56	24217.52
499.73	24446.90
499.91	24379.02
500.08	24620.10
500.26	24105.18
500.44	24254.97
500.61	24601.37
500.79	24470.30
500.97	24823.72
501.14	24790.95
501.32	25193.53
501.49	25081.18
501.67	25032.03
501.84	25245.02
502.02	25130.33
502.20	25425.24
502.37	25312.89
502.55	25507.16
502.72	25535.24
502.90	25656.95
503.07	25546.95
503.25	25872.28
503.43	26038.46
503.60	26352.09
503.78	25724.83
503.95	25961.22
504.13	26071.23
504.30	26230.38
504.48	26597.85
504.65	26298.26
504.83	26813.18
505.01	26799.13
505.18	26677.43
505.36	26616.57
505.53	26749.98
505.71	26822.54
505.88	26995.74
506.06	26986.38
506.23	27632.36
506.41	27072.98
506.58	27353.84
506.76	27208.73
506.93	27391.29
507.11	27852.38
507.28	27414.69
507.46	27824.29
507.63	27566.83
507.81	27903.87
507.98	27775.14
508.16	28100.47
508.33	28098.13
508.50	28559.22
508.68	28542.83
508.85	28407.08
509.03	28540.49
509.20	28690.29
509.38	28982.85
509.55	28835.40
509.73	28608.37
509.90	28807.31
510.08	28819.02
510.25	28912.64
510.42	29294.14
510.60	29338.62
510.77	29275.42
510.95	29191.16
511.12	29343.30
511.30	29912.05
511.47	29858.21
511.64	29858.21
511.82	30143.76
511.99	29589.05
512.17	29827.79
512.34	29865.24
512.51	30356.75
512.69	30422.28
512.86	30125.04
513.04	30532.29
513.21	30553.35
513.38	30253.76
513.56	30471.43
513.73	30452.71
513.90	30670.38
514.08	30281.85
514.25	30607.19
514.43	30567.40
514.60	30689.10
514.77	30824.86
514.95	31033.16
515.12	30953.58
515.29	30974.65
515.47	31119.76
515.64	31557.44
515.81	31307.01
515.99	31346.79
516.16	31592.55
516.33	31288.28
516.51	31435.74
516.68	31182.96
516.85	31440.42
517.03	31377.22
517.20	31557.44
517.37	31754.05
517.54	31772.77
517.72	31976.40
517.89	31908.52
518.06	31321.05
518.24	31826.60
518.41	32264.28
518.58	32231.52
518.75	31938.95
518.93	32376.63
519.10	32006.83
519.27	32437.48
519.45	32339.18
519.62	32947.72
519.79	33170.07
519.96	32350.88
520.14	32938.36
520.31	32842.40
520.48	33008.58
520.65	32985.17
520.83	33558.60
521.00	33481.36
521.17	33146.67
521.34	33251.99
521.52	33617.11
521.69	33741.16
521.86	33888.62
522.03	33741.16
522.20	33579.67
522.38	33736.48
522.55	34003.30
522.72	33649.88
522.89	34050.11
523.07	34139.05
523.24	34197.57
523.41	34333.32
523.58	34197.57
523.75	35058.88
523.92	34284.17
524.10	34560.35
524.27	34794.40
524.44	34260.76
524.61	34925.47
524.78	34792.06
524.96	34801.43
525.13	34829.51
525.30	35248.47
525.47	35299.96
525.64	35297.62
525.81	34789.72
525.98	35040.16
526.16	35061.22
526.33	34976.97
526.50	35110.38
526.67	35147.82
526.84	34899.73
527.01	35082.29
527.18	35363.15
527.36	35491.88
527.53	35892.12
527.70	36058.29
527.87	35524.65
528.04	35882.75
528.21	35611.25
528.38	35700.19
528.55	36250.22
528.72	36062.97
528.89	36484.27
529.07	36098.08
529.24	35693.17
529.41	36540.44
529.58	35821.90
529.75	36594.28
529.92	36336.82
530.09	36484.27
530.26	36865.78
530.43	36664.49
530.60	36177.66
530.77	36318.09
530.94	36921.95
531.11	36481.93
531.28	36636.41
531.46	36680.88
531.63	36985.15
531.80	36893.86
531.97	36666.83
532.14	36814.29
532.31	36910.25
532.48	37219.20
532.65	37303.46
532.82	37020.25
532.99	37460.27
533.16	36847.05
533.33	37064.72
533.50	37935.40
533.67	37331.54
533.84	37516.45
534.01	37574.96
534.18	37294.10
534.35	37942.42
534.52	37518.79
534.69	37975.19
534.86	37750.50
535.03	37996.26
535.20	38031.36
535.37	38085.20
535.54	37886.25
535.71	37773.91
535.88	38129.67
536.05	38197.54
536.22	37986.89
536.38	38073.49
536.55	38003.28
536.72	38237.33
536.89	38337.98
537.06	38279.46
537.23	38162.43
537.40	38298.19
537.57	38267.76
537.74	38738.21
537.91	38794.38
538.08	38490.11
538.25	38216.27
538.42	38284.14
538.59	38728.84
538.75	38457.34
538.92	38785.02
539.09	38880.98
539.26	39213.34
539.43	38831.83
539.60	38792.04
539.77	39021.41
539.94	39143.12
540.11	39119.71
540.28	38845.87
540.44	39239.08
540.61	38998.01
540.78	38880.98
540.95	38955.88
541.12	38960.56
541.29	39051.84
541.46	39119.71
541.62	39192.27
541.79	39438.03
541.96	39346.75
542.13	39688.46
542.30	39517.60
542.47	39765.70
542.63	39325.68
542.80	39749.32
542.97	40142.53
543.14	40144.87
543.31	40715.96
543.48	39887.41
543.64	40603.61
543.81	40289.98
543.98	40165.93
544.15	40098.06
544.32	40664.47
544.48	40971.08
544.65	40474.88
544.82	40165.93
544.99	40620.00
545.16	40327.43
545.32	40128.48
545.49	40737.02
545.66	41148.96
545.83	40877.46
546.00	41287.05
546.16	40498.29
546.33	40439.78
546.50	40453.82
546.67	40914.90
546.83	40627.02
547.00	40835.33
547.17	40828.30
547.34	40615.32
547.50	40882.14
547.67	40992.14
547.84	41064.70
548.00	41268.33
548.17	41418.12
548.34	41542.17
548.51	41249.60
548.67	41577.28
548.84	41783.24
549.01	40830.65
549.18	41319.82
549.34	41776.22
549.51	41242.58
549.68	41282.37
549.84	41474.29
550.01	41228.54
550.18	41757.50
550.34	41441.53
550.51	41743.45
550.68	41909.63
550.84	41036.61
551.01	41600.68
551.18	41633.45
551.34	41427.48
551.51	41839.42
551.68	41869.84
551.84	42117.94
552.01	41628.77
552.18	41780.90
552.34	41366.63
552.51	42211.56
552.68	42066.45
552.84	42391.78
553.01	42150.71
553.18	41937.72
553.34	41846.44
553.51	41808.99
553.67	42160.07
553.84	42225.60
554.01	42595.41
554.17	42513.49
554.34	42480.72
554.51	42398.80
554.67	42525.19
554.84	42340.29
555.00	42197.52
555.17	41858.14
555.33	42763.93
555.50	42073.47
555.67	42122.62
555.83	42529.87
556.00	42412.85
556.16	43145.44
556.33	42749.88
556.50	42288.80
556.66	42146.03
556.83	42590.73
556.99	42838.83
557.16	43084.58
557.32	42780.31
557.49	42880.95
557.65	42361.36
557.82	42759.25
557.98	42637.54
558.15	42932.45
558.32	42951.17
558.48	42754.57
558.65	42714.78
558.81	42621.16
558.98	42754.57
559.14	43012.02
559.31	42454.98
559.47	42857.55
559.64	43288.21
559.80	43157.14
559.97	43232.04
560.13	42506.47
560.30	42831.80
560.46	42831.80
560.63	42988.62
560.79	43505.88
560.96	43552.69
561.12	43573.75
561.29	43498.86
561.45	43386.51
561.61	43332.68
561.78	43505.88
561.94	42784.99
562.11	43480.13
562.27	42890.32
562.44	43452.05
562.60	43782.06
562.77	43349.06
562.93	43475.45
563.10	43566.73
563.26	43421.62
563.42	43398.21
563.59	43201.61
563.75	43058.84
563.92	43562.05
564.08	43384.17
564.24	43798.44
564.41	43517.58
564.57	43540.99
564.74	43889.73
564.90	43035.43
565.07	43704.82
565.23	43477.79
565.39	43342.04
565.56	43168.84
565.72	43599.50
565.88	43730.57
566.05	43030.75
566.21	43491.83
566.38	43735.25
566.54	43374.81
566.70	43913.13
566.87	44095.69
567.03	43491.83
567.19	44313.36
567.36	43690.78
567.52	43435.66
567.68	43805.47
567.85	44191.65
568.01	43510.56
568.17	43487.15
568.34	43737.59
568.50	43342.04
568.66	43442.68
568.83	43573.75
568.99	43498.86
569.15	43381.83
569.32	43477.79
569.48	43849.94
569.64	43721.21
569.81	43847.60
569.97	44037.18
570.13	43990.37
570.30	43477.79
570.46	43725.89
570.62	43597.16
570.78	43639.29
570.95	43728.23
571.11	43803.13
571.27	43313.95
571.43	43576.09
571.60	43482.47
571.76	43622.90
571.92	43852.28
572.09	43510.56
572.25	44067.61
572.41	44135.48
572.57	43915.47
572.74	44360.17
572.90	44168.25
573.06	43945.90
573.22	44039.52
573.38	44395.28
573.55	44006.75
573.71	44360.17
573.87	43936.54
574.03	44285.28
574.20	44130.80
574.36	44067.61
574.52	44313.36
574.68	44524.01
574.84	43775.04
575.01	44147.18
575.17	43763.34
575.33	43814.83
575.49	43810.15
575.65	43861.64
575.82	44161.23
575.98	43697.80
576.14	44406.98
576.30	44027.82
576.46	43934.20
576.62	44128.46
576.79	44346.13
576.95	43903.77
577.11	44095.69
577.27	44168.25
577.43	44128.46
577.59	44418.69
577.75	44020.80
577.92	43775.04
578.08	43899.09
578.24	43943.56
578.40	43959.94
578.56	43482.47
578.72	43606.52
578.88	44245.49
579.04	44116.76
579.21	44006.75
579.37	43924.83
579.53	44151.87
579.69	43817.17
579.85	44236.12
580.01	44374.22
580.17	43938.88
580.33	44278.25
580.49	44488.90
580.65	44446.77
580.82	44439.75
580.98	44151.87
581.14	44184.63
581.30	44540.39
581.46	44168.25
581.62	44161.23
581.78	44172.93
581.94	44224.42
582.10	44142.50
582.26	44343.79
582.42	44292.30
582.58	44074.63
582.74	43959.94
582.90	44603.59
583.06	44357.83
583.22	44737.00
583.38	44924.24
583.54	44704.23
583.70	44619.97
583.86	44278.25
584.02	44069.95
584.18	44147.18
584.34	44289.96
584.50	44074.63
584.66	44215.06
584.82	44306.34
584.98	44678.49
585.14	44116.76
585.30	43976.33
585.46	44329.75
585.62	44287.62
585.78	44182.29
585.94	43882.70
586.10	44170.59
586.26	44060.58
586.42	44151.87
586.58	44121.44
586.74	44175.27
586.90	43812.49
587.06	44020.80
587.22	44430.39
587.38	44048.88
587.54	43955.26
587.70	44811.90
587.86	44264.21
588.02	44247.83
588.18	44147.18
588.34	44584.86
588.49	44147.18
588.65	43856.96
588.81	43892.07
588.97	44233.78
589.13	44205.70
589.29	44327.41
589.45	44353.15
589.61	44524.01
589.77	44610.61
589.93	43992.71
590.08	44446.77
590.24	44641.04
590.40	44748.70
590.56	44397.62
590.72	44512.31
590.88	44619.97
591.04	44825.94
591.20	45088.08
591.35	44760.40
591.51	44584.86
591.67	44374.22
591.83	44617.63
591.99	44449.11
592.15	44538.05
592.31	44463.16
592.46	44486.56
592.62	44449.11
592.78	44694.87
592.94	44722.96
593.10	44521.67
593.26	44598.91
593.41	44746.36
593.57	44662.10
593.73	44533.37
593.89	44755.72
594.05	44584.86
594.20	44514.65
594.36	44587.21
594.52	44568.48
594.68	44601.25
594.84	44172.93
594.99	44556.78
595.15	44830.62
595.31	44896.16
595.47	44828.28
595.62	44638.70
595.78	44811.90
595.94	44744.02
596.10	44844.66
596.25	44601.25
596.41	44598.91
596.57	44507.63
596.73	44870.41
596.88	44659.76
597.04	44732.32
597.20	44725.30
597.36	44706.57
597.51	45024.89
597.67	44832.96
597.83	44528.69
597.99	44580.18
598.14	44758.06
598.30	44552.10
598.46	44818.92
598.61	44704.23
598.77	44463.16
598.93	44516.99
599.09	44694.87
599.24	45200.43
599.40	44430.39
599.56	44900.84
599.71	44907.86
599.87	45170.00
600.03	44561.46
600.18	44830.62
600.34	44652.74
600.50	44912.54
600.65	44898.50
600.81	44839.98
600.97	44975.73
601.12	45064.67
601.28	44961.69
601.44	44568.48
601.59	44280.60
601.75	44268.89
601.91	44722.96
602.06	44282.94
602.22	44542.74
602.37	44540.39
602.53	44797.85
602.69	45153.62
602.84	44477.20
603.00	44683.17
603.16	44554.44
603.31	44271.23
603.47	44917.22
603.62	44449.11
603.78	44954.67
603.94	44966.37
604.09	44474.86
604.25	44914.88
604.40	44837.64
604.56	44631.68
604.71	44563.80
604.87	44453.79
605.03	44542.74
605.18	44278.25
605.34	44350.81
605.49	44509.97
605.65	44275.91
605.80	44650.40
605.96	44814.24
606.12	44259.53
606.27	45146.59
606.43	44610.61
606.58	44603.59
606.74	44205.70
606.89	44524.01
607.05	44676.15
607.20	44392.94
607.36	44538.05
607.51	44615.29
607.67	44332.09
607.82	44554.44
607.98	44451.45
608.13	44212.72
608.29	43983.35
608.44	44250.17
608.60	43782.06
608.75	44224.42
608.91	44371.88
609.06	43889.73
609.22	44114.42
609.37	43973.98
609.53	44587.21
609.68	44030.16
609.84	44058.24
609.99	44133.14
610.15	44177.61
610.30	44046.54
610.46	43901.43
610.61	43601.84
610.76	44018.46
610.92	43906.11
611.07	44437.41
611.23	44245.49
611.38	44002.07
611.54	44020.80
611.69	43863.98
611.84	43531.62
612.00	43833.55
612.15	43941.22
612.31	44102.71
612.46	44009.09
612.62	43997.39
612.77	43786.74
612.92	44561.46
613.08	44006.75
613.23	43784.40
613.39	43613.54
613.54	43700.14
613.69	43545.67
613.85	43999.73
614.00	43646.31
614.15	43599.50
614.31	44088.67
614.46	43917.81
614.62	43791.42
614.77	43297.57
614.92	43674.40
615.08	43807.81
615.23	43480.13
615.38	43732.91
615.54	42916.06
615.69	43339.70
615.84	43365.45
616.00	43468.43
616.15	42997.98
616.30	43566.73
616.46	42941.81
616.61	43274.16
616.76	43585.46
616.92	42941.81
617.07	42976.92
617.22	43014.37
617.37	43189.91
617.53	43871.00
617.68	43323.32
617.83	42883.30
617.99	43297.57
618.14	43313.95
618.29	42937.13
618.45	42995.64
618.60	42520.51
618.75	43093.94
618.90	42885.64
619.06	43178.20
619.21	43084.58
619.36	43435.66
619.51	43178.20
619.67	42700.73
619.82	43271.82
619.97	43079.90
620.12	42436.25
620.28	42707.76
620.43	42679.67
620.58	43030.75
620.73	42337.95
620.89	42801.38
621.04	42569.66
621.19	42815.42
621.34	42689.03
621.49	42572.00
621.65	42595.41
621.80	42724.14
621.95	43014.37
622.10	42738.18
622.25	41968.15
622.41	42029.00
622.56	42506.47
622.71	42597.75
622.86	42597.75
623.01	42508.81
623.16	42082.83
623.32	42237.31
623.47	42801.38
623.62	42295.82
623.77	41794.95
623.92	42370.72
624.07	42230.29
624.23	42106.24
624.38	41930.70
624.53	41797.29
624.68	42307.52
624.83	42195.18
624.98	42136.66
625.13	41937.72
625.29	41970.49
625.44	42085.17
625.59	41713.03
625.74	41474.29
625.89	41780.90
626.04	41635.79
626.19	41563.23
626.34	41785.58
626.49	41670.90
626.65	41638.13
626.80	42036.02
626.95	41855.80
627.10	41586.64
627.25	41790.27
627.40	41666.22
627.55	41298.75
627.70	41263.64
627.85	40921.93
628.00	41174.70
628.15	41495.36
628.30	40964.06
628.45	41600.68
628.60	41165.34
628.76	41860.48
628.91	41581.96
629.06	40879.80
629.21	41294.07
629.36	41036.61
629.51	41219.17
629.66	40952.35
629.81	40828.30
629.96	41375.99
630.11	41188.75
630.26	41544.51
630.41	41045.97
630.56	41228.54
630.71	41425.14
630.86	41060.02
631.01	40641.06
631.16	41237.90
631.31	41083.42
631.46	40425.73
631.61	40863.41
631.76	40598.93
631.91	40779.15
632.06	40540.42
632.21	41441.53
632.36	40524.04
632.51	40538.08
632.66	40470.20
632.81	40194.02
632.96	40945.33
633.10	40250.19
633.25	40615.32
633.40	40346.15
633.55	40786.18
633.70	40304.02
633.85	40549.78
634.00	39878.05
634.15	40137.85
634.30	40467.86
634.45	40627.02
634.60	40289.98
634.75	40191.68
634.90	40109.76
635.05	40282.96
635.19	39690.80
635.34	40577.87
635.49	40023.16
635.64	39873.37
635.79	40566.16
635.94	40093.38
636.09	40266.58
636.24	40175.30
636.39	40109.76
636.53	39831.24
636.68	39695.49
636.83	39821.87
636.98	40161.25
637.13	39793.79
637.28	40198.70
637.43	40165.93
637.57	40114.44
637.72	39763.36
637.87	39835.92
638.02	39599.52
638.17	39599.52
638.32	39931.88
638.46	39847.62
638.61	39793.79
638.76	39758.68
638.91	39732.93
639.06	39674.42
639.20	39379.51
639.35	39882.73
639.50	39526.97
639.65	39571.44
639.80	40002.10
639.94	39292.91
640.09	39484.84
640.24	39452.07
640.39	39206.31
640.54	39328.02
640.68	39227.38
640.83	39290.57
640.98	39278.87
641.13	38962.90
641.27	39442.71
641.42	39421.64
641.57	39250.78
641.72	38876.30
641.86	38803.74
642.01	38904.38
642.16	39019.07
642.31	38754.59
642.45	38920.77
642.60	38740.55
642.75	39084.61
642.90	38939.49
643.04	39351.43
643.19	38841.19
643.34	38721.82
643.48	39077.58
643.63	38635.22
643.78	38656.29
643.93	37926.04
644.07	38880.98
644.22	38752.25
644.37	38340.32
644.51	39000.35
644.66	38850.55
644.81	38705.44
644.95	38888.00
645.10	38974.60
645.25	39145.46
645.39	38501.81
645.54	38761.61
645.69	38258.40
645.83	38677.35
645.98	38522.88
646.13	38710.12
646.27	38710.12
646.42	38504.15
646.57	38499.47
646.71	38660.97
646.86	38258.40
647.00	38569.69
647.15	38363.72
647.30	38501.81
647.44	38326.27
647.59	38183.50
647.74	37902.64
647.88	38220.95
648.03	37771.57
648.17	38113.28
648.32	37928.38
648.47	37928.38
648.61	37797.31
648.76	38171.80
648.90	38316.91
649.05	38204.56
649.20	37996.26
649.34	38216.27
649.49	37773.91
649.63	37542.19
649.78	37560.92
649.92	37687.31
650.07	38040.73
650.21	37687.31
650.36	37923.70
650.51	37591.34
650.65	38202.22
650.80	38359.04
650.94	37968.17
651.09	37734.12
651.23	37724.75
651.38	37579.64
651.52	37467.30
651.67	37797.31
651.81	37067.06
651.96	37345.59
652.10	37280.05
652.25	37291.76
652.39	37319.84
652.54	37425.17
652.68	37326.86
652.83	37450.91
652.97	37146.64
653.12	37612.41
653.26	37214.52
653.41	37184.09
653.55	36800.24
653.70	37071.75
653.84	37376.01
653.99	37256.65
654.13	37153.66
654.27	36914.93
654.42	36657.47
654.56	36692.58
654.71	37008.55
654.85	36655.13
655.00	37188.77
655.14	36868.12
655.29	37139.62
655.43	36769.82
655.57	36905.57
655.72	36486.61
655.86	36306.39
656.01	36140.21
656.15	36416.40
656.30	36378.95
656.44	36613.00
656.58	36884.50
656.73	36002.12
656.87	36418.74
657.01	36442.14
657.16	36891.52
657.30	36140.21
657.45	36018.50
657.59	36400.01
657.73	36776.84
657.88	36678.54
658.02	36128.51
658.16	36432.78
658.31	36467.89
658.45	36297.03
658.60	36149.57
658.74	35878.07
658.88	35997.44
659.03	36077.02
659.17	35833.60
659.31	35927.22
659.46	35917.86
659.60	35915.52
659.74	35791.47
659.89	35419.33
660.03	35761.05
660.17	35606.57
660.32	35435.71
660.46	35559.76
660.60	35175.91
660.74	35435.71
660.89	35882.75
661.03	35648.70
661.17	35711.89
661.32	34932.50
661.46	34991.01
661.60	34888.03
661.74	35473.16
661.89	35040.16
662.03	35166.55
662.17	35204.00
662.31	34909.09
662.46	35185.27
662.60	35349.11
662.74	35206.34
662.88	34778.02
663.03	34440.98
663.17	34717.17
663.31	34555.67
663.45	34621.20
663.60	35009.73
663.74	34740.57
663.88	34501.84
664.02	34429.28
664.17	34459.71
664.31	34394.17
664.45	34522.90
664.59	34480.77
664.73	34595.46
664.88	34431.62
665.02	34026.71
665.16	34164.80
665.30	34038.41
665.44	34117.99
665.59	33755.21
665.73	33818.40
665.87	33930.75
666.01	33935.43
666.15	33855.85
666.29	34043.09
666.44	33919.04
666.58	33598.39
666.72	33834.78
666.86	33944.79
667.00	33628.82
667.14	33102.20
667.28	33385.40
667.43	33057.73
667.57	33464.98
667.71	33336.25
667.85	33450.94
667.99	33343.27
668.13	32973.47
668.27	32978.15
668.41	32936.02
668.56	32877.51
668.70	33240.29
668.84	32648.13
668.98	32416.42
669.12	32428.12
669.26	32573.24
669.40	32079.38
669.54	32259.60
669.68	32439.82
669.82	32444.51
669.96	32011.51
670.10	32170.66
670.25	32573.24
670.39	32240.88
670.53	31473.18
670.67	32154.28
670.81	32341.52
670.95	32100.45
671.09	32107.47
671.23	32018.53
671.37	31775.11
671.51	31667.45
671.65	31370.20
671.79	31484.89
671.93	31227.43
672.07	31342.11
672.21	31758.73
672.35	31454.46
672.49	31262.54
672.63	31393.61
672.77	31318.71
672.91	31283.60
673.05	31323.39
673.19	30925.50
673.33	31033.16
673.47	31112.74
673.61	30852.94
673.75	30663.36
673.89	30862.30
674.03	30281.85
674.17	30206.95
674.31	30508.88
674.45	30274.83
674.59	30323.98
674.73	30670.38
674.87	30429.30
675.01	30239.72
675.15	30424.62
675.29	30391.86
675.43	30139.08
675.56	29926.09
675.70	29748.21
675.84	29820.77
675.98	28929.02
676.12	29570.33
676.26	29954.18
676.40	29942.47
676.54	29352.66
676.68	29832.47
676.82	28730.08
676.96	29298.83
677.10	29263.72
677.23	29474.37
677.37	28950.09
677.51	28444.53
677.65	28779.23
677.79	28306.44
677.93	28465.60
678.07	28247.93
678.21	28121.54
678.34	28587.30
678.48	28063.02
678.62	27957.70
678.76	27669.81
678.90	27948.34
679.04	27798.54
679.18	27543.42
679.31	27222.77
679.45	27620.66
679.59	27075.32
679.73	27173.62
679.87	27421.72
680.00	27000.42
680.14	27098.72
680.28	27028.51
680.42	27056.59
680.56	27325.75
680.70	27063.61
680.83	26897.44
680.97	27199.37
681.11	27033.19
681.25	26600.19
681.39	26391.88
681.52	26443.37
681.66	26637.64
681.80	26108.68
681.94	26288.90
682.07	26195.28
682.21	26103.99
682.35	25649.93
682.49	25942.50
682.62	25647.59
682.76	25635.89
682.90	25818.45
683.04	25638.23
683.17	25575.03
683.31	25027.35
683.45	25312.89
683.59	24889.26
683.72	24933.73
683.86	24683.29
684.00	24872.87
684.13	24823.72
684.27	24634.14
684.41	24833.08
684.55	24552.22
684.68	24498.39
684.82	24556.90
684.96	24357.96
685.09	24308.80
685.23	24496.05
685.37	24210.50
685.50	23917.93
685.64	24233.91
685.78	24009.22
685.91	23190.03
686.05	23587.92
686.19	23335.14
686.32	23335.14
686.46	22869.37
686.60	23122.15
686.73	22820.22
686.87	22977.04
687.01	23178.33
687.14	23229.82
687.28	22740.64
687.42	22705.54
687.55	23183.01
687.69	22923.21
687.82	22728.94
687.96	22625.96
688.10	22422.33
688.23	22373.18
688.37	21991.67
688.50	21909.75
688.64	21979.97
688.78	22141.47
688.91	21876.99
689.05	21930.82
689.18	21844.22
689.32	21729.53
689.46	21701.45
689.59	21474.42
689.73	22235.09
689.86	21572.72
690.00	21462.71
690.13	21305.90
690.27	21509.52
690.41	20872.90
690.54	21027.37
690.68	20772.25
690.81	20788.64
690.95	20699.70
691.08	20779.28
691.22	20641.18
691.35	20893.96
691.49	20709.06
691.62	20615.44
691.76	20498.41
691.89	20542.88
692.03	20147.33
692.16	19903.92
692.30	20098.18
692.43	19826.68
692.57	19838.38
692.70	19770.51
692.84	19651.14
692.97	19440.49
693.11	19438.15
693.24	19335.17
693.38	19063.66
693.51	18988.77
693.65	19110.47
693.78	19410.06
693.92	19049.62
694.05	19293.04
694.19	18988.77
694.32	19161.97
694.45	18616.62
694.59	18773.44
694.72	18333.42
694.86	18609.60
694.99	18230.43
695.13	18497.25
695.26	18291.29
695.39	18108.72
695.53	18143.83
695.66	18291.29
695.80	18209.37
695.93	18284.26
696.07	17984.68
696.20	17823.18
696.33	17914.46
696.47	17673.39
696.60	17701.47
696.73	17565.72
696.87	17233.36
697.00	17394.86
697.14	17469.76
697.27	17294.22
697.40	17446.35
697.54	17116.34
697.67	16971.22
697.80	17123.36
697.94	16776.96
698.07	16851.86
698.21	16713.77
698.34	16601.42
698.47	16526.52
698.61	16397.79
698.74	16311.19
698.87	16369.71
699.01	15981.18
699.14	15798.62
699.27	16013.95
699.40	15632.44
699.54	16088.84
699.67	16070.12
699.80	15768.19
699.94	15679.25
700.07	15583.29
700.20	15662.86
700.34	15543.50
700.47	15637.12
700.60	15555.20
700.73	15864.15
700.87	15461.58
701.00	15569.24
701.13	14993.47
701.26	15344.55
701.40	15002.83
701.53	14864.74
701.66	14988.79
701.79	14972.41
701.93	14829.63
702.06	14787.50
702.19	14815.59
702.32	14754.74
702.46	14279.61
702.59	14551.11
702.72	14324.08
702.85	14501.96
702.99	14377.91
703.12	14478.55
703.25	14310.04
703.38	13858.31
703.51	13806.82
703.65	13968.32
703.78	14078.32
703.91	14045.55
704.04	13741.29
704.17	13881.72
704.31	13802.14
704.44	13631.28
704.57	13736.60
704.70	13448.72
704.83	13518.93
704.96	13734.26
705.10	13495.53
705.23	13429.99
>>>>>End Processed Spectral Data<<<<<
