SpectraSuite Data File
++++++++++++++++++++++++++++++++++++
Date: Fri Oct 25 10:44:19 EDT 2013
User: price-jones
Dark Spectrum Present: No
Reference Spectrum Present: No
Number of Sampled Component Spectra: 1
Spectrometers: USB2+H05261
Integration Time (usec): 100000 (USB2+H05261)
Spectra Averaged: 1 (USB2+H05261)
Boxcar Smoothing: 0 (USB2+H05261)
Correct for Electrical Dark: No (USB2+H05261)
Strobe/Lamp Enabled: No (USB2+H05261)
Correct for Detector Non-linearity: No (USB2+H05261)
Correct for Stray Light: No (USB2+H05261)
Number of Pixels in Processed Spectrum: 2048
>>>>>Begin Processed Spectral Data<<<<<
365.73	145.11
365.92	145.11
366.12	145.11
366.32	9.36
366.52	28.09
366.72	30.43
366.91	46.81
367.11	0.00
367.31	28.09
367.51	44.47
367.70	35.11
367.90	0.00
368.10	0.00
368.30	25.75
368.49	0.00
368.69	46.81
368.89	44.47
369.09	81.92
369.28	102.98
369.48	56.17
369.68	60.85
369.87	32.77
370.07	88.94
370.27	128.73
370.47	177.88
370.66	360.44
370.86	402.57
371.06	465.77
371.25	388.53
371.45	489.17
371.65	435.34
371.84	451.72
372.04	517.26
372.24	543.00
372.44	503.22
372.63	475.13
372.83	489.17
373.03	526.62
373.22	554.71
373.42	550.03
373.62	578.11
373.81	524.28
374.01	559.39
374.21	531.30
374.40	601.52
374.60	528.96
374.79	550.03
374.99	599.18
375.19	589.82
375.38	669.39
375.58	592.16
375.78	648.33
375.97	660.03
376.17	669.39
376.37	671.73
376.56	657.69
376.76	531.30
376.95	678.76
377.15	638.97
377.35	603.86
377.54	671.73
377.74	615.56
377.93	636.63
378.13	592.16
378.33	683.44
378.52	695.14
378.72	697.48
378.91	655.35
379.11	723.23
379.31	655.35
379.50	716.20
379.70	709.18
379.89	751.31
380.09	774.72
380.28	671.73
380.48	746.63
380.68	802.80
380.87	739.61
381.07	685.78
381.26	795.78
381.46	751.31
381.65	685.78
381.85	648.33
382.04	746.63
382.24	772.38
382.43	758.33
382.63	674.07
382.83	844.93
383.02	716.20
383.22	784.08
383.41	784.08
383.61	737.27
383.80	734.93
384.00	793.44
384.19	730.25
384.39	802.80
384.58	772.38
384.78	847.27
384.97	812.17
385.17	732.59
385.36	777.06
385.56	727.91
385.75	828.55
385.95	802.80
386.14	821.53
386.34	748.97
386.53	880.04
386.72	849.61
386.92	802.80
387.11	891.74
387.31	929.19
387.50	889.40
387.70	908.13
387.89	884.72
388.09	915.15
388.28	964.30
388.48	1027.50
388.67	959.62
388.86	915.15
389.06	964.30
389.25	936.21
389.45	940.90
389.64	971.32
389.84	898.77
390.03	976.00
390.22	1041.54
390.42	1004.09
390.61	1081.33
390.81	1020.47
391.00	1060.26
391.19	992.39
391.39	1036.86
391.58	1128.14
391.78	1118.78
391.97	1013.45
392.16	1018.13
392.36	1022.81
392.55	971.32
392.75	1090.69
392.94	985.37
393.13	985.37
393.33	1011.11
393.52	1036.86
393.71	1139.84
393.91	1067.28
394.10	1130.48
394.29	1226.44
394.49	1221.76
394.68	1331.76
394.88	1291.98
395.07	1249.85
395.26	1242.82
395.46	1268.57
395.65	1205.38
395.84	1153.88
396.04	1291.98
396.23	1196.01
396.42	1226.44
396.62	1212.40
396.81	1224.10
397.00	1320.06
397.19	1266.23
397.39	1261.55
397.58	1458.15
397.77	1399.64
397.97	1451.13
398.16	1441.77
398.35	1467.52
398.55	1561.14
398.74	1523.69
398.93	1514.33
399.12	1556.46
399.32	1547.09
399.51	1589.22
399.70	1514.33
399.90	1619.65
400.09	1600.93
400.28	1568.16
400.47	1675.82
400.67	1722.63
400.86	1685.19
401.05	1729.66
401.24	1792.85
401.44	1748.38
401.63	1680.50
401.82	1849.02
402.01	1741.36
402.21	1797.53
402.40	1795.19
402.59	1743.70
402.78	1790.51
402.97	1785.83
403.17	1860.73
403.36	1909.88
403.55	1870.09
403.74	1898.17
403.93	1926.26
404.13	1806.89
404.32	1928.60
404.51	1975.41
404.70	1998.82
404.89	1987.11
405.09	2052.65
405.28	1966.05
405.47	1952.01
405.66	2062.01
405.85	1937.96
406.05	1942.64
406.24	2092.44
406.43	2073.71
406.62	2134.57
406.81	2148.61
407.00	2097.12
407.20	2132.23
407.39	2251.60
407.58	2101.80
407.77	2230.53
407.96	2310.11
408.15	2157.97
408.34	2298.41
408.54	2349.90
408.73	2356.92
408.92	2356.92
409.11	2345.22
409.30	2328.83
409.49	2230.53
409.68	2260.96
409.87	2375.64
410.07	2347.56
410.26	2476.29
410.45	2523.10
410.64	2520.76
410.83	2499.69
411.02	2583.95
411.21	2691.62
411.40	2621.40
411.59	2628.42
411.78	2747.79
411.98	2708.00
412.17	2775.88
412.36	2642.46
412.55	2710.34
412.74	2782.90
412.93	2815.66
413.12	2738.43
413.31	2949.08
413.50	2925.67
413.69	2932.69
413.88	3002.91
414.07	2899.92
414.26	3038.02
414.45	2977.16
414.64	3103.55
414.83	3047.38
415.02	3129.30
415.22	3133.98
415.41	3176.11
415.60	3215.90
415.79	3253.34
415.98	3349.31
416.17	3363.35
416.36	3265.05
416.55	3342.28
416.74	3414.84
416.93	3253.34
417.12	3386.76
417.31	3403.14
417.50	3522.51
417.69	3609.11
417.88	3503.78
418.07	3562.30
418.26	3552.93
418.45	3508.46
418.64	3632.51
418.83	3630.17
419.02	3571.66
419.21	3679.32
419.39	3705.07
419.58	3604.42
419.77	3681.66
419.96	3723.79
420.15	3763.58
420.34	3733.15
420.53	3810.39
420.72	3927.42
420.91	3901.67
421.10	3925.08
421.29	4018.70
421.48	3852.52
421.67	4025.72
421.86	3920.40
422.05	3957.85
422.24	3985.93
422.43	3819.75
422.61	3950.82
422.80	3955.51
422.99	4074.87
423.18	4014.02
423.37	4070.19
423.56	3918.06
423.75	4131.05
423.94	3925.08
424.13	3672.30
424.32	3709.75
424.50	4035.08
424.69	4205.94
424.88	4053.81
425.07	4046.79
425.26	3967.21
425.45	4007.00
425.64	3997.64
425.83	4081.89
426.01	4236.37
426.20	4245.73
426.39	4044.45
426.58	4107.64
426.77	3992.95
426.96	4198.92
427.15	3997.64
427.33	4102.96
427.52	4236.37
427.71	4112.32
427.90	4219.99
428.09	4198.92
428.28	4280.84
428.46	4332.33
428.65	4308.93
428.84	4236.37
429.03	4278.50
429.22	4095.94
429.40	4222.33
429.59	4166.15
429.78	3974.23
429.97	3852.52
430.16	4107.64
430.34	4117.00
430.53	4119.34
430.72	4339.35
430.91	4327.65
431.10	4496.17
431.28	4575.75
431.47	4664.69
431.66	4870.65
431.85	4643.62
432.03	4676.39
432.22	4784.06
432.41	4711.50
432.60	4814.48
432.79	4648.30
432.97	4793.42
433.16	4936.19
433.35	4669.37
433.54	4858.95
433.72	4851.93
433.91	4863.63
434.10	4926.83
434.28	4758.31
434.47	4875.34
434.66	4987.68
434.85	5125.77
435.03	5167.90
435.22	5004.07
435.41	5238.12
435.59	5181.95
435.78	5123.43
435.97	5331.74
436.16	5334.08
436.34	5275.57
436.53	5177.26
436.72	5537.71
436.90	5125.77
437.09	5219.39
437.28	5163.22
437.46	5266.21
437.65	5245.14
437.84	5224.08
438.02	5252.16
438.21	5301.31
438.40	5224.08
438.58	5493.24
438.77	5500.26
438.96	5488.56
439.14	5631.33
439.33	5891.13
439.52	5743.67
439.70	5757.72
439.89	5849.00
440.08	5888.79
440.26	5753.04
440.45	5930.92
440.63	5984.75
440.82	6291.36
441.01	6097.10
441.19	5944.96
441.38	6253.91
441.57	6045.60
441.75	6326.47
441.94	6286.68
442.12	6319.45
442.31	6434.13
442.50	6296.04
442.68	6324.13
442.87	6406.05
443.05	6321.79
443.24	6710.32
443.43	6551.16
443.61	6654.14
443.80	6764.15
443.98	6457.54
444.17	6359.24
444.35	6691.59
444.54	6768.83
444.73	6565.20
444.91	6541.80
445.10	6700.95
445.28	6565.20
445.47	6569.88
445.65	6717.34
445.84	6569.88
446.02	6600.31
446.21	6621.38
446.39	6789.89
446.58	6832.02
446.77	6766.49
446.95	6745.42
447.14	6956.07
447.32	6757.13
447.51	6839.05
447.69	6923.30
447.88	6857.77
448.06	6740.74
448.25	6857.77
448.43	6799.26
448.62	6848.41
448.80	6815.64
448.99	7075.44
449.17	6963.09
449.36	6822.66
449.54	7026.29
449.73	7229.91
449.91	7272.04
450.10	7335.24
450.28	7349.28
450.46	7382.05
450.65	7279.07
450.83	7365.67
451.02	7370.35
451.20	7433.54
451.39	7220.55
451.57	7445.24
451.76	7370.35
451.94	7424.18
452.13	7705.04
452.31	7412.48
452.49	7206.51
452.68	7454.61
452.86	7412.48
453.05	7396.09
453.23	7602.06
453.42	7419.50
453.60	7485.03
453.78	7524.82
453.97	7545.89
454.15	7641.85
454.34	7606.74
454.52	7700.36
454.70	7555.25
454.89	7756.54
455.07	7660.57
455.26	7763.56
455.44	7815.05
455.62	7829.09
455.81	7911.01
455.99	7887.61
456.17	8231.66
456.36	8063.15
456.54	8245.71
456.73	8184.85
456.91	8444.65
457.09	8187.19
457.28	8344.01
457.46	8116.98
457.64	8215.28
457.83	8077.19
458.01	8327.63
458.19	8320.60
458.38	8264.43
458.56	8402.52
458.74	8367.42
458.93	8463.38
459.11	8315.92
459.29	8470.40
459.48	8582.74
459.66	8659.98
459.84	8549.98
460.03	8805.10
460.21	8741.90
460.39	8493.80
460.57	8784.03
460.76	8571.04
460.94	8826.16
461.12	8961.91
461.31	8830.84
461.49	8872.97
461.67	8884.67
461.85	8947.87
462.04	8856.59
462.22	9245.12
462.40	9364.48
462.59	9158.52
462.77	9179.58
462.95	8929.14
463.13	9165.54
463.32	9247.46
463.50	9149.15
463.68	9305.97
463.86	9210.01
464.05	9046.17
464.23	9184.26
464.41	9207.67
464.59	9083.62
464.78	9401.93
464.96	9259.16
465.14	9198.31
465.32	9425.34
465.50	9404.27
465.69	9724.93
465.87	9373.85
466.05	9619.60
466.23	9577.47
466.41	9320.01
466.60	9654.71
466.78	9291.93
466.96	9486.19
467.14	9467.47
467.32	9584.49
467.51	9659.39
467.69	9710.88
467.87	9521.30
468.05	9820.89
468.23	9540.02
468.41	9600.88
468.60	9701.52
468.78	9694.50
468.96	9753.01
469.14	9802.16
469.32	10139.20
469.50	9745.99
469.69	9790.46
469.87	10073.67
470.05	9956.64
470.23	9909.83
470.41	10071.33
470.59	10246.87
470.77	10293.68
470.95	10181.33
471.14	10384.96
471.32	10188.35
471.50	10567.52
471.68	10462.19
471.86	10452.83
472.04	10548.79
472.22	10857.75
472.40	10459.85
472.58	10616.67
472.77	10778.17
472.95	10663.48
473.13	11056.69
473.31	10780.51
473.49	10719.65
473.67	10953.71
473.85	10867.11
474.03	11061.37
474.21	11080.10
474.39	11255.64
474.57	11154.99
474.75	11283.72
474.93	11438.20
475.12	11400.75
475.30	11569.27
475.48	11510.75
475.66	11524.80
475.84	11318.83
476.02	11613.74
476.20	11817.36
476.38	11871.20
476.56	12346.33
476.74	11927.37
476.92	12095.89
477.10	12327.60
477.28	12252.70
477.46	12468.03
477.64	12512.50
477.82	12556.97
478.00	12816.77
478.18	12748.90
478.36	12695.07
478.54	12905.71
478.72	12870.61
478.90	13167.85
479.08	13355.10
479.26	13303.60
479.44	13308.29
479.62	13476.80
479.80	13514.25
479.98	13645.32
480.16	13905.12
480.34	13919.17
480.52	13923.85
480.70	13870.01
480.88	14106.41
481.06	14420.04
481.24	14094.71
481.41	14656.43
481.59	14953.68
481.77	14829.63
481.95	14626.01
482.13	15035.60
482.31	14644.73
482.49	15197.10
482.67	15164.33
482.85	15255.61
483.03	15501.37
483.21	15459.24
483.39	15850.11
483.57	15964.79
483.74	15815.00
483.92	16226.93
484.10	15618.39
484.28	16130.97
484.46	16439.92
484.64	16498.44
484.82	16299.49
485.00	16456.31
485.18	16479.71
485.35	16849.52
485.53	16285.45
485.71	16388.43
485.89	16650.57
486.07	16718.45
486.25	16812.07
486.43	17172.51
486.61	17336.35
486.78	17551.68
486.96	17767.01
487.14	18274.90
487.32	18230.43
487.50	18218.73
487.68	18221.07
487.85	18750.03
488.03	18527.68
488.21	18838.97
488.39	19110.47
488.57	18740.67
488.75	19070.68
488.92	19506.02
489.10	19616.03
489.28	19700.29
489.46	20130.95
489.64	20308.83
489.81	20446.92
489.99	20409.47
490.17	20615.44
490.35	21144.40
490.53	20922.05
490.70	20893.96
490.88	20903.32
491.06	21062.48
491.24	20889.28
491.41	21280.15
491.59	21214.62
491.77	21254.40
491.95	21553.99
492.13	21436.97
492.30	22291.26
492.48	21869.97
492.66	22237.43
492.84	22146.15
493.01	22195.30
493.19	22434.03
493.37	22602.55
493.54	22658.73
493.72	22750.01
493.90	23007.47
494.08	23400.68
494.25	23592.60
494.43	23473.23
494.61	24027.94
494.79	24070.07
494.96	23913.25
495.14	23917.93
495.32	24079.43
495.49	24065.39
495.67	24379.02
495.85	24528.81
496.02	24418.81
496.20	24584.99
496.38	25195.87
496.55	24849.47
496.73	25600.78
496.91	25369.07
497.09	25415.88
497.26	25771.64
497.44	25619.50
497.62	25589.08
497.79	25848.88
497.97	25741.21
498.14	25893.35
498.32	26181.23
498.50	26010.37
498.67	26455.08
498.85	26529.97
499.03	26443.37
499.20	26955.95
499.38	26824.88
499.56	26759.34
499.73	26895.10
499.91	26845.94
500.08	27112.77
500.26	26682.11
500.44	27332.78
500.61	27236.81
500.79	27124.47
500.97	27424.06
501.14	27718.96
501.32	27594.92
501.49	27810.25
501.67	27395.97
501.84	28011.53
502.02	28020.89
502.20	28198.77
502.37	28194.09
502.55	28173.03
502.72	28601.35
502.90	28589.64
503.07	28163.67
503.25	28645.82
503.43	28947.75
503.60	28442.19
503.78	28613.05
503.95	28563.90
504.13	29172.44
504.30	29303.51
504.48	28994.56
504.65	29453.30
504.83	29401.81
505.01	29607.78
505.18	29455.64
505.36	29804.38
505.53	30221.00
505.71	30527.61
505.88	30342.70
506.06	30307.60
506.23	30050.14
506.41	29972.90
506.58	30546.33
506.76	30567.40
506.93	30625.91
507.11	30527.61
507.28	30710.17
507.46	30293.55
507.63	30738.26
507.81	31068.27
507.98	30448.03
508.16	30974.65
508.33	31208.70
508.50	31250.83
508.68	31285.94
508.85	31644.04
509.03	31302.32
509.20	31688.51
509.38	31529.36
509.55	31981.08
509.73	31655.75
509.90	32060.66
510.08	31805.54
510.25	32009.17
510.42	32484.30
510.60	32116.83
510.77	32393.01
510.95	32547.49
511.12	32739.41
511.30	32659.84
511.47	33233.27
511.64	33003.89
511.82	32903.25
511.99	32837.72
512.17	32788.56
512.34	32837.72
512.51	33226.24
512.69	33476.68
512.86	33450.94
513.04	33455.62
513.21	32954.74
513.38	33518.81
513.56	33933.09
513.73	33156.03
513.90	33839.47
514.08	33797.34
514.25	33780.95
514.43	33628.82
514.60	34026.71
514.77	33879.25
514.95	34033.73
515.12	33940.11
515.29	34141.39
515.47	34930.16
515.64	34602.48
515.81	34066.50
515.99	33909.68
516.16	34188.21
516.33	33961.17
516.51	34132.03
516.68	33673.29
516.85	33764.57
517.03	34099.26
517.20	34462.05
517.37	34944.20
517.54	34838.87
517.72	34700.78
517.89	34658.65
518.06	34377.79
518.24	34335.66
518.41	35026.12
518.58	35154.85
518.75	35049.52
518.93	35412.31
519.10	35314.00
519.27	35564.44
519.45	35639.34
519.62	35896.80
519.79	35852.33
519.96	35697.85
520.14	35784.45
520.31	35878.07
520.48	36004.46
520.65	36030.21
520.83	36627.04
521.00	36484.27
521.17	36378.95
521.34	36774.50
521.52	36809.61
521.69	36704.28
521.86	36947.70
522.03	36999.19
522.20	37001.53
522.38	36996.85
522.55	37116.22
522.72	36790.88
522.89	37181.75
523.07	37654.54
523.24	36767.48
523.41	37514.11
523.58	37116.22
523.75	37507.08
523.92	37783.27
524.10	37919.02
524.27	37890.93
524.44	37844.12
524.61	38157.75
524.78	38548.62
524.96	38447.98
525.13	38316.91
525.30	38415.21
525.47	38789.70
525.64	38429.26
525.81	38209.25
525.98	38218.61
526.16	38052.43
526.33	37773.91
526.50	37968.17
526.67	37649.86
526.84	38162.43
527.01	37589.00
527.18	38555.64
527.36	38506.49
527.53	38890.34
527.70	39077.58
527.87	39264.83
528.04	38937.15
528.21	38941.83
528.38	39016.73
528.55	39407.60
528.72	39440.37
528.89	39906.13
529.07	39667.40
529.24	39014.39
529.41	39531.65
529.58	39220.36
529.75	39026.09
529.92	39786.77
530.09	39906.13
530.26	39702.51
530.43	40168.27
530.60	39297.59
530.77	40240.83
530.94	40507.65
531.11	40552.12
531.28	40018.48
531.46	40390.62
531.63	40187.00
531.80	40226.79
531.97	39852.30
532.14	39966.99
532.31	39779.74
532.48	40023.16
532.65	40126.14
532.82	40266.58
532.99	40540.42
533.16	40044.23
533.33	40545.10
533.50	40598.93
533.67	40730.00
533.84	40369.56
534.01	40987.46
534.18	40942.99
534.35	41031.93
534.52	40652.76
534.69	40584.89
534.86	41031.93
535.03	40790.86
535.20	41385.35
535.37	41677.92
535.54	41464.93
535.71	41553.87
535.88	41085.76
536.05	41343.22
536.22	41865.16
536.38	41448.55
536.55	41514.08
536.72	41593.66
536.89	41904.95
537.06	41577.28
537.23	41659.20
537.40	41228.54
537.57	41703.67
537.74	41694.30
537.91	42136.66
538.08	42270.08
538.25	41986.87
538.42	42017.30
538.59	41785.58
538.75	41378.33
538.92	41977.51
539.09	42183.48
539.26	41900.27
539.43	41965.81
539.60	41872.18
539.77	41628.77
539.94	42204.54
540.11	41853.46
540.28	42251.35
540.44	41860.48
540.61	41991.55
540.78	41921.34
540.95	41904.95
541.12	42195.18
541.29	42059.43
541.46	42277.10
541.62	42871.59
541.79	42396.46
541.96	42162.41
542.13	42670.31
542.30	42487.74
542.47	42749.88
542.63	42937.13
542.80	42848.19
542.97	43206.29
543.14	43335.02
543.31	43152.46
543.48	43189.91
543.64	43910.79
543.81	43269.48
543.98	43335.02
544.15	43529.28
544.32	43686.10
544.48	43835.89
544.65	43976.33
544.82	43791.42
544.99	43414.60
545.16	43512.90
545.32	43463.75
545.49	43608.86
545.66	43667.37
545.83	43653.33
546.00	44046.54
546.16	43990.37
546.33	43597.16
546.50	43239.06
546.67	44165.91
546.83	43686.10
547.00	44060.58
547.17	43812.49
547.34	43688.44
547.50	43849.94
547.67	44411.67
547.84	43892.07
548.00	44053.56
548.17	44432.73
548.34	44041.86
548.51	44439.75
548.67	44254.85
548.84	44755.72
549.01	44201.02
549.18	44594.23
549.34	44121.44
549.51	44488.90
549.68	44828.28
549.84	44554.44
550.01	44257.19
550.18	44837.64
550.34	44718.28
550.51	44704.23
550.68	44549.76
550.84	44112.08
551.01	44737.00
551.18	44875.09
551.34	44800.19
551.51	44793.17
551.68	44877.43
551.84	44788.49
552.01	45160.64
552.18	44957.01
552.34	44987.44
552.51	45237.87
552.68	44839.98
552.84	45153.62
553.01	45272.98
553.18	45198.09
553.34	44987.44
553.51	44683.17
553.67	45298.73
553.84	45219.15
554.01	44954.67
554.17	45570.23
554.34	45591.30
554.51	45441.50
554.67	45862.80
554.84	45546.82
555.00	45270.64
555.17	45193.40
555.33	45504.70
555.50	45806.62
555.67	45528.10
555.83	45261.28
556.00	45638.11
556.16	45858.12
556.33	45453.20
556.50	45914.29
556.66	45507.04
556.83	45141.91
556.99	45841.73
557.16	45556.19
557.32	45865.14
557.49	45762.15
557.65	45453.20
557.82	45940.04
557.98	45684.92
558.15	45614.70
558.32	45338.52
558.48	45614.70
558.65	45858.12
558.81	45361.92
558.98	45610.02
559.14	45743.43
559.31	45481.29
559.47	46078.13
559.64	45624.06
559.80	46122.60
559.97	46061.74
560.13	45804.28
560.30	45401.71
560.46	45818.33
560.63	46298.14
560.79	46096.85
560.96	46305.16
561.12	46265.37
561.29	45867.48
561.45	46197.49
561.61	45844.07
561.78	45954.08
561.94	45771.52
562.11	46129.62
562.27	46075.79
562.44	46358.99
562.60	46557.94
562.77	46213.88
562.93	46412.82
563.10	46314.52
563.26	45874.50
563.42	45947.06
563.59	45844.07
563.75	45902.59
563.92	46461.97
564.08	46192.81
564.24	46412.82
564.41	46216.22
564.57	46082.81
564.74	46302.82
564.90	46366.01
565.07	46096.85
565.23	46064.08
565.39	46099.19
565.56	46150.68
565.72	45949.40
565.88	46340.27
566.05	45940.04
566.21	45855.78
566.38	46162.39
566.54	46714.75
566.70	46815.40
566.87	46583.68
567.03	46553.26
567.19	46646.88
567.36	46705.39
567.52	46548.57
567.68	46433.89
567.85	46405.80
568.01	46520.49
568.17	46412.82
568.34	46195.15
568.50	46380.06
568.66	46178.77
568.83	46691.35
568.99	45937.69
569.15	46064.08
569.32	46108.55
569.48	45780.88
569.64	46539.21
569.81	46267.71
569.97	46454.95
570.13	46639.86
570.30	46436.23
570.46	46387.08
570.62	45951.74
570.78	46211.54
570.95	46115.58
571.11	46253.67
571.27	46309.84
571.43	46525.17
571.60	46153.02
571.76	46550.91
571.92	46354.31
572.09	46546.23
572.25	46553.26
572.41	46693.69
572.57	46962.85
572.74	47004.98
572.90	46529.85
573.06	46719.43
573.22	46560.28
573.38	46579.00
573.55	46153.02
573.71	46522.83
573.87	46497.08
574.03	46731.14
574.20	46340.27
574.36	46616.45
574.52	46803.69
574.68	46511.13
574.84	46611.77
575.01	46897.31
575.17	46616.45
575.33	46225.58
575.49	46181.11
575.65	46593.04
575.82	46536.87
575.98	46068.76
576.14	46646.88
576.30	47070.51
576.46	46941.78
576.62	46548.57
576.79	47056.47
576.95	46220.90
577.11	46202.18
577.27	46829.44
577.43	46672.62
577.59	46815.40
577.75	46375.37
577.92	45996.21
578.08	46225.58
578.24	46354.31
578.40	46227.92
578.56	46380.06
578.72	46941.78
578.88	46794.33
579.04	46724.11
579.21	46459.63
579.37	47114.98
579.53	46471.34
579.69	46279.41
579.85	46728.80
580.01	46646.88
580.17	46476.02
580.33	47164.14
580.49	46433.89
580.65	46759.22
580.82	46625.81
580.98	46916.04
581.14	46555.60
581.30	46770.93
581.46	46794.33
581.62	46913.70
581.78	46649.22
581.94	46665.60
582.10	46845.82
582.26	46667.94
582.42	46782.63
582.58	46857.52
582.74	46529.85
582.90	46890.29
583.06	46969.87
583.22	46859.87
583.38	47079.88
583.54	47042.43
583.70	46906.68
583.86	46899.65
584.02	46644.54
584.18	46454.95
584.34	46815.40
584.50	46869.23
584.66	46520.49
584.82	46703.05
584.98	47014.34
585.14	47456.70
585.30	46700.71
585.46	46686.67
585.62	46700.71
585.78	46866.89
585.94	46665.60
586.10	47098.60
586.26	46541.55
586.42	47044.77
586.58	47185.20
586.74	46630.49
586.90	46759.22
587.06	46366.01
587.22	46679.64
587.38	46597.73
587.54	46766.24
587.70	46534.53
587.86	47105.62
588.02	46574.32
588.18	46602.41
588.34	46473.68
588.49	46696.03
588.65	45895.56
588.81	45996.21
588.97	46478.36
589.13	46281.75
589.29	46618.79
589.45	46471.34
589.61	46721.77
589.77	46852.84
589.93	46944.12
590.08	46759.22
590.24	46806.03
590.40	46869.23
590.56	46962.85
590.72	46866.89
590.88	46880.93
591.04	47159.45
591.20	47072.85
591.35	46974.55
591.51	46979.23
591.67	46478.36
591.83	46979.23
591.99	47051.79
592.15	46885.61
592.31	46808.37
592.46	46990.94
592.62	47093.92
592.78	47049.45
592.94	47222.65
593.10	47044.77
593.26	47295.21
593.41	47016.68
593.57	46677.30
593.73	46749.86
593.89	46911.36
594.05	46803.69
594.20	46869.23
594.36	47110.30
594.52	46614.11
594.68	47063.49
594.84	46724.11
594.99	47065.83
595.15	46794.33
595.31	47061.15
595.47	46775.61
595.62	47196.90
595.78	46878.59
595.94	47150.09
596.10	47168.82
596.25	47107.96
596.41	46946.47
596.57	47232.01
596.73	47540.96
596.88	46602.41
597.04	46960.51
597.20	46810.71
597.36	47014.34
597.51	47313.93
597.67	47157.11
597.83	47189.88
597.99	47224.99
598.14	47110.30
598.30	47173.50
598.46	46932.42
598.61	46951.15
598.77	46806.03
598.93	46581.34
599.09	46787.31
599.24	47150.09
599.40	47452.02
599.56	47021.36
599.71	46939.44
599.87	47004.98
600.03	47192.22
600.18	47157.11
600.34	46951.15
600.50	47012.00
600.65	46721.77
600.81	47346.70
600.97	46941.78
601.12	46941.78
601.28	46791.99
601.44	46745.18
601.59	46834.12
601.75	46728.80
601.91	46476.02
602.06	46997.96
602.22	47360.74
602.37	46784.97
602.53	46848.16
602.69	46953.49
602.84	46616.45
603.00	46621.13
603.16	46738.16
603.31	47154.77
603.47	46726.46
603.62	46674.96
603.78	46976.89
603.94	46747.52
604.09	46967.53
604.25	46904.34
604.40	46670.28
604.56	46773.27
604.71	46813.05
604.87	46539.21
605.03	46429.21
605.18	46220.90
605.34	46866.89
605.49	46281.75
605.65	46583.68
605.80	46593.04
605.96	46590.70
606.12	46770.93
606.27	46932.42
606.43	46827.10
606.58	46660.92
606.74	46684.33
606.89	46424.53
607.05	46810.71
607.20	47007.32
607.36	46653.90
607.51	46674.96
607.67	46925.40
607.82	46307.50
607.98	46684.33
608.13	46658.58
608.29	46377.72
608.44	45911.95
608.60	46277.07
608.75	46143.66
608.91	46408.14
609.06	46106.21
609.22	46380.06
609.37	46316.86
609.53	46555.60
609.68	45876.84
609.84	46190.47
609.99	46522.83
610.15	45666.19
610.30	46146.00
610.46	46293.46
610.61	46185.79
610.76	45897.91
610.92	46707.73
611.07	46377.72
611.23	46483.04
611.38	45762.15
611.54	45642.79
611.69	46136.64
611.84	45876.84
612.00	46021.95
612.15	45846.41
612.31	46110.89
612.46	46096.85
612.62	45830.03
612.77	46298.14
612.92	46174.09
613.08	45942.38
613.23	46075.79
613.39	46138.98
613.54	45345.54
613.69	45598.32
613.85	45586.61
614.00	46129.62
614.15	45631.08
614.31	45577.25
614.46	46115.58
614.62	45581.93
614.77	45457.88
614.92	45984.51
615.08	45848.75
615.23	45418.10
615.38	45436.82
615.54	45242.56
615.69	45193.40
615.84	45205.11
616.00	45450.86
616.15	45408.73
616.30	45144.25
616.46	45352.56
616.61	45200.43
616.76	45282.34
616.92	45062.33
617.07	44938.29
617.22	44870.41
617.37	44472.52
617.53	44858.71
617.68	45235.53
617.83	45397.03
617.99	45720.02
618.14	45338.52
618.29	45649.81
618.45	45265.96
618.60	44889.13
618.75	44666.78
618.90	44928.92
619.06	45272.98
619.21	44933.60
619.36	45457.88
619.51	45141.91
619.67	45013.18
619.82	44924.24
619.97	45230.85
620.12	44512.31
620.28	44601.25
620.43	44795.51
620.58	44821.26
620.73	44641.04
620.89	44708.91
621.04	44509.97
621.19	44737.00
621.34	44942.97
621.49	44126.12
621.65	44294.64
621.80	44619.97
621.95	44835.30
622.10	44978.07
622.25	43955.26
622.41	44245.49
622.56	44385.92
622.71	44706.57
622.86	44631.68
623.01	44690.19
623.16	44512.31
623.32	44130.80
623.47	44430.39
623.62	44481.88
623.77	44004.41
623.92	44332.09
624.07	44144.84
624.23	44067.61
624.38	44149.53
624.53	44088.67
624.68	43950.58
624.83	44130.80
624.98	44437.41
625.13	43536.30
625.29	43519.92
625.44	43606.52
625.59	43019.05
625.74	43700.14
625.89	43065.86
626.04	43627.59
626.19	43295.23
626.34	43555.03
626.49	44065.27
626.65	43697.80
626.80	43817.17
626.95	43487.15
627.10	43648.65
627.25	43047.13
627.40	43370.13
627.55	42916.06
627.70	43157.14
627.85	43070.54
628.00	43145.44
628.15	43021.39
628.30	43026.07
628.45	43117.35
628.60	43449.70
628.76	43372.47
628.91	43665.03
629.06	42653.92
629.21	42822.44
629.36	43054.15
629.51	42972.24
629.66	43459.07
629.81	42611.79
629.96	42738.18
630.11	43147.78
630.26	43412.26
630.41	43068.20
630.56	43030.75
630.71	43026.07
630.86	43007.34
631.01	41937.72
631.16	42457.32
631.31	42586.05
631.46	42344.97
631.61	42539.24
631.76	42305.18
631.91	41883.89
632.06	42387.10
632.21	42824.78
632.36	42656.26
632.51	42511.15
632.66	42422.21
632.81	41989.21
632.96	42492.43
633.10	42136.66
633.25	42576.69
633.40	42401.14
633.55	42220.92
633.70	42249.01
633.85	42021.98
634.00	41783.24
634.15	41825.37
634.30	41968.15
634.45	42274.76
634.60	42398.80
634.75	41947.08
634.90	41895.59
635.05	41993.89
635.19	41968.15
635.34	42199.86
635.49	41633.45
635.64	42157.73
635.79	41923.68
635.94	41628.77
636.09	41944.74
636.24	41748.14
636.39	41834.74
636.53	41525.78
636.68	41574.94
636.83	41556.21
636.98	41441.53
637.13	41265.99
637.28	41972.83
637.43	41738.77
637.57	41998.57
637.72	41937.72
637.87	41738.77
638.02	41563.23
638.17	41591.32
638.32	41596.00
638.46	41317.48
638.61	41298.75
638.76	41556.21
638.91	41586.64
639.06	41296.41
639.20	41607.70
639.35	41858.14
639.50	41509.40
639.65	41542.17
639.80	41504.72
639.94	40973.42
640.09	41029.59
640.24	41092.79
640.39	40154.23
640.54	40912.56
640.68	40907.88
640.83	40882.14
640.98	40692.55
641.13	40769.79
641.27	41373.65
641.42	41216.83
641.57	40584.89
641.72	40999.16
641.86	40591.91
642.01	40847.03
642.16	40620.00
642.31	40524.04
642.45	41120.87
642.60	40591.91
642.75	40629.36
642.90	40900.86
643.04	40807.24
643.19	40208.06
643.34	40339.13
643.48	40250.19
643.63	40364.88
643.78	40250.19
643.93	40652.76
644.07	40339.13
644.22	39847.62
644.37	40072.31
644.51	40226.79
644.66	40163.59
644.81	40416.37
644.95	40533.40
645.10	40671.49
645.25	40491.27
645.39	40058.27
645.54	40250.19
645.69	40175.30
645.83	40222.11
645.98	40502.97
646.13	40395.31
646.27	40187.00
646.42	39814.85
646.57	39999.76
646.71	39662.72
646.86	39859.32
647.00	39749.32
647.15	40065.29
647.30	39742.30
647.44	39379.51
647.59	39807.83
647.74	39349.09
647.88	39599.52
648.03	39517.60
648.17	39688.46
648.32	39583.14
648.47	39789.11
648.61	39433.35
648.76	39491.86
648.90	40002.10
649.05	39751.66
649.20	39281.21
649.34	39208.65
649.49	39222.70
649.63	39349.09
649.78	39337.38
649.92	39344.41
650.07	39414.62
650.21	39295.25
650.36	39461.43
650.51	39108.01
650.65	39810.17
650.80	39625.27
650.94	39627.61
651.09	39100.99
651.23	38576.71
651.38	38976.94
651.52	38995.67
651.67	38621.18
651.81	38658.63
651.96	38693.74
652.10	39089.29
652.25	38850.55
652.39	38749.91
652.54	38841.19
652.68	39098.65
652.83	38916.09
652.97	39143.12
653.12	39070.56
653.26	38621.18
653.41	39044.82
653.55	38403.51
653.70	38733.53
653.84	38735.87
653.99	38494.79
654.13	38550.96
654.27	38204.56
654.42	38080.52
654.56	38391.81
654.71	38583.73
654.85	38433.94
655.00	38328.61
655.14	38316.91
655.29	38174.14
655.43	38522.88
655.57	37895.61
655.72	37963.49
655.86	37258.99
656.01	37689.65
656.15	37748.16
656.30	37942.42
656.44	37907.32
656.58	37890.93
656.73	37696.67
656.87	37991.58
657.01	37968.17
657.16	37933.06
657.30	37558.58
657.45	37401.76
657.59	37659.22
657.73	37762.20
657.88	38078.18
658.02	37883.91
658.16	38115.62
658.31	38197.54
658.45	37553.90
658.60	37469.64
658.74	37565.60
658.88	37336.23
659.03	37053.02
659.17	37577.30
659.31	37151.32
659.46	37600.71
659.60	37961.15
659.74	37326.86
659.89	37277.71
660.03	36800.24
660.17	36926.63
660.32	37317.50
660.46	37462.61
660.60	37015.57
660.74	36982.80
660.89	37109.19
661.03	36795.56
661.17	36371.92
661.32	36432.78
661.46	36556.83
661.60	36437.46
661.74	36528.74
661.89	36397.67
662.03	36568.53
662.17	36402.35
662.31	36142.55
662.46	36687.90
662.60	36828.33
662.74	36542.78
662.88	36320.43
663.03	36336.82
663.17	36240.86
663.31	35365.49
663.45	36313.41
663.60	36367.24
663.74	35625.29
663.88	35594.87
664.02	35704.87
664.17	35821.90
664.31	35419.33
664.45	35913.18
664.59	35716.58
664.73	35608.91
664.88	35620.61
665.02	35309.32
665.16	35585.50
665.30	35632.32
665.44	35215.70
665.59	34794.40
665.73	35246.13
665.87	35409.96
666.01	34927.81
666.15	34932.50
666.29	35063.57
666.44	35246.13
666.58	34951.22
666.72	34717.17
666.86	34843.56
667.00	34735.89
667.14	34230.33
667.28	34747.59
667.43	34476.09
667.57	34890.37
667.71	34972.28
667.85	34810.79
667.99	34242.04
668.13	34698.44
668.27	34464.39
668.41	34756.96
668.56	34363.75
668.70	34529.92
668.84	34218.63
668.98	33589.03
669.12	33596.05
669.26	33940.11
669.40	34106.29
669.54	33460.30
669.68	34246.72
669.82	33670.95
669.96	33626.48
670.10	33399.44
670.25	33724.78
670.39	33621.80
670.53	33511.79
670.67	33041.34
670.81	33692.01
670.95	33251.99
671.09	33177.09
671.23	33216.88
671.37	32886.87
671.51	33207.52
671.65	32790.91
671.79	32617.71
671.93	32603.66
672.07	32966.45
672.21	32673.88
672.35	32610.68
672.49	32432.80
672.63	32598.98
672.77	32582.60
672.91	32606.00
673.05	32334.50
673.19	32091.09
673.33	32261.94
673.47	32119.17
673.61	32346.20
673.75	31913.20
673.89	31814.90
674.03	31826.60
674.17	31604.25
674.31	31758.73
674.45	31386.58
674.59	31587.87
674.73	31512.97
674.87	31119.76
675.01	31283.60
675.15	31360.84
675.29	31271.90
675.43	31339.77
675.56	31309.35
675.70	31363.18
675.84	30625.91
675.98	30199.93
676.12	30658.68
676.26	30888.05
676.40	30792.09
676.54	30976.99
676.68	30675.06
676.82	29905.02
676.96	30417.60
677.10	30471.43
677.23	30455.05
677.37	30221.00
677.51	29858.21
677.65	29970.56
677.79	29518.84
677.93	29738.85
678.07	29242.65
678.21	29460.32
678.34	29184.14
678.48	28811.99
678.62	28982.85
678.76	28964.13
678.90	28664.54
679.04	28699.65
679.18	28821.36
679.31	28252.61
679.45	28648.16
679.59	28503.04
679.73	28477.30
679.87	28467.94
680.00	27857.06
680.14	28137.92
680.28	28016.21
680.42	28187.07
680.56	27821.95
680.70	27861.74
680.83	27807.90
680.97	28276.01
681.11	27864.08
681.25	27243.84
681.39	27374.91
681.52	27393.63
681.66	27339.80
681.80	27388.95
681.94	27246.18
682.07	27012.12
682.21	27040.21
682.35	27098.72
682.49	26820.20
682.62	27166.60
682.76	26536.99
682.90	26506.57
683.04	26209.32
683.17	26242.09
683.31	26309.96
683.45	26101.65
683.59	25874.62
683.72	25408.86
683.86	25853.56
684.00	25628.87
684.13	25956.54
684.27	25610.14
684.41	25738.87
684.55	25453.33
684.68	25287.15
684.82	25448.64
684.96	25303.53
685.09	25322.26
685.23	25130.33
685.37	25081.18
685.50	25032.03
685.64	24973.52
685.78	24680.95
685.91	24376.68
686.05	24460.94
686.19	24407.11
686.32	24479.66
686.46	23707.29
686.60	23494.30
686.73	23681.54
686.87	23522.38
687.01	23463.87
687.14	23325.78
687.28	23391.31
687.42	23632.39
687.55	23190.03
687.69	23447.49
687.82	23019.17
687.96	23365.57
688.10	23187.69
688.23	22902.14
688.37	22698.52
688.50	22824.90
688.64	22710.22
688.78	22920.87
688.91	22302.96
689.05	22735.96
689.18	22295.94
689.32	22403.61
689.46	22082.95
689.59	22085.30
689.73	22473.82
689.86	22181.26
690.00	21937.84
690.13	22221.05
690.27	21858.26
690.41	21673.36
690.54	21507.18
690.68	21235.68
690.81	21736.56
690.95	21345.69
691.08	21366.75
691.22	21378.45
691.35	21406.54
691.49	21219.30
691.62	21401.86
691.76	21034.39
691.89	20828.43
692.03	20788.64
692.16	20795.66
692.30	20535.86
692.43	20631.82
692.57	20533.52
692.70	20606.08
692.84	20451.60
692.97	20278.40
693.11	20154.35
693.24	20273.72
693.38	19988.18
693.51	19723.69
693.65	20292.44
693.78	20112.22
693.92	19969.45
694.05	19639.44
694.19	19639.44
694.32	19344.53
694.45	19278.99
694.59	19143.24
694.72	19370.27
694.86	19070.68
694.99	18948.98
695.13	18970.04
695.26	18988.77
695.39	18724.29
695.53	18801.52
695.66	19054.30
695.80	18609.60
695.93	18747.69
696.07	18466.83
696.20	18457.46
696.33	18696.20
696.47	18466.83
696.60	18349.80
696.73	18033.83
696.87	17902.76
697.00	18272.56
697.14	17972.97
697.27	17668.70
697.40	17886.37
697.54	17598.49
697.67	17343.37
697.80	17268.47
697.94	17401.88
698.07	17167.83
698.21	16837.81
698.34	17284.86
698.47	17135.06
698.61	16685.68
698.74	16795.68
698.87	16493.76
699.01	16421.20
699.14	16510.14
699.27	16601.42
699.40	16666.95
699.54	16489.07
699.67	16514.82
699.80	16423.54
699.94	16367.37
700.07	16180.12
700.20	16140.33
700.34	15838.41
700.47	15920.32
700.60	16444.60
700.73	16360.34
700.87	15939.05
701.00	15770.53
701.13	15384.34
701.26	15726.06
701.40	15449.88
701.53	15428.81
701.66	15555.20
701.79	15456.90
701.93	15431.15
702.06	15103.48
702.19	15112.84
702.32	15040.28
702.46	15075.39
702.59	15035.60
702.72	15000.49
702.85	14923.26
702.99	14946.66
703.12	14806.23
703.25	14693.88
703.38	14579.20
703.51	14677.50
703.65	14480.89
703.78	14452.81
703.91	14497.28
704.04	14293.65
704.17	14300.67
704.31	14286.63
704.44	13977.68
704.57	14171.94
704.70	14064.28
704.83	13895.76
704.96	14031.51
705.10	14097.05
705.23	13584.47
>>>>>End Processed Spectral Data<<<<<
