SpectraSuite Data File
++++++++++++++++++++++++++++++++++++
Date: Fri Oct 25 10:48:18 EDT 2013
User: price-jones
Dark Spectrum Present: No
Reference Spectrum Present: No
Number of Sampled Component Spectra: 1
Spectrometers: USB2+H05261
Integration Time (usec): 100000 (USB2+H05261)
Spectra Averaged: 1 (USB2+H05261)
Boxcar Smoothing: 0 (USB2+H05261)
Correct for Electrical Dark: No (USB2+H05261)
Strobe/Lamp Enabled: No (USB2+H05261)
Correct for Detector Non-linearity: No (USB2+H05261)
Correct for Stray Light: No (USB2+H05261)
Number of Pixels in Processed Spectrum: 2048
>>>>>Begin Processed Spectral Data<<<<<
365.73	133.41
365.92	133.41
366.12	133.41
366.32	11.70
366.52	0.00
366.72	70.22
366.91	30.43
367.11	0.00
367.31	0.00
367.51	21.06
367.70	23.41
367.90	46.81
368.10	42.13
368.30	49.15
368.49	72.56
368.69	32.77
368.89	23.41
369.09	37.45
369.28	53.83
369.48	74.90
369.68	124.05
369.87	147.45
370.07	168.52
370.27	152.13
370.47	304.27
370.66	433.00
370.86	528.96
371.06	500.87
371.25	521.94
371.45	557.05
371.65	479.81
371.84	489.17
372.04	496.19
372.24	447.04
372.44	547.69
372.63	601.52
372.83	566.41
373.03	484.49
373.22	561.73
373.42	547.69
373.62	517.26
373.81	528.96
374.01	587.47
374.21	669.39
374.40	552.37
374.60	645.99
374.79	638.97
374.99	624.92
375.19	582.79
375.38	578.11
375.58	620.24
375.78	617.90
375.97	678.76
376.17	650.67
376.37	653.01
376.56	564.07
376.76	704.50
376.95	660.03
377.15	706.84
377.35	648.33
377.54	751.31
377.74	713.86
377.93	671.73
378.13	610.88
378.33	699.82
378.52	645.99
378.72	660.03
378.91	681.10
379.11	695.14
379.31	725.57
379.50	678.76
379.70	610.88
379.89	678.76
380.09	727.91
380.28	748.97
380.48	692.80
380.68	711.52
380.87	816.85
381.07	807.48
381.26	760.67
381.46	716.20
381.65	777.06
381.85	709.18
382.04	791.10
382.24	737.27
382.43	727.91
382.63	800.46
382.83	751.31
383.02	816.85
383.22	826.21
383.41	699.82
383.61	814.51
383.80	837.91
384.00	861.32
384.19	807.48
384.39	791.10
384.58	842.59
384.78	770.04
384.97	805.14
385.17	915.15
385.36	828.55
385.56	947.92
385.75	856.64
385.95	896.43
386.14	912.81
386.34	957.28
386.53	929.19
386.72	922.17
386.92	938.55
387.11	908.13
387.31	880.04
387.50	964.30
387.70	931.53
387.89	884.72
388.09	990.05
388.28	866.00
388.48	875.36
388.67	957.28
388.86	1001.75
389.06	1013.45
389.25	983.02
389.45	1034.52
389.64	999.41
389.84	1020.47
390.03	1074.31
390.22	1102.39
390.42	1046.22
390.61	1032.18
390.81	1039.20
391.00	1078.99
391.19	1153.88
391.39	1046.22
391.58	1020.47
391.78	1067.28
391.97	1062.60
392.16	1114.10
392.36	1114.10
392.55	1050.90
392.75	1135.16
392.94	1071.97
393.13	1025.15
393.33	1121.12
393.52	1107.07
393.71	1158.57
393.91	1158.57
394.10	1137.50
394.29	1280.27
394.49	1207.72
394.68	1205.38
394.88	1210.06
395.07	1296.66
395.26	1261.55
395.46	1294.32
395.65	1249.85
395.84	1329.42
396.04	1191.33
396.23	1221.76
396.42	1193.67
396.62	1184.31
396.81	1317.72
397.00	1245.16
397.19	1378.58
397.39	1376.24
397.58	1383.26
397.77	1528.37
397.97	1537.73
398.16	1528.37
398.35	1547.09
398.55	1409.00
398.74	1500.28
398.93	1577.52
399.12	1610.29
399.32	1533.05
399.51	1659.44
399.70	1657.10
399.90	1657.10
400.09	1645.40
400.28	1687.53
400.47	1739.02
400.67	1806.89
400.86	1673.48
401.05	1636.03
401.24	1774.13
401.44	1820.94
401.63	1837.32
401.82	1813.92
402.01	1778.81
402.21	1830.30
402.40	1907.54
402.59	1783.49
402.78	1884.13
402.97	1804.55
403.17	1930.94
403.36	1811.57
403.55	1977.75
403.74	1996.48
403.93	2033.93
404.13	1928.60
404.32	1989.46
404.51	1872.43
404.70	1987.11
404.89	2111.16
405.09	2120.53
405.28	2040.95
405.47	2059.67
405.66	2169.68
405.85	1991.80
406.05	2031.58
406.24	2099.46
406.43	2132.23
406.62	2183.72
406.81	2136.91
407.00	2148.61
407.20	2104.14
407.39	2090.10
407.58	2111.16
407.77	2265.64
407.96	2277.34
408.15	2207.13
408.34	2267.98
408.54	2338.20
408.73	2387.35
408.92	2307.77
409.11	2363.94
409.30	2452.88
409.49	2349.90
409.68	2422.45
409.87	2253.94
410.07	2525.44
410.26	2450.54
410.45	2551.18
410.64	2354.58
410.83	2548.84
411.02	2635.44
411.21	2799.28
411.40	2689.28
411.59	2698.64
411.78	2590.97
411.98	2635.44
412.17	2773.53
412.36	2670.55
412.55	2935.03
412.74	2834.39
412.93	2771.19
413.12	2813.32
413.31	2918.65
413.50	2834.39
413.69	3000.57
413.88	2937.37
414.07	3000.57
414.26	3204.19
414.45	3035.67
414.64	3059.08
414.83	3164.40
415.02	3166.74
415.22	3206.53
415.41	3274.41
415.60	3211.22
415.79	3391.44
415.98	3379.73
416.17	3288.45
416.36	3358.67
416.55	3258.03
416.74	3361.01
416.93	3358.67
417.12	3478.04
417.31	3417.18
417.50	3389.10
417.69	3403.14
417.88	3456.97
418.07	3466.33
418.26	3480.38
418.45	3581.02
418.64	3749.54
418.83	3777.62
419.02	3646.55
419.21	3653.58
419.39	3705.07
419.58	3588.04
419.77	3660.60
419.96	3805.71
420.15	3911.04
420.34	3782.31
420.53	4028.06
420.72	3946.14
420.91	3962.53
421.10	3857.20
421.29	4102.96
421.48	3911.04
421.67	3936.78
421.86	3852.52
422.05	3964.87
422.24	3836.14
422.43	3992.95
422.61	4098.28
422.80	4049.13
422.99	4070.19
423.18	4028.06
423.37	4049.13
423.56	4049.13
423.75	4180.20
423.94	3995.29
424.13	3801.03
424.32	3932.10
424.50	3899.33
424.69	4105.30
424.88	4046.79
425.07	3967.21
425.26	4081.89
425.45	4032.74
425.64	4154.45
425.83	4091.26
426.01	4074.87
426.20	4133.39
426.39	4191.90
426.58	4074.87
426.77	4007.00
426.96	4067.85
427.15	4142.75
427.33	4224.67
427.52	4063.17
427.71	4208.28
427.90	4191.90
428.09	4313.61
428.28	4376.80
428.46	4376.80
428.65	4311.27
428.84	4458.72
429.03	4395.53
429.22	4322.97
429.40	4271.48
429.59	4149.77
429.78	4135.73
429.97	4138.07
430.16	4236.37
430.34	4182.54
430.53	4217.65
430.72	4210.62
430.91	4348.72
431.10	4367.44
431.28	4643.62
431.47	4765.33
431.66	4723.20
431.85	4713.84
432.03	4840.23
432.22	4877.68
432.41	4767.67
432.60	4898.74
432.79	4940.87
432.97	4856.61
433.16	4983.00
433.35	4741.93
433.54	4896.40
433.72	4774.69
433.91	4865.97
434.10	5027.47
434.28	4985.34
434.47	4861.29
434.66	5041.51
434.85	5114.07
435.03	5093.01
435.22	5036.83
435.41	5263.86
435.59	5165.56
435.78	5233.44
435.97	5413.66
436.16	5385.57
436.34	5352.81
436.53	5249.82
436.72	5387.91
436.90	5320.04
437.09	5387.91
437.28	5245.14
437.46	5479.19
437.65	5380.89
437.84	5315.36
438.02	5317.70
438.21	5526.00
438.40	5240.46
438.58	5638.35
438.77	5476.85
438.96	5685.16
439.14	5547.07
439.33	5708.57
439.52	5776.44
439.70	5767.08
439.89	5851.34
440.08	5823.25
440.26	5994.11
440.45	5860.70
440.63	5956.66
440.82	6235.19
441.01	6214.12
441.19	6251.57
441.38	6441.15
441.57	6366.26
441.75	6258.59
441.94	6640.10
442.12	6705.63
442.31	6527.75
442.50	6604.99
442.68	6630.74
442.87	6590.95
443.05	6539.46
443.24	6572.22
443.43	6614.35
443.61	6761.81
443.80	6829.68
443.98	6623.72
444.17	6504.35
444.35	6642.44
444.54	6677.55
444.73	6839.05
444.91	6803.94
445.10	6661.16
445.28	6520.73
445.47	6546.48
445.65	6609.67
445.84	6712.66
446.02	6916.28
446.21	6710.32
446.39	6731.38
446.58	6778.19
446.77	6972.46
446.95	6705.63
447.14	6869.47
447.32	7084.80
447.51	6810.96
447.69	6698.61
447.88	6871.81
448.06	6757.13
448.25	6930.33
448.43	7009.90
448.62	6991.18
448.80	6939.69
448.99	7009.90
449.17	7222.89
449.36	7169.06
449.54	7040.33
449.73	7323.54
449.91	7459.29
450.10	7318.86
450.28	7482.69
450.46	7473.33
450.65	7562.27
450.83	7449.93
451.02	7452.27
451.20	7452.27
451.39	7534.18
451.57	7351.62
451.76	7400.77
451.94	7368.01
452.13	7576.31
452.31	7463.97
452.49	7562.27
452.68	7506.10
452.86	7272.04
453.05	7386.73
453.23	7648.87
453.42	7595.04
453.60	7449.93
453.78	7637.17
453.97	7667.60
454.15	7639.51
454.34	7623.12
454.52	7651.21
454.70	7761.22
454.89	7667.60
455.07	7597.38
455.26	7735.47
455.44	7885.26
455.62	7899.31
455.81	7868.88
455.99	8095.91
456.17	8131.02
456.36	7885.26
456.54	8201.24
456.73	8280.82
456.91	8393.16
457.09	8507.85
457.28	8514.87
457.46	8205.92
457.64	8311.24
457.83	8360.39
458.01	8320.60
458.19	8528.91
458.38	8332.31
458.56	8587.43
458.74	8667.00
458.93	8606.15
459.11	8451.67
459.29	8542.96
459.48	8636.58
459.66	8482.10
459.84	8711.47
460.03	8767.65
460.21	8730.20
460.39	8688.07
460.57	8847.22
460.76	8840.20
460.94	9015.74
461.12	8915.10
461.31	8898.72
461.49	8954.89
461.67	9001.70
461.85	9090.64
462.04	9006.38
462.22	9556.41
462.40	9184.26
462.59	9156.18
462.77	9100.00
462.95	9219.37
463.13	9277.88
463.32	9116.39
463.50	9217.03
463.68	9128.09
463.86	9200.65
464.05	9048.51
464.23	8985.32
464.41	9432.36
464.59	9071.92
464.78	9423.00
464.96	9373.85
465.14	9266.18
465.32	9352.78
465.50	9682.80
465.69	9617.26
465.87	9525.98
466.05	9364.48
466.23	9420.66
466.41	9458.10
466.60	9558.75
466.78	9430.02
466.96	9504.92
467.14	9600.88
467.32	9593.86
467.51	9888.76
467.69	9383.21
467.87	9724.93
468.05	9813.87
468.23	9745.99
468.41	9832.59
468.60	9811.53
468.78	9963.66
468.96	9745.99
469.14	9919.19
469.32	9947.28
469.50	9877.06
469.69	9963.66
469.87	9832.59
470.05	10347.51
470.23	10092.39
470.41	10064.30
470.59	10253.89
470.77	10097.07
470.95	10345.17
471.14	10406.02
471.32	10155.58
471.50	10546.45
471.68	10600.29
471.86	10485.60
472.04	10672.84
472.22	10661.14
472.40	10686.89
472.58	10691.57
472.77	10981.79
472.95	11023.92
473.13	11241.59
473.31	11110.52
473.49	10684.55
473.67	10773.49
473.85	11033.29
474.03	11213.51
474.21	11372.66
474.39	11494.37
474.57	11424.15
474.75	11613.74
474.93	11562.25
475.12	11262.66
475.30	11700.34
475.48	11562.25
475.66	11808.00
475.84	11548.20
476.02	11763.53
476.20	11845.45
476.38	11882.90
476.56	12189.51
476.74	12149.72
476.92	12231.64
477.10	12187.17
477.28	12390.80
477.46	12498.46
477.64	12564.00
477.82	12795.71
478.00	13078.91
478.18	12617.83
478.36	12819.11
478.54	12943.16
478.72	13277.86
478.90	13446.38
479.08	13483.83
479.26	13769.37
479.44	13792.78
479.62	13528.30
479.80	13570.43
479.98	13781.07
480.16	14434.08
480.34	13987.04
480.52	14331.10
480.70	14265.57
480.88	13940.23
481.06	14050.24
481.24	14277.27
481.41	14813.25
481.59	14597.92
481.77	14995.81
481.95	14792.19
482.13	15176.03
482.31	15101.14
482.49	15276.68
482.67	15154.97
482.85	15496.69
483.03	15679.25
483.21	15566.90
483.39	16058.42
483.57	15578.61
483.74	16170.76
483.92	16039.69
484.10	16039.69
484.28	16161.40
484.46	16870.58
484.64	16725.47
484.82	16556.95
485.00	16666.95
485.18	17046.12
485.35	17011.01
485.53	16746.53
485.71	16659.93
485.89	17181.87
486.07	16760.58
486.25	17102.29
486.43	17231.02
486.61	17455.72
486.78	17502.53
486.96	17928.50
487.14	18010.42
487.32	18209.37
487.50	18527.68
487.68	18855.36
487.85	19117.50
488.03	18899.83
488.21	19286.01
488.39	18782.80
488.57	19293.04
488.75	19225.16
488.92	19412.40
489.10	19688.59
489.28	19969.45
489.46	20170.74
489.64	20276.06
489.81	20589.69
489.99	20882.26
490.17	20964.18
490.35	20830.77
490.53	21018.01
490.70	20999.29
490.88	20814.38
491.06	21509.52
491.24	21383.13
491.41	21493.14
491.59	21425.26
491.77	21434.63
491.95	21930.82
492.13	22089.98
492.30	22192.96
492.48	22235.09
492.66	22567.45
492.84	22572.13
493.01	22906.82
493.19	22436.38
493.37	22904.48
493.54	23000.44
493.72	22941.93
493.90	23201.73
494.08	23541.11
494.25	23506.00
494.43	23843.04
494.61	23791.55
494.79	23967.09
494.96	24372.00
495.14	24187.10
495.32	24236.25
495.49	24350.93
495.67	24629.46
495.85	24737.12
496.02	24800.32
496.20	24816.70
496.38	25291.83
496.55	25214.59
496.73	25525.88
496.91	25628.87
497.09	25738.87
497.26	25729.51
497.44	25308.21
497.62	26033.78
497.79	25703.76
497.97	26038.46
498.14	26169.53
498.32	26141.44
498.50	26333.37
498.67	26817.86
498.85	27103.40
499.03	27042.55
499.20	26951.27
499.38	27005.10
499.56	26965.31
499.73	27402.99
499.91	27606.62
500.08	27351.50
500.26	27122.13
500.44	27662.79
500.61	27192.34
500.79	27283.62
500.97	27653.43
501.14	27777.48
501.32	27805.56
501.49	27971.74
501.67	28051.32
501.84	27639.39
502.02	28276.01
502.20	28299.42
502.37	28676.24
502.55	28400.06
502.72	28327.50
502.90	28673.90
503.07	28886.89
503.25	28802.63
503.43	28570.92
503.60	28985.19
503.78	28905.62
503.95	29097.54
504.13	29537.56
504.30	29642.88
504.48	29223.93
504.65	29759.91
504.83	29820.77
505.01	29584.37
505.18	30162.48
505.36	30157.80
505.53	30279.51
505.71	30525.27
505.88	30588.46
506.06	29975.24
506.23	30136.74
506.41	30422.28
506.58	30567.40
506.76	30845.92
506.93	31154.87
507.11	31424.03
507.28	30888.05
507.46	31094.02
507.63	30670.38
507.81	31147.85
507.98	31075.29
508.16	31178.28
508.33	31952.99
508.50	31515.31
508.68	31693.19
508.85	31997.46
509.03	32023.21
509.20	31875.76
509.38	32173.00
509.55	31971.72
509.73	32130.87
509.90	32606.00
510.08	32070.02
510.25	32240.88
510.42	32603.66
510.60	32751.12
510.77	32603.66
510.95	33034.32
511.12	32692.60
511.30	32849.42
511.47	33266.03
511.64	32903.25
511.82	33244.97
511.99	33071.77
512.17	33333.91
512.34	33200.50
512.51	33132.62
512.69	33710.74
512.86	33869.89
513.04	33972.88
513.21	33570.30
513.38	33883.94
513.56	33425.19
513.73	33656.90
513.90	33795.00
514.08	33605.41
514.25	34256.08
514.43	34581.42
514.60	33989.26
514.77	34213.95
514.95	34731.21
515.12	34333.32
515.29	34602.48
515.47	34735.89
515.64	34885.68
515.81	34520.56
515.99	34607.16
516.16	34539.29
516.33	34096.92
516.51	34075.86
516.68	33949.47
516.85	34490.13
517.03	34632.91
517.20	34906.75
517.37	35402.94
517.54	35416.99
517.72	35302.30
517.89	35026.12
518.06	35002.71
518.24	35119.74
518.41	35515.29
518.58	35318.68
518.75	35557.42
518.93	35290.60
519.10	35861.69
519.27	36240.86
519.45	36119.15
519.62	36074.68
519.79	36346.18
519.96	36524.06
520.14	36748.75
520.31	36191.70
520.48	36627.04
520.65	36458.52
520.83	36865.78
521.00	36971.10
521.17	36905.57
521.34	36896.20
521.52	37191.11
521.69	37266.01
521.86	37462.61
522.03	37336.23
522.20	37200.47
522.38	37069.40
522.55	37914.34
522.72	37591.34
522.89	37251.97
523.07	37158.34
523.24	37853.48
523.41	38139.03
523.58	37752.84
523.75	38139.03
523.92	38473.73
524.10	38527.56
524.27	38141.37
524.44	38075.84
524.61	38274.78
524.78	38614.16
524.96	38169.46
525.13	38511.17
525.30	39175.89
525.47	38560.33
525.64	38747.57
525.81	38611.82
525.98	38939.49
526.16	38052.43
526.33	38087.54
526.50	38501.81
526.67	38635.22
526.84	38293.50
527.01	38763.95
527.18	38829.49
527.36	39077.58
527.53	39695.49
527.70	39267.17
527.87	39459.09
528.04	39477.82
528.21	39681.44
528.38	39454.41
528.55	39969.33
528.72	39746.98
528.89	40147.21
529.07	40383.60
529.24	39765.70
529.41	39864.00
529.58	39491.86
529.75	39604.20
529.92	39971.67
530.09	40509.99
530.26	40179.98
530.43	40299.34
530.60	40271.26
530.77	39501.22
530.94	40320.41
531.11	40037.20
531.28	40608.29
531.46	40662.13
531.63	40783.83
531.80	40168.27
531.97	40479.57
532.14	40339.13
532.31	40046.57
532.48	40720.64
532.65	40704.26
532.82	40474.88
532.99	40847.03
533.16	40432.75
533.33	40856.39
533.50	41177.04
533.67	41177.04
533.84	40907.88
534.01	41174.70
534.18	40877.46
534.35	41490.68
534.52	41095.13
534.69	41228.54
534.86	41020.23
535.03	41441.53
535.20	41392.37
535.37	42241.99
535.54	41790.27
535.71	41511.74
535.88	42082.83
536.05	41446.21
536.22	41722.39
536.38	42085.17
536.55	41677.92
536.72	41888.57
536.89	41607.70
537.06	41563.23
537.23	42223.26
537.40	42253.69
537.57	42033.68
537.74	41993.89
537.91	42543.92
538.08	42515.83
538.25	42033.68
538.42	42227.95
538.59	42485.40
538.75	41972.83
538.92	42256.03
539.09	42712.44
539.26	42429.23
539.43	42625.84
539.60	42628.18
539.77	42256.03
539.94	42389.44
540.11	42611.79
540.28	42431.57
540.44	42377.74
540.61	42356.67
540.78	42590.73
540.95	42815.42
541.12	42792.01
541.29	42979.26
541.46	42845.85
541.62	42628.18
541.79	43154.80
541.96	42616.47
542.13	43119.69
542.30	43194.59
542.47	43229.69
542.63	43168.84
542.80	43030.75
542.97	43489.49
543.14	43679.08
543.31	43484.81
543.48	43519.92
543.64	44376.56
543.81	44215.06
543.98	43529.28
544.15	43863.98
544.32	44065.27
544.48	44072.29
544.65	44039.52
544.82	43814.83
544.99	43555.03
545.16	44037.18
545.32	44353.15
545.49	44259.53
545.66	44460.82
545.83	44098.03
546.00	44596.57
546.16	44140.16
546.33	44076.97
546.50	43540.99
546.67	44093.35
546.83	43878.02
547.00	44615.29
547.17	44112.08
547.34	44437.41
547.50	44804.88
547.67	44626.99
547.84	44336.77
548.00	44390.60
548.17	44725.30
548.34	44704.23
548.51	44917.22
548.67	44889.13
548.84	44830.62
549.01	44615.29
549.18	44512.31
549.34	44669.12
549.51	44917.22
549.68	45317.45
549.84	45045.95
550.01	45069.36
550.18	44809.56
550.34	45006.16
550.51	44910.20
550.68	45010.84
550.84	44849.35
551.01	45411.07
551.18	44975.73
551.34	45041.27
551.51	45153.62
551.68	45296.39
551.84	45333.84
552.01	45343.20
552.18	45237.87
552.34	45179.36
552.51	45364.26
552.68	45509.38
552.84	45588.95
553.01	45598.32
553.18	45284.68
553.34	45647.47
553.51	45181.70
553.67	45244.90
553.84	46141.32
554.01	45839.39
554.17	45874.50
554.34	45794.92
554.51	45771.52
554.67	46031.32
554.84	46057.06
555.00	45481.29
555.17	45535.12
555.33	45834.71
555.50	45785.56
555.67	46375.37
555.83	45888.54
556.00	45998.55
556.16	46499.42
556.33	45794.92
556.50	46099.19
556.66	46131.96
556.83	46014.93
556.99	46071.10
557.16	46234.94
557.32	46167.07
557.49	46288.77
557.65	45883.86
557.82	46314.52
557.98	45911.95
558.15	46209.20
558.32	45874.50
558.48	46075.79
558.65	46167.07
558.81	46038.34
558.98	46010.25
559.14	46265.37
559.31	46188.13
559.47	46405.80
559.64	46527.51
559.80	46916.04
559.97	46656.24
560.13	46239.62
560.30	46260.69
560.46	46642.20
560.63	46431.55
560.79	46656.24
560.96	46754.54
561.12	46466.66
561.29	46443.25
561.45	46134.30
561.61	46433.89
561.78	46602.41
561.94	45787.90
562.11	46700.71
562.27	46265.37
562.44	46616.45
562.60	46897.31
562.77	46918.38
562.93	46829.44
563.10	46689.01
563.26	46501.76
563.42	46780.29
563.59	46546.23
563.75	46621.13
563.92	46841.14
564.08	46745.18
564.24	46761.56
564.41	46623.47
564.57	46684.33
564.74	47267.12
564.90	47217.97
565.07	46862.21
565.23	46810.71
565.39	46782.63
565.56	47049.45
565.72	46948.81
565.88	46953.49
566.05	46782.63
566.21	46927.74
566.38	46911.36
566.54	46850.50
566.70	47192.22
566.87	47309.25
567.03	47014.34
567.19	47311.59
567.36	46892.63
567.52	46747.52
567.68	47496.49
567.85	46768.58
568.01	46965.19
568.17	46555.60
568.34	47070.51
568.50	47061.15
568.66	46848.16
568.83	46852.84
568.99	46820.08
569.15	46894.97
569.32	46916.04
569.48	46644.54
569.64	47084.56
569.81	46822.42
569.97	46873.91
570.13	46548.57
570.30	46799.01
570.46	46686.67
570.62	46454.95
570.78	46300.48
570.95	46569.64
571.11	46913.70
571.27	46962.85
571.43	46990.94
571.60	47000.30
571.76	47098.60
571.92	46960.51
572.09	46955.83
572.25	46906.68
572.41	47042.43
572.57	47131.37
572.74	47416.91
572.90	47056.47
573.06	46976.89
573.22	47243.71
573.38	47105.62
573.55	46586.02
573.71	47117.32
573.87	47302.23
574.03	46560.28
574.20	47037.75
574.36	46862.21
574.52	47428.62
574.68	47061.15
574.84	47129.03
575.01	46766.24
575.17	47009.66
575.33	46911.36
575.49	47091.58
575.65	47239.03
575.82	47398.19
575.98	47138.39
576.14	47606.50
576.30	47007.32
576.46	46885.61
576.62	46913.70
576.79	47337.33
576.95	46579.00
577.11	46974.55
577.27	47262.44
577.43	47388.83
577.59	47199.24
577.75	46850.50
577.92	46651.56
578.08	46880.93
578.24	46576.66
578.40	47026.04
578.56	47040.09
578.72	47035.41
578.88	47391.17
579.04	47356.06
579.21	46899.65
579.37	46981.57
579.53	47089.24
579.69	47014.34
579.85	46941.78
580.01	47133.71
580.17	47157.11
580.33	47473.09
580.49	47222.65
580.65	47232.01
580.82	47267.12
580.98	46948.81
581.14	46801.35
581.30	47182.86
581.46	47056.47
581.62	47313.93
581.78	47297.55
581.94	47475.43
582.10	47028.38
582.26	46965.19
582.42	47215.63
582.58	47187.54
582.74	46775.61
582.90	47512.88
583.06	47889.70
583.22	47339.68
583.38	47583.09
583.54	47538.62
583.70	47171.16
583.86	46990.94
584.02	46951.15
584.18	47136.05
584.34	47531.60
584.50	47377.12
584.66	47386.49
584.82	47033.07
584.98	47641.60
585.14	47318.61
585.30	47220.31
585.46	47049.45
585.62	47203.92
585.78	47449.68
585.94	46822.42
586.10	47473.09
586.26	47040.09
586.42	47103.28
586.58	47501.17
586.74	47363.08
586.90	46997.96
587.06	47253.08
587.22	47257.76
587.38	47037.75
587.54	47756.29
587.70	47679.05
587.86	47227.33
588.02	47454.36
588.18	47365.42
588.34	47030.72
588.49	46546.23
588.65	46653.90
588.81	46581.34
588.97	46791.99
589.13	46979.23
589.29	46707.73
589.45	47232.01
589.61	47580.75
589.77	47311.59
589.93	47288.18
590.08	47353.72
590.24	47634.58
590.40	47320.95
590.56	47770.33
590.72	47269.46
590.88	47124.35
591.04	47358.40
591.20	47695.44
591.35	47477.77
591.51	47573.73
591.67	47648.63
591.83	47569.05
591.99	47152.43
592.15	47224.99
592.31	47641.60
592.46	47344.36
592.62	47377.12
592.78	47117.32
592.94	47480.11
593.10	47253.08
593.26	47894.38
593.41	47564.37
593.57	47370.10
593.73	47199.24
593.89	47299.89
594.05	47114.98
594.20	47491.81
594.36	46967.53
594.52	47283.50
594.68	47126.69
594.84	47182.86
594.99	47433.30
595.15	47379.46
595.31	47538.62
595.47	47302.23
595.62	47416.91
595.78	47592.45
595.94	47650.97
596.10	47597.13
596.25	47753.95
596.41	47494.15
596.57	47636.92
596.73	47702.46
596.88	47075.19
597.04	47503.51
597.20	47524.58
597.36	47454.36
597.51	47990.34
597.67	47533.94
597.83	47517.56
597.99	47629.90
598.14	47704.80
598.30	47576.07
598.46	47407.55
598.61	47456.70
598.77	47220.31
598.93	47412.23
599.09	47044.77
599.24	47653.31
599.40	47276.48
599.56	47922.47
599.71	47292.86
599.87	47742.25
600.03	47634.58
600.18	47622.88
600.34	47313.93
600.50	47466.06
600.65	47594.79
600.81	47566.71
600.97	47922.47
601.12	47477.77
601.28	47367.76
601.44	47583.09
601.59	47461.38
601.75	47014.34
601.91	47014.34
602.06	47323.29
602.22	47543.30
602.37	47215.63
602.53	47086.90
602.69	47669.69
602.84	47283.50
603.00	47342.02
603.16	47515.22
603.31	47217.97
603.47	47428.62
603.62	47510.53
603.78	47519.90
603.94	47576.07
604.09	47110.30
604.25	47236.69
604.40	47559.69
604.56	47374.78
604.71	47290.52
604.87	47533.94
605.03	47243.71
605.18	47044.77
605.34	47374.78
605.49	46988.60
605.65	47559.69
605.80	47040.09
605.96	47538.62
606.12	47070.51
606.27	47166.48
606.43	47604.16
606.58	47285.84
606.74	47091.58
606.89	47281.16
607.05	47545.64
607.20	47299.89
607.36	47304.57
607.51	47702.46
607.67	47253.08
607.82	47487.13
607.98	47367.76
608.13	46972.21
608.29	47122.01
608.44	46625.81
608.60	46885.61
608.75	47054.13
608.91	47098.60
609.06	47023.70
609.22	46913.70
609.37	46958.17
609.53	46972.21
609.68	47140.73
609.84	46780.29
609.99	47044.77
610.15	46871.57
610.30	46536.87
610.46	46281.75
610.61	46553.26
610.76	46693.69
610.92	46438.57
611.07	46857.52
611.23	46454.95
611.38	46653.90
611.54	46267.71
611.69	46469.00
611.84	46012.59
612.00	46483.04
612.15	46497.08
612.31	46911.36
612.46	46600.07
612.62	46831.78
612.77	46045.36
612.92	46600.07
613.08	46291.12
613.23	46466.66
613.39	46492.40
613.54	45947.06
613.69	46349.63
613.85	46724.11
614.00	46569.64
614.15	46586.02
614.31	46417.50
614.46	46422.19
614.62	46202.18
614.77	46087.49
614.92	46284.09
615.08	46103.87
615.23	46080.47
615.38	46263.03
615.54	46148.34
615.69	46122.60
615.84	45652.15
616.00	46134.30
616.15	45687.26
616.30	46623.47
616.46	45928.33
616.61	45610.02
616.76	45954.08
616.92	45656.83
617.07	45492.99
617.22	45492.99
617.37	45696.62
617.53	46234.94
617.68	45940.04
617.83	46258.35
617.99	46340.27
618.14	45787.90
618.29	45904.93
618.45	45008.50
618.60	45591.30
618.75	45881.52
618.90	45631.08
619.06	45684.92
619.21	45727.05
619.36	45752.79
619.51	45827.69
619.67	45350.22
619.82	45523.42
619.97	45694.28
620.12	45268.30
620.28	45275.32
620.43	45242.56
620.58	45528.10
620.73	45684.92
620.89	45249.58
621.04	45029.57
621.19	45280.00
621.34	45242.56
621.49	45261.28
621.65	45074.04
621.80	45668.53
621.95	45020.20
622.10	45495.33
622.25	44563.80
622.41	45174.68
622.56	45097.44
622.71	45467.25
622.86	44907.86
623.01	44882.11
623.16	45272.98
623.32	44926.58
623.47	45139.57
623.62	45024.89
623.77	44648.06
623.92	44760.40
624.07	44671.46
624.23	44650.40
624.38	44671.46
624.53	44666.78
624.68	44830.62
624.83	44470.18
624.98	44793.17
625.13	44463.16
625.29	44460.82
625.44	44687.85
625.59	44231.44
625.74	43906.11
625.89	44093.35
626.04	44189.31
626.19	44397.62
626.34	44114.42
626.49	44041.86
626.65	44404.64
626.80	43824.19
626.95	44137.82
627.10	43952.92
627.25	43973.98
627.40	43667.37
627.55	43056.50
627.70	43746.95
627.85	44046.54
628.00	43716.53
628.15	44147.18
628.30	43473.11
628.45	43789.08
628.60	43398.21
628.76	43840.57
628.91	44081.65
629.06	43517.58
629.21	43709.50
629.36	43782.06
629.51	43576.09
629.66	43901.43
629.81	43583.12
629.96	43391.19
630.11	43798.44
630.26	43503.54
630.41	43569.07
630.56	43325.66
630.71	43386.51
630.86	43679.08
631.01	43257.78
631.16	43208.63
631.31	43105.65
631.46	42600.09
631.61	43210.97
631.76	42941.81
631.91	43138.41
632.06	43210.97
632.21	43379.49
632.36	43562.05
632.51	43047.13
632.66	43501.20
632.81	42309.86
632.96	42953.51
633.10	42735.84
633.25	42644.56
633.40	43419.28
633.55	42995.64
633.70	42775.63
633.85	42485.40
634.00	42635.20
634.15	42955.85
634.30	42616.47
634.45	42923.08
634.60	42515.83
634.75	43157.14
634.90	42562.64
635.05	42616.47
635.19	42291.14
635.34	42986.28
635.49	42522.85
635.64	42249.01
635.79	42431.57
635.94	42337.95
636.09	42600.09
636.24	42085.17
636.39	42197.52
636.53	42433.91
636.68	41888.57
636.83	42426.89
636.98	42789.67
637.13	42326.25
637.28	42213.90
637.43	42794.36
637.57	42700.73
637.72	42476.04
637.87	42536.90
638.02	42178.79
638.17	42164.75
638.32	41947.08
638.46	42131.98
638.61	41989.21
638.76	41624.09
638.91	42122.62
639.06	41759.84
639.20	42129.64
639.35	41755.16
639.50	41684.94
639.65	42080.49
639.80	42312.20
639.94	41703.67
640.09	41567.91
640.24	41827.71
640.39	41242.58
640.54	41354.93
640.68	41474.29
640.83	41497.70
640.98	41544.51
641.13	41537.49
641.27	41411.10
641.42	41333.86
641.57	41422.80
641.72	41628.77
641.86	40854.05
642.01	41027.25
642.16	41354.93
642.31	41284.71
642.45	41205.13
642.60	41006.19
642.75	41265.99
642.90	40847.03
643.04	40947.67
643.19	41071.72
643.34	41261.30
643.48	41043.63
643.63	41546.85
643.78	40816.60
643.93	40762.77
644.07	40732.34
644.22	40584.89
644.37	40545.10
644.51	41148.96
644.66	40514.67
644.81	41148.96
644.95	40650.42
645.10	41179.39
645.25	40828.30
645.39	41081.08
645.54	41242.58
645.69	40870.43
645.83	40144.87
645.98	40982.78
646.13	40676.17
646.27	40868.09
646.42	40648.08
646.57	40266.58
646.71	40261.90
646.86	40725.32
647.00	40875.12
647.15	40399.99
647.30	40598.93
647.44	40720.64
647.59	40229.13
647.74	40041.88
647.88	40175.30
648.03	40350.84
648.17	40226.79
648.32	39625.27
648.47	40006.78
648.61	39915.50
648.76	40465.52
648.90	40355.52
649.05	40198.70
649.20	40418.71
649.34	39950.60
649.49	40062.95
649.63	39971.67
649.78	40322.75
649.92	39545.69
650.07	40505.31
650.21	39622.93
650.36	39906.13
650.51	39690.80
650.65	40137.85
650.80	39943.58
650.94	40229.13
651.09	39777.40
651.23	39559.73
651.38	39765.70
651.52	39538.67
651.67	39833.58
651.81	39988.05
651.96	39613.57
652.10	39136.10
652.25	39538.67
652.39	39356.11
652.54	39524.63
652.68	39793.79
652.83	39576.12
652.97	39770.38
653.12	39629.95
653.26	39236.74
653.41	39173.55
653.55	39267.17
653.70	38684.37
653.84	39643.99
653.99	39236.74
654.13	39526.97
654.27	39290.57
654.42	38909.07
654.56	38616.50
654.71	39339.72
654.85	39178.23
655.00	38934.81
655.14	38731.18
655.29	38770.97
655.43	38838.85
655.57	38218.61
655.72	38464.36
655.86	38094.56
656.01	38356.70
656.15	38487.77
656.30	38129.67
656.44	38188.18
656.58	38066.47
656.73	38127.33
656.87	38157.75
657.01	38150.73
657.16	37902.64
657.30	38202.22
657.45	38052.43
657.59	38417.55
657.73	37940.08
657.88	38436.28
658.02	38092.22
658.16	37958.81
658.31	38733.53
658.45	38417.55
658.60	38087.54
658.74	38424.57
658.88	38625.86
659.03	38319.25
659.17	38033.71
659.31	37876.89
659.46	37806.67
659.60	38038.39
659.74	37584.32
659.89	37493.04
660.03	37448.57
660.17	38045.41
660.32	37914.34
660.46	38178.82
660.60	37460.27
660.74	38082.86
660.89	37577.30
661.03	37357.29
661.17	37322.18
661.32	37153.66
661.46	37450.91
661.60	37219.20
661.74	36877.48
661.89	37242.60
662.03	36863.44
662.17	37050.68
662.31	37003.87
662.46	37258.99
662.60	37015.57
662.74	37120.90
662.88	37020.25
663.03	36563.85
663.17	37034.30
663.31	36823.65
663.45	36559.17
663.60	36605.98
663.74	36542.78
663.88	36636.41
664.02	36098.08
664.17	36699.60
664.31	35887.43
664.45	36327.45
664.59	36465.55
664.73	36566.19
664.88	36760.45
665.02	36079.36
665.16	36278.30
665.30	36163.62
665.44	35821.90
665.59	35915.52
665.73	35590.19
665.87	35604.23
666.01	35826.58
666.15	35604.23
666.29	35512.95
666.44	35597.21
666.58	35693.17
666.72	35477.84
666.86	36229.15
667.00	35491.88
667.14	35475.50
667.28	35440.39
667.43	34991.01
667.57	35456.78
667.71	34873.98
667.85	34939.52
667.99	34888.03
668.13	34796.74
668.27	34986.33
668.41	35178.25
668.56	34590.78
668.70	35140.80
668.84	34993.35
668.98	34572.05
669.12	34771.00
669.26	34497.16
669.40	34628.23
669.54	34071.18
669.68	34298.21
669.82	34012.66
669.96	34059.48
670.10	33837.12
670.25	34209.27
670.39	34471.41
670.53	34036.07
670.67	33724.78
670.81	34052.45
670.95	33551.58
671.09	34075.86
671.23	33972.88
671.37	34183.52
671.51	33670.95
671.65	33652.22
671.79	33488.38
671.93	33109.22
672.07	33907.34
672.21	33422.85
672.35	32910.27
672.49	33312.84
672.63	33036.66
672.77	33219.22
672.91	33237.95
673.05	32900.91
673.19	33188.80
673.33	33130.28
673.47	32842.40
673.61	32467.91
673.75	32318.12
673.89	32261.94
674.03	32254.92
674.17	31838.31
674.31	32329.82
674.45	32121.51
674.59	31875.76
674.73	32278.33
674.87	32112.15
675.01	31901.50
675.15	32212.79
675.29	31840.65
675.43	31929.59
675.56	31608.93
675.70	31812.56
675.84	31576.17
675.98	30813.15
676.12	31557.44
676.26	31152.53
676.40	31061.25
676.54	30668.04
676.68	31089.34
676.82	30691.44
676.96	30888.05
677.10	30735.92
677.23	30878.69
677.37	30431.65
677.51	30609.53
677.65	30415.26
677.79	30256.11
677.93	30185.89
678.07	30242.06
678.21	29839.49
678.34	30026.73
678.48	29495.43
678.62	30066.52
678.76	29675.65
678.90	29605.44
679.04	29357.34
679.18	29724.80
679.31	29254.36
679.45	28936.04
679.59	28952.43
679.73	29205.20
679.87	28912.64
680.00	29230.95
680.14	28744.12
680.28	28587.30
680.42	28460.91
680.56	28357.93
680.70	28271.33
680.83	28205.80
680.97	28170.69
681.11	27873.44
681.25	27840.67
681.39	27639.39
681.52	27880.46
681.66	28023.23
681.80	27578.53
681.94	27718.96
682.07	27445.12
682.21	27407.67
682.35	27166.60
682.49	27276.60
682.62	26967.65
682.76	27271.92
682.90	27016.80
683.04	26822.54
683.17	26878.71
683.31	26759.34
683.45	26764.03
683.59	26497.20
683.72	26616.57
683.86	26349.75
684.00	26338.05
684.13	26263.15
684.27	26380.18
684.41	25876.96
684.55	25827.81
684.68	25273.10
684.82	25694.40
684.96	25720.15
685.09	25755.26
685.23	25352.68
685.37	25350.34
685.50	25294.17
685.64	25446.30
685.78	25249.70
685.91	25378.43
686.05	24943.09
686.19	25123.31
686.32	24898.62
686.46	24456.26
686.60	24336.89
686.73	24236.25
686.87	23915.59
687.01	23777.50
687.14	24135.60
687.28	23601.96
687.42	23702.61
687.55	23700.26
687.69	23667.50
687.82	23555.15
687.96	23658.14
688.10	23328.12
688.23	23204.07
688.37	23503.66
688.50	23229.82
688.64	23440.47
688.78	23009.81
688.91	22677.45
689.05	22841.29
689.18	22897.46
689.32	22195.30
689.46	22747.67
689.59	22813.20
689.73	22642.34
689.86	22553.40
690.00	22169.55
690.13	22597.87
690.27	22415.31
690.41	22398.93
690.54	21825.50
690.68	21827.84
690.81	21736.56
690.95	21572.72
691.08	21827.84
691.22	21441.65
691.35	21579.74
691.49	21603.14
691.62	21544.63
691.76	21586.76
691.89	21514.20
692.03	21301.22
692.16	21301.22
692.30	20994.61
692.43	21233.34
692.57	20985.24
692.70	20751.19
692.84	20835.45
692.97	20538.20
693.11	20273.72
693.24	20308.83
693.38	20318.19
693.51	20374.36
693.65	20318.19
693.78	20034.99
693.92	20128.61
694.05	19981.15
694.19	19737.74
694.32	19812.63
694.45	19871.15
694.59	19665.18
694.72	19276.65
694.86	19632.41
694.99	19356.23
695.13	19318.78
695.26	18731.31
695.39	18988.77
695.53	19269.63
695.66	18986.43
695.80	18822.59
695.93	19110.47
696.07	18637.69
696.20	18995.79
696.33	18546.40
696.47	18686.84
696.60	18532.36
696.73	18628.32
696.87	18373.21
697.00	18324.05
697.14	18387.25
697.27	18284.26
697.40	18380.23
697.54	18237.45
697.67	17987.02
697.80	17790.41
697.94	17565.72
698.07	17638.28
698.21	17415.93
698.34	17610.19
698.47	17467.42
698.61	17364.43
698.74	17135.06
698.87	17188.89
699.01	17123.36
699.14	17198.26
699.27	17006.33
699.40	17163.15
699.54	16868.24
699.67	16634.19
699.80	16367.37
699.94	16697.38
700.07	16575.67
700.20	16589.72
700.34	16306.51
700.47	16322.90
700.60	16592.06
700.73	16341.62
700.87	16219.91
701.00	15843.09
701.13	16067.78
701.26	16205.87
701.40	15765.85
701.53	15999.90
701.66	15770.53
701.79	15763.51
701.93	15819.68
702.06	15389.02
702.19	15119.86
702.32	15529.45
702.46	15428.81
702.59	15295.40
702.72	15159.65
702.85	15110.50
702.99	15110.50
703.12	15264.97
703.25	14923.26
703.38	15234.55
703.51	14841.34
703.65	14623.67
703.78	14750.06
703.91	14712.61
704.04	14633.03
704.17	14387.27
704.31	14501.96
704.44	14396.64
704.57	14174.28
704.70	14054.92
704.83	14087.68
704.96	14040.87
705.10	14267.91
705.23	14176.62
>>>>>End Processed Spectral Data<<<<<
