SpectraSuite Data File
++++++++++++++++++++++++++++++++++++
Date: Fri Oct 25 10:48:03 EDT 2013
User: price-jones
Dark Spectrum Present: No
Reference Spectrum Present: No
Number of Sampled Component Spectra: 1
Spectrometers: USB2+H05261
Integration Time (usec): 100000 (USB2+H05261)
Spectra Averaged: 1 (USB2+H05261)
Boxcar Smoothing: 0 (USB2+H05261)
Correct for Electrical Dark: No (USB2+H05261)
Strobe/Lamp Enabled: No (USB2+H05261)
Correct for Detector Non-linearity: No (USB2+H05261)
Correct for Stray Light: No (USB2+H05261)
Number of Pixels in Processed Spectrum: 2048
>>>>>Begin Processed Spectral Data<<<<<
365.73	168.52
365.92	168.52
366.12	168.52
366.32	30.43
366.52	9.36
366.72	77.24
366.91	81.92
367.11	32.77
367.31	18.72
367.51	7.02
367.70	7.02
367.90	60.85
368.10	39.79
368.30	28.09
368.49	18.72
368.69	72.56
368.89	102.98
369.09	114.69
369.28	65.54
369.48	124.05
369.68	138.09
369.87	131.07
370.07	119.37
370.27	196.60
370.47	234.05
370.66	266.82
370.86	327.68
371.06	430.66
371.25	531.30
371.45	463.43
371.65	475.13
371.84	468.11
372.04	369.80
372.24	463.43
372.44	465.77
372.63	543.00
372.83	430.66
373.03	512.58
373.22	416.62
373.42	507.90
373.62	510.24
373.81	491.51
374.01	538.32
374.21	489.17
374.40	517.26
374.60	535.98
374.79	535.98
374.99	608.54
375.19	550.03
375.38	585.13
375.58	578.11
375.78	573.43
375.97	566.41
376.17	578.11
376.37	538.32
376.56	599.18
376.76	559.39
376.95	547.69
377.15	589.82
377.35	479.81
377.54	599.18
377.74	608.54
377.93	603.86
378.13	608.54
378.33	627.26
378.52	622.58
378.72	627.26
378.91	643.65
379.11	641.31
379.31	606.20
379.50	615.56
379.70	561.73
379.89	664.71
380.09	664.71
380.28	636.63
380.48	624.92
380.68	641.31
380.87	664.71
381.07	650.67
381.26	676.41
381.46	594.50
381.65	650.67
381.85	645.99
382.04	622.58
382.24	631.94
382.43	760.67
382.63	734.93
382.83	671.73
383.02	725.57
383.22	683.44
383.41	648.33
383.61	667.05
383.80	866.00
384.00	734.93
384.19	667.05
384.39	662.37
384.58	716.20
384.78	732.59
384.97	645.99
385.17	788.76
385.36	702.16
385.56	751.31
385.75	765.36
385.95	734.93
386.14	713.86
386.34	760.67
386.53	755.99
386.72	781.74
386.92	835.57
387.11	802.80
387.31	837.91
387.50	791.10
387.70	751.31
387.89	781.74
388.09	788.76
388.28	765.36
388.48	861.32
388.67	887.06
388.86	868.34
389.06	858.98
389.25	851.96
389.45	908.13
389.64	833.23
389.84	901.11
390.03	952.60
390.22	926.85
390.42	924.51
390.61	985.37
390.81	903.45
391.00	901.11
391.19	922.17
391.39	910.47
391.58	943.24
391.78	840.25
391.97	966.64
392.16	957.28
392.36	992.39
392.55	922.17
392.75	936.21
392.94	952.60
393.13	917.49
393.33	1006.43
393.52	851.96
393.71	990.05
393.91	1006.43
394.10	997.07
394.29	1004.09
394.49	1142.18
394.68	1102.39
394.88	1088.35
395.07	1104.73
395.26	1055.58
395.46	1081.33
395.65	1004.09
395.84	1060.26
396.04	1200.69
396.23	1188.99
396.42	1064.94
396.62	1137.50
396.81	1100.05
397.00	1071.97
397.19	1142.18
397.39	1172.61
397.58	1284.95
397.77	1167.93
397.97	1224.10
398.16	1214.74
398.35	1315.38
398.55	1128.14
398.74	1366.87
398.93	1238.14
399.12	1294.32
399.32	1364.53
399.51	1284.95
399.70	1348.15
399.90	1259.21
400.09	1357.51
400.28	1380.92
400.47	1329.42
400.67	1465.18
400.86	1425.39
401.05	1369.21
401.24	1404.32
401.44	1373.89
401.63	1469.86
401.82	1502.62
402.01	1383.26
402.21	1516.67
402.40	1444.11
402.59	1455.81
402.78	1521.35
402.97	1479.22
403.17	1479.22
403.36	1556.46
403.55	1605.61
403.74	1640.72
403.93	1614.97
404.13	1664.12
404.32	1610.29
404.51	1633.69
404.70	1638.38
404.89	1647.74
405.09	1746.04
405.28	1685.19
405.47	1771.79
405.66	1727.32
405.85	1654.76
406.05	1750.72
406.24	1713.27
406.43	1806.89
406.62	1722.63
406.81	1706.25
407.00	1771.79
407.20	1713.27
407.39	1816.26
407.58	1947.33
407.77	1895.83
407.96	1909.88
408.15	1984.77
408.34	1928.60
408.54	2038.61
408.73	1977.75
408.92	1980.09
409.11	1952.01
409.30	2033.93
409.49	1930.94
409.68	2008.18
409.87	2080.74
410.07	1949.67
410.26	2108.82
410.45	2174.36
410.64	2071.37
410.83	2104.14
411.02	2069.03
411.21	2153.29
411.40	2183.72
411.59	2214.15
411.78	2230.53
411.98	2251.60
412.17	2214.15
412.36	2232.87
412.55	2310.11
412.74	2298.41
412.93	2399.05
413.12	2258.62
413.31	2356.92
413.50	2389.69
413.69	2511.39
413.88	2438.84
414.07	2399.05
414.26	2574.59
414.45	2595.65
414.64	2558.21
414.83	2619.06
415.02	2696.30
415.22	2663.53
415.41	2719.70
415.60	2750.13
415.79	2743.11
415.98	2862.48
416.17	2693.96
416.36	2773.53
416.55	2794.60
416.74	2918.65
416.93	2878.86
417.12	2897.58
417.31	2883.54
417.50	2963.12
417.69	3112.91
417.88	2977.16
418.07	3049.72
418.26	3009.93
418.45	3000.57
418.64	3173.77
418.83	3094.19
419.02	3077.80
419.21	3155.04
419.39	3157.38
419.58	3066.10
419.77	3105.89
419.96	3241.64
420.15	3314.20
420.34	3009.93
420.53	3290.79
420.72	3234.62
420.91	3218.24
421.10	3309.52
421.29	3389.10
421.48	3307.18
421.67	3471.01
421.86	3293.13
422.05	3379.73
422.24	3370.37
422.43	3337.60
422.61	3400.80
422.80	3513.14
422.99	3435.91
423.18	3541.23
423.37	3438.25
423.56	3578.68
423.75	3499.10
423.94	3363.35
424.13	3218.24
424.32	3295.47
424.50	3405.48
424.69	3496.76
424.88	3449.95
425.07	3487.40
425.26	3293.13
425.45	3487.40
425.64	3400.80
425.83	3433.57
426.01	3555.27
426.20	3562.30
426.39	3543.57
426.58	3529.53
426.77	3431.23
426.96	3590.38
427.15	3583.36
427.33	3501.44
427.52	3604.42
427.71	3583.36
427.90	3513.14
428.09	3679.32
428.28	3660.60
428.46	3794.01
428.65	3578.68
428.84	3756.56
429.03	3831.46
429.22	3775.28
429.40	3679.32
429.59	3747.20
429.78	3705.07
429.97	3604.42
430.16	3655.92
430.34	3775.28
430.53	3857.20
430.72	3768.26
430.91	3880.61
431.10	3920.40
431.28	3836.14
431.47	3925.08
431.66	4049.13
431.85	3981.25
432.03	4159.13
432.22	4212.96
432.41	4086.58
432.60	4058.49
432.79	4163.81
432.97	4229.35
433.16	4182.54
433.35	4154.45
433.54	4287.86
433.72	4112.32
433.91	4161.47
434.10	4173.18
434.28	4205.94
434.47	4231.69
434.66	4280.84
434.85	4344.03
435.03	4409.57
435.22	4521.92
435.41	4397.87
435.59	4470.42
435.78	4472.76
435.97	4470.42
436.16	4500.85
436.34	4519.57
436.53	4561.70
436.72	4493.83
436.90	4472.76
437.09	4468.08
437.28	4503.19
437.46	4386.16
437.65	4631.92
437.84	4587.45
438.02	4690.43
438.21	4702.14
438.40	4603.83
438.58	4739.58
438.77	4905.76
438.96	4725.54
439.14	4898.74
439.33	4919.81
439.52	5102.37
439.70	4992.36
439.89	4915.12
440.08	5004.07
440.26	4936.19
440.45	5172.58
440.63	4973.64
440.82	5235.78
441.01	5172.58
441.19	5425.36
441.38	5163.22
441.57	5228.76
441.75	5565.79
441.94	5504.94
442.12	5378.55
442.31	5434.72
442.50	5565.79
442.68	5469.83
442.87	5465.15
443.05	5397.28
443.24	5795.17
443.43	5734.31
443.61	5689.84
443.80	5912.19
443.98	5619.63
444.17	5547.07
444.35	5509.62
444.54	5827.93
444.73	5757.72
444.91	5713.25
445.10	5703.89
445.28	5673.46
445.47	5771.76
445.65	5727.29
445.84	5788.14
446.02	5785.80
446.21	5778.78
446.39	5809.21
446.58	5671.12
446.77	5797.51
446.95	5708.57
447.14	5783.46
447.32	5968.37
447.51	5951.98
447.69	5867.72
447.88	5898.15
448.06	5860.70
448.25	5905.17
448.43	5790.49
448.62	6015.18
448.80	5884.11
448.99	5956.66
449.17	6038.58
449.36	5994.11
449.54	6003.47
449.73	6216.46
449.91	6200.08
450.10	6230.51
450.28	6209.44
450.46	6176.67
450.65	6146.25
450.83	6282.00
451.02	6366.26
451.20	6249.23
451.39	6326.47
451.57	6195.40
451.76	6363.92
451.94	6373.28
452.13	6225.82
452.31	6525.41
452.49	6066.67
452.68	6380.30
452.86	6417.75
453.05	6462.22
453.23	6586.27
453.42	6368.60
453.60	6410.73
453.78	6654.14
453.97	6345.19
454.15	6485.62
454.34	6516.05
454.52	6537.12
454.70	6705.63
454.89	6581.59
455.07	6658.82
455.26	6621.38
455.44	6913.94
455.62	6775.85
455.81	6895.22
455.99	7073.10
456.17	6937.35
456.36	6899.90
456.54	7056.72
456.73	6834.36
456.91	7037.99
457.09	7045.01
457.28	7239.28
457.46	6937.35
457.64	7166.72
457.83	7115.23
458.01	7145.66
458.19	7185.44
458.38	7215.87
458.56	7410.14
458.74	7318.86
458.93	7487.37
459.11	7265.02
459.29	7265.02
459.48	7314.17
459.66	7459.29
459.84	7398.43
460.03	7328.22
460.21	7552.91
460.39	7300.13
460.57	7571.63
460.76	7606.74
460.94	7679.30
461.12	7627.81
461.31	7641.85
461.49	7653.55
461.67	7672.28
461.85	7742.49
462.04	7770.58
462.22	8168.47
462.40	7812.71
462.59	7943.78
462.77	7955.48
462.95	7789.30
463.13	7772.92
463.32	7967.18
463.50	7784.62
463.68	7985.91
463.86	7840.79
464.05	8065.49
464.23	7810.37
464.41	8142.72
464.59	7831.43
464.78	8030.38
464.96	8051.44
465.14	7880.58
465.32	8138.04
465.50	8304.22
465.69	8334.65
465.87	8063.15
466.05	8053.78
466.23	8046.76
466.41	8264.43
466.60	8442.31
466.78	8112.30
466.96	8273.79
467.14	8238.69
467.32	8425.93
467.51	8538.27
467.69	8161.45
467.87	8379.12
468.05	8383.80
468.23	8365.07
468.41	8411.89
468.60	8517.21
468.78	8461.04
468.96	8456.36
469.14	8718.50
469.32	8711.47
469.50	8533.59
469.69	8674.03
469.87	8547.64
470.05	8802.75
470.23	8702.11
470.41	8774.67
470.59	8870.63
470.77	8954.89
470.95	8718.50
471.14	8912.76
471.32	8807.44
471.50	8992.34
471.68	9149.15
471.86	9191.28
472.04	9397.25
472.22	9193.62
472.40	9121.07
472.58	9413.63
472.77	9167.88
472.95	9404.27
473.13	9738.97
473.31	9476.83
473.49	9535.34
473.67	9371.50
473.85	9570.45
474.03	9699.18
474.21	9507.26
474.39	9832.59
474.57	9825.57
474.75	9902.81
474.93	9783.44
475.12	9785.78
475.30	10031.54
475.48	9968.34
475.66	10216.44
475.84	10146.22
476.02	10249.21
476.20	10162.61
476.38	10438.79
476.56	10527.73
476.74	10588.58
476.92	10539.43
477.10	10548.79
477.28	10527.73
477.46	10766.46
477.64	10909.24
477.82	11035.63
478.00	11239.25
478.18	11229.89
478.36	11281.38
478.54	11229.89
478.72	11452.24
478.90	11339.90
479.08	11641.82
479.26	11637.14
479.44	11803.32
479.62	11915.67
479.80	11845.45
479.98	11850.13
480.16	11815.02
480.34	11845.45
480.52	12280.79
480.70	12212.92
480.88	12325.26
481.06	12428.24
481.24	12411.86
481.41	12676.34
481.59	12659.96
481.77	13102.32
481.95	12681.02
482.13	12943.16
482.31	13041.46
482.49	13364.46
482.67	13270.84
482.85	13352.76
483.03	13577.45
483.21	13551.70
483.39	13741.29
483.57	13802.14
483.74	13982.36
483.92	13898.10
484.10	13912.14
484.28	14190.67
484.46	14649.41
484.64	14541.75
484.82	14277.27
485.00	14651.75
485.18	14934.96
485.35	14995.81
485.53	14700.90
485.71	14920.92
485.89	14895.17
486.07	15098.80
486.25	15274.34
486.43	15396.04
486.61	15499.03
486.78	15662.86
486.96	15906.28
487.14	15957.77
487.32	15815.00
487.50	16238.64
487.68	16348.64
487.85	16645.89
488.03	16505.46
488.21	16580.36
488.39	16641.21
488.57	16879.94
488.75	16908.03
488.92	17254.43
489.10	17518.91
489.28	17666.36
489.46	17757.64
489.64	17497.84
489.81	17774.03
489.99	18047.87
490.17	18464.49
490.35	18134.47
490.53	18192.98
490.70	18333.42
490.88	18408.31
491.06	18630.66
491.24	18806.20
491.41	18628.32
491.59	18820.25
491.77	18810.89
491.95	19337.51
492.13	19276.65
492.30	19253.25
492.48	19510.71
492.66	19499.00
492.84	19571.56
493.01	19761.14
493.19	19889.87
493.37	20147.33
493.54	19999.88
493.72	20088.82
493.90	20556.93
494.08	20561.61
494.25	20629.48
494.43	21135.04
494.61	20936.09
494.79	20889.28
494.96	21305.90
495.14	20994.61
495.32	21331.64
495.49	21216.96
495.67	21518.89
495.85	21874.65
496.02	21724.85
496.20	22178.92
496.38	22277.22
496.55	22089.98
496.73	22534.68
496.91	22134.45
497.09	22363.82
497.26	22602.55
497.44	22525.32
497.62	22904.48
497.79	22780.43
497.97	22876.40
498.14	23388.97
498.32	23316.42
498.50	23403.02
498.67	23491.96
498.85	23630.05
499.03	23880.49
499.20	23981.13
499.38	24093.47
499.56	23672.18
499.73	23768.14
499.91	24144.97
500.08	24140.29
500.26	24053.69
500.44	24280.72
500.61	24369.66
500.79	24191.78
500.97	24453.92
501.14	24781.59
501.32	24922.02
501.49	24893.94
501.67	24711.38
501.84	25156.08
502.02	24910.32
502.20	25205.23
502.37	25493.12
502.55	25453.33
502.72	25296.51
502.90	25612.48
503.07	25392.47
503.25	25790.36
503.43	25530.56
503.60	25912.07
503.78	25954.20
503.95	26026.76
504.13	25891.01
504.30	26115.70
504.48	25958.88
504.65	26412.95
504.83	26862.33
505.01	26419.97
505.18	26614.23
505.36	26787.43
505.53	26581.46
505.71	27190.00
505.88	26822.54
506.06	26698.49
506.23	26773.39
506.41	26773.39
506.58	27110.43
506.76	27459.16
506.93	27456.82
507.11	27489.59
507.28	27321.07
507.46	27524.70
507.63	27578.53
507.81	27756.41
507.98	27386.61
508.16	27828.97
508.33	27913.23
508.50	28404.74
508.68	28243.24
508.85	28606.03
509.03	28650.50
509.20	28547.51
509.38	28467.94
509.55	28891.57
509.73	28481.98
509.90	28659.86
510.08	28556.88
510.25	29076.48
510.42	28879.87
510.60	29076.48
510.77	29216.91
510.95	29383.09
511.12	29092.86
511.30	29195.84
511.47	29734.17
511.64	29694.38
511.82	29710.76
511.99	29776.30
512.17	29652.25
512.34	29310.53
512.51	29722.46
512.69	30181.21
512.86	30029.07
513.04	30263.13
513.21	30604.84
513.38	30333.34
513.56	30340.36
513.73	30150.78
513.90	30457.39
514.08	30286.53
514.25	30623.57
514.43	30672.72
514.60	30614.21
514.77	30771.02
514.95	31391.26
515.12	30817.83
515.29	30960.61
515.47	31023.80
515.64	31615.96
515.81	31297.64
515.99	31388.92
516.16	31314.03
516.33	31501.27
516.51	31583.19
516.68	31070.61
516.85	31005.08
517.03	31325.73
517.20	31676.81
517.37	31826.60
517.54	31580.85
517.72	32112.15
517.89	31665.11
518.06	31679.15
518.24	31714.26
518.41	31782.13
518.58	32009.17
518.75	32020.87
518.93	32187.05
519.10	32545.15
519.27	32400.04
519.45	32180.03
519.62	32753.46
519.79	32844.74
519.96	32683.24
520.14	33043.68
520.31	32884.53
520.48	32968.79
520.65	32905.59
520.83	33350.29
521.00	33198.16
521.17	33500.09
521.34	33202.84
521.52	33668.61
521.69	33392.42
521.86	33633.50
522.03	33834.78
522.20	33965.85
522.38	34293.53
522.55	33963.51
522.72	33874.57
522.89	33748.18
523.07	34143.74
523.24	33778.61
523.41	33677.97
523.58	33699.03
523.75	34270.12
523.92	34616.52
524.10	34576.73
524.27	34553.33
524.44	34492.47
524.61	34742.91
524.78	34588.44
524.96	35061.22
525.13	34911.43
525.30	34939.52
525.47	35459.12
525.64	34789.72
525.81	34815.47
525.98	35367.84
526.16	35232.08
526.33	34815.47
526.50	35365.49
526.67	34960.58
526.84	35264.85
527.01	34976.97
527.18	35171.23
527.36	35601.89
527.53	35714.23
527.70	36123.83
527.87	35901.48
528.04	35519.97
528.21	35833.60
528.38	35819.56
528.55	35924.88
528.72	35864.03
528.89	36189.36
529.07	36055.95
529.24	36109.78
529.41	36247.88
529.58	35756.36
529.75	36374.27
529.92	36287.67
530.09	36577.89
530.26	36231.49
530.43	36397.67
530.60	36142.55
530.77	36467.89
530.94	36699.60
531.11	36500.65
531.28	36891.52
531.46	36627.04
531.63	36603.64
531.80	36945.36
531.97	37053.02
532.14	36294.69
532.31	36652.79
532.48	37298.78
532.65	37177.07
532.82	37083.45
532.99	37495.38
533.16	36900.89
533.33	37361.97
533.50	37560.92
533.67	37675.60
533.84	37394.74
534.01	37383.04
534.18	37420.48
534.35	37659.22
534.52	37275.37
534.69	37448.57
534.86	37633.47
535.03	37455.59
535.20	37771.57
535.37	38281.80
535.54	37832.42
535.71	37654.54
535.88	38080.52
536.05	37961.15
536.22	38031.36
536.38	38204.56
536.55	38139.03
536.72	38349.68
536.89	38328.61
537.06	38209.25
537.23	38403.51
537.40	38127.33
537.57	38469.04
537.74	38586.07
537.91	38583.73
538.08	38220.95
538.25	38443.30
538.42	38581.39
538.59	38979.28
538.75	38707.78
538.92	38639.90
539.09	38920.77
539.26	38888.00
539.43	38803.74
539.60	39463.77
539.77	38820.13
539.94	38719.48
540.11	38904.38
540.28	38920.77
540.44	39075.24
540.61	38749.91
540.78	39367.81
540.95	38726.50
541.12	39208.65
541.29	39271.85
541.46	39342.06
541.62	39557.39
541.79	39386.54
541.96	39253.12
542.13	39358.45
542.30	39978.69
542.47	39873.37
542.63	39480.16
542.80	39901.45
542.97	39985.71
543.14	40374.24
543.31	40556.80
543.48	39929.54
543.64	40502.97
543.81	40460.84
543.98	40212.74
544.15	40301.68
544.32	40458.50
544.48	40603.61
544.65	40175.30
544.82	40315.73
544.99	40250.19
545.16	40168.27
545.32	40304.02
545.49	40502.97
545.66	40715.96
545.83	40498.29
546.00	41071.72
546.16	41020.23
546.33	40514.67
546.50	40615.32
546.67	40856.39
546.83	40098.06
547.00	40774.47
547.17	40425.73
547.34	40659.79
547.50	40957.03
547.67	41144.28
547.84	41375.99
548.00	41368.97
548.17	41251.94
548.34	40758.09
548.51	41476.63
548.67	41322.16
548.84	41329.18
549.01	41296.41
549.18	41254.28
549.34	41165.34
549.51	41687.28
549.68	41195.77
549.84	41586.64
550.01	41493.02
550.18	41198.11
550.34	41418.12
550.51	41682.60
550.68	41397.06
550.84	41340.88
551.01	41567.91
551.18	41872.18
551.34	42026.66
551.51	41563.23
551.68	42141.35
551.84	41750.48
552.01	41769.20
552.18	41741.11
552.34	42033.68
552.51	42288.80
552.68	41851.12
552.84	42396.46
553.01	42038.36
553.18	42129.64
553.34	41858.14
553.51	41926.02
553.67	41799.63
553.84	42370.72
554.01	42333.27
554.17	42572.00
554.34	42497.11
554.51	42295.82
554.67	42302.84
554.84	42433.91
555.00	42169.43
555.17	42309.86
555.33	42424.55
555.50	42291.14
555.67	42607.11
555.83	42684.35
556.00	42295.82
556.16	42850.53
556.33	43164.16
556.50	42447.96
556.66	42939.47
556.83	42246.67
556.99	42801.38
557.16	43201.61
557.32	42625.84
557.49	43103.31
557.65	42553.28
557.82	42342.63
557.98	43171.18
558.15	42721.80
558.32	43047.13
558.48	42700.73
558.65	42993.30
558.81	42663.28
558.98	42967.55
559.14	43112.67
559.31	42775.63
559.47	42738.18
559.64	43634.61
559.80	43180.54
559.97	43250.76
560.13	42794.36
560.30	42979.26
560.46	43187.56
560.63	42895.00
560.79	43302.25
560.96	43398.21
561.12	43316.29
561.29	43356.08
561.45	43110.33
561.61	43328.00
561.78	43100.97
561.94	43150.12
562.11	43283.53
562.27	43552.69
562.44	43384.17
562.60	43475.45
562.77	43454.39
562.93	43381.83
563.10	43203.95
563.26	43414.60
563.42	43564.39
563.59	43175.86
563.75	43442.68
563.92	43522.26
564.08	43618.22
564.24	43828.87
564.41	43761.00
564.57	43505.88
564.74	43131.39
564.90	43463.75
565.07	43700.14
565.23	43763.34
565.39	43643.97
565.56	44041.86
565.72	43688.44
565.88	43730.57
566.05	43580.78
566.21	43590.14
566.38	44081.65
566.54	44121.44
566.70	43821.85
566.87	43892.07
567.03	43646.31
567.19	44273.57
567.36	43672.06
567.52	43887.39
567.68	44009.09
567.85	43653.33
568.01	43917.81
568.17	43924.83
568.34	43859.30
568.50	43669.72
568.66	43840.57
568.83	43838.23
568.99	43283.53
569.15	43725.89
569.32	43643.97
569.48	43342.04
569.64	43894.41
569.81	43863.98
569.97	43845.26
570.13	44254.85
570.30	43615.88
570.46	43973.98
570.62	43606.52
570.78	43922.49
570.95	43550.35
571.11	44222.08
571.27	43892.07
571.43	43992.71
571.60	43496.52
571.76	43885.04
571.92	43983.35
572.09	44194.00
572.25	43704.82
572.41	44196.34
572.57	43999.73
572.74	44158.89
572.90	44858.71
573.06	44275.91
573.22	44296.98
573.38	44215.06
573.55	43887.39
573.71	44205.70
573.87	43803.13
574.03	43566.73
574.20	44023.14
574.36	44002.07
574.52	43985.69
574.68	44472.52
574.84	44488.90
575.01	43927.17
575.17	44004.41
575.33	43840.57
575.49	43840.57
575.65	44123.78
575.82	44481.88
575.98	44196.34
576.14	43973.98
576.30	44261.87
576.46	44243.15
576.62	44222.08
576.79	44327.41
576.95	43964.62
577.11	43976.33
577.27	44495.92
577.43	44362.51
577.59	44112.08
577.75	43784.40
577.92	44318.04
578.08	44170.59
578.24	43704.82
578.40	44238.47
578.56	44308.68
578.72	44669.12
578.88	44147.18
579.04	44201.02
579.21	44151.87
579.37	43936.54
579.53	44243.15
579.69	44069.95
579.85	43934.20
580.01	44519.33
580.17	44034.84
580.33	44636.36
580.49	44282.94
580.65	44619.97
580.82	44329.75
580.98	44369.54
581.14	44126.12
581.30	44556.78
581.46	44561.46
581.62	44526.35
581.78	44477.20
581.94	44734.66
582.10	44605.93
582.26	44690.19
582.42	44292.30
582.58	44470.18
582.74	43999.73
582.90	44357.83
583.06	44545.08
583.22	44561.46
583.38	45085.74
583.54	44247.83
583.70	44357.83
583.86	44376.56
584.02	44194.00
584.18	44549.76
584.34	44423.37
584.50	44224.42
584.66	44261.87
584.82	44128.46
584.98	44488.90
585.14	45137.23
585.30	44397.62
585.46	44289.96
585.62	44301.66
585.78	44313.36
585.94	44194.00
586.10	44289.96
586.26	44381.24
586.42	44769.77
586.58	44556.78
586.74	44493.58
586.90	44308.68
587.06	44030.16
587.22	44680.83
587.38	44208.04
587.54	44575.50
587.70	44687.85
587.86	44315.70
588.02	44535.71
588.18	44737.00
588.34	44535.71
588.49	44154.21
588.65	44172.93
588.81	44156.55
588.97	44395.28
589.13	44116.76
589.29	44765.09
589.45	44591.89
589.61	44992.12
589.77	45001.48
589.93	44783.81
590.08	44519.33
590.24	44676.15
590.40	44676.15
590.56	45092.76
590.72	44767.43
590.88	44327.41
591.04	44851.69
591.20	45104.46
591.35	45109.14
591.51	45207.45
591.67	44657.42
591.83	44942.97
591.99	44409.32
592.15	44692.53
592.31	44830.62
592.46	45158.30
592.62	44772.11
592.78	44889.13
592.94	45020.20
593.10	44692.53
593.26	44460.82
593.41	44737.00
593.57	44631.68
593.73	44364.85
593.89	44659.76
594.05	44502.95
594.20	44823.60
594.36	45219.15
594.52	45162.98
594.68	44596.57
594.84	45031.91
594.99	44861.05
595.15	44809.56
595.31	44907.86
595.47	45282.34
595.62	44360.17
595.78	44992.12
595.94	45251.92
596.10	44903.18
596.25	45130.21
596.41	44945.31
596.57	44924.24
596.73	44807.22
596.88	44495.92
597.04	44715.93
597.20	44837.64
597.36	44921.90
597.51	45394.69
597.67	45006.16
597.83	44924.24
597.99	45027.23
598.14	45109.14
598.30	44957.01
598.46	44697.21
598.61	44954.67
598.77	44390.60
598.93	44800.19
599.09	44982.76
599.24	44893.82
599.40	45188.72
599.56	44619.97
599.71	45174.68
599.87	44732.32
600.03	44921.90
600.18	45223.83
600.34	45024.89
600.50	45038.93
600.65	44889.13
600.81	45565.55
600.97	45207.45
601.12	45155.96
601.28	45191.06
601.44	44781.47
601.59	44954.67
601.75	44844.66
601.91	44659.76
602.06	44807.22
602.22	44928.92
602.37	44952.33
602.53	44861.05
602.69	45130.21
602.84	44957.01
603.00	45013.18
603.16	44729.98
603.31	45109.14
603.47	44884.45
603.62	45219.15
603.78	44872.75
603.94	45181.70
604.09	45172.34
604.25	45036.59
604.40	44563.80
604.56	44678.49
604.71	44987.44
604.87	45050.63
605.03	45373.63
605.18	44659.76
605.34	44748.70
605.49	44495.92
605.65	44910.20
605.80	45010.84
605.96	44910.20
606.12	44982.76
606.27	44657.42
606.43	45109.14
606.58	44938.29
606.74	44343.79
606.89	45162.98
607.05	44744.02
607.20	44638.70
607.36	45109.14
607.51	45228.51
607.67	45191.06
607.82	44861.05
607.98	44823.60
608.13	44699.55
608.29	44369.54
608.44	44011.43
608.60	44243.15
608.75	44299.32
608.91	44095.69
609.06	44065.27
609.22	44797.85
609.37	43985.69
609.53	44680.83
609.68	44474.86
609.84	43931.86
609.99	44498.26
610.15	44561.46
610.30	44416.35
610.46	44271.23
610.61	44069.95
610.76	44041.86
610.92	44453.79
611.07	44334.43
611.23	44175.27
611.38	44275.91
611.54	44217.40
611.69	44416.35
611.84	44151.87
612.00	44268.89
612.15	44273.57
612.31	44233.78
612.46	44198.68
612.62	44428.05
612.77	44093.35
612.92	44025.48
613.08	44006.75
613.23	44020.80
613.39	43828.87
613.54	43615.88
613.69	44079.31
613.85	44051.22
614.00	44081.65
614.15	44299.32
614.31	43878.02
614.46	44154.21
614.62	43875.68
614.77	43697.80
614.92	43917.81
615.08	44194.00
615.23	43730.57
615.38	44023.14
615.54	43761.00
615.69	43873.34
615.84	43545.67
616.00	43732.91
616.15	43524.60
616.30	43908.45
616.46	43489.49
616.61	43220.33
616.76	43737.59
616.92	43625.25
617.07	43461.41
617.22	43592.48
617.37	43498.86
617.53	44002.07
617.68	43580.78
617.83	43566.73
617.99	43620.56
618.14	43913.13
618.29	43395.87
618.45	43129.05
618.60	43435.66
618.75	43276.51
618.90	43335.02
619.06	43480.13
619.21	42995.64
619.36	43636.95
619.51	43627.59
619.67	43363.11
619.82	42948.83
619.97	43100.97
620.12	42979.26
620.28	42873.93
620.43	43250.76
620.58	42997.98
620.73	43557.37
620.89	43475.45
621.04	43030.75
621.19	42674.99
621.34	43063.52
621.49	42810.74
621.65	42930.11
621.80	43229.69
621.95	42960.53
622.10	42436.25
622.25	42679.67
622.41	42726.48
622.56	42939.47
622.71	42939.47
622.86	42829.46
623.01	42937.13
623.16	43065.86
623.32	42625.84
623.47	42707.76
623.62	42600.09
623.77	42609.45
623.92	42852.87
624.07	42562.64
624.23	42635.20
624.38	42635.20
624.53	42326.25
624.68	42740.52
624.83	42630.52
624.98	42876.27
625.13	42586.05
625.29	42522.85
625.44	42291.14
625.59	42370.72
625.74	41776.22
625.89	42064.11
626.04	41628.77
626.19	42075.81
626.34	41797.29
626.49	42106.24
626.65	41895.59
626.80	42096.88
626.95	42192.84
627.10	42251.35
627.25	41949.42
627.40	41769.20
627.55	41731.75
627.70	41514.08
627.85	41612.38
628.00	41808.99
628.15	42223.26
628.30	41511.74
628.45	42038.36
628.60	41565.57
628.76	41474.29
628.91	41935.38
629.06	41736.43
629.21	41750.48
629.36	41762.18
629.51	41720.05
629.66	41954.10
629.81	41596.00
629.96	41565.57
630.11	41284.71
630.26	41579.62
630.41	41851.12
630.56	41354.93
630.71	41198.11
630.86	41633.45
631.01	40821.28
631.16	41240.24
631.31	40917.25
631.46	40896.18
631.61	40996.82
631.76	40900.86
631.91	41584.30
632.06	41045.97
632.21	41280.03
632.36	41155.98
632.51	41256.62
632.66	41223.86
632.81	40598.93
632.96	40882.14
633.10	40521.69
633.25	40926.61
633.40	40947.67
633.55	41153.64
633.70	41055.34
633.85	40769.79
634.00	40800.22
634.15	40774.47
634.30	40882.14
634.45	40605.95
634.60	40722.98
634.75	40540.42
634.90	40856.39
635.05	40821.28
635.19	40685.53
635.34	40940.65
635.49	40524.04
635.64	40643.40
635.79	40547.44
635.94	40535.74
636.09	40355.52
636.24	40048.91
636.39	40299.34
636.53	40245.51
636.68	39971.67
636.83	40154.23
636.98	40100.40
637.13	39936.56
637.28	40758.09
637.43	40655.11
637.57	40615.32
637.72	40385.94
637.87	40163.59
638.02	40561.48
638.17	40011.46
638.32	39985.71
638.46	39852.30
638.61	40184.66
638.76	39681.44
638.91	39559.73
639.06	39435.69
639.20	39847.62
639.35	40170.61
639.50	39639.31
639.65	40538.08
639.80	39894.43
639.94	40098.06
640.09	39641.65
640.24	39566.76
640.39	39442.71
640.54	39529.31
640.68	40191.68
640.83	39995.07
640.98	39782.09
641.13	39402.92
641.27	39908.47
641.42	39711.87
641.57	39342.06
641.72	39587.82
641.86	39131.42
642.01	39325.68
642.16	39653.36
642.31	39056.52
642.45	39601.86
642.60	39196.95
642.75	39126.74
642.90	39281.21
643.04	38850.55
643.19	39253.12
643.34	39377.17
643.48	39494.20
643.63	38953.54
643.78	38988.64
643.93	38831.83
644.07	39363.13
644.22	39044.82
644.37	39159.50
644.51	38890.34
644.66	39079.92
644.81	38904.38
644.95	39068.22
645.10	39253.12
645.25	38969.92
645.39	39367.81
645.54	39285.89
645.69	38995.67
645.83	39019.07
645.98	38581.39
646.13	39089.29
646.27	39288.23
646.42	38429.26
646.57	38904.38
646.71	38946.51
646.86	38752.25
647.00	38859.91
647.15	38756.93
647.30	38869.28
647.44	38974.60
647.59	38663.31
647.74	38443.30
647.88	38738.21
648.03	38579.05
648.17	38251.38
648.32	38361.38
648.47	38623.52
648.61	38733.53
648.76	38274.78
648.90	38239.67
649.05	37937.74
649.20	38349.68
649.34	38590.75
649.49	38293.50
649.63	38295.85
649.78	37970.51
649.92	38087.54
650.07	38845.87
650.21	37689.65
650.36	38122.65
650.51	37577.30
650.65	38366.06
650.80	38602.46
650.94	38490.11
651.09	37797.31
651.23	38216.27
651.38	37895.61
651.52	37666.24
651.67	37895.61
651.81	37935.40
651.96	37581.98
652.10	37542.19
652.25	37701.35
652.39	37490.70
652.54	37502.40
652.68	37734.12
652.83	37673.26
652.97	37654.54
653.12	37897.95
653.26	37514.11
653.41	37993.92
653.55	37289.42
653.70	37392.40
653.84	37570.28
653.99	37549.21
654.13	37706.03
654.27	37390.06
654.42	37521.13
654.56	37436.87
654.71	37471.98
654.85	37614.75
655.00	37109.19
655.14	37041.32
655.29	37029.62
655.43	37411.12
655.57	37153.66
655.72	36669.17
655.86	37167.71
656.01	37029.62
656.15	37221.54
656.30	36685.56
656.44	36821.31
656.58	36664.49
656.73	36774.50
656.87	36666.83
657.01	36842.37
657.16	36627.04
657.30	36521.72
657.45	36510.02
657.59	36755.77
657.73	36444.48
657.88	36968.76
658.02	36362.56
658.16	36641.09
658.31	36587.25
658.45	37216.86
658.60	36130.85
658.74	36989.83
658.88	36779.18
659.03	35995.10
659.17	36233.83
659.31	35995.10
659.46	36322.77
659.60	36397.67
659.74	35849.99
659.89	35789.13
660.03	35920.20
660.17	36112.13
660.32	36114.47
660.46	36432.78
660.60	36247.88
660.74	35976.37
660.89	35749.34
661.03	35435.71
661.17	35564.44
661.32	35515.29
661.46	35950.63
661.60	35302.30
661.74	35594.87
661.89	35503.59
662.03	35337.41
662.17	35206.34
662.31	35047.18
662.46	35585.50
662.60	35601.89
662.74	35730.62
662.88	34923.13
663.03	35173.57
663.17	35639.34
663.31	35285.92
663.45	35349.11
663.60	35096.33
663.74	34998.03
663.88	34883.34
664.02	34412.90
664.17	35023.78
664.31	34448.00
664.45	34845.90
664.59	34850.58
664.73	34293.53
664.88	34459.71
665.02	34426.94
665.16	34501.84
665.30	34625.89
665.44	34354.38
665.59	34033.73
665.73	34487.79
665.87	34199.91
666.01	34473.75
666.15	33979.90
666.29	34363.75
666.44	34464.39
666.58	34007.98
666.72	34087.56
666.86	34169.48
667.00	33853.51
667.14	33963.51
667.28	33989.26
667.43	33731.80
667.57	33596.05
667.71	33319.87
667.85	33769.25
667.99	33474.34
668.13	33329.23
668.27	33287.10
668.41	33448.60
668.56	32919.63
668.70	33441.57
668.84	33495.41
668.98	32851.76
669.12	33104.54
669.26	32921.98
669.40	33017.94
669.54	32652.81
669.68	32589.62
669.82	32847.08
669.96	32488.98
670.10	32547.49
670.25	32760.48
670.39	32744.09
670.53	32526.42
670.67	32587.28
670.81	32666.86
670.95	32285.35
671.09	32554.51
671.23	32301.73
671.37	32453.87
671.51	31835.97
671.65	32397.70
671.79	31735.32
671.93	31878.10
672.07	32123.85
672.21	31791.50
672.35	32067.68
672.49	31859.37
672.63	31840.65
672.77	31845.33
672.91	31346.79
673.05	31864.05
673.19	31484.89
673.33	31126.78
673.47	31276.58
673.61	30958.27
673.75	30740.60
673.89	31049.55
674.03	30717.19
674.17	30504.20
674.31	30614.21
674.45	30733.57
674.59	30822.51
674.73	31023.80
674.87	30885.71
675.01	30771.02
675.15	30476.12
675.29	30602.50
675.43	30387.18
675.56	30501.86
675.70	30235.04
675.84	30433.99
675.98	29252.02
676.12	29984.60
676.26	29874.60
676.40	30073.54
676.54	30054.82
676.68	30012.69
676.82	29039.03
676.96	28940.72
677.10	28945.41
677.23	29294.14
677.37	29046.05
677.51	29249.67
677.65	29160.73
677.79	28842.42
677.93	28903.28
678.07	29036.69
678.21	28418.78
678.34	28573.26
678.48	28650.50
678.62	28577.94
678.76	28065.36
678.90	28474.96
679.04	28088.77
679.18	27903.87
679.31	28074.73
679.45	27761.09
679.59	27704.92
679.73	27477.89
679.87	27606.62
680.00	28334.53
680.14	27922.59
680.28	27295.33
680.42	27435.76
680.56	27576.19
680.70	27349.16
680.83	26888.07
680.97	27171.28
681.11	27049.57
681.25	26670.40
681.39	26845.94
681.52	26890.41
681.66	26764.03
681.80	26558.06
681.94	26354.43
682.07	26588.49
682.21	26094.63
682.35	25961.22
682.49	26412.95
682.62	26206.98
682.76	25816.11
682.90	25895.69
683.04	26059.52
683.17	25867.60
683.31	25626.53
683.45	25483.75
683.59	25654.61
683.72	25163.10
683.86	25113.95
684.00	25230.98
684.13	25228.63
684.27	25191.19
684.41	25076.50
684.55	24671.59
684.68	24662.22
684.82	24568.60
684.96	24713.72
685.09	24629.46
685.23	24704.35
685.37	24507.75
685.50	24095.82
685.64	24278.38
685.78	24404.77
685.91	24184.76
686.05	24063.05
686.19	23733.03
686.32	23978.79
686.46	23482.59
686.60	23367.91
686.73	23187.69
686.87	23386.63
687.01	23239.18
687.14	22974.70
687.28	23030.87
687.42	23145.56
687.55	23051.94
687.69	22810.86
687.82	22649.36
687.96	22782.77
688.10	22939.59
688.23	22520.63
688.37	22455.10
688.50	22277.22
688.64	22073.59
688.78	22146.15
688.91	22071.25
689.05	22270.20
689.18	21930.82
689.32	21774.00
689.46	21788.05
689.59	21895.71
689.73	22183.60
689.86	21790.39
690.00	21507.18
690.13	21832.52
690.27	21369.09
690.41	21439.31
690.54	21177.17
690.68	21186.53
690.81	20936.09
690.95	21163.12
691.08	20952.48
691.22	21071.84
691.35	20781.62
691.49	20699.70
691.62	20769.91
691.76	20790.98
691.89	20549.90
692.03	20343.94
692.16	20676.29
692.30	20680.97
692.43	20332.23
692.57	20070.09
692.70	20149.67
692.84	19964.77
692.97	19747.10
693.11	19590.28
693.24	19597.31
693.38	19442.83
693.51	19344.53
693.65	19410.06
693.78	19513.05
693.92	19187.71
694.05	19389.00
694.19	18993.45
694.32	18867.06
694.45	19206.44
694.59	19047.28
694.72	18684.50
694.86	18698.54
694.99	18614.28
695.13	18239.79
695.26	18221.07
695.39	18092.34
695.53	18417.68
695.66	18214.05
695.80	18207.03
695.93	18380.23
696.07	18104.04
696.20	18295.97
696.33	18052.55
696.47	17561.04
696.60	18120.43
696.73	17930.84
696.87	17694.45
697.00	17535.29
697.14	17900.42
697.27	17539.97
697.40	17322.30
697.54	17163.15
697.67	17039.10
697.80	17085.91
697.94	16915.05
698.07	17106.98
698.21	16767.60
698.34	16903.35
698.47	16554.61
698.61	16678.66
698.74	16524.18
698.87	16849.52
699.01	16362.69
699.14	16315.87
699.27	16163.74
699.40	16297.15
699.54	16154.38
699.67	15967.13
699.80	16037.35
699.94	15941.39
700.07	16002.24
700.20	16042.03
700.34	15702.65
700.47	15583.29
700.60	15815.00
700.73	16016.29
700.87	15499.03
701.00	15648.82
701.13	15438.17
701.26	15564.56
701.40	15262.63
701.53	15323.49
701.66	14965.39
701.79	15131.56
701.93	15037.94
702.06	15023.90
702.19	14703.25
702.32	14803.89
702.46	14600.26
702.59	14937.30
702.72	14864.74
702.85	14633.03
702.99	14623.67
703.12	14609.62
703.25	14532.39
703.38	14586.22
703.51	14141.52
703.65	14235.14
703.78	14141.52
703.91	14204.71
704.04	14029.17
704.17	13968.32
704.31	13818.52
704.44	13486.17
704.57	13675.75
704.70	13369.14
704.83	13420.63
704.96	13462.76
705.10	13673.41
705.23	13933.21
>>>>>End Processed Spectral Data<<<<<
