SpectraSuite Data File
++++++++++++++++++++++++++++++++++++
Date: Fri Oct 25 10:48:25 EDT 2013
User: price-jones
Dark Spectrum Present: No
Reference Spectrum Present: No
Number of Sampled Component Spectra: 1
Spectrometers: USB2+H05261
Integration Time (usec): 100000 (USB2+H05261)
Spectra Averaged: 1 (USB2+H05261)
Boxcar Smoothing: 0 (USB2+H05261)
Correct for Electrical Dark: No (USB2+H05261)
Strobe/Lamp Enabled: No (USB2+H05261)
Correct for Detector Non-linearity: No (USB2+H05261)
Correct for Stray Light: No (USB2+H05261)
Number of Pixels in Processed Spectrum: 2048
>>>>>Begin Processed Spectral Data<<<<<
365.73	156.82
365.92	156.82
366.12	156.82
366.32	105.32
366.52	18.72
366.72	0.00
366.91	67.88
367.11	117.03
367.31	0.00
367.51	58.51
367.70	77.24
367.90	14.04
368.10	9.36
368.30	35.11
368.49	72.56
368.69	65.54
368.89	53.83
369.09	37.45
369.28	93.62
369.48	49.15
369.68	77.24
369.87	114.69
370.07	105.32
370.27	201.29
370.47	231.71
370.66	351.08
370.86	360.44
371.06	409.59
371.25	447.04
371.45	482.15
371.65	559.39
371.84	400.23
372.04	423.64
372.24	519.60
372.44	524.28
372.63	519.60
372.83	580.45
373.03	491.51
373.22	484.49
373.42	559.39
373.62	585.13
373.81	535.98
374.01	550.03
374.21	592.16
374.40	606.20
374.60	622.58
374.79	545.34
374.99	622.58
375.19	643.65
375.38	631.94
375.58	624.92
375.78	601.52
375.97	550.03
376.17	676.41
376.37	585.13
376.56	655.35
376.76	601.52
376.95	578.11
377.15	608.54
377.35	711.52
377.54	514.92
377.74	662.37
377.93	678.76
378.13	645.99
378.33	688.12
378.52	657.69
378.72	645.99
378.91	706.84
379.11	580.45
379.31	589.82
379.50	690.46
379.70	636.63
379.89	699.82
380.09	669.39
380.28	716.20
380.48	653.01
380.68	685.78
380.87	669.39
381.07	706.84
381.26	711.52
381.46	706.84
381.65	807.48
381.85	732.59
382.04	711.52
382.24	622.58
382.43	704.50
382.63	699.82
382.83	655.35
383.02	720.88
383.22	751.31
383.41	737.27
383.61	730.25
383.80	727.91
384.00	760.67
384.19	739.61
384.39	805.14
384.58	767.70
384.78	807.48
384.97	835.57
385.17	856.64
385.36	795.78
385.56	868.34
385.75	805.14
385.95	887.06
386.14	922.17
386.34	858.98
386.53	905.79
386.72	807.48
386.92	765.36
387.11	894.08
387.31	915.15
387.50	856.64
387.70	926.85
387.89	847.27
388.09	875.36
388.28	863.66
388.48	812.17
388.67	936.21
388.86	997.07
389.06	964.30
389.25	1053.24
389.45	1029.84
389.64	919.83
389.84	983.02
390.03	959.62
390.22	1050.90
390.42	1011.11
390.61	1043.88
390.81	1060.26
391.00	952.60
391.19	1128.14
391.39	1041.54
391.58	1048.56
391.78	1102.39
391.97	1043.88
392.16	1008.77
392.36	1139.84
392.55	1034.52
392.75	1001.75
392.94	1015.79
393.13	971.32
393.33	966.64
393.52	1111.75
393.71	1078.99
393.91	1034.52
394.10	1046.22
394.29	1086.01
394.49	1114.10
394.68	1163.25
394.88	1179.63
395.07	1172.61
395.26	1128.14
395.46	1207.72
395.65	1252.19
395.84	1165.59
396.04	1256.87
396.23	1259.21
396.42	1104.73
396.62	1217.08
396.81	1100.05
397.00	1221.76
397.19	1348.15
397.39	1275.59
397.58	1334.11
397.77	1259.21
397.97	1284.95
398.16	1383.26
398.35	1439.43
398.55	1294.32
398.74	1462.83
398.93	1439.43
399.12	1434.75
399.32	1373.89
399.51	1479.22
399.70	1446.45
399.90	1434.75
400.09	1488.58
400.28	1481.56
400.47	1493.26
400.67	1570.50
400.86	1577.52
401.05	1607.95
401.24	1650.08
401.44	1598.59
401.63	1575.18
401.82	1685.19
402.01	1661.78
402.21	1706.25
402.40	1675.82
402.59	1614.97
402.78	1696.89
402.97	1732.00
403.17	1699.23
403.36	1748.38
403.55	1699.23
403.74	1727.32
403.93	1830.30
404.13	1842.00
404.32	1851.36
404.51	1804.55
404.70	1797.53
404.89	1846.68
405.09	1739.02
405.28	1893.49
405.47	1930.94
405.66	1944.99
405.85	1881.79
406.05	1837.32
406.24	1846.68
406.43	1804.55
406.62	1961.37
406.81	1888.81
407.00	2031.58
407.20	1916.90
407.39	1982.43
407.58	1921.58
407.77	2033.93
407.96	2092.44
408.15	2214.15
408.34	2143.93
408.54	2176.70
408.73	2197.76
408.92	2207.13
409.11	2101.80
409.30	2165.00
409.49	2129.89
409.68	2155.63
409.87	2153.29
410.07	2223.51
410.26	2237.55
410.45	2366.28
410.64	2394.37
410.83	2359.26
411.02	2441.18
411.21	2375.64
411.40	2420.11
411.59	2438.84
411.78	2530.12
411.98	2455.22
412.17	2626.08
412.36	2506.71
412.55	2567.57
412.74	2614.38
412.93	2733.75
413.12	2609.70
413.31	2715.02
413.50	2757.15
413.69	2719.70
413.88	2775.88
414.07	2841.41
414.26	2794.60
414.45	2871.84
414.64	2834.39
414.83	2862.48
415.02	2995.89
415.22	3016.95
415.41	2937.37
415.60	2888.22
415.79	3117.59
415.98	3222.92
416.17	3066.10
416.36	3061.42
416.55	3070.78
416.74	3187.81
416.93	3215.90
417.12	3192.49
417.31	3082.49
417.50	3164.40
417.69	3466.33
417.88	3169.09
418.07	3251.00
418.26	3307.18
418.45	3515.48
418.64	3496.76
418.83	3414.84
419.02	3412.50
419.21	3513.14
419.39	3463.99
419.58	3454.63
419.77	3452.29
419.96	3623.15
420.15	3714.43
420.34	3501.44
420.53	3595.06
420.72	3576.34
420.91	3665.28
421.10	3583.36
421.29	3742.52
421.48	3590.38
421.67	3742.52
421.86	3707.41
422.05	3719.11
422.24	3618.47
422.43	3735.50
422.61	3592.72
422.80	3929.76
422.99	3768.26
423.18	3676.98
423.37	3798.69
423.56	3775.28
423.75	3796.35
423.94	3712.09
424.13	3471.01
424.32	3499.10
424.50	3761.24
424.69	3990.61
424.88	3950.82
425.07	3775.28
425.26	3791.67
425.45	3770.60
425.64	3742.52
425.83	3805.71
426.01	3908.69
426.20	3885.29
426.39	3779.97
426.58	3779.97
426.77	3721.45
426.96	3850.18
427.15	3826.78
427.33	3957.85
427.52	3885.29
427.71	4051.47
427.90	3953.16
428.09	3934.44
428.28	4016.36
428.46	4072.53
428.65	4030.40
428.84	4117.00
429.03	4215.30
429.22	4028.06
429.40	4079.55
429.59	4058.49
429.78	3810.39
429.97	3819.75
430.16	3913.38
430.34	4049.13
430.53	4011.68
430.72	4109.98
430.91	4201.26
431.10	4322.97
431.28	4400.21
431.47	4477.44
431.66	4449.36
431.85	4290.20
432.03	4482.13
432.22	4437.66
432.41	4337.01
432.60	4517.23
432.79	4447.02
432.97	4447.02
433.16	4528.94
433.35	4477.44
433.54	4542.98
433.72	4493.83
433.91	4470.42
434.10	4601.49
434.28	4678.73
434.47	4788.74
434.66	4784.06
434.85	4823.84
435.03	4826.18
435.22	4741.93
435.41	4884.70
435.59	4943.21
435.78	4940.87
435.97	4833.21
436.16	4844.91
436.34	4931.51
436.53	5029.81
436.72	5013.43
436.90	4915.12
437.09	4910.44
437.28	5043.85
437.46	4954.91
437.65	5055.56
437.84	5109.39
438.02	4959.60
438.21	5008.75
438.40	4826.18
438.58	5018.11
438.77	5266.21
438.96	5247.48
439.14	5397.28
439.33	5448.77
439.52	5399.62
439.70	5380.89
439.89	5376.21
440.08	5446.43
440.26	5535.37
440.45	5549.41
440.63	5586.86
440.82	5535.37
441.01	5617.29
441.19	5867.72
441.38	5841.98
441.57	5872.40
441.75	5888.79
441.94	6193.06
442.12	5956.66
442.31	6019.86
442.50	6113.48
442.68	5968.37
442.87	6113.48
443.05	6204.76
443.24	6146.25
443.43	6047.94
443.61	6230.51
443.80	6420.09
443.98	6148.59
444.17	5884.11
444.35	6218.80
444.54	6289.02
444.73	6431.79
444.91	6443.49
445.10	6179.01
445.28	6228.17
445.47	6155.61
445.65	6127.52
445.84	6263.27
446.02	6352.21
446.21	6303.06
446.39	6265.61
446.58	6373.28
446.77	6321.79
446.95	6197.74
447.14	6443.49
447.32	6443.49
447.51	6516.05
447.69	6408.39
447.88	6497.33
448.06	6476.26
448.25	6345.19
448.43	6368.60
448.62	6450.52
448.80	6303.06
448.99	6466.90
449.17	6583.93
449.36	6392.00
449.54	6623.72
449.73	6871.81
449.91	6822.66
450.10	6810.96
450.28	6862.45
450.46	6843.73
450.65	6979.48
450.83	6939.69
451.02	7047.35
451.20	7045.01
451.39	6972.46
451.57	7000.54
451.76	6888.20
451.94	6965.43
452.13	6995.86
452.31	7070.76
452.49	6942.03
452.68	6918.62
452.86	6939.69
453.05	7016.93
453.23	6960.75
453.42	7173.74
453.60	6942.03
453.78	7166.72
453.97	7094.16
454.15	7211.19
454.34	7187.79
454.52	7138.63
454.70	7258.00
454.89	7241.62
455.07	7307.15
455.26	7414.82
455.44	7410.14
455.62	7258.00
455.81	7473.33
455.99	7534.18
456.17	7475.67
456.36	7522.48
456.54	7616.10
456.73	7669.94
456.91	7934.42
457.09	7779.94
457.28	8138.04
457.46	7742.49
457.64	7908.67
457.83	7683.98
458.01	7693.34
458.19	8049.10
458.38	7976.55
458.56	8044.42
458.74	7953.14
458.93	7918.03
459.11	7999.95
459.29	7971.86
459.48	8063.15
459.66	7761.22
459.84	8138.04
460.03	8355.71
460.21	8257.41
460.39	8271.45
460.57	8065.49
460.76	8278.47
460.94	8336.99
461.12	8224.64
461.31	8294.86
461.49	8231.66
461.67	8154.43
461.85	8503.17
462.04	8273.79
462.22	8821.48
462.40	8645.94
462.59	8580.40
462.77	8510.19
462.95	8667.00
463.13	8601.47
463.32	8713.81
463.50	8709.13
463.68	8681.05
463.86	8634.24
464.05	8610.83
464.23	8585.08
464.41	8552.32
464.59	8891.70
464.78	9053.19
464.96	8861.27
465.14	8819.14
465.32	8961.91
465.50	8950.21
465.69	9027.45
465.87	8894.04
466.05	8847.22
466.23	8879.99
466.41	9102.34
466.60	8894.04
466.78	8683.39
466.96	9097.66
467.14	8997.02
467.32	9100.00
467.51	9254.48
467.69	9001.70
467.87	9163.20
468.05	9350.44
468.23	8924.46
468.41	9081.28
468.60	9235.75
468.78	9320.01
468.96	9217.03
469.14	9392.57
469.32	9305.97
469.50	9156.18
469.69	9238.09
469.87	9654.71
470.05	9401.93
470.23	9500.23
470.41	9355.12
470.59	9439.38
470.77	9647.69
470.95	9570.45
471.14	9727.27
471.32	9619.60
471.50	9987.07
471.68	9998.77
471.86	10015.15
472.04	10005.79
472.22	10076.01
472.40	9717.90
472.58	9980.04
472.77	10237.50
472.95	10141.54
473.13	10532.41
473.31	10171.97
473.49	10026.86
473.67	10244.52
473.85	10354.53
474.03	10506.66
474.21	10651.78
474.39	10640.08
474.57	10679.86
474.75	10462.19
474.93	10682.20
475.12	10839.02
475.30	10761.78
475.48	10939.66
475.66	10822.64
475.84	11061.37
476.02	10998.18
476.20	11056.69
476.38	11419.47
476.56	11351.60
476.74	11482.67
476.92	11351.60
477.10	11503.73
477.28	11573.95
477.46	11580.97
477.64	11763.53
477.82	11880.56
478.00	11925.03
478.18	12088.87
478.36	12039.72
478.54	12491.44
478.72	12332.28
478.90	12549.95
479.08	12407.18
479.26	12821.45
479.44	12613.15
479.62	12807.41
479.80	12973.59
479.98	12954.87
480.16	13310.63
480.34	13151.47
480.52	13046.15
480.70	13214.66
480.88	13195.94
481.06	13284.88
481.24	13444.04
481.41	13593.83
481.59	13884.06
481.77	13949.59
481.95	13743.63
482.13	14127.47
482.31	14169.60
482.49	14347.48
482.67	14265.57
482.85	14501.96
483.03	14867.08
483.21	14792.19
483.39	14911.55
483.57	14949.00
483.74	15264.97
483.92	14956.02
484.10	15066.03
484.28	15480.30
484.46	15618.39
484.64	16035.01
484.82	15779.89
485.00	15772.87
485.18	15585.63
485.35	15786.91
485.53	15709.68
485.71	15981.18
485.89	16348.64
486.07	15983.52
486.25	16395.45
486.43	16360.34
486.61	16720.79
486.78	16875.26
486.96	16985.27
487.14	17404.22
487.32	17202.94
487.50	17413.59
487.68	17380.82
487.85	17996.38
488.03	18143.83
488.21	18518.32
488.39	18146.17
488.57	18225.75
488.75	18260.86
488.92	18633.00
489.10	18675.13
489.28	18560.45
489.46	18941.96
489.64	19133.88
489.81	19651.14
489.99	19644.12
490.17	19613.69
490.35	19768.16
490.53	19702.63
490.70	20100.52
490.88	19924.98
491.06	20116.90
491.24	19962.43
491.41	19924.98
491.59	20376.70
491.77	20095.84
491.95	20161.37
492.13	20795.66
492.30	20847.15
492.48	20765.23
492.66	21350.37
492.84	21319.94
493.01	21486.12
493.19	21668.68
493.37	21469.73
493.54	21722.51
493.72	21916.78
493.90	21961.25
494.08	22134.45
494.25	22614.26
494.43	22614.26
494.61	22934.91
494.79	22747.67
494.96	22782.77
495.14	22614.26
495.32	23040.23
495.49	23183.01
495.67	23161.94
495.85	23414.72
496.02	23440.47
496.20	23922.62
496.38	24114.54
496.55	23871.12
496.73	24247.95
496.91	24093.47
497.09	24409.45
497.26	24308.80
497.44	24208.16
497.62	24554.56
497.79	25078.84
497.97	24671.59
498.14	25053.09
498.32	24774.57
498.50	24924.36
498.67	25149.06
498.85	25373.75
499.03	25656.95
499.20	25392.47
499.38	25593.76
499.56	25706.10
499.73	25795.04
499.91	25593.76
500.08	26176.55
500.26	25490.77
500.44	25954.20
500.61	26092.29
500.79	26326.35
500.97	26174.21
501.14	27012.12
501.32	26450.39
501.49	26590.83
501.67	26698.49
501.84	26831.90
502.02	26972.33
502.20	27068.30
502.37	27449.80
502.55	27084.68
502.72	26944.25
502.90	27447.46
503.07	27337.46
503.25	27445.12
503.43	27644.07
503.60	27456.82
503.78	27632.36
503.95	27587.89
504.13	27859.40
504.30	27681.52
504.48	27906.21
504.65	28343.89
504.83	28411.76
505.01	28849.44
505.18	28311.12
505.36	29193.50
505.53	28659.86
505.71	28383.68
505.88	29205.20
506.06	28580.28
506.23	28992.22
506.41	28744.12
506.58	28957.11
506.76	29333.93
506.93	29596.07
507.11	28994.56
507.28	29343.30
507.46	29383.09
507.63	29298.83
507.81	29951.84
507.98	29521.18
508.16	29603.10
508.33	29675.65
508.50	30017.37
508.68	29668.63
508.85	30333.34
509.03	30480.80
509.20	30363.77
509.38	30408.24
509.55	30536.97
509.73	30494.84
509.90	30787.41
510.08	30789.75
510.25	30967.63
510.42	30913.80
510.60	31044.87
510.77	31267.22
510.95	31257.85
511.12	31082.31
511.30	31737.66
511.47	31445.10
511.64	31847.67
511.82	31983.42
511.99	31608.93
512.17	31639.36
512.34	31899.16
512.51	31784.48
512.69	31964.70
512.86	32016.19
513.04	31952.99
513.21	32123.85
513.38	32325.14
513.56	32245.56
513.73	32151.94
513.90	32121.51
514.08	32247.90
514.25	32353.23
514.43	32507.70
514.60	32430.46
514.77	32814.31
514.95	33006.23
515.12	32645.79
515.29	33029.64
515.47	33446.26
515.64	33174.75
515.81	32964.10
515.99	33476.68
516.16	33057.73
516.33	33287.10
516.51	32727.71
516.68	32924.32
516.85	32917.29
517.03	33268.37
517.20	33127.94
517.37	33696.69
517.54	33745.84
517.72	33649.88
517.89	33640.52
518.06	33495.41
518.24	33820.74
518.41	33680.31
518.58	33708.40
518.75	34125.01
518.93	34122.67
519.10	34096.92
519.27	34749.93
519.45	34600.14
519.62	34918.45
519.79	34618.86
519.96	35040.16
520.14	35126.76
520.31	34775.68
520.48	35007.39
520.65	34686.74
520.83	35042.50
521.00	35402.94
521.17	35515.29
521.34	35522.31
521.52	34998.03
521.69	35800.83
521.86	35978.72
522.03	35304.64
522.20	35323.36
522.38	35618.27
522.55	35887.43
522.72	35573.80
522.89	35936.59
523.07	35983.40
523.24	35873.39
523.41	35835.94
523.58	36353.20
523.75	36947.70
523.92	36385.97
524.10	36507.68
524.27	36943.02
524.44	36561.51
524.61	36378.95
524.78	37024.93
524.96	36837.69
525.13	36865.78
525.30	36989.83
525.47	37287.07
525.64	36833.01
525.81	37174.73
525.98	37258.99
526.16	36821.31
526.33	36809.61
526.50	37397.08
526.67	36584.91
526.84	37528.15
527.01	37251.97
527.18	37008.55
527.36	37474.32
527.53	37844.12
527.70	37965.83
527.87	37944.76
528.04	37504.74
528.21	37851.14
528.38	38010.30
528.55	37691.99
528.72	37984.55
528.89	38202.22
529.07	38078.18
529.24	37923.70
529.41	38010.30
529.58	38162.43
529.75	37916.68
529.92	38469.04
530.09	38075.84
530.26	38756.93
530.43	38822.47
530.60	38719.48
530.77	38356.70
530.94	38920.77
531.11	38628.20
531.28	38799.06
531.46	39246.10
531.63	39328.02
531.80	38621.18
531.97	38658.63
532.14	38733.53
532.31	38670.33
532.48	38864.60
532.65	39421.64
532.82	39072.90
532.99	39033.11
533.16	38808.42
533.33	39529.31
533.50	39555.05
533.67	39335.04
533.84	39243.76
534.01	39517.60
534.18	39693.15
534.35	40112.10
534.52	39786.77
534.69	39702.51
534.86	39611.23
535.03	39585.48
535.20	40318.07
535.37	40018.48
535.54	40322.75
535.71	39913.16
535.88	39955.29
536.05	39810.17
536.22	40055.93
536.38	40236.15
536.55	40119.12
536.72	40381.26
536.89	40072.31
537.06	40449.14
537.23	40514.67
537.40	40196.36
537.57	40392.97
537.74	40811.92
537.91	40783.83
538.08	40638.72
538.25	40477.22
538.42	40683.19
538.59	41420.46
538.75	40418.71
538.92	40847.03
539.09	40954.69
539.26	40910.22
539.43	40994.48
539.60	40849.37
539.77	40973.42
539.94	41167.68
540.11	40837.67
540.28	41064.70
540.44	41134.92
540.61	40872.78
540.78	41209.81
540.95	41099.81
541.12	41155.98
541.29	41198.11
541.46	41375.99
541.62	41350.24
541.79	41588.98
541.96	41549.19
542.13	41467.27
542.30	41146.62
542.47	41577.28
542.63	41670.90
542.80	41738.77
542.97	42258.37
543.14	42492.43
543.31	42321.57
543.48	42550.94
543.64	42281.78
543.81	42679.67
543.98	42344.97
544.15	42249.01
544.32	42298.16
544.48	42546.26
544.65	42607.11
544.82	42429.23
544.99	42199.86
545.16	42902.02
545.32	42539.24
545.49	42939.47
545.66	42806.06
545.83	43220.33
546.00	43030.75
546.16	42958.19
546.33	42925.42
546.50	42717.12
546.67	42780.31
546.83	42436.25
547.00	42611.79
547.17	42525.19
547.34	42911.38
547.50	43040.11
547.67	43023.73
547.84	42892.66
548.00	43430.98
548.17	43026.07
548.34	43297.57
548.51	43487.15
548.67	43409.92
548.84	43477.79
549.01	43166.50
549.18	43063.52
549.34	43309.27
549.51	43320.98
549.68	43335.02
549.84	43838.23
550.01	43271.82
550.18	43192.25
550.34	43585.46
550.51	43557.37
550.68	43721.21
550.84	43901.43
551.01	43800.79
551.18	43531.62
551.34	43463.75
551.51	43761.00
551.68	43835.89
551.84	43889.73
552.01	43997.39
552.18	43772.70
552.34	43852.28
552.51	44030.16
552.68	43782.06
552.84	44016.11
553.01	44137.82
553.18	44079.31
553.34	43831.21
553.51	43835.89
553.67	44088.67
553.84	44533.37
554.01	44285.28
554.17	44659.76
554.34	44369.54
554.51	44425.71
554.67	44556.78
554.84	44226.76
555.00	44369.54
555.17	44507.63
555.33	44425.71
555.50	44751.04
555.67	44477.20
555.83	44355.49
556.00	44320.38
556.16	44685.51
556.33	44907.86
556.50	44481.88
556.66	44524.01
556.83	44041.86
556.99	44538.05
557.16	44474.86
557.32	45078.72
557.49	44776.79
557.65	44397.62
557.82	44863.39
557.98	44325.07
558.15	44755.72
558.32	44741.68
558.48	44371.88
558.65	44692.53
558.81	45092.76
558.98	44584.86
559.14	44755.72
559.31	44989.78
559.47	45074.04
559.64	44928.92
559.80	45059.99
559.97	44851.69
560.13	45022.54
560.30	45263.62
560.46	45312.77
560.63	45167.66
560.79	45317.45
560.96	45357.24
561.12	45111.49
561.29	44968.71
561.45	44935.95
561.61	45146.59
561.78	45064.67
561.94	44788.49
562.11	44985.10
562.27	45343.20
562.44	45326.81
562.60	45893.22
562.77	45518.74
562.93	45223.83
563.10	45535.12
563.26	44844.66
563.42	45558.53
563.59	44971.05
563.75	45380.65
563.92	45155.96
564.08	45572.57
564.24	45635.77
564.41	45734.07
564.57	45462.57
564.74	45404.05
564.90	45551.51
565.07	45471.93
565.23	45085.74
565.39	45380.65
565.56	45560.87
565.72	45446.18
565.88	45975.14
566.05	45645.13
566.21	45382.99
566.38	45542.14
566.54	45514.06
566.70	45228.51
566.87	45801.94
567.03	45488.31
567.19	46373.03
567.36	45991.53
567.52	45724.71
567.68	45654.49
567.85	45684.92
568.01	45500.01
568.17	45392.35
568.34	45748.11
568.50	45675.55
568.66	45188.72
568.83	45743.43
568.99	45581.93
569.15	45574.91
569.32	45588.95
569.48	45485.97
569.64	46005.57
569.81	45958.76
569.97	45537.46
570.13	45762.15
570.30	45404.05
570.46	44996.80
570.62	45390.01
570.78	45324.47
570.95	45626.40
571.11	45668.53
571.27	45551.51
571.43	45961.10
571.60	46284.09
571.76	45841.73
571.92	46005.57
572.09	45766.84
572.25	45757.47
572.41	45792.58
572.57	45996.21
572.74	46272.39
572.90	45986.85
573.06	45815.99
573.22	46064.08
573.38	45586.61
573.55	45750.45
573.71	46110.89
573.87	45715.34
574.03	45303.41
574.20	46078.13
574.36	45865.14
574.52	45860.46
574.68	45670.87
574.84	45586.61
575.01	45680.24
575.17	45560.87
575.33	45518.74
575.49	45687.26
575.65	46309.84
575.82	46497.08
575.98	45860.46
576.14	46021.95
576.30	45963.44
576.46	45689.60
576.62	45242.56
576.79	45727.05
576.95	45792.58
577.11	45771.52
577.27	45956.42
577.43	45911.95
577.59	45944.72
577.75	46040.68
577.92	45272.98
578.08	45418.10
578.24	45497.67
578.40	45846.41
578.56	45872.16
578.72	46110.89
578.88	46209.20
579.04	46129.62
579.21	45832.37
579.37	45666.19
579.53	45710.66
579.69	45357.24
579.85	45677.90
580.01	46239.62
580.17	46487.72
580.33	46291.12
580.49	46190.47
580.65	46092.17
580.82	45858.12
580.98	45874.50
581.14	45933.01
581.30	46040.68
581.46	45933.01
581.62	46033.66
581.78	45867.48
581.94	46237.28
582.10	45853.44
582.26	46342.61
582.42	45977.48
582.58	46124.94
582.74	46211.54
582.90	46117.92
583.06	45944.72
583.22	45940.04
583.38	46492.40
583.54	46295.80
583.70	46157.70
583.86	45844.07
584.02	45694.28
584.18	45874.50
584.34	46593.04
584.50	46071.10
584.66	45841.73
584.82	45961.10
584.98	46230.26
585.14	46344.95
585.30	46057.06
585.46	45844.07
585.62	45825.35
585.78	45879.18
585.94	45773.86
586.10	45900.25
586.26	46059.40
586.42	45963.44
586.58	46323.88
586.74	46375.37
586.90	46162.39
587.06	46108.55
587.22	46248.99
587.38	45713.00
587.54	46155.36
587.70	46021.95
587.86	45991.53
588.02	45876.84
588.18	46326.22
588.34	45764.49
588.49	45897.91
588.65	45834.71
588.81	45373.63
588.97	46220.90
589.13	45811.31
589.29	45996.21
589.45	46101.53
589.61	46253.67
589.77	46358.99
589.93	46380.06
590.08	46211.54
590.24	46499.42
590.40	46309.84
590.56	46473.68
590.72	46246.65
590.88	46539.21
591.04	46190.47
591.20	46333.24
591.35	46326.22
591.51	46728.80
591.67	46375.37
591.83	46358.99
591.99	45958.76
592.15	46134.30
592.31	46377.72
592.46	46167.07
592.62	46183.45
592.78	46630.49
592.94	46354.31
593.10	46281.75
593.26	46293.46
593.41	46375.37
593.57	46176.43
593.73	46382.40
593.89	46314.52
594.05	46277.07
594.20	46195.15
594.36	46611.77
594.52	45862.80
594.68	46342.61
594.84	45979.82
594.99	46913.70
595.15	46354.31
595.31	46298.14
595.47	46092.17
595.62	46256.01
595.78	46621.13
595.94	46653.90
596.10	47100.94
596.25	46712.41
596.41	46993.28
596.57	46326.22
596.73	46747.52
596.88	46216.22
597.04	46113.23
597.20	46483.04
597.36	46260.69
597.51	46848.16
597.67	46412.82
597.83	46576.66
597.99	46607.09
598.14	46443.25
598.30	46351.97
598.46	46328.56
598.61	46461.97
598.77	46031.32
598.93	46604.75
599.09	46305.16
599.24	47103.28
599.40	46684.33
599.56	46887.95
599.71	46667.94
599.87	46813.05
600.03	46277.07
600.18	46527.51
600.34	46567.30
600.50	46487.72
600.65	46436.23
600.81	46567.30
600.97	47000.30
601.12	46822.42
601.28	46684.33
601.44	46745.18
601.59	46401.12
601.75	45839.39
601.91	46649.22
602.06	46281.75
602.22	46440.91
602.37	46253.67
602.53	46277.07
602.69	46625.81
602.84	46368.35
603.00	46138.98
603.16	46316.86
603.31	46438.57
603.47	46480.70
603.62	46534.53
603.78	46309.84
603.94	46342.61
604.09	46969.87
604.25	46316.86
604.40	46595.38
604.56	46340.27
604.71	46513.47
604.87	46443.25
605.03	46756.88
605.18	46127.28
605.34	46546.23
605.49	46089.83
605.65	46244.30
605.80	46181.11
605.96	46206.86
606.12	46272.39
606.27	46340.27
606.43	46206.86
606.58	46827.10
606.74	46157.70
606.89	46120.26
607.05	46412.82
607.20	46157.70
607.36	46312.18
607.51	46494.74
607.67	46649.22
607.82	45876.84
607.98	46057.06
608.13	46422.19
608.29	45794.92
608.44	45727.05
608.60	45705.98
608.75	45844.07
608.91	45792.58
609.06	45654.49
609.22	46043.02
609.37	46106.21
609.53	46106.21
609.68	46253.67
609.84	45584.27
609.99	46124.94
610.15	45806.62
610.30	45729.39
610.46	45731.73
610.61	45474.27
610.76	45736.41
610.92	45961.10
611.07	45804.28
611.23	45612.36
611.38	45645.13
611.54	45436.82
611.69	45537.46
611.84	45230.85
612.00	45813.65
612.15	45340.86
612.31	45350.22
612.46	45666.19
612.62	45837.05
612.77	45572.57
612.92	46052.38
613.08	45720.02
613.23	45507.04
613.39	45404.05
613.54	45172.34
613.69	44996.80
613.85	45284.68
614.00	45523.42
614.15	45652.15
614.31	45216.81
614.46	45656.83
614.62	45481.29
614.77	45399.37
614.92	44912.54
615.08	45134.89
615.23	45078.72
615.38	45280.00
615.54	45471.93
615.69	45104.46
615.84	45024.89
616.00	44905.52
616.15	44830.62
616.30	45116.17
616.46	44832.96
616.61	44739.34
616.76	45027.23
616.92	44870.41
617.07	45067.02
617.22	44863.39
617.37	45074.04
617.53	44968.71
617.68	45177.02
617.83	44968.71
617.99	44919.56
618.14	44832.96
618.29	44549.76
618.45	44631.68
618.60	44879.77
618.75	44765.09
618.90	44617.63
619.06	44577.84
619.21	44563.80
619.36	45287.03
619.51	45165.32
619.67	44737.00
619.82	44650.40
619.97	44914.88
620.12	44289.96
620.28	44030.16
620.43	44332.09
620.58	44907.86
620.73	44524.01
620.89	44301.66
621.04	44762.75
621.19	44301.66
621.34	44425.71
621.49	44048.88
621.65	43716.53
621.80	44259.53
621.95	43894.41
622.10	43761.00
622.25	44016.11
622.41	44055.90
622.56	43613.54
622.71	44236.12
622.86	44114.42
623.01	44175.27
623.16	43615.88
623.32	44421.03
623.47	44219.74
623.62	43847.60
623.77	43751.63
623.92	43761.00
624.07	43665.03
624.23	43662.69
624.38	43342.04
624.53	43473.11
624.68	43821.85
624.83	43957.60
624.98	43615.88
625.13	43655.67
625.29	43501.20
625.44	43533.96
625.59	43281.19
625.74	43335.02
625.89	43150.12
626.04	42960.53
626.19	43660.35
626.34	43590.14
626.49	43533.96
626.65	43290.55
626.80	43782.06
626.95	43299.91
627.10	43042.45
627.25	43290.55
627.40	42775.63
627.55	42749.88
627.70	42527.53
627.85	43096.28
628.00	43093.94
628.15	43445.02
628.30	43026.07
628.45	43082.24
628.60	42885.64
628.76	42635.20
628.91	43014.37
629.06	43023.73
629.21	42869.25
629.36	42878.61
629.51	42904.36
629.66	42438.59
629.81	42733.50
629.96	42504.13
630.11	42721.80
630.26	42515.83
630.41	42405.83
630.56	42787.33
630.71	42653.92
630.86	42354.33
631.01	42253.69
631.16	42766.27
631.31	42115.60
631.46	42045.38
631.61	42281.78
631.76	42288.80
631.91	42146.03
632.06	42197.52
632.21	42188.16
632.36	42644.56
632.51	42199.86
632.66	42141.35
632.81	42532.22
632.96	42117.94
633.10	41593.66
633.25	42110.92
633.40	42532.22
633.55	42492.43
633.70	41947.08
633.85	42033.68
634.00	42284.12
634.15	41942.40
634.30	42038.36
634.45	41713.03
634.60	42059.43
634.75	42178.79
634.90	41914.31
635.05	41624.09
635.19	41773.88
635.34	42550.94
635.49	41874.52
635.64	41673.24
635.79	41764.52
635.94	41769.20
636.09	41591.32
636.24	41923.68
636.39	41322.16
636.53	41818.35
636.68	41172.36
636.83	41462.59
636.98	41596.00
637.13	41298.75
637.28	41911.97
637.43	41586.64
637.57	41186.41
637.72	41897.93
637.87	41551.53
638.02	41308.11
638.17	41186.41
638.32	41284.71
638.46	41155.98
638.61	40788.52
638.76	40683.19
638.91	41148.96
639.06	41303.43
639.20	41083.42
639.35	41198.11
639.50	40797.88
639.65	40886.82
639.80	41085.76
639.94	41010.87
640.09	41214.49
640.24	40292.32
640.39	40755.75
640.54	40767.45
640.68	40414.03
640.83	40952.35
640.98	40645.74
641.13	41017.89
641.27	41125.55
641.42	40772.13
641.57	40748.73
641.72	40566.16
641.86	40573.19
642.01	40502.97
642.16	39906.13
642.31	40322.75
642.45	40257.21
642.60	40245.51
642.75	40362.54
642.90	40825.96
643.04	40573.19
643.19	40098.06
643.34	40334.45
643.48	40500.63
643.63	40058.27
643.78	40252.53
643.93	40252.53
644.07	40545.10
644.22	40320.41
644.37	40098.06
644.51	39531.65
644.66	39974.01
644.81	40187.00
644.95	40074.65
645.10	40009.12
645.25	40093.38
645.39	40409.35
645.54	40088.70
645.69	40315.73
645.83	39934.22
645.98	39761.02
646.13	40002.10
646.27	40062.95
646.42	39742.30
646.57	39711.87
646.71	39791.45
646.86	39718.89
647.00	39871.03
647.15	39859.32
647.30	39880.39
647.44	39391.22
647.59	39501.22
647.74	39515.26
647.88	39749.32
648.03	39388.88
648.17	39234.40
648.32	39372.49
648.47	39639.31
648.61	39564.42
648.76	39737.62
648.90	39215.68
649.05	39346.75
649.20	39377.17
649.34	39438.03
649.49	39012.05
649.63	38967.58
649.78	39180.57
649.92	39086.95
650.07	39571.44
650.21	38920.77
650.36	39288.23
650.51	38857.57
650.65	39325.68
650.80	39323.34
650.94	39529.31
651.09	39002.69
651.23	39166.52
651.38	38658.63
651.52	38895.02
651.67	38820.13
651.81	38852.89
651.96	38565.01
652.10	38822.47
652.25	38857.57
652.39	38352.02
652.54	39030.77
652.68	38714.80
652.83	38536.92
652.97	38990.98
653.12	38909.07
653.26	38431.60
653.41	38834.17
653.55	38543.94
653.70	38478.41
653.84	38597.77
653.99	38747.57
654.13	38686.71
654.27	38525.22
654.42	38462.02
654.56	38363.72
654.71	38600.12
654.85	38740.55
655.00	38557.99
655.14	38146.05
655.29	37804.33
655.43	38087.54
655.57	37766.88
655.72	37635.81
655.86	37647.52
656.01	37516.45
656.15	37961.15
656.30	37904.98
656.44	37521.13
656.58	37467.30
656.73	37663.90
656.87	37813.70
657.01	37397.08
657.16	37600.71
657.30	37132.60
657.45	37371.33
657.59	37610.07
657.73	37481.34
657.88	37656.88
658.02	37471.98
658.16	37848.80
658.31	37806.67
658.45	37708.37
658.60	37481.34
658.74	37429.85
658.88	37897.95
659.03	37404.10
659.17	37294.10
659.31	37148.98
659.46	37022.59
659.60	37139.62
659.74	37184.09
659.89	36882.16
660.03	37083.45
660.17	37495.38
660.32	37074.09
660.46	37694.33
660.60	37048.34
660.74	37254.31
660.89	37200.47
661.03	36219.79
661.17	36804.92
661.32	36205.75
661.46	36531.08
661.60	36765.14
661.74	36460.87
661.89	36699.60
662.03	36311.07
662.17	36381.29
662.31	36180.00
662.46	36402.35
662.60	36334.48
662.74	35983.40
662.88	36004.46
663.03	36285.33
663.17	36189.36
663.31	35831.26
663.45	35920.20
663.60	36177.66
663.74	35777.43
663.88	35873.39
664.02	35711.89
664.17	35817.22
664.31	35637.00
664.45	35915.52
664.59	35728.28
664.73	35522.31
664.88	35835.94
665.02	35257.83
665.16	35302.30
665.30	35700.19
665.44	35716.58
665.59	35023.78
665.73	35274.21
665.87	35267.19
666.01	35140.80
666.15	34923.13
666.29	35297.62
666.44	35005.05
666.58	34752.27
666.72	35250.81
666.86	35234.42
667.00	35299.96
667.14	34808.45
667.28	34902.07
667.43	34440.98
667.57	34665.67
667.71	34403.53
667.85	34476.09
667.99	33802.02
668.13	34036.07
668.27	34195.23
668.41	34614.18
668.56	34171.82
668.70	34293.53
668.84	34195.23
668.98	33787.97
669.12	33961.17
669.26	33900.32
669.40	33654.56
669.54	33853.51
669.68	33694.35
669.82	33535.20
669.96	33350.29
670.10	33207.52
670.25	33766.91
670.39	33460.30
670.53	33228.59
670.67	33013.26
670.81	33710.74
670.95	33481.36
671.09	33156.03
671.23	33324.55
671.37	33251.99
671.51	33156.03
671.65	33146.67
671.79	33123.26
671.93	32657.49
672.07	33134.96
672.21	32985.17
672.35	32687.92
672.49	32512.38
672.63	32727.71
672.77	32287.69
672.91	32446.85
673.05	32095.77
673.19	32112.15
673.33	32404.72
673.47	32182.37
673.61	31988.10
673.75	31608.93
673.89	31906.18
674.03	31536.38
674.17	31700.22
674.31	31779.79
674.45	31559.78
674.59	31569.15
674.73	31578.51
674.87	31555.10
675.01	31283.60
675.15	31367.86
675.29	31424.03
675.43	31070.61
675.56	31314.03
675.70	31316.37
675.84	31253.17
675.98	30162.48
676.12	30831.88
676.26	30883.37
676.40	30560.37
676.54	30738.26
676.68	30719.53
676.82	30122.69
676.96	29895.66
677.10	30136.74
677.23	30103.97
677.37	30134.40
677.51	29893.32
677.65	29668.63
677.79	29216.91
677.93	29900.34
678.07	29525.86
678.21	29319.89
678.34	28863.49
678.48	29523.52
678.62	29240.31
678.76	29010.94
678.90	28966.47
679.04	28947.75
679.18	28989.88
679.31	28634.11
679.45	28566.24
679.59	28489.00
679.73	28386.02
679.87	28498.36
680.00	28685.61
680.14	28203.46
680.28	27723.65
680.42	28166.01
680.56	27810.25
680.70	27887.48
680.83	27714.28
680.97	27775.14
681.11	27611.30
681.25	27594.92
681.39	27857.06
681.52	27686.20
681.66	27126.81
681.80	27091.70
681.94	27456.82
682.07	26686.79
682.21	26958.29
682.35	26838.92
682.49	26829.56
682.62	26761.69
682.76	26675.09
682.90	26843.60
683.04	26377.84
683.17	26480.82
683.31	26080.59
683.45	26426.99
683.59	26153.15
683.72	25610.14
683.86	25703.76
684.00	25832.49
684.13	26176.55
684.27	25748.23
684.41	25848.88
684.55	25359.70
684.68	25446.30
684.82	25357.36
684.96	25308.21
685.09	25348.00
685.23	24905.64
685.37	25167.78
685.50	25027.35
685.64	24788.61
685.78	24486.68
685.91	24790.95
686.05	24512.43
686.19	24603.71
686.32	24381.36
686.46	24364.98
686.60	24128.58
686.73	23960.06
686.87	23765.80
687.01	23433.44
687.14	23433.44
687.28	23419.40
687.42	23733.03
687.55	23133.86
687.69	23321.10
687.82	23164.28
687.96	23175.98
688.10	23325.78
688.23	23131.51
688.37	22794.48
688.50	22892.78
688.64	22359.14
688.78	22684.47
688.91	22464.46
689.05	22490.21
689.18	22558.08
689.32	22174.24
689.46	22419.99
689.59	22462.12
689.73	22745.33
689.86	22246.79
690.00	22403.61
690.13	22197.64
690.27	22171.89
690.41	21982.31
690.54	21671.02
690.68	21652.30
690.81	21558.67
690.95	21404.20
691.08	21553.99
691.22	21275.47
691.35	21268.45
691.49	21415.90
691.62	21149.08
691.76	21352.71
691.89	21149.08
692.03	20863.54
692.16	20849.49
692.30	20912.69
692.43	20699.70
692.57	20795.66
692.70	20643.52
692.84	20231.59
692.97	20278.40
693.11	20393.09
693.24	20198.82
693.38	20030.30
693.51	19637.09
693.65	20135.63
693.78	19735.40
693.92	19639.44
694.05	19510.71
694.19	19421.77
694.32	19637.09
694.45	19527.09
694.59	19325.80
694.72	19049.62
694.86	19278.99
694.99	18815.57
695.13	18766.42
695.26	18623.64
695.39	18630.66
695.53	18544.06
695.66	18834.29
695.80	19009.83
695.93	18750.03
696.07	18317.03
696.20	18574.49
696.33	18630.66
696.47	18347.46
696.60	18246.82
696.73	18061.91
696.87	17682.75
697.00	17869.99
697.14	17926.16
697.27	17689.77
697.40	17972.97
697.54	17895.74
697.67	17451.03
697.80	17525.93
697.94	17460.40
698.07	17607.85
698.21	17439.33
698.34	17294.22
698.47	17467.42
698.61	16933.78
698.74	16587.38
698.87	16919.73
699.01	16776.96
699.14	16901.01
699.27	16931.44
699.40	16727.81
699.54	16563.97
699.67	16374.39
699.80	16343.96
699.94	16414.18
700.07	16355.66
700.20	16025.65
700.34	16004.58
700.47	16084.16
700.60	16091.18
700.73	16255.02
700.87	15913.30
701.00	15812.66
701.13	15683.93
701.26	15824.36
701.40	15960.11
701.53	15503.71
701.66	15501.37
701.79	15517.75
701.93	15454.56
702.06	15164.33
702.19	14820.27
702.32	15119.86
702.46	14855.38
702.59	15119.86
702.72	14895.17
702.85	14782.82
702.99	14869.42
703.12	15082.41
703.25	14857.72
703.38	14761.76
703.51	14736.01
703.65	14771.12
703.78	14822.61
703.91	14579.20
704.04	14171.94
704.17	14384.93
704.31	14174.28
704.44	14059.60
704.57	14024.49
704.70	13671.07
704.83	14040.87
704.96	14132.15
705.10	13916.83
705.23	14106.41
>>>>>End Processed Spectral Data<<<<<
