SpectraSuite Data File
++++++++++++++++++++++++++++++++++++
Date: Fri Oct 25 11:33:42 EDT 2013
User: price-jones
Dark Spectrum Present: No
Reference Spectrum Present: No
Number of Sampled Component Spectra: 1
Spectrometers: USB2+H05261
Integration Time (usec): 100000 (USB2+H05261)
Spectra Averaged: 1 (USB2+H05261)
Boxcar Smoothing: 0 (USB2+H05261)
Correct for Electrical Dark: No (USB2+H05261)
Strobe/Lamp Enabled: No (USB2+H05261)
Correct for Detector Non-linearity: No (USB2+H05261)
Correct for Stray Light: No (USB2+H05261)
Number of Pixels in Processed Spectrum: 2048
>>>>>Begin Processed Spectral Data<<<<<
365.73	358.10
365.92	358.10
366.12	358.10
366.32	194.26
366.52	187.24
366.72	217.67
366.91	142.77
367.11	189.58
367.31	126.39
367.51	117.03
367.70	180.22
367.90	208.31
368.10	184.90
368.30	191.92
368.49	166.18
368.69	248.10
368.89	229.37
369.09	191.92
369.28	208.31
369.48	217.67
369.68	212.99
369.87	224.69
370.07	222.35
370.27	290.23
370.47	332.36
370.66	479.81
370.86	512.58
371.06	447.04
371.25	524.28
371.45	498.53
371.65	615.56
371.84	571.09
372.04	512.58
372.24	566.41
372.44	575.77
372.63	615.56
372.83	641.31
373.03	662.37
373.22	554.71
373.42	645.99
373.62	564.07
373.81	608.54
374.01	622.58
374.21	725.57
374.40	615.56
374.60	636.63
374.79	608.54
374.99	587.47
375.19	718.54
375.38	667.05
375.58	662.37
375.78	704.50
375.97	674.07
376.17	725.57
376.37	744.29
376.56	650.67
376.76	781.74
376.95	650.67
377.15	664.71
377.35	674.07
377.54	657.69
377.74	669.39
377.93	638.97
378.13	720.88
378.33	709.18
378.52	660.03
378.72	667.05
378.91	753.65
379.11	746.63
379.31	781.74
379.50	648.33
379.70	704.50
379.89	774.72
380.09	779.40
380.28	622.58
380.48	781.74
380.68	772.38
380.87	748.97
381.07	781.74
381.26	770.04
381.46	777.06
381.65	805.14
381.85	788.76
382.04	819.19
382.24	753.65
382.43	753.65
382.63	786.42
382.83	837.91
383.02	833.23
383.22	849.61
383.41	753.65
383.61	875.36
383.80	802.80
384.00	812.17
384.19	800.46
384.39	861.32
384.58	826.21
384.78	800.46
384.97	800.46
385.17	837.91
385.36	887.06
385.56	840.25
385.75	828.55
385.95	959.62
386.14	903.45
386.34	866.00
386.53	858.98
386.72	924.51
386.92	964.30
387.11	875.36
387.31	940.90
387.50	919.83
387.70	709.18
387.89	901.11
388.09	889.40
388.28	976.00
388.48	950.26
388.67	889.40
388.86	917.49
389.06	947.92
389.25	973.66
389.45	945.58
389.64	908.13
389.84	980.68
390.03	1004.09
390.22	952.60
390.42	926.85
390.61	994.73
390.81	1004.09
391.00	987.71
391.19	1041.54
391.39	1013.45
391.58	1020.47
391.78	1046.22
391.97	931.53
392.16	999.41
392.36	1097.71
392.55	1132.82
392.75	1032.18
392.94	1039.20
393.13	1020.47
393.33	1011.11
393.52	1104.73
393.71	1151.54
393.91	1039.20
394.10	1025.15
394.29	1109.41
394.49	1083.67
394.68	1135.16
394.88	1118.78
395.07	1184.31
395.26	1109.41
395.46	1167.93
395.65	1156.22
395.84	1266.23
396.04	1238.14
396.23	1242.82
396.42	1277.93
396.62	1149.20
396.81	1214.74
397.00	1172.61
397.19	1289.64
397.39	1277.93
397.58	1371.55
397.77	1254.53
397.97	1277.93
398.16	1310.70
398.35	1313.04
398.55	1301.34
398.74	1306.02
398.93	1315.38
399.12	1427.73
399.32	1364.53
399.51	1291.98
399.70	1320.06
399.90	1268.57
400.09	1317.72
400.28	1418.36
400.47	1277.93
400.67	1409.00
400.86	1423.05
401.05	1432.41
401.24	1451.13
401.44	1406.66
401.63	1434.75
401.82	1441.77
402.01	1448.79
402.21	1416.02
402.40	1497.94
402.59	1481.56
402.78	1563.48
402.97	1383.26
403.17	1598.59
403.36	1530.71
403.55	1530.71
403.74	1652.42
403.93	1502.62
404.13	1617.31
404.32	1589.22
404.51	1519.01
404.70	1558.80
404.89	1614.97
405.09	1703.91
405.28	1762.42
405.47	1750.72
405.66	1724.97
405.85	1708.59
406.05	1703.91
406.24	1633.69
406.43	1720.29
406.62	1788.17
406.81	1778.81
407.00	1818.60
407.20	1664.12
407.39	1760.08
407.58	1879.45
407.77	1811.57
407.96	1898.17
408.15	1849.02
408.34	1874.77
408.54	1954.35
408.73	1898.17
408.92	1961.37
409.11	1940.30
409.30	2101.80
409.49	2012.86
409.68	1921.58
409.87	2043.29
410.07	2078.40
410.26	2078.40
410.45	2038.61
410.64	2094.78
410.83	2040.95
411.02	2040.95
411.21	2239.89
411.40	2127.55
411.59	2270.32
411.78	2188.40
411.98	2312.45
412.17	2174.36
412.36	2291.38
412.55	2377.98
412.74	2291.38
412.93	2307.77
413.12	2361.60
413.31	2497.35
413.50	2429.48
413.69	2429.48
413.88	2485.65
414.07	2438.84
414.26	2434.16
414.45	2605.02
414.64	2490.33
414.83	2644.81
415.02	2588.63
415.22	2616.72
415.41	2661.19
415.60	2562.89
415.79	2717.36
415.98	2803.96
416.17	2691.62
416.36	2712.68
416.55	2700.98
416.74	2665.87
416.93	2818.00
417.12	2871.84
417.31	2883.54
417.50	2904.60
417.69	2897.58
417.88	2874.18
418.07	3089.51
418.26	2930.35
418.45	3005.25
418.64	3155.04
418.83	3075.46
419.02	3026.31
419.21	3073.12
419.39	3141.00
419.58	3042.70
419.77	3148.02
419.96	3155.04
420.15	3157.38
420.34	3143.34
420.53	3211.22
420.72	3248.66
420.91	3119.93
421.10	3166.74
421.29	3311.86
421.48	3290.79
421.67	3274.41
421.86	3332.92
422.05	3255.69
422.24	3393.78
422.43	3386.76
422.61	3403.14
422.80	3372.71
422.99	3435.91
423.18	3410.16
423.37	3517.83
423.56	3482.72
423.75	3494.42
423.94	3358.67
424.13	3197.17
424.32	3194.83
424.50	3461.65
424.69	3566.98
424.88	3592.72
425.07	3524.85
425.26	3393.78
425.45	3487.40
425.64	3452.29
425.83	3393.78
426.01	3365.69
426.20	3527.19
426.39	3421.86
426.58	3499.10
426.77	3639.53
426.96	3588.04
427.15	3623.15
427.33	3609.11
427.52	3527.19
427.71	3606.77
427.90	3679.32
428.09	3716.77
428.28	3726.13
428.46	3726.13
428.65	3641.87
428.84	3761.24
429.03	3861.88
429.22	3866.56
429.40	3742.52
429.59	3873.59
429.78	3665.28
429.97	3597.40
430.16	3772.94
430.34	4018.70
430.53	3920.40
430.72	3948.48
430.91	3978.91
431.10	3854.86
431.28	3866.56
431.47	3946.14
431.66	3967.21
431.85	3999.98
432.03	4119.34
432.22	4152.11
432.41	3948.48
432.60	4030.40
432.79	4032.74
432.97	4056.15
433.16	4154.45
433.35	4154.45
433.54	4166.15
433.72	4215.30
433.91	4102.96
434.10	4156.79
434.28	4196.58
434.47	4259.78
434.66	4210.62
434.85	4475.10
435.03	4292.54
435.22	4379.14
435.41	4498.51
435.59	4383.82
435.78	4404.89
435.97	4442.34
436.16	4428.29
436.34	4503.19
436.53	4329.99
436.72	4599.15
436.90	4332.33
437.09	4526.60
437.28	4432.97
437.46	4479.79
437.65	4489.15
437.84	4692.77
438.02	4535.96
438.21	4606.17
438.40	4629.58
438.58	4788.74
438.77	4650.64
438.96	4683.41
439.14	4833.21
439.33	4819.16
439.52	4856.61
439.70	4896.40
439.89	4945.55
440.08	5022.79
440.26	5013.43
440.45	4908.10
440.63	4954.91
440.82	5217.05
441.01	5100.03
441.19	5128.11
441.38	5282.59
441.57	5408.98
441.75	5434.72
441.94	5460.47
442.12	5411.32
442.31	5420.68
442.50	5401.96
442.68	5483.88
442.87	5451.11
443.05	5561.11
443.24	5535.37
443.43	5558.77
443.61	5722.61
443.80	5795.17
443.98	5561.11
444.17	5479.19
444.35	5694.52
444.54	5619.63
444.73	5511.96
444.91	5694.52
445.10	5671.12
445.28	5598.56
445.47	5769.42
445.65	5652.39
445.84	5820.91
446.02	5757.72
446.21	5741.33
446.39	5596.22
446.58	5806.87
446.77	5717.93
446.95	5504.94
447.14	5827.93
447.32	5659.42
447.51	5853.68
447.69	5806.87
447.88	5750.70
448.06	5947.30
448.25	5769.42
448.43	5769.42
448.62	5846.66
448.80	5654.73
448.99	5944.96
449.17	5898.15
449.36	5987.09
449.54	5994.11
449.73	6026.88
449.91	6218.80
450.10	5973.05
450.28	6354.55
450.46	6054.97
450.65	6223.48
450.83	6071.35
451.02	6019.86
451.20	6200.08
451.39	6141.57
451.57	6146.25
451.76	6125.18
451.94	6244.55
452.13	6242.21
452.31	6310.08
452.49	6134.54
452.68	6108.80
452.86	6326.47
453.05	6497.33
453.23	6424.77
453.42	6457.54
453.60	6366.26
453.78	6537.12
453.97	6361.58
454.15	6448.18
454.34	6396.68
454.52	6525.41
454.70	6450.52
454.89	6408.39
455.07	6413.07
455.26	6640.10
455.44	6918.62
455.62	6649.46
455.81	6656.48
455.99	6698.61
456.17	6766.49
456.36	6780.53
456.54	6839.05
456.73	6899.90
456.91	7119.91
457.09	7002.88
457.28	7262.68
457.46	6991.18
457.64	7094.16
457.83	7007.56
458.01	7026.29
458.19	7255.66
458.38	7028.63
458.56	7311.83
458.74	7148.00
458.93	7208.85
459.11	7368.01
459.29	7389.07
459.48	7222.89
459.66	7314.17
459.84	7375.03
460.03	7492.05
460.21	7389.07
460.39	7206.51
460.57	7478.01
460.76	7372.69
460.94	7641.85
461.12	7506.10
461.31	7515.46
461.49	7379.71
461.67	7733.13
461.85	7791.64
462.04	7761.22
462.22	8109.96
462.40	7875.90
462.59	7637.17
462.77	7782.28
462.95	7838.45
463.13	7873.56
463.32	7929.74
463.50	7962.50
463.68	8046.76
463.86	7981.23
464.05	7861.86
464.23	8189.53
464.41	8021.02
464.59	8030.38
464.78	8044.42
464.96	8173.15
465.14	7983.57
465.32	7974.21
465.50	8269.11
465.69	8238.69
465.87	8283.16
466.05	8205.92
466.23	8231.66
466.41	8264.43
466.60	8327.63
466.78	8135.70
466.96	8194.22
467.14	8114.64
467.32	8386.14
467.51	8430.61
467.69	8147.40
467.87	8379.12
468.05	8475.08
468.23	8393.16
468.41	8208.26
468.60	8535.93
468.78	8608.49
468.96	8449.33
469.14	8746.58
469.32	8997.02
469.50	8430.61
469.69	8547.64
469.87	8580.40
470.05	8678.71
470.23	8861.27
470.41	8788.71
470.59	8819.14
470.77	8896.38
470.95	8957.23
471.14	8997.02
471.32	8807.44
471.50	9043.83
471.68	9219.37
471.86	9275.54
472.04	9078.94
472.22	9366.82
472.40	9327.03
472.58	9191.28
472.77	9350.44
472.95	9191.28
473.13	9659.39
473.31	9385.55
473.49	9612.58
473.67	9563.43
473.85	9525.98
474.03	9830.25
474.21	9778.76
474.39	9804.50
474.57	9776.42
474.75	9982.38
474.93	10143.88
475.12	9846.63
475.30	9956.64
475.48	9958.98
475.66	10017.49
475.84	10052.60
476.02	10303.04
476.20	10373.25
476.38	10539.43
476.56	10661.14
476.74	10623.69
476.92	10265.59
477.10	10546.45
477.28	10810.93
477.46	10703.27
477.64	10686.89
477.82	10913.92
478.00	11414.79
478.18	11169.04
478.36	11321.17
478.54	11466.28
478.72	11517.78
478.90	11513.10
479.08	11548.20
479.26	11602.04
479.44	11782.26
479.62	11910.99
479.80	12051.42
479.98	11910.99
480.16	12123.98
480.34	12102.91
480.52	12407.18
480.70	12468.03
480.88	12081.85
481.06	12409.52
481.24	12505.48
481.41	12802.73
481.59	12755.92
481.77	12699.75
481.95	13032.10
482.13	13102.32
482.31	12877.63
482.49	13322.33
482.67	13245.09
482.85	13687.45
483.03	13664.05
483.21	13928.53
483.39	13624.26
483.57	13755.33
483.74	13844.27
483.92	13858.31
484.10	13790.44
484.28	14459.83
484.46	14562.81
484.64	14647.07
484.82	14326.42
485.00	14640.05
485.18	15051.99
485.35	15080.07
485.53	15026.24
485.71	15190.08
485.89	15288.38
486.07	15194.76
486.25	15676.91
486.43	15620.74
486.61	15665.21
486.78	15737.76
486.96	16020.97
487.14	15910.96
487.32	16304.17
487.50	16365.03
487.68	16325.24
487.85	16706.74
488.03	16690.36
488.21	17029.74
488.39	16936.12
488.57	16973.56
488.75	17291.88
488.92	17371.46
489.10	17603.17
489.28	17774.03
489.46	18099.36
489.64	17813.82
489.81	18232.77
489.99	18223.41
490.17	18192.98
490.35	18185.96
490.53	18523.00
490.70	18588.53
490.88	18412.99
491.06	18838.97
491.24	19119.84
491.41	19168.99
491.59	19215.80
491.77	19454.53
491.95	19520.07
492.13	19910.94
492.30	19981.15
492.48	19852.42
492.66	20236.27
492.84	20023.28
493.01	20163.72
493.19	20201.16
493.37	20519.48
493.54	20491.39
493.72	20587.35
493.90	20716.08
494.08	20989.92
494.25	21046.10
494.43	21188.87
494.61	21223.98
494.79	21411.22
494.96	21490.80
495.14	21898.05
495.32	21408.88
495.49	21834.86
495.67	21937.84
495.85	21869.97
496.02	22274.88
496.20	22235.09
496.38	22476.16
496.55	22398.93
496.73	22920.87
496.91	22520.63
497.09	22796.82
497.26	23016.83
497.44	23117.47
497.62	23023.85
497.79	23442.81
497.97	23590.26
498.14	23482.59
498.32	23646.43
498.50	23894.53
498.67	24159.01
498.85	23887.51
499.03	23967.09
499.20	24215.18
499.38	24184.76
499.56	24570.94
499.73	24208.16
499.91	24680.95
500.08	25226.29
500.26	24608.39
500.44	24805.00
500.61	24978.20
500.79	24786.27
500.97	25179.48
501.14	25453.33
501.32	25247.36
501.49	25523.54
501.67	25371.41
501.84	25876.96
502.02	25671.00
502.20	25731.85
502.37	26064.21
502.55	25865.26
502.72	25750.57
502.90	25972.92
503.07	25855.90
503.25	26239.75
503.43	26286.56
503.60	26525.29
503.78	26359.11
503.95	26544.02
504.13	26436.35
504.30	26911.48
504.48	26869.35
504.65	26927.86
504.83	27105.74
505.01	27419.38
505.18	27239.15
505.36	27733.01
505.53	27276.60
505.71	27283.62
505.88	27491.93
506.06	27239.15
506.23	27901.53
506.41	27857.06
506.58	27702.58
506.76	28088.77
506.93	28238.56
507.11	27740.03
507.28	28439.85
507.46	28355.59
507.63	28580.28
507.81	28643.48
507.98	28465.60
508.16	28383.68
508.33	28840.08
508.50	28837.74
508.68	29008.60
508.85	29146.69
509.03	29008.60
509.20	29027.32
509.38	29509.47
509.55	29378.40
509.73	29287.12
509.90	29404.15
510.08	29682.67
510.25	29483.73
510.42	30213.98
510.60	30061.84
510.77	30033.75
510.95	30469.09
511.12	29591.39
511.30	30033.75
511.47	30476.12
511.64	30340.36
511.82	30707.83
511.99	30471.43
512.17	30506.54
512.34	30326.32
512.51	31103.38
512.69	30801.45
512.86	30527.61
513.04	31084.65
513.21	31374.88
513.38	31112.74
513.56	31428.71
513.73	31321.05
513.90	31040.18
514.08	31171.25
514.25	31409.99
514.43	31388.92
514.60	32009.17
514.77	31484.89
514.95	32105.13
515.12	31941.29
515.29	32219.81
515.47	31957.67
515.64	32027.89
515.81	32046.62
515.99	32243.22
516.16	32847.08
516.33	32283.01
516.51	32692.60
516.68	32271.31
516.85	32861.12
517.03	32601.32
517.20	33146.67
517.37	32755.80
517.54	32730.05
517.72	33078.79
517.89	33085.81
518.06	33022.62
518.24	33226.24
518.41	33249.65
518.58	33390.08
518.75	33017.94
518.93	33713.08
519.10	33851.17
519.27	33507.11
519.45	33710.74
519.62	33975.22
519.79	33862.87
519.96	33809.04
520.14	34047.77
520.31	33841.81
520.48	34146.08
520.65	33984.58
520.83	34705.46
521.00	34307.57
521.17	34403.53
521.34	34576.73
521.52	34796.74
521.69	34649.29
521.86	34841.21
522.03	34857.60
522.20	35187.61
522.38	35309.32
522.55	35030.80
522.72	34923.13
522.89	35079.95
523.07	35541.03
523.24	35234.42
523.41	35435.71
523.58	35225.06
523.75	35985.74
523.92	35484.86
524.10	35721.26
524.27	35487.20
524.44	35908.50
524.61	36105.10
524.78	35962.33
524.96	36341.50
525.13	35798.49
525.30	36582.57
525.47	36282.98
525.64	36151.91
525.81	36451.50
525.98	36514.70
526.16	36259.58
526.33	36275.96
526.50	36222.13
526.67	36444.48
526.84	36577.89
527.01	36751.09
527.18	36776.84
527.36	36868.12
527.53	37118.56
527.70	37525.81
527.87	37640.50
528.04	37156.00
528.21	37596.03
528.38	36964.08
528.55	37757.52
528.72	36896.20
528.89	36856.42
529.07	37312.82
529.24	37167.71
529.41	37699.01
529.58	37240.26
529.75	37511.77
529.92	38047.75
530.09	37933.06
530.26	37633.47
530.43	38190.52
530.60	37539.85
530.77	37907.32
530.94	38398.83
531.11	37642.84
531.28	38148.39
531.46	38068.81
531.63	38380.10
531.80	38265.42
531.97	38242.01
532.14	38408.19
532.31	38600.12
532.48	38770.97
532.65	38576.71
532.82	38740.55
532.99	38579.05
533.16	38508.83
533.33	38850.55
533.50	39143.12
533.67	39033.11
533.84	38543.94
534.01	38848.21
534.18	39012.05
534.35	39342.06
534.52	39168.87
534.69	39533.99
534.86	39412.28
535.03	39044.82
535.20	39456.75
535.37	39641.65
535.54	39665.06
535.71	39992.73
535.88	39480.16
536.05	39618.25
536.22	40194.02
536.38	39952.94
536.55	39636.97
536.72	40151.89
536.89	39576.12
537.06	39983.37
537.23	40236.15
537.40	39990.39
537.57	39934.22
537.74	40271.26
537.91	40123.80
538.08	40411.69
538.25	40334.45
538.42	40357.86
538.59	40884.48
538.75	40285.30
538.92	40641.06
539.09	40797.88
539.26	40971.08
539.43	40175.30
539.60	40591.91
539.77	40547.44
539.94	41137.26
540.11	41064.70
540.28	40989.80
540.44	41022.57
540.61	41029.59
540.78	40535.74
540.95	41280.03
541.12	40870.43
541.29	41120.87
541.46	41490.68
541.62	41163.00
541.79	41579.62
541.96	41258.96
542.13	41186.41
542.30	41027.25
542.47	41443.87
542.63	41455.57
542.80	41846.44
542.97	42036.02
543.14	41347.90
543.31	42075.81
543.48	41862.82
543.64	42153.05
543.81	41874.52
543.98	42234.97
544.15	42071.13
544.32	41961.12
544.48	42281.78
544.65	42408.17
544.82	42574.34
544.99	42171.77
545.16	42394.12
545.32	42541.58
545.49	42642.22
545.66	42892.66
545.83	42445.62
546.00	42899.68
546.16	42548.60
546.33	42471.36
546.50	42890.32
546.67	43318.64
546.83	42323.91
547.00	43213.31
547.17	42562.64
547.34	42990.96
547.50	43005.00
547.67	43288.21
547.84	42827.12
548.00	43225.01
548.17	43473.11
548.34	43278.85
548.51	43459.07
548.67	43234.38
548.84	43543.33
549.01	43430.98
549.18	43636.95
549.34	43115.01
549.51	43817.17
549.68	43791.42
549.84	43035.43
550.01	43580.78
550.18	43653.33
550.34	43770.36
550.51	43777.38
550.68	43892.07
550.84	43566.73
551.01	43924.83
551.18	43672.06
551.34	43700.14
551.51	43915.47
551.68	44250.17
551.84	44060.58
552.01	43597.16
552.18	44264.21
552.34	44526.35
552.51	44385.92
552.68	43966.96
552.84	44048.88
553.01	44264.21
553.18	44257.19
553.34	44142.50
553.51	44154.21
553.67	44311.02
553.84	44388.26
554.01	44481.88
554.17	44547.42
554.34	44395.28
554.51	44507.63
554.67	45162.98
554.84	44477.20
555.00	45001.48
555.17	44641.04
555.33	44884.45
555.50	44575.50
555.67	44900.84
555.83	44470.18
556.00	44992.12
556.16	45326.81
556.33	44896.16
556.50	44865.73
556.66	45263.62
556.83	45003.82
556.99	45319.79
557.16	45347.88
557.32	45111.49
557.49	45174.68
557.65	44966.37
557.82	44779.13
557.98	45191.06
558.15	45425.12
558.32	45366.60
558.48	44830.62
558.65	45462.57
558.81	45380.65
558.98	44996.80
559.14	45553.85
559.31	45551.51
559.47	45153.62
559.64	45567.89
559.80	45315.11
559.97	45804.28
560.13	45511.72
560.30	45507.04
560.46	45593.64
560.63	45401.71
560.79	45970.46
560.96	45853.44
561.12	46506.44
561.29	45577.25
561.45	45972.80
561.61	45743.43
561.78	45792.58
561.94	45965.78
562.11	45523.42
562.27	46045.36
562.44	45965.78
562.60	46038.34
562.77	45989.19
562.93	45525.76
563.10	46183.45
563.26	45708.32
563.42	46567.30
563.59	46272.39
563.75	45965.78
563.92	46265.37
564.08	45951.74
564.24	46703.05
564.41	46003.23
564.57	45804.28
564.74	46206.86
564.90	45986.85
565.07	46244.30
565.23	46424.53
565.39	46094.51
565.56	46363.67
565.72	46230.26
565.88	46686.67
566.05	46391.76
566.21	46024.29
566.38	46251.33
566.54	46316.86
566.70	46356.65
566.87	46424.53
567.03	46450.27
567.19	46639.86
567.36	46735.82
567.52	46490.06
567.68	46461.97
567.85	46518.15
568.01	46693.69
568.17	46660.92
568.34	46855.18
568.50	46480.70
568.66	46043.02
568.83	46316.86
568.99	46239.62
569.15	46651.56
569.32	46567.30
569.48	46649.22
569.64	46862.21
569.81	46548.57
569.97	46689.01
570.13	46799.01
570.30	46581.34
570.46	46925.40
570.62	46892.63
570.78	47028.38
570.95	46651.56
571.11	46934.76
571.27	46609.43
571.43	46717.09
571.60	46672.62
571.76	46497.08
571.92	46726.46
572.09	46602.41
572.25	46672.62
572.41	46836.46
572.57	46834.12
572.74	47189.88
572.90	47210.95
573.06	47138.39
573.22	46873.91
573.38	46857.52
573.55	47063.49
573.71	47746.93
573.87	47100.94
574.03	46841.14
574.20	47421.59
574.36	46983.91
574.52	46951.15
574.68	47239.03
574.84	47206.26
575.01	47124.35
575.17	47035.41
575.33	46789.65
575.49	47068.17
575.65	47386.49
575.82	47316.27
575.98	47318.61
576.14	47054.13
576.30	47571.39
576.46	47021.36
576.62	46829.44
576.79	47292.86
576.95	46536.87
577.11	47129.03
577.27	47473.09
577.43	47210.95
577.59	47194.56
577.75	47117.32
577.92	47007.32
578.08	47030.72
578.24	47484.79
578.40	47466.06
578.56	47627.56
578.72	47342.02
578.88	47622.88
579.04	47000.30
579.21	47313.93
579.37	47138.39
579.53	47545.64
579.69	47145.41
579.85	47185.20
580.01	46700.71
580.17	47299.89
580.33	47480.11
580.49	47323.29
580.65	47180.52
580.82	46827.10
580.98	47182.86
581.14	46560.28
581.30	47304.57
581.46	47381.80
581.62	47288.18
581.78	46841.14
581.94	47615.86
582.10	47278.82
582.26	47353.72
582.42	47337.33
582.58	47550.32
582.74	47800.76
582.90	47377.12
583.06	47571.39
583.22	47269.46
583.38	47608.84
583.54	47576.07
583.70	47580.75
583.86	47196.90
584.02	47313.93
584.18	48285.25
584.34	47508.19
584.50	47395.85
584.66	47835.87
584.82	47723.52
584.98	47800.76
585.14	47775.02
585.30	47749.27
585.46	47562.03
585.62	47477.77
585.78	47676.71
585.94	46976.89
586.10	47487.13
586.26	47215.63
586.42	47512.88
586.58	47650.97
586.74	47398.19
586.90	47674.37
587.06	47585.43
587.22	47693.10
587.38	47529.26
587.54	47973.96
587.70	47643.94
587.86	47920.13
588.02	47302.23
588.18	47688.42
588.34	47707.14
588.49	47622.88
588.65	47459.04
588.81	47665.01
588.97	47681.39
589.13	47435.64
589.29	47739.91
589.45	48025.45
589.61	47847.57
589.77	47922.47
589.93	47695.44
590.08	48037.16
590.24	47826.51
590.40	48243.12
590.56	48128.44
590.72	47955.24
590.88	47306.91
591.04	47742.25
591.20	47828.85
591.35	47978.64
591.51	48098.01
591.67	47990.34
591.83	47997.37
591.99	47831.19
592.15	47536.28
592.31	47948.21
592.46	47597.13
592.62	48051.20
592.78	48196.31
592.94	48161.20
593.10	48184.61
593.26	48460.79
593.41	48268.87
593.57	48322.70
593.73	48325.04
593.89	47950.56
594.05	48144.82
594.20	47985.66
594.36	48498.24
594.52	48615.27
594.68	48130.78
594.84	48058.22
594.99	48538.03
595.15	48163.54
595.31	48486.54
595.47	47962.26
595.62	48126.10
595.78	47952.90
595.94	48259.51
596.10	47906.08
596.25	48346.11
596.41	48374.19
596.57	48006.73
596.73	48577.82
596.88	48142.48
597.04	47789.06
597.20	48458.45
597.36	48533.35
597.51	48081.63
597.67	48168.22
597.83	48196.31
597.99	48554.41
598.14	48112.05
598.30	48360.15
598.46	47838.21
598.61	48369.51
598.77	48538.03
598.93	48540.37
599.09	48411.64
599.24	48734.63
599.40	48736.98
599.56	48275.89
599.71	48526.33
599.87	48846.98
600.03	48322.70
600.18	48741.66
600.34	48210.35
600.50	48587.18
600.65	48399.94
600.81	48282.91
600.97	48626.97
601.12	48325.04
601.28	48369.51
601.44	48250.14
601.59	48648.03
601.75	48280.57
601.91	48816.55
602.06	47955.24
602.22	48495.90
602.37	48533.35
602.53	48591.86
602.69	48699.53
602.84	48535.69
603.00	48175.25
603.16	48467.81
603.31	48133.12
603.47	48512.28
603.62	48353.13
603.78	48460.79
603.94	48371.85
604.09	48531.01
604.25	48383.55
604.40	48355.47
604.56	48385.89
604.71	48528.67
604.87	48247.80
605.03	48259.51
605.18	48446.75
605.34	48535.69
605.49	48193.97
605.65	48516.96
605.80	48435.05
605.96	48392.92
606.12	48292.27
606.27	48638.67
606.43	48381.21
606.58	48182.27
606.74	48399.94
606.89	48491.22
607.05	48432.71
607.20	48622.29
607.36	48671.44
607.51	48254.82
607.67	48116.73
607.82	47889.70
607.98	48226.74
608.13	47739.91
608.29	48428.02
608.44	48058.22
608.60	47915.45
608.75	47870.98
608.91	48205.67
609.06	48009.07
609.22	48804.85
609.37	48105.03
609.53	48278.23
609.68	48446.75
609.84	47941.19
609.99	47936.51
610.15	48142.48
610.30	48285.25
610.46	47955.24
610.61	47833.53
610.76	48168.22
610.92	48303.98
611.07	47962.26
611.23	47611.18
611.38	48128.44
611.54	47854.59
611.69	48100.35
611.84	48055.88
612.00	48030.13
612.15	47791.40
612.31	48121.41
612.46	47810.12
612.62	47863.96
612.77	47714.16
612.92	48409.30
613.08	47772.67
613.23	47615.86
613.39	47828.85
613.54	47777.36
613.69	48076.94
613.85	47777.36
614.00	47976.30
614.15	47859.27
614.31	47941.19
614.46	47725.86
614.62	47253.08
614.77	47629.90
614.92	47531.60
615.08	47540.96
615.23	47508.19
615.38	47519.90
615.54	47622.88
615.69	47789.06
615.84	47854.59
616.00	47625.22
616.15	47449.68
616.30	47805.44
616.46	47393.51
616.61	47388.83
616.76	47632.24
616.92	47559.69
617.07	47400.53
617.22	47381.80
617.37	47037.75
617.53	47255.42
617.68	47337.33
617.83	47201.58
617.99	47592.45
618.14	47611.18
618.29	47669.69
618.45	47262.44
618.60	47157.11
618.75	47098.60
618.90	47489.47
619.06	47100.94
619.21	47084.56
619.36	47098.60
619.51	47070.51
619.67	46712.41
619.82	47133.71
619.97	47208.61
620.12	46918.38
620.28	47075.19
620.43	47498.83
620.58	47178.18
620.73	46862.21
620.89	47318.61
621.04	47360.74
621.19	47089.24
621.34	47281.16
621.49	46546.23
621.65	46761.56
621.80	46857.52
621.95	47002.64
622.10	47402.87
622.25	47136.05
622.41	47012.00
622.56	46953.49
622.71	46965.19
622.86	46831.78
623.01	46960.51
623.16	46759.22
623.32	46579.00
623.47	46501.76
623.62	47047.11
623.77	46906.68
623.92	46761.56
624.07	46656.24
624.23	46567.30
624.38	46735.82
624.53	46611.77
624.68	46134.30
624.83	46314.52
624.98	46445.59
625.13	46415.16
625.29	46204.52
625.44	46630.49
625.59	46316.86
625.74	46511.13
625.89	46176.43
626.04	46342.61
626.19	46267.71
626.34	46319.20
626.49	45778.54
626.65	45595.98
626.80	46490.06
626.95	46021.95
627.10	45916.63
627.25	46080.47
627.40	46286.43
627.55	46260.69
627.70	45916.63
627.85	46410.48
628.00	46241.96
628.15	46225.58
628.30	45385.33
628.45	46274.73
628.60	45485.97
628.76	45544.48
628.91	45717.68
629.06	45691.94
629.21	45511.72
629.36	45556.19
629.51	45874.50
629.66	45874.50
629.81	45565.55
629.96	45858.12
630.11	45680.24
630.26	45277.66
630.41	45867.48
630.56	45553.85
630.71	45729.39
630.86	45577.25
631.01	45188.72
631.16	45382.99
631.31	45415.76
631.46	45247.24
631.61	45563.21
631.76	45577.25
631.91	45577.25
632.06	45883.86
632.21	45860.46
632.36	45645.13
632.51	44917.22
632.66	45769.18
632.81	45256.60
632.96	45511.72
633.10	44896.16
633.25	45315.11
633.40	45144.25
633.55	45282.34
633.70	45062.33
633.85	45251.92
634.00	44741.68
634.15	45029.57
634.30	44477.20
634.45	44804.88
634.60	45385.33
634.75	45153.62
634.90	44500.61
635.05	45200.43
635.19	44619.97
635.34	44732.32
635.49	44664.44
635.64	44395.28
635.79	44650.40
635.94	44849.35
636.09	44971.05
636.24	44861.05
636.39	44783.81
636.53	44626.99
636.68	44116.76
636.83	44315.70
636.98	44584.86
637.13	44065.27
637.28	43828.87
637.43	44566.14
637.57	44442.09
637.72	44170.59
637.87	44278.25
638.02	44292.30
638.17	44032.50
638.32	44364.85
638.46	44198.68
638.61	43665.03
638.76	44069.95
638.91	44215.06
639.06	43737.59
639.20	43852.28
639.35	43927.17
639.50	43856.96
639.65	44091.01
639.80	44229.10
639.94	44236.12
640.09	44184.63
640.24	44531.03
640.39	43763.34
640.54	43840.57
640.68	43653.33
640.83	43927.17
640.98	43723.55
641.13	43777.38
641.27	44222.08
641.42	43576.09
641.57	43569.07
641.72	44039.52
641.86	43391.19
642.01	43721.21
642.16	43512.90
642.31	43236.72
642.45	43484.81
642.60	43438.00
642.75	43339.70
642.90	43929.51
643.04	43138.41
643.19	43587.80
643.34	42871.59
643.48	42974.58
643.63	42967.55
643.78	43552.69
643.93	43672.06
644.07	43606.52
644.22	43302.25
644.37	43337.36
644.51	43117.35
644.66	43372.47
644.81	43515.24
644.95	43365.45
645.10	43342.04
645.25	43061.18
645.39	42904.36
645.54	43276.51
645.69	42230.29
645.83	42843.51
645.98	42728.82
646.13	43047.13
646.27	42782.65
646.42	42405.83
646.57	43051.81
646.71	43138.41
646.86	42983.94
647.00	42883.30
647.15	43028.41
647.30	42824.78
647.44	42600.09
647.59	42925.42
647.74	42579.03
647.88	42742.86
648.03	43047.13
648.17	43217.99
648.32	42913.72
648.47	42766.27
648.61	42834.14
648.76	42995.64
648.90	42363.70
649.05	42436.25
649.20	42660.94
649.34	42220.92
649.49	42410.51
649.63	42366.04
649.78	42705.41
649.92	42396.46
650.07	43019.05
650.21	42707.76
650.36	43079.90
650.51	42199.86
650.65	42780.31
650.80	42197.52
650.94	42363.70
651.09	42176.45
651.23	42370.72
651.38	41923.68
651.52	41481.31
651.67	41858.14
651.81	42005.59
651.96	42211.56
652.10	41535.15
652.25	41998.57
652.39	41727.07
652.54	42017.30
652.68	42031.34
652.83	41680.26
652.97	42106.24
653.12	41626.43
653.26	41734.09
653.41	41965.81
653.55	42150.71
653.70	41860.48
653.84	42506.47
653.99	42099.22
654.13	41633.45
654.27	41422.80
654.42	41715.37
654.56	41265.99
654.71	42019.64
654.85	41848.78
655.00	41455.57
655.14	41769.20
655.29	41661.54
655.43	41874.52
655.57	41420.46
655.72	41038.95
655.86	41265.99
656.01	41048.32
656.15	41385.35
656.30	41221.52
656.44	41394.71
656.58	41633.45
656.73	41551.53
656.87	41331.52
657.01	40753.41
657.16	41315.14
657.30	41127.89
657.45	41097.47
657.59	40872.78
657.73	40739.36
657.88	40573.19
658.02	41036.61
658.16	40980.44
658.31	40800.22
658.45	40680.85
658.60	41151.30
658.74	40968.74
658.88	40985.12
659.03	40673.83
659.17	40264.24
659.31	40495.95
659.46	40659.79
659.60	40048.91
659.74	40114.44
659.89	39999.76
660.03	40025.50
660.17	40416.37
660.32	40109.76
660.46	39770.38
660.60	40114.44
660.74	40074.65
660.89	40037.20
661.03	39438.03
661.17	39803.15
661.32	39707.19
661.46	39948.26
661.60	40142.53
661.74	39606.55
661.89	39562.08
662.03	39864.00
662.17	39625.27
662.31	40084.01
662.46	39578.46
662.60	39758.68
662.74	39157.16
662.88	38941.83
663.03	39000.35
663.17	38850.55
663.31	38546.28
663.45	39164.18
663.60	39503.56
663.74	38794.38
663.88	38960.56
664.02	39021.41
664.17	39208.65
664.31	38703.10
664.45	38693.74
664.59	39218.02
664.73	38323.93
664.88	38829.49
665.02	38249.03
665.16	38178.82
665.30	38319.25
665.44	38440.96
665.59	38160.09
665.73	38225.63
665.87	37677.94
666.01	38632.88
666.15	37883.91
666.29	37827.74
666.44	38117.96
666.58	38012.64
666.72	37790.29
666.86	37530.49
667.00	37741.14
667.14	37610.07
667.28	37787.95
667.43	37659.22
667.57	38085.20
667.71	37675.60
667.85	37741.14
667.99	37443.89
668.13	37734.12
668.27	37387.72
668.41	37057.70
668.56	36744.07
668.70	36961.74
668.84	36601.30
668.98	36767.48
669.12	37095.15
669.26	37067.06
669.40	37022.59
669.54	36718.32
669.68	36980.46
669.82	36706.62
669.96	36500.65
670.10	36273.62
670.25	36020.84
670.39	36081.70
670.53	36418.74
670.67	36437.46
670.81	36538.10
670.95	35899.14
671.09	35903.82
671.23	35929.56
671.37	35892.12
671.51	36011.48
671.65	35498.91
671.79	35510.61
671.93	35901.48
672.07	35807.86
672.21	35754.02
672.35	35239.11
672.49	34998.03
672.63	35288.26
672.77	35084.63
672.91	34944.20
673.05	35147.82
673.19	35061.22
673.33	35047.18
673.47	35096.33
673.61	34597.80
673.75	34534.60
673.89	34265.44
674.03	34199.91
674.17	34342.68
674.31	34232.68
674.45	33848.83
674.59	33802.02
674.73	34209.27
674.87	33792.65
675.01	33366.68
675.15	33450.94
675.29	33483.70
675.43	33666.27
675.56	33729.46
675.70	33326.89
675.84	33294.12
675.98	32711.33
676.12	33546.90
676.26	33640.52
676.40	32957.08
676.54	33109.22
676.68	32811.97
676.82	32404.72
676.96	33195.82
677.10	33125.60
677.23	32687.92
677.37	32229.18
677.51	32549.83
677.65	32357.91
677.79	32395.35
677.93	31880.44
678.07	32004.49
678.21	31445.10
678.34	31388.92
678.48	31665.11
678.62	31515.31
678.76	31393.61
678.90	31344.45
679.04	31042.53
679.18	31503.61
679.31	31175.94
679.45	30885.71
679.59	30876.35
679.73	31274.24
679.87	30471.43
680.00	30735.92
680.14	30675.06
680.28	30824.86
680.42	30141.42
680.56	30211.64
680.70	29874.60
680.83	29916.73
680.97	29507.13
681.11	29834.81
681.25	29467.34
681.39	29488.41
681.52	29715.44
681.66	28994.56
681.80	28758.16
681.94	29153.71
682.07	28713.69
682.21	28631.77
682.35	28458.57
682.49	29015.62
682.62	28744.12
682.76	28966.47
682.90	28451.55
683.04	28091.11
683.17	28210.48
683.31	27903.87
683.45	28730.08
683.59	28276.01
683.72	27789.18
683.86	27840.67
684.00	27630.02
684.13	27763.43
684.27	27459.16
684.41	27779.82
684.55	27402.99
684.68	27377.25
684.82	27105.74
684.96	27119.79
685.09	26686.79
685.23	27096.38
685.37	27323.41
685.50	27339.80
685.64	26871.69
685.78	26382.52
685.91	26382.52
686.05	26204.64
686.19	25909.73
686.32	25954.20
686.46	26265.49
686.60	25507.16
686.73	25811.43
686.87	25954.20
687.01	25497.80
687.14	25621.84
687.28	25617.16
687.42	25394.81
687.55	25275.45
687.69	25205.23
687.82	24680.95
687.96	25142.03
688.10	24964.15
688.23	24760.53
688.37	24891.60
688.50	24851.81
688.64	24694.99
688.78	24781.59
688.91	24491.37
689.05	24519.45
689.18	24182.42
689.32	23672.18
689.46	23665.16
689.59	23756.44
689.73	24116.88
689.86	24013.90
690.00	23859.42
690.13	23653.45
690.27	23634.73
690.41	23264.92
690.54	22981.72
690.68	23080.02
690.81	23124.49
690.95	23068.32
691.08	23049.60
691.22	22630.64
691.35	22705.54
691.49	23028.53
691.62	22902.14
691.76	22361.48
691.89	22291.26
692.03	21991.67
692.16	21771.66
692.30	22017.42
692.43	21673.36
692.57	21759.96
692.70	21603.14
692.84	21832.52
692.97	21373.77
693.11	21429.94
693.24	21516.54
693.38	21137.38
693.51	21214.62
693.65	21104.61
693.78	20898.64
693.92	20685.65
694.05	21076.52
694.19	20968.86
694.32	20720.76
694.45	21041.42
694.59	20786.30
694.72	20444.58
694.86	20332.23
694.99	20409.47
695.13	20102.86
695.26	19962.43
695.39	19822.00
695.53	19917.96
695.66	19697.95
695.80	19604.33
695.93	19524.75
696.07	19232.18
696.20	19190.05
696.33	18822.59
696.47	19117.50
696.60	18539.38
696.73	18965.36
696.87	18890.46
697.00	18892.80
697.14	18738.33
697.27	18345.12
697.40	18380.23
697.54	18745.35
697.67	18541.72
697.80	18588.53
697.94	18338.10
698.07	18190.64
698.21	18328.74
698.34	17951.91
698.47	18160.22
698.61	17413.59
698.74	17671.04
698.87	17764.67
699.01	17469.76
699.14	17839.56
699.27	17549.34
699.40	17224.00
699.54	17212.30
699.67	17231.02
699.80	17362.09
699.94	16915.05
700.07	17537.63
700.20	17053.14
700.34	16781.64
700.47	16772.28
700.60	16725.47
700.73	16730.15
700.87	16533.54
701.00	16381.41
701.13	16395.45
701.26	16229.27
701.40	16152.04
701.53	15915.64
701.66	16156.72
701.79	16175.44
701.93	15843.09
702.06	15543.50
702.19	15726.06
702.32	15800.96
702.46	15826.70
702.59	15878.19
702.72	15702.65
702.85	15468.60
702.99	15463.92
703.12	15253.27
703.25	15014.54
703.38	15080.07
703.51	14970.07
703.65	14747.72
703.78	14647.07
703.91	14656.43
704.04	14586.22
704.17	14745.38
704.31	14576.86
704.44	14569.83
704.57	14452.81
704.70	14525.36
704.83	14010.45
704.96	14083.00
705.10	14155.56
705.23	13949.59
>>>>>End Processed Spectral Data<<<<<
