SpectraSuite Data File
++++++++++++++++++++++++++++++++++++
Date: Fri Oct 25 10:48:31 EDT 2013
User: price-jones
Dark Spectrum Present: No
Reference Spectrum Present: No
Number of Sampled Component Spectra: 1
Spectrometers: USB2+H05261
Integration Time (usec): 100000 (USB2+H05261)
Spectra Averaged: 1 (USB2+H05261)
Boxcar Smoothing: 0 (USB2+H05261)
Correct for Electrical Dark: No (USB2+H05261)
Strobe/Lamp Enabled: No (USB2+H05261)
Correct for Detector Non-linearity: No (USB2+H05261)
Correct for Stray Light: No (USB2+H05261)
Number of Pixels in Processed Spectrum: 2048
>>>>>Begin Processed Spectral Data<<<<<
365.73	194.26
365.92	194.26
366.12	194.26
366.32	58.51
366.52	18.72
366.72	114.69
366.91	60.85
367.11	37.45
367.31	32.77
367.51	9.36
367.70	23.41
367.90	32.77
368.10	14.04
368.30	39.79
368.49	14.04
368.69	49.15
368.89	84.26
369.09	121.71
369.28	105.32
369.48	131.07
369.68	145.11
369.87	51.49
370.07	112.35
370.27	44.47
370.47	210.65
370.66	400.23
370.86	395.55
371.06	421.30
371.25	550.03
371.45	510.24
371.65	493.85
371.84	451.72
372.04	482.15
372.24	477.47
372.44	500.87
372.63	552.37
372.83	503.22
373.03	559.39
373.22	503.22
373.42	547.69
373.62	517.26
373.81	545.34
374.01	617.90
374.21	674.07
374.40	629.60
374.60	575.77
374.79	599.18
374.99	674.07
375.19	667.05
375.38	624.92
375.58	615.56
375.78	587.47
375.97	622.58
376.17	631.94
376.37	596.84
376.56	580.45
376.76	671.73
376.95	622.58
377.15	641.31
377.35	641.31
377.54	629.60
377.74	671.73
377.93	674.07
378.13	725.57
378.33	685.78
378.52	645.99
378.72	730.25
378.91	702.16
379.11	706.84
379.31	779.40
379.50	765.36
379.70	734.93
379.89	706.84
380.09	648.33
380.28	730.25
380.48	704.50
380.68	697.48
380.87	720.88
381.07	753.65
381.26	791.10
381.46	763.01
381.65	753.65
381.85	746.63
382.04	802.80
382.24	727.91
382.43	767.70
382.63	683.44
382.83	662.37
383.02	758.33
383.22	840.25
383.41	744.29
383.61	746.63
383.80	851.96
384.00	854.30
384.19	767.70
384.39	851.96
384.58	861.32
384.78	833.23
384.97	786.42
385.17	814.51
385.36	779.40
385.56	758.33
385.75	833.23
385.95	840.25
386.14	940.90
386.34	894.08
386.53	905.79
386.72	844.93
386.92	861.32
387.11	873.02
387.31	1020.47
387.50	835.57
387.70	851.96
387.89	929.19
388.09	952.60
388.28	917.49
388.48	882.38
388.67	1006.43
388.86	990.05
389.06	1008.77
389.25	1032.18
389.45	966.64
389.64	980.68
389.84	1095.37
390.03	1022.81
390.22	1025.15
390.42	966.64
390.61	1069.62
390.81	957.28
391.00	1050.90
391.19	1163.25
391.39	999.41
391.58	1095.37
391.78	1067.28
391.97	1039.20
392.16	1081.33
392.36	1146.86
392.55	1055.58
392.75	1062.60
392.94	1093.03
393.13	1093.03
393.33	1121.12
393.52	1114.10
393.71	1102.39
393.91	1074.31
394.10	1139.84
394.29	1181.97
394.49	1188.99
394.68	1259.21
394.88	1245.16
395.07	1242.82
395.26	1259.21
395.46	1273.25
395.65	1420.71
395.84	1205.38
396.04	1212.40
396.23	1163.25
396.42	1228.78
396.62	1247.51
396.81	1256.87
397.00	1301.34
397.19	1331.76
397.39	1317.72
397.58	1324.74
397.77	1387.94
397.97	1434.75
398.16	1502.62
398.35	1479.22
398.55	1373.89
398.74	1521.35
398.93	1598.59
399.12	1549.43
399.32	1537.73
399.51	1537.73
399.70	1556.46
399.90	1600.93
400.09	1659.44
400.28	1781.15
400.47	1717.95
400.67	1734.34
400.86	1617.31
401.05	1689.87
401.24	1607.95
401.44	1806.89
401.63	1753.06
401.82	1732.00
402.01	1781.15
402.21	1776.47
402.40	1757.74
402.59	1802.21
402.78	1860.73
402.97	1783.49
403.17	1799.87
403.36	1830.30
403.55	1877.11
403.74	1923.92
403.93	1893.49
404.13	1926.26
404.32	1865.41
404.51	1837.32
404.70	1949.67
404.89	1849.02
405.09	2073.71
405.28	2003.50
405.47	2040.95
405.66	2045.63
405.85	1942.64
406.05	2101.80
406.24	2101.80
406.43	2064.35
406.62	2080.74
406.81	2190.74
407.00	2176.70
407.20	2069.03
407.39	2073.71
407.58	2265.64
407.77	2237.55
407.96	2242.23
408.15	2251.60
408.34	2235.21
408.54	2326.49
408.73	2331.17
408.92	2328.83
409.11	2352.24
409.30	2289.04
409.49	2286.70
409.68	2237.55
409.87	2249.25
410.07	2403.73
410.26	2406.07
410.45	2450.54
410.64	2406.07
410.83	2490.33
411.02	2579.27
411.21	2572.25
411.40	2518.42
411.59	2567.57
411.78	2637.78
411.98	2609.70
412.17	2654.17
412.36	2698.64
412.55	2780.56
412.74	2792.26
412.93	2792.26
413.12	2663.53
413.31	2977.16
413.50	2803.96
413.69	2871.84
413.88	2944.39
414.07	3038.02
414.26	3061.42
414.45	2984.18
414.64	2981.84
414.83	3070.78
415.02	2958.44
415.22	3115.25
415.41	3143.34
415.60	3183.13
415.79	3157.38
415.98	3185.47
416.17	3251.00
416.36	3178.45
416.55	3363.35
416.74	3368.03
416.93	3368.03
417.12	3248.66
417.31	3424.20
417.50	3361.01
417.69	3517.83
417.88	3346.97
418.07	3393.78
418.26	3574.00
418.45	3478.04
418.64	3672.30
418.83	3646.55
419.02	3693.37
419.21	3688.68
419.39	3513.14
419.58	3634.85
419.77	3480.38
419.96	3606.77
420.15	3595.06
420.34	3777.62
420.53	3747.20
420.72	3779.97
420.91	3887.63
421.10	3758.90
421.29	3854.86
421.48	3892.31
421.67	3988.27
421.86	3714.43
422.05	3899.33
422.24	3791.67
422.43	3915.72
422.61	4002.32
422.80	3911.04
422.99	3873.59
423.18	4011.68
423.37	4091.26
423.56	3927.42
423.75	4086.58
423.94	3929.76
424.13	3609.11
424.32	3782.31
424.50	4049.13
424.69	4049.13
424.88	4147.43
425.07	4025.72
425.26	4058.49
425.45	3969.55
425.64	3995.29
425.83	3913.38
426.01	4168.49
426.20	4191.90
426.39	4121.68
426.58	3934.44
426.77	4037.42
426.96	4081.89
427.15	4107.64
427.33	4058.49
427.52	4182.54
427.71	4184.88
427.90	4107.64
428.09	4051.47
428.28	4173.18
428.46	4173.18
428.65	4112.32
428.84	4386.16
429.03	4346.37
429.22	4138.07
429.40	4334.67
429.59	4329.99
429.78	4035.08
429.97	4009.34
430.16	4084.23
430.34	4128.70
430.53	4273.82
430.72	4297.22
430.91	4322.97
431.10	4367.44
431.28	4692.77
431.47	4603.83
431.66	4779.37
431.85	4617.88
432.03	4634.26
432.22	4809.80
432.41	4557.02
432.60	4629.58
432.79	4610.86
432.97	4826.18
433.16	4650.64
433.35	4545.32
433.54	4772.35
433.72	4795.76
433.91	4737.24
434.10	4847.25
434.28	4718.52
434.47	4863.63
434.66	5116.41
434.85	4854.27
435.03	5008.75
435.22	5027.47
435.41	5235.78
435.59	5083.64
435.78	5109.39
435.97	5160.88
436.16	5203.01
436.34	5151.52
436.53	5313.02
436.72	5345.78
436.90	5224.08
437.09	5177.26
437.28	5214.71
437.46	5420.68
437.65	5214.71
437.84	5310.68
438.02	5198.33
438.21	5247.48
438.40	5198.33
438.58	5451.11
438.77	5455.79
438.96	5331.74
439.14	5504.94
439.33	5657.07
439.52	5823.25
439.70	5537.71
439.89	5764.74
440.08	5689.84
440.26	5715.59
440.45	5947.30
440.63	5902.83
440.82	6029.22
441.01	5921.56
441.19	5980.07
441.38	6310.08
441.57	6197.74
441.75	6291.36
441.94	6452.86
442.12	6436.47
442.31	6483.28
442.50	6427.11
442.68	6340.51
442.87	6286.68
443.05	6382.64
443.24	6569.88
443.43	6424.77
443.61	6567.54
443.80	6696.27
443.98	6586.27
444.17	6289.02
444.35	6679.89
444.54	6637.76
444.73	6668.19
444.91	6633.08
445.10	6677.55
445.28	6567.54
445.47	6387.32
445.65	6487.96
445.84	6658.82
446.02	6647.12
446.21	6548.82
446.39	6485.62
446.58	6689.25
446.77	6890.54
446.95	6633.08
447.14	6867.13
447.32	6949.05
447.51	6853.09
447.69	6778.19
447.88	6813.30
448.06	6778.19
448.25	6698.61
448.43	6719.68
448.62	6778.19
448.80	6768.83
448.99	7068.42
449.17	6822.66
449.36	6944.37
449.54	7206.51
449.73	7110.55
449.91	7316.51
450.10	7199.49
450.28	7260.34
450.46	7485.03
450.65	7157.36
450.83	7337.58
451.02	7276.73
451.20	7492.05
451.39	7260.34
451.57	7129.27
451.76	7122.25
451.94	7248.64
452.13	7360.98
452.31	7379.71
452.49	7318.86
452.68	7314.17
452.86	7365.67
453.05	7426.52
453.23	7447.58
453.42	7412.48
453.60	7438.22
453.78	7534.18
453.97	7534.18
454.15	7405.46
454.34	7274.38
454.52	7627.81
454.70	7616.10
454.89	7538.87
455.07	7679.30
455.26	7700.36
455.44	7744.83
455.62	7772.92
455.81	8042.08
455.99	7789.30
456.17	7955.48
456.36	7852.50
456.54	8119.32
456.73	8166.13
456.91	8182.51
457.09	8257.41
457.28	8386.14
457.46	8124.00
457.64	8196.56
457.83	8152.09
458.01	8241.03
458.19	8332.31
458.38	8196.56
458.56	8388.48
458.74	8327.63
458.93	8549.98
459.11	8568.70
459.29	8439.97
459.48	8645.94
459.66	8444.65
459.84	8704.45
460.03	8491.46
460.21	8620.19
460.39	8713.81
460.57	8692.75
460.76	8500.83
460.94	8585.08
461.12	8739.56
461.31	8718.50
461.49	8751.26
461.67	8814.46
461.85	8957.23
462.04	8840.20
462.22	9397.25
462.40	8980.64
462.59	9034.47
462.77	9036.81
462.95	8947.87
463.13	9055.53
463.32	9050.85
463.50	9111.71
463.68	9104.68
463.86	8982.98
464.05	8938.51
464.23	9069.58
464.41	9109.36
464.59	8933.82
464.78	9207.67
464.96	9135.11
465.14	9188.94
465.32	9270.86
465.50	9345.76
465.69	9434.70
465.87	9366.82
466.05	9240.44
466.23	9301.29
466.41	9245.12
466.60	9516.62
466.78	9184.26
466.96	9373.85
467.14	9556.41
467.32	9600.88
467.51	9846.63
467.69	9245.12
467.87	9504.92
468.05	9675.77
468.23	9437.04
468.41	9490.87
468.60	9722.59
468.78	9832.59
468.96	9554.07
469.14	9818.55
469.32	9846.63
469.50	9542.36
469.69	9881.74
469.87	9870.04
470.05	10129.84
470.23	9958.98
470.41	9867.70
470.59	9998.77
470.77	9907.49
470.95	10305.38
471.14	10391.98
471.32	10073.67
471.50	10317.08
471.68	10408.36
471.86	10553.48
472.04	10406.02
472.22	10939.66
472.40	10366.23
472.58	10504.32
472.77	10661.14
472.95	10679.86
473.13	10857.75
473.31	10764.12
473.49	10609.65
473.67	10647.10
473.85	10867.11
474.03	10883.49
474.21	10899.87
474.39	11162.01
474.57	11082.44
474.75	11112.86
474.93	11435.86
475.12	11253.30
475.30	11370.32
475.48	11379.68
475.66	11578.63
475.84	11393.73
476.02	11566.93
476.20	11276.70
476.38	11662.89
476.56	12070.14
476.74	11918.01
476.92	12023.33
477.10	11922.69
477.28	12023.33
477.46	12215.26
477.64	12250.36
477.82	12559.31
478.00	13041.46
478.18	12627.19
478.36	12688.04
478.54	12898.69
478.72	13041.46
478.90	12924.44
479.08	13092.96
479.26	13214.66
479.44	13444.04
479.62	13535.32
479.80	13355.10
479.98	13640.64
480.16	13858.31
480.34	13841.93
480.52	14045.55
480.70	13738.94
480.88	13884.06
481.06	13940.23
481.24	14249.18
481.41	14438.76
481.59	14700.90
481.77	14609.62
481.95	14672.82
482.13	14588.56
482.31	14698.56
482.49	15110.50
482.67	14941.98
482.85	15180.71
483.03	15365.62
483.21	15585.63
483.39	15742.44
483.57	15616.05
483.74	15669.89
483.92	16081.82
484.10	15742.44
484.28	16147.36
484.46	16477.37
484.64	16671.64
484.82	16271.40
485.00	16486.73
485.18	16528.86
485.35	16739.51
485.53	16332.26
485.71	16453.97
485.89	16678.66
486.07	16718.45
486.25	16833.13
486.43	16994.63
486.61	17259.11
486.78	17855.95
486.96	17696.79
487.14	18150.85
487.32	18228.09
487.50	18445.76
487.68	18361.50
487.85	18853.02
488.03	18597.90
488.21	19129.20
488.39	19030.90
488.57	18956.00
488.75	18796.84
488.92	19431.13
489.10	19517.73
489.28	19822.00
489.46	19950.73
489.64	19793.91
489.81	20276.06
489.99	20524.16
490.17	20353.30
490.35	20683.31
490.53	20610.76
490.70	20805.02
490.88	20891.62
491.06	21149.08
491.24	21212.28
491.41	21247.38
491.59	21420.58
491.77	21078.86
491.95	21282.49
492.13	21869.97
492.30	21785.71
492.48	22169.55
492.66	22082.95
492.84	22218.71
493.01	22778.09
493.19	22199.98
493.37	22649.36
493.54	22696.17
493.72	22572.13
493.90	23192.37
494.08	23133.86
494.25	23321.10
494.43	23604.30
494.61	23864.10
494.79	23669.84
494.96	23726.01
495.14	23962.40
495.32	23920.28
495.49	24088.79
495.67	24563.92
495.85	24622.44
496.02	24514.77
496.20	24734.78
496.38	24954.79
496.55	24603.71
496.73	25579.71
496.91	25010.96
497.09	25212.25
497.26	25509.50
497.44	24978.20
497.62	25483.75
497.79	25481.41
497.97	25635.89
498.14	25802.07
498.32	25818.45
498.50	25954.20
498.67	26078.25
498.85	26309.96
499.03	26574.44
499.20	26654.02
499.38	26712.53
499.56	26937.23
499.73	26934.88
499.91	26604.87
500.08	27082.34
500.26	26852.97
500.44	26827.22
500.61	27351.50
500.79	27159.58
500.97	27513.00
501.14	27742.37
501.32	27119.79
501.49	27592.58
501.67	27737.69
501.84	27840.67
502.02	27786.84
502.20	28086.43
502.37	28336.87
502.55	28371.97
502.72	28451.55
502.90	28177.71
503.07	28156.64
503.25	28409.42
503.43	28629.43
503.60	28744.12
503.78	28772.21
503.95	28985.19
504.13	29172.44
504.30	29177.12
504.48	28994.56
504.65	29179.46
504.83	29624.16
505.01	29645.23
505.18	29364.36
505.36	29544.58
505.53	29804.38
505.71	30024.39
505.88	30272.49
506.06	29713.10
506.23	30375.47
506.41	30012.69
506.58	30274.83
506.76	30314.62
506.93	30515.90
507.11	30232.70
507.28	30883.37
507.46	30684.42
507.63	30569.74
507.81	30778.04
507.98	30909.11
508.16	31358.50
508.33	30974.65
508.50	31119.76
508.68	31180.62
508.85	31318.71
509.03	31466.16
509.20	31536.38
509.38	31608.93
509.55	31669.79
509.73	31761.07
509.90	31894.48
510.08	31426.37
510.25	31964.70
510.42	31988.10
510.60	32615.37
510.77	32107.47
510.95	32573.24
511.12	32491.32
511.30	32816.65
511.47	32933.68
511.64	32596.64
511.82	32760.48
511.99	32669.20
512.17	32989.85
512.34	32547.49
512.51	33001.55
512.69	33366.68
512.86	33378.38
513.04	33748.18
513.21	33415.83
513.38	33104.54
513.56	33479.02
513.73	32936.02
513.90	33816.06
514.08	33675.63
514.25	33635.84
514.43	33858.19
514.60	33565.62
514.77	34007.98
514.95	33984.58
515.12	34279.49
515.29	34033.73
515.47	34429.28
515.64	34623.54
515.81	34323.96
515.99	34382.47
516.16	34167.14
516.33	34309.91
516.51	34059.48
516.68	33757.55
516.85	33780.95
517.03	33951.81
517.20	34485.45
517.37	34838.87
517.54	35154.85
517.72	34981.65
517.89	34726.53
518.06	33989.26
518.24	34567.37
518.41	35147.82
518.58	34902.07
518.75	34541.63
518.93	35414.65
519.10	35756.36
519.27	35744.66
519.45	35597.21
519.62	35615.93
519.79	35899.14
519.96	35871.05
520.14	36226.81
520.31	36041.91
520.48	35945.95
520.65	35941.27
520.83	36877.48
521.00	36395.33
521.17	36582.57
521.34	36582.57
521.52	36849.39
521.69	37081.11
521.86	36641.09
522.03	37139.62
522.20	36854.08
522.38	37273.03
522.55	37003.87
522.72	36797.90
522.89	36886.84
523.07	37333.89
523.24	36989.83
523.41	37706.03
523.58	37212.18
523.75	37937.74
523.92	37663.90
524.10	38293.50
524.27	37572.62
524.44	37799.65
524.61	38279.46
524.78	37954.13
524.96	37886.25
525.13	38431.60
525.30	38401.17
525.47	37982.21
525.64	38117.96
525.81	38096.90
525.98	37979.87
526.16	37993.92
526.33	37797.31
526.50	38171.80
526.67	38120.31
526.84	37888.59
527.01	38169.46
527.18	38628.20
527.36	38625.86
527.53	38967.58
527.70	39246.10
527.87	39342.06
528.04	38796.72
528.21	39203.97
528.38	38998.01
528.55	39704.85
528.72	39669.74
528.89	39557.39
529.07	39709.53
529.24	39150.14
529.41	39669.74
529.58	39318.66
529.75	39253.12
529.92	39611.23
530.09	39693.15
530.26	39646.33
530.43	40112.10
530.60	39702.51
530.77	39679.10
530.94	40142.53
531.11	39885.07
531.28	40187.00
531.46	40371.90
531.63	39871.03
531.80	40182.32
531.97	40184.66
532.14	39913.16
532.31	39831.24
532.48	40095.72
532.65	40397.65
532.82	40428.07
532.99	40809.58
533.16	40519.35
533.33	40690.21
533.50	40940.65
533.67	40837.67
533.84	40247.85
534.01	40809.58
534.18	40844.69
534.35	41053.00
534.52	40524.04
534.69	41188.75
534.86	41195.77
535.03	41226.20
535.20	41476.63
535.37	41940.06
535.54	41862.82
535.71	41244.92
535.88	41560.89
536.05	41401.74
536.22	41411.10
536.38	41116.19
536.55	41076.40
536.72	41322.16
536.89	41228.54
537.06	41322.16
537.23	41911.97
537.40	41841.76
537.57	41427.48
537.74	41787.92
537.91	42040.70
538.08	41904.95
538.25	41762.18
538.42	41869.84
538.59	41766.86
538.75	41872.18
538.92	42003.25
539.09	41968.15
539.26	41490.68
539.43	42185.82
539.60	42136.66
539.77	42249.01
539.94	42555.62
540.11	41748.14
540.28	41771.54
540.44	41904.95
540.61	41961.12
540.78	42017.30
540.95	42169.43
541.12	42337.95
541.29	42815.42
541.46	42553.28
541.62	42438.59
541.79	42492.43
541.96	42087.51
542.13	42756.91
542.30	43012.02
542.47	42700.73
542.63	42777.97
542.80	43086.92
542.97	43201.61
543.14	43447.36
543.31	43065.86
543.48	43519.92
543.64	43494.18
543.81	43533.96
543.98	43414.60
544.15	43356.08
544.32	43555.03
544.48	44137.82
544.65	43473.11
544.82	43629.93
544.99	43564.39
545.16	43641.63
545.32	43391.19
545.49	43707.16
545.66	44058.24
545.83	43833.55
546.00	43976.33
546.16	43831.21
546.33	43835.89
546.50	43714.19
546.67	44016.11
546.83	43400.55
547.00	43742.27
547.17	43723.55
547.34	43885.04
547.50	43910.79
547.67	44168.25
547.84	44318.04
548.00	44194.00
548.17	44371.88
548.34	44048.88
548.51	44615.29
548.67	44144.84
548.84	44418.69
549.01	44243.15
549.18	44481.88
549.34	44666.78
549.51	44725.30
549.68	44931.26
549.84	44545.08
550.01	44603.59
550.18	44776.79
550.34	44610.61
550.51	44411.67
550.68	44615.29
550.84	44348.47
551.01	44739.34
551.18	44966.37
551.34	44940.63
551.51	44734.66
551.68	44968.71
551.84	44987.44
552.01	44683.17
552.18	44940.63
552.34	44491.24
552.51	45525.76
552.68	45078.72
552.84	45340.86
553.01	45502.35
553.18	45256.60
553.34	45184.04
553.51	44811.90
553.67	45312.77
553.84	45296.39
554.01	45301.07
554.17	45469.59
554.34	45790.24
554.51	45642.79
554.67	45495.33
554.84	45411.07
555.00	45406.39
555.17	45408.73
555.33	45303.41
555.50	45801.94
555.67	45577.25
555.83	45848.75
556.00	45848.75
556.16	45979.82
556.33	45303.41
556.50	45380.65
556.66	45865.14
556.83	45680.24
556.99	46031.32
557.16	45935.35
557.32	45933.01
557.49	45773.86
557.65	45312.77
557.82	45715.34
557.98	45663.85
558.15	45909.61
558.32	46370.69
558.48	45478.95
558.65	45579.59
558.81	45361.92
558.98	45476.61
559.14	45783.22
559.31	45808.96
559.47	46043.02
559.64	46279.41
559.80	46197.49
559.97	46148.34
560.13	46363.67
560.30	46328.56
560.46	46447.93
560.63	46387.08
560.79	46031.32
560.96	46248.99
561.12	46108.55
561.29	46429.21
561.45	46314.52
561.61	46251.33
561.78	46440.91
561.94	46153.02
562.11	45954.08
562.27	46335.59
562.44	46253.67
562.60	46529.85
562.77	46639.86
562.93	46401.12
563.10	46377.72
563.26	46167.07
563.42	46770.93
563.59	46375.37
563.75	46450.27
563.92	46721.77
564.08	46429.21
564.24	46663.26
564.41	46705.39
564.57	46260.69
564.74	46768.58
564.90	46354.31
565.07	46459.63
565.23	46211.54
565.39	46831.78
565.56	46490.06
565.72	46337.93
565.88	46635.17
566.05	46593.04
566.21	46363.67
566.38	46597.73
566.54	46347.29
566.70	47185.20
566.87	46864.55
567.03	46511.13
567.19	47143.07
567.36	46784.97
567.52	46405.80
567.68	46574.32
567.85	46412.82
568.01	46202.18
568.17	46174.09
568.34	46410.48
568.50	46618.79
568.66	46607.09
568.83	46859.87
568.99	46424.53
569.15	46974.55
569.32	46539.21
569.48	46511.13
569.64	46616.45
569.81	46588.36
569.97	46632.83
570.13	46246.65
570.30	46513.47
570.46	46358.99
570.62	46436.23
570.78	46291.12
570.95	46373.03
571.11	46974.55
571.27	46738.16
571.43	46873.91
571.60	46890.29
571.76	46614.11
571.92	47021.36
572.09	46852.84
572.25	47016.68
572.41	46459.63
572.57	46808.37
572.74	47334.99
572.90	46579.00
573.06	46815.40
573.22	46777.95
573.38	46696.03
573.55	46813.05
573.71	47201.58
573.87	46630.49
574.03	46457.29
574.20	46988.60
574.36	46820.08
574.52	47028.38
574.68	46997.96
574.84	47154.77
575.01	46890.29
575.17	46773.27
575.33	46897.31
575.49	46403.46
575.65	47012.00
575.82	46843.48
575.98	46677.30
576.14	47068.17
576.30	46855.18
576.46	46569.64
576.62	46689.01
576.79	46616.45
576.95	46373.03
577.11	47145.41
577.27	46681.98
577.43	46880.93
577.59	46461.97
577.75	46789.65
577.92	46466.66
578.08	46560.28
578.24	46752.20
578.40	46677.30
578.56	46499.42
578.72	47042.43
578.88	46869.23
579.04	47084.56
579.21	46770.93
579.37	46543.89
579.53	46614.11
579.69	46873.91
579.85	47138.39
580.01	47503.51
580.17	47449.68
580.33	47262.44
580.49	46892.63
580.65	47065.83
580.82	47122.01
580.98	46815.40
581.14	47065.83
581.30	47164.14
581.46	46869.23
581.62	46822.42
581.78	46962.85
581.94	47618.20
582.10	46923.06
582.26	47580.75
582.42	47217.97
582.58	47281.16
582.74	47136.05
582.90	46958.17
583.06	47236.69
583.22	46927.74
583.38	47033.07
583.54	47313.93
583.70	46988.60
583.86	46829.44
584.02	46635.17
584.18	47061.15
584.34	47007.32
584.50	46955.83
584.66	47114.98
584.82	46894.97
584.98	47248.39
585.14	47229.67
585.30	46728.80
585.46	47236.69
585.62	46672.62
585.78	47070.51
585.94	46466.66
586.10	46834.12
586.26	46761.56
586.42	47023.70
586.58	47283.50
586.74	46969.87
586.90	47112.64
587.06	46946.47
587.22	46904.34
587.38	46803.69
587.54	47529.26
587.70	47042.43
587.86	47152.43
588.02	47007.32
588.18	47047.11
588.34	46953.49
588.49	46644.54
588.65	46457.29
588.81	46190.47
588.97	46106.21
589.13	46735.82
589.29	46632.83
589.45	46799.01
589.61	46803.69
589.77	46850.50
589.93	47248.39
590.08	46937.10
590.24	47370.10
590.40	47295.21
590.56	47070.51
590.72	47274.14
590.88	46988.60
591.04	46911.36
591.20	47068.17
591.35	47269.46
591.51	47344.36
591.67	47243.71
591.83	47042.43
591.99	46988.60
592.15	46864.55
592.31	47171.16
592.46	46869.23
592.62	46838.80
592.78	47262.44
592.94	47384.15
593.10	47262.44
593.26	47311.59
593.41	47290.52
593.57	46981.57
593.73	47009.66
593.89	47051.79
594.05	47220.31
594.20	47040.09
594.36	47379.46
594.52	46979.23
594.68	47372.44
594.84	47384.15
594.99	47538.62
595.15	47098.60
595.31	47503.51
595.47	47428.62
595.62	47285.84
595.78	47503.51
595.94	47342.02
596.10	47379.46
596.25	47210.95
596.41	47320.95
596.57	47292.86
596.73	47559.69
596.88	46990.94
597.04	46995.62
597.20	47562.03
597.36	46932.42
597.51	47716.50
597.67	47267.12
597.83	47344.36
597.99	47826.51
598.14	47704.80
598.30	47016.68
598.46	47040.09
598.61	47550.32
598.77	46639.86
598.93	47267.12
599.09	46993.28
599.24	47639.26
599.40	47175.84
599.56	47285.84
599.71	47159.45
599.87	47552.66
600.03	47049.45
600.18	47433.30
600.34	47114.98
600.50	47363.08
600.65	47194.56
600.81	47021.36
600.97	47096.26
601.12	47463.72
601.28	47257.76
601.44	47007.32
601.59	47543.30
601.75	47196.90
601.91	47220.31
602.06	47161.79
602.22	47180.52
602.37	46838.80
602.53	47234.35
602.69	47370.10
602.84	47318.61
603.00	47096.26
603.16	47175.84
603.31	47222.65
603.47	47093.92
603.62	47096.26
603.78	47065.83
603.94	47173.50
604.09	47648.63
604.25	47306.91
604.40	47192.22
604.56	47138.39
604.71	47117.32
604.87	46979.23
605.03	46873.91
605.18	46541.55
605.34	47056.47
605.49	46787.31
605.65	47019.02
605.80	46693.69
605.96	47012.00
606.12	46679.64
606.27	47173.50
606.43	46892.63
606.58	47168.82
606.74	46962.85
606.89	46944.12
607.05	47002.64
607.20	46855.18
607.36	47248.39
607.51	47185.20
607.67	46883.27
607.82	47103.28
607.98	46639.86
608.13	46794.33
608.29	47210.95
608.44	46780.29
608.60	46536.87
608.75	46562.62
608.91	46564.96
609.06	46691.35
609.22	46981.57
609.37	46384.74
609.53	47040.09
609.68	47026.04
609.84	46672.62
609.99	46637.51
610.15	47004.98
610.30	46614.11
610.46	46410.48
610.61	46749.86
610.76	47037.75
610.92	46504.10
611.07	46691.35
611.23	46454.95
611.38	46630.49
611.54	46267.71
611.69	46375.37
611.84	46464.32
612.00	46117.92
612.15	46351.97
612.31	46368.35
612.46	46436.23
612.62	46761.56
612.77	46202.18
612.92	46204.52
613.08	46190.47
613.23	46237.28
613.39	46153.02
613.54	45879.18
613.69	45874.50
613.85	46185.79
614.00	46363.67
614.15	46674.96
614.31	45991.53
614.46	46358.99
614.62	45820.67
614.77	45860.46
614.92	46050.04
615.08	46342.61
615.23	46127.28
615.38	45918.97
615.54	45656.83
615.69	45446.18
615.84	45453.20
616.00	45731.73
616.15	46085.15
616.30	45972.80
616.46	45574.91
616.61	45783.22
616.76	45708.32
616.92	45614.70
617.07	45731.73
617.22	45476.61
617.37	45586.61
617.53	45755.13
617.68	45776.20
617.83	45663.85
617.99	45977.48
618.14	45701.30
618.29	45584.27
618.45	45198.09
618.60	45605.34
618.75	45219.15
618.90	45317.45
619.06	45656.83
619.21	45586.61
619.36	45631.08
619.51	45418.10
619.67	45368.94
619.82	45270.64
619.97	45343.20
620.12	45263.62
620.28	44711.25
620.43	45333.84
620.58	45057.65
620.73	45301.07
620.89	45249.58
621.04	45102.12
621.19	44856.37
621.34	44673.81
621.49	44685.51
621.65	44856.37
621.80	44772.11
621.95	44727.64
622.10	44872.75
622.25	44945.31
622.41	44659.76
622.56	44704.23
622.71	44758.06
622.86	44636.36
623.01	44886.79
623.16	44947.65
623.32	45104.46
623.47	45160.64
623.62	44762.75
623.77	44460.82
623.92	44666.78
624.07	44191.65
624.23	44196.34
624.38	44226.76
624.53	44116.76
624.68	44528.69
624.83	44505.29
624.98	44605.93
625.13	44261.87
625.29	44144.84
625.44	44615.29
625.59	44254.85
625.74	44126.12
625.89	43274.16
626.04	43889.73
626.19	43927.17
626.34	44086.33
626.49	43658.01
626.65	43758.66
626.80	43948.24
626.95	43852.28
627.10	43917.81
627.25	43620.56
627.40	43328.00
627.55	43335.02
627.70	43283.53
627.85	43353.74
628.00	43414.60
628.15	43878.02
628.30	43526.94
628.45	43700.14
628.60	43449.70
628.76	43643.97
628.91	43669.72
629.06	43196.93
629.21	43742.27
629.36	43168.84
629.51	43051.81
629.66	43138.41
629.81	43103.31
629.96	43262.46
630.11	43157.14
630.26	43920.15
630.41	43405.23
630.56	43129.05
630.71	43545.67
630.86	43412.26
631.01	42794.36
631.16	43063.52
631.31	42916.06
631.46	42780.31
631.61	43026.07
631.76	43082.24
631.91	43225.01
632.06	43124.37
632.21	43370.13
632.36	43194.59
632.51	43222.67
632.66	43285.87
632.81	42756.91
632.96	42618.81
633.10	42761.59
633.25	42469.02
633.40	42670.31
633.55	43070.54
633.70	43100.97
633.85	42366.04
634.00	43005.00
634.15	42440.93
634.30	42136.66
634.45	42246.67
634.60	42597.75
634.75	42845.85
634.90	42520.51
635.05	42340.29
635.19	42593.07
635.34	42508.81
635.49	42946.49
635.64	42244.33
635.79	41893.25
635.94	42354.33
636.09	42373.06
636.24	42256.03
636.39	41858.14
636.53	42066.45
636.68	41598.34
636.83	41691.96
636.98	41968.15
637.13	41558.55
637.28	42059.43
637.43	42401.14
637.57	42398.80
637.72	42171.77
637.87	42412.85
638.02	41996.23
638.17	42047.72
638.32	41743.45
638.46	41600.68
638.61	41497.70
638.76	41979.85
638.91	41579.62
639.06	42014.96
639.20	41710.69
639.35	42174.11
639.50	41633.45
639.65	41928.36
639.80	41642.81
639.94	41675.58
640.09	41586.64
640.24	41467.27
640.39	41558.55
640.54	41813.67
640.68	41773.88
640.83	41380.67
640.98	40968.74
641.13	41214.49
641.27	41670.90
641.42	41045.97
641.57	41338.54
641.72	40842.35
641.86	40961.72
642.01	40968.74
642.16	40828.30
642.31	40734.68
642.45	40957.03
642.60	41132.57
642.75	40900.86
642.90	40765.11
643.04	40940.65
643.19	40825.96
643.34	40978.10
643.48	41216.83
643.63	41191.09
643.78	40816.60
643.93	41055.34
644.07	40521.69
644.22	40823.62
644.37	40210.40
644.51	40889.16
644.66	40811.92
644.81	40947.67
644.95	40594.25
645.10	40910.22
645.25	40779.15
645.39	40945.33
645.54	40624.68
645.69	40629.36
645.83	40247.85
645.98	40542.76
646.13	40961.72
646.27	40531.06
646.42	40016.14
646.57	40339.13
646.71	40140.19
646.86	40421.05
647.00	40308.71
647.15	40179.98
647.30	40460.84
647.44	40416.37
647.59	40538.08
647.74	39988.05
647.88	40299.34
648.03	40381.26
648.17	39990.39
648.32	39634.63
648.47	40107.42
648.61	39587.82
648.76	40423.39
648.90	40493.61
649.05	40266.58
649.20	40163.59
649.34	40147.21
649.49	39758.68
649.63	39899.11
649.78	39765.70
649.92	39526.97
650.07	40018.48
650.21	39611.23
650.36	39590.16
650.51	39906.13
650.65	40500.63
650.80	40088.70
650.94	40004.44
651.09	40116.78
651.23	39739.96
651.38	39318.66
651.52	39225.04
651.67	39789.11
651.81	39487.18
651.96	39732.93
652.10	39622.93
652.25	39438.03
652.39	39124.40
652.54	39636.97
652.68	39791.45
652.83	39531.65
652.97	39557.39
653.12	39236.74
653.26	39295.25
653.41	38944.17
653.55	39278.87
653.70	38618.84
653.84	39152.48
653.99	39161.84
654.13	38934.81
654.27	39061.20
654.42	38990.98
654.56	39321.00
654.71	39311.64
654.85	39103.33
655.00	38939.49
655.14	38410.53
655.29	38689.06
655.43	38106.26
655.57	38089.88
655.72	38473.73
655.86	37895.61
656.01	38686.71
656.15	38347.34
656.30	38117.96
656.44	37949.45
656.58	38382.45
656.73	38270.10
656.87	38017.32
657.01	37986.89
657.16	37947.11
657.30	37825.40
657.45	38082.86
657.59	38258.40
657.73	37703.69
657.88	38476.07
658.02	38169.46
658.16	37935.40
658.31	38408.19
658.45	38689.06
658.60	38424.57
658.74	38213.93
658.88	38227.97
659.03	37951.79
659.17	37874.55
659.31	37914.34
659.46	37546.87
659.60	37551.56
659.74	37516.45
659.89	37684.97
660.03	37446.23
660.17	37593.68
660.32	37879.23
660.46	37764.54
660.60	37570.28
660.74	37528.15
660.89	37654.54
661.03	37090.47
661.17	37113.87
661.32	37127.92
661.46	37095.15
661.60	37067.06
661.74	36950.04
661.89	36994.51
662.03	37266.01
662.17	36882.16
662.31	37020.25
662.46	37165.37
662.60	36996.85
662.74	37017.91
662.88	36591.94
663.03	36727.69
663.17	36868.12
663.31	36465.55
663.45	36577.89
663.60	36870.46
663.74	36442.14
663.88	36123.83
664.02	36390.65
664.17	36463.21
664.31	35835.94
664.45	36238.51
664.59	36135.53
664.73	36203.41
664.88	36055.95
665.02	35777.43
665.16	36196.38
665.30	35985.74
665.44	35871.05
665.59	35618.27
665.73	35892.12
665.87	35321.02
666.01	35435.71
666.15	35438.05
666.29	35763.39
666.44	35428.69
666.58	35463.80
666.72	35615.93
666.86	35634.66
667.00	35271.87
667.14	35306.98
667.28	35117.40
667.43	34806.11
667.57	34920.79
667.71	35068.25
667.85	34703.12
667.99	34932.50
668.13	34700.78
668.27	34630.57
668.41	34684.40
668.56	33951.81
668.70	34562.69
668.84	34586.10
668.98	34368.43
669.12	34335.66
669.26	34906.75
669.40	34338.00
669.54	34625.89
669.68	33984.58
669.82	34148.42
669.96	34050.11
670.10	33928.41
670.25	34052.45
670.39	34103.95
670.53	33799.68
670.67	33626.48
670.81	34253.74
670.95	33479.02
671.09	33905.00
671.23	33914.36
671.37	33710.74
671.51	33532.86
671.65	33362.00
671.79	33661.58
671.93	33158.37
672.07	33256.67
672.21	33383.06
672.35	33149.01
672.49	32856.44
672.63	33530.51
672.77	33024.96
672.91	32690.26
673.05	32505.36
673.19	32804.95
673.33	32725.37
673.47	32554.51
673.61	32259.60
673.75	32451.53
673.89	32170.66
674.03	31791.50
674.17	32240.88
674.31	31859.37
674.45	31857.03
674.59	31967.04
674.73	31655.75
674.87	32292.37
675.01	32163.64
675.15	31796.18
675.29	31501.27
675.43	32006.83
675.56	31978.74
675.70	31363.18
675.84	31159.55
675.98	30333.34
676.12	31243.81
676.26	30593.14
676.40	30981.67
676.54	30941.88
676.68	31257.85
676.82	30277.17
676.96	30820.17
677.10	30251.42
677.23	30345.05
677.37	30630.59
677.51	30728.89
677.65	30419.94
677.79	30181.21
677.93	29982.26
678.07	29951.84
678.21	29645.23
678.34	29954.18
678.48	29773.95
678.62	29806.72
678.76	29738.85
678.90	29284.78
679.04	29039.03
679.18	29186.48
679.31	29226.27
679.45	28802.63
679.59	28692.63
679.73	28718.37
679.87	29001.58
680.00	28737.10
680.14	28732.42
680.28	28278.35
680.42	28830.72
680.56	28395.38
680.70	28222.18
680.83	28163.67
680.97	28184.73
681.11	28133.24
681.25	27826.63
681.39	28095.79
681.52	27878.12
681.66	27894.50
681.80	27765.78
681.94	27388.95
682.07	27667.47
682.21	26993.40
682.35	27332.78
682.49	27421.72
682.62	27496.61
682.76	27248.52
682.90	26941.91
683.04	26672.74
683.17	27105.74
683.31	26551.04
683.45	26522.95
683.59	26506.57
683.72	26649.34
683.86	26108.68
684.00	25991.65
684.13	26541.68
684.27	26298.26
684.41	26096.97
684.55	25858.24
684.68	25886.32
684.82	25565.67
684.96	25689.72
685.09	25603.12
685.23	25668.66
685.37	25596.10
685.50	25249.70
685.64	25188.85
685.78	25181.82
685.91	25256.72
686.05	25167.78
686.19	24592.01
686.32	25083.52
686.46	24470.30
686.60	24290.08
686.73	24140.29
686.87	23920.28
687.01	24100.50
687.14	23592.60
687.28	23679.20
687.42	23587.92
687.55	23353.87
687.69	23400.68
687.82	23498.98
687.96	23442.81
688.10	23550.47
688.23	23168.96
688.37	23293.01
688.50	23084.70
688.64	22824.90
688.78	22855.33
688.91	22689.15
689.05	23028.53
689.18	22651.70
689.32	22511.27
689.46	22869.37
689.59	22569.79
689.73	22677.45
689.86	22190.62
690.00	22340.41
690.13	22530.00
690.27	22185.94
690.41	22232.75
690.54	21895.71
690.68	21731.87
690.81	21823.16
690.95	21593.78
691.08	21537.61
691.22	21565.70
691.35	21324.62
691.49	21790.39
691.62	21298.88
691.76	21308.24
691.89	21411.22
692.03	21191.21
692.16	21357.39
692.30	21050.78
692.43	20854.17
692.57	20816.72
692.70	20723.10
692.84	20805.02
692.97	20437.56
693.11	20570.97
693.24	20313.51
693.38	20418.83
693.51	20163.72
693.65	20205.84
693.78	20173.08
693.92	19995.20
694.05	19768.16
694.19	19810.29
694.32	19569.22
694.45	19461.55
694.59	19515.39
694.72	19672.20
694.86	19445.17
694.99	19208.78
695.13	19124.52
695.26	19096.43
695.39	18843.65
695.53	18731.31
695.66	19218.14
695.80	19073.03
695.93	18728.97
696.07	18654.07
696.20	18597.90
696.33	18869.40
696.47	18698.54
696.60	18328.74
696.73	18485.55
696.87	18408.31
697.00	18143.83
697.14	18347.46
697.27	18211.71
697.40	18043.19
697.54	18010.42
697.67	17795.09
697.80	17958.93
697.94	17713.17
698.07	17598.49
698.21	17507.21
698.34	17539.97
698.47	17282.52
698.61	17228.68
698.74	16999.31
698.87	17046.12
699.01	17153.79
699.14	17186.55
699.27	17231.02
699.40	16917.39
699.54	16964.20
699.67	16496.10
699.80	16549.93
699.94	16470.35
700.07	16439.92
700.20	16145.02
700.34	16421.20
700.47	16301.83
700.60	16189.49
700.73	16542.91
700.87	16035.01
701.00	16121.61
701.13	15873.51
701.26	15913.30
701.40	15506.05
701.53	15733.08
701.66	15847.77
701.79	15578.61
701.93	15438.17
702.06	15117.52
702.19	15276.68
702.32	15307.10
702.46	15318.81
702.59	15314.13
702.72	15222.84
702.85	15002.83
702.99	14981.77
703.12	14960.70
703.25	15073.05
703.38	15021.56
703.51	14712.61
703.65	14888.15
703.78	14831.97
703.91	14508.98
704.04	14831.97
704.17	14450.47
704.31	14193.01
704.44	14398.98
704.57	14127.47
704.70	13949.59
704.83	14260.88
704.96	14143.86
705.10	14036.19
705.23	14146.20
>>>>>End Processed Spectral Data<<<<<
