SpectraSuite Data File
++++++++++++++++++++++++++++++++++++
Date: Fri Oct 25 11:34:45 EDT 2013
User: price-jones
Dark Spectrum Present: No
Reference Spectrum Present: No
Number of Sampled Component Spectra: 1
Spectrometers: USB2+H05261
Integration Time (usec): 100000 (USB2+H05261)
Spectra Averaged: 1 (USB2+H05261)
Boxcar Smoothing: 0 (USB2+H05261)
Correct for Electrical Dark: No (USB2+H05261)
Strobe/Lamp Enabled: No (USB2+H05261)
Correct for Detector Non-linearity: No (USB2+H05261)
Correct for Stray Light: No (USB2+H05261)
Number of Pixels in Processed Spectrum: 2048
>>>>>Begin Processed Spectral Data<<<<<
365.73	234.05
365.92	234.05
366.12	234.05
366.32	252.78
366.52	187.24
366.72	297.25
366.91	126.39
367.11	184.90
367.31	238.73
367.51	177.88
367.70	234.05
367.90	180.22
368.10	194.26
368.30	91.28
368.49	208.31
368.69	208.31
368.89	227.03
369.09	234.05
369.28	180.22
369.48	194.26
369.68	203.63
369.87	255.12
370.07	250.44
370.27	269.16
370.47	313.63
370.66	470.45
370.86	514.92
371.06	585.13
371.25	580.45
371.45	543.00
371.65	547.69
371.84	601.52
372.04	524.28
372.24	582.79
372.44	491.51
372.63	664.71
372.83	568.75
373.03	596.84
373.22	528.96
373.42	564.07
373.62	599.18
373.81	575.77
374.01	648.33
374.21	711.52
374.40	615.56
374.60	681.10
374.79	582.79
374.99	655.35
375.19	617.90
375.38	678.76
375.58	655.35
375.78	671.73
375.97	711.52
376.17	641.31
376.37	720.88
376.56	674.07
376.76	690.46
376.95	650.67
377.15	683.44
377.35	676.41
377.54	678.76
377.74	674.07
377.93	657.69
378.13	692.80
378.33	690.46
378.52	624.92
378.72	695.14
378.91	648.33
379.11	725.57
379.31	704.50
379.50	718.54
379.70	695.14
379.89	690.46
380.09	683.44
380.28	669.39
380.48	746.63
380.68	723.23
380.87	748.97
381.07	650.67
381.26	657.69
381.46	732.59
381.65	739.61
381.85	655.35
382.04	751.31
382.24	800.46
382.43	746.63
382.63	786.42
382.83	748.97
383.02	795.78
383.22	786.42
383.41	692.80
383.61	784.08
383.80	819.19
384.00	758.33
384.19	784.08
384.39	755.99
384.58	835.57
384.78	823.87
384.97	828.55
385.17	727.91
385.36	807.48
385.56	823.87
385.75	847.27
385.95	779.40
386.14	840.25
386.34	812.17
386.53	837.91
386.72	793.44
386.92	828.55
387.11	861.32
387.31	833.23
387.50	847.27
387.70	891.74
387.89	833.23
388.09	851.96
388.28	875.36
388.48	873.02
388.67	887.06
388.86	887.06
389.06	877.70
389.25	957.28
389.45	842.59
389.64	870.68
389.84	1006.43
390.03	910.47
390.22	875.36
390.42	896.43
390.61	910.47
390.81	952.60
391.00	961.96
391.19	945.58
391.39	919.83
391.58	1008.77
391.78	882.38
391.97	992.39
392.16	950.26
392.36	1078.99
392.55	1074.31
392.75	1039.20
392.94	1015.79
393.13	1022.81
393.33	1006.43
393.52	1088.35
393.71	1107.07
393.91	1050.90
394.10	999.41
394.29	1081.33
394.49	1029.84
394.68	1078.99
394.88	1046.22
395.07	1078.99
395.26	1041.54
395.46	1111.75
395.65	1128.14
395.84	1165.59
396.04	1217.08
396.23	1191.33
396.42	1167.93
396.62	1240.48
396.81	1123.46
397.00	1184.31
397.19	1121.12
397.39	1167.93
397.58	1160.91
397.77	1198.35
397.97	1188.99
398.16	1256.87
398.35	1231.12
398.55	1142.18
398.74	1193.67
398.93	1226.44
399.12	1275.59
399.32	1284.95
399.51	1263.89
399.70	1296.66
399.90	1327.08
400.09	1322.40
400.28	1299.00
400.47	1291.98
400.67	1317.72
400.86	1317.72
401.05	1327.08
401.24	1423.05
401.44	1441.77
401.63	1355.17
401.82	1465.18
402.01	1320.06
402.21	1432.41
402.40	1401.98
402.59	1502.62
402.78	1390.28
402.97	1423.05
403.17	1514.33
403.36	1425.39
403.55	1535.39
403.74	1441.77
403.93	1537.73
404.13	1544.75
404.32	1565.82
404.51	1493.26
404.70	1549.43
404.89	1533.05
405.09	1614.97
405.28	1605.61
405.47	1638.38
405.66	1647.74
405.85	1643.06
406.05	1706.25
406.24	1734.34
406.43	1664.12
406.62	1762.42
406.81	1830.30
407.00	1790.51
407.20	1657.10
407.39	1692.21
407.58	1781.15
407.77	1755.40
407.96	1891.15
408.15	1755.40
408.34	1858.39
408.54	1823.28
408.73	1872.43
408.92	1809.23
409.11	1935.62
409.30	1865.41
409.49	1870.09
409.68	1832.64
409.87	1912.22
410.07	1919.24
410.26	2040.95
410.45	1926.26
410.64	1984.77
410.83	2062.01
411.02	2019.88
411.21	2092.44
411.40	2087.76
411.59	2153.29
411.78	2087.76
411.98	2146.27
412.17	2176.70
412.36	2204.78
412.55	2195.42
412.74	2218.83
412.93	2275.00
413.12	2232.87
413.31	2260.96
413.50	2319.47
413.69	2244.57
413.88	2363.94
414.07	2310.11
414.26	2359.26
414.45	2352.24
414.64	2403.73
414.83	2506.71
415.02	2429.48
415.22	2480.97
415.41	2495.01
415.60	2640.12
415.79	2581.61
415.98	2597.99
416.17	2560.55
416.36	2497.35
416.55	2569.91
416.74	2565.23
416.93	2548.84
417.12	2726.72
417.31	2665.87
417.50	2677.57
417.69	2764.17
417.88	2682.25
418.07	2705.66
418.26	2759.49
418.45	2869.50
418.64	2918.65
418.83	2925.67
419.02	2832.05
419.21	2848.43
419.39	2885.88
419.58	2920.99
419.77	2810.98
419.96	3009.93
420.15	2960.78
420.34	2949.08
420.53	3089.51
420.72	3110.57
420.91	3171.43
421.10	3126.96
421.29	3105.89
421.48	3208.87
421.67	3197.17
421.86	3089.51
422.05	3028.65
422.24	3035.67
422.43	3171.43
422.61	3171.43
422.80	3253.34
422.99	3255.69
423.18	3265.05
423.37	3356.33
423.56	3342.28
423.75	3382.07
423.94	3131.64
424.13	3019.29
424.32	3038.02
424.50	3204.19
424.69	3255.69
424.88	3281.43
425.07	3222.92
425.26	3332.92
425.45	3269.73
425.64	3300.16
425.83	3337.60
426.01	3346.97
426.20	3304.84
426.39	3316.54
426.58	3253.34
426.77	3393.78
426.96	3424.20
427.15	3384.41
427.33	3463.99
427.52	3541.23
427.71	3466.33
427.90	3365.69
428.09	3564.64
428.28	3372.71
428.46	3564.64
428.65	3445.27
428.84	3597.40
429.03	3623.15
429.22	3644.21
429.40	3611.45
429.59	3606.77
429.78	3368.03
429.97	3485.06
430.16	3693.37
430.34	3559.95
430.53	3538.89
430.72	3665.28
430.91	3655.92
431.10	3700.39
431.28	3784.65
431.47	3775.28
431.66	3784.65
431.85	3754.22
432.03	3950.82
432.22	3955.51
432.41	3868.91
432.60	3880.61
432.79	3957.85
432.97	3920.40
433.16	3922.74
433.35	3838.48
433.54	3920.40
433.72	4021.04
433.91	3960.19
434.10	3999.98
434.28	4060.83
434.47	4098.28
434.66	4030.40
434.85	4091.26
435.03	4018.70
435.22	4126.36
435.41	4236.37
435.59	4156.79
435.78	4119.34
435.97	4215.30
436.16	4175.52
436.34	4079.55
436.53	4208.28
436.72	4337.01
436.90	4215.30
437.09	4156.79
437.28	4140.41
437.46	4241.05
437.65	4306.59
437.84	4294.88
438.02	4257.43
438.21	4393.19
438.40	4381.48
438.58	4557.02
438.77	4557.02
438.96	4442.34
439.14	4629.58
439.33	4636.60
439.52	4807.46
439.70	4587.45
439.89	4863.63
440.08	4830.87
440.26	4692.77
440.45	4706.82
440.63	4678.73
440.82	4905.76
441.01	4706.82
441.19	4894.06
441.38	4964.28
441.57	5043.85
441.75	4971.30
441.94	5132.79
442.12	5083.64
442.31	5149.18
442.50	5205.35
442.68	5100.03
442.87	5179.61
443.05	5170.24
443.24	5252.16
443.43	5275.57
443.61	5263.86
443.80	5376.21
443.98	5160.88
444.17	5095.35
444.35	5139.82
444.54	5376.21
444.73	5263.86
444.91	5338.76
445.10	5518.98
445.28	5242.80
445.47	5263.86
445.65	5465.15
445.84	5392.59
446.02	5472.17
446.21	5277.91
446.39	5338.76
446.58	5472.17
446.77	5439.40
446.95	5430.04
447.14	5411.32
447.32	5446.43
447.51	5493.24
447.69	5446.43
447.88	5408.98
448.06	5500.26
448.25	5425.36
448.43	5570.48
448.62	5455.79
448.80	5528.35
448.99	5586.86
449.17	5708.57
449.36	5572.82
449.54	5579.84
449.73	5701.54
449.91	5561.11
450.10	5982.41
450.28	5874.74
450.46	5753.04
450.65	5753.04
450.83	5785.80
451.02	5628.99
451.20	6003.47
451.39	5802.19
451.57	5825.59
451.76	5795.17
451.94	5818.57
452.13	6045.60
452.31	5867.72
452.49	5809.21
452.68	5858.36
452.86	5959.00
453.05	6141.57
453.23	6120.50
453.42	6087.73
453.60	6104.12
453.78	5970.71
453.97	6052.63
454.15	6019.86
454.34	6113.48
454.52	6118.16
454.70	5954.32
454.89	6260.93
455.07	6253.91
455.26	6415.41
455.44	6230.51
455.62	6422.43
455.81	6228.17
455.99	6389.66
456.17	6506.69
456.36	6331.15
456.54	6410.73
456.73	6394.34
456.91	6473.92
457.09	6626.06
457.28	6637.76
457.46	6607.33
457.64	6820.32
457.83	6782.87
458.01	6583.93
458.19	6715.00
458.38	6853.09
458.56	6836.70
458.74	6747.76
458.93	6839.05
459.11	6885.86
459.29	6782.87
459.48	6817.98
459.66	6970.12
459.84	6913.94
460.03	7049.69
460.21	6998.20
460.39	7000.54
460.57	6906.92
460.76	7220.55
460.94	6977.14
461.12	7166.72
461.31	7037.99
461.49	7187.79
461.67	7021.61
461.85	7346.94
462.04	7279.07
462.22	7316.51
462.40	7433.54
462.59	7386.73
462.77	7372.69
462.95	7384.39
463.13	7265.02
463.32	7412.48
463.50	7517.80
463.68	7475.67
463.86	7508.44
464.05	7403.11
464.23	7445.24
464.41	7588.02
464.59	7442.90
464.78	7646.53
464.96	7597.38
465.14	7478.01
465.32	7618.44
465.50	7637.17
465.69	7761.22
465.87	7817.39
466.05	7786.96
466.23	7569.29
466.41	7791.64
466.60	7805.69
466.78	7728.45
466.96	7763.56
467.14	7765.90
467.32	7796.32
467.51	7906.33
467.69	7627.81
467.87	7779.94
468.05	7854.84
468.23	7822.07
468.41	7995.27
468.60	7843.14
468.78	7953.14
468.96	8030.38
469.14	8102.93
469.32	8283.16
469.50	8063.15
469.69	8044.42
469.87	8264.43
470.05	8231.66
470.23	8255.07
470.41	8344.01
470.59	8486.78
470.77	8355.71
470.95	8402.52
471.14	8489.12
471.32	8533.59
471.50	8531.25
471.68	8360.39
471.86	8737.22
472.04	8741.90
472.22	8643.60
472.40	8442.31
472.58	8765.31
472.77	8652.96
472.95	8769.99
473.13	9289.59
473.31	8809.78
473.49	8842.54
473.67	8971.27
473.85	8954.89
474.03	9364.48
474.21	9071.92
474.39	9263.84
474.57	9170.22
474.75	9383.21
474.93	9434.70
475.12	9432.36
475.30	9584.49
475.48	9434.70
475.66	9537.68
475.84	9575.13
476.02	9657.05
476.20	9694.50
476.38	10010.47
476.56	10136.86
476.74	9905.15
476.92	9736.63
477.10	10099.41
477.28	10368.57
477.46	10015.15
477.64	10125.16
477.82	10253.89
478.00	10422.41
478.18	10583.90
478.36	10539.43
478.54	10675.18
478.72	10684.55
478.90	10834.34
479.08	11101.16
479.26	11206.48
479.44	11042.65
479.62	11028.60
479.80	11302.45
479.98	11405.43
480.16	11576.29
480.34	11531.82
480.52	11449.90
480.70	11445.22
480.88	11424.15
481.06	11660.55
481.24	11906.31
481.41	12023.33
481.59	12009.29
481.77	12046.74
481.95	12264.41
482.13	12259.73
482.31	12458.67
482.49	12568.68
482.67	12390.80
482.85	12901.03
483.03	12734.85
483.21	13008.70
483.39	13226.37
483.57	13118.70
483.74	13116.36
483.92	13291.90
484.10	13125.72
484.28	13582.13
484.46	13621.92
484.64	13771.71
484.82	13582.13
485.00	13848.95
485.18	13891.08
485.35	14331.10
485.53	14148.54
485.71	14317.06
485.89	14656.43
486.07	14401.32
486.25	14618.99
486.43	14532.39
486.61	14789.85
486.78	15049.64
486.96	15040.28
487.14	15424.13
487.32	15169.01
487.50	15597.33
487.68	15424.13
487.85	15651.16
488.03	15609.03
488.21	16109.91
488.39	16060.76
488.57	16121.61
488.75	16145.02
488.92	16177.78
489.10	16606.10
489.28	16624.83
489.46	16641.21
489.64	16606.10
489.81	16856.54
489.99	17174.85
490.17	17018.04
490.35	17659.34
490.53	17486.14
490.70	17757.64
490.88	17554.02
491.06	17851.27
491.24	18057.23
491.41	17888.71
491.59	18057.23
491.77	18120.43
491.95	17982.34
492.13	18326.39
492.30	18541.72
492.48	18743.01
492.66	18483.21
492.84	18600.24
493.01	18808.54
493.19	18775.78
493.37	19150.26
493.54	19290.70
493.72	19309.42
493.90	19316.44
494.08	19583.26
494.25	19833.70
494.43	19871.15
494.61	20278.40
494.79	20247.97
494.96	20102.86
495.14	20105.20
495.32	20482.03
495.49	20655.23
495.67	20554.58
495.85	20498.41
496.02	20966.52
496.20	20989.92
496.38	21078.86
496.55	21261.43
496.73	21720.17
496.91	21589.10
497.09	21610.17
497.26	21479.10
497.44	21195.89
497.62	21532.93
497.79	22270.20
497.97	21912.10
498.14	22047.85
498.32	22328.71
498.50	22321.69
498.67	22640.00
498.85	22515.95
499.03	22640.00
499.20	22632.98
499.38	22569.79
499.56	22897.46
499.73	22520.63
499.91	23250.88
500.08	23384.29
500.26	23094.07
500.44	23480.25
500.61	23082.36
500.79	23260.24
500.97	23887.51
501.14	23606.64
501.32	23758.78
501.49	23894.53
501.67	24004.53
501.84	24020.92
502.02	24189.44
502.20	24156.67
502.37	24205.82
502.55	24046.66
502.72	24348.59
502.90	24397.74
503.07	24458.60
503.25	24463.28
503.43	24416.47
503.60	24971.18
503.78	24915.00
503.95	24889.26
504.13	24868.19
504.30	25186.50
504.48	25184.16
504.65	25010.96
504.83	25518.86
505.01	25553.97
505.18	25514.18
505.36	25450.99
505.53	25895.69
505.71	25610.14
505.88	25846.54
506.06	25783.34
506.23	26216.34
506.41	25834.83
506.58	26471.46
506.76	26099.31
506.93	26377.84
507.11	26544.02
507.28	26300.60
507.46	26466.78
507.63	26864.67
507.81	26621.25
507.98	26778.07
508.16	26850.63
508.33	27122.13
508.50	26916.16
508.68	27072.98
508.85	27697.90
509.03	27175.96
509.20	27332.78
509.38	27967.06
509.55	27543.42
509.73	27969.40
509.90	27641.73
510.08	27641.73
510.25	28006.85
510.42	27721.30
510.60	28119.20
510.77	28280.69
510.95	28421.13
511.12	28144.94
511.30	28751.14
511.47	28573.26
511.64	28182.39
511.82	28727.74
511.99	28299.42
512.17	28837.74
512.34	28559.22
512.51	28854.12
512.69	29350.32
512.86	29113.92
513.04	29092.86
513.21	29235.63
513.38	29242.65
513.56	29532.88
513.73	29289.46
513.90	29247.33
514.08	28931.36
514.25	30096.95
514.43	29439.26
514.60	29687.36
514.77	29872.26
514.95	30015.03
515.12	29879.28
515.29	29757.57
515.47	30380.15
515.64	29914.39
515.81	30256.11
515.99	30192.91
516.16	30752.30
516.33	30532.29
516.51	30766.34
516.68	30188.23
516.85	30689.10
517.03	30464.41
517.20	31016.78
517.37	30583.78
517.54	30866.98
517.72	31023.80
517.89	31033.16
518.06	31115.08
518.24	31201.68
518.41	30836.56
518.58	31030.82
518.75	31040.18
518.93	31274.24
519.10	31316.37
519.27	32114.49
519.45	31555.10
519.62	31714.26
519.79	31798.52
519.96	32203.43
520.14	32318.12
520.31	31842.99
520.48	31772.77
520.65	31814.90
520.83	32498.34
521.00	32383.65
521.17	32390.67
521.34	32535.79
521.52	32463.23
521.69	32591.96
521.86	32561.53
522.03	32737.07
522.20	32940.70
522.38	33022.62
522.55	33050.70
522.72	32669.20
522.89	33027.30
523.07	33640.52
523.24	33259.01
523.41	33486.04
523.58	32919.63
523.75	33642.86
523.92	33860.53
524.10	33209.86
524.27	33886.28
524.44	33656.90
524.61	33710.74
524.78	33724.78
524.96	34043.09
525.13	34279.49
525.30	34099.26
525.47	34218.63
525.64	33865.21
525.81	34513.54
525.98	34410.56
526.16	34382.47
526.33	34630.57
526.50	34476.09
526.67	34618.86
526.84	34417.58
527.01	33972.88
527.18	34251.40
527.36	34747.59
527.53	34628.23
527.70	34742.91
527.87	35274.21
528.04	35103.35
528.21	34960.58
528.38	34799.08
528.55	35311.66
528.72	34866.96
528.89	35079.95
529.07	35002.71
529.24	34944.20
529.41	35339.75
529.58	35246.13
529.75	35201.66
529.92	35716.58
530.09	35351.45
530.26	35344.43
530.43	35433.37
530.60	35435.71
530.77	35819.56
530.94	36037.23
531.11	36041.91
531.28	35789.13
531.46	35943.61
531.63	36210.43
531.80	35707.21
531.97	35838.28
532.14	36182.34
532.31	36285.33
532.48	36222.13
532.65	36554.49
532.82	35840.62
532.99	36503.00
533.16	36020.84
533.33	36521.72
533.50	36568.53
533.67	36374.27
533.84	36308.73
534.01	36734.71
534.18	36474.91
534.35	36856.42
534.52	36917.27
534.69	37081.11
534.86	37053.02
535.03	36952.38
535.20	37027.28
535.37	37282.39
535.54	37151.32
535.71	37127.92
535.88	37319.84
536.05	37043.66
536.22	37376.01
536.38	37212.18
536.55	37310.48
536.72	37551.56
536.89	37394.74
537.06	37390.06
537.23	37684.97
537.40	37385.38
537.57	37675.60
537.74	37715.39
537.91	38148.39
538.08	37834.76
538.25	37687.31
538.42	37619.43
538.59	38080.52
538.75	37846.46
538.92	38129.67
539.09	38340.32
539.26	37975.19
539.43	38436.28
539.60	38132.01
539.77	38188.18
539.94	38178.82
540.11	38602.46
540.28	38593.09
540.44	38305.21
540.61	38522.88
540.78	38590.75
540.95	38675.01
541.12	38424.57
541.29	39234.40
541.46	38700.76
541.62	38529.90
541.79	38892.68
541.96	38845.87
542.13	38939.49
542.30	39047.16
542.47	39232.06
542.63	38918.43
542.80	39225.04
542.97	39627.61
543.14	39489.52
543.31	39049.50
543.48	39360.79
543.64	39847.62
543.81	40032.52
543.98	39236.74
544.15	39714.21
544.32	39945.92
544.48	40198.70
544.65	39983.37
544.82	40095.72
544.99	39367.81
545.16	39838.26
545.32	39899.11
545.49	40364.88
545.66	40491.27
545.83	39880.39
546.00	40336.79
546.16	40238.49
546.33	40362.54
546.50	40034.86
546.67	40566.16
546.83	40011.46
547.00	40715.96
547.17	40285.30
547.34	40074.65
547.50	40825.96
547.67	41127.89
547.84	40809.58
548.00	40842.35
548.17	40800.22
548.34	40959.38
548.51	40832.99
548.67	41268.33
548.84	40692.55
549.01	40994.48
549.18	40650.42
549.34	41074.06
549.51	41448.55
549.68	41050.66
549.84	41092.79
550.01	41357.27
550.18	40795.54
550.34	41228.54
550.51	41074.06
550.68	41048.32
550.84	41216.83
551.01	41748.14
551.18	41172.36
551.34	41148.96
551.51	41523.44
551.68	41258.96
551.84	41553.87
552.01	41544.51
552.18	41163.00
552.34	41277.69
552.51	41502.38
552.68	41596.00
552.84	41371.31
553.01	41776.22
553.18	41677.92
553.34	41773.88
553.51	41659.20
553.67	42040.70
553.84	41926.02
554.01	41961.12
554.17	42064.11
554.34	41823.03
554.51	41720.05
554.67	42199.86
554.84	42096.88
555.00	41799.63
555.17	41722.39
555.33	42251.35
555.50	42094.53
555.67	42424.55
555.83	42298.16
556.00	42298.16
556.16	42660.94
556.33	42646.90
556.50	42663.28
556.66	42429.23
556.83	42230.29
556.99	42614.13
557.16	42780.31
557.32	42539.24
557.49	42466.68
557.65	42073.47
557.82	42700.73
557.98	42387.10
558.15	42494.77
558.32	42864.57
558.48	42749.88
558.65	42953.51
558.81	42756.91
558.98	42270.08
559.14	42040.70
559.31	42368.38
559.47	42632.86
559.64	43248.42
559.80	42906.70
559.97	43014.37
560.13	42611.79
560.30	43157.14
560.46	42960.53
560.63	43232.04
560.79	42916.06
560.96	43304.59
561.12	43126.71
561.29	43180.54
561.45	43466.09
561.61	43185.22
561.78	42630.52
561.94	42990.96
562.11	43061.18
562.27	43269.48
562.44	43225.01
562.60	43320.98
562.77	43107.99
562.93	43215.65
563.10	43735.25
563.26	43388.85
563.42	43555.03
563.59	43199.27
563.75	43702.48
563.92	43489.49
564.08	43346.72
564.24	43604.18
564.41	43608.86
564.57	43342.04
564.74	43557.37
564.90	43683.76
565.07	43337.36
565.23	43531.62
565.39	43814.83
565.56	43803.13
565.72	43550.35
565.88	43587.80
566.05	43587.80
566.21	43863.98
566.38	43924.83
566.54	43700.14
566.70	43952.92
566.87	43543.33
567.03	43398.21
567.19	44044.20
567.36	43959.94
567.52	43707.16
567.68	44229.10
567.85	44144.84
568.01	44201.02
568.17	44205.70
568.34	44144.84
568.50	43461.41
568.66	43592.48
568.83	43842.92
568.99	43922.49
569.15	43650.99
569.32	43915.47
569.48	43971.64
569.64	44086.33
569.81	44299.32
569.97	44072.29
570.13	44322.72
570.30	43863.98
570.46	44245.49
570.62	44135.48
570.78	43903.77
570.95	43948.24
571.11	44196.34
571.27	44299.32
571.43	44069.95
571.60	44123.78
571.76	44210.38
571.92	44048.88
572.09	44109.74
572.25	44280.60
572.41	44175.27
572.57	44083.99
572.74	44449.11
572.90	44329.75
573.06	44208.04
573.22	44477.20
573.38	44921.90
573.55	44399.96
573.71	44708.91
573.87	44388.26
574.03	44500.61
574.20	44788.49
574.36	44758.06
574.52	44498.26
574.68	44289.96
574.84	44701.89
575.01	44229.10
575.17	44891.48
575.33	44318.04
575.49	44634.02
575.65	44650.40
575.82	44500.61
575.98	44282.94
576.14	44804.88
576.30	44617.63
576.46	44601.25
576.62	44465.50
576.79	44072.29
576.95	44112.08
577.11	44177.61
577.27	44402.30
577.43	44587.21
577.59	44449.11
577.75	44758.06
577.92	44142.50
578.08	44481.88
578.24	44479.54
578.40	44587.21
578.56	44474.86
578.72	44591.89
578.88	44825.94
579.04	44772.11
579.21	44308.68
579.37	44540.39
579.53	44245.49
579.69	44540.39
579.85	44233.78
580.01	44685.51
580.17	44718.28
580.33	44416.35
580.49	44589.55
580.65	44987.44
580.82	44458.48
580.98	44486.56
581.14	44353.15
581.30	44758.06
581.46	44577.84
581.62	44844.66
581.78	44715.93
581.94	44900.84
582.10	44783.81
582.26	45083.40
582.42	44814.24
582.58	44605.93
582.74	44865.73
582.90	45006.16
583.06	45055.31
583.22	44821.26
583.38	44629.34
583.54	44727.64
583.70	44957.01
583.86	44722.96
584.02	44685.51
584.18	44931.26
584.34	44971.05
584.50	44760.40
584.66	44687.85
584.82	45095.10
584.98	45408.73
585.14	44938.29
585.30	44481.88
585.46	44987.44
585.62	44861.05
585.78	44940.63
585.94	44484.22
586.10	45179.36
586.26	44814.24
586.42	44715.93
586.58	44863.39
586.74	44825.94
586.90	44928.92
587.06	44886.79
587.22	44687.85
587.38	45008.50
587.54	44774.45
587.70	45193.40
587.86	44561.46
588.02	45036.59
588.18	45151.27
588.34	45045.95
588.49	44891.48
588.65	44935.95
588.81	44638.70
588.97	45074.04
589.13	44797.85
589.29	44879.77
589.45	45453.20
589.61	45322.13
589.77	44975.73
589.93	44980.42
590.08	44914.88
590.24	45184.04
590.40	45537.46
590.56	45542.14
590.72	45263.62
590.88	45034.25
591.04	45209.79
591.20	45429.80
591.35	45502.35
591.51	45834.71
591.67	45560.87
591.83	45528.10
591.99	45024.89
592.15	45102.12
592.31	45420.44
592.46	45544.48
592.62	45603.00
592.78	45521.08
592.94	45734.07
593.10	44945.31
593.26	45736.41
593.41	45757.47
593.57	45233.19
593.73	45394.69
593.89	45773.86
594.05	45792.58
594.20	45174.68
594.36	45778.54
594.52	45469.59
594.68	45628.74
594.84	45478.95
594.99	45717.68
595.15	45776.20
595.31	45514.06
595.47	45462.57
595.62	45439.16
595.78	45523.42
595.94	45982.16
596.10	45633.42
596.25	46115.58
596.41	45432.14
596.57	45141.91
596.73	45595.98
596.88	45895.56
597.04	45504.70
597.20	45446.18
597.36	45478.95
597.51	45682.58
597.67	45434.48
597.83	45298.73
597.99	45989.19
598.14	45603.00
598.30	45713.00
598.46	45729.39
598.61	45818.33
598.77	45724.71
598.93	45450.86
599.09	45979.82
599.24	45979.82
599.40	45677.90
599.56	45668.53
599.71	45963.44
599.87	46036.00
600.03	45691.94
600.18	45954.08
600.34	45546.82
600.50	45673.21
600.65	45595.98
600.81	45921.31
600.97	45638.11
601.12	45907.27
601.28	45670.87
601.44	45808.96
601.59	45614.70
601.75	45607.68
601.91	45886.20
602.06	45860.46
602.22	46073.45
602.37	45886.20
602.53	46033.66
602.69	45783.22
602.84	45537.46
603.00	45574.91
603.16	45558.53
603.31	45865.14
603.47	45780.88
603.62	45649.81
603.78	46225.58
603.94	45776.20
604.09	46017.27
604.25	45588.95
604.40	45488.31
604.56	45900.25
604.71	45956.42
604.87	45808.96
605.03	45390.01
605.18	45532.78
605.34	45593.64
605.49	45385.33
605.65	45696.62
605.80	45530.44
605.96	45820.67
606.12	45448.52
606.27	45577.25
606.43	45724.71
606.58	45769.18
606.74	45277.66
606.89	45474.27
607.05	45830.03
607.20	45509.38
607.36	45502.35
607.51	45844.07
607.67	45581.93
607.82	45806.62
607.98	45619.38
608.13	45434.48
608.29	45673.21
608.44	45815.99
608.60	44872.75
608.75	45720.02
608.91	45301.07
609.06	45148.93
609.22	45780.88
609.37	45153.62
609.53	45904.93
609.68	45771.52
609.84	45067.02
609.99	45757.47
610.15	45294.05
610.30	45607.68
610.46	45134.89
610.61	45301.07
610.76	45558.53
610.92	44755.72
611.07	45200.43
611.23	45673.21
611.38	45275.32
611.54	45354.90
611.69	45614.70
611.84	45305.75
612.00	45153.62
612.15	45272.98
612.31	44891.48
612.46	44949.99
612.62	45109.14
612.77	45368.94
612.92	45336.18
613.08	44964.03
613.23	45542.14
613.39	45567.89
613.54	44861.05
613.69	45184.04
613.85	45535.12
614.00	44914.88
614.15	45705.98
614.31	44994.46
614.46	45102.12
614.62	44669.12
614.77	45024.89
614.92	44753.38
615.08	44858.71
615.23	45272.98
615.38	45595.98
615.54	44949.99
615.69	45090.42
615.84	45050.63
616.00	45038.93
616.15	45193.40
616.30	45064.67
616.46	44933.60
616.61	44582.52
616.76	44809.56
616.92	44601.25
617.07	44673.81
617.22	45027.23
617.37	44233.78
617.53	44870.41
617.68	44339.11
617.83	44533.37
617.99	45008.50
618.14	44954.67
618.29	44793.17
618.45	44409.32
618.60	44088.67
618.75	44189.31
618.90	44713.59
619.06	44399.96
619.21	44493.58
619.36	44727.64
619.51	44116.76
619.67	44416.35
619.82	44318.04
619.97	44722.96
620.12	44444.43
620.28	44268.89
620.43	44428.05
620.58	44746.36
620.73	44463.16
620.89	44182.29
621.04	44538.05
621.19	44123.78
621.34	44556.78
621.49	44378.90
621.65	44179.95
621.80	44432.73
621.95	43981.01
622.10	44034.84
622.25	44126.12
622.41	44191.65
622.56	44224.42
622.71	44081.65
622.86	44355.49
623.01	44502.95
623.16	44612.95
623.32	43915.47
623.47	43812.49
623.62	44147.18
623.77	44381.24
623.92	44516.99
624.07	43927.17
624.23	44203.36
624.38	44287.62
624.53	43854.62
624.68	43819.51
624.83	43683.76
624.98	43931.86
625.13	43718.87
625.29	43395.87
625.44	44025.48
625.59	43732.91
625.74	43629.93
625.89	43571.41
626.04	43618.22
626.19	43569.07
626.34	43569.07
626.49	43316.29
626.65	42827.12
626.80	43419.28
626.95	43126.71
627.10	43084.58
627.25	43824.19
627.40	43449.70
627.55	43328.00
627.70	43522.26
627.85	43122.03
628.00	43248.42
628.15	43454.39
628.30	43089.26
628.45	42829.46
628.60	42588.39
628.76	42944.15
628.91	43012.02
629.06	43093.94
629.21	42731.16
629.36	42885.64
629.51	42871.59
629.66	43304.59
629.81	42557.96
629.96	43145.44
630.11	42979.26
630.26	42813.08
630.41	42820.10
630.56	42724.14
630.71	42976.92
630.86	42651.58
631.01	42335.61
631.16	42806.06
631.31	42506.47
631.46	42806.06
631.61	42649.24
631.76	42792.01
631.91	42618.81
632.06	43131.39
632.21	42466.68
632.36	43012.02
632.51	42239.65
632.66	42880.95
632.81	42405.83
632.96	42447.96
633.10	42707.76
633.25	42494.77
633.40	42492.43
633.55	42852.87
633.70	42223.26
633.85	42298.16
634.00	42412.85
634.15	42246.67
634.30	42398.80
634.45	42181.13
634.60	42518.17
634.75	42267.73
634.90	41893.25
635.05	42017.30
635.19	42092.19
635.34	42333.27
635.49	41598.34
635.64	42176.45
635.79	42033.68
635.94	41930.70
636.09	42462.00
636.24	41682.60
636.39	42384.76
636.53	42272.42
636.68	41083.42
636.83	41668.56
636.98	42038.36
637.13	41551.53
637.28	41588.98
637.43	41989.21
637.57	41951.76
637.72	41581.96
637.87	41591.32
638.02	41542.17
638.17	41909.63
638.32	41694.30
638.46	41273.01
638.61	41329.18
638.76	41202.79
638.91	41600.68
639.06	41364.29
639.20	41235.56
639.35	41088.10
639.50	40837.67
639.65	41324.50
639.80	41280.03
639.94	41518.76
640.09	41251.94
640.24	41368.97
640.39	40788.52
640.54	40982.78
640.68	41343.22
640.83	41357.27
640.98	41769.20
641.13	41076.40
641.27	41244.92
641.42	40919.59
641.57	40968.74
641.72	40711.28
641.86	41045.97
642.01	40781.49
642.16	40999.16
642.31	40465.52
642.45	40816.60
642.60	40568.51
642.75	40694.89
642.90	41139.60
643.04	40538.08
643.19	40690.21
643.34	40692.55
643.48	40184.66
643.63	40610.64
643.78	40554.46
643.93	40952.35
644.07	40840.01
644.22	40549.78
644.37	40081.67
644.51	40830.65
644.66	40664.47
644.81	40638.72
644.95	40507.65
645.10	40123.80
645.25	39889.75
645.39	39810.17
645.54	40383.60
645.69	40304.02
645.83	40165.93
645.98	40098.06
646.13	40135.51
646.27	40280.62
646.42	39924.86
646.57	40538.08
646.71	40177.64
646.86	39868.69
647.00	40301.68
647.15	40615.32
647.30	40589.57
647.44	40168.27
647.59	40194.02
647.74	40149.55
647.88	40107.42
648.03	40273.60
648.17	40224.45
648.32	40065.29
648.47	40708.94
648.61	40065.29
648.76	40058.27
648.90	39899.11
649.05	39833.58
649.20	39868.69
649.34	39854.64
649.49	39723.57
649.63	39625.27
649.78	39487.18
649.92	39894.43
650.07	40299.34
650.21	40095.72
650.36	39997.41
650.51	39377.17
650.65	39885.07
650.80	39707.19
650.94	39826.56
651.09	39330.36
651.23	39377.17
651.38	38974.60
651.52	39335.04
651.67	39108.01
651.81	39115.03
651.96	39189.93
652.10	39187.59
652.25	39051.84
652.39	39285.89
652.54	39091.63
652.68	39388.88
652.83	38965.24
652.97	39695.49
653.12	39243.76
653.26	38976.94
653.41	39178.23
653.55	38937.15
653.70	39054.18
653.84	39501.22
653.99	39075.24
654.13	39264.83
654.27	39012.05
654.42	39246.10
654.56	38749.91
654.71	38794.38
654.85	39096.31
655.00	38969.92
655.14	39199.29
655.29	38660.97
655.43	39431.01
655.57	38799.06
655.72	38871.62
655.86	38576.71
656.01	38742.89
656.15	38529.90
656.30	38314.57
656.44	38780.34
656.58	38520.54
656.73	38616.50
656.87	38447.98
657.01	38007.96
657.16	38670.33
657.30	38553.30
657.45	38389.47
657.59	38106.26
657.73	38267.76
657.88	38347.34
658.02	38249.03
658.16	38855.23
658.31	38588.41
658.45	38483.09
658.60	38249.03
658.74	38682.03
658.88	38335.63
659.03	38347.34
659.17	38078.18
659.31	38043.07
659.46	37640.50
659.60	37984.55
659.74	37647.52
659.89	37652.20
660.03	37479.00
660.17	38218.61
660.32	37579.64
660.46	37680.28
660.60	36950.04
660.74	37174.73
660.89	37750.50
661.03	37479.00
661.17	37418.14
661.32	37280.05
661.46	37266.01
661.60	37153.66
661.74	37092.81
661.89	37291.76
662.03	37181.75
662.17	36957.06
662.31	36816.63
662.46	37268.35
662.60	37046.00
662.74	36772.16
662.88	36559.17
663.03	36662.15
663.17	36439.80
663.31	36575.55
663.45	36603.64
663.60	36430.44
663.74	36428.10
663.88	36362.56
664.02	36538.10
664.17	36582.57
664.31	36222.13
664.45	35981.06
664.59	36233.83
664.73	36172.98
664.88	36460.87
665.02	35695.51
665.16	35952.97
665.30	35959.99
665.44	36367.24
665.59	35938.93
665.73	35445.07
665.87	35477.84
666.01	35667.42
666.15	36039.57
666.29	35915.52
666.44	35522.31
666.58	35367.84
666.72	35550.40
666.86	35344.43
667.00	35454.44
667.14	35711.89
667.28	35503.59
667.43	35096.33
667.57	35407.62
667.71	35126.76
667.85	35662.74
667.99	35136.12
668.13	34913.77
668.27	34644.61
668.41	34394.17
668.56	34209.27
668.70	34272.46
668.84	33923.72
668.98	34141.39
669.12	34494.82
669.26	34534.60
669.40	34794.40
669.54	34565.03
669.68	34562.69
669.82	34192.89
669.96	34148.42
670.10	33717.76
670.25	33806.70
670.39	33996.28
670.53	34010.32
670.67	33900.32
670.81	34117.99
670.95	33818.40
671.09	33977.56
671.23	33607.75
671.37	33940.11
671.51	33296.46
671.65	33481.36
671.79	33132.62
671.93	34017.35
672.07	33010.92
672.21	33303.48
672.35	32875.16
672.49	32975.81
672.63	33041.34
672.77	32905.59
672.91	32854.10
673.05	32931.34
673.19	32793.25
673.33	32545.15
673.47	32491.32
673.61	32198.75
673.75	32393.01
673.89	32198.75
674.03	31892.14
674.17	32226.84
674.31	31999.80
674.45	31721.28
674.59	31821.92
674.73	31732.98
674.87	31737.66
675.01	31498.93
675.15	31288.28
675.29	31611.28
675.43	30979.33
675.56	31910.86
675.70	31576.17
675.84	31484.89
675.98	29888.64
676.12	31065.93
676.26	31489.57
676.40	30649.32
676.54	30719.53
676.68	30359.09
676.82	30698.47
676.96	30686.76
677.10	30497.18
677.23	30518.25
677.37	30712.51
677.51	30494.84
677.65	29869.92
677.79	30000.99
677.93	30150.78
678.07	29825.45
678.21	29986.94
678.34	29530.54
678.48	29345.64
678.62	29472.03
678.76	29284.78
678.90	29223.93
679.04	29329.25
679.18	29443.94
679.31	28804.97
679.45	28765.18
679.59	28510.07
679.73	28842.42
679.87	28568.58
680.00	28503.04
680.14	28486.66
680.28	28606.03
680.42	28334.53
680.56	28322.82
680.70	28027.92
680.83	27913.23
680.97	28121.54
681.11	28095.79
681.25	27768.12
681.39	27513.00
681.52	27564.49
681.66	27243.84
681.80	27136.17
681.94	26806.16
682.07	26904.46
682.21	26838.92
682.35	27002.76
682.49	26733.60
682.62	27115.11
682.76	27140.85
682.90	26855.31
683.04	26494.86
683.17	26448.05
683.31	26359.11
683.45	26185.91
683.59	25764.62
683.72	26155.49
683.86	25916.75
684.00	26068.89
684.13	26113.36
684.27	25823.13
684.41	25720.15
684.55	25539.93
684.68	25355.02
684.82	25200.55
684.96	25294.17
685.09	25270.76
685.23	25062.46
685.37	25385.45
685.50	25125.65
685.64	25090.54
685.78	24636.48
685.91	25029.69
686.05	24762.87
686.19	23798.57
686.32	24065.39
686.46	23784.52
686.60	23941.34
686.73	24144.97
686.87	23967.09
687.01	23953.04
687.14	23939.00
687.28	23758.78
687.42	23873.46
687.55	23662.82
687.69	23580.90
687.82	23367.91
687.96	23377.27
688.10	23152.58
688.23	23218.11
688.37	23213.43
688.50	23391.31
688.64	23220.45
688.78	22955.97
688.91	23005.13
689.05	22661.07
689.18	22403.61
689.32	22185.94
689.46	21888.69
689.59	22384.88
689.73	22490.21
689.86	22665.75
690.00	22139.13
690.13	22162.53
690.27	21937.84
690.41	21820.81
690.54	21886.35
690.68	21610.17
690.81	21532.93
690.95	21310.58
691.08	21287.17
691.22	21015.67
691.35	21071.84
691.49	21039.08
691.62	20975.88
691.76	20898.64
691.89	20938.43
692.03	20357.98
692.16	20262.02
692.30	20414.15
692.43	20339.26
692.57	20315.85
692.70	20166.06
692.84	20126.27
692.97	20049.03
693.11	20074.77
693.24	19704.97
693.38	19627.73
693.51	19695.61
693.65	19690.93
693.78	19594.96
693.92	19328.14
694.05	19433.47
694.19	19264.95
694.32	19150.26
694.45	19278.99
694.59	19271.97
694.72	19314.10
694.86	19136.22
694.99	18558.11
695.13	18965.36
695.26	18487.89
695.39	18532.36
695.53	18424.70
695.66	18331.08
695.80	18427.04
695.93	18040.85
696.07	18157.88
696.20	17832.54
696.33	17752.96
696.47	17598.49
696.60	17319.96
696.73	17785.73
696.87	18022.12
697.00	17895.74
697.14	17640.62
697.27	17369.12
697.40	17359.75
697.54	17373.80
697.67	17130.38
697.80	17263.79
697.94	17111.66
698.07	17097.61
698.21	17003.99
698.34	16861.22
698.47	16505.46
698.61	16407.16
698.74	16479.71
698.87	16414.18
699.01	16318.22
699.14	16304.17
699.27	16475.03
699.40	16194.17
699.54	16137.99
699.67	16109.91
699.80	16180.12
699.94	16058.42
700.07	15894.58
700.20	16084.16
700.34	15934.37
700.47	15707.34
700.60	15936.71
700.73	15480.30
700.87	15379.66
701.00	15321.15
701.13	15199.44
701.26	15152.63
701.40	15166.67
701.53	14801.55
701.66	14689.20
701.79	14799.21
701.93	14782.82
702.06	14637.71
702.19	14527.71
702.32	14621.33
702.46	14553.45
702.59	14544.09
702.72	14464.51
702.85	14310.04
702.99	14370.89
703.12	14026.83
703.25	14134.50
703.38	13989.38
703.51	14057.26
703.65	13914.48
703.78	13862.99
703.91	13710.86
704.04	13540.00
704.17	13633.62
704.31	13572.77
704.44	13413.61
704.57	13584.47
704.70	13282.54
704.83	13327.01
704.96	13130.41
705.10	12975.93
705.23	13193.60
>>>>>End Processed Spectral Data<<<<<
