SpectraSuite Data File
++++++++++++++++++++++++++++++++++++
Date: Fri Oct 25 11:33:48 EDT 2013
User: price-jones
Dark Spectrum Present: No
Reference Spectrum Present: No
Number of Sampled Component Spectra: 1
Spectrometers: USB2+H05261
Integration Time (usec): 100000 (USB2+H05261)
Spectra Averaged: 1 (USB2+H05261)
Boxcar Smoothing: 0 (USB2+H05261)
Correct for Electrical Dark: No (USB2+H05261)
Strobe/Lamp Enabled: No (USB2+H05261)
Correct for Detector Non-linearity: No (USB2+H05261)
Correct for Stray Light: No (USB2+H05261)
Number of Pixels in Processed Spectrum: 2048
>>>>>Begin Processed Spectral Data<<<<<
365.73	327.68
365.92	327.68
366.12	327.68
366.32	250.44
366.52	194.26
366.72	159.16
366.91	208.31
367.11	201.29
367.31	133.41
367.51	133.41
367.70	152.13
367.90	196.60
368.10	147.45
368.30	161.50
368.49	238.73
368.69	210.65
368.89	184.90
369.09	224.69
369.28	147.45
369.48	163.84
369.68	255.12
369.87	238.73
370.07	243.42
370.27	306.61
370.47	358.10
370.66	447.04
370.86	470.45
371.06	608.54
371.25	610.88
371.45	573.43
371.65	580.45
371.84	596.84
372.04	545.34
372.24	559.39
372.44	599.18
372.63	608.54
372.83	582.79
373.03	599.18
373.22	575.77
373.42	634.29
373.62	620.24
373.81	671.73
374.01	608.54
374.21	627.26
374.40	610.88
374.60	674.07
374.79	664.71
374.99	723.23
375.19	772.38
375.38	744.29
375.58	641.31
375.78	622.58
375.97	627.26
376.17	669.39
376.37	653.01
376.56	657.69
376.76	734.93
376.95	622.58
377.15	692.80
377.35	664.71
377.54	671.73
377.74	648.33
377.93	674.07
378.13	720.88
378.33	685.78
378.52	706.84
378.72	772.38
378.91	812.17
379.11	695.14
379.31	688.12
379.50	814.51
379.70	791.10
379.89	741.95
380.09	692.80
380.28	674.07
380.48	709.18
380.68	699.82
380.87	676.41
381.07	720.88
381.26	765.36
381.46	753.65
381.65	744.29
381.85	800.46
382.04	763.01
382.24	777.06
382.43	748.97
382.63	704.50
382.83	781.74
383.02	763.01
383.22	760.67
383.41	713.86
383.61	760.67
383.80	851.96
384.00	821.53
384.19	809.83
384.39	777.06
384.58	814.51
384.78	727.91
384.97	896.43
385.17	800.46
385.36	798.12
385.56	870.68
385.75	835.57
385.95	823.87
386.14	842.59
386.34	851.96
386.53	861.32
386.72	821.53
386.92	898.77
387.11	837.91
387.31	903.45
387.50	802.80
387.70	924.51
387.89	908.13
388.09	880.04
388.28	821.53
388.48	905.79
388.67	987.71
388.86	868.34
389.06	968.98
389.25	976.00
389.45	945.58
389.64	952.60
389.84	983.02
390.03	1048.56
390.22	940.90
390.42	940.90
390.61	992.39
390.81	868.34
391.00	1048.56
391.19	1008.77
391.39	1043.88
391.58	1020.47
391.78	1088.35
391.97	936.21
392.16	1020.47
392.36	1074.31
392.55	1102.39
392.75	1114.10
392.94	1053.24
393.13	1015.79
393.33	1116.44
393.52	1076.65
393.71	1064.94
393.91	1034.52
394.10	1027.50
394.29	1123.46
394.49	1090.69
394.68	1043.88
394.88	1121.12
395.07	1240.48
395.26	1144.52
395.46	1163.25
395.65	1198.35
395.84	1160.91
396.04	1228.78
396.23	1191.33
396.42	1188.99
396.62	1233.46
396.81	1277.93
397.00	1287.29
397.19	1160.91
397.39	1259.21
397.58	1123.46
397.77	1259.21
397.97	1273.25
398.16	1219.42
398.35	1221.76
398.55	1350.49
398.74	1205.38
398.93	1352.83
399.12	1397.30
399.32	1373.89
399.51	1320.06
399.70	1334.11
399.90	1373.89
400.09	1416.02
400.28	1313.04
400.47	1399.64
400.67	1376.24
400.86	1420.71
401.05	1413.68
401.24	1486.24
401.44	1448.79
401.63	1479.22
401.82	1472.20
402.01	1434.75
402.21	1582.20
402.40	1481.56
402.59	1427.73
402.78	1495.60
402.97	1427.73
403.17	1549.43
403.36	1530.71
403.55	1631.35
403.74	1586.88
403.93	1582.20
404.13	1621.99
404.32	1596.25
404.51	1551.78
404.70	1673.48
404.89	1629.01
405.09	1720.29
405.28	1699.23
405.47	1771.79
405.66	1699.23
405.85	1685.19
406.05	1741.36
406.24	1687.53
406.43	1774.13
406.62	1858.39
406.81	1792.85
407.00	1732.00
407.20	1699.23
407.39	1781.15
407.58	1944.99
407.77	1802.21
407.96	1811.57
408.15	1926.26
408.34	1806.89
408.54	1984.77
408.73	1832.64
408.92	1888.81
409.11	1973.07
409.30	2001.16
409.49	1989.46
409.68	1961.37
409.87	2033.93
410.07	2029.24
410.26	2019.88
410.45	2094.78
410.64	2134.57
410.83	2083.08
411.02	2146.27
411.21	2214.15
411.40	2258.62
411.59	2097.12
411.78	2155.63
411.98	2153.29
412.17	2125.21
412.36	2237.55
412.55	2277.34
412.74	2286.70
412.93	2363.94
413.12	2272.66
413.31	2427.14
413.50	2385.01
413.69	2431.82
413.88	2483.31
414.07	2497.35
414.26	2466.92
414.45	2434.16
414.64	2443.52
414.83	2579.27
415.02	2654.17
415.22	2745.45
415.41	2644.81
415.60	2602.68
415.79	2682.25
415.98	2677.57
416.17	2731.41
416.36	2705.66
416.55	2782.90
416.74	2712.68
416.93	2911.63
417.12	2869.50
417.31	2834.39
417.50	2836.73
417.69	2963.12
417.88	2970.14
418.07	2939.71
418.26	3007.59
418.45	2984.18
418.64	3173.77
418.83	3059.08
419.02	3016.95
419.21	3056.74
419.39	3026.31
419.58	3026.31
419.77	3143.34
419.96	3133.98
420.15	3133.98
420.34	3075.46
420.53	3066.10
420.72	3421.86
420.91	3234.62
421.10	3204.19
421.29	3215.90
421.48	3253.34
421.67	3213.56
421.86	3192.49
422.05	3243.98
422.24	3171.43
422.43	3403.14
422.61	3260.37
422.80	3426.54
422.99	3281.43
423.18	3389.10
423.37	3506.12
423.56	3475.70
423.75	3255.69
423.94	3337.60
424.13	3281.43
424.32	3396.12
424.50	3466.33
424.69	3604.42
424.88	3517.83
425.07	3410.16
425.26	3473.36
425.45	3431.23
425.64	3384.41
425.83	3353.99
426.01	3637.19
426.20	3536.55
426.39	3501.44
426.58	3466.33
426.77	3517.83
426.96	3463.99
427.15	3616.13
427.33	3651.24
427.52	3613.79
427.71	3592.72
427.90	3463.99
428.09	3555.27
428.28	3726.13
428.46	3679.32
428.65	3658.26
428.84	3761.24
429.03	3700.39
429.22	3426.54
429.40	3768.26
429.59	3885.29
429.78	3620.81
429.97	3712.09
430.16	3768.26
430.34	3765.92
430.53	3913.38
430.72	3742.52
430.91	3822.09
431.10	3882.95
431.28	3939.12
431.47	3887.63
431.66	3983.59
431.85	4007.00
432.03	3901.67
432.22	3995.29
432.41	4156.79
432.60	4107.64
432.79	4119.34
432.97	4044.45
433.16	4077.21
433.35	4208.28
433.54	4074.87
433.72	4170.83
433.91	4166.15
434.10	4187.22
434.28	4154.45
434.47	4236.37
434.66	4313.61
434.85	4170.83
435.03	4334.67
435.22	4294.88
435.41	4414.25
435.59	4489.15
435.78	4423.61
435.97	4409.57
436.16	4337.01
436.34	4280.84
436.53	4337.01
436.72	4610.86
436.90	4430.63
437.09	4435.32
437.28	4470.42
437.46	4695.11
437.65	4461.06
437.84	4435.32
438.02	4613.20
438.21	4746.61
438.40	4573.41
438.58	4638.94
438.77	4915.12
438.96	4765.33
439.14	4870.65
439.33	4940.87
439.52	5018.11
439.70	4999.38
439.89	4971.30
440.08	5055.56
440.26	5172.58
440.45	5142.16
440.63	5041.51
440.82	5228.76
441.01	5231.10
441.19	5107.05
441.38	5362.17
441.57	5172.58
441.75	5369.19
441.94	5437.06
442.12	5462.81
442.31	5514.30
442.50	5509.62
442.68	5359.83
442.87	5430.04
443.05	5624.31
443.24	5647.71
443.43	5507.28
443.61	5446.43
443.80	5830.27
443.98	5561.11
444.17	5399.62
444.35	5530.69
444.54	5706.23
444.73	5593.88
444.91	5781.12
445.10	5720.27
445.28	5554.09
445.47	5584.52
445.65	5626.65
445.84	5724.95
446.02	5689.84
446.21	5575.16
446.39	5654.73
446.58	5776.44
446.77	5701.54
446.95	5628.99
447.14	5722.61
447.32	5834.96
447.51	5668.78
447.69	5612.60
447.88	5692.18
448.06	5809.21
448.25	5863.04
448.43	5912.19
448.62	5851.34
448.80	5692.18
448.99	5858.36
449.17	6031.56
449.36	5799.85
449.54	5987.09
449.73	5947.30
449.91	6059.65
450.10	6064.33
450.28	6125.18
450.46	5895.81
450.65	6033.90
450.83	6162.63
451.02	5949.64
451.20	6139.23
451.39	6092.41
451.57	6108.80
451.76	6197.74
451.94	6300.72
452.13	6225.82
452.31	6445.84
452.49	6223.48
452.68	6436.47
452.86	6445.84
453.05	6424.77
453.23	6445.84
453.42	6466.90
453.60	6228.17
453.78	6450.52
453.97	6349.87
454.15	6455.20
454.34	6284.34
454.52	6590.95
454.70	6576.91
454.89	6555.84
455.07	6623.72
455.26	6609.67
455.44	6726.70
455.62	6799.26
455.81	6574.56
455.99	6565.20
456.17	6810.96
456.36	6806.28
456.54	6963.09
456.73	6930.33
456.91	7040.33
457.09	6974.80
457.28	6995.86
457.46	6981.82
457.64	7061.40
457.83	7290.77
458.01	6874.15
458.19	7201.83
458.38	7133.95
458.56	7187.79
458.74	7002.88
458.93	7279.07
459.11	7234.60
459.29	7150.34
459.48	7267.36
459.66	7375.03
459.84	7475.67
460.03	7335.24
460.21	7400.77
460.39	7363.33
460.57	7382.05
460.76	7648.87
460.94	7456.95
461.12	7583.34
461.31	7606.74
461.49	7426.52
461.67	7428.86
461.85	7723.77
462.04	7644.19
462.22	8135.70
462.40	7726.11
462.59	7679.30
462.77	7655.89
462.95	7852.50
463.13	7620.78
463.32	7854.84
463.50	7967.18
463.68	7932.08
463.86	8021.02
464.05	7749.51
464.23	7845.48
464.41	8091.23
464.59	7887.61
464.78	7969.52
464.96	8018.68
465.14	8051.44
465.32	8250.39
465.50	8088.89
465.69	7999.95
465.87	8006.97
466.05	8053.78
466.23	8091.23
466.41	8084.21
466.60	8124.00
466.78	8161.45
466.96	8044.42
467.14	8353.37
467.32	8119.32
467.51	8379.12
467.69	8226.98
467.87	8390.82
468.05	8620.19
468.23	8425.93
468.41	8264.43
468.60	8458.70
468.78	8716.16
468.96	8430.61
469.14	8610.83
469.32	8542.96
469.50	8470.40
469.69	8734.88
469.87	8692.75
470.05	8723.18
470.23	8725.52
470.41	8924.46
470.59	8718.50
470.77	8737.22
470.95	8779.35
471.14	9242.78
471.32	8816.80
471.50	9064.89
471.68	9102.34
471.86	9139.79
472.04	9074.26
472.22	9366.82
472.40	9069.58
472.58	9287.25
472.77	9179.58
472.95	9451.08
473.13	9715.56
473.31	9413.63
473.49	9497.89
473.67	9432.36
473.85	9535.34
474.03	9696.84
474.21	9797.48
474.39	9738.97
474.57	9865.36
474.75	9970.68
474.93	9949.62
475.12	10073.67
475.30	10003.45
475.48	10033.88
475.66	10195.37
475.84	10209.42
476.02	10298.36
476.20	10136.86
476.38	10441.13
476.56	10576.88
476.74	10485.60
476.92	10532.41
477.10	10546.45
477.28	10572.20
477.46	10473.90
477.64	10780.51
477.82	10843.70
478.00	11044.99
478.18	10932.64
478.36	11276.70
478.54	11288.40
478.72	11489.69
478.90	11365.64
479.08	11719.06
479.26	11557.57
479.44	11726.08
479.62	11793.96
479.80	11686.29
479.98	11934.39
480.16	12191.85
480.34	12079.50
480.52	12205.89
480.70	12163.76
480.88	12044.40
481.06	12238.66
481.24	12514.84
481.41	12449.31
481.59	12540.59
481.77	12901.03
481.95	12926.78
482.13	13067.21
482.31	13062.53
482.49	13453.40
482.67	13174.88
482.85	13217.01
483.03	13841.93
483.21	13694.47
483.39	13633.62
483.57	13841.93
483.74	13748.31
483.92	13940.23
484.10	14132.15
484.28	14178.97
484.46	14714.95
484.64	14855.38
484.82	14738.35
485.00	14794.53
485.18	14768.78
485.35	15122.20
485.53	15096.46
485.71	15087.09
485.89	15337.53
486.07	15269.66
486.25	15360.94
486.43	15573.92
486.61	15417.11
486.78	15805.64
486.96	15960.11
487.14	15758.83
487.32	16444.60
487.50	16360.34
487.68	16383.75
487.85	16664.61
488.03	16732.49
488.21	17018.04
488.39	16954.84
488.57	17076.55
488.75	17504.87
488.92	17294.22
489.10	17408.90
489.28	17713.17
489.46	17900.42
489.64	17619.55
489.81	18155.54
489.99	18054.89
490.17	18389.59
490.35	18672.79
490.53	18705.56
490.70	18494.91
490.88	18590.88
491.06	18661.09
491.24	18946.64
491.41	19143.24
491.59	18918.55
491.77	19283.67
491.95	19594.96
492.13	19576.24
492.30	19679.22
492.48	19887.53
492.66	19803.27
492.84	19887.53
493.01	19819.66
493.19	20393.09
493.37	20051.37
493.54	20746.51
493.72	20318.19
493.90	20407.13
494.08	20739.49
494.25	20915.03
494.43	20884.60
494.61	21256.75
494.79	21322.28
494.96	21298.88
495.14	21118.65
495.32	21692.08
495.49	21823.16
495.67	21816.13
495.85	21930.82
496.02	21874.65
496.20	22504.25
496.38	22497.23
496.55	22555.74
496.73	22778.09
496.91	22539.36
497.09	22829.59
497.26	23065.98
497.44	22785.12
497.62	22951.29
497.79	23396.00
497.97	23140.88
498.14	23309.40
498.32	23740.05
498.50	23828.99
498.67	23763.46
498.85	23606.64
499.03	24257.31
499.20	24109.86
499.38	24128.58
499.56	24261.99
499.73	24542.86
499.91	24680.95
500.08	24622.44
500.26	24685.63
500.44	24648.18
500.61	24833.08
500.79	24563.92
500.97	25074.16
501.14	25219.27
501.32	25406.52
501.49	25029.69
501.67	25390.13
501.84	25748.23
502.02	25509.50
502.20	25504.82
502.37	25673.34
502.55	25544.61
502.72	25568.01
502.90	25860.58
503.07	25626.53
503.25	25956.54
503.43	26026.76
503.60	26546.36
503.78	26281.88
503.95	26527.63
504.13	26260.81
504.30	26693.81
504.48	26560.40
504.65	26780.41
504.83	26981.70
505.01	27094.04
505.18	27349.16
505.36	27206.39
505.53	27267.24
505.71	27494.27
505.88	27395.97
506.06	27033.19
506.23	27620.66
506.41	27487.25
506.58	27503.64
506.76	28074.73
506.93	27735.35
507.11	27810.25
507.28	28276.01
507.46	28215.16
507.63	27960.04
507.81	28173.03
507.98	28126.22
508.16	28208.14
508.33	28432.83
508.50	28657.52
508.68	29032.00
508.85	29146.69
509.03	29074.13
509.20	28978.17
509.38	29373.72
509.55	29137.33
509.73	29209.89
509.90	29153.71
510.08	28985.19
510.25	29163.08
510.42	29546.92
510.60	29762.25
510.77	29825.45
510.95	30073.54
511.12	29940.13
511.30	29926.09
511.47	30043.12
511.64	30153.12
511.82	30415.26
511.99	30756.98
512.17	30628.25
512.34	30169.51
512.51	30691.44
512.69	30944.22
512.86	30824.86
513.04	30953.58
513.21	30937.20
513.38	31012.10
513.56	31388.92
513.73	30937.20
513.90	31370.20
514.08	31044.87
514.25	31367.86
514.43	31477.86
514.60	31620.64
514.77	31756.39
514.95	31938.95
515.12	31559.78
515.29	31763.41
515.47	32025.55
515.64	32306.41
515.81	31915.54
515.99	31974.06
516.16	32430.46
516.33	32409.40
516.51	32311.10
516.68	32472.59
516.85	32727.71
517.03	32804.95
517.20	32978.15
517.37	32364.93
517.54	32830.69
517.72	32437.48
517.89	32917.29
518.06	33315.19
518.24	32797.93
518.41	33146.67
518.58	33069.43
518.75	33036.66
518.93	33500.09
519.10	33329.23
519.27	33336.25
519.45	33528.17
519.62	33546.90
519.79	33247.31
519.96	33750.52
520.14	34164.80
520.31	33663.93
520.48	33818.40
520.65	34087.56
520.83	34345.02
521.00	34567.37
521.17	34157.78
521.34	34480.77
521.52	34356.72
521.69	34560.35
521.86	34614.18
522.03	35016.75
522.20	34836.53
522.38	34721.85
522.55	34906.75
522.72	34763.98
522.89	34785.04
523.07	35786.79
523.24	35211.02
523.41	35398.26
523.58	34948.88
523.75	35473.16
523.92	35299.96
524.10	35529.33
524.27	35718.92
524.44	35573.80
524.61	35622.95
524.78	35871.05
524.96	35927.22
525.13	35768.07
525.30	35955.31
525.47	36196.38
525.64	36418.74
525.81	36638.75
525.98	36088.72
526.16	36163.62
526.33	36467.89
526.50	36369.58
526.67	36030.21
526.84	36430.44
527.01	36474.91
527.18	36624.70
527.36	36833.01
527.53	36973.44
527.70	37038.98
527.87	37273.03
528.04	36847.05
528.21	37141.96
528.38	37198.13
528.55	37628.79
528.72	37170.05
528.89	37373.67
529.07	36900.89
529.24	37153.66
529.41	37605.39
529.58	37535.17
529.75	37060.04
529.92	37535.17
530.09	37933.06
530.26	37530.49
530.43	37764.54
530.60	37329.20
530.77	37207.50
530.94	37909.66
531.11	37797.31
531.28	38050.09
531.46	38071.15
531.63	38120.31
531.80	38127.33
531.97	38134.35
532.14	38347.34
532.31	38078.18
532.48	38197.54
532.65	38813.10
532.82	38164.78
532.99	38433.94
533.16	38396.49
533.33	38763.95
533.50	38902.04
533.67	38557.99
533.84	38766.29
534.01	38866.94
534.18	38693.74
534.35	39393.56
534.52	39358.45
534.69	39229.72
534.86	39522.29
535.03	39028.43
535.20	39122.05
535.37	39763.36
535.54	39519.95
535.71	39421.64
535.88	39622.93
536.05	39463.77
536.22	39576.12
536.38	39903.79
536.55	39711.87
536.72	39681.44
536.89	39594.84
537.06	39674.42
537.23	39789.11
537.40	39529.31
537.57	39672.08
537.74	39789.11
537.91	39819.53
538.08	40327.43
538.25	39611.23
538.42	39943.58
538.59	40205.72
538.75	39999.76
538.92	40474.88
539.09	40390.62
539.26	40376.58
539.43	40519.35
539.60	40512.33
539.77	40573.19
539.94	40142.53
540.11	40531.06
540.28	40643.40
540.44	40666.81
540.61	40730.00
540.78	40732.34
540.95	40678.51
541.12	40797.88
541.29	40816.60
541.46	40844.69
541.62	40947.67
541.79	41462.59
541.96	40832.99
542.13	41050.66
542.30	41074.06
542.47	41441.53
542.63	41123.21
542.80	41806.65
542.97	41710.69
543.14	41530.47
543.31	41691.96
543.48	41514.08
543.64	42342.63
543.81	41914.31
543.98	41816.01
544.15	42033.68
544.32	42197.52
544.48	42473.70
544.65	42139.00
544.82	42344.97
544.99	42101.56
545.16	42218.58
545.32	42494.77
545.49	42417.53
545.66	42529.87
545.83	42555.62
546.00	42560.30
546.16	42567.32
546.33	42380.08
546.50	42127.30
546.67	42670.31
546.83	42263.05
547.00	42674.99
547.17	42183.48
547.34	42522.85
547.50	42967.55
547.67	43143.09
547.84	42827.12
548.00	43330.34
548.17	43545.67
548.34	43365.45
548.51	43456.73
548.67	42824.78
548.84	42906.70
549.01	43129.05
549.18	42909.04
549.34	43529.28
549.51	43482.47
549.68	43421.62
549.84	43796.10
550.01	43487.15
550.18	43093.94
550.34	43199.27
550.51	43604.18
550.68	44126.12
550.84	43302.25
551.01	43749.29
551.18	43718.87
551.34	43409.92
551.51	44236.12
551.68	43487.15
551.84	43627.59
552.01	43863.98
552.18	43814.83
552.34	43531.62
552.51	44055.90
552.68	44215.06
552.84	43739.93
553.01	44095.69
553.18	43702.48
553.34	44179.95
553.51	44065.27
553.67	43990.37
553.84	44196.34
554.01	44404.64
554.17	44091.01
554.34	44222.08
554.51	44215.06
554.67	44879.77
554.84	44308.68
555.00	44584.86
555.17	44285.28
555.33	44926.58
555.50	44921.90
555.67	44648.06
555.83	44371.88
556.00	44484.22
556.16	45137.23
556.33	44882.11
556.50	45059.99
556.66	44748.70
556.83	44617.63
556.99	44996.80
557.16	45088.08
557.32	45106.80
557.49	45001.48
557.65	44720.62
557.82	45045.95
557.98	45265.96
558.15	45404.05
558.32	45413.41
558.48	45003.82
558.65	45244.90
558.81	45247.24
558.98	45333.84
559.14	45045.95
559.31	45153.62
559.47	45457.88
559.64	45174.68
559.80	44732.32
559.97	45490.65
560.13	44996.80
560.30	45436.82
560.46	45406.39
560.63	45455.54
560.79	45120.85
560.96	45724.71
561.12	45553.85
561.29	45694.28
561.45	45411.07
561.61	45567.89
561.78	45750.45
561.94	46071.10
562.11	45790.24
562.27	45361.92
562.44	45406.39
562.60	45624.06
562.77	46141.32
562.93	45731.73
563.10	45975.14
563.26	45752.79
563.42	46169.41
563.59	45701.30
563.75	45771.52
563.92	45759.81
564.08	45553.85
564.24	45972.80
564.41	45984.51
564.57	46052.38
564.74	46007.91
564.90	46164.73
565.07	45862.80
565.23	46298.14
565.39	46122.60
565.56	46368.35
565.72	46012.59
565.88	45715.34
566.05	45900.25
566.21	46134.30
566.38	46099.19
566.54	46241.96
566.70	46480.70
566.87	46394.10
567.03	46384.74
567.19	46192.81
567.36	46616.45
567.52	46277.07
567.68	46703.05
567.85	46724.11
568.01	46464.32
568.17	46590.70
568.34	46375.37
568.50	46747.52
568.66	46099.19
568.83	46644.54
568.99	46204.52
569.15	46546.23
569.32	46195.15
569.48	45745.77
569.64	46948.81
569.81	46801.35
569.97	46541.55
570.13	46670.28
570.30	46487.72
570.46	46501.76
570.62	46866.89
570.78	46768.58
570.95	46174.09
571.11	46752.20
571.27	46490.06
571.43	46567.30
571.60	46366.01
571.76	46719.43
571.92	46770.93
572.09	46810.71
572.25	46579.00
572.41	46590.70
572.57	46749.86
572.74	46918.38
572.90	46689.01
573.06	47100.94
573.22	46623.47
573.38	47281.16
573.55	47143.07
573.71	47147.75
573.87	46836.46
574.03	46738.16
574.20	47037.75
574.36	46948.81
574.52	46925.40
574.68	46990.94
574.84	47246.05
575.01	47222.65
575.17	46939.44
575.33	47122.01
575.49	46590.70
575.65	47037.75
575.82	46588.36
575.98	47105.62
576.14	47196.90
576.30	47351.38
576.46	46887.95
576.62	46862.21
576.79	47012.00
576.95	46602.41
577.11	47047.11
577.27	46876.25
577.43	46925.40
577.59	47166.48
577.75	46885.61
577.92	46913.70
578.08	47065.83
578.24	47068.17
578.40	47004.98
578.56	47285.84
578.72	46909.02
578.88	47250.74
579.04	47285.84
579.21	47107.96
579.37	46983.91
579.53	47241.37
579.69	46869.23
579.85	46834.12
580.01	47150.09
580.17	46934.76
580.33	46609.43
580.49	47129.03
580.65	47365.42
580.82	46918.38
580.98	46902.00
581.14	46710.07
581.30	47051.79
581.46	47014.34
581.62	47004.98
581.78	46845.82
581.94	47210.95
582.10	47117.32
582.26	47358.40
582.42	46876.25
582.58	47239.03
582.74	47217.97
582.90	47056.47
583.06	47077.54
583.22	46841.14
583.38	47370.10
583.54	47325.63
583.70	47278.82
583.86	47281.16
584.02	47058.81
584.18	47407.55
584.34	47510.53
584.50	47533.94
584.66	47309.25
584.82	47224.99
584.98	47519.90
585.14	47065.83
585.30	47175.84
585.46	47449.68
585.62	47210.95
585.78	47166.48
585.94	47075.19
586.10	47873.32
586.26	47136.05
586.42	47189.88
586.58	47370.10
586.74	47241.37
586.90	47145.41
587.06	47276.48
587.22	47178.18
587.38	47239.03
587.54	47423.93
587.70	47386.49
587.86	47683.73
588.02	47051.79
588.18	47421.59
588.34	47463.72
588.49	47653.31
588.65	47239.03
588.81	47597.13
588.97	47351.38
589.13	47110.30
589.29	47590.11
589.45	47807.78
589.61	47552.66
589.77	47447.34
589.93	47510.53
590.08	47899.06
590.24	47814.80
590.40	48126.10
590.56	48205.67
590.72	47880.34
590.88	47749.27
591.04	47531.60
591.20	47646.29
591.35	48093.33
591.51	48444.41
591.67	47807.78
591.83	47931.83
591.99	48196.31
592.15	47711.82
592.31	47632.24
592.46	47683.73
592.62	47452.02
592.78	48193.97
592.94	47999.71
593.10	47901.40
593.26	48268.87
593.41	48200.99
593.57	47847.57
593.73	47856.93
593.89	48282.91
594.05	48013.75
594.20	47938.85
594.36	48353.13
594.52	48130.78
594.68	47636.92
594.84	48112.05
594.99	48294.61
595.15	47873.32
595.31	48266.53
595.47	48311.00
595.62	47669.69
595.78	47723.52
595.94	48318.02
596.10	48025.45
596.25	48236.10
596.41	47943.53
596.57	48130.78
596.73	48128.44
596.88	47899.06
597.04	48308.66
597.20	48128.44
597.36	48217.38
597.51	48074.60
597.67	48250.14
597.83	48247.80
597.99	48280.57
598.14	48041.84
598.30	48158.86
598.46	48229.08
598.61	48465.47
598.77	48142.48
598.93	48261.85
599.09	48203.33
599.24	48470.15
599.40	48140.14
599.56	48123.75
599.71	48128.44
599.87	48727.61
600.03	48484.20
600.18	48353.13
600.34	48226.74
600.50	48163.54
600.65	48170.57
600.81	48722.93
600.97	48666.76
601.12	48428.02
601.28	48182.27
601.44	48271.21
601.59	47882.68
601.75	47966.94
601.91	48535.69
602.06	48435.05
602.22	48783.79
602.37	48271.21
602.53	48229.08
602.69	48294.61
602.84	47842.89
603.00	48177.59
603.16	48334.40
603.31	48037.16
603.47	48383.55
603.62	48170.57
603.78	48395.26
603.94	48252.48
604.09	48495.90
604.25	48156.52
604.40	47833.53
604.56	48751.02
604.71	48458.45
604.87	47952.90
605.03	48151.84
605.18	48222.06
605.34	48315.68
605.49	47845.23
605.65	48479.52
605.80	47782.04
605.96	47660.33
606.12	47824.17
606.27	48350.79
606.43	47913.11
606.58	48514.62
606.74	48196.31
606.89	48027.79
607.05	48119.07
607.20	48006.73
607.36	48200.99
607.51	48039.50
607.67	48072.26
607.82	47955.24
607.98	47938.85
608.13	47690.76
608.29	48369.51
608.44	48254.82
608.60	47854.59
608.75	48250.14
608.91	47899.06
609.06	47753.95
609.22	48357.81
609.37	47870.98
609.53	48009.07
609.68	47650.97
609.84	47702.46
609.99	47955.24
610.15	47920.13
610.30	48200.99
610.46	47803.10
610.61	47910.77
610.76	48191.63
610.92	47590.11
611.07	47690.76
611.23	47835.87
611.38	48163.54
611.54	47824.17
611.69	47978.64
611.84	48215.04
612.00	47739.91
612.15	47854.59
612.31	47770.33
612.46	47557.35
612.62	47594.79
612.77	47674.37
612.92	48158.86
613.08	47452.02
613.23	47566.71
613.39	47480.11
613.54	47571.39
613.69	47709.48
613.85	47452.02
614.00	47634.58
614.15	47873.32
614.31	47770.33
614.46	47332.65
614.62	47292.86
614.77	47454.36
614.92	47379.46
615.08	47407.55
615.23	47461.38
615.38	48168.22
615.54	47641.60
615.69	47482.45
615.84	47384.15
616.00	47697.78
616.15	47346.70
616.30	47786.72
616.46	47452.02
616.61	47353.72
616.76	47320.95
616.92	47250.74
617.07	47625.22
617.22	47468.40
617.37	46944.12
617.53	47260.10
617.68	47292.86
617.83	47344.36
617.99	47496.49
618.14	47356.06
618.29	47224.99
618.45	46670.28
618.60	46965.19
618.75	46951.15
618.90	47334.99
619.06	46934.76
619.21	46784.97
619.36	47297.55
619.51	46586.02
619.67	46726.46
619.82	46920.72
619.97	46944.12
620.12	46595.38
620.28	46548.57
620.43	47208.61
620.58	46976.89
620.73	46752.20
620.89	47248.39
621.04	46981.57
621.19	47131.37
621.34	47012.00
621.49	46873.91
621.65	46588.36
621.80	47143.07
621.95	46958.17
622.10	46653.90
622.25	46499.42
622.41	46630.49
622.56	46469.00
622.71	47044.77
622.86	46541.55
623.01	46834.12
623.16	46459.63
623.32	46770.93
623.47	46616.45
623.62	46239.62
623.77	46665.60
623.92	46672.62
624.07	46583.68
624.23	46436.23
624.38	46471.34
624.53	46380.06
624.68	46394.10
624.83	46464.32
624.98	46368.35
625.13	45949.40
625.29	45975.14
625.44	46361.33
625.59	46323.88
625.74	45968.12
625.89	45813.65
626.04	46096.85
626.19	46036.00
626.34	45591.30
626.49	46012.59
626.65	45523.42
626.80	45869.82
626.95	45703.64
627.10	45638.11
627.25	45635.77
627.40	45862.80
627.55	46141.32
627.70	45478.95
627.85	45862.80
628.00	45886.20
628.15	45626.40
628.30	45469.59
628.45	45553.85
628.60	45731.73
628.76	45455.54
628.91	45614.70
629.06	45352.56
629.21	45382.99
629.36	45198.09
629.51	46101.53
629.66	45876.84
629.81	45425.12
629.96	45485.97
630.11	45471.93
630.26	45329.16
630.41	45247.24
630.56	45432.14
630.71	45645.13
630.86	45579.59
631.01	44875.09
631.16	45167.66
631.31	44818.92
631.46	45406.39
631.61	45198.09
631.76	45441.50
631.91	45097.44
632.06	45605.34
632.21	45595.98
632.36	45312.77
632.51	44893.82
632.66	45331.50
632.81	44776.79
632.96	45038.93
633.10	44821.26
633.25	45301.07
633.40	44877.43
633.55	45043.61
633.70	44917.22
633.85	44648.06
634.00	44772.11
634.15	44837.64
634.30	44587.21
634.45	44634.02
634.60	44905.52
634.75	45181.70
634.90	44311.02
635.05	44666.78
635.19	44505.29
635.34	44708.91
635.49	44458.48
635.64	44617.63
635.79	44961.69
635.94	44718.28
636.09	44488.90
636.24	44233.78
636.39	44414.01
636.53	44318.04
636.68	44208.04
636.83	44107.40
636.98	44348.47
637.13	43821.85
637.28	44217.40
637.43	43969.30
637.57	44240.81
637.72	43746.95
637.87	43985.69
638.02	44179.95
638.17	43948.24
638.32	43906.11
638.46	44018.46
638.61	43807.81
638.76	43969.30
638.91	44168.25
639.06	43669.72
639.20	43225.01
639.35	43702.48
639.50	43538.65
639.65	43761.00
639.80	43878.02
639.94	43936.54
640.09	44273.57
640.24	43875.68
640.39	44067.61
640.54	43412.26
640.68	43702.48
640.83	44165.91
640.98	43718.87
641.13	43054.15
641.27	43852.28
641.42	43622.90
641.57	43239.06
641.72	43983.35
641.86	43306.93
642.01	42885.64
642.16	43070.54
642.31	43049.47
642.45	43632.27
642.60	42738.18
642.75	43070.54
642.90	43700.14
643.04	43213.31
643.19	43330.34
643.34	43082.24
643.48	43100.97
643.63	42752.23
643.78	43005.00
643.93	43196.93
644.07	43409.92
644.22	43311.61
644.37	42710.10
644.51	43320.98
644.66	43225.01
644.81	43086.92
644.95	43503.54
645.10	42920.74
645.25	42983.94
645.39	42698.39
645.54	43086.92
645.69	42394.12
645.83	42464.34
645.98	42576.69
646.13	42440.93
646.27	42885.64
646.42	42696.05
646.57	42960.53
646.71	42696.05
646.86	43014.37
647.00	43096.28
647.15	42616.47
647.30	42829.46
647.44	42454.98
647.59	42466.68
647.74	42534.56
647.88	42735.84
648.03	42674.99
648.17	42976.92
648.32	42871.59
648.47	42745.20
648.61	42122.62
648.76	42286.46
648.90	42211.56
649.05	41977.51
649.20	42244.33
649.34	42424.55
649.49	42043.04
649.63	42211.56
649.78	42443.27
649.92	42396.46
650.07	42717.12
650.21	42508.81
650.36	42696.05
650.51	42146.03
650.65	42440.93
650.80	42113.26
650.94	42422.21
651.09	42199.86
651.23	41928.36
651.38	41823.03
651.52	41570.25
651.67	42003.25
651.81	41776.22
651.96	41764.52
652.10	41132.57
652.25	41443.87
652.39	41324.50
652.54	41596.00
652.68	41570.25
652.83	41165.34
652.97	41647.49
653.12	41766.86
653.26	41109.17
653.41	41385.35
653.55	41785.58
653.70	42129.64
653.84	41706.01
653.99	41457.91
654.13	41715.37
654.27	41401.74
654.42	41621.75
654.56	41392.37
654.71	41649.83
654.85	41617.07
655.00	41443.87
655.14	41446.21
655.29	42045.38
655.43	41764.52
655.57	41359.61
655.72	40875.12
655.86	41062.36
656.01	40889.16
656.15	40973.42
656.30	40854.05
656.44	41130.23
656.58	41134.92
656.73	41186.41
656.87	40861.07
657.01	40655.11
657.16	40779.15
657.30	41109.17
657.45	40502.97
657.59	40505.31
657.73	40598.93
657.88	40664.47
658.02	40594.25
658.16	40947.67
658.31	40348.50
658.45	40877.46
658.60	40109.76
658.74	41109.17
658.88	40781.49
659.03	40488.93
659.17	40751.07
659.31	40278.28
659.46	40470.20
659.60	40467.86
659.74	40109.76
659.89	40062.95
660.03	39578.46
660.17	40198.70
660.32	39999.76
660.46	39751.66
660.60	40058.27
660.74	39590.16
660.89	40236.15
661.03	39583.14
661.17	39548.03
661.32	39639.31
661.46	40196.36
661.60	39459.09
661.74	39313.98
661.89	39571.44
662.03	39810.17
662.17	38913.75
662.31	39208.65
662.46	39440.37
662.60	39484.84
662.74	39033.11
662.88	38967.58
663.03	39285.89
663.17	38504.15
663.31	39173.55
663.45	39124.40
663.60	39119.71
663.74	39117.37
663.88	38785.02
664.02	38890.34
664.17	38852.89
664.31	38239.67
664.45	38536.92
664.59	38384.79
664.73	38457.34
664.88	38534.58
665.02	37816.04
665.16	38501.81
665.30	38345.00
665.44	38560.33
665.59	38017.32
665.73	37457.93
665.87	37766.88
666.01	37982.21
666.15	37778.59
666.29	37893.27
666.44	37734.12
666.58	37778.59
666.72	37104.51
666.86	37787.95
667.00	37479.00
667.14	37366.65
667.28	37464.96
667.43	37455.59
667.57	37928.38
667.71	37759.86
667.85	37769.22
667.99	37397.08
668.13	37233.24
668.27	36491.29
668.41	37205.16
668.56	36678.54
668.70	36924.29
668.84	36172.98
668.98	36126.17
669.12	36552.15
669.26	36708.96
669.40	36809.61
669.54	36613.00
669.68	36708.96
669.82	36605.98
669.96	36093.40
670.10	36168.30
670.25	36212.77
670.39	36463.21
670.53	36048.93
670.67	36046.59
670.81	36156.60
670.95	36023.19
671.09	35810.20
671.23	35896.80
671.37	36044.25
671.51	35779.77
671.65	35428.69
671.79	35517.63
671.93	35803.17
672.07	35927.22
672.21	35758.70
672.35	35335.07
672.49	35405.28
672.63	35239.11
672.77	34637.59
672.91	35264.85
673.05	35192.30
673.19	34923.13
673.33	34902.07
673.47	34380.13
673.61	34639.93
673.75	34527.58
673.89	34438.64
674.03	34389.49
674.17	34082.88
674.31	33717.76
674.45	34426.94
674.59	33628.82
674.73	33907.34
674.87	33675.63
675.01	33689.67
675.15	33205.18
675.29	33350.29
675.43	33364.34
675.56	33432.21
675.70	33790.31
675.84	33511.79
675.98	32215.13
676.12	33516.47
676.26	33053.05
676.40	33015.60
676.54	32554.51
676.68	32816.65
676.82	31974.06
676.96	32921.98
677.10	32353.23
677.23	32210.45
677.37	32273.65
677.51	32283.01
677.65	32130.87
677.79	32044.27
677.93	32098.11
678.07	31730.64
678.21	31201.68
678.34	31351.48
678.48	31744.69
678.62	31328.07
678.76	31398.29
678.90	31229.77
679.04	30986.35
679.18	31442.76
679.31	30897.41
679.45	30515.90
679.59	30684.42
679.73	30764.00
679.87	30443.35
680.00	30590.80
680.14	30490.16
680.28	30478.46
680.42	29869.92
680.56	30164.82
680.70	30113.33
680.83	29736.51
680.97	29748.21
681.11	29940.13
681.25	29357.34
681.39	29336.27
681.52	29113.92
681.66	29029.66
681.80	28835.40
681.94	28924.34
682.07	28807.31
682.21	28945.41
682.35	28849.44
682.49	28638.80
682.62	28727.74
682.76	28606.03
682.90	28584.96
683.04	28329.84
683.17	28418.78
683.31	28273.67
683.45	27700.24
683.59	28173.03
683.72	27742.37
683.86	27489.59
684.00	27517.68
684.13	27812.59
684.27	27503.64
684.41	27054.25
684.55	27480.23
684.68	27459.16
684.82	26808.50
684.96	26909.14
685.09	26965.31
685.23	26801.47
685.37	27164.26
685.50	26890.41
685.64	26794.45
685.78	26457.42
685.91	26529.97
686.05	25741.21
686.19	25572.69
686.32	25837.17
686.46	25514.18
686.60	25434.60
686.73	25535.24
686.87	25631.21
687.01	25956.54
687.14	25659.29
687.28	25277.79
687.42	25596.10
687.55	24739.46
687.69	24971.18
687.82	24877.55
687.96	24702.01
688.10	25238.00
688.23	24844.79
688.37	24865.85
688.50	24816.70
688.64	24350.93
688.78	24601.37
688.91	24308.80
689.05	24521.79
689.18	24009.22
689.32	23690.90
689.46	23824.31
689.59	23601.96
689.73	24086.45
689.86	24147.31
690.00	23899.21
690.13	23690.90
690.27	23243.86
690.41	23445.15
690.54	23002.78
690.68	23285.99
690.81	22794.48
690.95	23026.19
691.08	22700.86
691.22	22579.15
691.35	22164.87
691.49	22831.93
691.62	22508.93
691.76	22284.24
691.89	22272.54
692.03	21940.18
692.16	21759.96
692.30	21781.03
692.43	22054.87
692.57	21647.61
692.70	21500.16
692.84	21610.17
692.97	21041.42
693.11	21245.04
693.24	21212.28
693.38	21142.06
693.51	21104.61
693.65	20844.81
693.78	20748.85
693.92	20844.81
694.05	20517.14
694.19	20790.98
694.32	20748.85
694.45	21200.57
694.59	20659.91
694.72	20355.64
694.86	20568.63
694.99	19896.89
695.13	19751.78
695.26	19927.32
695.39	19681.56
695.53	19721.35
695.66	19964.77
695.80	19389.00
695.93	19571.56
696.07	19475.60
696.20	18801.52
696.33	19213.46
696.47	18977.06
696.60	19084.73
696.73	18895.14
696.87	19204.10
697.00	18801.52
697.14	18937.27
697.27	18689.18
697.40	18342.78
697.54	18445.76
697.67	18274.90
697.80	18314.69
697.94	18045.53
698.07	18314.69
698.21	17998.72
698.34	17940.21
698.47	18026.81
698.61	17376.14
698.74	17444.01
698.87	17467.42
699.01	17160.81
699.14	17298.90
699.27	17399.54
699.40	17235.70
699.54	17341.03
699.67	17128.04
699.80	17348.05
699.94	16699.72
700.07	17057.82
700.20	16908.03
700.34	16613.12
700.47	16767.60
700.60	17006.33
700.73	16554.61
700.87	15962.45
701.00	16107.57
701.13	16098.20
701.26	16283.11
701.40	16011.60
701.53	15892.24
701.66	15852.45
701.79	15850.11
701.93	15742.44
702.06	15541.16
702.19	15541.16
702.32	15730.74
702.46	15545.84
702.59	15508.39
702.72	15641.80
702.85	15492.01
702.99	15073.05
703.12	15316.47
703.25	15232.21
703.38	14941.98
703.51	14974.75
703.65	14647.07
703.78	14719.63
703.91	14588.56
704.04	14593.24
704.17	14464.51
704.31	14487.92
704.44	14181.31
704.57	14291.31
704.70	14197.69
704.83	14024.49
704.96	14073.64
705.10	13991.72
705.23	14094.71
>>>>>End Processed Spectral Data<<<<<
