SpectraSuite Data File
++++++++++++++++++++++++++++++++++++
Date: Fri Oct 25 11:34:01 EDT 2013
User: price-jones
Dark Spectrum Present: No
Reference Spectrum Present: No
Number of Sampled Component Spectra: 1
Spectrometers: USB2+H05261
Integration Time (usec): 100000 (USB2+H05261)
Spectra Averaged: 1 (USB2+H05261)
Boxcar Smoothing: 0 (USB2+H05261)
Correct for Electrical Dark: No (USB2+H05261)
Strobe/Lamp Enabled: No (USB2+H05261)
Correct for Detector Non-linearity: No (USB2+H05261)
Correct for Stray Light: No (USB2+H05261)
Number of Pixels in Processed Spectrum: 2048
>>>>>Begin Processed Spectral Data<<<<<
365.73	308.95
365.92	308.95
366.12	308.95
366.32	154.48
366.52	189.58
366.72	255.12
366.91	243.42
367.11	168.52
367.31	138.09
367.51	198.95
367.70	119.37
367.90	215.33
368.10	147.45
368.30	149.79
368.49	42.13
368.69	198.95
368.89	166.18
369.09	182.56
369.28	222.35
369.48	278.52
369.68	201.29
369.87	327.68
370.07	255.12
370.27	259.80
370.47	390.87
370.66	456.40
370.86	561.73
371.06	538.32
371.25	540.66
371.45	514.92
371.65	643.65
371.84	582.79
372.04	559.39
372.24	596.84
372.44	676.41
372.63	498.53
372.83	662.37
373.03	634.29
373.22	573.43
373.42	622.58
373.62	575.77
373.81	622.58
374.01	617.90
374.21	550.03
374.40	634.29
374.60	643.65
374.79	695.14
374.99	596.84
375.19	674.07
375.38	746.63
375.58	617.90
375.78	664.71
375.97	688.12
376.17	660.03
376.37	751.31
376.56	624.92
376.76	667.05
376.95	674.07
377.15	692.80
377.35	760.67
377.54	664.71
377.74	683.44
377.93	648.33
378.13	678.76
378.33	695.14
378.52	629.60
378.72	685.78
378.91	711.52
379.11	662.37
379.31	734.93
379.50	664.71
379.70	781.74
379.89	716.20
380.09	758.33
380.28	674.07
380.48	725.57
380.68	650.67
380.87	683.44
381.07	737.27
381.26	777.06
381.46	774.72
381.65	777.06
381.85	727.91
382.04	816.85
382.24	798.12
382.43	765.36
382.63	842.59
382.83	751.31
383.02	781.74
383.22	784.08
383.41	734.93
383.61	819.19
383.80	826.21
384.00	786.42
384.19	765.36
384.39	777.06
384.58	844.93
384.78	866.00
384.97	856.64
385.17	805.14
385.36	854.30
385.56	835.57
385.75	809.83
385.95	767.70
386.14	910.47
386.34	823.87
386.53	844.93
386.72	898.77
386.92	840.25
387.11	901.11
387.31	933.87
387.50	807.48
387.70	905.79
387.89	917.49
388.09	917.49
388.28	912.81
388.48	966.64
388.67	940.90
388.86	898.77
389.06	908.13
389.25	924.51
389.45	933.87
389.64	919.83
389.84	957.28
390.03	915.15
390.22	940.90
390.42	983.02
390.61	926.85
390.81	954.94
391.00	952.60
391.19	1053.24
391.39	959.62
391.58	994.73
391.78	1008.77
391.97	1034.52
392.16	1015.79
392.36	1025.15
392.55	1041.54
392.75	987.71
392.94	1067.28
393.13	1046.22
393.33	947.92
393.52	1139.84
393.71	1114.10
393.91	1053.24
394.10	1018.13
394.29	1109.41
394.49	1011.11
394.68	1174.95
394.88	1158.57
395.07	1146.86
395.26	1177.29
395.46	1163.25
395.65	1170.27
395.84	1167.93
396.04	1238.14
396.23	1203.04
396.42	1167.93
396.62	1280.27
396.81	1214.74
397.00	1172.61
397.19	1193.67
397.39	1221.76
397.58	1329.42
397.77	1207.72
397.97	1357.51
398.16	1188.99
398.35	1205.38
398.55	1242.82
398.74	1256.87
398.93	1336.45
399.12	1308.36
399.32	1324.74
399.51	1324.74
399.70	1320.06
399.90	1313.04
400.09	1313.04
400.28	1329.42
400.47	1401.98
400.67	1434.75
400.86	1336.45
401.05	1444.11
401.24	1448.79
401.44	1430.07
401.63	1439.43
401.82	1376.24
402.01	1345.81
402.21	1481.56
402.40	1460.49
402.59	1563.48
402.78	1556.46
402.97	1430.07
403.17	1472.20
403.36	1500.28
403.55	1530.71
403.74	1589.22
403.93	1640.72
404.13	1549.43
404.32	1533.05
404.51	1631.35
404.70	1652.42
404.89	1589.22
405.09	1699.23
405.28	1664.12
405.47	1570.50
405.66	1673.48
405.85	1741.36
406.05	1666.46
406.24	1687.53
406.43	1757.74
406.62	1706.25
406.81	1823.28
407.00	1792.85
407.20	1771.79
407.39	1816.26
407.58	1792.85
407.77	1818.60
407.96	1813.92
408.15	1806.89
408.34	1818.60
408.54	1839.66
408.73	1902.86
408.92	1842.00
409.11	1982.43
409.30	1989.46
409.49	2010.52
409.68	2031.58
409.87	1987.11
410.07	2115.84
410.26	1933.28
410.45	2005.84
410.64	2080.74
410.83	2087.76
411.02	2108.82
411.21	2207.13
411.40	2146.27
411.59	2256.28
411.78	2157.97
411.98	2186.06
412.17	2260.96
412.36	2282.02
412.55	2319.47
412.74	2246.91
412.93	2375.64
413.12	2321.81
413.31	2396.71
413.50	2373.30
413.69	2293.72
413.88	2413.09
414.07	2413.09
414.26	2499.69
414.45	2366.28
414.64	2394.37
414.83	2562.89
415.02	2586.29
415.22	2513.74
415.41	2602.68
415.60	2597.99
415.79	2775.88
415.98	2700.98
416.17	2689.28
416.36	2724.38
416.55	2747.79
416.74	2806.30
416.93	2806.30
417.12	2740.77
417.31	2803.96
417.50	2902.26
417.69	3000.57
417.88	2825.03
418.07	2885.88
418.26	2775.88
418.45	2951.42
418.64	2942.05
418.83	2946.73
419.02	3056.74
419.21	3119.93
419.39	3023.97
419.58	3042.70
419.77	2974.82
419.96	3164.40
420.15	3145.68
420.34	3045.04
420.53	3276.75
420.72	3087.17
420.91	3136.32
421.10	3302.50
421.29	3194.83
421.48	3201.85
421.67	3159.72
421.86	3272.07
422.05	3274.41
422.24	3239.30
422.43	3274.41
422.61	3314.20
422.80	3407.82
422.99	3328.24
423.18	3314.20
423.37	3375.05
423.56	3283.77
423.75	3323.56
423.94	3372.71
424.13	3162.06
424.32	3258.03
424.50	3482.72
424.69	3494.42
424.88	3552.93
425.07	3269.73
425.26	3508.46
425.45	3351.65
425.64	3473.36
425.83	3389.10
426.01	3482.72
426.20	3485.06
426.39	3414.84
426.58	3323.56
426.77	3398.46
426.96	3403.14
427.15	3487.40
427.33	3543.57
427.52	3506.12
427.71	3625.49
427.90	3541.23
428.09	3576.34
428.28	3627.83
428.46	3520.17
428.65	3620.81
428.84	3758.90
429.03	3772.94
429.22	3562.30
429.40	3719.11
429.59	3693.37
429.78	3569.32
429.97	3471.01
430.16	3758.90
430.34	3749.54
430.53	3756.56
430.72	3922.74
430.91	3894.65
431.10	3829.12
431.28	3786.99
431.47	3885.29
431.66	4074.87
431.85	3831.46
432.03	4072.53
432.22	4053.81
432.41	4023.38
432.60	3971.89
432.79	3899.33
432.97	4058.49
433.16	3985.93
433.35	4161.47
433.54	4074.87
433.72	4105.30
433.91	4222.33
434.10	4173.18
434.28	4262.12
434.47	4140.41
434.66	4285.52
434.85	4173.18
435.03	4308.93
435.22	4297.22
435.41	4428.29
435.59	4306.59
435.78	4283.18
435.97	4318.29
436.16	4238.71
436.34	4329.99
436.53	4411.91
436.72	4430.63
436.90	4376.80
437.09	4465.74
437.28	4435.32
437.46	4468.08
437.65	4365.10
437.84	4395.53
438.02	4641.28
438.21	4526.60
438.40	4594.47
438.58	4634.26
438.77	4751.29
438.96	4638.94
439.14	4636.60
439.33	4753.63
439.52	4812.14
439.70	4896.40
439.89	4873.00
440.08	4973.64
440.26	4889.38
440.45	4889.38
440.63	5032.15
440.82	5181.95
441.01	5195.99
441.19	5071.94
441.38	5142.16
441.57	5022.79
441.75	5219.39
441.94	5380.89
442.12	5350.46
442.31	5444.09
442.50	5427.70
442.68	5308.34
442.87	5350.46
443.05	5638.35
443.24	5502.60
443.43	5502.60
443.61	5493.24
443.80	5619.63
443.98	5462.81
444.17	5247.48
444.35	5383.23
444.54	5706.23
444.73	5483.88
444.91	5610.26
445.10	5628.99
445.28	5659.42
445.47	5418.34
445.65	5556.43
445.84	5797.51
446.02	5659.42
446.21	5736.65
446.39	5640.69
446.58	5570.48
446.77	5591.54
446.95	5551.75
447.14	5626.65
447.32	5858.36
447.51	5577.50
447.69	5699.20
447.88	5715.59
448.06	5750.70
448.25	5584.52
448.43	5867.72
448.62	5799.85
448.80	5717.93
448.99	5710.91
449.17	5783.46
449.36	5818.57
449.54	6071.35
449.73	6005.81
449.91	6052.63
450.10	6005.81
450.28	6043.26
450.46	5937.94
450.65	6015.18
450.83	6064.33
451.02	6108.80
451.20	6179.01
451.39	6101.78
451.57	6043.26
451.76	5940.28
451.94	6167.31
452.13	6319.45
452.31	6326.47
452.49	6122.84
452.68	6382.64
452.86	6260.93
453.05	6473.92
453.23	6345.19
453.42	6244.55
453.60	6197.74
453.78	6361.58
453.97	6331.15
454.15	6270.30
454.34	6349.87
454.52	6478.60
454.70	6277.32
454.89	6581.59
455.07	6359.24
455.26	6612.01
455.44	6684.57
455.62	6588.61
455.81	6548.82
455.99	6633.08
456.17	6799.26
456.36	6604.99
456.54	6729.04
456.73	6920.96
456.91	6862.45
457.09	6965.43
457.28	7061.40
457.46	6841.39
457.64	6878.83
457.83	7084.80
458.01	6846.07
458.19	6939.69
458.38	7023.95
458.56	7045.01
458.74	7052.03
458.93	7173.74
459.11	6977.14
459.29	7056.72
459.48	7239.28
459.66	7204.17
459.84	7360.98
460.03	7265.02
460.21	7536.52
460.39	7353.96
460.57	7258.00
460.76	7295.45
460.94	7307.15
461.12	7414.82
461.31	7478.01
461.49	7396.09
461.67	7391.41
461.85	7695.68
462.04	7398.43
462.22	7854.84
462.40	7672.28
462.59	7705.04
462.77	7604.40
462.95	7735.47
463.13	7606.74
463.32	7529.50
463.50	7847.82
463.68	7859.52
463.86	7793.98
464.05	7735.47
464.23	7742.49
464.41	8042.08
464.59	7674.62
464.78	8002.29
464.96	7962.50
465.14	7798.66
465.32	8088.89
465.50	8042.08
465.69	7997.61
465.87	8004.63
466.05	7950.80
466.23	8173.15
466.41	8147.40
466.60	8046.76
466.78	7995.27
466.96	8088.89
467.14	8028.04
467.32	8138.04
467.51	8308.90
467.69	8133.36
467.87	7999.95
468.05	8163.79
468.23	8182.51
468.41	8332.31
468.60	8241.03
468.78	8372.10
468.96	8374.44
469.14	8311.24
469.32	8589.77
469.50	8367.42
469.69	8463.38
469.87	8521.89
470.05	8650.62
470.23	8500.83
470.41	8709.13
470.59	8746.58
470.77	8695.09
470.95	8678.71
471.14	9018.08
471.32	8727.86
471.50	8922.12
471.68	8919.78
471.86	8894.04
472.04	8865.95
472.22	9371.50
472.40	9039.15
472.58	9085.96
472.77	9186.60
472.95	9294.27
473.13	9582.15
473.31	9327.03
473.49	9235.75
473.67	9338.74
473.85	9406.61
474.03	9635.99
474.21	9453.42
474.39	9645.35
474.57	9507.26
474.75	9900.47
474.93	9666.41
475.12	9767.06
475.30	10090.05
475.48	9944.94
475.66	10026.86
475.84	9816.21
476.02	10101.75
476.20	10071.33
476.38	10167.29
476.56	10394.32
476.74	10382.62
476.92	10363.89
477.10	10071.33
477.28	10686.89
477.46	10691.57
477.64	10361.55
477.82	10927.96
478.00	10993.50
478.18	10878.81
478.36	11089.46
478.54	10916.26
478.72	11300.11
478.90	11417.13
479.08	11316.49
479.26	11241.59
479.44	11527.14
479.62	11648.85
479.80	11817.36
479.98	11885.24
480.16	12112.27
480.34	11929.71
480.52	12191.85
480.70	12159.08
480.88	12077.16
481.06	12367.39
481.24	12283.13
481.41	12351.01
481.59	12564.00
481.77	12559.31
481.95	12758.26
482.13	12973.59
482.31	12727.83
482.49	13011.04
482.67	13088.28
482.85	13706.18
483.03	13247.43
483.21	13516.59
483.39	13715.54
483.57	13628.94
483.74	13598.51
483.92	13832.57
484.10	13912.14
484.28	14230.46
484.46	14155.56
484.64	14443.45
484.82	14363.87
485.00	14633.03
485.18	14848.36
485.35	15087.09
485.53	14944.32
485.71	14988.79
485.89	15126.88
486.07	14930.28
486.25	15466.26
486.43	15377.32
486.61	15597.33
486.78	15545.84
486.96	15426.47
487.14	15892.24
487.32	16250.34
487.50	16140.33
487.68	16203.53
487.85	16219.91
488.03	16636.53
488.21	16753.55
488.39	16828.45
488.57	16985.27
488.75	16931.44
488.92	17212.30
489.10	17324.65
489.28	17500.19
489.46	17479.12
489.64	17687.43
489.81	17886.37
489.99	18038.51
490.17	17942.55
490.35	18038.51
490.53	18064.25
490.70	18452.78
490.88	18195.32
491.06	18464.49
491.24	18614.28
491.41	18714.92
491.59	18963.02
491.77	19073.03
491.95	19068.34
492.13	19332.82
492.30	19337.51
492.48	19599.65
492.66	19569.22
492.84	19517.73
493.01	19824.34
493.19	19836.04
493.37	20063.07
493.54	20264.36
493.72	20168.40
493.90	20046.69
494.08	20592.03
494.25	20702.04
494.43	20568.63
494.61	20957.16
494.79	21249.72
494.96	21090.57
495.14	21242.70
495.32	21530.59
495.49	21280.15
495.67	21675.70
495.85	21848.90
496.02	21926.14
496.20	21984.65
496.38	22005.72
496.55	22064.23
496.73	22644.68
496.91	22249.13
497.09	22665.75
497.26	22717.24
497.44	22817.88
497.62	22965.34
497.79	23033.21
497.97	22852.99
498.14	23222.80
498.32	23274.29
498.50	23527.06
498.67	23637.07
498.85	23456.85
499.03	23527.06
499.20	23826.65
499.38	23922.62
499.56	23828.99
499.73	24086.45
499.91	24238.59
500.08	24566.26
500.26	24210.50
500.44	24372.00
500.61	24460.94
500.79	24559.24
500.97	24751.17
501.14	24898.62
501.32	24844.79
501.49	25081.18
501.67	24929.05
501.84	25493.12
502.02	25116.29
502.20	25280.13
502.37	25245.02
502.55	25429.92
502.72	25289.49
502.90	25497.80
503.07	25439.28
503.25	25678.02
503.43	25411.20
503.60	25961.22
503.78	25736.53
503.95	25397.15
504.13	26251.45
504.30	26106.34
504.48	26483.16
504.65	26108.68
504.83	26792.11
505.01	26642.32
505.18	26967.65
505.36	26726.58
505.53	26684.45
505.71	27281.28
505.88	27108.08
506.06	26827.22
506.23	27381.93
506.41	26951.27
506.58	27531.72
506.76	27789.18
506.93	27812.59
507.11	27632.36
507.28	27733.01
507.46	27999.83
507.63	27894.50
507.81	27896.85
507.98	27997.49
508.16	27887.48
508.33	28374.31
508.50	28364.95
508.68	27770.46
508.85	28514.75
509.03	28435.17
509.20	28266.65
509.38	29467.34
509.55	28849.44
509.73	28999.24
509.90	28788.59
510.08	28907.96
510.25	29057.75
510.42	28952.43
510.60	29090.52
510.77	29418.19
510.95	29846.51
511.12	29663.95
511.30	29553.94
511.47	29879.28
511.64	29879.28
511.82	29944.81
511.99	29771.61
512.17	30029.07
512.34	30176.53
512.51	30387.18
512.69	30228.02
512.86	30682.08
513.04	30410.58
513.21	30691.44
513.38	30639.95
513.56	30836.56
513.73	30824.86
513.90	30862.30
514.08	30483.14
514.25	31185.30
514.43	31117.42
514.60	31391.26
514.77	31419.35
514.95	31316.37
515.12	31438.08
515.29	31407.65
515.47	31522.34
515.64	31821.92
515.81	31330.41
515.99	31913.20
516.16	31962.36
516.33	31728.30
516.51	31566.81
516.68	32114.49
516.85	31681.49
517.03	32135.56
517.20	31957.67
517.37	32390.67
517.54	32416.42
517.72	32591.96
517.89	32385.99
518.06	32519.40
518.24	32446.85
518.41	32353.23
518.58	32685.58
518.75	32554.51
518.93	32521.74
519.10	32917.29
519.27	32830.69
519.45	33046.02
519.62	33486.04
519.79	33041.34
519.96	33397.10
520.14	33305.82
520.31	33207.52
520.48	33605.41
520.65	33706.05
520.83	33928.41
521.00	33832.44
521.17	33900.32
521.34	34139.05
521.52	34319.28
521.69	33797.34
521.86	34223.31
522.03	34403.53
522.20	34171.82
522.38	34279.49
522.55	34588.44
522.72	34555.67
522.89	34635.25
523.07	34993.35
523.24	34623.54
523.41	34714.83
523.58	34668.02
523.75	35236.77
523.92	35033.14
524.10	34932.50
524.27	35405.28
524.44	35344.43
524.61	35157.19
524.78	35234.42
524.96	35356.13
525.13	35569.12
525.30	35864.03
525.47	35679.13
525.64	35756.36
525.81	35861.69
525.98	35779.77
526.16	36484.27
526.33	35866.37
526.50	36364.90
526.67	35833.60
526.84	36109.78
527.01	35920.20
527.18	36070.00
527.36	36231.49
527.53	35967.01
527.70	36243.20
527.87	36547.47
528.04	36428.10
528.21	36837.69
528.38	36715.98
528.55	36374.27
528.72	36790.88
528.89	36627.04
529.07	36367.24
529.24	36641.09
529.41	36479.59
529.58	37263.67
529.75	36849.39
529.92	37177.07
530.09	37067.06
530.26	37422.83
530.43	37209.84
530.60	36947.70
530.77	37111.53
530.94	37020.25
531.11	37338.57
531.28	37399.42
531.46	37296.44
531.63	37888.59
531.80	37270.69
531.97	37340.91
532.14	37942.42
532.31	37741.14
532.48	37869.87
532.65	37750.50
532.82	37471.98
532.99	38197.54
533.16	38136.69
533.33	38232.65
533.50	38211.59
533.67	37830.08
533.84	37879.23
534.01	38120.31
534.18	38405.85
534.35	38773.31
534.52	38820.13
534.69	38602.46
534.86	38902.04
535.03	38511.17
535.20	38424.57
535.37	38550.96
535.54	38752.25
535.71	38597.77
535.88	38789.70
536.05	39047.16
536.22	39161.84
536.38	39210.99
536.55	39100.99
536.72	38611.82
536.89	39468.45
537.06	39014.39
537.23	39585.48
537.40	39021.41
537.57	39379.51
537.74	39161.84
537.91	39632.29
538.08	39643.99
538.25	39232.06
538.42	39620.59
538.59	39983.37
538.75	39756.34
538.92	40018.48
539.09	40055.93
539.26	40074.65
539.43	39990.39
539.60	39866.34
539.77	39821.87
539.94	40219.77
540.11	40025.50
540.28	40172.96
540.44	40369.56
540.61	40140.19
540.78	40226.79
540.95	40582.55
541.12	40332.11
541.29	40194.02
541.46	40308.71
541.62	40896.18
541.79	40760.43
541.96	40568.51
542.13	40416.37
542.30	40355.52
542.47	41141.94
542.63	41104.49
542.80	41034.27
542.97	41378.33
543.14	41319.82
543.31	41123.21
543.48	41291.73
543.64	41684.94
543.81	41668.56
543.98	41198.11
544.15	41500.04
544.32	41844.10
544.48	41698.98
544.65	41649.83
544.82	41570.25
544.99	41631.11
545.16	42029.00
545.32	41839.42
545.49	41958.78
545.66	42167.09
545.83	41715.37
546.00	41741.11
546.16	42087.51
546.33	41525.78
546.50	41703.67
546.67	42202.20
546.83	41596.00
547.00	42050.06
547.17	41874.52
547.34	42124.96
547.50	42195.18
547.67	42637.54
547.84	42616.47
548.00	42426.89
548.17	43107.99
548.34	42616.47
548.51	42476.04
548.67	42543.92
548.84	42780.31
549.01	42543.92
549.18	42515.83
549.34	42621.16
549.51	43246.08
549.68	43070.54
549.84	42653.92
550.01	42878.61
550.18	42878.61
550.34	42777.97
550.51	43016.71
550.68	42958.19
550.84	42916.06
551.01	43012.02
551.18	43232.04
551.34	43234.38
551.51	43632.27
551.68	43449.70
551.84	43384.17
552.01	43065.86
552.18	43407.58
552.34	43112.67
552.51	43683.76
552.68	43274.16
552.84	43264.80
553.01	43562.05
553.18	43941.22
553.34	43587.80
553.51	43489.49
553.67	43913.13
553.84	43709.50
554.01	43585.46
554.17	43737.59
554.34	43845.26
554.51	43683.76
554.67	43976.33
554.84	43622.90
555.00	43592.48
555.17	43791.42
555.33	44004.41
555.50	44109.74
555.67	43929.51
555.83	43887.39
556.00	44463.16
556.16	44458.48
556.33	44119.10
556.50	44177.61
556.66	44346.13
556.83	44016.11
556.99	44488.90
557.16	44488.90
557.32	44802.53
557.49	44842.32
557.65	44128.46
557.82	44411.67
557.98	44701.89
558.15	44502.95
558.32	44521.67
558.48	44123.78
558.65	44619.97
558.81	44715.93
558.98	44456.14
559.14	44556.78
559.31	44591.89
559.47	44678.49
559.64	44823.60
559.80	44856.37
559.97	44767.43
560.13	44528.69
560.30	45181.70
560.46	44610.61
560.63	45127.87
560.79	45092.76
560.96	44795.51
561.12	45228.51
561.29	45291.71
561.45	45219.15
561.61	44804.88
561.78	44980.42
561.94	44715.93
562.11	45600.66
562.27	44837.64
562.44	45146.59
562.60	45354.90
562.77	45364.26
562.93	45223.83
563.10	45574.91
563.26	45034.25
563.42	45738.75
563.59	45151.27
563.75	45333.84
563.92	45514.06
564.08	45158.30
564.24	45326.81
564.41	45420.44
564.57	45312.77
564.74	45235.53
564.90	45258.94
565.07	45495.33
565.23	45701.30
565.39	45656.83
565.56	45401.71
565.72	45628.74
565.88	45539.80
566.05	45244.90
566.21	45216.81
566.38	45092.76
566.54	45748.11
566.70	45551.51
566.87	45827.69
567.03	45392.35
567.19	45958.76
567.36	45666.19
567.52	45518.74
567.68	45886.20
567.85	45869.82
568.01	45930.67
568.17	45949.40
568.34	45928.33
568.50	46080.47
568.66	45610.02
568.83	46190.47
568.99	45724.71
569.15	45886.20
569.32	45862.80
569.48	45677.90
569.64	46691.35
569.81	46337.93
569.97	46368.35
570.13	46433.89
570.30	45806.62
570.46	46131.96
570.62	46223.24
570.78	46253.67
570.95	46007.91
571.11	45649.81
571.27	46082.81
571.43	45916.63
571.60	46110.89
571.76	46050.04
571.92	46003.23
572.09	46241.96
572.25	45968.12
572.41	45951.74
572.57	46286.43
572.74	46794.33
572.90	46115.58
573.06	46396.44
573.22	46167.07
573.38	46314.52
573.55	46127.28
573.71	46728.80
573.87	46426.87
574.03	46110.89
574.20	46588.36
574.36	46185.79
574.52	46691.35
574.68	46806.03
574.84	46525.17
575.01	46698.37
575.17	46564.96
575.33	46623.47
575.49	46012.59
575.65	46574.32
575.82	46258.35
575.98	46342.61
576.14	46291.12
576.30	46527.51
576.46	46494.74
576.62	46571.98
576.79	46396.44
576.95	46197.49
577.11	46199.83
577.27	46129.62
577.43	46726.46
577.59	46590.70
577.75	46174.09
577.92	45958.76
578.08	46457.29
578.24	46122.60
578.40	46827.10
578.56	46160.05
578.72	46710.07
578.88	46623.47
579.04	46508.79
579.21	46738.16
579.37	46555.60
579.53	46913.70
579.69	46206.86
579.85	46351.97
580.01	46195.15
580.17	46581.34
580.33	46923.06
580.49	46611.77
580.65	46684.33
580.82	46239.62
580.98	46483.04
581.14	46312.18
581.30	47056.47
581.46	46595.38
581.62	46239.62
581.78	46789.65
581.94	46639.86
582.10	46689.01
582.26	46829.44
582.42	46347.29
582.58	47009.66
582.74	46920.72
582.90	46206.86
583.06	46710.07
583.22	46618.79
583.38	46583.68
583.54	46604.75
583.70	46747.52
583.86	46419.84
584.02	46733.48
584.18	46894.97
584.34	47234.35
584.50	47009.66
584.66	47112.64
584.82	46546.23
584.98	47250.74
585.14	47028.38
585.30	46543.89
585.46	46483.04
585.62	46649.22
585.78	46763.90
585.94	46351.97
586.10	46602.41
586.26	46288.77
586.42	46803.69
586.58	47007.32
586.74	46897.31
586.90	46759.22
587.06	46817.74
587.22	47021.36
587.38	46515.81
587.54	47360.74
587.70	46946.47
587.86	46845.82
588.02	46890.29
588.18	46574.32
588.34	46827.10
588.49	46876.25
588.65	46689.01
588.81	47093.92
588.97	46808.37
589.13	46887.95
589.29	47196.90
589.45	47098.60
589.61	46967.53
589.77	47068.17
589.93	47363.08
590.08	46813.05
590.24	47051.79
590.40	47435.64
590.56	47590.11
590.72	47208.61
590.88	46969.87
591.04	46733.48
591.20	47306.91
591.35	47398.19
591.51	47758.63
591.67	46988.60
591.83	47690.76
591.99	47122.01
592.15	47140.73
592.31	47051.79
592.46	47143.07
592.62	47175.84
592.78	47114.98
592.94	47571.39
593.10	47400.53
593.26	47318.61
593.41	47040.09
593.57	47447.34
593.73	47365.42
593.89	48041.84
594.05	47533.94
594.20	47643.94
594.36	47463.72
594.52	47557.35
594.68	46967.53
594.84	47159.45
594.99	47875.66
595.15	47576.07
595.31	47433.30
595.47	47365.42
595.62	47604.16
595.78	47290.52
595.94	47615.86
596.10	47449.68
596.25	47461.38
596.41	47552.66
596.57	47550.32
596.73	47786.72
596.88	47562.03
597.04	47700.12
597.20	47618.20
597.36	47700.12
597.51	47681.39
597.67	47723.52
597.83	47632.24
597.99	47318.61
598.14	47519.90
598.30	47660.33
598.46	47466.06
598.61	48067.58
598.77	47693.10
598.93	47966.94
599.09	47430.96
599.24	47906.08
599.40	47435.64
599.56	47880.34
599.71	47639.26
599.87	48175.25
600.03	48121.41
600.18	47779.70
600.34	47573.73
600.50	47632.24
600.65	47599.47
600.81	47608.84
600.97	47634.58
601.12	48114.39
601.28	47615.86
601.44	47866.30
601.59	47690.76
601.75	47983.32
601.91	47985.66
602.06	47777.36
602.22	47821.83
602.37	47639.26
602.53	47739.91
602.69	48140.14
602.84	47849.91
603.00	47627.56
603.16	47824.17
603.31	47356.06
603.47	47934.17
603.62	48100.35
603.78	47852.25
603.94	48044.18
604.09	47770.33
604.25	47686.07
604.40	47395.85
604.56	47927.15
604.71	47887.36
604.87	47566.71
605.03	47533.94
605.18	47587.77
605.34	48020.77
605.49	47360.74
605.65	48013.75
605.80	47426.28
605.96	47611.18
606.12	47405.21
606.27	47566.71
606.43	47604.16
606.58	47826.51
606.74	47728.20
606.89	47538.62
607.05	47583.09
607.20	48069.92
607.36	47557.35
607.51	47304.57
607.67	47487.13
607.82	47643.94
607.98	47576.07
608.13	47856.93
608.29	47454.36
608.44	47459.04
608.60	47531.60
608.75	47295.21
608.91	47379.46
609.06	47271.80
609.22	47529.26
609.37	46820.08
609.53	47695.44
609.68	47721.18
609.84	47449.68
609.99	47370.10
610.15	47334.99
610.30	47255.42
610.46	47398.19
610.61	47325.63
610.76	47643.94
610.92	46990.94
611.07	46997.96
611.23	46850.50
611.38	47178.18
611.54	47342.02
611.69	47433.30
611.84	47529.26
612.00	47203.92
612.15	47262.44
612.31	47459.04
612.46	46831.78
612.62	47494.15
612.77	47400.53
612.92	47304.57
613.08	46681.98
613.23	46965.19
613.39	47192.22
613.54	47023.70
613.69	47241.37
613.85	47255.42
614.00	47054.13
614.15	47260.10
614.31	47173.50
614.46	46770.93
614.62	47028.38
614.77	47260.10
614.92	47143.07
615.08	46827.10
615.23	47236.69
615.38	47316.27
615.54	46951.15
615.69	47171.16
615.84	46838.80
616.00	47536.28
616.15	46829.44
616.30	47012.00
616.46	46677.30
616.61	46953.49
616.76	47122.01
616.92	46504.10
617.07	47002.64
617.22	47131.37
617.37	46576.66
617.53	46979.23
617.68	46436.23
617.83	47253.08
617.99	46948.81
618.14	47168.82
618.29	46403.46
618.45	46504.10
618.60	46450.27
618.75	46185.79
618.90	46185.79
619.06	46202.18
619.21	46248.99
619.36	46845.82
619.51	46300.48
619.67	46590.70
619.82	46419.84
619.97	46656.24
620.12	46141.32
620.28	46171.75
620.43	46955.83
620.58	46375.37
620.73	46286.43
620.89	46176.43
621.04	46377.72
621.19	46223.24
621.34	46300.48
621.49	46239.62
621.65	46174.09
621.80	46258.35
621.95	46047.70
622.10	46059.40
622.25	46267.71
622.41	45961.10
622.56	45539.80
622.71	46433.89
622.86	46164.73
623.01	45933.01
623.16	46433.89
623.32	46080.47
623.47	45794.92
623.62	45909.61
623.77	45759.81
623.92	46162.39
624.07	45918.97
624.23	45677.90
624.38	45951.74
624.53	45989.19
624.68	45591.30
624.83	45879.18
624.98	45801.94
625.13	45179.36
625.29	45319.79
625.44	45858.12
625.59	45530.44
625.74	45413.41
625.89	45254.26
626.04	45530.44
626.19	45731.73
626.34	45478.95
626.49	45270.64
626.65	45139.57
626.80	45237.87
626.95	45413.41
627.10	45090.42
627.25	45610.02
627.40	45677.90
627.55	45265.96
627.70	45188.72
627.85	45415.76
628.00	45577.25
628.15	45642.79
628.30	45212.13
628.45	44531.03
628.60	44538.05
628.76	45041.27
628.91	45148.93
629.06	44605.93
629.21	45001.48
629.36	44781.47
629.51	44891.48
629.66	45242.56
629.81	44683.17
629.96	44856.37
630.11	44519.33
630.26	44790.83
630.41	44690.19
630.56	44772.11
630.71	45191.06
630.86	44619.97
631.01	44669.12
631.16	44877.43
631.31	44098.03
631.46	44818.92
631.61	44844.66
631.76	44701.89
631.91	44989.78
632.06	44926.58
632.21	44964.03
632.36	44772.11
632.51	44392.94
632.66	44676.15
632.81	44404.64
632.96	44626.99
633.10	44100.37
633.25	43821.85
633.40	44549.76
633.55	44732.32
633.70	44275.91
633.85	44563.80
634.00	43770.36
634.15	44154.21
634.30	44137.82
634.45	44336.77
634.60	44102.71
634.75	44231.44
634.90	44470.18
635.05	44243.15
635.19	44320.38
635.34	44484.22
635.49	43730.57
635.64	44247.83
635.79	44079.31
635.94	44016.11
636.09	44411.67
636.24	44421.03
636.39	44016.11
636.53	43805.47
636.68	43248.42
636.83	43405.23
636.98	43660.35
637.13	43358.42
637.28	43650.99
637.43	43522.26
637.57	43812.49
637.72	43449.70
637.87	43625.25
638.02	43526.94
638.17	43253.10
638.32	43552.69
638.46	43428.64
638.61	43227.35
638.76	42967.55
638.91	43379.49
639.06	43119.69
639.20	42962.87
639.35	42916.06
639.50	43243.74
639.65	43283.53
639.80	43494.18
639.94	43402.89
640.09	43718.87
640.24	43636.95
640.39	42433.91
640.54	42721.80
640.68	43070.54
640.83	43374.81
640.98	42803.72
641.13	43037.77
641.27	42932.45
641.42	43180.54
641.57	42873.93
641.72	42913.72
641.86	42459.66
642.01	42712.44
642.16	43262.46
642.31	42705.41
642.45	43051.81
642.60	42906.70
642.75	42703.07
642.90	42663.28
643.04	42822.44
643.19	42520.51
643.34	42815.42
643.48	42401.14
643.63	42447.96
643.78	42401.14
643.93	42979.26
644.07	42316.89
644.22	42684.35
644.37	42579.03
644.51	42700.73
644.66	42525.19
644.81	42572.00
644.95	42569.66
645.10	42686.69
645.25	42354.33
645.39	42265.39
645.54	42471.36
645.69	41956.44
645.83	42089.85
645.98	41610.04
646.13	41916.65
646.27	42068.79
646.42	42103.90
646.57	42518.17
646.71	42328.59
646.86	42410.51
647.00	42246.67
647.15	42249.01
647.30	42129.64
647.44	42038.36
647.59	41762.18
647.74	41907.29
647.88	42174.11
648.03	42447.96
648.17	42204.54
648.32	41855.80
648.47	42384.76
648.61	41668.56
648.76	42080.49
648.90	41780.90
649.05	42089.85
649.20	41593.66
649.34	41549.19
649.49	42131.98
649.63	41869.84
649.78	41687.28
649.92	41853.46
650.07	42110.92
650.21	41801.97
650.36	42059.43
650.51	41486.00
650.65	41907.29
650.80	42085.17
650.94	41392.37
651.09	41528.13
651.23	41045.97
651.38	41546.85
651.52	40882.14
651.67	41144.28
651.81	41600.68
651.96	41022.57
652.10	41223.86
652.25	40779.15
652.39	41247.26
652.54	41333.86
652.68	40882.14
652.83	40994.48
652.97	41207.47
653.12	41214.49
653.26	41333.86
653.41	41525.78
653.55	41219.17
653.70	41090.44
653.84	41457.91
653.99	40996.82
654.13	41268.33
654.27	40973.42
654.42	40959.38
654.56	41088.10
654.71	40968.74
654.85	41188.75
655.00	41013.21
655.14	41195.77
655.29	41120.87
655.43	41453.23
655.57	40531.06
655.72	40762.77
655.86	40664.47
656.01	40346.15
656.15	40261.90
656.30	40236.15
656.44	40847.03
656.58	40718.30
656.73	40299.34
656.87	39859.32
657.01	39761.02
657.16	40502.97
657.30	40329.77
657.45	40280.62
657.59	39697.83
657.73	39969.33
657.88	40390.62
658.02	40126.14
658.16	40673.83
658.31	40114.44
658.45	40308.71
658.60	39929.54
658.74	40404.67
658.88	40119.12
659.03	40137.85
659.17	39421.64
659.31	39859.32
659.46	39627.61
659.60	39945.92
659.74	39758.68
659.89	39093.97
660.03	39023.75
660.17	39510.58
660.32	39468.45
660.46	39559.73
660.60	39484.84
660.74	39438.03
660.89	39887.41
661.03	39496.54
661.17	39096.31
661.32	39218.02
661.46	39051.84
661.60	39077.58
661.74	39070.56
661.89	38899.70
662.03	39440.37
662.17	38651.61
662.31	39070.56
662.46	39344.41
662.60	38930.13
662.74	38452.66
662.88	38586.07
663.03	38211.59
663.17	38422.23
663.31	38485.43
663.45	38529.90
663.60	38398.83
663.74	38565.01
663.88	38522.88
664.02	38368.40
664.17	38607.14
664.31	37979.87
664.45	37897.95
664.59	38429.26
664.73	37940.08
664.88	38230.31
665.02	37727.10
665.16	37933.06
665.30	37790.29
665.44	37364.31
665.59	37471.98
665.73	37418.14
665.87	37088.13
666.01	37818.38
666.15	37446.23
666.29	37092.81
666.44	37600.71
666.58	37717.73
666.72	36889.18
666.86	37137.28
667.00	37170.05
667.14	36814.29
667.28	37123.24
667.43	36411.71
667.57	37090.47
667.71	37022.59
667.85	37120.90
667.99	36638.75
668.13	36451.50
668.27	36278.30
668.41	36531.08
668.56	36144.89
668.70	36369.58
668.84	35702.53
668.98	36175.32
669.12	36329.80
669.26	36369.58
669.40	36128.51
669.54	36290.01
669.68	36170.64
669.82	35955.31
669.96	35576.14
670.10	35590.19
670.25	35704.87
670.39	35758.70
670.53	35681.47
670.67	35473.16
670.81	35721.26
670.95	35456.78
671.09	35674.45
671.23	35276.55
671.37	35491.88
671.51	35264.85
671.65	34944.20
671.79	34911.43
671.93	35084.63
672.07	35014.41
672.21	35276.55
672.35	34419.92
672.49	34733.55
672.63	35019.10
672.77	34183.52
672.91	34752.27
673.05	34593.12
673.19	34270.12
673.33	34455.03
673.47	34256.08
673.61	33706.05
673.75	33944.79
673.89	33921.38
674.03	33954.15
674.17	33748.18
674.31	33563.28
674.45	33244.97
674.59	33446.26
674.73	33642.86
674.87	32734.73
675.01	32971.13
675.15	33160.71
675.29	32779.20
675.43	32699.62
675.56	33134.96
675.70	33120.92
675.84	32847.08
675.98	31749.37
676.12	32603.66
676.26	32486.64
676.40	32446.85
676.54	32037.25
676.68	32016.19
676.82	31580.85
676.96	32463.23
677.10	32273.65
677.23	31922.57
677.37	32027.89
677.51	31967.04
677.65	31723.62
677.79	31728.30
677.93	31803.20
678.07	31391.26
678.21	30738.26
678.34	31625.32
678.48	31079.97
678.62	30874.01
678.76	30815.49
678.90	31007.42
679.04	31075.29
679.18	30906.77
679.31	30176.53
679.45	30356.75
679.59	30036.09
679.73	30412.92
679.87	29951.84
680.00	29930.77
680.14	30237.38
680.28	30174.19
680.42	29741.19
680.56	29951.84
680.70	29385.43
680.83	29347.98
680.97	29497.77
681.11	29577.35
681.25	29177.12
681.39	28830.72
681.52	29359.68
681.66	28601.35
681.80	28285.37
681.94	28439.85
682.07	28727.74
682.21	28240.90
682.35	28290.06
682.49	28343.89
682.62	28161.33
682.76	28137.92
682.90	28198.77
683.04	27468.53
683.17	27946.00
683.31	27716.62
683.45	27545.76
683.59	27405.33
683.72	27325.75
683.86	27370.22
684.00	26838.92
684.13	27033.19
684.27	27115.11
684.41	27229.79
684.55	26857.65
684.68	26930.20
684.82	26647.00
684.96	26668.06
685.09	26766.37
685.23	26281.88
685.37	27131.49
685.50	26820.20
685.64	26422.31
685.78	26068.89
685.91	26122.72
686.05	25614.82
686.19	25474.39
686.32	25671.00
686.46	25439.28
686.60	25331.62
686.73	25270.76
686.87	25443.96
687.01	25486.09
687.14	25589.08
687.28	25193.53
687.42	24739.46
687.55	24610.73
687.69	24896.28
687.82	24603.71
687.96	24182.42
688.10	24584.99
688.23	24816.70
688.37	24402.43
688.50	24643.50
688.64	24149.65
688.78	24041.98
688.91	24140.29
689.05	23850.06
689.18	23730.69
689.32	23178.33
689.46	23541.11
689.59	23342.16
689.73	23517.70
689.86	23974.11
690.00	23136.20
690.13	23466.21
690.27	23080.02
690.41	23309.40
690.54	22974.70
690.68	22284.24
690.81	22764.05
690.95	22630.64
691.08	22281.90
691.22	22197.64
691.35	22476.16
691.49	22532.34
691.62	22139.13
691.76	21614.85
691.89	21687.40
692.03	21720.17
692.16	21443.99
692.30	21493.14
692.43	21649.96
692.57	21493.14
692.70	21551.65
692.84	21085.89
692.97	20863.54
693.11	20809.70
693.24	20870.56
693.38	20908.01
693.51	20741.83
693.65	20610.76
693.78	20678.63
693.92	20702.04
694.05	20479.69
694.19	20418.83
694.32	20421.17
694.45	20753.53
694.59	20470.33
694.72	20149.67
694.86	19946.05
694.99	19775.19
695.13	19524.75
695.26	19716.67
695.39	19243.88
695.53	19548.15
695.66	19295.38
695.80	19304.74
695.93	19534.11
696.07	19293.04
696.20	18902.17
696.33	18672.79
696.47	18558.11
696.60	18822.59
696.73	18766.42
696.87	18867.06
697.00	18513.64
697.14	18548.75
697.27	18090.00
697.40	18136.81
697.54	18143.83
697.67	17891.06
697.80	17827.86
697.94	17982.34
698.07	17738.92
698.21	17888.71
698.34	17886.37
698.47	17640.62
698.61	17111.66
698.74	17371.46
698.87	17268.47
699.01	16961.86
699.14	17266.13
699.27	17142.08
699.40	17123.36
699.54	17170.17
699.67	16996.97
699.80	17027.40
699.94	16870.58
700.07	16795.68
700.20	16479.71
700.34	16439.92
700.47	16458.65
700.60	16552.27
700.73	16245.66
700.87	16240.98
701.00	16355.66
701.13	16102.89
701.26	15815.00
701.40	15742.44
701.53	15910.96
701.66	15908.62
701.79	15859.47
701.93	15618.39
702.06	15503.71
702.19	15393.70
702.32	15391.36
702.46	15653.50
702.59	15044.96
702.72	15428.81
702.85	15178.37
702.99	15180.71
703.12	14778.14
703.25	14595.58
703.38	14853.04
703.51	14946.66
703.65	14539.41
703.78	14375.57
703.91	14398.98
704.04	14464.51
704.17	14338.12
704.31	14277.27
704.44	14331.10
704.57	14066.62
704.70	13834.91
704.83	14043.21
704.96	13940.23
705.10	13855.97
705.23	13928.53
>>>>>End Processed Spectral Data<<<<<
