SpectraSuite Data File
++++++++++++++++++++++++++++++++++++
Date: Fri Oct 25 11:33:13 EDT 2013
User: price-jones
Dark Spectrum Present: No
Reference Spectrum Present: No
Number of Sampled Component Spectra: 1
Spectrometers: USB2+H05261
Integration Time (usec): 100000 (USB2+H05261)
Spectra Averaged: 1 (USB2+H05261)
Boxcar Smoothing: 0 (USB2+H05261)
Correct for Electrical Dark: No (USB2+H05261)
Strobe/Lamp Enabled: No (USB2+H05261)
Correct for Detector Non-linearity: No (USB2+H05261)
Correct for Stray Light: No (USB2+H05261)
Number of Pixels in Processed Spectrum: 2048
>>>>>Begin Processed Spectral Data<<<<<
365.73	355.76
365.92	355.76
366.12	355.76
366.32	229.37
366.52	201.29
366.72	166.18
366.91	98.30
367.11	147.45
367.31	163.84
367.51	154.48
367.70	124.05
367.90	131.07
368.10	145.11
368.30	191.92
368.49	175.54
368.69	234.05
368.89	205.97
369.09	168.52
369.28	212.99
369.48	224.69
369.68	163.84
369.87	208.31
370.07	252.78
370.27	285.55
370.47	355.76
370.66	435.34
370.86	479.81
371.06	486.83
371.25	648.33
371.45	613.22
371.65	521.94
371.84	627.26
372.04	566.41
372.24	540.66
372.44	617.90
372.63	589.82
372.83	573.43
373.03	575.77
373.22	603.86
373.42	669.39
373.62	573.43
373.81	627.26
374.01	692.80
374.21	685.78
374.40	624.92
374.60	702.16
374.79	730.25
374.99	587.47
375.19	650.67
375.38	578.11
375.58	727.91
375.78	699.82
375.97	676.41
376.17	688.12
376.37	709.18
376.56	622.58
376.76	685.78
376.95	734.93
377.15	711.52
377.35	734.93
377.54	678.76
377.74	601.52
377.93	697.48
378.13	716.20
378.33	753.65
378.52	805.14
378.72	713.86
378.91	695.14
379.11	648.33
379.31	702.16
379.50	688.12
379.70	734.93
379.89	725.57
380.09	711.52
380.28	777.06
380.48	739.61
380.68	807.48
380.87	772.38
381.07	802.80
381.26	753.65
381.46	681.10
381.65	774.72
381.85	807.48
382.04	798.12
382.24	791.10
382.43	774.72
382.63	784.08
382.83	802.80
383.02	835.57
383.22	805.14
383.41	739.61
383.61	786.42
383.80	807.48
384.00	861.32
384.19	819.19
384.39	760.67
384.58	828.55
384.78	887.06
384.97	866.00
385.17	868.34
385.36	798.12
385.56	863.66
385.75	854.30
385.95	786.42
386.14	863.66
386.34	833.23
386.53	828.55
386.72	971.32
386.92	851.96
387.11	929.19
387.31	966.64
387.50	844.93
387.70	894.08
387.89	840.25
388.09	980.68
388.28	905.79
388.48	936.21
388.67	945.58
388.86	905.79
389.06	910.47
389.25	912.81
389.45	992.39
389.64	954.94
389.84	908.13
390.03	959.62
390.22	898.77
390.42	938.55
390.61	971.32
390.81	990.05
391.00	1032.18
391.19	898.77
391.39	1008.77
391.58	1034.52
391.78	987.71
391.97	1160.91
392.16	1039.20
392.36	1020.47
392.55	1104.73
392.75	1034.52
392.94	999.41
393.13	1034.52
393.33	1132.82
393.52	1064.94
393.71	1128.14
393.91	1076.65
394.10	1001.75
394.29	1076.65
394.49	1071.97
394.68	1125.80
394.88	1156.22
395.07	1123.46
395.26	1118.78
395.46	1116.44
395.65	1170.27
395.84	1186.65
396.04	1266.23
396.23	1181.97
396.42	1224.10
396.62	1282.61
396.81	1188.99
397.00	1217.08
397.19	1254.53
397.39	1217.08
397.58	1277.93
397.77	1238.14
397.97	1296.66
398.16	1219.42
398.35	1299.00
398.55	1228.78
398.74	1273.25
398.93	1401.98
399.12	1219.42
399.32	1240.48
399.51	1329.42
399.70	1343.47
399.90	1394.96
400.09	1420.71
400.28	1420.71
400.47	1416.02
400.67	1373.89
400.86	1385.60
401.05	1434.75
401.24	1390.28
401.44	1493.26
401.63	1474.54
401.82	1448.79
402.01	1378.58
402.21	1507.30
402.40	1423.05
402.59	1446.45
402.78	1423.05
402.97	1535.39
403.17	1504.96
403.36	1490.92
403.55	1577.52
403.74	1540.07
403.93	1701.57
404.13	1533.05
404.32	1554.12
404.51	1668.80
404.70	1708.59
404.89	1638.38
405.09	1680.50
405.28	1713.27
405.47	1657.10
405.66	1722.63
405.85	1689.87
406.05	1617.31
406.24	1760.08
406.43	1720.29
406.62	1682.85
406.81	1813.92
407.00	1629.01
407.20	1741.36
407.39	1825.62
407.58	1820.94
407.77	1858.39
407.96	1825.62
408.15	1830.30
408.34	1863.07
408.54	1947.33
408.73	1966.05
408.92	2045.63
409.11	1952.01
409.30	1991.80
409.49	1926.26
409.68	2010.52
409.87	1954.35
410.07	2057.33
410.26	1984.77
410.45	2155.63
410.64	2174.36
410.83	2150.95
411.02	2136.91
411.21	2165.00
411.40	2179.04
411.59	2279.68
411.78	2216.49
411.98	2275.00
412.17	2232.87
412.36	2275.00
412.55	2356.92
412.74	2375.64
412.93	2480.97
413.12	2326.49
413.31	2518.42
413.50	2408.41
413.69	2286.70
413.88	2450.54
414.07	2506.71
414.26	2466.92
414.45	2523.10
414.64	2572.25
414.83	2684.59
415.02	2565.23
415.22	2633.10
415.41	2670.55
415.60	2670.55
415.79	2684.59
415.98	2799.28
416.17	2745.45
416.36	2754.81
416.55	2813.32
416.74	2902.26
416.93	2726.72
417.12	2787.58
417.31	2958.44
417.50	2885.88
417.69	3042.70
417.88	2981.84
418.07	2785.24
418.26	3070.78
418.45	2937.37
418.64	3002.91
418.83	3138.66
419.02	3124.62
419.21	3094.19
419.39	3131.64
419.58	3080.14
419.77	3183.13
419.96	3094.19
420.15	3115.25
420.34	3269.73
420.53	3225.26
420.72	3239.30
420.91	3339.94
421.10	3236.96
421.29	3290.79
421.48	3173.77
421.67	3358.67
421.86	3199.51
422.05	3234.62
422.24	3290.79
422.43	3480.38
422.61	3435.91
422.80	3466.33
422.99	3480.38
423.18	3400.80
423.37	3482.72
423.56	3440.59
423.75	3419.52
423.94	3328.24
424.13	3129.30
424.32	3290.79
424.50	3396.12
424.69	3571.66
424.88	3499.10
425.07	3433.57
425.26	3382.07
425.45	3417.18
425.64	3524.85
425.83	3389.10
426.01	3536.55
426.20	3571.66
426.39	3482.72
426.58	3499.10
426.77	3510.80
426.96	3646.55
427.15	3634.85
427.33	3599.74
427.52	3653.58
427.71	3566.98
427.90	3653.58
428.09	3716.77
428.28	3705.07
428.46	3719.11
428.65	3684.00
428.84	3953.16
429.03	3770.60
429.22	3747.20
429.40	3808.05
429.59	3777.62
429.78	3684.00
429.97	3784.65
430.16	3733.15
430.34	3913.38
430.53	3873.59
430.72	3936.78
430.91	3967.21
431.10	3971.89
431.28	4067.85
431.47	3915.72
431.66	3925.08
431.85	3878.27
432.03	3976.57
432.22	4102.96
432.41	4067.85
432.60	4086.58
432.79	4142.75
432.97	3969.55
433.16	4159.13
433.35	3985.93
433.54	4222.33
433.72	4353.40
433.91	4280.84
434.10	4212.96
434.28	4367.44
434.47	4210.62
434.66	4355.74
434.85	4327.65
435.03	4367.44
435.22	4421.27
435.41	4437.66
435.59	4397.87
435.78	4507.87
435.97	4383.82
436.16	4440.00
436.34	4531.28
436.53	4482.13
436.72	4559.36
436.90	4507.87
437.09	4542.98
437.28	4547.66
437.46	4559.36
437.65	4650.64
437.84	4594.47
438.02	4622.56
438.21	4559.36
438.40	4554.68
438.58	4758.31
438.77	4734.90
438.96	4929.17
439.14	4807.46
439.33	4823.84
439.52	4833.21
439.70	4901.08
439.89	5121.09
440.08	5074.28
440.26	5078.96
440.45	5020.45
440.63	5121.09
440.82	5226.42
441.01	5249.82
441.19	5186.63
441.38	5242.80
441.57	5287.27
441.75	5453.45
441.94	5413.66
442.12	5523.66
442.31	5469.83
442.50	5558.77
442.68	5579.84
442.87	5586.86
443.05	5565.79
443.24	5563.45
443.43	5535.37
443.61	5640.69
443.80	5734.31
443.98	5584.52
444.17	5416.00
444.35	5661.76
444.54	5673.46
444.73	5652.39
444.91	5591.54
445.10	5671.12
445.28	5706.23
445.47	5610.26
445.65	5643.03
445.84	5804.53
446.02	5774.10
446.21	5717.93
446.39	5675.80
446.58	5980.07
446.77	5802.19
446.95	5664.10
447.14	5790.49
447.32	5886.45
447.51	5813.89
447.69	5846.66
447.88	5743.67
448.06	5792.83
448.25	5907.51
448.43	5806.87
448.62	5832.62
448.80	5820.91
448.99	6029.22
449.17	6003.47
449.36	5928.58
449.54	6104.12
449.73	6052.63
449.91	5963.68
450.10	6120.50
450.28	6099.44
450.46	6031.56
450.65	6097.10
450.83	6253.91
451.02	5984.75
451.20	6401.37
451.39	6221.14
451.57	6368.60
451.76	6038.58
451.94	6347.53
452.13	6286.68
452.31	6429.45
452.49	6363.92
452.68	6382.64
452.86	6359.24
453.05	6399.02
453.23	6546.48
453.42	6485.62
453.60	6366.26
453.78	6445.84
453.97	6289.02
454.15	6443.49
454.34	6408.39
454.52	6574.56
454.70	6520.73
454.89	6717.34
455.07	6717.34
455.26	6656.48
455.44	6719.68
455.62	6920.96
455.81	6607.33
455.99	6876.49
456.17	6810.96
456.36	6757.13
456.54	6944.37
456.73	6876.49
456.91	7094.16
457.09	7119.91
457.28	7250.98
457.46	7131.61
457.64	7225.23
457.83	7082.46
458.01	7075.44
458.19	7143.32
458.38	7368.01
458.56	7150.34
458.74	7410.14
458.93	7234.60
459.11	7248.64
459.29	7180.76
459.48	7307.15
459.66	7435.88
459.84	7475.67
460.03	7592.70
460.21	7548.23
460.39	7414.82
460.57	7417.16
460.76	7428.86
460.94	7543.55
461.12	7478.01
461.31	7501.42
461.49	7644.19
461.67	7632.49
461.85	7728.45
462.04	7681.64
462.22	8032.72
462.40	7850.16
462.59	7824.41
462.77	7730.79
462.95	7775.26
463.13	7918.03
463.32	7793.98
463.50	8053.78
463.68	7808.03
463.86	8013.99
464.05	7866.54
464.23	7892.29
464.41	8035.06
464.59	7985.91
464.78	8098.25
464.96	8067.83
465.14	8112.30
465.32	8173.15
465.50	8168.47
465.69	8411.89
465.87	8276.13
466.05	8208.26
466.23	8255.07
466.41	8264.43
466.60	8517.21
466.78	8348.69
466.96	8477.42
467.14	8138.04
467.32	8454.02
467.51	8587.43
467.69	8168.47
467.87	8414.23
468.05	8533.59
468.23	8283.16
468.41	8514.87
468.60	8468.06
468.78	8842.54
468.96	8631.90
469.14	8533.59
469.32	8678.71
469.50	8451.67
469.69	8676.37
469.87	8772.33
470.05	8788.71
470.23	8802.75
470.41	8802.75
470.59	9027.45
470.77	8791.05
470.95	9177.24
471.14	9125.75
471.32	8903.40
471.50	9130.43
471.68	9132.77
471.86	9036.81
472.04	9163.20
472.22	9249.80
472.40	9144.47
472.58	9153.84
472.77	9441.72
472.95	9387.89
473.13	9692.16
473.31	9504.92
473.49	9390.23
473.67	9549.39
473.85	9462.79
474.03	9745.99
474.21	9713.22
474.39	9699.18
474.57	10001.11
474.75	9844.29
474.93	10015.15
475.12	9956.64
475.30	10122.82
475.48	10054.94
475.66	10253.89
475.84	10296.02
476.02	10441.13
476.20	10438.79
476.38	10342.83
476.56	10579.22
476.74	10471.56
476.92	10670.50
477.10	10719.65
477.28	10719.65
477.46	10864.77
477.64	11037.97
477.82	11052.01
478.00	11297.77
478.18	11281.38
478.36	11452.24
478.54	11665.23
478.72	11290.74
478.90	11616.08
479.08	11705.02
479.26	11719.06
479.44	11775.24
479.62	11880.56
479.80	11786.94
479.98	12053.76
480.16	12159.08
480.34	12161.42
480.52	12290.15
480.70	12402.50
480.88	12353.35
481.06	12409.52
481.24	12554.63
481.41	12809.75
481.59	12954.87
481.77	12847.20
481.95	13125.72
482.13	13319.99
482.31	12933.80
482.49	13488.51
482.67	13441.70
482.85	13661.71
483.03	13453.40
483.21	13895.76
483.39	14001.08
483.57	13710.86
483.74	13930.87
483.92	14090.02
484.10	13996.40
484.28	14340.46
484.46	14761.76
484.64	15136.24
484.82	14703.25
485.00	14890.49
485.18	15145.61
485.35	15428.81
485.53	15154.97
485.71	15260.29
485.89	15672.23
486.07	15646.48
486.25	15625.42
486.43	15674.57
486.61	15791.59
486.78	16093.52
486.96	16013.95
487.14	16248.00
487.32	16287.79
487.50	16475.03
487.68	16484.39
487.85	16952.50
488.03	16730.15
488.21	17315.28
488.39	17214.64
488.57	17408.90
488.75	17280.18
488.92	17549.34
489.10	17600.83
489.28	17965.95
489.46	18031.49
489.64	17795.09
489.81	18188.30
489.99	18494.91
490.17	18511.30
490.35	18827.27
490.53	18452.78
490.70	18731.31
490.88	18703.22
491.06	18799.18
491.24	19030.90
491.41	19234.52
491.59	19386.66
491.77	19522.41
491.95	19566.88
492.13	19632.41
492.30	20100.52
492.48	19805.61
492.66	20191.80
492.84	19894.55
493.01	20397.77
493.19	20428.20
493.37	20105.20
493.54	20781.62
493.72	21064.82
493.90	20861.19
494.08	20922.05
494.25	21041.42
494.43	21317.60
494.61	21549.31
494.79	21755.28
494.96	21432.29
495.14	21837.20
495.32	21949.54
495.49	22185.94
495.67	22033.80
495.85	22302.96
496.02	22199.98
496.20	22422.33
496.38	22632.98
496.55	22726.60
496.73	23248.54
496.91	22546.38
497.09	23342.16
497.26	23215.77
497.44	23307.05
497.62	23426.42
497.79	23775.16
497.97	23569.19
498.14	23824.31
498.32	24332.21
498.50	23866.44
498.67	24388.38
498.85	24142.63
499.03	24341.57
499.20	24283.06
499.38	24383.70
499.56	24556.90
499.73	24526.47
499.91	24458.60
500.08	24788.61
500.26	24861.17
500.44	25109.27
500.61	24702.01
500.79	24861.17
500.97	25490.77
501.14	25682.70
501.32	25633.55
501.49	25692.06
501.67	25596.10
501.84	26085.27
502.02	25778.66
502.20	25940.16
502.37	25933.14
502.55	25902.71
502.72	26162.51
502.90	26309.96
503.07	26417.63
503.25	26368.48
503.43	26532.31
503.60	26434.01
503.78	26614.23
503.95	26476.14
504.13	26522.95
504.30	26644.66
504.48	26948.93
504.65	26913.82
504.83	27536.40
505.01	27700.24
505.18	27433.42
505.36	27885.14
505.53	27594.92
505.71	27777.48
505.88	27517.68
506.06	27679.18
506.23	27852.38
506.41	27679.18
506.58	27981.10
506.76	28191.75
506.93	28336.87
507.11	28329.84
507.28	28496.02
507.46	28350.91
507.63	28439.85
507.81	28861.15
507.98	28589.64
508.16	28655.18
508.33	29158.39
508.50	29120.95
508.68	29062.43
508.85	29240.31
509.03	28938.38
509.20	28903.28
509.38	29668.63
509.55	29530.54
509.73	29553.94
509.90	29851.19
510.08	29879.28
510.25	29298.83
510.42	29780.98
510.60	30160.14
510.77	30005.67
510.95	29909.71
511.12	30237.38
511.30	30108.65
511.47	30583.78
511.64	30335.68
511.82	30529.95
511.99	30588.46
512.17	30642.29
512.34	30761.66
512.51	30859.96
512.69	31337.43
512.86	30855.28
513.04	31105.72
513.21	31264.88
513.38	31271.90
513.56	31672.13
513.73	30951.24
513.90	31379.56
514.08	31665.11
514.25	31915.54
514.43	32088.74
514.60	32018.53
514.77	32055.98
514.95	31875.76
515.12	31777.45
515.29	32205.77
515.47	32568.55
515.64	32577.92
515.81	32598.98
515.99	32294.71
516.16	32641.11
516.33	32336.84
516.51	32577.92
516.68	32648.13
516.85	32561.53
517.03	33457.96
517.20	33156.03
517.37	32947.72
517.54	33230.93
517.72	33092.83
517.89	33347.95
518.06	33455.62
518.24	33467.32
518.41	33191.14
518.58	33350.29
518.75	33301.14
518.93	33820.74
519.10	33762.23
519.27	33626.48
519.45	33682.65
519.62	34251.40
519.79	34005.64
519.96	34117.99
520.14	34178.84
520.31	34054.79
520.48	34471.41
520.65	34438.64
520.83	34789.72
521.00	34916.11
521.17	34345.02
521.34	34796.74
521.52	34759.30
521.69	35269.53
521.86	34958.24
522.03	35384.22
522.20	35061.22
522.38	35559.76
522.55	35512.95
522.72	35096.33
522.89	35468.48
523.07	35721.26
523.24	36151.91
523.41	35407.62
523.58	35409.96
523.75	36135.53
523.92	36112.13
524.10	36137.87
524.27	35971.69
524.44	36196.38
524.61	35845.30
524.78	35866.37
524.96	36325.11
525.13	36589.59
525.30	36559.17
525.47	36533.42
525.64	36856.42
525.81	36531.08
525.98	36561.51
526.16	36538.10
526.33	36350.86
526.50	37188.77
526.67	36584.91
526.84	37060.04
527.01	36797.90
527.18	37029.62
527.36	37530.49
527.53	36926.63
527.70	37612.41
527.87	37752.84
528.04	37301.12
528.21	37610.07
528.38	37617.09
528.55	37289.42
528.72	37425.17
528.89	37535.17
529.07	37769.22
529.24	37483.68
529.41	37694.33
529.58	37853.48
529.75	37680.28
529.92	37935.40
530.09	37862.85
530.26	37841.78
530.43	38396.49
530.60	38127.33
530.77	37998.60
530.94	38794.38
531.11	38176.48
531.28	38576.71
531.46	38782.68
531.63	38326.27
531.80	38656.29
531.97	38710.12
532.14	38906.73
532.31	38806.08
532.48	38546.28
532.65	38958.22
532.82	38471.39
532.99	39042.48
533.16	39552.71
533.33	39227.38
533.50	39009.71
533.67	39115.03
533.84	39019.07
534.01	39075.24
534.18	39306.96
534.35	39763.36
534.52	39564.42
534.69	39737.62
534.86	39885.07
535.03	39702.51
535.20	39667.40
535.37	40020.82
535.54	40105.08
535.71	40137.85
535.88	39461.43
536.05	40018.48
536.22	39786.77
536.38	40399.99
536.55	39922.52
536.72	40498.29
536.89	40610.64
537.06	40608.29
537.23	40451.48
537.40	40598.93
537.57	40051.25
537.74	40285.30
537.91	40591.91
538.08	40538.08
538.25	40535.74
538.42	40439.78
538.59	40924.27
538.75	40563.82
538.92	40809.58
539.09	40926.61
539.26	40708.94
539.43	41280.03
539.60	41263.64
539.77	40842.35
539.94	41212.15
540.11	41137.26
540.28	41219.17
540.44	41352.58
540.61	40886.82
540.78	41088.10
540.95	41022.57
541.12	41053.00
541.29	40968.74
541.46	41617.07
541.62	41284.71
541.79	41612.38
541.96	41476.63
542.13	41148.96
542.30	41240.24
542.47	41642.81
542.63	41715.37
542.80	42092.19
542.97	42021.98
543.14	42492.43
543.31	41993.89
543.48	42246.67
543.64	42361.36
543.81	42387.10
543.98	42078.15
544.15	42040.70
544.32	42852.87
544.48	42941.81
544.65	42590.73
544.82	42518.17
544.99	41937.72
545.16	42550.94
545.32	42651.58
545.49	43016.71
545.66	43061.18
545.83	43115.01
546.00	42712.44
546.16	42686.69
546.33	42864.57
546.50	42761.59
546.67	43145.44
546.83	42501.79
547.00	43328.00
547.17	43136.07
547.34	43374.81
547.50	43012.02
547.67	43379.49
547.84	43157.14
548.00	43604.18
548.17	43115.01
548.34	43770.36
548.51	44030.16
548.67	43613.54
548.84	43601.84
549.01	43522.26
549.18	43988.03
549.34	43749.29
549.51	44018.46
549.68	43725.89
549.84	43810.15
550.01	44201.02
550.18	43917.81
550.34	44231.44
550.51	44486.56
550.68	44336.77
550.84	44175.27
551.01	44222.08
551.18	43803.13
551.34	44369.54
551.51	44350.81
551.68	44432.73
551.84	44065.27
552.01	43906.11
552.18	44598.91
552.34	44189.31
552.51	44334.43
552.68	44383.58
552.84	44643.38
553.01	44500.61
553.18	44364.85
553.34	44498.26
553.51	44802.53
553.67	44491.24
553.84	44910.20
554.01	45207.45
554.17	44914.88
554.34	44912.54
554.51	44509.97
554.67	45050.63
554.84	44912.54
555.00	45408.73
555.17	45270.64
555.33	45457.88
555.50	45162.98
555.67	45425.12
555.83	45219.15
556.00	45610.02
556.16	45794.92
556.33	45251.92
556.50	45750.45
556.66	45139.57
556.83	45427.46
556.99	45422.78
557.16	45741.09
557.32	45670.87
557.49	45773.86
557.65	45270.64
557.82	45535.12
557.98	45823.01
558.15	45581.93
558.32	45713.00
558.48	45118.51
558.65	45705.98
558.81	45886.20
558.98	45462.57
559.14	45598.32
559.31	45523.42
559.47	45591.30
559.64	45476.61
559.80	46230.26
559.97	46384.74
560.13	45738.75
560.30	45904.93
560.46	45853.44
560.63	46192.81
560.79	46178.77
560.96	46583.68
561.12	46113.23
561.29	46131.96
561.45	46223.24
561.61	45792.58
561.78	45738.75
561.94	45933.01
562.11	46054.72
562.27	45886.20
562.44	46131.96
562.60	46024.29
562.77	46160.05
562.93	46092.17
563.10	46358.99
563.26	46300.48
563.42	46478.36
563.59	46686.67
563.75	46382.40
563.92	46490.06
564.08	46351.97
564.24	46560.28
564.41	46672.62
564.57	46614.11
564.74	46499.42
564.90	46742.84
565.07	46686.67
565.23	46197.49
565.39	46677.30
565.56	46740.50
565.72	46490.06
565.88	46607.09
566.05	46560.28
566.21	46508.79
566.38	46476.02
566.54	47105.62
566.70	46700.71
566.87	46576.66
567.03	46021.95
567.19	46784.97
567.36	46644.54
567.52	46848.16
567.68	47213.29
567.85	47131.37
568.01	46890.29
568.17	46880.93
568.34	46988.60
568.50	46941.78
568.66	46951.15
568.83	47012.00
568.99	46712.41
569.15	46810.71
569.32	46944.12
569.48	46923.06
569.64	47180.52
569.81	47154.77
569.97	46972.21
570.13	47119.66
570.30	46857.52
570.46	46918.38
570.62	47552.66
570.78	46838.80
570.95	47086.90
571.11	47384.15
571.27	47236.69
571.43	46794.33
571.60	46766.24
571.76	46965.19
571.92	47178.18
572.09	47033.07
572.25	47519.90
572.41	46972.21
572.57	47304.57
572.74	47323.29
572.90	47351.38
573.06	46801.35
573.22	47070.51
573.38	47349.04
573.55	47154.77
573.71	47323.29
573.87	47217.97
574.03	47164.14
574.20	47173.50
574.36	47171.16
574.52	47274.14
574.68	47512.88
574.84	47370.10
575.01	47435.64
575.17	47253.08
575.33	47217.97
575.49	47246.05
575.65	47239.03
575.82	47363.08
575.98	47143.07
576.14	47641.60
576.30	47683.73
576.46	47250.74
576.62	47262.44
576.79	47702.46
576.95	46852.84
577.11	47590.11
577.27	47480.11
577.43	47377.12
577.59	47632.24
577.75	47721.18
577.92	47356.06
578.08	47576.07
578.24	47543.30
578.40	47730.54
578.56	47657.99
578.72	47665.01
578.88	47473.09
579.04	47494.15
579.21	47288.18
579.37	47489.47
579.53	47414.57
579.69	47339.68
579.85	47494.15
580.01	47660.33
580.17	47512.88
580.33	47407.55
580.49	47672.03
580.65	47681.39
580.82	47910.77
580.98	47353.72
581.14	47526.92
581.30	47351.38
581.46	47695.44
581.62	47601.82
581.78	47519.90
581.94	47683.73
582.10	47358.40
582.26	47529.26
582.42	47489.47
582.58	47271.80
582.74	48011.41
582.90	47538.62
583.06	47922.47
583.22	47583.09
583.38	47629.90
583.54	48109.71
583.70	47798.42
583.86	47519.90
584.02	47887.36
584.18	48215.04
584.34	47887.36
584.50	48053.54
584.66	47941.19
584.82	47695.44
584.98	47831.19
585.14	47831.19
585.30	47648.63
585.46	47859.27
585.62	47599.47
585.78	47880.34
585.94	47337.33
586.10	47840.55
586.26	47482.45
586.42	47672.03
586.58	47922.47
586.74	48058.22
586.90	47735.23
587.06	47770.33
587.22	48048.86
587.38	47232.01
587.54	48041.84
587.70	48360.15
587.86	47711.82
588.02	48044.18
588.18	47845.23
588.34	47810.12
588.49	47466.06
588.65	47601.82
588.81	47796.08
588.97	48196.31
589.13	47882.68
589.29	48203.33
589.45	48151.84
589.61	48369.51
589.77	48306.32
589.93	48219.72
590.08	48332.06
590.24	48566.12
590.40	48030.13
590.56	48577.82
590.72	48573.14
590.88	48353.13
591.04	48259.51
591.20	48479.52
591.35	48535.69
591.51	48680.80
591.67	48598.88
591.83	48156.52
591.99	48266.53
592.15	47957.58
592.31	48409.30
592.46	47924.81
592.62	47934.17
592.78	48285.25
592.94	48406.96
593.10	48545.05
593.26	48736.98
593.41	48596.54
593.57	48570.80
593.73	48626.97
593.89	49052.95
594.05	48580.16
594.20	48456.11
594.36	48779.10
594.52	48610.59
594.68	48362.49
594.84	48484.20
594.99	48734.63
595.15	48509.94
595.31	48673.78
595.47	48636.33
595.62	48722.93
595.78	48472.49
595.94	48334.40
596.10	48362.49
596.25	48954.64
596.41	48474.84
596.57	48336.74
596.73	48779.10
596.88	48252.48
597.04	48587.18
597.20	48392.92
597.36	48933.58
597.51	48528.67
597.67	48484.20
597.83	48910.17
597.99	48439.73
598.14	48226.74
598.30	48488.88
598.46	48376.53
598.61	48736.98
598.77	48683.14
598.93	48250.14
599.09	48769.74
599.24	49123.16
599.40	48956.99
599.56	48664.42
599.71	48884.43
599.87	48830.60
600.03	48612.93
600.18	48699.53
600.34	48779.10
600.50	48779.10
600.65	48645.69
600.81	48814.21
600.97	48832.94
601.12	48329.72
601.28	48842.30
601.44	48816.55
601.59	48741.66
601.75	48612.93
601.91	49130.19
602.06	48985.07
602.22	49015.50
602.37	48816.55
602.53	48641.01
602.69	49279.98
602.84	48547.39
603.00	48821.23
603.16	48718.25
603.31	48781.45
603.47	48837.62
603.62	48406.96
603.78	49099.76
603.94	48748.68
604.09	48601.22
604.25	48528.67
604.40	48753.36
604.56	48781.45
604.71	49242.53
604.87	48339.08
605.03	48526.33
605.18	48739.32
605.34	48837.62
605.49	48636.33
605.65	48758.04
605.80	48215.04
605.96	48701.87
606.12	48479.52
606.27	48378.87
606.43	48800.17
606.58	48760.38
606.74	48268.87
606.89	48664.42
607.05	49205.08
607.20	48669.10
607.36	48701.87
607.51	48556.75
607.67	48254.82
607.82	48439.73
607.98	48512.28
608.13	48655.06
608.29	48713.57
608.44	48521.65
608.60	48479.52
608.75	48699.53
608.91	48526.33
609.06	48418.66
609.22	48374.19
609.37	48163.54
609.53	48542.71
609.68	48643.35
609.84	48610.59
609.99	48793.15
610.15	48659.74
610.30	48341.42
610.46	48346.11
610.61	48495.90
610.76	48264.19
610.92	48163.54
611.07	48367.17
611.23	48311.00
611.38	47838.21
611.54	48208.01
611.69	48596.54
611.84	48308.66
612.00	48289.93
612.15	48083.97
612.31	48472.49
612.46	47756.29
612.62	48020.77
612.77	47988.00
612.92	48133.12
613.08	48446.75
613.23	48292.27
613.39	47988.00
613.54	47746.93
613.69	48460.79
613.85	47941.19
614.00	47627.56
614.15	48311.00
614.31	47765.65
614.46	47833.53
614.62	47711.82
614.77	48100.35
614.92	48175.25
615.08	47863.96
615.23	48458.45
615.38	48100.35
615.54	48076.94
615.69	48093.33
615.84	47765.65
616.00	47805.44
616.15	47770.33
616.30	47892.04
616.46	48046.52
616.61	48149.50
616.76	47779.70
616.92	48027.79
617.07	47564.37
617.22	48053.54
617.37	47248.39
617.53	47737.57
617.68	47620.54
617.83	47267.12
617.99	47903.74
618.14	48154.18
618.29	47679.05
618.45	47585.43
618.60	47592.45
618.75	47381.80
618.90	47217.97
619.06	47173.50
619.21	47445.00
619.36	47501.17
619.51	47515.22
619.67	47512.88
619.82	47650.97
619.97	47552.66
620.12	47360.74
620.28	47423.93
620.43	47683.73
620.58	47615.86
620.73	47716.50
620.89	47723.52
621.04	47711.82
621.19	47311.59
621.34	47423.93
621.49	47241.37
621.65	47107.96
621.80	47480.11
621.95	47494.15
622.10	47519.90
622.25	47395.85
622.41	46962.85
622.56	47292.86
622.71	47152.43
622.86	46930.08
623.01	47636.92
623.16	46897.31
623.32	47327.97
623.47	46766.24
623.62	46864.55
623.77	46850.50
623.92	46916.04
624.07	47091.58
624.23	46927.74
624.38	46953.49
624.53	46630.49
624.68	46614.11
624.83	46639.86
624.98	46878.59
625.13	46541.55
625.29	46452.61
625.44	46660.92
625.59	47007.32
625.74	46904.34
625.89	46204.52
626.04	46700.71
626.19	46431.55
626.34	46375.37
626.49	46583.68
626.65	46307.50
626.80	46794.33
626.95	46447.93
627.10	46092.17
627.25	46674.96
627.40	46710.07
627.55	46644.54
627.70	46314.52
627.85	46426.87
628.00	46508.79
628.15	46508.79
628.30	45900.25
628.45	45930.67
628.60	45565.55
628.76	46003.23
628.91	46213.88
629.06	45815.99
629.21	45933.01
629.36	46426.87
629.51	45813.65
629.66	46415.16
629.81	46101.53
629.96	46218.56
630.11	45785.56
630.26	45902.59
630.41	45691.94
630.56	45895.56
630.71	45790.24
630.86	45518.74
631.01	45406.39
631.16	45544.48
631.31	45813.65
631.46	45783.22
631.61	46314.52
631.76	46113.23
631.91	45422.78
632.06	45895.56
632.21	45904.93
632.36	46370.69
632.51	45528.10
632.66	45427.46
632.81	44907.86
632.96	45851.09
633.10	45209.79
633.25	45387.67
633.40	45413.41
633.55	45661.51
633.70	45539.80
633.85	45380.65
634.00	45034.25
634.15	44940.63
634.30	45301.07
634.45	45233.19
634.60	45067.02
634.75	45500.01
634.90	45235.53
635.05	45097.44
635.19	44914.88
635.34	45947.06
635.49	45329.16
635.64	45223.83
635.79	45301.07
635.94	44924.24
636.09	45462.57
636.24	45251.92
636.39	44875.09
636.53	45097.44
636.68	44598.91
636.83	44605.93
636.98	44889.13
637.13	44474.86
637.28	44463.16
637.43	45069.36
637.57	44931.26
637.72	44357.83
637.87	44598.91
638.02	44491.24
638.17	44685.51
638.32	44526.35
638.46	44528.69
638.61	44184.63
638.76	44006.75
638.91	44381.24
639.06	44140.16
639.20	44243.15
639.35	44313.36
639.50	44037.18
639.65	44116.76
639.80	44570.82
639.94	44339.11
640.09	45062.33
640.24	44435.07
640.39	44231.44
640.54	44102.71
640.68	44123.78
640.83	44603.59
640.98	44271.23
641.13	43889.73
641.27	44208.04
641.42	44435.07
641.57	43882.70
641.72	44184.63
641.86	43892.07
642.01	43447.36
642.16	43810.15
642.31	43583.12
642.45	43878.02
642.60	43449.70
642.75	44041.86
642.90	44126.12
643.04	44025.48
643.19	43786.74
643.34	43540.99
643.48	43690.78
643.63	43793.76
643.78	43625.25
643.93	43885.04
644.07	43372.47
644.22	43625.25
644.37	43302.25
644.51	43903.77
644.66	43810.15
644.81	43423.96
644.95	43501.20
645.10	43220.33
645.25	42906.70
645.39	43107.99
645.54	43381.83
645.69	43220.33
645.83	42897.34
645.98	43264.80
646.13	42745.20
646.27	43377.15
646.42	42572.00
646.57	43318.64
646.71	43002.66
646.86	43360.76
647.00	43536.30
647.15	43421.62
647.30	43093.94
647.44	43318.64
647.59	43098.62
647.74	42822.44
647.88	42862.23
648.03	43210.97
648.17	43416.94
648.32	43019.05
648.47	43606.52
648.61	42642.22
648.76	43100.97
648.90	42667.97
649.05	42866.91
649.20	42815.42
649.34	42782.65
649.49	43075.22
649.63	43009.68
649.78	42501.79
649.92	43112.67
650.07	43210.97
650.21	42644.56
650.36	42747.54
650.51	43351.40
650.65	42761.59
650.80	42574.34
650.94	42499.45
651.09	42525.19
651.23	42122.62
651.38	42403.49
651.52	42197.52
651.67	42412.85
651.81	42600.09
651.96	42625.84
652.10	42328.59
652.25	42300.50
652.39	41897.93
652.54	42658.60
652.68	42164.75
652.83	42211.56
652.97	42710.10
653.12	42426.89
653.26	42415.19
653.41	42136.66
653.55	42148.37
653.70	42447.96
653.84	42204.54
653.99	42511.15
654.13	42199.86
654.27	41956.44
654.42	42279.44
654.56	41820.69
654.71	42136.66
654.85	42295.82
655.00	42183.48
655.14	42073.47
655.29	42178.79
655.43	41926.02
655.57	41570.25
655.72	41535.15
655.86	41916.65
656.01	41198.11
656.15	41425.14
656.30	41439.18
656.44	41785.58
656.58	41713.03
656.73	41324.50
656.87	41427.48
657.01	41462.59
657.16	41900.27
657.30	41247.26
657.45	41593.66
657.59	41406.42
657.73	40788.52
657.88	41352.58
658.02	41593.66
658.16	41240.24
658.31	41317.48
658.45	41343.22
658.60	41160.66
658.74	40898.52
658.88	40854.05
659.03	40734.68
659.17	41268.33
659.31	40821.28
659.46	40495.95
659.60	40840.01
659.74	41022.57
659.89	40495.95
660.03	39922.52
660.17	40381.26
660.32	40364.88
660.46	40474.88
660.60	40353.18
660.74	40252.53
660.89	40481.91
661.03	40287.64
661.17	40137.85
661.32	40086.36
661.46	40261.90
661.60	40027.84
661.74	40205.72
661.89	39901.45
662.03	40107.42
662.17	39470.79
662.31	39728.25
662.46	40257.21
662.60	39660.38
662.74	39782.09
662.88	39431.01
663.03	39208.65
663.17	39353.77
663.31	39072.90
663.45	39299.94
663.60	39646.33
663.74	39285.89
663.88	39541.01
664.02	39138.44
664.17	39400.58
664.31	39180.57
664.45	38836.51
664.59	38880.98
664.73	38726.50
664.88	39005.03
665.02	39028.43
665.16	39026.09
665.30	38735.87
665.44	39005.03
665.59	38237.33
665.73	38415.21
665.87	37745.82
666.01	38363.72
666.15	38450.32
666.29	38071.15
666.44	38436.28
666.58	38288.82
666.72	38234.99
666.86	38274.78
667.00	37940.08
667.14	38148.39
667.28	38078.18
667.43	37984.55
667.57	38040.73
667.71	38162.43
667.85	37888.59
667.99	37963.49
668.13	37654.54
668.27	37558.58
668.41	37605.39
668.56	37240.26
668.70	37266.01
668.84	36844.71
668.98	36924.29
669.12	37333.89
669.26	36849.39
669.40	37275.37
669.54	37277.71
669.68	36973.44
669.82	37109.19
669.96	36432.78
670.10	36580.23
670.25	36882.16
670.39	36067.66
670.53	36800.24
670.67	36465.55
670.81	36503.00
670.95	36758.11
671.09	35812.54
671.23	36023.19
671.37	36493.63
671.51	36222.13
671.65	35805.52
671.79	36297.03
671.93	36292.35
672.07	36203.41
672.21	35674.45
672.35	35744.66
672.49	35938.93
672.63	35845.30
672.77	35559.76
672.91	35543.38
673.05	35491.88
673.19	35182.93
673.33	35555.08
673.47	35590.19
673.61	34930.16
673.75	34649.29
673.89	34876.32
674.03	34689.08
674.17	34492.47
674.31	34408.22
674.45	34340.34
674.59	34223.31
674.73	34607.16
674.87	33893.30
675.01	34410.56
675.15	33680.31
675.29	33614.77
675.43	33516.47
675.56	33897.98
675.70	33975.22
675.84	33436.89
675.98	32547.49
676.12	33692.01
676.26	33923.72
676.40	33235.61
676.54	33582.01
676.68	33170.07
676.82	32669.20
676.96	33153.69
677.10	33156.03
677.23	32716.01
677.37	33020.28
677.51	32596.64
677.65	32739.41
677.79	32423.44
677.93	32554.51
678.07	31840.65
678.21	32170.66
678.34	31915.54
678.48	31988.10
678.62	32018.53
678.76	31632.34
678.90	31660.43
679.04	31587.87
679.18	31955.33
679.31	31206.36
679.45	31117.42
679.59	31054.23
679.73	31360.84
679.87	30979.33
680.00	30962.95
680.14	30782.73
680.28	30981.67
680.42	31101.04
680.56	30457.39
680.70	30654.00
680.83	29942.47
680.97	30363.77
681.11	30150.78
681.25	29577.35
681.39	29596.07
681.52	30251.42
681.66	29528.20
681.80	29230.95
681.94	29205.20
682.07	29502.45
682.21	29029.66
682.35	28954.77
682.49	28893.91
682.62	28463.25
682.76	28772.21
682.90	28842.42
683.04	28957.11
683.17	28744.12
683.31	28451.55
683.45	28481.98
683.59	28231.54
683.72	28332.18
683.86	27946.00
684.00	27604.28
684.13	28451.55
684.27	27491.93
684.41	27953.02
684.55	27559.81
684.68	27267.24
684.82	27051.91
684.96	27318.73
685.09	27288.31
685.23	26918.50
685.37	27871.10
685.50	27688.54
685.64	27234.47
685.78	26986.38
685.91	26707.85
686.05	26284.22
686.19	26153.15
686.32	26808.50
686.46	26221.02
686.60	25715.47
686.73	26099.31
686.87	26127.40
687.01	26059.52
687.14	25745.89
687.28	25549.29
687.42	25619.50
687.55	25355.02
687.69	25481.41
687.82	25333.96
687.96	25184.16
688.10	25443.96
688.23	25027.35
688.37	25156.08
688.50	25647.59
688.64	24893.94
688.78	24566.26
688.91	24779.25
689.05	24545.20
689.18	24067.73
689.32	23990.49
689.46	24056.03
689.59	24369.66
689.73	24095.82
689.86	24561.58
690.00	24011.56
690.13	23969.43
690.27	23599.62
690.41	23468.55
690.54	23222.80
690.68	23372.59
690.81	23285.99
690.95	22977.04
691.08	23445.15
691.22	22864.69
691.35	22764.05
691.49	23068.32
691.62	23154.92
691.76	22389.56
691.89	22415.31
692.03	22478.50
692.16	22239.77
692.30	22506.59
692.43	21982.31
692.57	21956.57
692.70	22143.81
692.84	21645.27
692.97	21666.34
693.11	21577.40
693.24	21443.99
693.38	21385.47
693.51	21029.71
693.65	21378.45
693.78	21113.97
693.92	21198.23
694.05	20800.34
694.19	21198.23
694.32	20737.15
694.45	20945.45
694.59	20996.95
694.72	20837.79
694.86	20535.86
694.99	20325.21
695.13	20112.22
695.26	20046.69
695.39	20177.76
695.53	19714.33
695.66	19873.49
695.80	19690.93
695.93	19723.69
696.07	19379.64
696.20	19360.91
696.33	19192.39
696.47	18979.40
696.60	19030.90
696.73	19414.74
696.87	19112.81
697.00	18995.79
697.14	18941.96
697.27	18927.91
697.40	18761.73
697.54	18827.27
697.67	18785.14
697.80	18597.90
697.94	18480.87
698.07	18450.44
698.21	18396.61
698.34	18146.17
698.47	17867.65
698.61	17727.22
698.74	17804.46
698.87	18064.25
699.01	17668.70
699.14	17762.33
699.27	17671.04
699.40	17879.35
699.54	17490.82
699.67	17467.42
699.80	17233.36
699.94	17216.98
700.07	17429.97
700.20	17060.16
700.34	16879.94
700.47	16994.63
700.60	16929.09
700.73	16655.25
700.87	16732.49
701.00	16535.88
701.13	16482.05
701.26	16301.83
701.40	16463.33
701.53	16231.62
701.66	16400.13
701.79	16105.23
701.93	15597.33
702.06	15599.67
702.19	15625.42
702.32	15859.47
702.46	15782.23
702.59	16100.55
702.72	15784.57
702.85	15683.93
702.99	15602.01
703.12	15501.37
703.25	15311.78
703.38	15126.88
703.51	15197.10
703.65	14581.54
703.78	14750.06
703.91	14736.01
704.04	14906.87
704.17	14677.50
704.31	14750.06
704.44	14728.99
704.57	14546.43
704.70	14387.27
704.83	14420.04
704.96	14588.56
705.10	14265.57
705.23	14047.90
>>>>>End Processed Spectral Data<<<<<
