SpectraSuite Data File
++++++++++++++++++++++++++++++++++++
Date: Fri Oct 25 11:33:36 EDT 2013
User: price-jones
Dark Spectrum Present: No
Reference Spectrum Present: No
Number of Sampled Component Spectra: 1
Spectrometers: USB2+H05261
Integration Time (usec): 100000 (USB2+H05261)
Spectra Averaged: 1 (USB2+H05261)
Boxcar Smoothing: 0 (USB2+H05261)
Correct for Electrical Dark: No (USB2+H05261)
Strobe/Lamp Enabled: No (USB2+H05261)
Correct for Detector Non-linearity: No (USB2+H05261)
Correct for Stray Light: No (USB2+H05261)
Number of Pixels in Processed Spectrum: 2048
>>>>>Begin Processed Spectral Data<<<<<
365.73	280.86
365.92	280.86
366.12	280.86
366.32	205.97
366.52	166.18
366.72	203.63
366.91	212.99
367.11	166.18
367.31	119.37
367.51	198.95
367.70	201.29
367.90	177.88
368.10	236.39
368.30	212.99
368.49	138.09
368.69	138.09
368.89	191.92
369.09	147.45
369.28	187.24
369.48	241.08
369.68	236.39
369.87	182.56
370.07	259.80
370.27	262.14
370.47	255.12
370.66	538.32
370.86	496.19
371.06	571.09
371.25	482.15
371.45	517.26
371.65	606.20
371.84	521.94
372.04	559.39
372.24	552.37
372.44	608.54
372.63	601.52
372.83	620.24
373.03	664.71
373.22	636.63
373.42	653.01
373.62	594.50
373.81	667.05
374.01	643.65
374.21	706.84
374.40	613.22
374.60	657.69
374.79	615.56
374.99	669.39
375.19	704.50
375.38	704.50
375.58	622.58
375.78	660.03
375.97	627.26
376.17	674.07
376.37	699.82
376.56	627.26
376.76	681.10
376.95	634.29
377.15	699.82
377.35	709.18
377.54	741.95
377.74	702.16
377.93	657.69
378.13	645.99
378.33	713.86
378.52	727.91
378.72	791.10
378.91	727.91
379.11	692.80
379.31	713.86
379.50	718.54
379.70	753.65
379.89	730.25
380.09	760.67
380.28	723.23
380.48	744.29
380.68	706.84
380.87	770.04
381.07	713.86
381.26	727.91
381.46	781.74
381.65	737.27
381.85	840.25
382.04	772.38
382.24	779.40
382.43	753.65
382.63	784.08
382.83	753.65
383.02	851.96
383.22	880.04
383.41	765.36
383.61	833.23
383.80	795.78
384.00	828.55
384.19	763.01
384.39	802.80
384.58	847.27
384.78	779.40
384.97	868.34
385.17	788.76
385.36	819.19
385.56	873.02
385.75	814.51
385.95	805.14
386.14	837.91
386.34	866.00
386.53	767.70
386.72	870.68
386.92	959.62
387.11	966.64
387.31	875.36
387.50	880.04
387.70	833.23
387.89	866.00
388.09	910.47
388.28	910.47
388.48	873.02
388.67	828.55
388.86	940.90
389.06	985.37
389.25	971.32
389.45	828.55
389.64	898.77
389.84	903.45
390.03	954.94
390.22	968.98
390.42	990.05
390.61	912.81
390.81	905.79
391.00	992.39
391.19	1020.47
391.39	971.32
391.58	954.94
391.78	1130.48
391.97	1020.47
392.16	943.24
392.36	1118.78
392.55	1102.39
392.75	997.07
392.94	1006.43
393.13	1060.26
393.33	1160.91
393.52	1067.28
393.71	1074.31
393.91	1111.75
394.10	1046.22
394.29	1081.33
394.49	1039.20
394.68	1081.33
394.88	1100.05
395.07	1235.80
395.26	1188.99
395.46	1128.14
395.65	1163.25
395.84	1242.82
396.04	1256.87
396.23	1177.29
396.42	1186.65
396.62	1252.19
396.81	1329.42
397.00	1254.53
397.19	1226.44
397.39	1177.29
397.58	1214.74
397.77	1301.34
397.97	1210.06
398.16	1268.57
398.35	1259.21
398.55	1270.91
398.74	1193.67
398.93	1327.08
399.12	1306.02
399.32	1348.15
399.51	1331.76
399.70	1299.00
399.90	1270.91
400.09	1455.81
400.28	1392.62
400.47	1357.51
400.67	1488.58
400.86	1350.49
401.05	1322.40
401.24	1425.39
401.44	1483.90
401.63	1425.39
401.82	1446.45
402.01	1411.34
402.21	1523.69
402.40	1479.22
402.59	1455.81
402.78	1516.67
402.97	1521.35
403.17	1544.75
403.36	1542.41
403.55	1535.39
403.74	1519.01
403.93	1610.29
404.13	1619.65
404.32	1511.99
404.51	1568.16
404.70	1575.18
404.89	1645.40
405.09	1771.79
405.28	1647.74
405.47	1685.19
405.66	1715.61
405.85	1685.19
406.05	1682.85
406.24	1685.19
406.43	1748.38
406.62	1710.93
406.81	1830.30
407.00	1727.32
407.20	1746.04
407.39	1657.10
407.58	1870.09
407.77	1872.43
407.96	1888.81
408.15	1809.23
408.34	1902.86
408.54	1849.02
408.73	1877.11
408.92	1842.00
409.11	1984.77
409.30	1926.26
409.49	1989.46
409.68	1947.33
409.87	2015.20
410.07	2150.95
410.26	2010.52
410.45	2111.16
410.64	2033.93
410.83	2204.78
411.02	2080.74
411.21	2076.06
411.40	2181.38
411.59	2057.33
411.78	2216.49
411.98	2141.59
412.17	2237.55
412.36	2277.34
412.55	2200.10
412.74	2417.77
412.93	2270.32
413.12	2260.96
413.31	2370.96
413.50	2424.80
413.69	2441.18
413.88	2420.11
414.07	2462.24
414.26	2569.91
414.45	2443.52
414.64	2668.21
414.83	2562.89
415.02	2539.48
415.22	2654.17
415.41	2628.42
415.60	2607.36
415.79	2663.53
415.98	2750.13
416.17	2792.26
416.36	2586.29
416.55	2747.79
416.74	2787.58
416.93	2892.90
417.12	2771.19
417.31	2740.77
417.50	2825.03
417.69	3000.57
417.88	2935.03
418.07	2977.16
418.26	2967.80
418.45	2860.13
418.64	3009.93
418.83	2963.12
419.02	2972.48
419.21	3101.21
419.39	3082.49
419.58	3075.46
419.77	3014.61
419.96	3162.06
420.15	3201.85
420.34	3087.17
420.53	3159.72
420.72	3311.86
420.91	3227.60
421.10	3213.56
421.29	3239.30
421.48	3192.49
421.67	3279.09
421.86	3197.17
422.05	3372.71
422.24	3309.52
422.43	3400.80
422.61	3229.94
422.80	3328.24
422.99	3506.12
423.18	3431.23
423.37	3307.18
423.56	3269.73
423.75	3478.04
423.94	3400.80
424.13	3157.38
424.32	3302.50
424.50	3501.44
424.69	3386.76
424.88	3487.40
425.07	3426.54
425.26	3344.63
425.45	3494.42
425.64	3361.01
425.83	3492.08
426.01	3375.05
426.20	3480.38
426.39	3398.46
426.58	3527.19
426.77	3428.88
426.96	3613.79
427.15	3517.83
427.33	3452.29
427.52	3531.87
427.71	3644.21
427.90	3616.13
428.09	3585.70
428.28	3653.58
428.46	3681.66
428.65	3737.84
428.84	3803.37
429.03	3770.60
429.22	3655.92
429.40	3742.52
429.59	3836.14
429.78	3721.45
429.97	3538.89
430.16	3829.12
430.34	3873.59
430.53	3964.87
430.72	3976.57
430.91	3805.71
431.10	3719.11
431.28	3889.97
431.47	3885.29
431.66	3995.29
431.85	3927.42
432.03	4063.17
432.22	4025.72
432.41	4002.32
432.60	4191.90
432.79	4191.90
432.97	3983.59
433.16	4070.19
433.35	3992.95
433.54	4264.46
433.72	4262.12
433.91	4084.23
434.10	4191.90
434.28	4334.67
434.47	4173.18
434.66	4212.96
434.85	4234.03
435.03	4245.73
435.22	4360.42
435.41	4383.82
435.59	4248.07
435.78	4313.61
435.97	4400.21
436.16	4465.74
436.34	4358.08
436.53	4386.16
436.72	4578.09
436.90	4430.63
437.09	4655.33
437.28	4519.57
437.46	4500.85
437.65	4634.26
437.84	4559.36
438.02	4592.13
438.21	4823.84
438.40	4564.04
438.58	4758.31
438.77	4753.63
438.96	4732.56
439.14	4737.24
439.33	4840.23
439.52	5020.45
439.70	5074.28
439.89	4952.57
440.08	5053.22
440.26	5071.94
440.45	4975.98
440.63	5088.32
440.82	5135.14
441.01	5102.37
441.19	5111.73
441.38	5273.23
441.57	5291.95
441.75	5313.02
441.94	5291.95
442.12	5291.95
442.31	5469.83
442.50	5397.28
442.68	5397.28
442.87	5455.79
443.05	5507.28
443.24	5589.20
443.43	5579.84
443.61	5568.13
443.80	5659.42
443.98	5444.09
444.17	5439.40
444.35	5584.52
444.54	5654.73
444.73	5547.07
444.91	5661.76
445.10	5755.38
445.28	5626.65
445.47	5579.84
445.65	5526.00
445.84	5710.91
446.02	5645.37
446.21	5762.40
446.39	5846.66
446.58	5685.16
446.77	5640.69
446.95	5661.76
447.14	5713.25
447.32	5841.98
447.51	5643.03
447.69	5706.23
447.88	5778.78
448.06	5806.87
448.25	5753.04
448.43	5741.33
448.62	5788.14
448.80	5654.73
448.99	5804.53
449.17	5961.34
449.36	5919.21
449.54	5935.60
449.73	6127.52
449.91	5947.30
450.10	6136.88
450.28	6197.74
450.46	6289.02
450.65	6019.86
450.83	6160.29
451.02	6045.60
451.20	6129.86
451.39	6186.04
451.57	6099.44
451.76	6090.07
451.94	6328.81
452.13	6181.35
452.31	6179.01
452.49	6200.08
452.68	6272.64
452.86	6413.07
453.05	6389.66
453.23	6373.28
453.42	6249.23
453.60	6347.53
453.78	6420.09
453.97	6363.92
454.15	6438.81
454.34	6258.59
454.52	6616.69
454.70	6516.05
454.89	6628.40
455.07	6602.65
455.26	6640.10
455.44	6511.37
455.62	6602.65
455.81	6572.22
455.99	6658.82
456.17	6677.55
456.36	6876.49
456.54	6970.12
456.73	6967.77
456.91	6883.52
457.09	7110.55
457.28	7148.00
457.46	7061.40
457.64	7094.16
457.83	7164.38
458.01	7009.90
458.19	7077.78
458.38	7204.17
458.56	7398.43
458.74	7279.07
458.93	7302.47
459.11	7206.51
459.29	7225.23
459.48	7258.00
459.66	7227.57
459.84	7258.00
460.03	7482.69
460.21	7470.99
460.39	7407.80
460.57	7454.61
460.76	7599.72
460.94	7541.21
461.12	7538.87
461.31	7571.63
461.49	7534.18
461.67	7672.28
461.85	7452.27
462.04	7557.59
462.22	8163.79
462.40	7751.85
462.59	7791.64
462.77	7585.68
462.95	7861.86
463.13	7712.07
463.32	7744.83
463.50	7838.45
463.68	7960.16
463.86	8002.29
464.05	7801.01
464.23	8081.87
464.41	7985.91
464.59	7796.32
464.78	7948.46
464.96	7915.69
465.14	7985.91
465.32	8013.99
465.50	8142.72
465.69	8177.83
465.87	7957.82
466.05	8100.59
466.23	8168.47
466.41	8114.64
466.60	8409.54
466.78	8135.70
466.96	8060.80
467.14	8189.53
467.32	8065.49
467.51	8224.64
467.69	8138.04
467.87	8266.77
468.05	8348.69
468.23	8397.84
468.41	8255.07
468.60	8355.71
468.78	8568.70
468.96	8475.08
469.14	8631.90
469.32	8737.22
469.50	8407.20
469.69	8737.22
469.87	8828.50
470.05	8596.79
470.23	8940.85
470.41	8781.69
470.59	8823.82
470.77	8887.01
470.95	8833.18
471.14	8961.91
471.32	8779.35
471.50	9004.04
471.68	9144.47
471.86	9092.98
472.04	9128.09
472.22	9303.63
472.40	9048.51
472.58	9334.06
472.77	9188.94
472.95	9397.25
473.13	9933.23
473.31	9366.82
473.49	9261.50
473.67	9348.10
473.85	9525.98
474.03	9703.86
474.21	9781.10
474.39	9741.31
474.57	9664.07
474.75	9877.06
474.93	9879.40
475.12	9834.93
475.30	10061.96
475.48	9991.75
475.66	10104.09
475.84	9984.73
476.02	10548.79
476.20	10284.31
476.38	10375.59
476.56	10583.90
476.74	10668.16
476.92	10345.17
477.10	10513.69
477.28	10789.87
477.46	10736.04
477.64	10942.00
477.82	10953.71
478.00	11138.61
478.18	10995.84
478.36	11213.51
478.54	11239.25
478.72	11197.12
478.90	11461.60
479.08	11641.82
479.26	11590.33
479.44	11513.10
479.62	11868.86
479.80	11871.20
479.98	12170.79
480.16	12226.96
480.34	12004.61
480.52	12198.87
480.70	12322.92
480.88	12273.77
481.06	12212.92
481.24	12542.93
481.41	12681.02
481.59	12746.56
481.77	12650.60
481.95	12931.46
482.13	12863.58
482.31	13029.76
482.49	13383.18
482.67	13422.97
482.85	13540.00
483.03	13465.10
483.21	13495.53
483.39	13713.20
483.57	13682.77
483.74	13664.05
483.92	13895.76
484.10	13881.72
484.28	14197.69
484.46	14487.92
484.64	14745.38
484.82	14274.93
485.00	14576.86
485.18	14810.91
485.35	15220.50
485.53	14876.44
485.71	15096.46
485.89	15328.17
486.07	15119.86
486.25	15213.48
486.43	15805.64
486.61	15477.96
486.78	15847.77
486.96	15922.66
487.14	15969.48
487.32	15941.39
487.50	16145.02
487.68	16596.74
487.85	16559.29
488.03	16662.27
488.21	16896.33
488.39	16776.96
488.57	17106.98
488.75	17156.13
488.92	17214.64
489.10	17348.05
489.28	17635.94
489.46	17558.70
489.64	18038.51
489.81	18024.47
489.99	17879.35
490.17	18312.35
490.35	18466.83
490.53	18333.42
490.70	18876.42
490.88	18420.02
491.06	18843.65
491.24	18946.64
491.41	19187.71
491.59	19070.68
491.77	19133.88
491.95	18923.23
492.13	19763.48
492.30	19707.31
492.48	19744.76
492.66	19433.47
492.84	19700.29
493.01	20126.27
493.19	20350.96
493.37	20608.42
493.54	20170.74
493.72	20294.79
493.90	20156.69
494.08	20828.43
494.25	20732.47
494.43	20833.11
494.61	21018.01
494.79	21160.78
494.96	21401.86
495.14	21537.61
495.32	21951.88
495.49	21605.49
495.67	21762.30
495.85	21837.20
496.02	21752.94
496.20	22089.98
496.38	22324.03
496.55	22476.16
496.73	22899.80
496.91	22871.72
497.09	23012.15
497.26	23028.53
497.44	23180.67
497.62	23257.90
497.79	23250.88
497.97	23276.63
498.14	23592.60
498.32	23515.36
498.50	23559.83
498.67	24058.37
498.85	23875.80
499.03	24257.31
499.20	23997.51
499.38	24004.53
499.56	24191.78
499.73	24685.63
499.91	24671.59
500.08	24666.91
500.26	24425.83
500.44	24615.41
500.61	24877.55
500.79	24648.18
500.97	25102.25
501.14	25312.89
501.32	25242.68
501.49	25184.16
501.67	25376.09
501.84	25546.95
502.02	25387.79
502.20	25558.65
502.37	25827.81
502.55	25635.89
502.72	25872.28
502.90	25778.66
503.07	25607.80
503.25	25781.00
503.43	25848.88
503.60	26274.85
503.78	26593.17
503.95	26258.47
504.13	26281.88
504.30	26515.93
504.48	26836.58
504.65	26850.63
504.83	26824.88
505.01	27360.86
505.18	26916.16
505.36	27215.75
505.53	26967.65
505.71	27428.74
505.88	27559.81
506.06	27459.16
506.23	27513.00
506.41	27332.78
506.58	27651.09
506.76	27775.14
506.93	28105.15
507.11	27843.01
507.28	28243.24
507.46	28229.20
507.63	28128.56
507.81	28297.08
507.98	28215.16
508.16	28470.28
508.33	28568.58
508.50	28907.96
508.68	28737.10
508.85	29078.82
509.03	29062.43
509.20	29024.98
509.38	29270.74
509.55	29544.58
509.73	29165.42
509.90	29392.45
510.08	29439.26
510.25	29469.69
510.42	29673.31
510.60	29460.32
510.77	30136.74
510.95	30036.09
511.12	29916.73
511.30	29933.11
511.47	30052.48
511.64	29614.80
511.82	30431.65
511.99	30338.02
512.17	30466.75
512.34	30295.89
512.51	30773.36
512.69	30682.08
512.86	30764.00
513.04	30967.63
513.21	30738.26
513.38	31218.07
513.56	31147.85
513.73	31051.89
513.90	31166.57
514.08	30995.71
514.25	31208.70
514.43	31578.51
514.60	31463.82
514.77	31370.20
514.95	31812.56
515.12	31531.70
515.29	31922.57
515.47	31775.11
515.64	32154.28
515.81	31936.61
515.99	31845.33
516.16	32486.64
516.33	32215.13
516.51	32783.88
516.68	32180.03
516.85	32580.26
517.03	32306.41
517.20	32746.44
517.37	32711.33
517.54	32943.04
517.72	33109.22
517.89	33146.67
518.06	32914.95
518.24	32959.42
518.41	32795.59
518.58	32802.61
518.75	32975.81
518.93	32833.04
519.10	33488.38
519.27	33591.37
519.45	33099.86
519.62	33460.30
519.79	33633.50
519.96	33656.90
520.14	33900.32
520.31	33687.33
520.48	33741.16
520.65	34026.71
520.83	34054.79
521.00	34335.66
521.17	34340.34
521.34	34270.12
521.52	34539.29
521.69	34375.45
521.86	35014.41
522.03	34976.97
522.20	34775.68
522.38	35227.40
522.55	35058.88
522.72	35075.27
522.89	35122.08
523.07	35435.71
523.24	35311.66
523.41	35016.75
523.58	34913.77
523.75	35440.39
523.92	35365.49
524.10	35267.19
524.27	35906.16
524.44	35419.33
524.61	35655.72
524.78	35676.79
524.96	35840.62
525.13	35955.31
525.30	36418.74
525.47	36238.51
525.64	35817.22
525.81	36371.92
525.98	36002.12
526.16	36332.14
526.33	36046.59
526.50	36580.23
526.67	36348.52
526.84	36783.86
527.01	36517.04
527.18	36535.76
527.36	36521.72
527.53	36889.18
527.70	36549.81
527.87	37027.28
528.04	36762.79
528.21	36847.05
528.38	37081.11
528.55	37528.15
528.72	36788.54
528.89	37151.32
529.07	37481.34
529.24	36957.06
529.41	37151.32
529.58	37422.83
529.75	37247.29
529.92	37612.41
530.09	37560.92
530.26	37919.02
530.43	37556.24
530.60	37525.81
530.77	38019.66
530.94	37820.72
531.11	37546.87
531.28	38197.54
531.46	38422.23
531.63	37572.62
531.80	38330.95
531.97	37954.13
532.14	38433.94
532.31	38188.18
532.48	38494.79
532.65	38628.20
532.82	38431.60
532.99	38719.48
533.16	38955.88
533.33	38939.49
533.50	38740.55
533.67	38848.21
533.84	38298.19
534.01	38628.20
534.18	39304.62
534.35	39124.40
534.52	39227.38
534.69	39241.42
534.86	39545.69
535.03	39023.75
535.20	39325.68
535.37	39409.94
535.54	39653.36
535.71	39393.56
535.88	39557.39
536.05	39864.00
536.22	39878.05
536.38	39627.61
536.55	39648.68
536.72	39672.08
536.89	39653.36
537.06	39618.25
537.23	39861.66
537.40	39796.13
537.57	39496.54
537.74	40273.60
537.91	39917.84
538.08	39871.03
538.25	39765.70
538.42	40215.08
538.59	40423.39
538.75	40294.66
538.92	40268.92
539.09	40734.68
539.26	40535.74
539.43	40774.47
539.60	40481.91
539.77	40311.05
539.94	40568.51
540.11	40802.56
540.28	40811.92
540.44	40898.52
540.61	40484.25
540.78	40631.70
540.95	40725.32
541.12	40229.13
541.29	40760.43
541.46	41053.00
541.62	41212.15
541.79	41471.95
541.96	41181.73
542.13	41113.85
542.30	41188.75
542.47	41123.21
542.63	41251.94
542.80	41574.94
542.97	41895.59
543.14	41818.35
543.31	41886.23
543.48	41249.60
543.64	42312.20
543.81	41979.85
543.98	42103.90
544.15	41916.65
544.32	41886.23
544.48	42696.05
544.65	41918.99
544.82	42457.32
544.99	41551.53
545.16	42066.45
545.32	42232.63
545.49	43082.24
545.66	42637.54
545.83	42506.47
546.00	42515.83
546.16	42382.42
546.33	42024.32
546.50	42349.65
546.67	42705.41
546.83	42403.49
547.00	42543.92
547.17	42873.93
547.34	42546.26
547.50	43002.66
547.67	43302.25
547.84	43023.73
548.00	43580.78
548.17	43253.10
548.34	43051.81
548.51	43185.22
548.67	43468.43
548.84	43107.99
549.01	42962.87
549.18	42895.00
549.34	43395.87
549.51	43789.08
549.68	43138.41
549.84	43257.78
550.01	43615.88
550.18	43393.53
550.34	44062.93
550.51	43859.30
550.68	43753.97
550.84	43463.75
551.01	43981.01
551.18	43632.27
551.34	43459.07
551.51	43723.55
551.68	43791.42
551.84	43646.31
552.01	43779.72
552.18	43643.97
552.34	44154.21
552.51	43798.44
552.68	43758.66
552.84	43978.67
553.01	44189.31
553.18	44128.46
553.34	44275.91
553.51	44114.42
553.67	44734.66
553.84	44484.22
554.01	44580.18
554.17	44182.29
554.34	44411.67
554.51	44481.88
554.67	44999.14
554.84	44823.60
555.00	44006.75
555.17	44432.73
555.33	44542.74
555.50	44294.64
555.67	44605.93
555.83	44931.26
556.00	44767.43
556.16	44926.58
556.33	44809.56
556.50	44554.44
556.66	44729.98
556.83	44641.04
556.99	44917.22
557.16	45167.66
557.32	45022.54
557.49	44842.32
557.65	44847.00
557.82	44996.80
557.98	44739.34
558.15	45118.51
558.32	45399.37
558.48	45212.13
558.65	45188.72
558.81	45041.27
558.98	45212.13
559.14	45315.11
559.31	45401.71
559.47	45287.03
559.64	44872.75
559.80	45013.18
559.97	45301.07
560.13	45146.59
560.30	45902.59
560.46	45757.47
560.63	45509.38
560.79	46050.04
560.96	45471.93
561.12	46167.07
561.29	45588.95
561.45	45673.21
561.61	45808.96
561.78	45792.58
561.94	45340.86
562.11	45584.27
562.27	45778.54
562.44	45448.52
562.60	45839.39
562.77	45598.32
562.93	46005.57
563.10	46078.13
563.26	45509.38
563.42	46366.01
563.59	45860.46
563.75	45574.91
563.92	45626.40
564.08	45624.06
564.24	45954.08
564.41	45666.19
564.57	45830.03
564.74	46164.73
564.90	45661.51
565.07	45787.90
565.23	45951.74
565.39	45708.32
565.56	46028.98
565.72	46234.94
565.88	46347.29
566.05	46216.22
566.21	45876.84
566.38	46050.04
566.54	45975.14
566.70	46167.07
566.87	46237.28
567.03	45954.08
567.19	46398.78
567.36	46110.89
567.52	46216.22
567.68	46274.73
567.85	46412.82
568.01	46791.99
568.17	46452.61
568.34	46429.21
568.50	46754.54
568.66	45918.97
568.83	46637.51
568.99	46408.14
569.15	46501.76
569.32	46349.63
569.48	46791.99
569.64	46492.40
569.81	46749.86
569.97	46616.45
570.13	46862.21
570.30	46146.00
570.46	46483.04
570.62	46616.45
570.78	47084.56
570.95	46639.86
571.11	46710.07
571.27	46522.83
571.43	46822.42
571.60	46684.33
571.76	46473.68
571.92	46539.21
572.09	46775.61
572.25	46326.22
572.41	46239.62
572.57	46782.63
572.74	47014.34
572.90	46698.37
573.06	46843.48
573.22	46871.57
573.38	46747.52
573.55	46712.41
573.71	47400.53
573.87	47054.13
574.03	46906.68
574.20	46700.71
574.36	46859.87
574.52	47110.30
574.68	47044.77
574.84	47030.72
575.01	47114.98
575.17	47140.73
575.33	47234.35
575.49	46628.15
575.65	47079.88
575.82	47229.67
575.98	46848.16
576.14	47613.52
576.30	46885.61
576.46	46937.10
576.62	46941.78
576.79	46813.05
576.95	46658.58
577.11	46534.53
577.27	47246.05
577.43	47400.53
577.59	47327.97
577.75	46974.55
577.92	46426.87
578.08	46745.18
578.24	46866.89
578.40	47267.12
578.56	47409.89
578.72	47250.74
578.88	46841.14
579.04	46941.78
579.21	46784.97
579.37	47203.92
579.53	47089.24
579.69	46728.80
579.85	47070.51
580.01	46939.44
580.17	47173.50
580.33	47622.88
580.49	47320.95
580.65	47147.75
580.82	47093.92
580.98	46948.81
581.14	46946.47
581.30	47152.43
581.46	47082.22
581.62	47393.51
581.78	47271.80
581.94	47489.47
582.10	46876.25
582.26	47047.11
582.42	47040.09
582.58	47189.88
582.74	47349.04
582.90	47564.37
583.06	46967.53
583.22	47154.77
583.38	47625.22
583.54	47077.54
583.70	47290.52
583.86	47466.06
584.02	47267.12
584.18	47547.98
584.34	47332.65
584.50	47765.65
584.66	47604.16
584.82	47498.83
584.98	47634.58
585.14	47590.11
585.30	47353.72
585.46	47143.07
585.62	47243.71
585.78	47501.17
585.94	46939.44
586.10	47122.01
586.26	47110.30
586.42	47487.13
586.58	47491.81
586.74	47098.60
586.90	47569.05
587.06	47243.71
587.22	47526.92
587.38	47260.10
587.54	47505.85
587.70	47798.42
587.86	47569.05
588.02	47316.27
588.18	47442.66
588.34	47412.23
588.49	47452.02
588.65	47407.55
588.81	47468.40
588.97	47430.96
589.13	47150.09
589.29	47367.76
589.45	47786.72
589.61	47330.31
589.77	47772.67
589.93	47547.98
590.08	47828.85
590.24	47854.59
590.40	47878.00
590.56	47842.89
590.72	47859.27
590.88	47342.02
591.04	47648.63
591.20	47800.76
591.35	48196.31
591.51	48231.42
591.67	48095.67
591.83	47948.21
591.99	47896.72
592.15	47889.70
592.31	48023.11
592.46	47639.26
592.62	47817.14
592.78	48034.81
592.94	48119.07
593.10	47966.94
593.26	48076.94
593.41	48521.65
593.57	47880.34
593.73	48119.07
593.89	48116.73
594.05	47988.00
594.20	48016.09
594.36	48378.87
594.52	48027.79
594.68	48095.67
594.84	48079.28
594.99	48479.52
595.15	47973.96
595.31	47964.60
595.47	48034.81
595.62	48336.74
595.78	48011.41
595.94	48041.84
596.10	47878.00
596.25	48402.28
596.41	48083.97
596.57	47901.40
596.73	48142.48
596.88	48474.84
597.04	48390.58
597.20	48133.12
597.36	48046.52
597.51	48303.98
597.67	48098.01
597.83	48151.84
597.99	47990.34
598.14	48107.37
598.30	47980.98
598.46	48069.92
598.61	48491.22
598.77	48339.08
598.93	48367.17
599.09	48034.81
599.24	48683.14
599.40	48381.21
599.56	48587.18
599.71	48650.38
599.87	48472.49
600.03	48519.31
600.18	48247.80
600.34	48322.70
600.50	48296.95
600.65	48406.96
600.81	48432.71
600.97	48575.48
601.12	47952.90
601.28	48229.08
601.44	48172.91
601.59	47971.62
601.75	48554.41
601.91	48568.46
602.06	48273.55
602.22	48002.05
602.37	48205.67
602.53	48404.62
602.69	48404.62
602.84	48048.86
603.00	48308.66
603.16	48346.11
603.31	48626.97
603.47	48500.58
603.62	48266.53
603.78	48617.61
603.94	47943.53
604.09	48788.47
604.25	48519.31
604.40	48165.88
604.56	48105.03
604.71	48580.16
604.87	48474.84
605.03	48362.49
605.18	48184.61
605.34	48067.58
605.49	48119.07
605.65	48128.44
605.80	48158.86
605.96	48175.25
606.12	48215.04
606.27	48451.43
606.43	47695.44
606.58	48437.39
606.74	47929.49
606.89	47880.34
607.05	48257.17
607.20	48549.73
607.36	48240.78
607.51	48011.41
607.67	48107.37
607.82	47950.56
607.98	48193.97
608.13	48322.70
608.29	48177.59
608.44	48093.33
608.60	47838.21
608.75	48095.67
608.91	47629.90
609.06	48208.01
609.22	48170.57
609.37	47826.51
609.53	48044.18
609.68	48154.18
609.84	48296.95
609.99	48278.23
610.15	48002.05
610.30	48231.42
610.46	48236.10
610.61	48165.88
610.76	47992.68
610.92	47543.30
611.07	47533.94
611.23	47555.00
611.38	47992.68
611.54	47672.03
611.69	48116.73
611.84	48023.11
612.00	47814.80
612.15	47852.25
612.31	48090.99
612.46	47667.35
612.62	47805.44
612.77	47503.51
612.92	48140.14
613.08	47695.44
613.23	47648.63
613.39	47988.00
613.54	47622.88
613.69	48067.58
613.85	47267.12
614.00	47709.48
614.15	48002.05
614.31	47903.74
614.46	47503.51
614.62	47077.54
614.77	47604.16
614.92	47327.97
615.08	47437.98
615.23	47463.72
615.38	47742.25
615.54	47789.06
615.69	47363.08
615.84	47583.09
616.00	47421.59
616.15	47480.11
616.30	47634.58
616.46	47519.90
616.61	47236.69
616.76	47363.08
616.92	47487.13
617.07	47110.30
617.22	47283.50
617.37	47004.98
617.53	47508.19
617.68	47110.30
617.83	47243.71
617.99	47636.92
618.14	47515.22
618.29	47180.52
618.45	46909.02
618.60	47103.28
618.75	46883.27
618.90	46681.98
619.06	47077.54
619.21	47342.02
619.36	47407.55
619.51	47122.01
619.67	46958.17
619.82	47072.85
619.97	47229.67
620.12	47232.01
620.28	46878.59
620.43	47650.97
620.58	46609.43
620.73	46752.20
620.89	46791.99
621.04	46831.78
621.19	46485.38
621.34	47065.83
621.49	46412.82
621.65	46817.74
621.80	47143.07
621.95	47012.00
622.10	46646.88
622.25	46808.37
622.41	46564.96
622.56	46703.05
622.71	46951.15
622.86	46897.31
623.01	46436.23
623.16	46529.85
623.32	46164.73
623.47	46911.36
623.62	46717.09
623.77	46504.10
623.92	46309.84
624.07	46733.48
624.23	46752.20
624.38	46677.30
624.53	46440.91
624.68	46375.37
624.83	46080.47
624.98	46403.46
625.13	45996.21
625.29	46277.07
625.44	46155.36
625.59	45986.85
625.74	46206.86
625.89	45769.18
626.04	46300.48
626.19	46389.42
626.34	46162.39
626.49	45605.34
626.65	45731.73
626.80	46026.63
626.95	46241.96
627.10	46115.58
627.25	45848.75
627.40	46162.39
627.55	45769.18
627.70	45811.31
627.85	46155.36
628.00	46003.23
628.15	45801.94
628.30	45677.90
628.45	45251.92
628.60	45113.83
628.76	45429.80
628.91	45595.98
629.06	45595.98
629.21	45617.04
629.36	45294.05
629.51	45457.88
629.66	45860.46
629.81	45663.85
629.96	45544.48
630.11	44856.37
630.26	45429.80
630.41	45390.01
630.56	45469.59
630.71	45532.78
630.86	45244.90
631.01	45298.73
631.16	45010.84
631.31	45326.81
631.46	45628.74
631.61	45165.32
631.76	45146.59
631.91	45289.37
632.06	45303.41
632.21	45399.37
632.36	45783.22
632.51	44971.05
632.66	45289.37
632.81	45399.37
632.96	45172.34
633.10	45413.41
633.25	44673.81
633.40	44835.30
633.55	45219.15
633.70	45003.82
633.85	44959.35
634.00	44715.93
634.15	45181.70
634.30	45123.19
634.45	44275.91
634.60	44879.77
634.75	44531.03
634.90	44713.59
635.05	45029.57
635.19	44596.57
635.34	44910.20
635.49	44664.44
635.64	44889.13
635.79	44905.52
635.94	44612.95
636.09	44664.44
636.24	44622.31
636.39	44931.26
636.53	44706.57
636.68	44601.25
636.83	44046.54
636.98	44648.06
637.13	43859.30
637.28	44266.55
637.43	44142.50
637.57	44133.14
637.72	44196.34
637.87	44069.95
638.02	44425.71
638.17	44336.77
638.32	44135.48
638.46	43892.07
638.61	43828.87
638.76	43777.38
638.91	43885.04
639.06	44435.07
639.20	43430.98
639.35	43435.66
639.50	43255.44
639.65	43959.94
639.80	43831.21
639.94	44133.14
640.09	44252.51
640.24	43606.52
640.39	43569.07
640.54	43430.98
640.68	44109.74
640.83	44189.31
640.98	43393.53
641.13	43852.28
641.27	43578.43
641.42	44023.14
641.57	43863.98
641.72	43562.05
641.86	43143.09
642.01	43395.87
642.16	43896.75
642.31	43012.02
642.45	43416.94
642.60	43290.55
642.75	43150.12
642.90	43714.19
643.04	43342.04
643.19	43384.17
643.34	42934.79
643.48	42951.17
643.63	43119.69
643.78	43131.39
643.93	43667.37
644.07	43290.55
644.22	43349.06
644.37	43068.20
644.51	43377.15
644.66	43124.37
644.81	42979.26
644.95	42770.95
645.10	43227.35
645.25	42787.33
645.39	42742.86
645.54	42836.48
645.69	42857.55
645.83	42691.37
645.98	43206.29
646.13	42412.85
646.27	42644.56
646.42	42059.43
646.57	42899.68
646.71	43225.01
646.86	42780.31
647.00	42913.72
647.15	43065.86
647.30	42852.87
647.44	42431.57
647.59	42408.17
647.74	42227.95
647.88	42241.99
648.03	42815.42
648.17	42792.01
648.32	42873.93
648.47	43044.79
648.61	42164.75
648.76	42384.76
648.90	42396.46
649.05	42085.17
649.20	42066.45
649.34	42258.37
649.49	41975.17
649.63	42513.49
649.78	42855.21
649.92	42270.08
650.07	42586.05
650.21	42604.77
650.36	42536.90
650.51	42230.29
650.65	42501.79
650.80	42314.55
650.94	42670.31
651.09	41909.63
651.23	41879.21
651.38	41706.01
651.52	41776.22
651.67	41977.51
651.81	41982.19
651.96	42141.35
652.10	41640.47
652.25	41493.02
652.39	41879.21
652.54	42106.24
652.68	41579.62
652.83	41741.11
652.97	42277.10
653.12	41642.81
653.26	42033.68
653.41	41694.30
653.55	41635.79
653.70	41755.16
653.84	41734.09
653.99	41694.30
654.13	41593.66
654.27	41151.30
654.42	41706.01
654.56	41439.18
654.71	41811.33
654.85	41427.48
655.00	41471.95
655.14	41493.02
655.29	41668.56
655.43	41612.38
655.57	41523.44
655.72	41289.39
655.86	41144.28
656.01	41139.60
656.15	41331.52
656.30	41008.53
656.44	41514.08
656.58	41064.70
656.73	40879.80
656.87	41027.25
657.01	40842.35
657.16	40982.78
657.30	41265.99
657.45	40816.60
657.59	40725.32
657.73	40933.63
657.88	40905.54
658.02	41111.51
658.16	40975.76
658.31	40851.71
658.45	41104.49
658.60	40634.04
658.74	40828.30
658.88	40725.32
659.03	40945.33
659.17	40631.70
659.31	40545.10
659.46	40357.86
659.60	40257.21
659.74	40252.53
659.89	39969.33
660.03	39941.24
660.17	40135.51
660.32	40156.57
660.46	39878.05
660.60	39545.69
660.74	40084.01
660.89	40266.58
661.03	39695.49
661.17	39908.47
661.32	39791.45
661.46	39765.70
661.60	39950.60
661.74	39861.66
661.89	39917.84
662.03	39831.24
662.17	39459.09
662.31	39477.82
662.46	39772.72
662.60	39316.32
662.74	39105.67
662.88	39234.40
663.03	39056.52
663.17	38906.73
663.31	38717.14
663.45	38918.43
663.60	39115.03
663.74	38913.75
663.88	39152.48
664.02	38675.01
664.17	39299.94
664.31	38525.22
664.45	38724.16
664.59	38684.37
664.73	38653.95
664.88	38653.95
665.02	38003.28
665.16	38469.04
665.30	38644.59
665.44	38447.98
665.59	38345.00
665.73	37998.60
665.87	38014.98
666.01	37853.48
666.15	38171.80
666.29	38298.19
666.44	37769.22
666.58	38424.57
666.72	37771.57
666.86	37720.07
667.00	37565.60
667.14	37434.53
667.28	37563.26
667.43	37254.31
667.57	37312.82
667.71	37542.19
667.85	37633.47
667.99	37347.93
668.13	37055.36
668.27	37048.34
668.41	37015.57
668.56	36636.41
668.70	36802.58
668.84	36481.93
668.98	37003.87
669.12	36872.80
669.26	36659.81
669.40	36638.75
669.54	36760.45
669.68	36727.69
669.82	36542.78
669.96	36416.40
670.10	36191.70
670.25	36102.76
670.39	35906.16
670.53	36168.30
670.67	36336.82
670.81	36325.11
670.95	36053.61
671.09	35758.70
671.23	35702.53
671.37	35906.16
671.51	35407.62
671.65	35800.83
671.79	35496.56
671.93	35817.22
672.07	35672.10
672.21	35346.77
672.35	35302.30
672.49	35304.64
672.63	35250.81
672.77	34946.54
672.91	35119.74
673.05	35129.10
673.19	34625.89
673.33	35042.50
673.47	34787.38
673.61	34520.56
673.75	34663.33
673.89	34483.11
674.03	34387.15
674.17	34031.39
674.31	34469.07
674.45	33722.44
674.59	33874.57
674.73	33827.76
674.87	33745.84
675.01	33521.15
675.15	33486.04
675.29	33308.16
675.43	33560.94
675.56	33579.67
675.70	33539.88
675.84	33420.51
675.98	32217.47
676.12	33280.08
676.26	33322.21
676.40	33064.75
676.54	32863.46
676.68	32641.11
676.82	32367.27
676.96	32514.72
677.10	32788.56
677.23	32524.08
677.37	32362.59
677.51	32144.92
677.65	32362.59
677.79	32259.60
677.93	32074.70
678.07	31793.84
678.21	31976.40
678.34	31573.83
678.48	31447.44
678.62	31381.90
678.76	31201.68
678.90	31613.62
679.04	31632.34
679.18	31714.26
679.31	31110.40
679.45	31175.94
679.59	30696.13
679.73	30766.34
679.87	30471.43
680.00	30448.03
680.14	30501.86
680.28	30684.42
680.42	30361.43
680.56	30164.82
680.70	29881.62
680.83	29708.42
680.97	29865.24
681.11	29834.81
681.25	29883.96
681.39	29284.78
681.52	29369.04
681.66	29137.33
681.80	28673.90
681.94	28872.85
682.07	28863.49
682.21	28629.43
682.35	28968.81
682.49	28753.48
682.62	28573.26
682.76	28992.22
682.90	28423.47
683.04	28102.81
683.17	28552.20
683.31	28023.23
683.45	28219.84
683.59	27843.01
683.72	27833.65
683.86	28191.75
684.00	27751.73
684.13	27632.36
684.27	27414.69
684.41	27351.50
684.55	27597.26
684.68	27349.16
684.82	27309.37
684.96	27002.76
685.09	26808.50
685.23	26799.13
685.37	27253.20
685.50	26918.50
685.64	26649.34
685.78	26621.25
685.91	26661.04
686.05	26190.59
686.19	25673.34
686.32	26237.41
686.46	25909.73
686.60	25692.06
686.73	25928.45
686.87	25462.69
687.01	25855.90
687.14	25778.66
687.28	25556.31
687.42	25296.51
687.55	25350.34
687.69	24957.13
687.82	24947.77
687.96	24830.74
688.10	25142.03
688.23	25050.75
688.37	24886.92
688.50	24865.85
688.64	24570.94
688.78	24519.45
688.91	24435.19
689.05	24535.84
689.18	24079.43
689.32	23742.39
689.46	23632.39
689.59	23676.86
689.73	23646.43
689.86	24093.47
690.00	23522.38
690.13	23718.99
690.27	23374.93
690.41	23400.68
690.54	23161.94
690.68	23253.22
690.81	22960.66
690.95	23070.66
691.08	22782.77
691.22	22537.02
691.35	22724.26
691.49	22703.20
691.62	22927.89
691.76	22361.48
691.89	22115.72
692.03	21893.37
692.16	21759.96
692.30	22202.32
692.43	22195.30
692.57	21642.93
692.70	21476.76
692.84	21633.57
692.97	21336.32
693.11	21223.98
693.24	20980.56
693.38	21053.12
693.51	20943.11
693.65	20954.82
693.78	20592.03
693.92	20776.94
694.05	20510.11
694.19	20772.25
694.32	20568.63
694.45	20786.30
694.59	20535.86
694.72	20842.47
694.86	20393.09
694.99	19866.47
695.13	20056.05
695.26	19901.58
695.39	19733.06
695.53	19807.95
695.66	19709.65
695.80	19281.33
695.93	19555.18
696.07	19449.85
696.20	18967.70
696.33	19180.69
696.47	18958.34
696.60	19035.58
696.73	19227.50
696.87	18845.99
697.00	18984.09
697.14	18609.60
697.27	18658.75
697.40	18707.90
697.54	18649.39
697.67	18270.22
697.80	18546.40
697.94	18300.65
698.07	18230.43
698.21	18361.50
698.34	18211.71
698.47	17811.48
698.61	17781.05
698.74	17425.29
698.87	17619.55
699.01	17436.99
699.14	17385.50
699.27	17488.48
699.40	17472.10
699.54	17198.26
699.67	17329.33
699.80	17238.05
699.94	16982.93
700.07	17029.74
700.20	16620.14
700.34	16578.01
700.47	16695.04
700.60	16884.62
700.73	16456.31
700.87	16507.80
701.00	16245.66
701.13	16360.34
701.26	16219.91
701.40	16203.53
701.53	16060.76
701.66	16238.64
701.79	15976.50
701.93	15815.00
702.06	15566.90
702.19	15602.01
702.32	15571.58
702.46	15587.97
702.59	15597.33
702.72	15751.81
702.85	15627.76
702.99	15211.14
703.12	15445.20
703.25	15091.77
703.38	14960.70
703.51	14876.44
703.65	14857.72
703.78	14682.18
703.91	14523.02
704.04	14469.19
704.17	14331.10
704.31	14293.65
704.44	14731.33
704.57	14363.87
704.70	14429.40
704.83	14394.29
704.96	13923.85
705.10	13930.87
705.23	13809.16
>>>>>End Processed Spectral Data<<<<<
