SpectraSuite Data File
++++++++++++++++++++++++++++++++++++
Date: Fri Oct 25 10:47:37 EDT 2013
User: price-jones
Dark Spectrum Present: No
Reference Spectrum Present: No
Number of Sampled Component Spectra: 1
Spectrometers: USB2+H05261
Integration Time (usec): 100000 (USB2+H05261)
Spectra Averaged: 1 (USB2+H05261)
Boxcar Smoothing: 0 (USB2+H05261)
Correct for Electrical Dark: No (USB2+H05261)
Strobe/Lamp Enabled: No (USB2+H05261)
Correct for Detector Non-linearity: No (USB2+H05261)
Correct for Stray Light: No (USB2+H05261)
Number of Pixels in Processed Spectrum: 2048
>>>>>Begin Processed Spectral Data<<<<<
365.73	131.07
365.92	131.07
366.12	131.07
366.32	112.35
366.52	4.68
366.72	93.62
366.91	81.92
367.11	46.81
367.31	53.83
367.51	74.90
367.70	102.98
367.90	91.28
368.10	35.11
368.30	53.83
368.49	79.58
368.69	93.62
368.89	11.70
369.09	23.41
369.28	32.77
369.48	114.69
369.68	124.05
369.87	163.84
370.07	39.79
370.27	51.49
370.47	215.33
370.66	425.98
370.86	470.45
371.06	491.51
371.25	470.45
371.45	414.27
371.65	493.85
371.84	409.59
372.04	454.06
372.24	463.43
372.44	461.09
372.63	447.04
372.83	461.09
373.03	557.05
373.22	510.24
373.42	550.03
373.62	561.73
373.81	465.77
374.01	505.56
374.21	526.62
374.40	482.15
374.60	585.13
374.79	535.98
374.99	524.28
375.19	547.69
375.38	538.32
375.58	552.37
375.78	582.79
375.97	690.46
376.17	641.31
376.37	561.73
376.56	613.22
376.76	578.11
376.95	603.86
377.15	545.34
377.35	634.29
377.54	596.84
377.74	631.94
377.93	610.88
378.13	653.01
378.33	552.37
378.52	631.94
378.72	594.50
378.91	638.97
379.11	739.61
379.31	631.94
379.50	636.63
379.70	657.69
379.89	671.73
380.09	655.35
380.28	695.14
380.48	655.35
380.68	627.26
380.87	620.24
381.07	667.05
381.26	713.86
381.46	629.60
381.65	692.80
381.85	685.78
382.04	744.29
382.24	699.82
382.43	667.05
382.63	688.12
382.83	734.93
383.02	641.31
383.22	758.33
383.41	690.46
383.61	755.99
383.80	723.23
384.00	713.86
384.19	671.73
384.39	798.12
384.58	795.78
384.78	706.84
384.97	793.44
385.17	767.70
385.36	805.14
385.56	779.40
385.75	812.17
385.95	793.44
386.14	805.14
386.34	816.85
386.53	821.53
386.72	807.48
386.92	854.30
387.11	837.91
387.31	821.53
387.50	809.83
387.70	823.87
387.89	823.87
388.09	800.46
388.28	870.68
388.48	734.93
388.67	924.51
388.86	894.08
389.06	819.19
389.25	833.23
389.45	971.32
389.64	983.02
389.84	877.70
390.03	936.21
390.22	1043.88
390.42	849.61
390.61	842.59
390.81	999.41
391.00	926.85
391.19	917.49
391.39	924.51
391.58	961.96
391.78	1032.18
391.97	1064.94
392.16	1025.15
392.36	994.73
392.55	976.00
392.75	997.07
392.94	1029.84
393.13	1083.67
393.33	910.47
393.52	968.98
393.71	1060.26
393.91	1048.56
394.10	1118.78
394.29	1048.56
394.49	1095.37
394.68	1114.10
394.88	1149.20
395.07	1146.86
395.26	1132.82
395.46	1146.86
395.65	1121.12
395.84	1130.48
396.04	1261.55
396.23	1149.20
396.42	1102.39
396.62	1142.18
396.81	1149.20
397.00	1188.99
397.19	1263.89
397.39	1233.46
397.58	1282.61
397.77	1263.89
397.97	1284.95
398.16	1235.80
398.35	1299.00
398.55	1247.51
398.74	1359.85
398.93	1359.85
399.12	1369.21
399.32	1329.42
399.51	1394.96
399.70	1406.66
399.90	1329.42
400.09	1483.90
400.28	1397.30
400.47	1387.94
400.67	1490.92
400.86	1425.39
401.05	1521.35
401.24	1493.26
401.44	1467.52
401.63	1563.48
401.82	1563.48
402.01	1348.15
402.21	1661.78
402.40	1579.86
402.59	1495.60
402.78	1643.06
402.97	1507.30
403.17	1617.31
403.36	1570.50
403.55	1591.56
403.74	1689.87
403.93	1603.27
404.13	1584.54
404.32	1717.95
404.51	1743.70
404.70	1839.66
404.89	1652.42
405.09	1781.15
405.28	1769.44
405.47	1806.89
405.66	1837.32
405.85	1795.19
406.05	1774.13
406.24	1820.94
406.43	1944.99
406.62	1851.36
406.81	2026.90
407.00	1863.07
407.20	1863.07
407.39	1881.79
407.58	1984.77
407.77	1905.20
407.96	1966.05
408.15	2094.78
408.34	2052.65
408.54	1987.11
408.73	2059.67
408.92	2054.99
409.11	2073.71
409.30	2078.40
409.49	2148.61
409.68	2085.42
409.87	2155.63
410.07	2181.38
410.26	2139.25
410.45	2160.31
410.64	2118.18
410.83	2221.17
411.02	2188.40
411.21	2293.72
411.40	2363.94
411.59	2324.15
411.78	2305.43
411.98	2279.68
412.17	2370.96
412.36	2480.97
412.55	2469.27
412.74	2485.65
412.93	2452.88
413.12	2471.61
413.31	2586.29
413.50	2605.02
413.69	2504.37
413.88	2689.28
414.07	2647.15
414.26	2572.25
414.45	2649.49
414.64	2700.98
414.83	2607.36
415.02	2897.58
415.22	2818.00
415.41	2729.06
415.60	2810.98
415.79	2904.60
415.98	2909.29
416.17	2965.46
416.36	2857.79
416.55	2892.90
416.74	2935.03
416.93	3110.57
417.12	2979.50
417.31	2911.63
417.50	3021.63
417.69	3138.66
417.88	3108.23
418.07	3159.72
418.26	3232.28
418.45	3227.60
418.64	3269.73
418.83	3157.38
419.02	3148.02
419.21	3260.37
419.39	3375.05
419.58	3332.92
419.77	3082.49
419.96	3361.01
420.15	3349.31
420.34	3433.57
420.53	3255.69
420.72	3562.30
420.91	3417.18
421.10	3426.54
421.29	3428.88
421.48	3445.27
421.67	3581.02
421.86	3463.99
422.05	3281.43
422.24	3435.91
422.43	3468.67
422.61	3417.18
422.80	3510.80
422.99	3461.65
423.18	3606.77
423.37	3524.85
423.56	3452.29
423.75	3485.06
423.94	3468.67
424.13	3370.37
424.32	3433.57
424.50	3522.51
424.69	3691.02
424.88	3693.37
425.07	3588.04
425.26	3576.34
425.45	3562.30
425.64	3637.19
425.83	3419.52
426.01	3679.32
426.20	3705.07
426.39	3679.32
426.58	3700.39
426.77	3578.68
426.96	3737.84
427.15	3632.51
427.33	3754.22
427.52	3646.55
427.71	3913.38
427.90	3758.90
428.09	3866.56
428.28	3716.77
428.46	3859.54
428.65	3712.09
428.84	3875.93
429.03	3918.06
429.22	3684.00
429.40	3885.29
429.59	3857.20
429.78	3730.81
429.97	3714.43
430.16	3779.97
430.34	3922.74
430.53	3826.78
430.72	3939.12
430.91	3925.08
431.10	4086.58
431.28	4198.92
431.47	4170.83
431.66	4273.82
431.85	4145.09
432.03	4250.41
432.22	4381.48
432.41	4395.53
432.60	4355.74
432.79	4229.35
432.97	4367.44
433.16	4425.95
433.35	4198.92
433.54	4393.19
433.72	4337.01
433.91	4337.01
434.10	4393.19
434.28	4374.46
434.47	4369.78
434.66	4512.55
434.85	4765.33
435.03	4477.44
435.22	4524.26
435.41	4807.46
435.59	4641.28
435.78	4622.56
435.97	4706.82
436.16	4489.15
436.34	4550.00
436.53	4786.40
436.72	4753.63
436.90	4528.94
437.09	4765.33
437.28	4692.77
437.46	4723.20
437.65	4685.75
437.84	4980.66
438.02	4674.05
438.21	4901.08
438.40	4753.63
438.58	4917.47
438.77	4868.31
438.96	4915.12
439.14	5064.92
439.33	5078.96
439.52	5238.12
439.70	5217.05
439.89	5291.95
440.08	5280.25
440.26	5296.63
440.45	5224.08
440.63	5273.23
440.82	5345.78
441.01	5324.72
441.19	5551.75
441.38	5530.69
441.57	5687.50
441.75	5640.69
441.94	5579.84
442.12	5673.46
442.31	5673.46
442.50	5703.89
442.68	5650.05
442.87	5727.29
443.05	5816.23
443.24	5717.93
443.43	5818.57
443.61	5851.34
443.80	5961.34
443.98	5827.93
444.17	5654.73
444.35	5837.30
444.54	6106.46
444.73	6003.47
444.91	6047.94
445.10	5858.36
445.28	5870.06
445.47	5984.75
445.65	6022.20
445.84	5940.28
446.02	5956.66
446.21	6094.76
446.39	5909.85
446.58	6001.13
446.77	6015.18
446.95	5944.96
447.14	6129.86
447.32	6167.31
447.51	6047.94
447.69	6087.73
447.88	6141.57
448.06	6274.98
448.25	6108.80
448.43	6300.72
448.62	6328.81
448.80	6010.50
448.99	6101.78
449.17	6258.59
449.36	6092.41
449.54	6462.22
449.73	6551.16
449.91	6511.37
450.10	6282.00
450.28	6539.46
450.46	6403.71
450.65	6567.54
450.83	6424.77
451.02	6506.69
451.20	6525.41
451.39	6516.05
451.57	6546.48
451.76	6387.32
451.94	6593.29
452.13	6502.01
452.31	6590.95
452.49	6504.35
452.68	6635.42
452.86	6560.52
453.05	6684.57
453.23	6766.49
453.42	6586.27
453.60	6525.41
453.78	6806.28
453.97	6590.95
454.15	6679.89
454.34	6738.40
454.52	6927.99
454.70	6703.29
454.89	6827.34
455.07	6703.29
455.26	6932.67
455.44	7173.74
455.62	7007.56
455.81	6874.15
455.99	7045.01
456.17	7131.61
456.36	7136.29
456.54	7030.97
456.73	7279.07
456.91	7433.54
457.09	7283.75
457.28	7461.63
457.46	7456.95
457.64	7513.12
457.83	7452.27
458.01	7190.13
458.19	7578.65
458.38	7375.03
458.56	7616.10
458.74	7756.54
458.93	7431.20
459.11	7541.21
459.29	7632.49
459.48	7662.91
459.66	7496.74
459.84	7707.38
460.03	7875.90
460.21	7805.69
460.39	7906.33
460.57	7698.02
460.76	7665.25
460.94	7868.88
461.12	7892.29
461.31	7985.91
461.49	8002.29
461.67	7850.16
461.85	8093.57
462.04	7901.65
462.22	8521.89
462.40	7927.39
462.59	7941.44
462.77	7903.99
462.95	7939.10
463.13	8177.83
463.32	8285.50
463.50	8140.38
463.68	8299.54
463.86	8175.49
464.05	8060.80
464.23	8170.81
464.41	8423.59
464.59	8168.47
464.78	8360.39
464.96	8379.12
465.14	8311.24
465.32	8341.67
465.50	8292.52
465.69	8657.64
465.87	8383.80
466.05	8535.93
466.23	8564.02
466.41	8498.49
466.60	8676.37
466.78	8414.23
466.96	8718.50
467.14	8638.92
467.32	8470.40
467.51	8706.79
467.69	8566.36
467.87	8690.41
468.05	8631.90
468.23	8648.28
468.41	8641.26
468.60	8695.09
468.78	8947.87
468.96	8676.37
469.14	8931.48
469.32	8997.02
469.50	9029.79
469.69	8919.78
469.87	9116.39
470.05	9036.81
470.23	9046.17
470.41	9083.62
470.59	9116.39
470.77	9114.05
470.95	9212.35
471.14	9235.75
471.32	9118.73
471.50	9305.97
471.68	9423.00
471.86	9528.32
472.04	9589.17
472.22	9720.24
472.40	9502.58
472.58	9378.53
472.77	9465.13
472.95	9771.74
473.13	10057.28
473.31	9825.57
473.49	9654.71
473.67	9682.80
473.85	9841.95
474.03	10099.41
474.21	9905.15
474.39	9975.36
474.57	10310.06
474.75	10076.01
474.93	10162.61
475.12	10225.80
475.30	10319.42
475.48	10160.27
475.66	10303.04
475.84	10499.64
476.02	10520.71
476.20	10429.43
476.38	10611.99
476.56	10965.41
476.74	10668.16
476.92	10871.79
477.10	11075.42
477.28	11091.80
477.46	10958.39
477.64	11204.14
477.82	11316.49
478.00	11683.95
478.18	11501.39
478.36	11377.34
478.54	12063.12
478.72	11595.01
478.90	11770.55
479.08	12016.31
479.26	11974.18
479.44	12189.51
479.62	11988.22
479.80	12191.85
479.98	12547.61
480.16	12521.87
480.34	12531.23
480.52	12753.58
480.70	12737.20
480.88	12226.96
481.06	12760.60
481.24	12933.80
481.41	13013.38
481.59	13172.54
481.77	13537.66
481.95	13392.55
482.13	13429.99
482.31	13488.51
482.49	13479.15
482.67	13661.71
482.85	13521.27
483.03	13858.31
483.21	14122.79
483.39	14118.11
483.57	14258.54
483.74	14150.88
483.92	14422.38
484.10	14455.15
484.28	14644.73
484.46	14761.76
484.64	15110.50
484.82	14778.14
485.00	15007.52
485.18	14923.26
485.35	15253.27
485.53	15323.49
485.71	14897.51
485.89	15590.31
486.07	15220.50
486.25	15279.02
486.43	15599.67
486.61	15829.04
486.78	16262.04
486.96	16081.82
487.14	16315.87
487.32	16496.10
487.50	16819.09
487.68	16877.60
487.85	17048.46
488.03	16973.56
488.21	17336.35
488.39	17355.07
488.57	17296.56
488.75	17675.73
488.92	17635.94
489.10	17832.54
489.28	17905.10
489.46	18253.84
489.64	18167.24
489.81	18637.69
489.99	18487.89
490.17	18684.50
490.35	18939.62
490.53	18789.82
490.70	18960.68
490.88	18764.07
491.06	19171.33
491.24	19171.33
491.41	19185.37
491.59	19389.00
491.77	19484.96
491.95	19681.56
492.13	19992.86
492.30	20182.44
492.48	19983.49
492.66	20304.15
492.84	19974.13
493.01	20348.62
493.19	20615.44
493.37	20971.20
493.54	20821.41
493.72	20917.37
493.90	21053.12
494.08	21348.03
494.25	21226.32
494.43	21355.05
494.61	21764.64
494.79	21614.85
494.96	21439.31
495.14	21600.80
495.32	22162.53
495.49	22228.07
495.67	22242.11
495.85	22675.11
496.02	22190.62
496.20	22824.90
496.38	22838.95
496.55	22771.07
496.73	23297.69
496.91	23021.51
497.09	23248.54
497.26	23435.78
497.44	23559.83
497.62	23487.28
497.79	23599.62
497.97	23805.59
498.14	23946.02
498.32	23754.10
498.50	23885.17
498.67	24130.92
498.85	23936.66
499.03	24308.80
499.20	24208.16
499.38	24355.61
499.56	24797.98
499.73	24727.76
499.91	24608.39
500.08	24744.14
500.26	24744.14
500.44	24950.11
500.61	25104.59
500.79	25111.61
500.97	24872.87
501.14	25343.32
501.32	25827.81
501.49	25523.54
501.67	25614.82
501.84	25825.47
502.02	25818.45
502.20	25912.07
502.37	26146.12
502.55	26190.59
502.72	25970.58
502.90	25872.28
503.07	25804.41
503.25	26380.18
503.43	26218.68
503.60	26422.31
503.78	26441.03
503.95	26586.15
504.13	26796.79
504.30	26628.27
504.48	26555.72
504.65	27145.53
504.83	27475.55
505.01	27211.07
505.18	26991.06
505.36	27728.33
505.53	27410.01
505.71	27438.10
505.88	27618.32
506.06	27737.69
506.23	27510.66
506.41	27936.63
506.58	27845.35
506.76	28065.36
506.93	27922.59
507.11	27999.83
507.28	28542.83
507.46	28018.55
507.63	28156.64
507.81	28161.33
507.98	28077.07
508.16	28573.26
508.33	28591.98
508.50	28540.49
508.68	28573.26
508.85	29013.28
509.03	28835.40
509.20	29191.16
509.38	29373.72
509.55	29380.74
509.73	29605.44
509.90	29743.53
510.08	29186.48
510.25	29462.66
510.42	29872.26
510.60	29876.94
510.77	30127.38
510.95	30295.89
511.12	29813.74
511.30	30033.75
511.47	30314.62
511.64	30043.12
511.82	30607.19
511.99	30169.51
512.17	30094.61
512.34	30361.43
512.51	30831.88
512.69	30586.12
512.86	31103.38
513.04	30691.44
513.21	30644.63
513.38	30464.41
513.56	30972.31
513.73	30944.22
513.90	31442.76
514.08	31292.96
514.25	31356.16
514.43	31374.88
514.60	31587.87
514.77	31372.54
514.95	31814.90
515.12	31445.10
515.29	31611.28
515.47	31922.57
515.64	32187.05
515.81	31962.36
515.99	32039.59
516.16	32055.98
516.33	31828.95
516.51	32091.09
516.68	31592.55
516.85	31578.51
517.03	31749.37
517.20	32257.26
517.37	32264.28
517.54	32650.47
517.72	32496.00
517.89	32271.31
518.06	32388.33
518.24	32353.23
518.41	32395.35
518.58	32863.46
518.75	32552.17
518.93	33062.41
519.10	32954.74
519.27	33223.90
519.45	33603.07
519.62	33102.20
519.79	33603.07
519.96	33207.52
520.14	33731.80
520.31	33392.42
520.48	33469.66
520.65	34012.66
520.83	33902.66
521.00	34174.16
521.17	33860.53
521.34	33993.94
521.52	34209.27
521.69	34668.02
521.86	34213.95
522.03	34354.38
522.20	34712.49
522.38	34806.11
522.55	34450.35
522.72	35082.29
522.89	34312.25
523.07	34541.63
523.24	34558.01
523.41	35098.67
523.58	34864.62
523.75	35023.78
523.92	35093.99
524.10	35400.60
524.27	35236.77
524.44	35641.68
524.61	35206.34
524.78	35590.19
524.96	35629.98
525.13	35367.84
525.30	35674.45
525.47	35978.72
525.64	35585.50
525.81	35896.80
525.98	35302.30
526.16	35683.81
526.33	35718.92
526.50	35782.11
526.67	35653.38
526.84	35747.00
527.01	35538.69
527.18	35573.80
527.36	36170.64
527.53	36163.62
527.70	36641.09
527.87	36481.93
528.04	36444.48
528.21	36421.08
528.38	36357.88
528.55	36495.97
528.72	36849.39
528.89	36727.69
529.07	36882.16
529.24	36758.11
529.41	36584.91
529.58	36638.75
529.75	36870.46
529.92	36861.10
530.09	36840.03
530.26	37563.26
530.43	37240.26
530.60	36629.38
530.77	36634.06
530.94	37691.99
531.11	37359.63
531.28	37471.98
531.46	37469.64
531.63	37776.25
531.80	37352.61
531.97	37832.42
532.14	37490.70
532.31	37422.83
532.48	37876.89
532.65	37865.19
532.82	37947.11
532.99	38022.00
533.16	37717.73
533.33	37919.02
533.50	38422.23
533.67	38092.22
533.84	38155.41
534.01	38242.01
534.18	38225.63
534.35	38452.66
534.52	38368.40
534.69	38550.96
534.86	38623.52
535.03	38373.08
535.20	38408.19
535.37	38866.94
535.54	38639.90
535.71	38370.74
535.88	38665.65
536.05	38782.68
536.22	38918.43
536.38	38944.17
536.55	38876.30
536.72	38857.57
536.89	38801.40
537.06	38976.94
537.23	39000.35
537.40	38684.37
537.57	39161.84
537.74	39356.11
537.91	39648.68
538.08	38972.26
538.25	39208.65
538.42	39243.76
538.59	39421.64
538.75	39267.17
538.92	39423.98
539.09	39728.25
539.26	39721.23
539.43	39426.32
539.60	39880.39
539.77	39330.36
539.94	39566.76
540.11	39398.24
540.28	39325.68
540.44	39391.22
540.61	39892.09
540.78	39370.15
540.95	39786.77
541.12	39838.26
541.29	40093.38
541.46	39915.50
541.62	39709.53
541.79	40449.14
541.96	39786.77
542.13	40287.64
542.30	40669.15
542.47	40416.37
542.63	40130.83
542.80	40509.99
542.97	40973.42
543.14	40912.56
543.31	40957.03
543.48	40905.54
543.64	41406.42
543.81	41027.25
543.98	40905.54
544.15	40800.22
544.32	40774.47
544.48	41120.87
544.65	41127.89
544.82	41223.86
544.99	41249.60
545.16	41001.50
545.32	40942.99
545.49	41359.61
545.66	41308.11
545.83	41352.58
546.00	41415.78
546.16	42078.15
546.33	41123.21
546.50	40828.30
546.67	41422.80
546.83	41092.79
547.00	41907.29
547.17	41483.66
547.34	41464.93
547.50	41846.44
547.67	41549.19
547.84	41600.68
548.00	41968.15
548.17	42050.06
548.34	41783.24
548.51	41916.65
548.67	42337.95
548.84	42017.30
549.01	41958.78
549.18	41776.22
549.34	41834.74
549.51	42202.20
549.68	42307.52
549.84	41998.57
550.01	42143.69
550.18	42256.03
550.34	42171.77
550.51	42319.23
550.68	42124.96
550.84	41806.65
551.01	42656.26
551.18	42370.72
551.34	42227.95
551.51	42375.40
551.68	42326.25
551.84	43173.52
552.01	42539.24
552.18	42436.25
552.34	42134.32
552.51	42370.72
552.68	42820.10
552.84	42726.48
553.01	43082.24
553.18	42906.70
553.34	42576.69
553.51	42710.10
553.67	42817.76
553.84	42953.51
554.01	43133.73
554.17	43175.86
554.34	43061.18
554.51	42995.64
554.67	42890.32
554.84	42796.70
555.00	43068.20
555.17	43084.58
555.33	43332.68
555.50	43187.56
555.67	43161.82
555.83	43440.34
556.00	43351.40
556.16	43697.80
556.33	43854.62
556.50	43107.99
556.66	43082.24
556.83	43122.03
556.99	43531.62
557.16	43213.31
557.32	43578.43
557.49	43388.85
557.65	43248.42
557.82	43505.88
557.98	43299.91
558.15	43189.91
558.32	43550.35
558.48	43636.95
558.65	43517.58
558.81	43473.11
558.98	43400.55
559.14	43665.03
559.31	43304.59
559.47	43395.87
559.64	43964.62
559.80	44224.42
559.97	43854.62
560.13	43629.93
560.30	43749.29
560.46	44039.52
560.63	43732.91
560.79	43761.00
560.96	43784.40
561.12	44105.06
561.29	44196.34
561.45	43746.95
561.61	43768.02
561.78	44151.87
561.94	43648.65
562.11	43461.41
562.27	43770.36
562.44	43952.92
562.60	44336.77
562.77	44086.33
562.93	44208.04
563.10	44034.84
563.26	43487.15
563.42	44140.16
563.59	43978.67
563.75	44074.63
563.92	44201.02
564.08	44442.09
564.24	44626.99
564.41	44439.75
564.57	43805.47
564.74	44350.81
564.90	44168.25
565.07	43964.62
565.23	43899.09
565.39	44116.76
565.56	44638.70
565.72	43739.93
565.88	43852.28
566.05	43875.68
566.21	44278.25
566.38	44009.09
566.54	44477.20
566.70	44268.89
566.87	44652.74
567.03	44205.70
567.19	44762.75
567.36	44479.54
567.52	44381.24
567.68	44493.58
567.85	44135.48
568.01	44758.06
568.17	44205.70
568.34	44498.26
568.50	44690.19
568.66	43917.81
568.83	44617.63
568.99	44575.50
569.15	44184.63
569.32	44252.51
569.48	44362.51
569.64	44254.85
569.81	44669.12
569.97	44760.40
570.13	44273.57
570.30	44655.08
570.46	43805.47
570.62	43810.15
570.78	44004.41
570.95	44423.37
571.11	44687.85
571.27	44072.29
571.43	44383.58
571.60	44591.89
571.76	44622.31
571.92	44463.16
572.09	44350.81
572.25	44414.01
572.41	44161.23
572.57	44879.77
572.74	45579.59
572.90	44580.18
573.06	44266.55
573.22	44795.51
573.38	44811.90
573.55	44196.34
573.71	44844.66
573.87	44479.54
574.03	44233.78
574.20	44746.36
574.36	44631.68
574.52	44849.35
574.68	44634.02
574.84	44737.00
575.01	44940.63
575.17	44800.19
575.33	44886.79
575.49	44971.05
575.65	44748.70
575.82	44940.63
575.98	44718.28
576.14	44882.11
576.30	45071.70
576.46	45078.72
576.62	44622.31
576.79	44467.84
576.95	44034.84
577.11	44825.94
577.27	44954.67
577.43	44404.64
577.59	44933.60
577.75	44327.41
577.92	44652.74
578.08	44554.44
578.24	44488.90
578.40	44713.59
578.56	44514.65
578.72	44814.24
578.88	44477.20
579.04	45052.97
579.21	44725.30
579.37	44643.38
579.53	44898.50
579.69	44477.20
579.85	44797.85
580.01	44652.74
580.17	44610.61
580.33	44697.21
580.49	45022.54
580.65	45017.86
580.82	45013.18
580.98	44886.79
581.14	44414.01
581.30	44898.50
581.46	44516.99
581.62	45001.48
581.78	45247.24
581.94	45375.97
582.10	44938.29
582.26	44825.94
582.42	44739.34
582.58	44687.85
582.74	44477.20
582.90	45003.82
583.06	44807.22
583.22	44795.51
583.38	45057.65
583.54	45010.84
583.70	44502.95
583.86	44954.67
584.02	44884.45
584.18	44847.00
584.34	45013.18
584.50	44814.24
584.66	45031.91
584.82	44645.72
584.98	45085.74
585.14	44907.86
585.30	45097.44
585.46	44851.69
585.62	45006.16
585.78	44722.96
585.94	44540.39
586.10	44975.73
586.26	45256.60
586.42	44774.45
586.58	45567.89
586.74	44821.26
586.90	44905.52
587.06	45074.04
587.22	45099.78
587.38	44680.83
587.54	45151.27
587.70	45326.81
587.86	45443.84
588.02	44893.82
588.18	45116.17
588.34	45055.31
588.49	44669.12
588.65	44568.48
588.81	45015.52
588.97	45022.54
589.13	44601.25
589.29	44940.63
589.45	45116.17
589.61	44786.15
589.77	44797.85
589.93	45095.10
590.08	44879.77
590.24	45179.36
590.40	45296.39
590.56	45546.82
590.72	45471.93
590.88	45097.44
591.04	45368.94
591.20	45497.67
591.35	45045.95
591.51	45713.00
591.67	45289.37
591.83	45177.02
591.99	44926.58
592.15	45202.77
592.31	45069.36
592.46	44928.92
592.62	45256.60
592.78	44992.12
592.94	45450.86
593.10	44992.12
593.26	45324.47
593.41	45067.02
593.57	44814.24
593.73	45256.60
593.89	45193.40
594.05	45476.61
594.20	45530.44
594.36	45457.88
594.52	44889.13
594.68	45104.46
594.84	45116.17
594.99	45441.50
595.15	45050.63
595.31	45064.67
595.47	45172.34
595.62	45134.89
595.78	45223.83
595.94	45008.50
596.10	45296.39
596.25	45628.74
596.41	45443.84
596.57	44973.39
596.73	45640.45
596.88	45052.97
597.04	45177.02
597.20	45258.94
597.36	45408.73
597.51	45808.96
597.67	45326.81
597.83	45411.07
597.99	45598.32
598.14	45296.39
598.30	45684.92
598.46	45624.06
598.61	45469.59
598.77	45287.03
598.93	45317.45
599.09	45099.78
599.24	46085.15
599.40	45474.27
599.56	45607.68
599.71	45490.65
599.87	45191.06
600.03	45170.00
600.18	45151.27
600.34	45378.31
600.50	45521.08
600.65	45177.02
600.81	45617.04
600.97	45638.11
601.12	45776.20
601.28	45565.55
601.44	45242.56
601.59	45483.63
601.75	45340.86
601.91	45572.57
602.06	45462.57
602.22	45261.28
602.37	45254.26
602.53	45394.69
602.69	45654.49
602.84	45160.64
603.00	45202.77
603.16	45067.02
603.31	45296.39
603.47	45146.59
603.62	44643.38
603.78	45682.58
603.94	45701.30
604.09	45682.58
604.25	45394.69
604.40	45478.95
604.56	45425.12
604.71	45228.51
604.87	45212.13
605.03	45179.36
605.18	44961.69
605.34	45055.31
605.49	45001.48
605.65	45382.99
605.80	45361.92
605.96	45404.05
606.12	45490.65
606.27	45460.23
606.43	45301.07
606.58	45404.05
606.74	44783.81
606.89	44982.76
607.05	44720.62
607.20	45254.26
607.36	45027.23
607.51	45350.22
607.67	45375.97
607.82	45329.16
607.98	44671.46
608.13	44893.82
608.29	44912.54
608.44	44545.08
608.60	44655.08
608.75	44814.24
608.91	44444.43
609.06	44847.00
609.22	45478.95
609.37	44947.65
609.53	44905.52
609.68	44945.31
609.84	44802.53
609.99	44849.35
610.15	44957.01
610.30	44802.53
610.46	44439.75
610.61	44807.22
610.76	45165.32
610.92	44741.68
611.07	44610.61
611.23	44264.21
611.38	44767.43
611.54	44334.43
611.69	44264.21
611.84	44273.57
612.00	44725.30
612.15	44964.03
612.31	44652.74
612.46	44762.75
612.62	44746.36
612.77	44704.23
612.92	44828.28
613.08	44568.48
613.23	44708.91
613.39	44315.70
613.54	43936.54
613.69	44364.85
613.85	44463.16
614.00	44634.02
614.15	44884.45
614.31	44491.24
614.46	44692.53
614.62	44765.09
614.77	44133.14
614.92	44020.80
615.08	44432.73
615.23	43966.96
615.38	44282.94
615.54	44287.62
615.69	44128.46
615.84	43812.49
616.00	43693.12
616.15	43955.26
616.30	44266.55
616.46	44179.95
616.61	43948.24
616.76	43814.83
616.92	43648.65
617.07	43562.05
617.22	43878.02
617.37	44020.80
617.53	43842.92
617.68	44058.24
617.83	44058.24
617.99	44114.42
618.14	43604.18
618.29	44163.57
618.45	43562.05
618.60	43725.89
618.75	43761.00
618.90	44156.55
619.06	43959.94
619.21	43777.38
619.36	43634.61
619.51	43161.82
619.67	43807.81
619.82	43885.04
619.97	43686.10
620.12	43470.77
620.28	43150.12
620.43	43658.01
620.58	43311.61
620.73	43346.72
620.89	43807.81
621.04	43515.24
621.19	43122.03
621.34	43531.62
621.49	43248.42
621.65	43028.41
621.80	43416.94
621.95	42958.19
622.10	43049.47
622.25	43222.67
622.41	43143.09
622.56	42859.89
622.71	43686.10
622.86	43320.98
623.01	43159.48
623.16	43346.72
623.32	43014.37
623.47	43292.89
623.62	42653.92
623.77	43033.09
623.92	42700.73
624.07	42513.49
624.23	43131.39
624.38	42635.20
624.53	42873.93
624.68	43005.00
624.83	43030.75
624.98	43079.90
625.13	42693.71
625.29	42625.84
625.44	42775.63
625.59	42600.09
625.74	42749.88
625.89	42291.14
626.04	42459.66
626.19	42263.05
626.34	42464.34
626.49	42717.12
626.65	42492.43
626.80	42637.54
626.95	42260.71
627.10	42216.24
627.25	41926.02
627.40	41729.41
627.55	41968.15
627.70	41617.07
627.85	41729.41
628.00	41677.92
628.15	42106.24
628.30	42124.96
628.45	42595.41
628.60	42195.18
628.76	42300.50
628.91	41830.05
629.06	42146.03
629.21	42129.64
629.36	41907.29
629.51	41830.05
629.66	41715.37
629.81	41610.04
629.96	41661.54
630.11	41724.73
630.26	41577.28
630.41	42073.47
630.56	42043.04
630.71	41991.55
630.86	41769.20
631.01	41675.58
631.16	41858.14
631.31	41392.37
631.46	40720.64
631.61	41469.61
631.76	41605.36
631.91	41467.27
632.06	41682.60
632.21	41284.71
632.36	41523.44
632.51	41340.88
632.66	41799.63
632.81	40903.20
632.96	40985.12
633.10	40896.18
633.25	41083.42
633.40	41645.15
633.55	41336.20
633.70	41289.39
633.85	40959.38
634.00	41207.47
634.15	40985.12
634.30	41333.86
634.45	40872.78
634.60	41067.04
634.75	40786.18
634.90	41024.91
635.05	41071.72
635.19	40931.29
635.34	41179.39
635.49	41216.83
635.64	40407.01
635.79	40718.30
635.94	41034.27
636.09	40818.94
636.24	40177.64
636.39	40519.35
636.53	40275.94
636.68	40575.53
636.83	40596.59
636.98	40554.46
637.13	40084.01
637.28	40641.06
637.43	40577.87
637.57	40921.93
637.72	40631.70
637.87	40456.16
638.02	40292.32
638.17	40250.19
638.32	40610.64
638.46	40596.59
638.61	40580.21
638.76	39882.73
638.91	40259.55
639.06	40306.37
639.20	40554.46
639.35	40301.68
639.50	40093.38
639.65	40280.62
639.80	40201.04
639.94	40219.77
640.09	39814.85
640.24	39810.17
640.39	39948.26
640.54	39269.51
640.68	40215.08
640.83	39735.27
640.98	39667.40
641.13	39798.47
641.27	39950.60
641.42	39945.92
641.57	40053.59
641.72	40140.19
641.86	39461.43
642.01	39625.27
642.16	39606.55
642.31	39356.11
642.45	39866.34
642.60	39480.16
642.75	39629.95
642.90	39606.55
643.04	39676.76
643.19	39604.20
643.34	39452.07
643.48	39395.90
643.63	39913.16
643.78	39468.45
643.93	39154.82
644.07	39122.05
644.22	39431.01
644.37	39026.09
644.51	39463.77
644.66	39058.86
644.81	39667.40
644.95	39423.98
645.10	39276.53
645.25	39288.23
645.39	39475.48
645.54	39260.15
645.69	39082.27
645.83	39276.53
645.98	38848.21
646.13	38859.91
646.27	39201.63
646.42	38934.81
646.57	39150.14
646.71	39267.17
646.86	38969.92
647.00	39093.97
647.15	39005.03
647.30	39208.65
647.44	39412.28
647.59	39257.81
647.74	38909.07
647.88	38382.45
648.03	38703.10
648.17	38787.36
648.32	38548.62
648.47	38525.22
648.61	38576.71
648.76	38511.17
648.90	38497.13
649.05	38986.30
649.20	38356.70
649.34	38349.68
649.49	38323.93
649.63	38274.78
649.78	38679.69
649.92	38094.56
650.07	39077.58
650.21	38405.85
650.36	38588.41
650.51	38607.14
650.65	38569.69
650.80	38611.82
650.94	38859.91
651.09	38686.71
651.23	38115.62
651.38	38148.39
651.52	38258.40
651.67	38352.02
651.81	38115.62
651.96	37699.01
652.10	37930.72
652.25	37886.25
652.39	37867.53
652.54	38068.81
652.68	38438.62
652.83	38071.15
652.97	37928.38
653.12	38122.65
653.26	37617.09
653.41	37661.56
653.55	37890.93
653.70	37916.68
653.84	37668.58
653.99	38005.62
654.13	37689.65
654.27	37673.26
654.42	37724.75
654.56	37724.75
654.71	37729.44
654.85	37404.10
655.00	37280.05
655.14	37242.60
655.29	36940.68
655.43	37364.31
655.57	37062.38
655.72	36975.78
655.86	37315.16
656.01	37258.99
656.15	36900.89
656.30	37076.43
656.44	37015.57
656.58	37273.03
656.73	36811.95
656.87	37031.96
657.01	37099.83
657.16	37338.57
657.30	36634.06
657.45	36627.04
657.59	36961.74
657.73	36697.26
657.88	37209.84
658.02	36470.23
658.16	36793.22
658.31	37125.58
658.45	37069.40
658.60	36708.96
658.74	36708.96
658.88	36636.41
659.03	36982.80
659.17	36643.43
659.31	36456.18
659.46	36339.16
659.60	36620.02
659.74	36598.96
659.89	36287.67
660.03	36320.43
660.17	36699.60
660.32	36175.32
660.46	36477.25
660.60	36388.31
660.74	36224.47
660.89	35948.29
661.03	35922.54
661.17	35505.93
661.32	35819.56
661.46	35686.15
661.60	35672.10
661.74	35962.33
661.89	35924.88
662.03	35723.60
662.17	35700.19
662.31	35615.93
662.46	35707.21
662.60	35906.16
662.74	35534.01
662.88	35452.09
663.03	35115.06
663.17	35391.24
663.31	35131.44
663.45	35695.51
663.60	35302.30
663.74	35328.05
663.88	34897.39
664.02	34773.34
664.17	35201.66
664.31	34836.53
664.45	34934.84
664.59	34855.26
664.73	34834.19
664.88	35007.39
665.02	34525.24
665.16	34873.98
665.30	34679.72
665.44	34794.40
665.59	33963.51
665.73	34295.87
665.87	34436.30
666.01	34405.88
666.15	33970.54
666.29	34347.36
666.44	34579.07
666.58	34015.01
666.72	34087.56
666.86	34000.96
667.00	34190.55
667.14	34192.89
667.28	33851.17
667.43	33785.63
667.57	33762.23
667.71	33802.02
667.85	33951.81
667.99	33202.84
668.13	33333.91
668.27	33486.04
668.41	33631.16
668.56	33677.97
668.70	33092.83
668.84	33113.90
668.98	33434.55
669.12	33317.53
669.26	33930.75
669.40	33223.90
669.54	32954.74
669.68	33504.77
669.82	33039.00
669.96	32975.81
670.10	32781.54
670.25	33120.92
670.39	32779.20
670.53	32760.48
670.67	33226.24
670.81	32814.31
670.95	32638.77
671.09	32559.19
671.23	33041.34
671.37	32568.55
671.51	32566.21
671.65	32311.10
671.79	32105.13
671.93	32250.24
672.07	32226.84
672.21	32011.51
672.35	31789.16
672.49	32098.11
672.63	32273.65
672.77	31814.90
672.91	31840.65
673.05	31913.20
673.19	31515.31
673.33	31606.59
673.47	31379.56
673.61	31587.87
673.75	31367.86
673.89	30995.71
674.03	30843.58
674.17	30918.48
674.31	31077.63
674.45	31056.57
674.59	30960.61
674.73	30785.07
674.87	30773.36
675.01	30815.49
675.15	30808.47
675.29	31206.36
675.43	30539.31
675.56	30672.72
675.70	30504.20
675.84	29898.00
675.98	29666.29
676.12	30199.93
676.26	29811.40
676.40	30019.71
676.54	30050.14
676.68	29919.07
676.82	29291.80
676.96	29502.45
677.10	29415.85
677.23	29502.45
677.37	29584.37
677.51	29130.31
677.65	29085.84
677.79	28833.06
677.93	28706.67
678.07	29067.11
678.21	28762.84
678.34	28821.36
678.48	28465.60
678.62	28746.46
678.76	28430.49
678.90	28573.26
679.04	28390.70
679.18	28512.41
679.31	27931.95
679.45	28107.49
679.59	27770.46
679.73	27721.30
679.87	28070.04
680.00	27941.32
680.14	27901.53
680.28	27426.40
680.42	27262.56
680.56	27903.87
680.70	27360.86
680.83	27482.57
680.97	27119.79
681.11	26859.99
681.25	27035.53
681.39	26757.00
681.52	26829.56
681.66	26714.87
681.80	26726.58
681.94	26324.01
682.07	26808.50
682.21	26534.65
682.35	26256.13
682.49	26766.37
682.62	26588.49
682.76	26167.19
682.90	25989.31
683.04	25921.43
683.17	26052.50
683.31	25788.02
683.45	25832.49
683.59	25521.20
683.72	25633.55
683.86	25385.45
684.00	25556.31
684.13	25366.73
684.27	25355.02
684.41	24973.52
684.55	24950.11
684.68	24638.82
684.82	24713.72
684.96	25067.14
685.09	24659.88
685.23	24842.45
685.37	24446.90
685.50	24519.45
685.64	24608.39
685.78	24320.51
685.91	23969.43
686.05	23840.70
686.19	23894.53
686.32	24135.60
686.46	23828.99
686.60	23470.89
686.73	23744.73
686.87	23372.59
687.01	23103.43
687.14	23323.44
687.28	23075.34
687.42	22815.54
687.55	22843.63
687.69	23073.00
687.82	22998.10
687.96	22991.08
688.10	22824.90
688.23	22813.20
688.37	22740.64
688.50	22375.52
688.64	22176.58
688.78	22267.86
688.91	22167.21
689.05	22188.28
689.18	22106.36
689.32	21579.74
689.46	21930.82
689.59	22029.12
689.73	22139.13
689.86	21769.32
690.00	21635.91
690.13	21799.75
690.27	21446.33
690.41	21458.03
690.54	21289.51
690.68	21308.24
690.81	21284.83
690.95	21025.03
691.08	21095.25
691.22	21064.82
691.35	20655.23
691.49	21116.31
691.62	21022.69
691.76	20865.88
691.89	20882.26
692.03	20395.43
692.16	20320.53
692.30	20322.87
692.43	20189.46
692.57	20395.43
692.70	20304.15
692.84	20102.86
692.97	19592.62
693.11	19711.99
693.24	19412.40
693.38	19580.92
693.51	19606.67
693.65	19693.27
693.78	19667.52
693.92	19419.42
694.05	19278.99
694.19	19440.49
694.32	19281.33
694.45	19328.14
694.59	19119.84
694.72	19183.03
694.86	18869.40
694.99	18567.47
695.13	18810.89
695.26	18654.07
695.39	18314.69
695.53	18555.77
695.66	18450.44
695.80	18412.99
695.93	18132.13
696.07	18092.34
696.20	18001.06
696.33	18019.78
696.47	18202.35
696.60	17914.46
696.73	17776.37
696.87	18288.95
697.00	17855.95
697.14	17722.54
697.27	17451.03
697.40	17532.95
697.54	17429.97
697.67	17326.99
697.80	17156.13
697.94	17132.72
698.07	17170.17
698.21	16954.84
698.34	16891.65
698.47	16868.24
698.61	16599.08
698.74	16802.71
698.87	16491.41
699.01	16421.20
699.14	16468.01
699.27	16367.37
699.40	16407.16
699.54	16152.04
699.67	16121.61
699.80	16173.10
699.94	16233.96
700.07	16032.67
700.20	15812.66
700.34	15768.19
700.47	15756.49
700.60	15847.77
700.73	15882.88
700.87	15632.44
701.00	15569.24
701.13	15679.25
701.26	15508.39
701.40	15543.50
701.53	15225.18
701.66	15204.12
701.79	15147.95
701.93	15173.69
702.06	14761.76
702.19	14810.91
702.32	14853.04
702.46	14768.78
702.59	14733.67
702.72	14534.73
702.85	14909.21
702.99	14773.46
703.12	14972.41
703.25	14649.41
703.38	14635.37
703.51	14258.54
703.65	14354.51
703.78	14361.53
703.91	13984.70
704.04	14164.92
704.17	14097.05
704.31	14015.13
704.44	13589.15
704.57	13350.42
704.70	13774.05
704.83	13635.96
704.96	13661.71
705.10	13891.08
705.23	13895.76
>>>>>End Processed Spectral Data<<<<<
