SpectraSuite Data File
++++++++++++++++++++++++++++++++++++
Date: Fri Oct 25 10:46:55 EDT 2013
User: price-jones
Dark Spectrum Present: No
Reference Spectrum Present: No
Number of Sampled Component Spectra: 1
Spectrometers: USB2+H05261
Integration Time (usec): 100000 (USB2+H05261)
Spectra Averaged: 1 (USB2+H05261)
Boxcar Smoothing: 0 (USB2+H05261)
Correct for Electrical Dark: No (USB2+H05261)
Strobe/Lamp Enabled: No (USB2+H05261)
Correct for Detector Non-linearity: No (USB2+H05261)
Correct for Stray Light: No (USB2+H05261)
Number of Pixels in Processed Spectrum: 2048
>>>>>Begin Processed Spectral Data<<<<<
365.73	140.43
365.92	140.43
366.12	140.43
366.32	42.13
366.52	51.49
366.72	88.94
366.91	0.00
367.11	11.70
367.31	18.72
367.51	7.02
367.70	0.00
367.90	28.09
368.10	37.45
368.30	0.00
368.49	21.06
368.69	102.98
368.89	4.68
369.09	72.56
369.28	81.92
369.48	60.85
369.68	39.79
369.87	65.54
370.07	60.85
370.27	126.39
370.47	234.05
370.66	390.87
370.86	407.25
371.06	482.15
371.25	505.56
371.45	449.38
371.65	557.05
371.84	521.94
372.04	437.68
372.24	510.24
372.44	550.03
372.63	512.58
372.83	601.52
373.03	552.37
373.22	543.00
373.42	557.05
373.62	552.37
373.81	505.56
374.01	510.24
374.21	571.09
374.40	580.45
374.60	615.56
374.79	550.03
374.99	554.71
375.19	606.20
375.38	599.18
375.58	638.97
375.78	603.86
375.97	566.41
376.17	554.71
376.37	596.84
376.56	655.35
376.76	641.31
376.95	589.82
377.15	650.67
377.35	608.54
377.54	624.92
377.74	603.86
377.93	739.61
378.13	674.07
378.33	631.94
378.52	667.05
378.72	667.05
378.91	690.46
379.11	655.35
379.31	608.54
379.50	624.92
379.70	704.50
379.89	781.74
380.09	716.20
380.28	692.80
380.48	690.46
380.68	631.94
380.87	695.14
381.07	755.99
381.26	720.88
381.46	741.95
381.65	755.99
381.85	784.08
382.04	669.39
382.24	748.97
382.43	730.25
382.63	751.31
382.83	763.01
383.02	805.14
383.22	823.87
383.41	737.27
383.61	798.12
383.80	697.48
384.00	767.70
384.19	711.52
384.39	741.95
384.58	802.80
384.78	873.02
384.97	688.12
385.17	837.91
385.36	741.95
385.56	898.77
385.75	812.17
385.95	791.10
386.14	933.87
386.34	884.72
386.53	861.32
386.72	868.34
386.92	866.00
387.11	922.17
387.31	903.45
387.50	898.77
387.70	891.74
387.89	940.90
388.09	891.74
388.28	847.27
388.48	866.00
388.67	898.77
388.86	968.98
389.06	1008.77
389.25	1025.15
389.45	1027.50
389.64	933.87
389.84	1088.35
390.03	959.62
390.22	1029.84
390.42	1008.77
390.61	973.66
390.81	1034.52
391.00	1025.15
391.19	1191.33
391.39	1088.35
391.58	1135.16
391.78	1025.15
391.97	976.00
392.16	1032.18
392.36	1123.46
392.55	964.30
392.75	1004.09
392.94	1053.24
393.13	1011.11
393.33	973.66
393.52	1043.88
393.71	1020.47
393.91	1130.48
394.10	1160.91
394.29	1121.12
394.49	1142.18
394.68	1212.40
394.88	1252.19
395.07	1165.59
395.26	1254.53
395.46	1233.46
395.65	1238.14
395.84	1256.87
396.04	1322.40
396.23	1198.35
396.42	1107.07
396.62	1224.10
396.81	1270.91
397.00	1130.48
397.19	1306.02
397.39	1338.79
397.58	1392.62
397.77	1366.87
397.97	1399.64
398.16	1341.13
398.35	1446.45
398.55	1409.00
398.74	1411.34
398.93	1570.50
399.12	1406.66
399.32	1448.79
399.51	1598.59
399.70	1430.07
399.90	1591.56
400.09	1584.54
400.28	1591.56
400.47	1554.12
400.67	1586.88
400.86	1643.06
401.05	1666.46
401.24	1612.63
401.44	1647.74
401.63	1689.87
401.82	1661.78
402.01	1696.89
402.21	1732.00
402.40	1804.55
402.59	1753.06
402.78	1746.04
402.97	1790.51
403.17	1842.00
403.36	1774.13
403.55	1870.09
403.74	1891.15
403.93	1837.32
404.13	1886.47
404.32	1757.74
404.51	1858.39
404.70	1816.26
404.89	1947.33
405.09	1905.20
405.28	1912.22
405.47	1975.41
405.66	1980.09
405.85	1973.07
406.05	1949.67
406.24	1984.77
406.43	1954.35
406.62	2015.20
406.81	2134.57
407.00	2094.78
407.20	1937.96
407.39	2132.23
407.58	2094.78
407.77	2076.06
407.96	2211.81
408.15	2270.32
408.34	2195.42
408.54	2218.83
408.73	2321.81
408.92	2221.17
409.11	2307.77
409.30	2167.34
409.49	2289.04
409.68	2258.62
409.87	2193.08
410.07	2424.80
410.26	2296.07
410.45	2366.28
410.64	2424.80
410.83	2471.61
411.02	2401.39
411.21	2658.85
411.40	2473.95
411.59	2520.76
411.78	2581.61
411.98	2579.27
412.17	2544.16
412.36	2626.08
412.55	2630.76
412.74	2670.55
412.93	2750.13
413.12	2633.10
413.31	2888.22
413.50	2761.83
413.69	2808.64
413.88	2913.97
414.07	2909.29
414.26	2850.77
414.45	2918.65
414.64	2855.45
414.83	3038.02
415.02	3030.99
415.22	2951.42
415.41	3054.40
415.60	3035.67
415.79	3199.51
415.98	3124.62
416.17	3171.43
416.36	3166.74
416.55	3148.02
416.74	3332.92
416.93	3108.23
417.12	3253.34
417.31	3318.88
417.50	3356.33
417.69	3522.51
417.88	3328.24
418.07	3293.13
418.26	3431.23
418.45	3435.91
418.64	3489.74
418.83	3527.19
419.02	3566.98
419.21	3644.21
419.39	3597.40
419.58	3515.48
419.77	3508.46
419.96	3742.52
420.15	3698.05
420.34	3822.09
420.53	3723.79
420.72	3791.67
420.91	3756.56
421.10	3747.20
421.29	3868.91
421.48	3548.25
421.67	3768.26
421.86	3744.86
422.05	3574.00
422.24	3669.96
422.43	3819.75
422.61	3768.26
422.80	3964.87
422.99	3819.75
423.18	3894.65
423.37	4011.68
423.56	3969.55
423.75	3920.40
423.94	3859.54
424.13	3616.13
424.32	3833.80
424.50	3943.80
424.69	3857.20
424.88	3934.44
425.07	3936.78
425.26	3826.78
425.45	3908.69
425.64	3920.40
425.83	3831.46
426.01	3906.35
426.20	3969.55
426.39	3915.72
426.58	3988.27
426.77	3894.65
426.96	3850.18
427.15	3908.69
427.33	4086.58
427.52	3946.14
427.71	4065.51
427.90	4016.36
428.09	4100.62
428.28	4112.32
428.46	4177.86
428.65	4095.94
428.84	4161.47
429.03	4262.12
429.22	4126.36
429.40	4053.81
429.59	4084.23
429.78	3859.54
429.97	3925.08
430.16	4095.94
430.34	4032.74
430.53	4117.00
430.72	4294.88
430.91	4301.90
431.10	4259.78
431.28	4479.79
431.47	4538.30
431.66	4692.77
431.85	4463.40
432.03	4566.39
432.22	4643.62
432.41	4716.18
432.60	4739.58
432.79	4599.15
432.97	4758.31
433.16	4631.92
433.35	4650.64
433.54	4641.28
433.72	4613.20
433.91	4690.43
434.10	4678.73
434.28	4622.56
434.47	4802.78
434.66	4915.12
434.85	4919.81
435.03	4823.84
435.22	4865.97
435.41	5081.30
435.59	4985.34
435.78	4954.91
435.97	5163.22
436.16	4987.68
436.34	5214.71
436.53	5004.07
436.72	5348.12
436.90	5057.90
437.09	5085.98
437.28	4985.34
437.46	5118.75
437.65	5177.26
437.84	5018.11
438.02	5210.03
438.21	5069.60
438.40	5137.48
438.58	5352.81
438.77	5495.58
438.96	5305.99
439.14	5423.02
439.33	5607.92
439.52	5668.78
439.70	5568.13
439.89	5565.79
440.08	5699.20
440.26	5694.52
440.45	5626.65
440.63	5673.46
440.82	5970.71
441.01	5792.83
441.19	5767.08
441.38	5982.41
441.57	5982.41
441.75	6125.18
441.94	6246.89
442.12	6286.68
442.31	6408.39
442.50	6263.27
442.68	6202.42
442.87	6265.61
443.05	6207.10
443.24	6293.70
443.43	6480.94
443.61	6476.26
443.80	6668.19
443.98	6317.11
444.17	6190.72
444.35	6223.48
444.54	6469.24
444.73	6392.00
444.91	6363.92
445.10	6553.50
445.28	6527.75
445.47	6417.75
445.65	6380.30
445.84	6576.91
446.02	6530.09
446.21	6576.91
446.39	6445.84
446.58	6665.85
446.77	6715.00
446.95	6485.62
447.14	6595.63
447.32	6689.25
447.51	6637.76
447.69	6565.20
447.88	6649.46
448.06	6532.44
448.25	6658.82
448.43	6644.78
448.62	6792.23
448.80	6829.68
448.99	6633.08
449.17	6832.02
449.36	6693.93
449.54	6974.80
449.73	7040.33
449.91	7052.03
450.10	7105.87
450.28	7222.89
450.46	7122.25
450.65	7042.67
450.83	7082.46
451.02	6944.37
451.20	7148.00
451.39	7190.13
451.57	7129.27
451.76	7190.13
451.94	7187.79
452.13	7220.55
452.31	7229.91
452.49	6874.15
452.68	7222.89
452.86	7260.34
453.05	7150.34
453.23	7250.98
453.42	7192.47
453.60	7332.90
453.78	7478.01
453.97	7276.73
454.15	7407.80
454.34	7187.79
454.52	7414.82
454.70	7386.73
454.89	7538.87
455.07	7555.25
455.26	7709.72
455.44	7665.25
455.62	7770.58
455.81	7632.49
455.99	7747.17
456.17	7698.02
456.36	7627.81
456.54	7686.32
456.73	8095.91
456.91	8170.81
457.09	8039.74
457.28	8070.17
457.46	7976.55
457.64	8133.36
457.83	7922.71
458.01	7960.16
458.19	8056.12
458.38	7962.50
458.56	8189.53
458.74	8147.40
458.93	8147.40
459.11	8191.88
459.29	8077.19
459.48	8161.45
459.66	8273.79
459.84	8376.78
460.03	8664.66
460.21	8355.71
460.39	8360.39
460.57	8360.39
460.76	8540.61
460.94	8709.13
461.12	8608.49
461.31	8711.47
461.49	8418.91
461.67	8486.78
461.85	8706.79
462.04	8678.71
462.22	9415.98
462.40	8805.10
462.59	8725.52
462.77	8908.08
462.95	8795.73
463.13	8840.20
463.32	8723.18
463.50	8908.08
463.68	8959.57
463.86	9055.53
464.05	8629.56
464.23	8762.97
464.41	9104.68
464.59	8805.10
464.78	9181.92
464.96	9015.74
465.14	8847.22
465.32	9029.79
465.50	9130.43
465.69	9275.54
465.87	9053.19
466.05	9011.06
466.23	9224.05
466.41	9053.19
466.60	9397.25
466.78	9116.39
466.96	9273.20
467.14	9128.09
467.32	9200.65
467.51	9270.86
467.69	9055.53
467.87	9085.96
468.05	9525.98
468.23	9411.29
468.41	9303.63
468.60	9490.87
468.78	9502.58
468.96	9287.25
469.14	9687.48
469.32	9853.66
469.50	9132.77
469.69	9750.67
469.87	9549.39
470.05	9666.41
470.23	9802.16
470.41	9809.19
470.59	9790.46
470.77	9851.31
470.95	9788.12
471.14	9907.49
471.32	9923.87
471.50	10171.97
471.68	9951.96
471.86	10356.87
472.04	10143.88
472.22	10445.81
472.40	10253.89
472.58	10188.35
472.77	10326.44
472.95	10555.82
473.13	10995.84
473.31	10424.75
473.49	10391.98
473.67	10567.52
473.85	10607.31
474.03	10974.77
474.21	10846.04
474.39	10874.13
474.57	10977.11
474.75	11089.46
474.93	11089.46
475.12	11176.06
475.30	11243.93
475.48	11173.72
475.66	11133.93
475.84	11063.71
476.02	11279.04
476.20	11269.68
476.38	11545.86
476.56	11934.39
476.74	11693.32
476.92	11599.70
477.10	11784.60
477.28	12095.89
477.46	12173.13
477.64	11983.54
477.82	12292.49
478.00	12669.32
478.18	12704.43
478.36	12610.81
478.54	12472.71
478.72	12666.98
478.90	12917.42
479.08	12957.21
479.26	12858.90
479.44	12992.31
479.62	13085.94
479.80	13041.46
479.98	13327.01
480.16	13469.78
480.34	13373.82
480.52	13774.05
480.70	13617.24
480.88	13422.97
481.06	13614.90
481.24	13820.86
481.41	13900.44
481.59	14272.59
481.77	14087.68
481.95	14195.35
482.13	14403.66
482.31	14415.36
482.49	14705.59
482.67	14745.38
482.85	14876.44
483.03	14934.96
483.21	15241.57
483.39	15489.67
483.57	15243.91
483.74	15370.30
483.92	15496.69
484.10	15632.44
484.28	15922.66
484.46	15843.09
484.64	16269.06
484.82	16004.58
485.00	16283.11
485.18	16578.01
485.35	16224.59
485.53	16084.16
485.71	16152.04
485.89	16400.13
486.07	16264.38
486.25	16189.49
486.43	16695.04
486.61	16872.92
486.78	17013.35
486.96	17224.00
487.14	17429.97
487.32	17596.15
487.50	18122.77
487.68	18024.47
487.85	18305.33
488.03	18246.82
488.21	18836.63
488.39	18621.30
488.57	18712.58
488.75	18745.35
488.92	18981.74
489.10	19192.39
489.28	19372.61
489.46	19494.32
489.64	19627.73
489.81	20107.54
489.99	20056.05
490.17	20070.09
490.35	20205.84
490.53	20039.67
490.70	20240.95
490.88	20456.28
491.06	20884.60
491.24	20664.59
491.41	20748.85
491.59	20945.45
491.77	20657.57
491.95	21254.40
492.13	21399.52
492.30	21546.97
492.48	21764.64
492.66	22040.82
492.84	21762.30
493.01	21736.56
493.19	22057.21
493.37	22625.96
493.54	22480.85
493.72	22876.40
493.90	22544.04
494.08	22810.86
494.25	23234.50
494.43	23037.89
494.61	23297.69
494.79	23674.52
494.96	23098.75
495.14	23344.50
495.32	23475.57
495.49	23316.42
495.67	23728.35
495.85	23777.50
496.02	24128.58
496.20	24156.67
496.38	24582.65
496.55	24524.13
496.73	24971.18
496.91	24610.73
497.09	24847.13
497.26	24678.61
497.44	25113.95
497.62	25041.39
497.79	25362.04
497.97	25060.12
498.14	25191.19
498.32	25436.94
498.50	25790.36
498.67	26176.55
498.85	25720.15
499.03	26302.94
499.20	26085.27
499.38	26338.05
499.56	26043.14
499.73	26321.66
499.91	26347.41
500.08	26391.88
500.26	26045.48
500.44	26677.43
500.61	26616.57
500.79	26782.75
500.97	26757.00
501.14	27316.39
501.32	27421.72
501.49	27199.37
501.67	26944.25
501.84	27225.11
502.02	27381.93
502.20	27428.74
502.37	27847.69
502.55	27615.98
502.72	27887.48
502.90	27857.06
503.07	28091.11
503.25	28128.56
503.43	27995.15
503.60	28233.88
503.78	28072.39
503.95	28353.25
504.13	28830.72
504.30	28716.03
504.48	28709.01
504.65	29146.69
504.83	28994.56
505.01	28826.04
505.18	29006.26
505.36	29745.87
505.53	29233.29
505.71	29443.94
505.88	29422.87
506.06	29270.74
506.23	30082.91
506.41	29139.67
506.58	29832.47
506.76	29771.61
506.93	29958.86
507.11	29858.21
507.28	30190.57
507.46	30033.75
507.63	29741.19
507.81	30003.33
507.98	30216.32
508.16	30483.14
508.33	30401.22
508.50	30396.54
508.68	30876.35
508.85	31337.43
509.03	30984.01
509.20	31651.06
509.38	31091.68
509.55	31227.43
509.73	31456.80
509.90	31679.15
510.08	31269.56
510.25	31079.97
510.42	31260.20
510.60	31735.32
510.77	31590.21
510.95	31952.99
511.12	32168.32
511.30	32165.98
511.47	31981.08
511.64	32498.34
511.82	32718.35
511.99	31950.65
512.17	32552.17
512.34	32364.93
512.51	32755.80
512.69	32809.63
512.86	32863.46
513.04	33020.28
513.21	32818.99
513.38	32868.14
513.56	32978.15
513.73	32802.61
513.90	32833.04
514.08	32739.41
514.25	33134.96
514.43	33125.60
514.60	32961.76
514.77	33614.77
514.95	33652.22
515.12	33308.16
515.29	33816.06
515.47	33834.78
515.64	33926.07
515.81	33771.59
515.99	33736.48
516.16	33844.15
516.33	33488.38
516.51	33766.91
516.68	33603.07
516.85	33359.66
517.03	33116.24
517.20	34426.94
517.37	34005.64
517.54	34024.37
517.72	34686.74
517.89	33811.38
518.06	34190.55
518.24	34712.49
518.41	34511.20
518.58	34157.78
518.75	34623.54
518.93	34618.86
519.10	34866.96
519.27	35182.93
519.45	35166.55
519.62	35154.85
519.79	35208.68
519.96	35611.25
520.14	35653.38
520.31	35557.42
520.48	35498.91
520.65	35519.97
520.83	36240.86
521.00	36016.16
521.17	35676.79
521.34	35955.31
521.52	35988.08
521.69	36273.62
521.86	36437.46
522.03	36252.56
522.20	36034.89
522.38	35988.08
522.55	36870.46
522.72	36299.37
522.89	36620.02
523.07	36755.77
523.24	36172.98
523.41	36617.68
523.58	37347.93
523.75	37380.70
523.92	37345.59
524.10	37614.75
524.27	37118.56
524.44	37336.23
524.61	37357.29
524.78	37635.81
524.96	37549.21
525.13	37488.36
525.30	37837.10
525.47	38457.34
525.64	37860.51
525.81	37736.46
525.98	37584.32
526.16	37408.78
526.33	37350.27
526.50	37572.62
526.67	37642.84
526.84	37865.19
527.01	37521.13
527.18	37811.35
527.36	38316.91
527.53	38326.27
527.70	38534.58
527.87	38810.76
528.04	38403.51
528.21	38312.23
528.38	38581.39
528.55	38932.47
528.72	39091.63
528.89	38974.60
529.07	39007.37
529.24	38513.52
529.41	38557.99
529.58	38686.71
529.75	38763.95
529.92	38653.95
530.09	39356.11
530.26	39222.70
530.43	39042.48
530.60	39072.90
530.77	39105.67
530.94	39447.39
531.11	39597.18
531.28	39831.24
531.46	39667.40
531.63	39849.96
531.80	39620.59
531.97	39615.91
532.14	39789.11
532.31	39339.72
532.48	39667.40
532.65	40009.12
532.82	39599.52
532.99	39868.69
533.16	39625.27
533.33	40006.78
533.50	40177.64
533.67	40376.58
533.84	39880.39
534.01	40144.87
534.18	40140.19
534.35	40800.22
534.52	40657.45
534.69	40390.62
534.86	40341.47
535.03	40538.08
535.20	40830.65
535.37	40961.72
535.54	40882.14
535.71	40629.36
535.88	40678.51
536.05	40755.75
536.22	40921.93
536.38	40875.12
536.55	41125.55
536.72	41008.53
536.89	40500.63
537.06	40765.11
537.23	41137.26
537.40	41254.28
537.57	41296.41
537.74	41287.05
537.91	41596.00
538.08	41411.10
538.25	41322.16
538.42	41626.43
538.59	41556.21
538.75	41270.67
538.92	41240.24
539.09	41282.37
539.26	41532.81
539.43	41769.20
539.60	41481.31
539.77	41603.02
539.94	41525.78
540.11	41724.73
540.28	40931.29
540.44	41776.22
540.61	41483.66
540.78	41710.69
540.95	41764.52
541.12	41375.99
541.29	41717.71
541.46	42033.68
541.62	41900.27
541.79	42272.42
541.96	41600.68
542.13	42270.08
542.30	42181.13
542.47	41947.08
542.63	42197.52
542.80	42366.04
542.97	42190.50
543.14	42838.83
543.31	42843.51
543.48	42665.63
543.64	43208.63
543.81	43325.66
543.98	42990.96
544.15	42878.61
544.32	42815.42
544.48	43175.86
544.65	43246.08
544.82	43058.84
544.99	42808.40
545.16	43068.20
545.32	42939.47
545.49	43454.39
545.66	43079.90
545.83	43559.71
546.00	43489.49
546.16	43508.22
546.33	43353.74
546.50	43185.22
546.67	43054.15
546.83	43276.51
547.00	43491.83
547.17	43393.53
547.34	43412.26
547.50	43393.53
547.67	43643.97
547.84	43555.03
548.00	44411.67
548.17	43791.42
548.34	44016.11
548.51	43828.87
548.67	43681.42
548.84	43913.13
549.01	44039.52
549.18	44123.78
549.34	44060.58
549.51	43835.89
549.68	44215.06
549.84	43992.71
550.01	44636.36
550.18	44348.47
550.34	44250.17
550.51	43927.17
550.68	44142.50
550.84	44102.71
551.01	44158.89
551.18	44191.65
551.34	44065.27
551.51	44662.10
551.68	44369.54
551.84	44467.84
552.01	44512.31
552.18	44484.22
552.34	44315.70
552.51	44900.84
552.68	44659.76
552.84	44650.40
553.01	45038.93
553.18	44301.66
553.34	44587.21
553.51	44795.51
553.67	44545.08
553.84	45162.98
554.01	44872.75
554.17	44905.52
554.34	44762.75
554.51	44795.51
554.67	44931.26
554.84	45043.61
555.00	44739.34
555.17	45031.91
555.33	44870.41
555.50	44903.18
555.67	45160.64
555.83	44989.78
556.00	45368.94
556.16	45146.59
556.33	44748.70
556.50	44596.57
556.66	45614.70
556.83	45102.12
556.99	45116.17
557.16	45181.70
557.32	45109.14
557.49	45155.96
557.65	45301.07
557.82	45272.98
557.98	45284.68
558.15	45113.83
558.32	45612.36
558.48	44854.03
558.65	45483.63
558.81	45090.42
558.98	44945.31
559.14	45476.61
559.31	45638.11
559.47	45764.49
559.64	45944.72
559.80	45514.06
559.97	45464.91
560.13	45434.48
560.30	45612.36
560.46	45844.07
560.63	45661.51
560.79	45675.55
560.96	46026.63
561.12	45378.31
561.29	46050.04
561.45	45581.93
561.61	45970.46
561.78	45708.32
561.94	45492.99
562.11	45771.52
562.27	45666.19
562.44	45607.68
562.60	46190.47
562.77	46007.91
562.93	45933.01
563.10	45890.88
563.26	45705.98
563.42	45769.18
563.59	45958.76
563.75	45605.34
563.92	45715.34
564.08	46213.88
564.24	46286.43
564.41	46167.07
564.57	45895.56
564.74	45977.48
564.90	45813.65
565.07	46401.12
565.23	45853.44
565.39	46148.34
565.56	46305.16
565.72	45949.40
565.88	45525.76
566.05	45911.95
566.21	45881.52
566.38	45858.12
566.54	45544.48
566.70	46726.46
566.87	46476.02
567.03	46373.03
567.19	46230.26
567.36	46494.74
567.52	45893.22
567.68	46457.29
567.85	46274.73
568.01	46497.08
568.17	45996.21
568.34	46143.66
568.50	45958.76
568.66	46164.73
568.83	46195.15
568.99	45933.01
569.15	45958.76
569.32	45638.11
569.48	46153.02
569.64	46564.96
569.81	45979.82
569.97	46026.63
570.13	45879.18
570.30	45631.08
570.46	46110.89
570.62	45565.55
570.78	45855.78
570.95	46033.66
571.11	46270.05
571.27	45986.85
571.43	46216.22
571.60	46436.23
571.76	46122.60
571.92	46141.32
572.09	46316.86
572.25	46230.26
572.41	45954.08
572.57	46415.16
572.74	46806.03
572.90	46548.57
573.06	45954.08
573.22	45872.16
573.38	46466.66
573.55	46057.06
573.71	46541.55
573.87	46274.73
574.03	45858.12
574.20	46333.24
574.36	46286.43
574.52	46405.80
574.68	46377.72
574.84	46628.15
575.01	46583.68
575.17	46050.04
575.33	46321.54
575.49	46124.94
575.65	46483.04
575.82	46520.49
575.98	45942.38
576.14	46941.78
576.30	46796.67
576.46	46473.68
576.62	46770.93
576.79	46529.85
576.95	45956.42
577.11	46773.27
577.27	46511.13
577.43	46480.70
577.59	46499.42
577.75	46541.55
577.92	45921.31
578.08	46122.60
578.24	46192.81
578.40	46464.32
578.56	46223.24
578.72	46146.00
578.88	46656.24
579.04	46146.00
579.21	46480.70
579.37	46464.32
579.53	46356.65
579.69	46071.10
579.85	46225.58
580.01	46553.26
580.17	46667.94
580.33	46515.81
580.49	46358.99
580.65	46794.33
580.82	46216.22
580.98	46632.83
581.14	46822.42
581.30	46787.31
581.46	46550.91
581.62	46770.93
581.78	46735.82
581.94	46569.64
582.10	46176.43
582.26	46464.32
582.42	46710.07
582.58	46616.45
582.74	46417.50
582.90	46602.41
583.06	46417.50
583.22	47021.36
583.38	47061.15
583.54	46401.12
583.70	46665.60
583.86	46499.42
584.02	46127.28
584.18	46543.89
584.34	46604.75
584.50	46820.08
584.66	46431.55
584.82	46153.02
584.98	46667.94
585.14	46621.13
585.30	46557.94
585.46	46506.44
585.62	46089.83
585.78	46178.77
585.94	46291.12
586.10	46880.93
586.26	46160.05
586.42	46665.60
586.58	46665.60
586.74	46721.77
586.90	46635.17
587.06	46550.91
587.22	46319.20
587.38	46541.55
587.54	46733.48
587.70	46653.90
587.86	46508.79
588.02	46373.03
588.18	47037.75
588.34	46492.40
588.49	46209.20
588.65	46476.02
588.81	46644.54
588.97	46206.86
589.13	46040.68
589.29	46447.93
589.45	46485.38
589.61	46571.98
589.77	46698.37
589.93	46494.74
590.08	46869.23
590.24	46520.49
590.40	46986.25
590.56	46770.93
590.72	46705.39
590.88	46576.66
591.04	46539.21
591.20	46869.23
591.35	46927.74
591.51	47288.18
591.67	46656.24
591.83	46864.55
591.99	46656.24
592.15	46571.98
592.31	46983.91
592.46	46340.27
592.62	46440.91
592.78	46670.28
592.94	47145.41
593.10	46738.16
593.26	47110.30
593.41	46632.83
593.57	46546.23
593.73	46525.17
593.89	46838.80
594.05	46602.41
594.20	46836.46
594.36	46869.23
594.52	46670.28
594.68	46609.43
594.84	46728.80
594.99	47054.13
595.15	46368.35
595.31	47178.18
595.47	46951.15
595.62	46742.84
595.78	46979.23
595.94	46431.55
596.10	46724.11
596.25	46824.76
596.41	46794.33
596.57	46955.83
596.73	47084.56
596.88	46251.33
597.04	46735.82
597.20	46777.95
597.36	46546.23
597.51	46597.73
597.67	46344.95
597.83	46965.19
597.99	47232.01
598.14	46822.42
598.30	47313.93
598.46	47000.30
598.61	46660.92
598.77	47063.49
598.93	46820.08
599.09	46600.07
599.24	47208.61
599.40	47161.79
599.56	47414.57
599.71	46862.21
599.87	47016.68
600.03	47426.28
600.18	47004.98
600.34	46822.42
600.50	46471.34
600.65	47058.81
600.81	47152.43
600.97	47012.00
601.12	47480.11
601.28	47002.64
601.44	46501.76
601.59	46759.22
601.75	46726.46
601.91	46574.32
602.06	46681.98
602.22	46960.51
602.37	46836.46
602.53	46740.50
602.69	46859.87
602.84	46733.48
603.00	46782.63
603.16	46808.37
603.31	46600.07
603.47	46686.67
603.62	46417.50
603.78	46911.36
603.94	46684.33
604.09	47168.82
604.25	46719.43
604.40	46742.84
604.56	46490.06
604.71	46513.47
604.87	46689.01
605.03	46864.55
605.18	46705.39
605.34	46972.21
605.49	46494.74
605.65	47068.17
605.80	46635.17
605.96	46834.12
606.12	46794.33
606.27	46911.36
606.43	46696.03
606.58	46665.60
606.74	46415.16
606.89	46546.23
607.05	46787.31
607.20	46787.31
607.36	47173.50
607.51	46337.93
607.67	46424.53
607.82	46600.07
607.98	46550.91
608.13	46417.50
608.29	46593.04
608.44	46312.18
608.60	46014.93
608.75	46064.08
608.91	46169.41
609.06	45755.13
609.22	46302.82
609.37	46415.16
609.53	45881.52
609.68	46597.73
609.84	46543.89
609.99	45762.15
610.15	46216.22
610.30	45886.20
610.46	46223.24
610.61	46555.60
610.76	46258.35
610.92	46195.15
611.07	46085.15
611.23	46162.39
611.38	46181.11
611.54	46553.26
611.69	45670.87
611.84	45684.92
612.00	46185.79
612.15	45584.27
612.31	46110.89
612.46	46028.98
612.62	46237.28
612.77	45839.39
612.92	46433.89
613.08	45944.72
613.23	45954.08
613.39	45851.09
613.54	45165.32
613.69	45691.94
613.85	45668.53
614.00	45839.39
614.15	45982.16
614.31	45701.30
614.46	45937.69
614.62	45645.13
614.77	45797.26
614.92	45581.93
615.08	45684.92
615.23	45682.58
615.38	45595.98
615.54	45050.63
615.69	45209.79
615.84	45347.88
616.00	45404.05
616.15	45450.86
616.30	45357.24
616.46	45411.07
616.61	44870.41
616.76	45207.45
616.92	45256.60
617.07	45336.18
617.22	44825.94
617.37	45031.91
617.53	45127.87
617.68	44744.02
617.83	45134.89
617.99	45284.68
618.14	45474.27
618.29	45223.83
618.45	45123.19
618.60	45191.06
618.75	44891.48
618.90	44802.53
619.06	45013.18
619.21	45017.86
619.36	45109.14
619.51	44968.71
619.67	44746.36
619.82	44893.82
619.97	45422.78
620.12	44603.59
620.28	44734.66
620.43	44959.35
620.58	45104.46
620.73	44835.30
620.89	44261.87
621.04	44861.05
621.19	44729.98
621.34	44509.97
621.49	44514.65
621.65	44755.72
621.80	44605.93
621.95	44037.18
622.10	44172.93
622.25	44240.81
622.41	44486.56
622.56	44170.59
622.71	44196.34
622.86	44175.27
623.01	44460.82
623.16	44465.50
623.32	44278.25
623.47	44481.88
623.62	44432.73
623.77	43938.88
623.92	43803.13
624.07	44039.52
624.23	44318.04
624.38	43840.57
624.53	43948.24
624.68	44306.34
624.83	44091.01
624.98	44032.50
625.13	43543.33
625.29	43800.79
625.44	44076.97
625.59	43702.48
625.74	43594.82
625.89	43578.43
626.04	43533.96
626.19	44086.33
626.34	43842.92
626.49	43812.49
626.65	43875.68
626.80	43798.44
626.95	43442.68
627.10	43622.90
627.25	43196.93
627.40	43449.70
627.55	43033.09
627.70	42679.67
627.85	42845.85
628.00	42923.08
628.15	43349.06
628.30	43107.99
628.45	43386.51
628.60	43346.72
628.76	43058.84
628.91	43613.54
629.06	43161.82
629.21	43349.06
629.36	43601.84
629.51	42932.45
629.66	42817.76
629.81	42787.33
629.96	43278.85
630.11	42948.83
630.26	43028.41
630.41	43131.39
630.56	42817.76
630.71	43276.51
630.86	42756.91
631.01	42436.25
631.16	42712.44
631.31	42878.61
631.46	42363.70
631.61	42462.00
631.76	42974.58
631.91	42663.28
632.06	42913.72
632.21	42714.78
632.36	42974.58
632.51	42508.81
632.66	42476.04
632.81	41998.57
632.96	42644.56
633.10	42167.09
633.25	42253.69
633.40	42335.61
633.55	42302.84
633.70	42241.99
633.85	42419.87
634.00	42380.08
634.15	42682.01
634.30	42443.27
634.45	42155.39
634.60	41890.91
634.75	42202.20
634.90	42204.54
635.05	42061.77
635.19	42370.72
635.34	42164.75
635.49	42045.38
635.64	42225.60
635.79	42408.17
635.94	41933.04
636.09	42059.43
636.24	41687.28
636.39	41579.62
636.53	41310.46
636.68	41383.01
636.83	42197.52
636.98	42036.02
637.13	41413.44
637.28	41642.81
637.43	42054.75
637.57	41867.50
637.72	41567.91
637.87	41642.81
638.02	41989.21
638.17	41879.21
638.32	41010.87
638.46	41553.87
638.61	41560.89
638.76	41130.23
638.91	41394.71
639.06	41397.06
639.20	41743.45
639.35	41926.02
639.50	41333.86
639.65	41359.61
639.80	41713.03
639.94	41200.45
640.09	41511.74
640.24	41268.33
640.39	41001.50
640.54	41240.24
640.68	41151.30
640.83	41474.29
640.98	41034.27
641.13	40748.73
641.27	41184.07
641.42	41029.59
641.57	41567.91
641.72	40964.06
641.86	40828.30
642.01	40772.13
642.16	40685.53
642.31	40730.00
642.45	41015.55
642.60	40442.12
642.75	40650.42
642.90	40374.24
643.04	40580.21
643.19	40800.22
643.34	40898.52
643.48	40273.60
643.63	40271.26
643.78	40587.23
643.93	40329.77
644.07	40341.47
644.22	40172.96
644.37	40201.04
644.51	40818.94
644.66	40596.59
644.81	40601.27
644.95	40315.73
645.10	40840.01
645.25	40304.02
645.39	40545.10
645.54	40465.52
645.69	39882.73
645.83	39739.96
645.98	40126.14
646.13	40268.92
646.27	40163.59
646.42	40526.38
646.57	40411.69
646.71	40142.53
646.86	39889.75
647.00	39690.80
647.15	40182.32
647.30	39784.43
647.44	39964.65
647.59	40095.72
647.74	39590.16
647.88	39931.88
648.03	39910.82
648.17	39704.85
648.32	39412.28
648.47	39639.31
648.61	39391.22
648.76	40205.72
648.90	39777.40
649.05	39814.85
649.20	39976.35
649.34	39735.27
649.49	39751.66
649.63	39309.30
649.78	39580.80
649.92	39208.65
650.07	39903.79
650.21	39709.53
650.36	39594.84
650.51	39452.07
650.65	39267.17
650.80	39402.92
650.94	39374.83
651.09	39810.17
651.23	39325.68
651.38	38955.88
651.52	39323.34
651.67	38827.15
651.81	39578.46
651.96	39182.91
652.10	38831.83
652.25	38625.86
652.39	38927.79
652.54	39349.09
652.68	39220.36
652.83	39133.76
652.97	39454.41
653.12	39250.78
653.26	39054.18
653.41	39005.03
653.55	38642.24
653.70	39023.75
653.84	38756.93
653.99	39009.71
654.13	38976.94
654.27	38239.67
654.42	38270.10
654.56	38443.30
654.71	38878.64
654.85	38520.54
655.00	38548.62
655.14	38553.30
655.29	38328.61
655.43	38649.27
655.57	38373.08
655.72	38160.09
655.86	37764.54
656.01	37603.05
656.15	38103.92
656.30	37820.72
656.44	37935.40
656.58	38253.72
656.73	37553.90
656.87	37720.07
657.01	37867.53
657.16	37862.85
657.30	38017.32
657.45	37930.72
657.59	37429.85
657.73	37839.44
657.88	37766.88
658.02	37511.77
658.16	37773.91
658.31	37633.47
658.45	37809.01
658.60	37612.41
658.74	37895.61
658.88	37380.70
659.03	37729.44
659.17	37322.18
659.31	37486.02
659.46	37319.84
659.60	37324.52
659.74	37139.62
659.89	37251.97
660.03	37544.53
660.17	37493.04
660.32	37479.00
660.46	37326.86
660.60	37209.84
660.74	37200.47
660.89	37413.46
661.03	36847.05
661.17	36634.06
661.32	36182.34
661.46	36816.63
661.60	36322.77
661.74	37085.79
661.89	36570.87
662.03	36556.83
662.17	36734.71
662.31	36072.34
662.46	36699.60
662.60	37280.05
662.74	37146.64
662.88	36746.41
663.03	36437.46
663.17	36161.28
663.31	36458.52
663.45	36720.66
663.60	36030.21
663.74	35711.89
663.88	36116.81
664.02	35988.08
664.17	36149.57
664.31	36030.21
664.45	35920.20
664.59	35697.85
664.73	35566.78
664.88	35983.40
665.02	35618.27
665.16	35526.99
665.30	35384.22
665.44	35772.75
665.59	35789.13
665.73	35222.72
665.87	35103.35
666.01	35213.36
666.15	35475.50
666.29	35704.87
666.44	35704.87
666.58	34946.54
666.72	34939.52
666.86	34939.52
667.00	35218.04
667.14	34892.71
667.28	35187.61
667.43	34569.71
667.57	34548.65
667.71	34878.66
667.85	34787.38
667.99	34511.20
668.13	34347.36
668.27	34403.53
668.41	34244.38
668.56	34340.34
668.70	34881.00
668.84	34249.06
668.98	34017.35
669.12	34188.21
669.26	34347.36
669.40	34057.14
669.54	34192.89
669.68	33813.72
669.82	34279.49
669.96	33762.23
670.10	33741.16
670.25	34384.81
670.39	34029.05
670.53	33605.41
670.67	33731.80
670.81	34148.42
670.95	33694.35
671.09	33614.77
671.23	33259.01
671.37	33436.89
671.51	33153.69
671.65	32779.20
671.79	32397.70
671.93	33020.28
672.07	33163.05
672.21	33191.14
672.35	32540.47
672.49	32683.24
672.63	32711.33
672.77	32355.57
672.91	32589.62
673.05	32325.14
673.19	32018.53
673.33	32540.47
673.47	32081.72
673.61	32254.92
673.75	32051.30
673.89	31693.19
674.03	31683.83
674.17	31480.21
674.31	31615.96
674.45	31337.43
674.59	31683.83
674.73	31814.90
674.87	31417.01
675.01	31866.39
675.15	31709.58
675.29	31667.45
675.43	31445.10
675.56	31648.72
675.70	31374.88
675.84	30986.35
675.98	30246.74
676.12	30913.80
676.26	30883.37
676.40	30923.16
676.54	30448.03
676.68	30614.21
676.82	29940.13
676.96	30263.13
677.10	30448.03
677.23	30628.25
677.37	30150.78
677.51	30213.98
677.65	29954.18
677.79	29741.19
677.93	29635.86
678.07	29535.22
678.21	29556.28
678.34	29640.54
678.48	29340.96
678.62	29439.26
678.76	29333.93
678.90	28912.64
679.04	29221.59
679.18	29326.91
679.31	28964.13
679.45	28907.96
679.59	28327.50
679.73	28364.95
679.87	28577.94
680.00	28339.21
680.14	28587.30
680.28	27981.10
680.42	28189.41
680.56	28500.70
680.70	28189.41
680.83	27800.88
680.97	27899.19
681.11	27857.06
681.25	27566.83
681.39	27475.55
681.52	27828.97
681.66	27611.30
681.80	27674.49
681.94	27332.78
682.07	27276.60
682.21	26724.24
682.35	26969.99
682.49	26941.91
682.62	27056.59
682.76	27077.66
682.90	26593.17
683.04	26267.83
683.17	26607.21
683.31	26759.34
683.45	26761.69
683.59	26532.31
683.72	26068.89
683.86	25919.09
684.00	25841.85
684.13	26192.94
684.27	25951.86
684.41	25523.54
684.55	25455.67
684.68	25230.98
684.82	25551.63
684.96	25343.32
685.09	25348.00
685.23	25523.54
685.37	25116.29
685.50	25205.23
685.64	25088.20
685.78	25001.60
685.91	25085.86
686.05	24603.71
686.19	24411.79
686.32	24624.78
686.46	24046.66
686.60	24126.24
686.73	23953.04
686.87	23630.05
687.01	24004.53
687.14	23372.59
687.28	23410.04
687.42	23716.65
687.55	23227.48
687.69	23585.58
687.82	23536.43
687.96	23288.33
688.10	23026.19
688.23	23302.37
688.37	23330.46
688.50	22948.95
688.64	23161.94
688.78	22993.42
688.91	22574.47
689.05	22647.02
689.18	22565.10
689.32	22427.01
689.46	22424.67
689.59	22647.02
689.73	22401.27
689.86	22324.03
690.00	21825.50
690.13	22150.83
690.27	22361.48
690.41	21771.66
690.54	21551.65
690.68	21659.32
690.81	21458.03
690.95	21598.46
691.08	21586.76
691.22	21666.34
691.35	21692.08
691.49	21727.19
691.62	21598.46
691.76	21488.46
691.89	21312.92
692.03	20889.28
692.16	20692.68
692.30	20631.82
692.43	20575.65
692.57	20758.21
692.70	20367.34
692.84	20446.92
692.97	20482.03
693.11	20109.88
693.24	20458.62
693.38	20196.48
693.51	20304.15
693.65	20166.06
693.78	20603.74
693.92	20276.06
694.05	19882.85
694.19	19920.30
694.32	20009.24
694.45	19475.60
694.59	19295.38
694.72	19461.55
694.86	19435.81
694.99	19145.58
695.13	19316.44
695.26	18909.19
695.39	19058.98
695.53	18995.79
695.66	18878.76
695.80	18630.66
695.93	18539.38
696.07	18546.40
696.20	18417.68
696.33	18867.06
696.47	18501.93
696.60	18508.96
696.73	18221.07
696.87	18394.27
697.00	18352.14
697.14	17879.35
697.27	18120.43
697.40	17919.14
697.54	18108.72
697.67	17844.24
697.80	17413.59
697.94	17984.68
698.07	17685.09
698.21	17568.06
698.34	17575.08
698.47	17706.15
698.61	17298.90
698.74	16917.39
698.87	17081.23
699.01	17032.08
699.14	17050.80
699.27	16936.12
699.40	16615.46
699.54	16545.25
699.67	16161.40
699.80	16507.80
699.94	16657.59
700.07	16519.50
700.20	16437.58
700.34	16273.74
700.47	16133.31
700.60	16077.14
700.73	16238.64
700.87	15840.75
701.00	15688.61
701.13	16004.58
701.26	15768.19
701.40	15957.77
701.53	15454.56
701.66	15349.23
701.79	15496.69
701.93	15459.24
702.06	15037.94
702.19	15145.61
702.32	15246.25
702.46	15059.01
702.59	15019.22
702.72	15199.44
702.85	14820.27
702.99	15119.86
703.12	15239.23
703.25	14909.21
703.38	14590.90
703.51	14824.95
703.65	14604.94
703.78	14455.15
703.91	14684.52
704.04	14752.40
704.17	14525.36
704.31	14279.61
704.44	14122.79
704.57	14146.20
704.70	14164.92
704.83	14019.81
704.96	14026.83
705.10	13855.97
705.23	14141.52
>>>>>End Processed Spectral Data<<<<<
