SpectraSuite Data File
++++++++++++++++++++++++++++++++++++
Date: Fri Oct 25 11:33:09 EDT 2013
User: price-jones
Dark Spectrum Present: No
Reference Spectrum Present: No
Number of Sampled Component Spectra: 1
Spectrometers: USB2+H05261
Integration Time (usec): 100000 (USB2+H05261)
Spectra Averaged: 1 (USB2+H05261)
Boxcar Smoothing: 0 (USB2+H05261)
Correct for Electrical Dark: No (USB2+H05261)
Strobe/Lamp Enabled: No (USB2+H05261)
Correct for Detector Non-linearity: No (USB2+H05261)
Correct for Stray Light: No (USB2+H05261)
Number of Pixels in Processed Spectrum: 2048
>>>>>Begin Processed Spectral Data<<<<<
365.73	252.78
365.92	252.78
366.12	252.78
366.32	245.76
366.52	220.01
366.72	229.37
366.91	180.22
367.11	224.69
367.31	180.22
367.51	142.77
367.70	110.01
367.90	177.88
368.10	194.26
368.30	95.96
368.49	222.35
368.69	166.18
368.89	131.07
369.09	117.03
369.28	201.29
369.48	215.33
369.68	250.44
369.87	187.24
370.07	264.48
370.27	262.14
370.47	283.20
370.66	463.43
370.86	531.30
371.06	571.09
371.25	636.63
371.45	510.24
371.65	545.34
371.84	512.58
372.04	587.47
372.24	561.73
372.44	540.66
372.63	582.79
372.83	503.22
373.03	587.47
373.22	589.82
373.42	643.65
373.62	589.82
373.81	660.03
374.01	688.12
374.21	690.46
374.40	615.56
374.60	615.56
374.79	631.94
374.99	617.90
375.19	660.03
375.38	744.29
375.58	709.18
375.78	737.27
375.97	657.69
376.17	725.57
376.37	725.57
376.56	669.39
376.76	709.18
376.95	671.73
377.15	706.84
377.35	755.99
377.54	695.14
377.74	601.52
377.93	727.91
378.13	695.14
378.33	816.85
378.52	690.46
378.72	798.12
378.91	706.84
379.11	746.63
379.31	608.54
379.50	692.80
379.70	788.76
379.89	819.19
380.09	744.29
380.28	748.97
380.48	777.06
380.68	720.88
380.87	779.40
381.07	798.12
381.26	798.12
381.46	816.85
381.65	737.27
381.85	835.57
382.04	723.23
382.24	723.23
382.43	802.80
382.63	711.52
382.83	763.01
383.02	774.72
383.22	819.19
383.41	816.85
383.61	835.57
383.80	786.42
384.00	748.97
384.19	746.63
384.39	863.66
384.58	781.74
384.78	847.27
384.97	830.89
385.17	802.80
385.36	887.06
385.56	786.42
385.75	800.46
385.95	814.51
386.14	940.90
386.34	870.68
386.53	828.55
386.72	851.96
386.92	901.11
387.11	891.74
387.31	847.27
387.50	926.85
387.70	814.51
387.89	908.13
388.09	870.68
388.28	840.25
388.48	873.02
388.67	931.53
388.86	870.68
389.06	905.79
389.25	936.21
389.45	947.92
389.64	999.41
389.84	1055.58
390.03	985.37
390.22	968.98
390.42	947.92
390.61	842.59
390.81	950.26
391.00	1022.81
391.19	922.17
391.39	1029.84
391.58	929.19
391.78	950.26
391.97	950.26
392.16	997.07
392.36	1095.37
392.55	980.68
392.75	1116.44
392.94	1067.28
393.13	1071.97
393.33	1132.82
393.52	1041.54
393.71	1022.81
393.91	1156.22
394.10	1036.86
394.29	1107.07
394.49	1181.97
394.68	1121.12
394.88	1142.18
395.07	1130.48
395.26	1123.46
395.46	1217.08
395.65	1153.88
395.84	1277.93
396.04	1177.29
396.23	1093.03
396.42	1158.57
396.62	1158.57
396.81	1270.91
397.00	1233.46
397.19	1296.66
397.39	1219.42
397.58	1212.40
397.77	1172.61
397.97	1196.01
398.16	1233.46
398.35	1291.98
398.55	1268.57
398.74	1329.42
398.93	1291.98
399.12	1294.32
399.32	1320.06
399.51	1329.42
399.70	1373.89
399.90	1301.34
400.09	1366.87
400.28	1425.39
400.47	1320.06
400.67	1392.62
400.86	1483.90
401.05	1401.98
401.24	1394.96
401.44	1378.58
401.63	1352.83
401.82	1479.22
402.01	1533.05
402.21	1460.49
402.40	1516.67
402.59	1437.09
402.78	1486.24
402.97	1617.31
403.17	1554.12
403.36	1645.40
403.55	1612.63
403.74	1600.93
403.93	1689.87
404.13	1710.93
404.32	1476.88
404.51	1619.65
404.70	1668.80
404.89	1612.63
405.09	1710.93
405.28	1612.63
405.47	1696.89
405.66	1699.23
405.85	1678.16
406.05	1767.10
406.24	1736.68
406.43	1776.47
406.62	1799.87
406.81	1692.21
407.00	1769.44
407.20	1694.55
407.39	1839.66
407.58	1905.20
407.77	1902.86
407.96	1881.79
408.15	1893.49
408.34	1902.86
408.54	1902.86
408.73	1980.09
408.92	1973.07
409.11	1930.94
409.30	1961.37
409.49	1970.73
409.68	1982.43
409.87	2054.99
410.07	1966.05
410.26	2008.18
410.45	2040.95
410.64	2172.02
410.83	2106.48
411.02	2115.84
411.21	2230.53
411.40	2204.78
411.59	2221.17
411.78	2260.96
411.98	2150.95
412.17	2415.43
412.36	2275.00
412.55	2249.25
412.74	2448.20
412.93	2359.26
413.12	2370.96
413.31	2495.01
413.50	2492.67
413.69	2434.16
413.88	2420.11
414.07	2537.14
414.26	2534.80
414.45	2483.31
414.64	2438.84
414.83	2555.86
415.02	2588.63
415.22	2616.72
415.41	2710.34
415.60	2789.92
415.79	2719.70
415.98	2715.02
416.17	2836.73
416.36	2663.53
416.55	2829.71
416.74	2909.29
416.93	2717.36
417.12	2888.22
417.31	2970.14
417.50	2848.43
417.69	3047.38
417.88	3054.40
418.07	2916.31
418.26	2970.14
418.45	3021.63
418.64	3138.66
418.83	3061.42
419.02	3042.70
419.21	3187.81
419.39	3157.38
419.58	2944.39
419.77	3033.33
419.96	3155.04
420.15	3080.14
420.34	3204.19
420.53	3178.45
420.72	3349.31
420.91	3365.69
421.10	3276.75
421.29	3243.98
421.48	3211.22
421.67	3297.81
421.86	3368.03
422.05	3229.94
422.24	3173.77
422.43	3421.86
422.61	3276.75
422.80	3456.97
422.99	3349.31
423.18	3433.57
423.37	3449.95
423.56	3665.28
423.75	3403.14
423.94	3412.50
424.13	3187.81
424.32	3258.03
424.50	3449.95
424.69	3489.74
424.88	3630.17
425.07	3328.24
425.26	3382.07
425.45	3489.74
425.64	3433.57
425.83	3389.10
426.01	3478.04
426.20	3611.45
426.39	3541.23
426.58	3468.67
426.77	3478.04
426.96	3691.02
427.15	3550.59
427.33	3705.07
427.52	3569.32
427.71	3648.90
427.90	3623.15
428.09	3658.26
428.28	3721.45
428.46	3719.11
428.65	3630.17
428.84	3747.20
429.03	3812.73
429.22	3662.94
429.40	3761.24
429.59	3889.97
429.78	3735.50
429.97	3620.81
430.16	3812.73
430.34	3854.86
430.53	3859.54
430.72	3953.16
430.91	3880.61
431.10	3901.67
431.28	3971.89
431.47	4037.42
431.66	4124.02
431.85	4044.45
432.03	4224.67
432.22	4229.35
432.41	4219.99
432.60	4140.41
432.79	4079.55
432.97	4058.49
433.16	4278.50
433.35	4152.11
433.54	4276.16
433.72	4100.62
433.91	4128.70
434.10	4320.63
434.28	4238.71
434.47	4283.18
434.66	4248.07
434.85	4374.46
435.03	4435.32
435.22	4381.48
435.41	4564.04
435.59	4442.34
435.78	4428.29
435.97	4400.21
436.16	4477.44
436.34	4393.19
436.53	4510.21
436.72	4603.83
436.90	4479.79
437.09	4514.89
437.28	4463.40
437.46	4526.60
437.65	4683.41
437.84	4631.92
438.02	4489.15
438.21	4685.75
438.40	4629.58
438.58	4814.48
438.77	4882.36
438.96	4751.29
439.14	5020.45
439.33	4898.74
439.52	4966.62
439.70	4917.47
439.89	5013.43
440.08	4980.66
440.26	5018.11
440.45	5088.32
440.63	5060.24
440.82	5163.22
441.01	5104.71
441.19	5270.89
441.38	5282.59
441.57	5188.97
441.75	5277.91
441.94	5338.76
442.12	5535.37
442.31	5509.62
442.50	5469.83
442.68	5444.09
442.87	5504.94
443.05	5500.26
443.24	5537.71
443.43	5668.78
443.61	5441.75
443.80	5731.97
443.98	5472.17
444.17	5542.39
444.35	5617.29
444.54	5575.16
444.73	5729.63
444.91	5626.65
445.10	5879.43
445.28	5720.27
445.47	5596.22
445.65	5544.73
445.84	5764.74
446.02	5841.98
446.21	5853.68
446.39	5788.14
446.58	5825.59
446.77	5811.55
446.95	5476.85
447.14	5628.99
447.32	5940.28
447.51	5717.93
447.69	5701.54
447.88	5778.78
448.06	5788.14
448.25	6031.56
448.43	5888.79
448.62	5996.45
448.80	5820.91
448.99	5797.51
449.17	5926.24
449.36	5870.06
449.54	6010.50
449.73	5963.68
449.91	6090.07
450.10	6296.04
450.28	6286.68
450.46	6148.59
450.65	6069.01
450.83	6157.95
451.02	6059.65
451.20	6279.66
451.39	6338.17
451.57	6429.45
451.76	6260.93
451.94	6347.53
452.13	6296.04
452.31	6324.13
452.49	6232.85
452.68	6436.47
452.86	6361.58
453.05	6380.30
453.23	6469.24
453.42	6305.40
453.60	6438.81
453.78	6427.11
453.97	6361.58
454.15	6520.73
454.34	6345.19
454.52	6504.35
454.70	6511.37
454.89	6722.02
455.07	6621.38
455.26	6579.25
455.44	6696.27
455.62	6841.39
455.81	6836.70
455.99	6832.02
456.17	6953.73
456.36	6857.77
456.54	6860.11
456.73	7016.93
456.91	7162.04
457.09	7061.40
457.28	7087.14
457.46	7028.63
457.64	7164.38
457.83	7042.67
458.01	7023.95
458.19	7274.38
458.38	7253.32
458.56	7218.21
458.74	7241.62
458.93	7253.32
459.11	7272.04
459.29	7318.86
459.48	7248.64
459.66	7407.80
459.84	7428.86
460.03	7492.05
460.21	7433.54
460.39	7478.01
460.57	7573.97
460.76	7543.55
460.94	7555.25
461.12	7456.95
461.31	7470.99
461.49	7506.10
461.67	7590.36
461.85	7850.16
462.04	7658.23
462.22	8140.38
462.40	7847.82
462.59	7833.77
462.77	7826.75
462.95	8006.97
463.13	7885.26
463.32	7810.37
463.50	7878.24
463.68	7918.03
463.86	8163.79
464.05	7850.16
464.23	7880.58
464.41	7880.58
464.59	7929.74
464.78	8236.35
464.96	8084.21
465.14	7950.80
465.32	8161.45
465.50	8016.33
465.69	8266.77
465.87	8131.02
466.05	8290.18
466.23	8329.97
466.41	8301.88
466.60	8486.78
466.78	8142.72
466.96	8238.69
467.14	8243.37
467.32	8311.24
467.51	8688.07
467.69	8180.17
467.87	8416.57
468.05	8688.07
468.23	8437.63
468.41	8442.31
468.60	8451.67
468.78	8468.06
468.96	8554.66
469.14	8503.17
469.32	8718.50
469.50	8599.13
469.69	8704.45
469.87	8809.78
470.05	8774.67
470.23	8809.78
470.41	9104.68
470.59	8999.36
470.77	8901.06
470.95	9004.04
471.14	9149.15
471.32	8898.72
471.50	9254.48
471.68	9188.94
471.86	9245.12
472.04	9320.01
472.22	9444.06
472.40	9247.46
472.58	9261.50
472.77	9404.27
472.95	9404.27
473.13	9603.22
473.31	9380.87
473.49	9338.74
473.67	9518.96
473.85	9579.81
474.03	9731.95
474.21	9628.96
474.39	9956.64
474.57	9881.74
474.75	10008.13
474.93	10019.83
475.12	10047.92
475.30	10071.33
475.48	10087.71
475.66	10104.09
475.84	10230.48
476.02	10281.97
476.20	10321.76
476.38	10630.71
476.56	10752.42
476.74	10574.54
476.92	10469.22
477.10	10644.76
477.28	10841.36
477.46	10698.59
477.64	10892.85
477.82	11234.57
478.00	11517.78
478.18	11332.87
478.36	11225.21
478.54	11442.88
478.72	11527.14
478.90	11517.78
479.08	11566.93
479.26	11777.58
479.44	11536.50
479.62	11910.99
479.80	12145.04
479.98	12030.35
480.16	12386.12
480.34	12315.90
480.52	12264.41
480.70	12236.32
480.88	12301.86
481.06	12748.90
481.24	12517.18
481.41	12641.23
481.59	12933.80
481.77	12910.40
481.95	12994.65
482.13	13118.70
482.31	13107.00
482.49	13411.27
482.67	13497.87
482.85	13600.85
483.03	13598.51
483.21	13923.85
483.39	13914.48
483.57	14057.26
483.74	13944.91
483.92	13991.72
484.10	14108.75
484.28	14469.19
484.46	14485.58
484.64	14902.19
484.82	14745.38
485.00	15040.28
485.18	14977.09
485.35	15108.16
485.53	15115.18
485.71	15351.57
485.89	15529.45
486.07	15660.52
486.25	15721.38
486.43	15826.70
486.61	15859.47
486.78	16135.65
486.96	16145.02
487.14	16107.57
487.32	16608.44
487.50	16372.05
487.68	16528.86
487.85	16844.84
488.03	16812.07
488.21	17099.95
488.39	17179.53
488.57	17226.34
488.75	17252.09
488.92	17296.56
489.10	17516.57
489.28	17619.55
489.46	17905.10
489.64	18054.89
489.81	18195.32
489.99	18310.01
490.17	18256.18
490.35	18361.50
490.53	18537.04
490.70	19030.90
490.88	18878.76
491.06	19042.60
491.24	18991.11
491.41	19297.72
491.59	19264.95
491.77	19185.37
491.95	19353.89
492.13	19800.93
492.30	20137.97
492.48	19604.33
492.66	19817.32
492.84	20070.09
493.01	20416.49
493.19	20142.65
493.37	20517.14
493.54	20634.16
493.72	20952.48
493.90	20826.09
494.08	21010.99
494.25	21451.01
494.43	21163.12
494.61	21404.20
494.79	21223.98
494.96	21813.79
495.14	21436.97
495.32	21991.67
495.49	21720.17
495.67	21982.31
495.85	22104.02
496.02	22338.07
496.20	22480.85
496.38	22616.60
496.55	22698.52
496.73	23257.90
496.91	22890.44
497.09	23335.14
497.26	23199.39
497.44	23140.88
497.62	23442.81
497.79	24067.73
497.97	23796.23
498.14	23604.30
498.32	23784.52
498.50	23639.41
498.67	24474.98
498.85	24236.25
499.03	24257.31
499.20	24240.93
499.38	24615.41
499.56	24362.64
499.73	24812.02
499.91	24805.00
500.08	24879.89
500.26	24943.09
500.44	25034.37
500.61	25074.16
500.79	24973.52
500.97	25345.66
501.14	25593.76
501.32	25781.00
501.49	25280.13
501.67	25635.89
501.84	25783.34
502.02	25668.66
502.20	25568.01
502.37	25748.23
502.55	26082.93
502.72	26005.69
502.90	26441.03
503.07	26382.52
503.25	26448.05
503.43	26593.17
503.60	26614.23
503.78	26630.62
503.95	26838.92
504.13	26962.97
504.30	26941.91
504.48	27110.43
504.65	26897.44
504.83	27414.69
505.01	27428.74
505.18	27164.26
505.36	27618.32
505.53	27278.94
505.71	27351.50
505.88	27976.42
506.06	27623.00
506.23	28201.11
506.41	27807.90
506.58	27934.29
506.76	27906.21
506.93	28332.18
507.11	28278.35
507.28	28648.16
507.46	28474.96
507.63	28727.74
507.81	28577.94
507.98	28517.09
508.16	28694.97
508.33	28704.33
508.50	28596.67
508.68	29193.50
508.85	29156.05
509.03	29357.34
509.20	29567.99
509.38	29457.98
509.55	29895.66
509.73	30314.62
509.90	29886.30
510.08	29724.80
510.25	29991.62
510.42	29511.81
510.60	30008.01
510.77	29862.90
510.95	30312.28
511.12	29921.41
511.30	30459.73
511.47	30492.50
511.64	30323.98
511.82	30761.66
511.99	30487.82
512.17	30764.00
512.34	30635.27
512.51	31084.65
512.69	31040.18
512.86	31372.54
513.04	31360.84
513.21	30948.90
513.38	31459.14
513.56	31484.89
513.73	31709.58
513.90	31543.40
514.08	31482.55
514.25	32037.25
514.43	31679.15
514.60	32191.73
514.77	31707.24
514.95	32449.19
515.12	31723.62
515.29	32215.13
515.47	32081.72
515.64	32472.59
515.81	32442.17
515.99	32666.86
516.16	32505.36
516.33	32500.68
516.51	32711.33
516.68	32659.84
516.85	32919.63
517.03	33209.86
517.20	32910.27
517.37	32931.34
517.54	32872.82
517.72	33177.09
517.89	33282.42
518.06	33216.88
518.24	33280.08
518.41	33305.82
518.58	33546.90
518.75	32999.21
518.93	33860.53
519.10	33696.69
519.27	33827.76
519.45	33710.74
519.62	34192.89
519.79	34117.99
519.96	34260.76
520.14	34012.66
520.31	34230.33
520.48	34333.32
520.65	34108.63
520.83	35152.51
521.00	35101.01
521.17	34969.94
521.34	34754.61
521.52	34745.25
521.69	35033.14
521.86	35250.81
522.03	34761.64
522.20	35332.73
522.38	35316.34
522.55	35456.78
522.72	35454.44
522.89	35447.41
523.07	35938.93
523.24	36196.38
523.41	35585.50
523.58	35590.19
523.75	35744.66
523.92	36189.36
524.10	35576.14
524.27	35924.88
524.44	35842.96
524.61	36030.21
524.78	36521.72
524.96	36414.05
525.13	36158.94
525.30	36392.99
525.47	36446.82
525.64	36271.28
525.81	36425.76
525.98	36673.85
526.16	36779.18
526.33	36985.15
526.50	36912.59
526.67	36414.05
526.84	36737.05
527.01	36526.40
527.18	36989.83
527.36	37312.82
527.53	37399.42
527.70	37488.36
527.87	37390.06
528.04	37399.42
528.21	37633.47
528.38	37551.56
528.55	37593.68
528.72	37551.56
528.89	37783.27
529.07	37689.65
529.24	37504.74
529.41	37888.59
529.58	37659.22
529.75	37848.80
529.92	37453.25
530.09	38089.88
530.26	38099.24
530.43	37958.81
530.60	37832.42
530.77	38075.84
530.94	38370.74
531.11	38356.70
531.28	38274.78
531.46	38485.43
531.63	38590.75
531.80	38354.36
531.97	38815.44
532.14	38815.44
532.31	38974.60
532.48	39203.97
532.65	38808.42
532.82	38951.20
532.99	39215.68
533.16	38756.93
533.33	39016.73
533.50	39309.30
533.67	39281.21
533.84	39138.44
534.01	39033.11
534.18	39070.56
534.35	39803.15
534.52	39604.20
534.69	40053.59
534.86	39580.80
535.03	39917.84
535.20	40105.08
535.37	39784.43
535.54	39976.35
535.71	39936.56
535.88	40060.61
536.05	39653.36
536.22	40072.31
536.38	40414.03
536.55	39966.99
536.72	40058.27
536.89	40067.63
537.06	40240.83
537.23	40231.47
537.40	40161.25
537.57	40535.74
537.74	40112.10
537.91	40418.71
538.08	40526.38
538.25	40882.14
538.42	40519.35
538.59	40966.40
538.75	39835.92
538.92	40591.91
539.09	40662.13
539.26	40638.72
539.43	40690.21
539.60	40912.56
539.77	40861.07
539.94	41017.89
540.11	41256.62
540.28	41017.89
540.44	41170.02
540.61	41134.92
540.78	40704.26
540.95	41282.37
541.12	40999.16
541.29	41556.21
541.46	41577.28
541.62	41275.35
541.79	41539.83
541.96	41027.25
542.13	41294.07
542.30	41528.13
542.47	41544.51
542.63	41926.02
542.80	42171.77
542.97	42234.97
543.14	42555.62
543.31	42234.97
543.48	42366.04
543.64	42724.14
543.81	42562.64
543.98	42312.20
544.15	42057.09
544.32	42541.58
544.48	42756.91
544.65	42342.63
544.82	42305.18
544.99	42707.76
545.16	42527.53
545.32	42618.81
545.49	43124.37
545.66	43122.03
545.83	43206.29
546.00	43159.48
546.16	42941.81
546.33	43030.75
546.50	42499.45
546.67	43650.99
546.83	42546.26
547.00	43140.75
547.17	42714.78
547.34	43229.69
547.50	43646.31
547.67	43526.94
547.84	43349.06
548.00	43601.84
548.17	44091.01
548.34	43430.98
548.51	43597.16
548.67	43360.76
548.84	43931.86
549.01	43454.39
549.18	43761.00
549.34	43824.19
549.51	43948.24
549.68	43899.09
549.84	43700.14
550.01	44208.04
550.18	44032.50
550.34	44208.04
550.51	44119.10
550.68	44439.75
550.84	44257.19
551.01	44402.30
551.18	44100.37
551.34	44208.04
551.51	44472.52
551.68	44416.35
551.84	43880.36
552.01	44498.26
552.18	44140.16
552.34	44156.55
552.51	44280.60
552.68	44435.07
552.84	44603.59
553.01	44563.80
553.18	44601.25
553.34	44858.71
553.51	44151.87
553.67	44425.71
553.84	44531.03
554.01	45055.31
554.17	44919.56
554.34	44933.60
554.51	44804.88
554.67	45277.66
554.84	44669.12
555.00	44634.02
555.17	44697.21
555.33	45226.17
555.50	44961.69
555.67	45050.63
555.83	45067.02
556.00	45249.58
556.16	45471.93
556.33	45263.62
556.50	45090.42
556.66	44924.24
556.83	45050.63
556.99	45406.39
557.16	45441.50
557.32	45296.39
557.49	45621.72
557.65	45422.78
557.82	45750.45
557.98	45525.76
558.15	45478.95
558.32	45776.20
558.48	45272.98
558.65	45296.39
558.81	45607.68
558.98	45682.58
559.14	45546.82
559.31	45762.15
559.47	45741.09
559.64	45965.78
559.80	45808.96
559.97	46066.42
560.13	45778.54
560.30	46033.66
560.46	45925.99
560.63	46181.11
560.79	46057.06
560.96	46155.36
561.12	46246.65
561.29	46302.82
561.45	45703.64
561.61	46073.45
561.78	45883.86
561.94	46387.08
562.11	46543.89
562.27	46143.66
562.44	46101.53
562.60	46384.74
562.77	45893.22
562.93	46036.00
563.10	46625.81
563.26	46309.84
563.42	46646.88
563.59	46050.04
563.75	46277.07
563.92	46569.64
564.08	46185.79
564.24	46529.85
564.41	46396.44
564.57	46438.57
564.74	46522.83
564.90	46337.93
565.07	46211.54
565.23	46960.51
565.39	46866.89
565.56	46387.08
565.72	46478.36
565.88	46862.21
566.05	46307.50
566.21	46340.27
566.38	46726.46
566.54	46518.15
566.70	46815.40
566.87	46520.49
567.03	46569.64
567.19	47068.17
567.36	46801.35
567.52	46763.90
567.68	47168.82
567.85	46567.30
568.01	47276.48
568.17	46799.01
568.34	47271.80
568.50	47070.51
568.66	46731.14
568.83	46848.16
568.99	47330.31
569.15	46997.96
569.32	47143.07
569.48	46593.04
569.64	47494.15
569.81	47049.45
569.97	47119.66
570.13	47281.16
570.30	47028.38
570.46	46787.31
570.62	47543.30
570.78	47215.63
570.95	46979.23
571.11	47192.22
571.27	47051.79
571.43	46632.83
571.60	46995.62
571.76	46988.60
571.92	46866.89
572.09	47112.64
572.25	47007.32
572.41	47508.19
572.57	46941.78
572.74	47571.39
572.90	47232.01
573.06	47227.33
573.22	47365.42
573.38	47426.28
573.55	47496.49
573.71	47786.72
573.87	47276.48
574.03	47515.22
574.20	47339.68
574.36	47255.42
574.52	47505.85
574.68	47552.66
574.84	47461.38
575.01	47421.59
575.17	47522.24
575.33	47480.11
575.49	47054.13
575.65	47569.05
575.82	47690.76
575.98	47206.26
576.14	47749.27
576.30	47735.23
576.46	47391.17
576.62	47159.45
576.79	47449.68
576.95	47302.23
577.11	47210.95
577.27	47824.17
577.43	47838.21
577.59	47665.01
577.75	47309.25
577.92	47016.68
578.08	47786.72
578.24	47454.36
578.40	47468.40
578.56	47702.46
578.72	47641.60
578.88	47641.60
579.04	47580.75
579.21	47622.88
579.37	47887.36
579.53	47515.22
579.69	47550.32
579.85	47533.94
580.01	47367.76
580.17	47622.88
580.33	47676.71
580.49	47681.39
580.65	47878.00
580.82	47430.96
580.98	47498.83
581.14	47494.15
581.30	47700.12
581.46	47716.50
581.62	47318.61
581.78	47473.09
581.94	47625.22
582.10	47370.10
582.26	47985.66
582.42	47510.53
582.58	47756.29
582.74	48147.16
582.90	47751.61
583.06	47997.37
583.22	47564.37
583.38	47880.34
583.54	47945.87
583.70	48004.39
583.86	47973.96
584.02	47594.79
584.18	47819.49
584.34	47819.49
584.50	47796.08
584.66	47835.87
584.82	48156.52
584.98	48411.64
585.14	47824.17
585.30	47604.16
585.46	47814.80
585.62	47760.97
585.78	47550.32
585.94	47683.73
586.10	47475.43
586.26	47688.42
586.42	48013.75
586.58	47723.52
586.74	47929.49
586.90	47309.25
587.06	48023.11
587.22	48069.92
587.38	47800.76
587.54	48081.63
587.70	48245.46
587.86	47793.74
588.02	47964.60
588.18	48039.50
588.34	48254.82
588.49	47999.71
588.65	47793.74
588.81	48072.26
588.97	48367.17
589.13	48079.28
589.29	47929.49
589.45	48067.58
589.61	48175.25
589.77	48399.94
589.93	48390.58
590.08	48133.12
590.24	48292.27
590.40	48706.55
590.56	48786.13
590.72	48240.78
590.88	47817.14
591.04	47903.74
591.20	48252.48
591.35	48456.11
591.51	48744.00
591.67	48718.25
591.83	48254.82
591.99	48713.57
592.15	48191.63
592.31	48247.80
592.46	47878.00
592.62	48320.36
592.78	48559.09
592.94	48418.66
593.10	48753.36
593.26	48774.42
593.41	48633.99
593.57	48278.23
593.73	48619.95
593.89	48816.55
594.05	49055.29
594.20	48809.53
594.36	48629.31
594.52	48678.46
594.68	48217.38
594.84	48175.25
594.99	48912.52
595.15	48523.99
595.31	48751.02
595.47	48683.14
595.62	48718.25
595.78	48182.27
595.94	48617.61
596.10	48346.11
596.25	48540.37
596.41	48463.13
596.57	48659.74
596.73	48769.74
596.88	48411.64
597.04	48802.51
597.20	48711.23
597.36	48313.34
597.51	48870.39
597.67	48308.66
597.83	48362.49
597.99	48535.69
598.14	48130.78
598.30	48554.41
598.46	48877.41
598.61	49090.40
598.77	48615.27
598.93	48818.89
599.09	48610.59
599.24	48964.01
599.40	48683.14
599.56	48376.53
599.71	48987.41
599.87	49104.44
600.03	49076.35
600.18	48793.15
600.34	49076.35
600.50	48800.17
600.65	48680.80
600.81	48678.46
600.97	49057.63
601.12	48928.90
601.28	48678.46
601.44	48538.03
601.59	48591.86
601.75	48722.93
601.91	48987.41
602.06	48648.03
602.22	48942.94
602.37	48463.13
602.53	48577.82
602.69	48879.75
602.84	48870.39
603.00	48645.69
603.16	48715.91
603.31	48729.95
603.47	49038.90
603.62	48868.05
603.78	48580.16
603.94	48795.49
604.09	49059.97
604.25	48645.69
604.40	48601.22
604.56	48573.14
604.71	48741.66
604.87	48477.18
605.03	48516.96
605.18	48528.67
605.34	48872.73
605.49	48563.78
605.65	48502.92
605.80	48690.16
605.96	48755.70
606.12	48224.40
606.27	49034.22
606.43	48978.05
606.58	48645.69
606.74	48992.09
606.89	48783.79
607.05	48673.78
607.20	48830.60
607.36	49027.20
607.51	48715.91
607.67	48498.24
607.82	48554.41
607.98	48451.43
608.13	48861.02
608.29	48760.38
608.44	48622.29
608.60	48615.27
608.75	48428.02
608.91	48720.59
609.06	48432.71
609.22	49050.61
609.37	48624.63
609.53	48697.19
609.68	48629.31
609.84	48493.56
609.99	48751.02
610.15	48633.99
610.30	48961.67
610.46	48315.68
610.61	48102.69
610.76	48701.87
610.92	48289.93
611.07	48168.22
611.23	48318.02
611.38	48158.86
611.54	48467.81
611.69	48605.91
611.84	48376.53
612.00	48093.33
612.15	48154.18
612.31	48292.27
612.46	48093.33
612.62	48229.08
612.77	48257.17
612.92	48676.12
613.08	47739.91
613.23	48430.36
613.39	48233.76
613.54	47908.43
613.69	48280.57
613.85	48030.13
614.00	48151.84
614.15	48573.14
614.31	47922.47
614.46	48140.14
614.62	47887.36
614.77	47983.32
614.92	47985.66
615.08	47742.25
615.23	47849.91
615.38	48318.02
615.54	48289.93
615.69	48151.84
615.84	48051.20
616.00	47880.34
616.15	48055.88
616.30	48219.72
616.46	47941.19
616.61	47459.04
616.76	48126.10
616.92	47845.23
617.07	47800.76
617.22	47613.52
617.37	47711.82
617.53	47859.27
617.68	47775.02
617.83	47604.16
617.99	47908.43
618.14	47878.00
618.29	47620.54
618.45	47021.36
618.60	47763.31
618.75	47391.17
618.90	47489.47
619.06	47643.94
619.21	47178.18
619.36	47913.11
619.51	47278.82
619.67	47318.61
619.82	47395.85
619.97	47655.65
620.12	47522.24
620.28	47269.46
620.43	47737.57
620.58	47562.03
620.73	47456.70
620.89	47995.03
621.04	47657.99
621.19	47452.02
621.34	47311.59
621.49	47398.19
621.65	46852.84
621.80	47653.31
621.95	47058.81
622.10	47391.17
622.25	46995.62
622.41	47604.16
622.56	47311.59
622.71	47075.19
622.86	47229.67
623.01	47309.25
623.16	46976.89
623.32	47356.06
623.47	47409.89
623.62	47028.38
623.77	47103.28
623.92	46962.85
624.07	46897.31
624.23	47405.21
624.38	46810.71
624.53	46611.77
624.68	46859.87
624.83	46625.81
624.98	46763.90
625.13	46623.47
625.29	46609.43
625.44	46691.35
625.59	47386.49
625.74	47281.16
625.89	46724.11
626.04	46752.20
626.19	46239.62
626.34	46274.73
626.49	46202.18
626.65	46356.65
626.80	46373.03
626.95	46356.65
627.10	46127.28
627.25	46281.75
627.40	46146.00
627.55	46616.45
627.70	46492.40
627.85	46780.29
628.00	46784.97
628.15	46724.11
628.30	45902.59
628.45	46288.77
628.60	45397.03
628.76	45883.86
628.91	45713.00
629.06	45647.47
629.21	46185.79
629.36	46003.23
629.51	45668.53
629.66	46485.38
629.81	45968.12
629.96	46335.59
630.11	45947.06
630.26	45881.52
630.41	45734.07
630.56	45722.37
630.71	45787.90
630.86	46000.89
631.01	45411.07
631.16	45455.54
631.31	46108.55
631.46	45640.45
631.61	46244.30
631.76	45748.11
631.91	45762.15
632.06	46031.32
632.21	45684.92
632.36	45783.22
632.51	45170.00
632.66	45626.40
632.81	45565.55
632.96	45221.49
633.10	45270.64
633.25	45429.80
633.40	45663.85
633.55	45668.53
633.70	45539.80
633.85	45497.67
634.00	45111.49
634.15	45408.73
634.30	44835.30
634.45	45177.02
634.60	45640.45
634.75	45186.38
634.90	45181.70
635.05	45567.89
635.19	45132.55
635.34	45240.21
635.49	45336.18
635.64	45406.39
635.79	45521.08
635.94	45460.23
636.09	45160.64
636.24	44945.31
636.39	45361.92
636.53	45132.55
636.68	44708.91
636.83	44893.82
636.98	44449.11
637.13	44453.79
637.28	45020.20
637.43	44498.26
637.57	45008.50
637.72	44631.68
637.87	45017.86
638.02	44938.29
638.17	45127.87
638.32	44655.08
638.46	44706.57
638.61	44367.20
638.76	44481.88
638.91	44884.45
639.06	44650.40
639.20	44156.55
639.35	44320.38
639.50	44170.59
639.65	44378.90
639.80	44453.79
639.94	44634.02
640.09	44320.38
640.24	44189.31
640.39	43805.47
640.54	44098.03
640.68	44594.23
640.83	44612.95
640.98	44294.64
641.13	43835.89
641.27	43981.01
641.42	44128.46
641.57	43861.64
641.72	43861.64
641.86	43999.73
642.01	43810.15
642.16	43959.94
642.31	43817.17
642.45	44308.68
642.60	43569.07
642.75	43838.23
642.90	43791.42
643.04	43786.74
643.19	43423.96
643.34	43531.62
643.48	43239.06
643.63	43648.65
643.78	44191.65
643.93	44041.86
644.07	44126.12
644.22	43962.28
644.37	43269.48
644.51	43665.03
644.66	43826.53
644.81	43543.33
644.95	43634.61
645.10	43164.16
645.25	43398.21
645.39	43225.01
645.54	43512.90
645.69	42916.06
645.83	43215.65
645.98	43522.26
646.13	43009.68
646.27	42873.93
646.42	43042.45
646.57	43414.60
646.71	43400.55
646.86	43035.43
647.00	43199.27
647.15	43386.51
647.30	42946.49
647.44	43192.25
647.59	43260.12
647.74	43007.34
647.88	43107.99
648.03	43255.44
648.17	43573.75
648.32	43442.68
648.47	43054.15
648.61	42946.49
648.76	42843.51
648.90	43199.27
649.05	42892.66
649.20	43061.18
649.34	42777.97
649.49	42958.19
649.63	42934.79
649.78	43005.00
649.92	42911.38
650.07	43416.94
650.21	43143.09
650.36	42880.95
650.51	42326.25
650.65	42941.81
650.80	42810.74
650.94	42974.58
651.09	42490.09
651.23	42153.05
651.38	42195.18
651.52	42480.72
651.67	42569.66
651.81	42340.29
651.96	42777.97
652.10	42272.42
652.25	42321.57
652.39	42190.50
652.54	42351.99
652.68	42010.28
652.83	42323.91
652.97	42124.96
653.12	41888.57
653.26	42277.10
653.41	41940.06
653.55	41696.64
653.70	42316.89
653.84	42082.83
653.99	42197.52
654.13	41928.36
654.27	41951.76
654.42	42408.17
654.56	41776.22
654.71	42539.24
654.85	42466.68
655.00	41811.33
655.14	42061.77
655.29	42066.45
655.43	42136.66
655.57	41762.18
655.72	41450.89
655.86	41282.37
656.01	41172.36
656.15	41404.08
656.30	41247.26
656.44	41717.71
656.58	41736.43
656.73	41937.72
656.87	40879.80
657.01	41467.27
657.16	41624.09
657.30	41460.25
657.45	41474.29
657.59	41256.62
657.73	41303.43
657.88	41097.47
658.02	41539.83
658.16	41448.55
658.31	41340.88
658.45	41200.45
658.60	41106.83
658.74	41441.53
658.88	41273.01
659.03	40959.38
659.17	40840.01
659.31	40854.05
659.46	40673.83
659.60	41361.95
659.74	40683.19
659.89	40694.89
660.03	40641.06
660.17	40692.55
660.32	40910.22
660.46	40622.34
660.60	40217.43
660.74	40093.38
660.89	40252.53
661.03	40034.86
661.17	39819.53
661.32	40556.80
661.46	40332.11
661.60	40034.86
661.74	39693.15
661.89	39878.05
662.03	40084.01
662.17	39423.98
662.31	39613.57
662.46	40308.71
662.60	40091.04
662.74	39641.65
662.88	39117.37
663.03	39414.62
663.17	39185.25
663.31	39533.99
663.45	40107.42
663.60	39653.36
663.74	39519.95
663.88	39367.81
664.02	38951.20
664.17	39548.03
664.31	39288.23
664.45	38698.42
664.59	39356.11
664.73	38983.96
664.88	39051.84
665.02	38831.83
665.16	39182.91
665.30	38897.36
665.44	38682.03
665.59	38534.58
665.73	38724.16
665.87	38047.75
666.01	38457.34
666.15	38096.90
666.29	37914.34
666.44	38852.89
666.58	38852.89
666.72	38040.73
666.86	37691.99
667.00	38253.72
667.14	38059.45
667.28	37813.70
667.43	38342.66
667.57	38232.65
667.71	38288.82
667.85	38080.52
667.99	37830.08
668.13	37734.12
668.27	37806.67
668.41	37577.30
668.56	37179.41
668.70	37109.19
668.84	36854.08
668.98	36833.01
669.12	37273.03
669.26	37188.77
669.40	37202.82
669.54	36769.82
669.68	37228.56
669.82	36971.10
669.96	36453.84
670.10	36442.14
670.25	36563.85
670.39	36346.18
670.53	36959.40
670.67	36828.33
670.81	36463.21
670.95	36804.92
671.09	36304.05
671.23	36306.39
671.37	36184.68
671.51	35948.29
671.65	36268.94
671.79	35641.68
671.93	36694.92
672.07	36350.86
672.21	36037.23
672.35	35566.78
672.49	35758.70
672.63	35880.41
672.77	35426.35
672.91	35424.01
673.05	35346.77
673.19	34735.89
673.33	35211.02
673.47	35346.77
673.61	34773.34
673.75	34813.13
673.89	34787.38
674.03	34733.55
674.17	34548.65
674.31	34323.96
674.45	34466.73
674.59	34831.85
674.73	34143.74
674.87	34398.85
675.01	34087.56
675.15	33900.32
675.29	34024.37
675.43	34445.66
675.56	33937.77
675.70	33783.29
675.84	33703.71
675.98	32788.56
676.12	33511.79
676.26	33675.63
676.40	33064.75
676.54	33060.07
676.68	33003.89
676.82	32418.76
676.96	33291.78
677.10	33404.13
677.23	32636.43
677.37	32751.12
677.51	32643.45
677.65	32685.58
677.79	32273.65
677.93	32425.78
678.07	32336.84
678.21	31964.70
678.34	32126.19
678.48	32044.27
678.62	31772.77
678.76	31505.95
678.90	31793.84
679.04	31718.94
679.18	32093.43
679.31	31693.19
679.45	31285.94
679.59	31264.88
679.73	31082.31
679.87	30874.01
680.00	31117.42
680.14	30852.94
680.28	30841.24
680.42	30541.65
680.56	30319.30
680.70	30490.16
680.83	30352.07
680.97	30553.35
681.11	30319.30
681.25	29780.98
681.39	29598.41
681.52	29652.25
681.66	29544.58
681.80	29343.30
681.94	29071.79
682.07	29062.43
682.21	29282.44
682.35	29181.80
682.49	29109.24
682.62	29053.07
682.76	28816.68
682.90	28786.25
683.04	28891.57
683.17	28694.97
683.31	28151.96
683.45	28521.77
683.59	28416.44
683.72	28182.39
683.86	28173.03
684.00	27805.56
684.13	27948.34
684.27	27524.70
684.41	27580.87
684.55	27805.56
684.68	27962.38
684.82	27262.56
684.96	27651.09
685.09	27452.14
685.23	27501.29
685.37	27613.64
685.50	27548.11
685.64	27014.46
685.78	26764.03
685.91	26548.70
686.05	26265.49
686.19	26075.91
686.32	26307.62
686.46	26008.03
686.60	25720.15
686.73	26148.46
686.87	26024.42
687.01	26171.87
687.14	26036.12
687.28	25778.66
687.42	25720.15
687.55	25106.93
687.69	25916.75
687.82	25123.31
687.96	25109.27
688.10	25385.45
688.23	25055.43
688.37	25362.04
688.50	25247.36
688.64	24842.45
688.78	25034.37
688.91	24526.47
689.05	24828.40
689.18	24271.36
689.32	23997.51
689.46	24095.82
689.59	24390.72
689.73	24278.38
689.86	24121.56
690.00	24018.58
690.13	23878.15
690.27	23744.73
690.41	23599.62
690.54	23538.77
690.68	23335.14
690.81	23283.65
690.95	23374.93
691.08	23220.45
691.22	22527.66
691.35	22857.67
691.49	23042.57
691.62	22735.96
691.76	22597.87
691.89	22508.93
692.03	22125.08
692.16	22375.52
692.30	22221.05
692.43	21991.67
692.57	22089.98
692.70	21809.11
692.84	21860.60
692.97	21664.00
693.11	21593.78
693.24	21467.39
693.38	21436.97
693.51	21486.12
693.65	20919.71
693.78	20938.43
693.92	20856.51
694.05	20769.91
694.19	21022.69
694.32	20917.37
694.45	20875.24
694.59	20659.91
694.72	21067.16
694.86	20507.77
694.99	20374.36
695.13	20025.62
695.26	20137.97
695.39	19679.22
695.53	19967.11
695.66	20149.67
695.80	19728.38
695.93	19847.74
696.07	19426.45
696.20	19353.89
696.33	19262.61
696.47	19171.33
696.60	19168.99
696.73	19269.63
696.87	19381.98
697.00	19260.27
697.14	18883.44
697.27	18750.03
697.40	18773.44
697.54	18948.98
697.67	18525.34
697.80	18539.38
697.94	18726.63
698.07	18295.97
698.21	18225.75
698.34	18136.81
698.47	18211.71
698.61	17991.70
698.74	17802.11
698.87	17933.18
699.01	17413.59
699.14	18038.51
699.27	17649.98
699.40	17439.33
699.54	17593.81
699.67	17455.72
699.80	17469.76
699.94	17455.72
700.07	17387.84
700.20	17039.10
700.34	16727.81
700.47	16978.25
700.60	17088.25
700.73	17149.11
700.87	16582.70
701.00	16484.39
701.13	16145.02
701.26	16573.33
701.40	16348.64
701.53	16121.61
701.66	16112.25
701.79	16489.07
701.93	15936.71
702.06	15737.76
702.19	15634.78
702.32	15868.83
702.46	15779.89
702.59	16133.31
702.72	15847.77
702.85	15733.08
702.99	15686.27
703.12	15267.31
703.25	15335.19
703.38	15227.53
703.51	15145.61
703.65	14834.32
703.78	14920.92
703.91	14546.43
704.04	14911.55
704.17	14951.34
704.31	14881.13
704.44	14700.90
704.57	14441.11
704.70	14450.47
704.83	14541.75
704.96	14193.01
705.10	14258.54
705.23	13809.16
>>>>>End Processed Spectral Data<<<<<
