SpectraSuite Data File
++++++++++++++++++++++++++++++++++++
Date: Fri Oct 25 10:47:06 EDT 2013
User: price-jones
Dark Spectrum Present: No
Reference Spectrum Present: No
Number of Sampled Component Spectra: 1
Spectrometers: USB2+H05261
Integration Time (usec): 100000 (USB2+H05261)
Spectra Averaged: 1 (USB2+H05261)
Boxcar Smoothing: 0 (USB2+H05261)
Correct for Electrical Dark: No (USB2+H05261)
Strobe/Lamp Enabled: No (USB2+H05261)
Correct for Detector Non-linearity: No (USB2+H05261)
Correct for Stray Light: No (USB2+H05261)
Number of Pixels in Processed Spectrum: 2048
>>>>>Begin Processed Spectral Data<<<<<
365.73	124.05
365.92	124.05
366.12	124.05
366.32	58.51
366.52	30.43
366.72	79.58
366.91	44.47
367.11	21.06
367.31	46.81
367.51	16.38
367.70	21.06
367.90	49.15
368.10	18.72
368.30	63.19
368.49	105.32
368.69	4.68
368.89	46.81
369.09	105.32
369.28	88.94
369.48	72.56
369.68	114.69
369.87	56.17
370.07	65.54
370.27	107.66
370.47	205.97
370.66	351.08
370.86	386.19
371.06	463.43
371.25	456.40
371.45	395.55
371.65	425.98
371.84	379.17
372.04	437.68
372.24	512.58
372.44	484.49
372.63	489.17
372.83	484.49
373.03	484.49
373.22	484.49
373.42	503.22
373.62	559.39
373.81	510.24
374.01	575.77
374.21	568.75
374.40	547.69
374.60	526.62
374.79	545.34
374.99	545.34
375.19	493.85
375.38	620.24
375.58	573.43
375.78	561.73
375.97	589.82
376.17	594.50
376.37	531.30
376.56	634.29
376.76	622.58
376.95	631.94
377.15	624.92
377.35	624.92
377.54	571.09
377.74	582.79
377.93	610.88
378.13	599.18
378.33	620.24
378.52	674.07
378.72	561.73
378.91	603.86
379.11	617.90
379.31	566.41
379.50	571.09
379.70	683.44
379.89	697.48
380.09	634.29
380.28	739.61
380.48	688.12
380.68	645.99
380.87	655.35
381.07	699.82
381.26	667.05
381.46	634.29
381.65	627.26
381.85	653.01
382.04	608.54
382.24	685.78
382.43	690.46
382.63	631.94
382.83	692.80
383.02	765.36
383.22	765.36
383.41	713.86
383.61	748.97
383.80	716.20
384.00	748.97
384.19	720.88
384.39	746.63
384.58	746.63
384.78	755.99
384.97	833.23
385.17	699.82
385.36	816.85
385.56	734.93
385.75	751.31
385.95	891.74
386.14	891.74
386.34	748.97
386.53	802.80
386.72	784.08
386.92	767.70
387.11	800.46
387.31	744.29
387.50	798.12
387.70	875.36
387.89	844.93
388.09	863.66
388.28	812.17
388.48	875.36
388.67	837.91
388.86	828.55
389.06	866.00
389.25	896.43
389.45	854.30
389.64	875.36
389.84	898.77
390.03	1001.75
390.22	863.66
390.42	816.85
390.61	877.70
390.81	880.04
391.00	943.24
391.19	978.34
391.39	1006.43
391.58	954.94
391.78	950.26
391.97	968.98
392.16	959.62
392.36	1015.79
392.55	985.37
392.75	929.19
392.94	887.06
393.13	915.15
393.33	917.49
393.52	968.98
393.71	999.41
393.91	1006.43
394.10	985.37
394.29	1076.65
394.49	990.05
394.68	1198.35
394.88	1069.62
395.07	1093.03
395.26	1125.80
395.46	1132.82
395.65	1078.99
395.84	1055.58
396.04	1149.20
396.23	1093.03
396.42	1153.88
396.62	1123.46
396.81	1214.74
397.00	1177.29
397.19	1205.38
397.39	1149.20
397.58	1256.87
397.77	1245.16
397.97	1284.95
398.16	1228.78
398.35	1252.19
398.55	1259.21
398.74	1301.34
398.93	1317.72
399.12	1289.64
399.32	1373.89
399.51	1306.02
399.70	1352.83
399.90	1296.66
400.09	1427.73
400.28	1446.45
400.47	1294.32
400.67	1406.66
400.86	1331.76
401.05	1563.48
401.24	1437.09
401.44	1516.67
401.63	1455.81
401.82	1490.92
402.01	1540.07
402.21	1528.37
402.40	1472.20
402.59	1519.01
402.78	1469.86
402.97	1549.43
403.17	1523.69
403.36	1497.94
403.55	1626.67
403.74	1577.52
403.93	1661.78
404.13	1577.52
404.32	1659.44
404.51	1678.16
404.70	1577.52
404.89	1575.18
405.09	1783.49
405.28	1647.74
405.47	1600.93
405.66	1699.23
405.85	1680.50
406.05	1692.21
406.24	1753.06
406.43	1839.66
406.62	1825.62
406.81	1818.60
407.00	1825.62
407.20	1760.08
407.39	1851.36
407.58	1874.77
407.77	1916.90
407.96	1996.48
408.15	1923.92
408.34	1870.09
408.54	1914.56
408.73	1970.73
408.92	1921.58
409.11	2001.16
409.30	2141.59
409.49	2031.58
409.68	1973.07
409.87	2015.20
410.07	2132.23
410.26	2101.80
410.45	2010.52
410.64	2179.04
410.83	2270.32
411.02	2200.10
411.21	2146.27
411.40	2239.89
411.59	2366.28
411.78	2298.41
411.98	2333.51
412.17	2532.46
412.36	2305.43
412.55	2431.82
412.74	2422.45
412.93	2530.12
413.12	2399.05
413.31	2438.84
413.50	2544.16
413.69	2527.78
413.88	2621.40
414.07	2551.18
414.26	2548.84
414.45	2544.16
414.64	2630.76
414.83	2708.00
415.02	2689.28
415.22	2663.53
415.41	2775.88
415.60	2771.19
415.79	2801.62
415.98	2743.11
416.17	2820.35
416.36	2991.20
416.55	2843.75
416.74	2920.99
416.93	2822.69
417.12	2754.81
417.31	2965.46
417.50	3000.57
417.69	3091.85
417.88	3073.12
418.07	2946.73
418.26	3155.04
418.45	3169.09
418.64	3290.79
418.83	3213.56
419.02	3030.99
419.21	3082.49
419.39	3166.74
419.58	3066.10
419.77	3199.51
419.96	3281.43
420.15	3412.50
420.34	3363.35
420.53	3290.79
420.72	3433.57
420.91	3375.05
421.10	3386.76
421.29	3482.72
421.48	3314.20
421.67	3552.93
421.86	3400.80
422.05	3283.77
422.24	3300.16
422.43	3487.40
422.61	3471.01
422.80	3414.84
422.99	3468.67
423.18	3543.57
423.37	3475.70
423.56	3529.53
423.75	3585.70
423.94	3501.44
424.13	3433.57
424.32	3325.90
424.50	3440.59
424.69	3571.66
424.88	3648.90
425.07	3332.92
425.26	3426.54
425.45	3550.59
425.64	3503.78
425.83	3569.32
426.01	3534.21
426.20	3454.63
426.39	3602.08
426.58	3559.95
426.77	3592.72
426.96	3609.11
427.15	3599.74
427.33	3679.32
427.52	3473.36
427.71	3742.52
427.90	3585.70
428.09	3712.09
428.28	3864.22
428.46	3721.45
428.65	3637.19
428.84	3955.51
429.03	3840.82
429.22	3744.86
429.40	3735.50
429.59	3756.56
429.78	3604.42
429.97	3658.26
430.16	3777.62
430.34	3798.69
430.53	3859.54
430.72	3894.65
430.91	3817.41
431.10	3786.99
431.28	4131.05
431.47	4154.45
431.66	4175.52
431.85	4072.53
432.03	4224.67
432.22	4177.86
432.41	4133.39
432.60	4196.58
432.79	4306.59
432.97	4208.28
433.16	4205.94
433.35	4222.33
433.54	4306.59
433.72	4266.80
433.91	4386.16
434.10	4344.03
434.28	4273.82
434.47	4229.35
434.66	4437.66
434.85	4196.58
435.03	4337.01
435.22	4397.87
435.41	4645.96
435.59	4498.51
435.78	4578.09
435.97	4620.22
436.16	4608.51
436.34	4568.73
436.53	4631.92
436.72	4585.11
436.90	4526.60
437.09	4608.51
437.28	4444.68
437.46	4652.98
437.65	4608.51
437.84	4660.01
438.02	4613.20
438.21	4664.69
438.40	4599.15
438.58	4894.06
438.77	4833.21
438.96	5011.09
439.14	4924.49
439.33	5151.52
439.52	4990.02
439.70	4966.62
439.89	5203.01
440.08	5273.23
440.26	5195.99
440.45	4922.15
440.63	5256.84
440.82	5296.63
441.01	5181.95
441.19	5404.30
441.38	5359.83
441.57	5486.22
441.75	5476.85
441.94	5427.70
442.12	5596.22
442.31	5544.73
442.50	5647.71
442.68	5612.60
442.87	5624.31
443.05	5734.31
443.24	5935.60
443.43	5717.93
443.61	5760.06
443.80	5900.49
443.98	5554.09
444.17	5633.67
444.35	5830.27
444.54	5748.36
444.73	5837.30
444.91	5884.11
445.10	5612.60
445.28	5771.76
445.47	5666.44
445.65	5790.49
445.84	5795.17
446.02	5692.18
446.21	5980.07
446.39	5755.38
446.58	5963.68
446.77	5926.24
446.95	5949.64
447.14	6003.47
447.32	5921.56
447.51	5858.36
447.69	5860.70
447.88	5989.43
448.06	6047.94
448.25	5987.09
448.43	6008.16
448.62	5928.58
448.80	6026.88
448.99	6111.14
449.17	6087.73
449.36	6061.99
449.54	6221.14
449.73	6263.27
449.91	6258.59
450.10	6331.15
450.28	6457.54
450.46	6349.87
450.65	6363.92
450.83	6314.77
451.02	6408.39
451.20	6452.86
451.39	6497.33
451.57	6560.52
451.76	6392.00
451.94	6452.86
452.13	6377.96
452.31	6523.07
452.49	6368.60
452.68	6450.52
452.86	6401.37
453.05	6565.20
453.23	6654.14
453.42	6553.50
453.60	6513.71
453.78	6733.72
453.97	6487.96
454.15	6471.58
454.34	6878.83
454.52	6787.55
454.70	6672.87
454.89	6689.25
455.07	6684.57
455.26	6703.29
455.44	6946.71
455.62	6897.56
455.81	6853.09
455.99	6897.56
456.17	6869.47
456.36	6946.71
456.54	6883.52
456.73	7059.06
456.91	7206.51
457.09	7297.79
457.28	7314.17
457.46	7227.57
457.64	7171.40
457.83	7360.98
458.01	7346.94
458.19	7419.50
458.38	7419.50
458.56	7384.39
458.74	7424.18
458.93	7255.66
459.11	7405.46
459.29	7428.86
459.48	7475.67
459.66	7618.44
459.84	7454.61
460.03	7707.38
460.21	7669.94
460.39	7602.06
460.57	7588.02
460.76	7665.25
460.94	7805.69
461.12	7658.23
461.31	7747.17
461.49	7639.51
461.67	7817.39
461.85	7925.05
462.04	7882.92
462.22	8191.88
462.40	7932.08
462.59	7990.59
462.77	8013.99
462.95	8030.38
463.13	8142.72
463.32	7810.37
463.50	8105.28
463.68	8088.89
463.86	8081.87
464.05	7927.39
464.23	7880.58
464.41	8166.13
464.59	8023.36
464.78	8313.58
464.96	8079.53
465.14	8135.70
465.32	8322.94
465.50	8411.89
465.69	8154.43
465.87	8238.69
466.05	8217.62
466.23	8100.59
466.41	8367.42
466.60	8278.47
466.78	8292.52
466.96	8365.07
467.14	8306.56
467.32	8388.48
467.51	8678.71
467.69	8156.77
467.87	8397.84
468.05	8540.61
468.23	8409.54
468.41	8418.91
468.60	8575.72
468.78	8596.79
468.96	8662.32
469.14	8732.54
469.32	8861.27
469.50	8482.10
469.69	8879.99
469.87	8961.91
470.05	8844.88
470.23	8898.72
470.41	8723.18
470.59	8973.61
470.77	8868.29
470.95	8870.63
471.14	9158.52
471.32	9027.45
471.50	9259.16
471.68	9160.86
471.86	9341.08
472.04	9394.91
472.22	9406.61
472.40	9341.08
472.58	9397.25
472.77	9528.32
472.95	9657.05
473.13	9846.63
473.31	9458.10
473.49	9685.14
473.67	9706.20
473.85	9678.12
474.03	9930.89
474.21	9970.68
474.39	10059.62
474.57	10068.98
474.75	10188.35
474.93	9912.17
475.12	10148.56
475.30	10153.24
475.48	10108.77
475.66	10136.86
475.84	10256.23
476.02	10235.16
476.20	10345.17
476.38	10438.79
476.56	10696.25
476.74	10700.93
476.92	10684.55
477.10	10817.96
477.28	10707.95
477.46	11047.33
477.64	11087.12
477.82	11321.17
478.00	11276.70
478.18	11225.21
478.36	11616.08
478.54	11548.20
478.72	11353.94
478.90	11667.57
479.08	11726.08
479.26	11782.26
479.44	11967.16
479.62	11997.59
479.80	11932.05
479.98	11978.86
480.16	12542.93
480.34	12056.10
480.52	12311.22
480.70	12231.64
480.88	12233.98
481.06	12587.40
481.24	12315.90
481.41	12922.10
481.59	12879.97
481.77	13078.91
481.95	13036.78
482.13	13233.39
482.31	13214.66
482.49	13518.93
482.67	13406.59
482.85	13455.74
483.03	13692.13
483.21	13788.10
483.39	13970.66
483.57	14015.13
483.74	14157.90
483.92	14078.32
484.10	14176.62
484.28	14277.27
484.46	14579.20
484.64	14754.74
484.82	14424.72
485.00	14813.25
485.18	15066.03
485.35	15363.28
485.53	14871.76
485.71	14902.19
485.89	15236.89
486.07	15211.14
486.25	15456.90
486.43	15445.20
486.61	15653.50
486.78	15791.59
486.96	15723.72
487.14	16217.57
487.32	16245.66
487.50	16264.38
487.68	16659.93
487.85	16542.91
488.03	16950.16
488.21	16936.12
488.39	16919.73
488.57	17200.60
488.75	17289.54
488.92	17530.61
489.10	17638.28
489.28	17752.96
489.46	18001.06
489.64	17884.03
489.81	18183.62
489.99	18450.44
490.17	18506.62
490.35	18843.65
490.53	18501.93
490.70	18658.75
490.88	18817.91
491.06	18904.51
491.24	18958.34
491.41	18878.76
491.59	19290.70
491.77	19173.67
491.95	19164.31
492.13	19749.44
492.30	19674.54
492.48	19913.28
492.66	19917.96
492.84	19967.11
493.01	20137.97
493.19	19946.05
493.37	20500.75
493.54	20353.30
493.72	20535.86
493.90	20620.12
494.08	20849.49
494.25	21057.80
494.43	21219.30
494.61	21376.11
494.79	21558.67
494.96	21563.36
495.14	21420.58
495.32	21422.92
495.49	21544.63
495.67	21708.47
495.85	22274.88
496.02	22618.94
496.20	22347.44
496.38	22618.94
496.55	22352.12
496.73	22703.20
496.91	22705.54
497.09	22513.61
497.26	23117.47
497.44	22717.24
497.62	23314.08
497.79	23201.73
497.97	23541.11
498.14	23372.59
498.32	23396.00
498.50	23349.18
498.67	23882.83
498.85	23941.34
499.03	23936.66
499.20	24142.63
499.38	24098.16
499.56	24318.17
499.73	24109.86
499.91	24032.62
500.08	24341.57
500.26	24772.23
500.44	24465.62
500.61	25034.37
500.79	24592.01
500.97	24751.17
501.14	25235.66
501.32	25425.24
501.49	25118.63
501.67	25275.45
501.84	25535.24
502.02	25575.03
502.20	25537.59
502.37	25619.50
502.55	25612.48
502.72	25729.51
502.90	25965.90
503.07	25764.62
503.25	25373.75
503.43	26157.83
503.60	26494.86
503.78	26164.85
503.95	26319.32
504.13	26614.23
504.30	26572.10
504.48	26522.95
504.65	26740.62
504.83	26998.08
505.01	27005.10
505.18	26242.09
505.36	27323.41
505.53	27161.92
505.71	27473.21
505.88	27311.71
506.06	27208.73
506.23	27344.48
506.41	27428.74
506.58	27669.81
506.76	27445.12
506.93	27744.71
507.11	27639.39
507.28	27828.97
507.46	27819.61
507.63	27875.78
507.81	28067.70
507.98	28044.30
508.16	28411.76
508.33	28477.30
508.50	28371.97
508.68	28535.81
508.85	29130.31
509.03	28833.06
509.20	28577.94
509.38	29006.26
509.55	28563.90
509.73	28924.34
509.90	28891.57
510.08	28959.45
510.25	29390.11
510.42	29137.33
510.60	29577.35
510.77	29432.24
510.95	29345.64
511.12	29827.79
511.30	29652.25
511.47	29563.31
511.64	30024.39
511.82	30085.25
511.99	29888.64
512.17	30066.52
512.34	29682.67
512.51	30326.32
512.69	30649.32
512.86	30206.95
513.04	30906.77
513.21	30560.37
513.38	30518.25
513.56	30628.25
513.73	30279.51
513.90	30897.41
514.08	30602.50
514.25	30913.80
514.43	30969.97
514.60	31105.72
514.77	30876.35
514.95	31414.67
515.12	31285.94
515.29	31615.96
515.47	31620.64
515.64	31634.68
515.81	31239.13
515.99	31435.74
516.16	31505.95
516.33	31246.15
516.51	31850.01
516.68	31211.04
516.85	31599.57
517.03	31978.74
517.20	31908.52
517.37	32004.49
517.54	32182.37
517.72	32226.84
517.89	32271.31
518.06	32311.10
518.24	32264.28
518.41	32453.87
518.58	32100.45
518.75	32130.87
518.93	32570.90
519.10	33071.77
519.27	33060.07
519.45	32842.40
519.62	33207.52
519.79	32851.76
519.96	33237.95
520.14	33362.00
520.31	33085.81
520.48	33507.11
520.65	33336.25
520.83	33483.70
521.00	33425.19
521.17	33993.94
521.34	33626.48
521.52	33682.65
521.69	33486.04
521.86	33837.12
522.03	34101.61
522.20	33860.53
522.38	34288.85
522.55	33975.22
522.72	33928.41
522.89	33853.51
523.07	34242.04
523.24	34209.27
523.41	34581.42
523.58	34436.30
523.75	34632.91
523.92	34569.71
524.10	34731.21
524.27	34738.23
524.44	35037.82
524.61	34745.25
524.78	35068.25
524.96	35431.03
525.13	35159.53
525.30	35468.48
525.47	35721.26
525.64	35519.97
525.81	35248.47
525.98	35292.94
526.16	35133.78
526.33	35248.47
526.50	35255.49
526.67	35679.13
526.84	35435.71
527.01	35442.73
527.18	35332.73
527.36	35739.98
527.53	35955.31
527.70	36240.86
527.87	35957.65
528.04	35967.01
528.21	36194.04
528.38	36407.03
528.55	36229.15
528.72	36285.33
528.89	36381.29
529.07	36154.26
529.24	36350.86
529.41	36807.26
529.58	36233.83
529.75	36400.01
529.92	36629.38
530.09	36765.14
530.26	36456.18
530.43	36624.70
530.60	36676.19
530.77	36872.80
530.94	37282.39
531.11	37144.30
531.28	37184.09
531.46	37376.01
531.63	37163.03
531.80	37457.93
531.97	37319.84
532.14	37191.11
532.31	36870.46
532.48	37455.59
532.65	37289.42
532.82	37354.95
532.99	37563.26
533.16	37373.67
533.33	37652.20
533.50	37656.88
533.67	38103.92
533.84	37649.86
534.01	37757.52
534.18	37525.81
534.35	37972.85
534.52	37954.13
534.69	37766.88
534.86	38110.94
535.03	37787.95
535.20	38487.77
535.37	38466.70
535.54	38808.42
535.71	38265.42
535.88	38712.46
536.05	37684.97
536.22	38614.16
536.38	38691.40
536.55	38181.16
536.72	38487.77
536.89	38106.26
537.06	38738.21
537.23	38621.18
537.40	38628.20
537.57	38391.81
537.74	38653.95
537.91	38897.36
538.08	39201.63
538.25	38419.89
538.42	39194.61
538.59	39210.99
538.75	38766.29
538.92	38955.88
539.09	39007.37
539.26	39283.55
539.43	38878.64
539.60	39597.18
539.77	38864.60
539.94	39185.25
540.11	39297.59
540.28	39482.50
540.44	39313.98
540.61	39335.04
540.78	39519.95
540.95	39393.56
541.12	39328.02
541.29	39409.94
541.46	39201.63
541.62	39669.74
541.79	39957.63
541.96	39449.73
542.13	39643.99
542.30	39552.71
542.47	40521.69
542.63	40194.02
542.80	39962.31
542.97	40573.19
543.14	40552.12
543.31	40573.19
543.48	40547.44
543.64	40669.15
543.81	40549.78
543.98	40788.52
544.15	40399.99
544.32	40858.73
544.48	40924.27
544.65	40484.25
544.82	40704.26
544.99	40259.55
545.16	40875.12
545.32	40488.93
545.49	41193.43
545.66	41071.72
545.83	40598.93
546.00	41207.47
546.16	40982.78
546.33	40755.75
546.50	40821.28
546.67	41179.39
546.83	40329.77
547.00	41219.17
547.17	41090.44
547.34	41289.39
547.50	41317.48
547.67	41167.68
547.84	41242.58
548.00	41708.35
548.17	41490.68
548.34	41450.89
548.51	41724.73
548.67	41640.47
548.84	41614.72
549.01	41530.47
549.18	41373.65
549.34	41516.42
549.51	42045.38
549.68	42007.94
549.84	42284.12
550.01	41612.38
550.18	41787.92
550.34	41619.41
550.51	41467.27
550.68	41928.36
550.84	41741.11
551.01	42106.24
551.18	42014.96
551.34	41911.97
551.51	42195.18
551.68	42412.85
551.84	41794.95
552.01	41984.53
552.18	42190.50
552.34	42066.45
552.51	42630.52
552.68	42373.06
552.84	42564.98
553.01	42632.86
553.18	42515.83
553.34	42555.62
553.51	41954.10
553.67	42082.83
553.84	43339.70
554.01	42586.05
554.17	42707.76
554.34	42850.53
554.51	42518.17
554.67	42735.84
554.84	42944.15
555.00	42974.58
555.17	42541.58
555.33	42852.87
555.50	42878.61
555.67	42990.96
555.83	42773.29
556.00	42579.03
556.16	43000.32
556.33	43337.36
556.50	42740.52
556.66	43342.04
556.83	42462.00
556.99	43236.72
557.16	43023.73
557.32	43089.26
557.49	43274.16
557.65	42752.23
557.82	43089.26
557.98	42511.15
558.15	43016.71
558.32	43353.74
558.48	43524.60
558.65	43290.55
558.81	42983.94
558.98	43257.78
559.14	43157.14
559.31	43159.48
559.47	43744.61
559.64	43435.66
559.80	43131.39
559.97	43533.96
560.13	43250.76
560.30	43295.23
560.46	43318.64
560.63	43482.47
560.79	43407.58
560.96	44091.01
561.12	43503.54
561.29	43517.58
561.45	43379.49
561.61	43285.87
561.78	43688.44
561.94	43304.59
562.11	43728.23
562.27	43503.54
562.44	43328.00
562.60	43805.47
562.77	43636.95
562.93	43543.33
563.10	44304.00
563.26	43299.91
563.42	44013.77
563.59	43702.48
563.75	43899.09
563.92	44051.22
564.08	43533.96
564.24	44194.00
564.41	44144.84
564.57	43660.35
564.74	44154.21
564.90	44100.37
565.07	43976.33
565.23	43945.90
565.39	43873.34
565.56	43978.67
565.72	43681.42
565.88	43608.86
566.05	43789.08
566.21	43817.17
566.38	43892.07
566.54	44027.82
566.70	43882.70
566.87	44442.09
567.03	43962.28
567.19	44521.67
567.36	44502.95
567.52	44044.20
567.68	44306.34
567.85	44147.18
568.01	43936.54
568.17	43887.39
568.34	44074.63
568.50	44086.33
568.66	43854.62
568.83	43981.01
568.99	43922.49
569.15	43915.47
569.32	44119.10
569.48	43730.57
569.64	44215.06
569.81	44093.35
569.97	44086.33
570.13	44219.74
570.30	43922.49
570.46	44069.95
570.62	44226.76
570.78	43800.79
570.95	43920.15
571.11	44329.75
571.27	44334.43
571.43	44121.44
571.60	44215.06
571.76	44449.11
571.92	44212.72
572.09	44250.17
572.25	44662.10
572.41	44315.70
572.57	44273.57
572.74	45134.89
572.90	44266.55
573.06	44177.61
573.22	44287.62
573.38	44390.60
573.55	43938.88
573.71	44299.32
573.87	44198.68
574.03	44294.64
574.20	44479.54
574.36	44217.40
574.52	44608.27
574.68	44219.74
574.84	44601.25
575.01	44168.25
575.17	44676.15
575.33	44282.94
575.49	44020.80
575.65	44837.64
575.82	44610.61
575.98	44648.06
576.14	44545.08
576.30	44741.68
576.46	44601.25
576.62	44315.70
576.79	44423.37
576.95	43899.09
577.11	44453.79
577.27	44559.12
577.43	44629.34
577.59	44453.79
577.75	44680.83
577.92	44435.07
578.08	44079.31
578.24	44158.89
578.40	44561.46
578.56	44301.66
578.72	44341.45
578.88	44851.69
579.04	44697.21
579.21	44191.65
579.37	44261.87
579.53	44404.64
579.69	44374.22
579.85	44603.59
580.01	44772.11
580.17	44418.69
580.33	44851.69
580.49	45092.76
580.65	44524.01
580.82	44287.62
580.98	44734.66
581.14	44294.64
581.30	44617.63
581.46	44832.96
581.62	44353.15
581.78	44533.37
581.94	44828.28
582.10	44781.47
582.26	44648.06
582.42	44959.35
582.58	44844.66
582.74	44444.43
582.90	44875.09
583.06	44811.90
583.22	44783.81
583.38	44734.66
583.54	44889.13
583.70	44638.70
583.86	44748.70
584.02	44463.16
584.18	44196.34
584.34	44989.78
584.50	44538.05
584.66	44430.39
584.82	43908.45
584.98	45062.33
585.14	44659.76
585.30	44671.46
585.46	44692.53
585.62	44720.62
585.78	44528.69
585.94	44472.52
586.10	44737.00
586.26	44058.24
586.42	44762.75
586.58	45059.99
586.74	44980.42
586.90	44795.51
587.06	44404.64
587.22	44645.72
587.38	44395.28
587.54	44837.64
587.70	45057.65
587.86	44701.89
588.02	45216.81
588.18	45097.44
588.34	44879.77
588.49	44435.07
588.65	44023.14
588.81	44339.11
588.97	44793.17
589.13	44453.79
589.29	44931.26
589.45	44835.30
589.61	44491.24
589.77	45036.59
589.93	44720.62
590.08	44964.03
590.24	44919.56
590.40	45141.91
590.56	45041.27
590.72	44952.33
590.88	44877.43
591.04	44842.32
591.20	45144.25
591.35	45223.83
591.51	45132.55
591.67	45244.90
591.83	44755.72
591.99	44945.31
592.15	44648.06
592.31	45296.39
592.46	44893.82
592.62	44568.48
592.78	45036.59
592.94	44870.41
593.10	44832.96
593.26	44966.37
593.41	44863.39
593.57	44547.42
593.73	44982.76
593.89	44919.56
594.05	45113.83
594.20	44802.53
594.36	45359.58
594.52	44868.07
594.68	44737.00
594.84	45006.16
594.99	45059.99
595.15	44552.10
595.31	45162.98
595.47	44966.37
595.62	45504.70
595.78	45261.28
595.94	44973.39
596.10	45069.36
596.25	44987.44
596.41	45158.30
596.57	44694.87
596.73	44683.17
596.88	44938.29
597.04	45258.94
597.20	44949.99
597.36	44893.82
597.51	45361.92
597.67	45343.20
597.83	45572.57
597.99	45504.70
598.14	45132.55
598.30	45530.44
598.46	45118.51
598.61	45167.66
598.77	44446.77
598.93	45207.45
599.09	45022.54
599.24	45422.78
599.40	45017.86
599.56	45294.05
599.71	45577.25
599.87	45322.13
600.03	45263.62
600.18	45298.73
600.34	45067.02
600.50	45539.80
600.65	45132.55
600.81	45188.72
600.97	45111.49
601.12	45614.70
601.28	45979.82
601.44	45057.65
601.59	44966.37
601.75	44671.46
601.91	44961.69
602.06	45074.04
602.22	45097.44
602.37	45450.86
602.53	45127.87
602.69	45235.53
602.84	45038.93
603.00	44907.86
603.16	45387.67
603.31	45111.49
603.47	44996.80
603.62	44795.51
603.78	45029.57
603.94	45249.58
604.09	45280.00
604.25	45422.78
604.40	45240.21
604.56	45125.53
604.71	45216.81
604.87	45331.50
605.03	45261.28
605.18	45041.27
605.34	45275.32
605.49	44816.58
605.65	44783.81
605.80	44884.45
605.96	45076.38
606.12	45202.77
606.27	44933.60
606.43	44711.25
606.58	44844.66
606.74	44823.60
606.89	45059.99
607.05	44975.73
607.20	44847.00
607.36	45083.40
607.51	45045.95
607.67	44858.71
607.82	44617.63
607.98	44680.83
608.13	44762.75
608.29	44524.01
608.44	44404.64
608.60	44453.79
608.75	44596.57
608.91	44704.23
609.06	44430.39
609.22	45160.64
609.37	44596.57
609.53	44814.24
609.68	44533.37
609.84	44619.97
609.99	44744.02
610.15	44456.14
610.30	44421.03
610.46	44418.69
610.61	44341.45
610.76	44172.93
610.92	44245.49
611.07	44502.95
611.23	44584.86
611.38	44699.55
611.54	44451.45
611.69	44486.56
611.84	44739.34
612.00	44428.05
612.15	44430.39
612.31	44392.94
612.46	44184.63
612.62	44388.26
612.77	44196.34
612.92	44044.20
613.08	43924.83
613.23	44236.12
613.39	44196.34
613.54	43665.03
613.69	44444.43
613.85	44444.43
614.00	44079.31
614.15	44847.00
614.31	44076.97
614.46	44500.61
614.62	44301.66
614.77	44189.31
614.92	44226.76
615.08	43786.74
615.23	43995.05
615.38	43863.98
615.54	43812.49
615.69	44091.01
615.84	43997.39
616.00	43871.00
616.15	44083.99
616.30	44133.14
616.46	43246.08
616.61	43648.65
616.76	43990.37
616.92	43498.86
617.07	43728.23
617.22	43299.91
617.37	43100.97
617.53	44151.87
617.68	43709.50
617.83	43723.55
617.99	43969.30
618.14	43927.17
618.29	43480.13
618.45	43519.92
618.60	43613.54
618.75	43646.31
618.90	43679.08
619.06	43765.68
619.21	43688.44
619.36	43388.85
619.51	43264.80
619.67	43517.58
619.82	43494.18
619.97	43512.90
620.12	43412.26
620.28	42911.38
620.43	42887.98
620.58	43091.60
620.73	43005.00
620.89	43402.89
621.04	43533.96
621.19	43217.99
621.34	42962.87
621.49	42740.52
621.65	42951.17
621.80	43253.10
621.95	42831.80
622.10	43164.16
622.25	42796.70
622.41	42918.40
622.56	42799.04
622.71	43154.80
622.86	42827.12
623.01	42838.83
623.16	42983.94
623.32	43040.11
623.47	43019.05
623.62	42838.83
623.77	42429.23
623.92	43042.45
624.07	42712.44
624.23	42340.29
624.38	42555.62
624.53	42520.51
624.68	42618.81
624.83	42490.09
624.98	42295.82
625.13	42396.46
625.29	42616.47
625.44	42375.40
625.59	42071.13
625.74	41944.74
625.89	42206.88
626.04	42033.68
626.19	42253.69
626.34	42405.83
626.49	42450.30
626.65	42117.94
626.80	42789.67
626.95	42679.67
627.10	42284.12
627.25	41720.05
627.40	41900.27
627.55	41825.37
627.70	41483.66
627.85	41560.89
628.00	41930.70
628.15	42143.69
628.30	42167.09
628.45	42010.28
628.60	41787.92
628.76	41839.42
628.91	42047.72
629.06	41909.63
629.21	41766.86
629.36	42031.34
629.51	41645.15
629.66	41764.52
629.81	41862.82
629.96	41439.18
630.11	41265.99
630.26	41450.89
630.41	41478.97
630.56	41893.25
630.71	41600.68
630.86	41322.16
631.01	41167.68
631.16	41642.81
631.31	41577.28
631.46	41020.23
631.61	41701.32
631.76	41801.97
631.91	41713.03
632.06	41202.79
632.21	41539.83
632.36	41179.39
632.51	41502.38
632.66	41228.54
632.81	40739.36
632.96	41158.32
633.10	40844.69
633.25	41368.97
633.40	40744.05
633.55	41537.49
633.70	40669.15
633.85	40994.48
634.00	41375.99
634.15	41167.68
634.30	40519.35
634.45	40563.82
634.60	40868.09
634.75	41163.00
634.90	40931.29
635.05	40863.41
635.19	40879.80
635.34	41167.68
635.49	40996.82
635.64	40397.65
635.79	40257.21
635.94	40795.54
636.09	40821.28
636.24	40655.11
636.39	40236.15
636.53	40268.92
636.68	39803.15
636.83	40020.82
636.98	40683.19
637.13	40421.05
637.28	40512.33
637.43	40315.73
637.57	40725.32
637.72	40547.44
637.87	40381.26
638.02	40282.96
638.17	40299.34
638.32	40404.67
638.46	39917.84
638.61	40030.18
638.76	39934.22
638.91	39931.88
639.06	40065.29
639.20	39812.51
639.35	40212.74
639.50	39943.58
639.65	40409.35
639.80	39992.73
639.94	40116.78
640.09	39849.96
640.24	39611.23
640.39	40184.66
640.54	39737.62
640.68	40140.19
640.83	39426.32
640.98	39765.70
641.13	39686.12
641.27	39990.39
641.42	39622.93
641.57	40016.14
641.72	39683.78
641.86	39571.44
642.01	39356.11
642.16	39225.04
642.31	39391.22
642.45	39330.36
642.60	38967.58
642.75	39117.37
642.90	39454.41
643.04	39358.45
643.19	39042.48
643.34	39213.34
643.48	39318.66
643.63	39152.48
643.78	39082.27
643.93	39196.95
644.07	38780.34
644.22	39058.86
644.37	38838.85
644.51	38728.84
644.66	39049.50
644.81	39543.35
644.95	39253.12
645.10	38855.23
645.25	39571.44
645.39	39136.10
645.54	39159.50
645.69	38499.47
645.83	38667.99
645.98	38768.63
646.13	38862.26
646.27	39349.09
646.42	39306.96
646.57	38632.88
646.71	38710.12
646.86	38990.98
647.00	39309.30
647.15	38721.82
647.30	38611.82
647.44	38670.33
647.59	38979.28
647.74	38499.47
647.88	38761.61
648.03	38969.92
648.17	38965.24
648.32	37933.06
648.47	38508.83
648.61	38391.81
648.76	38787.36
648.90	38567.35
649.05	38368.40
649.20	38768.63
649.34	38316.91
649.49	38155.41
649.63	38333.29
649.78	38291.16
649.92	38298.19
650.07	38700.76
650.21	38410.53
650.36	38375.42
650.51	37589.00
650.65	38190.52
650.80	38462.02
650.94	38494.79
651.09	38361.38
651.23	38103.92
651.38	37769.22
651.52	37904.98
651.67	38113.28
651.81	37944.76
651.96	37916.68
652.10	37715.39
652.25	37947.11
652.39	37991.58
652.54	37560.92
652.68	37710.71
652.83	38010.30
652.97	38052.43
653.12	37776.25
653.26	37879.23
653.41	37614.75
653.55	37897.95
653.70	37406.44
653.84	37631.13
653.99	37724.75
654.13	37937.74
654.27	37589.00
654.42	37872.21
654.56	37560.92
654.71	37722.41
654.85	37642.84
655.00	37654.54
655.14	37509.43
655.29	37043.66
655.43	37567.94
655.57	37420.48
655.72	37034.30
655.86	36870.46
656.01	36891.52
656.15	36676.19
656.30	37237.92
656.44	36926.63
656.58	36566.19
656.73	37010.89
656.87	37003.87
657.01	36634.06
657.16	36807.26
657.30	37326.86
657.45	36744.07
657.59	36467.89
657.73	36381.29
657.88	36840.03
658.02	36833.01
658.16	36526.40
658.31	36732.37
658.45	36570.87
658.60	36650.45
658.74	36430.44
658.88	36610.66
659.03	36275.96
659.17	36191.70
659.31	36510.02
659.46	36304.05
659.60	36517.04
659.74	36034.89
659.89	35927.22
660.03	35957.65
660.17	36070.00
660.32	36238.51
660.46	36357.88
660.60	36163.62
660.74	36172.98
660.89	36563.85
661.03	36339.16
661.17	35901.48
661.32	35314.00
661.46	35452.09
661.60	35723.60
661.74	35803.17
661.89	35744.66
662.03	35545.72
662.17	35557.42
662.31	35571.46
662.46	35627.63
662.60	35672.10
662.74	35264.85
662.88	35578.48
663.03	35309.32
663.17	35578.48
663.31	34857.60
663.45	35189.95
663.60	35122.08
663.74	34726.53
663.88	34768.66
664.02	34644.61
664.17	35253.15
664.31	34700.78
664.45	35005.05
664.59	35119.74
664.73	34691.42
664.88	34873.98
665.02	34506.52
665.16	34852.92
665.30	34799.08
665.44	34653.97
665.59	34122.67
665.73	34534.60
665.87	33942.45
666.01	34279.49
666.15	34307.57
666.29	34387.15
666.44	34515.88
666.58	34143.74
666.72	34295.87
666.86	34354.38
667.00	34410.56
667.14	33935.43
667.28	34216.29
667.43	33813.72
667.57	33818.40
667.71	33635.84
667.85	33708.40
667.99	33752.87
668.13	33596.05
668.27	33193.48
668.41	33589.03
668.56	33439.23
668.70	33500.09
668.84	33237.95
668.98	33055.39
669.12	33106.88
669.26	32994.53
669.40	33170.07
669.54	32774.52
669.68	32996.87
669.82	33067.09
669.96	32844.74
670.10	32924.32
670.25	32940.70
670.39	32793.25
670.53	32725.37
670.67	32481.95
670.81	32549.83
670.95	32613.02
671.09	32669.20
671.23	32577.92
671.37	32889.21
671.51	32587.28
671.65	32266.63
671.79	31810.22
671.93	31779.79
672.07	32341.52
672.21	31742.35
672.35	31552.76
672.49	31903.84
672.63	32210.45
672.77	31398.29
672.91	31503.61
673.05	31508.29
673.19	31372.54
673.33	31288.28
673.47	31248.49
673.61	30960.61
673.75	31243.81
673.89	31131.47
674.03	30813.15
674.17	31220.41
674.31	30773.36
674.45	30799.11
674.59	30717.19
674.73	31168.91
674.87	31206.36
675.01	31353.82
675.15	31040.18
675.29	30782.73
675.43	30813.15
675.56	30506.54
675.70	30377.81
675.84	30188.23
675.98	29352.66
676.12	29926.09
676.26	29954.18
676.40	29898.00
676.54	29577.35
676.68	29802.04
676.82	29472.03
676.96	29694.38
677.10	29120.95
677.23	29399.47
677.37	29343.30
677.51	29261.38
677.65	29422.87
677.79	28943.06
677.93	28648.16
678.07	28868.17
678.21	28692.63
678.34	28591.98
678.48	28631.77
678.62	28723.05
678.76	28655.18
678.90	28535.81
679.04	28470.28
679.18	28669.22
679.31	27878.12
679.45	27880.46
679.59	27948.34
679.73	27742.37
679.87	27707.26
680.00	27513.00
680.14	27491.93
680.28	27234.47
680.42	27344.48
680.56	27733.01
680.70	27248.52
680.83	27065.96
680.97	27255.54
681.11	27019.14
681.25	26616.57
681.39	27204.05
681.52	26899.78
681.66	26806.16
681.80	27009.78
681.94	26319.32
682.07	26684.45
682.21	26293.58
682.35	26195.28
682.49	26143.78
682.62	26546.36
682.76	26443.37
682.90	25722.49
683.04	25907.39
683.17	25968.24
683.31	25790.36
683.45	25823.13
683.59	25455.67
683.72	25397.15
683.86	25242.68
684.00	25123.31
684.13	25275.45
684.27	25666.31
684.41	25034.37
684.55	25298.85
684.68	24814.36
684.82	25095.22
684.96	24760.53
685.09	24369.66
685.23	24439.87
685.37	24669.25
685.50	24376.68
685.64	24552.22
685.78	24388.38
685.91	24027.94
686.05	23997.51
686.19	24259.65
686.32	23871.12
686.46	23604.30
686.60	23728.35
686.73	23396.00
686.87	23360.89
687.01	23262.58
687.14	23140.88
687.28	23459.19
687.42	22911.50
687.55	23110.45
687.69	23393.65
687.82	22792.14
687.96	23012.15
688.10	22841.29
688.23	22682.13
688.37	22504.25
688.50	22349.78
688.64	22363.82
688.78	22029.12
688.91	22015.08
689.05	22317.01
689.18	22127.42
689.32	21591.44
689.46	21886.35
689.59	22302.96
689.73	22171.89
689.86	21706.13
690.00	21568.04
690.13	21666.34
690.27	21441.65
690.41	21436.97
690.54	21149.08
690.68	21235.68
690.81	21128.02
690.95	21003.97
691.08	20596.71
691.22	20688.00
691.35	21013.33
691.49	20851.83
691.62	20959.50
691.76	20709.06
691.89	20592.03
692.03	20453.94
692.16	20350.96
692.30	20489.05
692.43	20166.06
692.57	19651.14
692.70	20098.18
692.84	20034.99
692.97	19585.60
693.11	19917.96
693.24	19550.49
693.38	19730.72
693.51	19583.26
693.65	19618.37
693.78	19349.21
693.92	19583.26
694.05	19363.25
694.19	19267.29
694.32	19115.16
694.45	19054.30
694.59	18913.87
694.72	18794.50
694.86	18670.45
694.99	18874.08
695.13	18640.03
695.26	18757.05
695.39	18487.89
695.53	18340.44
695.66	18263.20
695.80	18434.06
695.93	17802.11
696.07	17989.36
696.20	17991.70
696.33	18141.49
696.47	17958.93
696.60	17989.36
696.73	17722.54
696.87	17642.96
697.00	17476.78
697.14	17774.03
697.27	17614.87
697.40	17610.19
697.54	17434.65
697.67	17326.99
697.80	17399.54
697.94	17329.33
698.07	16936.12
698.21	17013.35
698.34	16994.63
698.47	16936.12
698.61	16910.37
698.74	16835.47
698.87	16688.02
699.01	16266.72
699.14	16327.58
699.27	16142.67
699.40	16245.66
699.54	15971.82
699.67	15990.54
699.80	15999.90
699.94	16032.67
700.07	16027.99
700.20	15948.41
700.34	15798.62
700.47	15646.48
700.60	15917.98
700.73	15850.11
700.87	15587.97
701.00	15520.09
701.13	15510.73
701.26	15346.89
701.40	15515.41
701.53	15211.14
701.66	15187.74
701.79	15056.67
701.93	14993.47
702.06	14824.95
702.19	14956.02
702.32	14904.53
702.46	14682.18
702.59	14789.85
702.72	14644.73
702.85	14661.12
702.99	14721.97
703.12	14860.06
703.25	14548.77
703.38	14422.38
703.51	14202.37
703.65	14209.39
703.78	14125.13
703.91	14097.05
704.04	14286.63
704.17	13968.32
704.31	13745.97
704.44	14015.13
704.57	13748.31
704.70	13518.93
704.83	13605.53
704.96	13734.26
705.10	13769.37
705.23	13813.84
>>>>>End Processed Spectral Data<<<<<
