SpectraSuite Data File
++++++++++++++++++++++++++++++++++++
Date: Fri Oct 25 10:48:04 EDT 2013
User: price-jones
Dark Spectrum Present: No
Reference Spectrum Present: No
Number of Sampled Component Spectra: 1
Spectrometers: USB2+H05261
Integration Time (usec): 100000 (USB2+H05261)
Spectra Averaged: 1 (USB2+H05261)
Boxcar Smoothing: 0 (USB2+H05261)
Correct for Electrical Dark: No (USB2+H05261)
Strobe/Lamp Enabled: No (USB2+H05261)
Correct for Detector Non-linearity: No (USB2+H05261)
Correct for Stray Light: No (USB2+H05261)
Number of Pixels in Processed Spectrum: 2048
>>>>>Begin Processed Spectral Data<<<<<
365.73	161.50
365.92	161.50
366.12	161.50
366.32	84.26
366.52	42.13
366.72	74.90
366.91	37.45
367.11	44.47
367.31	25.75
367.51	7.02
367.70	112.35
367.90	23.41
368.10	35.11
368.30	18.72
368.49	30.43
368.69	117.03
368.89	44.47
369.09	32.77
369.28	30.43
369.48	67.88
369.68	138.09
369.87	119.37
370.07	149.79
370.27	135.75
370.47	198.95
370.66	346.40
370.86	402.57
371.06	411.93
371.25	521.94
371.45	486.83
371.65	498.53
371.84	500.87
372.04	477.47
372.24	442.36
372.44	402.57
372.63	524.28
372.83	479.81
373.03	493.85
373.22	475.13
373.42	543.00
373.62	627.26
373.81	580.45
374.01	519.60
374.21	489.17
374.40	521.94
374.60	589.82
374.79	559.39
374.99	428.32
375.19	535.98
375.38	634.29
375.58	547.69
375.78	568.75
375.97	653.01
376.17	615.56
376.37	554.71
376.56	587.47
376.76	528.96
376.95	568.75
377.15	575.77
377.35	634.29
377.54	608.54
377.74	617.90
377.93	638.97
378.13	653.01
378.33	587.47
378.52	629.60
378.72	631.94
378.91	620.24
379.11	645.99
379.31	578.11
379.50	573.43
379.70	653.01
379.89	704.50
380.09	667.05
380.28	671.73
380.48	730.25
380.68	648.33
380.87	638.97
381.07	770.04
381.26	622.58
381.46	638.97
381.65	716.20
381.85	662.37
382.04	667.05
382.24	650.67
382.43	727.91
382.63	678.76
382.83	692.80
383.02	788.76
383.22	744.29
383.41	685.78
383.61	688.12
383.80	781.74
384.00	660.03
384.19	795.78
384.39	744.29
384.58	695.14
384.78	758.33
384.97	770.04
385.17	727.91
385.36	777.06
385.56	699.82
385.75	732.59
385.95	777.06
386.14	763.01
386.34	791.10
386.53	772.38
386.72	788.76
386.92	798.12
387.11	807.48
387.31	856.64
387.50	791.10
387.70	793.44
387.89	746.63
388.09	802.80
388.28	751.31
388.48	823.87
388.67	809.83
388.86	821.53
389.06	919.83
389.25	898.77
389.45	786.42
389.64	882.38
389.84	952.60
390.03	968.98
390.22	891.74
390.42	898.77
390.61	938.55
390.81	926.85
391.00	933.87
391.19	978.34
391.39	947.92
391.58	976.00
391.78	968.98
391.97	961.96
392.16	1053.24
392.36	992.39
392.55	957.28
392.75	964.30
392.94	959.62
393.13	961.96
393.33	961.96
393.52	915.15
393.71	950.26
393.91	997.07
394.10	1025.15
394.29	1057.92
394.49	1083.67
394.68	1067.28
394.88	1104.73
395.07	1158.57
395.26	1025.15
395.46	1170.27
395.65	1186.65
395.84	1118.78
396.04	1149.20
396.23	1057.92
396.42	1057.92
396.62	1156.22
396.81	1165.59
397.00	1114.10
397.19	1151.54
397.39	1247.51
397.58	1263.89
397.77	1247.51
397.97	1287.29
398.16	1320.06
398.35	1273.25
398.55	1256.87
398.74	1310.70
398.93	1273.25
399.12	1280.27
399.32	1263.89
399.51	1308.36
399.70	1247.51
399.90	1425.39
400.09	1338.79
400.28	1327.08
400.47	1460.49
400.67	1437.09
400.86	1390.28
401.05	1362.19
401.24	1448.79
401.44	1481.56
401.63	1549.43
401.82	1497.94
402.01	1430.07
402.21	1350.49
402.40	1540.07
402.59	1425.39
402.78	1465.18
402.97	1509.65
403.17	1544.75
403.36	1561.14
403.55	1568.16
403.74	1650.08
403.93	1558.80
404.13	1652.42
404.32	1598.59
404.51	1652.42
404.70	1650.08
404.89	1722.63
405.09	1699.23
405.28	1673.48
405.47	1661.78
405.66	1687.53
405.85	1685.19
406.05	1645.40
406.24	1710.93
406.43	1771.79
406.62	1774.13
406.81	1781.15
407.00	1741.36
407.20	1734.34
407.39	1783.49
407.58	1799.87
407.77	1912.22
407.96	1963.71
408.15	1781.15
408.34	1966.05
408.54	1926.26
408.73	1902.86
408.92	2010.52
409.11	2003.50
409.30	1998.82
409.49	1982.43
409.68	2069.03
409.87	1902.86
410.07	2010.52
410.26	2099.46
410.45	2097.12
410.64	1989.46
410.83	2087.76
411.02	2122.87
411.21	2293.72
411.40	2115.84
411.59	2207.13
411.78	2228.19
411.98	2244.57
412.17	2296.07
412.36	2218.83
412.55	2340.54
412.74	2328.83
412.93	2394.37
413.12	2385.01
413.31	2518.42
413.50	2392.03
413.69	2429.48
413.88	2516.08
414.07	2396.71
414.26	2471.61
414.45	2450.54
414.64	2513.74
414.83	2607.36
415.02	2614.38
415.22	2745.45
415.41	2693.96
415.60	2705.66
415.79	2708.00
415.98	2745.45
416.17	2787.58
416.36	2700.98
416.55	2827.37
416.74	2827.37
416.93	2724.38
417.12	2869.50
417.31	2860.13
417.50	2949.08
417.69	3096.53
417.88	2979.50
418.07	3028.65
418.26	2972.48
418.45	2986.52
418.64	3185.47
418.83	2981.84
419.02	3131.64
419.21	3166.74
419.39	3101.21
419.58	3103.55
419.77	3141.00
419.96	3119.93
420.15	3239.30
420.34	3169.09
420.53	3176.11
420.72	3300.16
420.91	3321.22
421.10	3234.62
421.29	3403.14
421.48	3227.60
421.67	3377.39
421.86	3398.46
422.05	3438.25
422.24	3339.94
422.43	3370.37
422.61	3297.81
422.80	3468.67
422.99	3452.29
423.18	3485.06
423.37	3398.46
423.56	3466.33
423.75	3510.80
423.94	3321.22
424.13	3232.28
424.32	3246.32
424.50	3468.67
424.69	3499.10
424.88	3639.53
425.07	3337.60
425.26	3426.54
425.45	3424.20
425.64	3433.57
425.83	3489.74
426.01	3538.89
426.20	3393.78
426.39	3510.80
426.58	3449.95
426.77	3471.01
426.96	3517.83
427.15	3581.02
427.33	3595.06
427.52	3569.32
427.71	3581.02
427.90	3779.97
428.09	3623.15
428.28	3515.48
428.46	3719.11
428.65	3688.68
428.84	3740.18
429.03	3859.54
429.22	3662.94
429.40	3815.07
429.59	3665.28
429.78	3555.27
429.97	3576.34
430.16	3616.13
430.34	3721.45
430.53	3847.84
430.72	3838.48
430.91	3815.07
431.10	3894.65
431.28	3882.95
431.47	4077.21
431.66	4140.41
431.85	4058.49
432.03	3918.06
432.22	4067.85
432.41	4166.15
432.60	4124.02
432.79	4053.81
432.97	4145.09
433.16	4121.68
433.35	4147.43
433.54	4142.75
433.72	4173.18
433.91	4107.64
434.10	4250.41
434.28	4203.60
434.47	4259.78
434.66	4182.54
434.85	4454.04
435.03	4304.25
435.22	4318.29
435.41	4585.11
435.59	4458.72
435.78	4559.36
435.97	4440.00
436.16	4479.79
436.34	4505.53
436.53	4486.81
436.72	4755.97
436.90	4510.21
437.09	4454.04
437.28	4360.42
437.46	4547.66
437.65	4692.77
437.84	4615.54
438.02	4697.46
438.21	4571.07
438.40	4587.45
438.58	4608.51
438.77	4685.75
438.96	4856.61
439.14	4863.63
439.33	4903.42
439.52	4901.08
439.70	4791.08
439.89	4926.83
440.08	4922.15
440.26	5074.28
440.45	5245.14
440.63	5224.08
440.82	5240.46
441.01	5240.46
441.19	5184.29
441.38	5231.10
441.57	5448.77
441.75	5465.15
441.94	5467.49
442.12	5467.49
442.31	5504.94
442.50	5488.56
442.68	5624.31
442.87	5624.31
443.05	5661.76
443.24	5621.97
443.43	5638.35
443.61	5497.92
443.80	5710.91
443.98	5563.45
444.17	5528.35
444.35	5823.25
444.54	5806.87
444.73	5631.33
444.91	5703.89
445.10	5432.38
445.28	5652.39
445.47	5650.05
445.65	5689.84
445.84	5785.80
446.02	5769.42
446.21	5736.65
446.39	5734.31
446.58	5715.59
446.77	5916.87
446.95	5790.49
447.14	5921.56
447.32	5942.62
447.51	5905.17
447.69	5799.85
447.88	5755.38
448.06	5853.68
448.25	5710.91
448.43	5877.09
448.62	5813.89
448.80	5764.74
448.99	5818.57
449.17	5937.94
449.36	5867.72
449.54	6036.24
449.73	6125.18
449.91	6328.81
450.10	6094.76
450.28	6118.16
450.46	6106.46
450.65	6214.12
450.83	6303.06
451.02	6314.77
451.20	6438.81
451.39	6230.51
451.57	6375.62
451.76	6300.72
451.94	6317.11
452.13	6303.06
452.31	6445.84
452.49	6209.44
452.68	6225.82
452.86	6298.38
453.05	6366.26
453.23	6328.81
453.42	6399.02
453.60	6544.14
453.78	6583.93
453.97	6377.96
454.15	6413.07
454.34	6382.64
454.52	6586.27
454.70	6590.95
454.89	6518.39
455.07	6689.25
455.26	6663.51
455.44	6677.55
455.62	6960.75
455.81	6827.34
455.99	6841.39
456.17	6939.69
456.36	6925.65
456.54	7082.46
456.73	7073.10
456.91	7049.69
457.09	7131.61
457.28	7300.13
457.46	6942.03
457.64	7108.21
457.83	6981.82
458.01	7059.06
458.19	7304.81
458.38	6979.48
458.56	7227.57
458.74	7084.80
458.93	7360.98
459.11	7218.21
459.29	7335.24
459.48	7386.73
459.66	7316.51
459.84	7363.33
460.03	7499.08
460.21	7440.56
460.39	7520.14
460.57	7382.05
460.76	7562.27
460.94	7548.23
461.12	7524.82
461.31	7501.42
461.49	7592.70
461.67	7627.81
461.85	7749.51
462.04	7620.78
462.22	8208.26
462.40	7878.24
462.59	7808.03
462.77	7737.81
462.95	7775.26
463.13	7908.67
463.32	7840.79
463.50	7950.80
463.68	8177.83
463.86	8021.02
464.05	7864.20
464.23	7967.18
464.41	8016.33
464.59	7819.73
464.78	8030.38
464.96	8124.00
465.14	8039.74
465.32	8105.28
465.50	8180.17
465.69	8084.21
465.87	8067.83
466.05	8102.93
466.23	8264.43
466.41	8252.73
466.60	8369.76
466.78	8095.91
466.96	8219.96
467.14	8341.67
467.32	8266.77
467.51	8414.23
467.69	8229.32
467.87	8397.84
468.05	8468.06
468.23	8088.89
468.41	8308.90
468.60	8489.12
468.78	8446.99
468.96	8386.14
469.14	8655.30
469.32	8688.07
469.50	8423.59
469.69	8573.38
469.87	8575.72
470.05	8861.27
470.23	8685.73
470.41	8603.81
470.59	8777.01
470.77	8821.48
470.95	8868.29
471.14	8884.67
471.32	8800.41
471.50	9036.81
471.68	9109.36
471.86	9020.42
472.04	9111.71
472.22	9334.06
472.40	9123.41
472.58	9301.29
472.77	9289.59
472.95	9404.27
473.13	9785.78
473.31	9324.69
473.49	9664.07
473.67	9472.15
473.85	9643.01
474.03	9586.83
474.21	9900.47
474.39	9575.13
474.57	9755.35
474.75	9823.23
474.93	9771.74
475.12	9799.82
475.30	10101.75
475.48	9980.04
475.66	10003.45
475.84	9797.48
476.02	10134.52
476.20	10162.61
476.38	10497.30
476.56	10764.12
476.74	10649.44
476.92	10670.50
477.10	10338.15
477.28	10834.34
477.46	10733.70
477.64	10799.23
477.82	10927.96
478.00	11061.37
478.18	11073.07
478.36	11117.54
478.54	11229.89
478.72	11606.72
478.90	11384.37
479.08	11548.20
479.26	11723.74
479.44	11639.48
479.62	11878.22
479.80	11896.94
479.98	11861.84
480.16	12271.43
480.34	12128.66
480.52	12198.87
480.70	12351.01
480.88	12376.75
481.06	12308.88
481.24	12341.64
481.41	12933.80
481.59	12561.66
481.77	12975.93
481.95	12786.35
482.13	12919.76
482.31	13062.53
482.49	13359.78
482.67	13268.50
482.85	13364.46
483.03	13575.11
483.21	13795.12
483.39	13870.01
483.57	13720.22
483.74	13872.36
483.92	14083.00
484.10	13825.54
484.28	14085.34
484.46	14303.01
484.64	14717.29
484.82	14478.55
485.00	14860.06
485.18	14616.65
485.35	15136.24
485.53	14485.58
485.71	14813.25
485.89	15332.85
486.07	14951.34
486.25	15262.63
486.43	15400.72
486.61	15536.48
486.78	15655.84
486.96	15875.85
487.14	15981.18
487.32	15999.90
487.50	16149.70
487.68	16393.11
487.85	16563.97
488.03	16592.06
488.21	16685.68
488.39	16578.01
488.57	16961.86
488.75	16936.12
488.92	17287.20
489.10	17263.79
489.28	17252.09
489.46	17795.09
489.64	17631.26
489.81	17942.55
489.99	18274.90
490.17	18003.40
490.35	18368.52
490.53	18401.29
490.70	18544.06
490.88	18349.80
491.06	18728.97
491.24	18965.36
491.41	18569.81
491.59	18670.45
491.77	19019.19
491.95	19220.48
492.13	19304.74
492.30	19564.54
492.48	19545.81
492.66	19627.73
492.84	19676.88
493.01	19777.53
493.19	19744.76
493.37	19957.75
493.54	20009.24
493.72	20386.07
493.90	20278.40
494.08	20346.28
494.25	20622.46
494.43	20835.45
494.61	21132.70
494.79	21106.95
494.96	20950.14
495.14	21003.97
495.32	21163.12
495.49	21406.54
495.67	21462.71
495.85	21635.91
496.02	21944.86
496.20	22017.42
496.38	22298.28
496.55	22190.62
496.73	22616.60
496.91	22394.25
497.09	22464.46
497.26	22834.27
497.44	22485.53
497.62	22874.06
497.79	23002.78
497.97	22864.69
498.14	23154.92
498.32	23159.60
498.50	23360.89
498.67	23269.61
498.85	23702.61
499.03	23517.70
499.20	23545.79
499.38	23653.45
499.56	24308.80
499.73	24224.54
499.91	23939.00
500.08	24383.70
500.26	24219.86
500.44	24189.44
500.61	24589.67
500.79	23843.04
500.97	24545.20
501.14	25102.25
501.32	24673.93
501.49	24519.45
501.67	24889.26
501.84	25008.62
502.02	25074.16
502.20	24926.71
502.37	25516.52
502.55	25408.86
502.72	25102.25
502.90	25603.12
503.07	25200.55
503.25	25537.59
503.43	25776.32
503.60	25905.05
503.78	25891.01
503.95	25907.39
504.13	25638.23
504.30	26033.78
504.48	26019.74
504.65	26148.46
504.83	26665.72
505.01	26721.90
505.18	26419.97
505.36	26677.43
505.53	26529.97
505.71	26824.88
505.88	27054.25
506.06	26558.06
506.23	26768.71
506.41	27398.31
506.58	26883.39
506.76	26934.88
506.93	27414.69
507.11	27608.96
507.28	27772.80
507.46	27683.86
507.63	27740.03
507.81	27658.11
507.98	27243.84
508.16	27798.54
508.33	27428.74
508.50	28109.83
508.68	28091.11
508.85	28334.53
509.03	28182.39
509.20	28360.27
509.38	28381.34
509.55	28844.76
509.73	28711.35
509.90	28472.62
510.08	28711.35
510.25	28847.10
510.42	28821.36
510.60	29024.98
510.77	29413.51
510.95	29401.81
511.12	29233.29
511.30	29193.50
511.47	30000.99
511.64	29661.61
511.82	29415.85
511.99	29685.01
512.17	29764.59
512.34	29404.15
512.51	30087.59
512.69	30174.19
512.86	30349.73
513.04	30321.64
513.21	30003.33
513.38	30373.13
513.56	30099.29
513.73	30059.50
513.90	30607.19
514.08	30520.59
514.25	30754.64
514.43	30291.21
514.60	30490.16
514.77	30635.27
514.95	30951.24
515.12	30955.93
515.29	31051.89
515.47	31435.74
515.64	31555.10
515.81	31096.36
515.99	31363.18
516.16	31365.52
516.33	31189.98
516.51	31386.58
516.68	31302.32
516.85	31255.51
517.03	31510.63
517.20	31618.30
517.37	31344.45
517.54	31442.76
517.72	32034.91
517.89	31861.71
518.06	31461.48
518.24	31789.16
518.41	32020.87
518.58	31655.75
518.75	31927.25
518.93	32285.35
519.10	32264.28
519.27	32575.58
519.45	32051.30
519.62	32596.64
519.79	32528.77
519.96	32678.56
520.14	33188.80
520.31	32811.97
520.48	32809.63
520.65	32854.10
520.83	33053.05
521.00	33200.50
521.17	33296.46
521.34	33188.80
521.52	33221.56
521.69	33383.06
521.86	33832.44
522.03	33818.40
522.20	33699.03
522.38	33603.07
522.55	34047.77
522.72	33750.52
522.89	33748.18
523.07	33977.56
523.24	33549.24
523.41	34286.51
523.58	33642.86
523.75	34382.47
523.92	34319.28
524.10	34375.45
524.27	34508.86
524.44	34436.30
524.61	34611.84
524.78	34668.02
524.96	34623.54
525.13	34960.58
525.30	34735.89
525.47	35456.78
525.64	34806.11
525.81	35012.07
525.98	35061.22
526.16	34787.38
526.33	35061.22
526.50	35536.35
526.67	35047.18
526.84	35276.55
527.01	35129.10
527.18	35386.56
527.36	35105.70
527.53	35742.32
527.70	35646.36
527.87	35798.49
528.04	35456.78
528.21	35587.85
528.38	35735.30
528.55	35889.77
528.72	35452.09
528.89	36423.42
529.07	35360.81
529.24	35999.78
529.41	35915.52
529.58	35859.35
529.75	36205.75
529.92	36685.56
530.09	36198.73
530.26	36301.71
530.43	36264.26
530.60	36105.10
530.77	36184.68
530.94	36872.80
531.11	36376.61
531.28	36870.46
531.46	36652.79
531.63	36816.63
531.80	36547.47
531.97	36381.29
532.14	36854.08
532.31	36779.18
532.48	36809.61
532.65	37144.30
532.82	37350.27
532.99	37041.32
533.16	36849.39
533.33	37139.62
533.50	37345.59
533.67	37722.41
533.84	36975.78
534.01	37848.80
534.18	37085.79
534.35	37741.14
534.52	37282.39
534.69	38022.00
534.86	37736.46
535.03	37528.15
535.20	37797.31
535.37	37912.00
535.54	38295.85
535.71	38103.92
535.88	37930.72
536.05	38157.75
536.22	37954.13
536.38	37811.35
536.55	38487.77
536.72	38199.88
536.89	38031.36
537.06	38326.27
537.23	38403.51
537.40	38761.61
537.57	38092.22
537.74	38071.15
537.91	39218.02
538.08	38181.16
538.25	38604.80
538.42	38724.16
538.59	38719.48
538.75	38452.66
538.92	38494.79
539.09	38902.04
539.26	38848.21
539.43	38663.31
539.60	39021.41
539.77	38829.49
539.94	39363.13
540.11	39040.14
540.28	39147.80
540.44	38965.24
540.61	38651.61
540.78	38916.09
540.95	39021.41
541.12	38880.98
541.29	39145.46
541.46	39056.52
541.62	39246.10
541.79	39295.25
541.96	38920.77
542.13	39407.60
542.30	39351.43
542.47	39641.65
542.63	39716.55
542.80	39971.67
542.97	39536.33
543.14	39913.16
543.31	39707.19
543.48	40006.78
543.64	40683.19
543.81	40552.12
543.98	39793.79
544.15	40273.60
544.32	40399.99
544.48	40612.98
544.65	40636.38
544.82	40196.36
544.99	40226.79
545.16	40781.49
545.32	40425.73
545.49	40512.33
545.66	40493.61
545.83	40612.98
546.00	40758.09
546.16	40673.83
546.33	40580.21
546.50	40107.42
546.67	41095.13
546.83	40479.57
547.00	40554.46
547.17	40730.00
547.34	40823.62
547.50	41015.55
547.67	41298.75
547.84	40975.76
548.00	41352.58
548.17	41095.13
548.34	41633.45
548.51	41170.02
548.67	41141.94
548.84	41097.47
549.01	40924.27
549.18	41446.21
549.34	41333.86
549.51	41691.96
549.68	41036.61
549.84	41647.49
550.01	42014.96
550.18	41467.27
550.34	41769.20
550.51	41125.55
550.68	41406.42
550.84	40816.60
551.01	41336.20
551.18	41710.69
551.34	41706.01
551.51	41858.14
551.68	41249.60
551.84	41869.84
552.01	41780.90
552.18	41902.61
552.34	41567.91
552.51	42024.32
552.68	41663.88
552.84	42040.70
553.01	42232.63
553.18	42202.20
553.34	41926.02
553.51	41808.99
553.67	42047.72
553.84	42265.39
554.01	41972.83
554.17	42239.65
554.34	42450.30
554.51	42169.43
554.67	42534.56
554.84	42328.59
555.00	42241.99
555.17	42218.58
555.33	41954.10
555.50	42398.80
555.67	42616.47
555.83	42494.77
556.00	42595.41
556.16	42906.70
556.33	42527.53
556.50	42124.96
556.66	42520.51
556.83	42162.41
556.99	43243.74
557.16	42614.13
557.32	42590.73
557.49	42841.17
557.65	42359.02
557.82	42618.81
557.98	42677.33
558.15	42555.62
558.32	42457.32
558.48	42796.70
558.65	42927.77
558.81	42773.29
558.98	42162.41
559.14	42850.53
559.31	43061.18
559.47	43262.46
559.64	42843.51
559.80	43810.15
559.97	43065.86
560.13	43049.47
560.30	42925.42
560.46	43049.47
560.63	42784.99
560.79	43351.40
560.96	43023.73
561.12	43271.82
561.29	42864.57
561.45	42986.28
561.61	43388.85
561.78	43187.56
561.94	42932.45
562.11	43040.11
562.27	42803.72
562.44	43295.23
562.60	43529.28
562.77	43491.83
562.93	43466.09
563.10	43332.68
563.26	43115.01
563.42	43669.72
563.59	43271.82
563.75	43496.52
563.92	43454.39
564.08	43590.14
564.24	43662.69
564.41	43765.68
564.57	43779.72
564.74	43466.09
564.90	43313.95
565.07	43489.49
565.23	43306.93
565.39	43714.19
565.56	43339.70
565.72	43351.40
565.88	44016.11
566.05	43721.21
566.21	43751.63
566.38	43445.02
566.54	43735.25
566.70	43817.17
566.87	44414.01
567.03	43739.93
567.19	43945.90
567.36	44245.49
567.52	43454.39
567.68	43629.93
567.85	43496.52
568.01	44245.49
568.17	43505.88
568.34	43688.44
568.50	43599.50
568.66	43555.03
568.83	43889.73
568.99	43421.62
569.15	43920.15
569.32	43688.44
569.48	43758.66
569.64	43995.05
569.81	43859.30
569.97	43756.32
570.13	43924.83
570.30	43641.63
570.46	43938.88
570.62	43494.18
570.78	43711.84
570.95	43875.68
571.11	44009.09
571.27	44095.69
571.43	43601.84
571.60	44140.16
571.76	44051.22
571.92	43927.17
572.09	43793.76
572.25	43732.91
572.41	43510.56
572.57	44236.12
572.74	44556.78
572.90	44261.87
573.06	44484.22
573.22	44416.35
573.38	43749.29
573.55	43639.29
573.71	44292.30
573.87	43885.04
574.03	44060.58
574.20	44076.97
574.36	44168.25
574.52	44053.56
574.68	44435.07
574.84	44250.17
575.01	44198.68
575.17	44175.27
575.33	44201.02
575.49	43716.53
575.65	44488.90
575.82	44767.43
575.98	44353.15
576.14	44783.81
576.30	43875.68
576.46	44112.08
576.62	44238.47
576.79	44079.31
576.95	43641.63
577.11	44378.90
577.27	44210.38
577.43	44657.42
577.59	44072.29
577.75	44170.59
577.92	43564.39
578.08	43945.90
578.24	43938.88
578.40	44060.58
578.56	44114.42
578.72	44107.40
578.88	44706.57
579.04	44224.42
579.21	44002.07
579.37	44002.07
579.53	44201.02
579.69	43966.96
579.85	44343.79
580.01	44186.97
580.17	44224.42
580.33	44301.66
580.49	44477.20
580.65	44568.48
580.82	44580.18
580.98	44325.07
581.14	44521.67
581.30	44390.60
581.46	44612.95
581.62	44322.72
581.78	44570.82
581.94	44388.26
582.10	44275.91
582.26	44622.31
582.42	44264.21
582.58	44374.22
582.74	44280.60
582.90	44678.49
583.06	44699.55
583.22	44432.73
583.38	44463.16
583.54	44397.62
583.70	44348.47
583.86	44491.24
584.02	44191.65
584.18	44706.57
584.34	44231.44
584.50	44601.25
584.66	44247.83
584.82	44184.63
584.98	44587.21
585.14	44484.22
585.30	44362.51
585.46	44493.58
585.62	44091.01
585.78	44498.26
585.94	44156.55
586.10	44327.41
586.26	44406.98
586.42	44491.24
586.58	44519.33
586.74	44442.09
586.90	43978.67
587.06	44329.75
587.22	44102.71
587.38	44271.23
587.54	44631.68
587.70	44886.79
587.86	44313.36
588.02	44528.69
588.18	44355.49
588.34	44306.34
588.49	44289.96
588.65	44212.72
588.81	43983.35
588.97	44425.71
589.13	44357.83
589.29	44531.03
589.45	44589.55
589.61	44502.95
589.77	44556.78
589.93	44737.00
590.08	44849.35
590.24	44835.30
590.40	44746.36
590.56	44760.40
590.72	44596.57
590.88	44257.19
591.04	44432.73
591.20	44928.92
591.35	44882.11
591.51	45146.59
591.67	44720.62
591.83	44975.73
591.99	44533.37
592.15	44788.49
592.31	44985.10
592.46	44800.19
592.62	44460.82
592.78	45090.42
592.94	44697.21
593.10	44238.47
593.26	44898.50
593.41	45013.18
593.57	44655.08
593.73	44655.08
593.89	44715.93
594.05	44809.56
594.20	44577.84
594.36	44987.44
594.52	45078.72
594.68	44463.16
594.84	44788.49
594.99	45081.06
595.15	44561.46
595.31	44980.42
595.47	44545.08
595.62	44367.20
595.78	44507.63
595.94	44835.30
596.10	44711.25
596.25	44664.44
596.41	45088.08
596.57	44947.65
596.73	45003.82
596.88	44278.25
597.04	44708.91
597.20	44755.72
597.36	44931.26
597.51	44968.71
597.67	44584.86
597.83	44865.73
597.99	44961.69
598.14	45003.82
598.30	45006.16
598.46	44804.88
598.61	45008.50
598.77	44491.24
598.93	44432.73
599.09	44680.83
599.24	45017.86
599.40	45109.14
599.56	45043.61
599.71	44793.17
599.87	44961.69
600.03	44697.21
600.18	45254.26
600.34	44655.08
600.50	44313.36
600.65	45188.72
600.81	45336.18
600.97	45289.37
601.12	45074.04
601.28	45146.59
601.44	44933.60
601.59	45064.67
601.75	44556.78
601.91	44945.31
602.06	44968.71
602.22	44713.59
602.37	44563.80
602.53	44636.36
602.69	45085.74
602.84	44793.17
603.00	44790.83
603.16	44762.75
603.31	44837.64
603.47	44556.78
603.62	44549.76
603.78	45008.50
603.94	45062.33
604.09	45052.97
604.25	44446.77
604.40	44282.94
604.56	44519.33
604.71	44931.26
604.87	44570.82
605.03	45062.33
605.18	44926.58
605.34	44793.17
605.49	44634.02
605.65	45034.25
605.80	44725.30
605.96	44985.10
606.12	45095.10
606.27	45055.31
606.43	44486.56
606.58	44767.43
606.74	44516.99
606.89	44842.32
607.05	44472.52
607.20	44992.12
607.36	45191.06
607.51	45085.74
607.67	44828.28
607.82	44952.33
607.98	44814.24
608.13	45141.91
608.29	44793.17
608.44	44182.29
608.60	44285.28
608.75	44341.45
608.91	44058.24
609.06	44612.95
609.22	44741.68
609.37	44203.36
609.53	44158.89
609.68	44879.77
609.84	44477.20
609.99	44673.81
610.15	44170.59
610.30	44112.08
610.46	44201.02
610.61	43730.57
610.76	44004.41
610.92	44339.11
611.07	44002.07
611.23	43976.33
611.38	44215.06
611.54	44123.78
611.69	44172.93
611.84	43494.18
612.00	44245.49
612.15	44065.27
612.31	44346.13
612.46	44086.33
612.62	44304.00
612.77	43814.83
612.92	44404.64
613.08	44039.52
613.23	44025.48
613.39	44093.35
613.54	43936.54
613.69	43786.74
613.85	43751.63
614.00	44404.64
614.15	44076.97
614.31	44154.21
614.46	44261.87
614.62	43732.91
614.77	43828.87
614.92	43950.58
615.08	43559.71
615.23	43665.03
615.38	43667.37
615.54	43758.66
615.69	43353.74
615.84	43234.38
616.00	43945.90
616.15	43901.43
616.30	43634.61
616.46	43049.47
616.61	43274.16
616.76	43587.80
616.92	43402.89
617.07	43388.85
617.22	43522.26
617.37	43564.39
617.53	43817.17
617.68	43648.65
617.83	43522.26
617.99	43665.03
618.14	43377.15
618.29	42967.55
618.45	43026.07
618.60	43416.94
618.75	43590.14
618.90	43161.82
619.06	43339.70
619.21	42852.87
619.36	43587.80
619.51	43388.85
619.67	43063.52
619.82	43367.79
619.97	43122.03
620.12	42993.30
620.28	42761.59
620.43	42948.83
620.58	43058.84
620.73	43363.11
620.89	42831.80
621.04	43044.79
621.19	42806.06
621.34	43023.73
621.49	42829.46
621.65	42885.64
621.80	43267.14
621.95	42096.88
622.10	42962.87
622.25	43014.37
622.41	42745.20
622.56	42670.31
622.71	43129.05
622.86	42883.30
623.01	42843.51
623.16	42876.27
623.32	42838.83
623.47	42820.10
623.62	42822.44
623.77	42621.16
623.92	42644.56
624.07	42398.80
624.23	42256.03
624.38	42754.57
624.53	42417.53
624.68	42864.57
624.83	42419.87
624.98	42564.98
625.13	42213.90
625.29	42796.70
625.44	42447.96
625.59	42216.24
625.74	41961.12
625.89	41687.28
626.04	41853.46
626.19	42089.85
626.34	41855.80
626.49	42150.71
626.65	42195.18
626.80	42005.59
626.95	42026.66
627.10	41598.34
627.25	41862.82
627.40	41528.13
627.55	41818.35
627.70	41521.10
627.85	41188.75
628.00	41778.56
628.15	41792.61
628.30	41673.24
628.45	41872.18
628.60	41340.88
628.76	41900.27
628.91	41661.54
629.06	41993.89
629.21	41249.60
629.36	41993.89
629.51	41373.65
629.66	41287.05
629.81	41450.89
629.96	41319.82
630.11	41244.92
630.26	41354.93
630.41	41251.94
630.56	41240.24
630.71	41268.33
630.86	41188.75
631.01	41092.79
631.16	41518.76
631.31	41146.62
631.46	40617.66
631.61	41184.07
631.76	41017.89
631.91	41530.47
632.06	41130.23
632.21	41570.25
632.36	41584.30
632.51	41287.05
632.66	41287.05
632.81	40947.67
632.96	41078.74
633.10	40730.00
633.25	40236.15
633.40	41027.25
633.55	40999.16
633.70	41109.17
633.85	40495.95
634.00	40910.22
634.15	41064.70
634.30	40694.89
634.45	40507.65
634.60	40533.40
634.75	40842.35
634.90	40870.43
635.05	41008.53
635.19	40650.42
635.34	40760.43
635.49	40694.89
635.64	40545.10
635.79	40388.28
635.94	40423.39
636.09	40437.44
636.24	40128.48
636.39	40236.15
636.53	40219.77
636.68	40081.67
636.83	40065.29
636.98	40449.14
637.13	39910.82
637.28	39992.73
637.43	40580.21
637.57	40666.81
637.72	40332.11
637.87	40201.04
638.02	40208.06
638.17	39871.03
638.32	40034.86
638.46	39941.24
638.61	40137.85
638.76	39936.56
638.91	40051.25
639.06	40112.10
639.20	40210.40
639.35	40158.91
639.50	39519.95
639.65	40123.80
639.80	40175.30
639.94	39784.43
640.09	39508.24
640.24	38897.36
640.39	39559.73
640.54	39658.04
640.68	39325.68
640.83	39819.53
640.98	39681.44
641.13	39405.26
641.27	39812.51
641.42	39634.63
641.57	39613.57
641.72	39533.99
641.86	39243.76
642.01	39328.02
642.16	39049.50
642.31	39037.80
642.45	39143.12
642.60	39063.54
642.75	38714.80
642.90	38866.94
643.04	39452.07
643.19	39262.49
643.34	39496.54
643.48	39517.60
643.63	38843.53
643.78	39086.95
643.93	38948.85
644.07	39026.09
644.22	38574.37
644.37	38258.40
644.51	38450.32
644.66	38635.22
644.81	38986.30
644.95	39110.35
645.10	39042.48
645.25	38995.67
645.39	38721.82
645.54	38639.90
645.69	38794.38
645.83	38820.13
645.98	38953.54
646.13	39089.29
646.27	38885.66
646.42	38607.14
646.57	38658.63
646.71	38555.64
646.86	38787.36
647.00	38635.22
647.15	38768.63
647.30	38693.74
647.44	38560.33
647.59	38656.29
647.74	38036.05
647.88	38403.51
648.03	38623.52
648.17	38366.06
648.32	38139.03
648.47	38321.59
648.61	37961.15
648.76	38490.11
648.90	38513.52
649.05	38770.97
649.20	38326.27
649.34	38373.08
649.49	38368.40
649.63	37982.21
649.78	38024.34
649.92	38171.80
650.07	38471.39
650.21	37886.25
650.36	38075.84
650.51	38019.66
650.65	38316.91
650.80	38649.27
650.94	37930.72
651.09	38103.92
651.23	37633.47
651.38	38122.65
651.52	37841.78
651.67	37691.99
651.81	37755.18
651.96	37820.72
652.10	38169.46
652.25	37579.64
652.39	37673.26
652.54	37631.13
652.68	37996.26
652.83	37984.55
652.97	37881.57
653.12	37794.97
653.26	37816.04
653.41	37895.61
653.55	37436.87
653.70	37184.09
653.84	37439.21
653.99	37387.72
654.13	37830.08
654.27	37422.83
654.42	37614.75
654.56	37663.90
654.71	37256.65
654.85	37425.17
655.00	37471.98
655.14	36996.85
655.29	37116.22
655.43	36954.72
655.57	36634.06
655.72	36921.95
655.86	36814.29
656.01	37134.94
656.15	36872.80
656.30	37230.90
656.44	36828.33
656.58	36575.55
656.73	36886.84
656.87	36910.25
657.01	36542.78
657.16	35969.35
657.30	37041.32
657.45	36360.22
657.59	37013.23
657.73	36561.51
657.88	36378.95
658.02	36617.68
658.16	36694.92
658.31	36708.96
658.45	36961.74
658.60	36793.22
658.74	36882.16
658.88	36329.80
659.03	36264.26
659.17	36329.80
659.31	36147.23
659.46	36526.40
659.60	36444.48
659.74	36318.09
659.89	35952.97
660.03	36217.45
660.17	36311.07
660.32	35903.82
660.46	36552.15
660.60	35922.54
660.74	36336.82
660.89	35948.29
661.03	35739.98
661.17	35854.67
661.32	35136.12
661.46	36077.02
661.60	35346.77
661.74	35428.69
661.89	35885.09
662.03	35606.57
662.17	35281.24
662.31	35234.42
662.46	35234.42
662.60	35578.48
662.74	34988.67
662.88	35323.36
663.03	35398.26
663.17	35093.99
663.31	34939.52
663.45	35229.74
663.60	35117.40
663.74	34787.38
663.88	34703.12
664.02	34583.76
664.17	34649.29
664.31	34635.25
664.45	34422.26
664.59	34817.81
664.73	34536.94
664.88	35241.45
665.02	34000.96
665.16	34562.69
665.30	34579.07
665.44	34396.51
665.59	33961.17
665.73	34375.45
665.87	33951.81
666.01	34321.62
666.15	34045.43
666.29	33954.15
666.44	34106.29
666.58	34101.61
666.72	34429.28
666.86	34129.69
667.00	33923.72
667.14	33902.66
667.28	33764.57
667.43	33282.42
667.57	33738.82
667.71	33439.23
667.85	33509.45
667.99	33532.86
668.13	33071.77
668.27	33479.02
668.41	33394.76
668.56	32943.04
668.70	33146.67
668.84	33191.14
668.98	33406.47
669.12	33081.13
669.26	32966.45
669.40	32734.73
669.54	32964.10
669.68	32837.72
669.82	32570.90
669.96	32591.96
670.10	32701.96
670.25	32477.27
670.39	32517.06
670.53	32474.93
670.67	32818.99
670.81	32451.53
670.95	32301.73
671.09	32343.86
671.23	32404.72
671.37	32313.44
671.51	31981.08
671.65	31915.54
671.79	32268.97
671.93	31997.46
672.07	31899.16
672.21	31756.39
672.35	31835.97
672.49	31686.17
672.63	31594.89
672.77	31632.34
672.91	31552.76
673.05	31473.18
673.19	31358.50
673.33	31243.81
673.47	31426.37
673.61	30775.70
673.75	30981.67
673.89	31016.78
674.03	30497.18
674.17	30988.69
674.31	30930.18
674.45	30911.46
674.59	30478.46
674.73	30551.01
674.87	30672.72
675.01	30249.08
675.15	30632.93
675.29	30534.63
675.43	30735.92
675.56	30553.35
675.70	30677.40
675.84	30118.01
675.98	29474.37
676.12	29979.92
676.26	29970.56
676.40	29717.78
676.54	29598.41
676.68	29490.75
676.82	29223.93
676.96	29680.33
677.10	28973.49
677.23	29345.64
677.37	29280.10
677.51	28833.06
677.65	28701.99
677.79	28779.23
677.93	28683.27
678.07	29223.93
678.21	28620.07
678.34	28683.27
678.48	28575.60
678.62	28601.35
678.76	27915.57
678.90	28568.58
679.04	28233.88
679.18	28573.26
679.31	27740.03
679.45	27810.25
679.59	27718.96
679.73	27889.82
679.87	27587.89
680.00	28077.07
680.14	27494.27
680.28	27665.13
680.42	27257.88
680.56	27147.87
680.70	27208.73
680.83	27342.14
680.97	26721.90
681.11	27232.13
681.25	26544.02
681.39	26754.66
681.52	27126.81
681.66	26583.80
681.80	26466.78
681.94	26583.80
682.07	26532.31
682.21	26471.46
682.35	26139.10
682.49	26480.82
682.62	26237.41
682.76	25886.32
682.90	26125.06
683.04	25984.63
683.17	25998.67
683.31	25642.91
683.45	25675.68
683.59	25647.59
683.72	25135.01
683.86	25191.19
684.00	25230.98
684.13	25490.77
684.27	25343.32
684.41	25156.08
684.55	24699.67
684.68	24575.62
684.82	24973.52
684.96	24423.49
685.09	24486.68
685.23	24687.97
685.37	24477.32
685.50	24350.93
685.64	24182.42
685.78	24060.71
685.91	24580.31
686.05	24175.39
686.19	23782.18
686.32	23847.72
686.46	23840.70
686.60	23267.27
686.73	23419.40
686.87	23225.14
687.01	23587.92
687.14	23101.09
687.28	23101.09
687.42	23204.07
687.55	22677.45
687.69	23049.60
687.82	22794.48
687.96	22691.49
688.10	22607.23
688.23	22682.13
688.37	22450.42
688.50	22649.36
688.64	22209.34
688.78	22244.45
688.91	22249.13
689.05	22012.74
689.18	21951.88
689.32	21736.56
689.46	22129.77
689.59	22005.72
689.73	21788.05
689.86	21509.52
690.00	21504.84
690.13	21542.29
690.27	21275.47
690.41	21572.72
690.54	20999.29
690.68	21181.85
690.81	20959.50
690.95	20596.71
691.08	20819.07
691.22	20919.71
691.35	20531.18
691.49	20863.54
691.62	20666.93
691.76	20994.61
691.89	20601.40
692.03	20381.38
692.16	20280.74
692.30	20475.01
692.43	20247.97
692.57	19939.02
692.70	19824.34
692.84	19992.86
692.97	19604.33
693.11	19676.88
693.24	19527.09
693.38	19580.92
693.51	19344.53
693.65	19541.13
693.78	19831.36
693.92	19456.87
694.05	19332.82
694.19	19180.69
694.32	19159.63
694.45	18958.34
694.59	19009.83
694.72	18874.08
694.86	18808.54
694.99	18609.60
695.13	18499.59
695.26	18331.08
695.39	18471.51
695.53	18302.99
695.66	18265.54
695.80	18214.05
695.93	18038.51
696.07	17998.72
696.20	18043.19
696.33	17994.04
696.47	17797.43
696.60	17844.24
696.73	17898.08
696.87	17612.53
697.00	17797.43
697.14	17420.61
697.27	17465.08
697.40	17434.65
697.54	17462.74
697.67	17411.25
697.80	17352.73
697.94	17076.55
698.07	17078.89
698.21	17254.43
698.34	17062.51
698.47	16592.06
698.61	16638.87
698.74	16629.51
698.87	16210.55
699.01	16484.39
699.14	16435.24
699.27	16430.56
699.40	16411.84
699.54	16107.57
699.67	15782.23
699.80	16123.95
699.94	15880.53
700.07	16229.27
700.20	15800.96
700.34	15817.34
700.47	15697.97
700.60	15770.53
700.73	15683.93
700.87	15555.20
701.00	15176.03
701.13	15499.03
701.26	15374.98
701.40	15257.95
701.53	15143.27
701.66	15215.82
701.79	15026.24
701.93	15012.20
702.06	14630.69
702.19	14839.00
702.32	14993.47
702.46	14576.86
702.59	14934.96
702.72	14909.21
702.85	14480.89
702.99	14532.39
703.12	14560.47
703.25	14396.64
703.38	14448.13
703.51	14237.48
703.65	14387.27
703.78	14310.04
703.91	13947.25
704.04	14284.29
704.17	13965.98
704.31	13877.04
704.44	13657.03
704.57	13390.20
704.70	13795.12
704.83	13530.64
704.96	13422.97
705.10	13479.15
705.23	13554.04
>>>>>End Processed Spectral Data<<<<<
