SpectraSuite Data File
++++++++++++++++++++++++++++++++++++
Date: Fri Oct 25 10:48:15 EDT 2013
User: price-jones
Dark Spectrum Present: No
Reference Spectrum Present: No
Number of Sampled Component Spectra: 1
Spectrometers: USB2+H05261
Integration Time (usec): 100000 (USB2+H05261)
Spectra Averaged: 1 (USB2+H05261)
Boxcar Smoothing: 0 (USB2+H05261)
Correct for Electrical Dark: No (USB2+H05261)
Strobe/Lamp Enabled: No (USB2+H05261)
Correct for Detector Non-linearity: No (USB2+H05261)
Correct for Stray Light: No (USB2+H05261)
Number of Pixels in Processed Spectrum: 2048
>>>>>Begin Processed Spectral Data<<<<<
365.73	145.11
365.92	145.11
366.12	145.11
366.32	46.81
366.52	23.41
366.72	88.94
366.91	16.38
367.11	44.47
367.31	35.11
367.51	51.49
367.70	42.13
367.90	16.38
368.10	0.00
368.30	42.13
368.49	0.00
368.69	70.22
368.89	0.00
369.09	46.81
369.28	58.51
369.48	182.56
369.68	72.56
369.87	107.66
370.07	95.96
370.27	154.48
370.47	231.71
370.66	365.12
370.86	428.32
371.06	430.66
371.25	505.56
371.45	400.23
371.65	500.87
371.84	484.49
372.04	428.32
372.24	451.72
372.44	442.36
372.63	498.53
372.83	526.62
373.03	507.90
373.22	531.30
373.42	531.30
373.62	533.64
373.81	533.64
374.01	566.41
374.21	603.86
374.40	521.94
374.60	610.88
374.79	524.28
374.99	535.98
375.19	596.84
375.38	554.71
375.58	585.13
375.78	557.05
375.97	613.22
376.17	587.47
376.37	650.67
376.56	620.24
376.76	653.01
376.95	592.16
377.15	685.78
377.35	678.76
377.54	613.22
377.74	671.73
377.93	601.52
378.13	608.54
378.33	664.71
378.52	578.11
378.72	643.65
378.91	629.60
379.11	610.88
379.31	571.09
379.50	664.71
379.70	681.10
379.89	763.01
380.09	657.69
380.28	657.69
380.48	725.57
380.68	634.29
380.87	685.78
381.07	767.70
381.26	671.73
381.46	697.48
381.65	678.76
381.85	718.54
382.04	643.65
382.24	716.20
382.43	777.06
382.63	744.29
382.83	695.14
383.02	751.31
383.22	849.61
383.41	634.29
383.61	723.23
383.80	882.38
384.00	746.63
384.19	788.76
384.39	760.67
384.58	795.78
384.78	725.57
384.97	842.59
385.17	945.58
385.36	765.36
385.56	791.10
385.75	828.55
385.95	763.01
386.14	734.93
386.34	746.63
386.53	802.80
386.72	830.89
386.92	908.13
387.11	866.00
387.31	814.51
387.50	786.42
387.70	805.14
387.89	882.38
388.09	898.77
388.28	844.93
388.48	814.51
388.67	961.96
388.86	971.32
389.06	912.81
389.25	901.11
389.45	903.45
389.64	976.00
389.84	901.11
390.03	1039.20
390.22	1001.75
390.42	950.26
390.61	1081.33
390.81	997.07
391.00	1102.39
391.19	1078.99
391.39	1015.79
391.58	1018.13
391.78	1006.43
391.97	999.41
392.16	1011.11
392.36	924.51
392.55	976.00
392.75	1041.54
392.94	1013.45
393.13	1008.77
393.33	1032.18
393.52	1022.81
393.71	1125.80
393.91	1006.43
394.10	1081.33
394.29	1160.91
394.49	1074.31
394.68	1186.65
394.88	1137.50
395.07	1130.48
395.26	1135.16
395.46	1109.41
395.65	1146.86
395.84	1210.06
396.04	1235.80
396.23	1130.48
396.42	1181.97
396.62	1170.27
396.81	1088.35
397.00	1212.40
397.19	1174.95
397.39	1252.19
397.58	1315.38
397.77	1306.02
397.97	1350.49
398.16	1437.09
398.35	1383.26
398.55	1380.92
398.74	1392.62
398.93	1439.43
399.12	1359.85
399.32	1327.08
399.51	1439.43
399.70	1488.58
399.90	1401.98
400.09	1409.00
400.28	1493.26
400.47	1549.43
400.67	1551.78
400.86	1596.25
401.05	1570.50
401.24	1526.03
401.44	1636.03
401.63	1600.93
401.82	1619.65
402.01	1600.93
402.21	1554.12
402.40	1582.20
402.59	1579.86
402.78	1624.33
402.97	1675.82
403.17	1577.52
403.36	1706.25
403.55	1750.72
403.74	1764.76
403.93	1741.36
404.13	1748.38
404.32	1729.66
404.51	1764.76
404.70	1743.70
404.89	1696.89
405.09	1825.62
405.28	1743.70
405.47	1877.11
405.66	1790.51
405.85	1914.56
406.05	1858.39
406.24	1853.70
406.43	1783.49
406.62	1898.17
406.81	1944.99
407.00	1966.05
407.20	1994.14
407.39	1970.73
407.58	2085.42
407.77	2038.61
407.96	2127.55
408.15	2239.89
408.34	2040.95
408.54	1996.48
408.73	2087.76
408.92	2111.16
409.11	2289.04
409.30	2204.78
409.49	2200.10
409.68	2111.16
409.87	2141.59
410.07	2209.47
410.26	2300.75
410.45	2197.76
410.64	2314.79
410.83	2342.88
411.02	2251.60
411.21	2459.90
411.40	2499.69
411.59	2455.22
411.78	2478.63
411.98	2527.78
412.17	2527.78
412.36	2509.05
412.55	2576.93
412.74	2649.49
412.93	2551.18
413.12	2509.05
413.31	2745.45
413.50	2602.68
413.69	2640.12
413.88	2782.90
414.07	2750.13
414.26	2829.71
414.45	2857.79
414.64	2815.66
414.83	2810.98
415.02	2747.79
415.22	2911.63
415.41	2885.88
415.60	2977.16
415.79	3000.57
415.98	3042.70
416.17	3098.87
416.36	3066.10
416.55	2986.52
416.74	3038.02
416.93	3080.14
417.12	3089.51
417.31	3124.62
417.50	3199.51
417.69	3190.15
417.88	3300.16
418.07	3155.04
418.26	3211.22
418.45	3251.00
418.64	3435.91
418.83	3370.37
419.02	3344.63
419.21	3342.28
419.39	3192.49
419.58	3442.93
419.77	3410.16
419.96	3328.24
420.15	3396.12
420.34	3461.65
420.53	3531.87
420.72	3648.90
420.91	3478.04
421.10	3597.40
421.29	3611.45
421.48	3522.51
421.67	3581.02
421.86	3602.08
422.05	3435.91
422.24	3574.00
422.43	3574.00
422.61	3674.64
422.80	3583.36
422.99	3784.65
423.18	3742.52
423.37	3726.13
423.56	3709.75
423.75	3728.47
423.94	3700.39
424.13	3468.67
424.32	3543.57
424.50	3805.71
424.69	3688.68
424.88	3838.48
425.07	3653.58
425.26	3604.42
425.45	3754.22
425.64	3691.02
425.83	3492.08
426.01	3786.99
426.20	3721.45
426.39	3882.95
426.58	3777.62
426.77	3756.56
426.96	3784.65
427.15	3805.71
427.33	3847.84
427.52	3796.35
427.71	3812.73
427.90	3974.23
428.09	3999.98
428.28	3847.84
428.46	4037.42
428.65	3988.27
428.84	4231.69
429.03	4067.85
429.22	3812.73
429.40	4072.53
429.59	3894.65
429.78	3829.12
429.97	3639.53
430.16	3889.97
430.34	3990.61
430.53	4121.68
430.72	4074.87
430.91	4060.83
431.10	4156.79
431.28	4255.09
431.47	4283.18
431.66	4318.29
431.85	4126.36
432.03	4283.18
432.22	4388.50
432.41	4409.57
432.60	4383.82
432.79	4526.60
432.97	4386.16
433.16	4475.10
433.35	4379.14
433.54	4447.02
433.72	4484.47
433.91	4456.38
434.10	4451.70
434.28	4505.53
434.47	4442.34
434.66	4631.92
434.85	4662.35
435.03	4833.21
435.22	4688.09
435.41	4884.70
435.59	4809.80
435.78	4917.47
435.97	4952.57
436.16	4889.38
436.34	4861.29
436.53	4887.04
436.72	5032.15
436.90	4837.89
437.09	4861.29
437.28	4814.48
437.46	4971.30
437.65	4835.55
437.84	4858.95
438.02	5102.37
438.21	5081.30
438.40	4908.10
438.58	5071.94
438.77	5121.09
438.96	5064.92
439.14	5357.49
439.33	5261.52
439.52	5261.52
439.70	5458.13
439.89	5336.42
440.08	5631.33
440.26	5371.53
440.45	5317.70
440.63	5547.07
440.82	5760.06
441.01	5561.11
441.19	5640.69
441.38	5738.99
441.57	5640.69
441.75	5893.47
441.94	5884.11
442.12	6059.65
442.31	6010.50
442.50	5893.47
442.68	6005.81
442.87	5909.85
443.05	5956.66
443.24	5937.94
443.43	6193.06
443.61	6015.18
443.80	6204.76
443.98	5942.62
444.17	5863.04
444.35	6099.44
444.54	6085.39
444.73	6129.86
444.91	6092.41
445.10	6253.91
445.28	6066.67
445.47	6141.57
445.65	6057.31
445.84	6066.67
446.02	6305.40
446.21	6251.57
446.39	6359.24
446.58	6296.04
446.77	6263.27
446.95	6085.39
447.14	6193.06
447.32	6457.54
447.51	6277.32
447.69	6298.38
447.88	6293.70
448.06	6246.89
448.25	6394.34
448.43	6516.05
448.62	6373.28
448.80	6406.05
448.99	6380.30
449.17	6375.62
449.36	6300.72
449.54	6527.75
449.73	6679.89
449.91	6843.73
450.10	6808.62
450.28	6836.70
450.46	6876.49
450.65	6724.36
450.83	6787.55
451.02	6827.34
451.20	6937.35
451.39	6930.33
451.57	6876.49
451.76	6773.51
451.94	6855.43
452.13	6874.15
452.31	6665.85
452.49	6647.12
452.68	6729.04
452.86	6965.43
453.05	7052.03
453.23	6958.41
453.42	6752.45
453.60	6984.16
453.78	7131.61
453.97	6799.26
454.15	7197.15
454.34	6981.82
454.52	7180.76
454.70	7236.94
454.89	7220.55
455.07	7253.32
455.26	7260.34
455.44	7145.66
455.62	7131.61
455.81	7452.27
455.99	7463.97
456.17	7487.37
456.36	7382.05
456.54	7459.29
456.73	7747.17
456.91	7534.18
457.09	7691.00
457.28	7824.41
457.46	7557.59
457.64	7571.63
457.83	7520.14
458.01	7627.81
458.19	7698.02
458.38	7667.60
458.56	7857.18
458.74	7843.14
458.93	7861.86
459.11	7765.90
459.29	7929.74
459.48	7929.74
459.66	7999.95
459.84	7969.52
460.03	8126.34
460.21	7936.76
460.39	8367.42
460.57	8063.15
460.76	8201.24
460.94	8044.42
461.12	8100.59
461.31	8147.40
461.49	8219.96
461.67	8131.02
461.85	8306.56
462.04	8313.58
462.22	8980.64
462.40	8468.06
462.59	8404.86
462.77	8557.00
462.95	8622.53
463.13	8521.89
463.32	8421.25
463.50	8531.25
463.68	8629.56
463.86	8554.66
464.05	8353.37
464.23	8257.41
464.41	8446.99
464.59	8458.70
464.78	8727.86
464.96	8568.70
465.14	8636.58
465.32	8718.50
465.50	8798.07
465.69	8961.91
465.87	8755.94
466.05	8746.58
466.23	8667.00
466.41	8739.56
466.60	9053.19
466.78	8805.10
466.96	9029.79
467.14	8936.17
467.32	8875.31
467.51	9074.26
467.69	8793.39
467.87	9064.89
468.05	9249.80
468.23	8814.46
468.41	8994.68
468.60	9118.73
468.78	9144.47
468.96	8922.12
469.14	9221.71
469.32	9268.52
469.50	9013.40
469.69	9114.05
469.87	9343.42
470.05	9371.50
470.23	9390.23
470.41	9439.38
470.59	9322.35
470.77	9479.17
470.95	9451.08
471.14	9921.53
471.32	9537.68
471.50	9804.50
471.68	9731.95
471.86	9647.69
472.04	9764.72
472.22	10232.82
472.40	9877.06
472.58	9853.66
472.77	9797.48
472.95	10174.31
473.13	10279.63
473.31	9830.25
473.49	9954.30
473.67	10136.86
473.85	10064.30
474.03	10387.30
474.21	10476.24
474.39	10462.19
474.57	10448.15
474.75	10455.17
474.93	10733.70
475.12	10684.55
475.30	10862.43
475.48	10642.42
475.66	10590.92
475.84	10661.14
476.02	10841.36
476.20	11094.14
476.38	11131.59
476.56	11323.51
476.74	11119.89
476.92	11412.45
477.10	11147.97
477.28	11426.50
477.46	11527.14
477.64	11393.73
477.82	11833.75
478.00	11955.46
478.18	11985.88
478.36	11943.75
478.54	11925.03
478.72	12219.94
478.90	12233.98
479.08	12318.24
479.26	12526.55
479.44	12505.48
479.62	12723.15
479.80	12521.87
479.98	12575.70
480.16	12952.52
480.34	12854.22
480.52	13050.83
480.70	13107.00
480.88	12973.59
481.06	12861.24
481.24	13163.17
481.41	13549.36
481.59	13502.55
481.77	13724.90
481.95	13755.33
482.13	13944.91
482.31	13919.17
482.49	14125.13
482.67	14221.10
482.85	14279.61
483.03	14455.15
483.21	14375.57
483.39	14572.18
483.57	14441.11
483.74	14642.39
483.92	15089.43
484.10	14822.61
484.28	15051.99
484.46	15328.17
484.64	15822.02
484.82	15136.24
485.00	15382.00
485.18	15791.59
485.35	15756.49
485.53	15494.35
485.71	15637.12
485.89	15852.45
486.07	16112.25
486.25	15807.98
486.43	16231.62
486.61	16791.00
486.78	16538.23
486.96	16636.53
487.14	17008.67
487.32	16884.62
487.50	17132.72
487.68	17444.01
487.85	17500.19
488.03	17633.60
488.21	17797.43
488.39	17626.57
488.57	18314.69
488.75	17729.56
488.92	18253.84
489.10	18410.65
489.28	18597.90
489.46	18665.77
489.64	18778.12
489.81	19344.53
489.99	19300.06
490.17	19550.49
490.35	19590.28
490.53	19580.92
490.70	19562.20
490.88	19747.10
491.06	19845.40
491.24	19761.14
491.41	19901.58
491.59	19917.96
491.77	19953.07
491.95	20294.79
492.13	20716.08
492.30	20446.92
492.48	20662.25
492.66	20842.47
492.84	20816.72
493.01	21418.24
493.19	20910.35
493.37	21254.40
493.54	21502.50
493.72	21766.98
493.90	21764.64
494.08	22057.21
494.25	22305.31
494.43	22176.58
494.61	22391.91
494.79	22445.74
494.96	22457.44
495.14	22462.12
495.32	22771.07
495.49	22806.18
495.67	22810.86
495.85	23185.35
496.02	23300.03
496.20	23384.29
496.38	23445.15
496.55	23536.43
496.73	24095.82
496.91	23709.63
497.09	23948.36
497.26	23983.47
497.44	24137.94
497.62	24254.97
497.79	24266.67
497.97	24156.67
498.14	24428.17
498.32	24500.73
498.50	24409.45
498.67	24912.66
498.85	24964.15
499.03	25261.40
499.20	25268.42
499.38	25284.81
499.56	25062.46
499.73	25469.71
499.91	25322.26
500.08	25708.44
500.26	25551.63
500.44	25577.37
500.61	25757.60
500.79	25825.47
500.97	25865.26
501.14	25806.75
501.32	26324.01
501.49	26127.40
501.67	26312.30
501.84	26513.59
502.02	26583.80
502.20	26623.59
502.37	27040.21
502.55	26731.26
502.72	26623.59
502.90	27285.97
503.07	26778.07
503.25	27049.57
503.43	26850.63
503.60	26923.18
503.78	27351.50
503.95	27438.10
504.13	27246.18
504.30	27606.62
504.48	27323.41
504.65	27730.67
504.83	27587.89
505.01	28306.44
505.18	27782.16
505.36	28554.54
505.53	28177.71
505.71	28322.82
505.88	28814.34
506.06	28276.01
506.23	28332.18
506.41	28276.01
506.58	28781.57
506.76	28844.76
506.93	28533.47
507.11	29015.62
507.28	29177.12
507.46	28987.53
507.63	28807.31
507.81	29205.20
507.98	28856.46
508.16	29654.59
508.33	29088.18
508.50	29340.96
508.68	30057.16
508.85	30295.89
509.03	29645.23
509.20	29532.88
509.38	30125.04
509.55	30349.73
509.73	29869.92
509.90	30148.44
510.08	29862.90
510.25	30291.21
510.42	30321.64
510.60	30677.40
510.77	30614.21
510.95	30859.96
511.12	30607.19
511.30	30714.85
511.47	31417.01
511.64	31154.87
511.82	31042.53
511.99	31365.52
512.17	31061.25
512.34	30923.16
512.51	31379.56
512.69	31377.22
512.86	31204.02
513.04	31786.82
513.21	31552.76
513.38	31700.22
513.56	31756.39
513.73	31625.32
513.90	31782.13
514.08	31838.31
514.25	32063.00
514.43	32297.05
514.60	32395.35
514.77	32292.37
514.95	32456.21
515.12	32533.45
515.29	32224.50
515.47	32779.20
515.64	33081.13
515.81	32818.99
515.99	32685.58
516.16	32650.47
516.33	32779.20
516.51	33055.39
516.68	32580.26
516.85	32582.60
517.03	32783.88
517.20	33099.86
517.37	33289.44
517.54	33472.00
517.72	33296.46
517.89	33013.26
518.06	33315.19
518.24	33144.33
518.41	33432.21
518.58	33600.73
518.75	33783.29
518.93	33837.12
519.10	33790.31
519.27	34061.82
519.45	34197.57
519.62	33867.55
519.79	34415.24
519.96	34363.75
520.14	34567.37
520.31	34843.56
520.48	34536.94
520.65	34321.62
520.83	34778.02
521.00	34646.95
521.17	34403.53
521.34	34668.02
521.52	35133.78
521.69	35185.27
521.86	35494.22
522.03	34749.93
522.20	35152.51
522.38	35379.54
522.55	35604.23
522.72	35339.75
522.89	35552.74
523.07	35473.16
523.24	35283.58
523.41	35526.99
523.58	35601.89
523.75	36002.12
523.92	35990.42
524.10	36430.44
524.27	35852.33
524.44	36116.81
524.61	36259.58
524.78	36294.69
524.96	36325.11
525.13	36638.75
525.30	36416.40
525.47	36521.72
525.64	36690.24
525.81	36500.65
525.98	36671.51
526.16	36142.55
526.33	35976.37
526.50	36631.72
526.67	36725.35
526.84	36526.40
527.01	36739.39
527.18	36926.63
527.36	37394.74
527.53	37001.53
527.70	37455.59
527.87	37603.05
528.04	37324.52
528.21	37493.04
528.38	37518.79
528.55	37518.79
528.72	37347.93
528.89	38022.00
529.07	37663.90
529.24	37778.59
529.41	37837.10
529.58	37867.53
529.75	37699.01
529.92	38033.71
530.09	38050.09
530.26	38141.37
530.43	38597.77
530.60	37699.01
530.77	38040.73
530.94	38230.31
531.11	38352.02
531.28	38171.80
531.46	38321.59
531.63	38447.98
531.80	38426.92
531.97	38045.41
532.14	38525.22
532.31	38307.55
532.48	38871.62
532.65	38747.57
532.82	38803.74
532.99	38778.00
533.16	38543.94
533.33	38990.98
533.50	39157.16
533.67	39054.18
533.84	38927.79
534.01	39070.56
534.18	39044.82
534.35	39529.31
534.52	38794.38
534.69	39234.40
534.86	39454.41
535.03	39225.04
535.20	39512.92
535.37	39498.88
535.54	40027.84
535.71	39559.73
535.88	39131.42
536.05	39793.79
536.22	39697.83
536.38	39754.00
536.55	39903.79
536.72	39812.51
536.89	39805.49
537.06	39611.23
537.23	40158.91
537.40	39756.34
537.57	40086.36
537.74	40098.06
537.91	40421.05
538.08	40147.21
538.25	39901.45
538.42	40133.17
538.59	40250.19
538.75	39950.60
538.92	40488.93
539.09	40610.64
539.26	40189.34
539.43	40533.40
539.60	40086.36
539.77	40741.71
539.94	40545.10
540.11	40271.26
540.28	40362.54
540.44	40601.27
540.61	40416.37
540.78	40737.02
540.95	40655.11
541.12	40399.99
541.29	40407.01
541.46	40715.96
541.62	40938.31
541.79	41280.03
541.96	40961.72
542.13	40851.71
542.30	40802.56
542.47	41067.04
542.63	40751.07
542.80	41310.46
542.97	41200.45
543.14	41551.53
543.31	41537.49
543.48	41996.23
543.64	42403.49
543.81	42059.43
543.98	41907.29
544.15	41701.32
544.32	41904.95
544.48	42117.94
544.65	41584.30
544.82	41823.03
544.99	41593.66
545.16	42314.55
545.32	42122.62
545.49	42256.03
545.66	42660.94
545.83	42164.75
546.00	42309.86
546.16	42408.17
546.33	42211.56
546.50	41570.25
546.67	42005.59
546.83	42131.98
547.00	42239.65
547.17	42239.65
547.34	42361.36
547.50	42529.87
547.67	42885.64
547.84	42532.22
548.00	42906.70
548.17	42878.61
548.34	42712.44
548.51	43063.52
548.67	42703.07
548.84	42836.48
549.01	42794.36
549.18	42827.12
549.34	42820.10
549.51	43124.37
549.68	42557.96
549.84	42834.14
550.01	43384.17
550.18	43278.85
550.34	43234.38
550.51	43288.21
550.68	42569.66
550.84	42820.10
551.01	43639.29
551.18	43330.34
551.34	43168.84
551.51	43168.84
551.68	43356.08
551.84	43189.91
552.01	43466.09
552.18	43353.74
552.34	43405.23
552.51	43503.54
552.68	43388.85
552.84	44055.90
553.01	44098.03
553.18	43622.90
553.34	43367.79
553.51	43421.62
553.67	43718.87
553.84	43903.77
554.01	44168.25
554.17	43772.70
554.34	44299.32
554.51	43466.09
554.67	44130.80
554.84	43882.70
555.00	43775.04
555.17	44069.95
555.33	43988.03
555.50	44184.63
555.67	44205.70
555.83	44189.31
556.00	44083.99
556.16	44828.28
556.33	43880.36
556.50	44259.53
556.66	43784.40
556.83	44144.84
556.99	44259.53
557.16	44570.82
557.32	44041.86
557.49	44168.25
557.65	44587.21
557.82	44023.14
557.98	44051.22
558.15	43950.58
558.32	43732.91
558.48	43920.15
558.65	43966.96
558.81	44322.72
558.98	44322.72
559.14	44472.52
559.31	44388.26
559.47	44598.91
559.64	44540.39
559.80	44971.05
559.97	44734.66
560.13	44444.43
560.30	44273.57
560.46	44802.53
560.63	44355.49
560.79	44533.37
560.96	44854.03
561.12	44879.77
561.29	44631.68
561.45	44582.52
561.61	44886.79
561.78	44556.78
561.94	44430.39
562.11	44746.36
562.27	44821.26
562.44	44521.67
562.60	44856.37
562.77	44825.94
562.93	44498.26
563.10	45081.06
563.26	44737.00
563.42	45366.60
563.59	44978.07
563.75	45010.84
563.92	45191.06
564.08	45048.29
564.24	45205.11
564.41	44982.76
564.57	44790.83
564.74	44903.18
564.90	45071.70
565.07	44783.81
565.23	44938.29
565.39	44935.95
565.56	45177.02
565.72	44814.24
565.88	45008.50
566.05	44940.63
566.21	45153.62
566.38	44802.53
566.54	44779.13
566.70	45188.72
566.87	45478.95
567.03	45324.47
567.19	45773.86
567.36	45134.89
567.52	45031.91
567.68	45490.65
567.85	44905.52
568.01	45280.00
568.17	45120.85
568.34	45453.20
568.50	45251.92
568.66	45207.45
568.83	45619.38
568.99	45287.03
569.15	45022.54
569.32	45551.51
569.48	45062.33
569.64	45254.26
569.81	45223.83
569.97	44809.56
570.13	45324.47
570.30	44652.74
570.46	44912.54
570.62	45055.31
570.78	44949.99
570.95	44816.58
571.11	45677.90
571.27	45069.36
571.43	45151.27
571.60	45574.91
571.76	45312.77
571.92	45088.08
572.09	45319.79
572.25	45750.45
572.41	45029.57
572.57	45654.49
572.74	45935.35
572.90	45661.51
573.06	45165.32
573.22	45851.09
573.38	45404.05
573.55	45059.99
573.71	45420.44
573.87	45137.23
574.03	45432.14
574.20	45422.78
574.36	45191.06
574.52	45488.31
574.68	45471.93
574.84	45523.42
575.01	45881.52
575.17	45202.77
575.33	45237.87
575.49	45109.14
575.65	45691.94
575.82	45841.73
575.98	45462.57
576.14	45724.71
576.30	45476.61
576.46	45109.14
576.62	45404.05
576.79	45537.46
576.95	44980.42
577.11	45457.88
577.27	45808.96
577.43	45322.13
577.59	45443.84
577.75	45443.84
577.92	45113.83
578.08	45439.16
578.24	45184.04
578.40	45848.75
578.56	45394.69
578.72	45640.45
578.88	45902.59
579.04	45457.88
579.21	45535.12
579.37	45455.54
579.53	45649.81
579.69	45123.19
579.85	45471.93
580.01	45177.02
580.17	45574.91
580.33	45537.46
580.49	45500.01
580.65	45516.40
580.82	45668.53
580.98	45303.41
581.14	45268.30
581.30	45745.77
581.46	45563.21
581.62	45750.45
581.78	45228.51
581.94	46005.57
582.10	45738.75
582.26	46265.37
582.42	45923.65
582.58	45598.32
582.74	45762.15
582.90	45549.17
583.06	46050.04
583.22	46157.70
583.38	45521.08
583.54	45961.10
583.70	45565.55
583.86	46000.89
584.02	45572.57
584.18	45825.35
584.34	45998.55
584.50	45715.34
584.66	45991.53
584.82	45530.44
584.98	45731.73
585.14	45900.25
585.30	45654.49
585.46	45886.20
585.62	45312.77
585.78	45551.51
585.94	45303.41
586.10	45727.05
586.26	45331.50
586.42	45918.97
586.58	46106.21
586.74	45638.11
586.90	46106.21
587.06	45457.88
587.22	45769.18
587.38	45443.84
587.54	46061.74
587.70	45858.12
587.86	45628.74
588.02	45422.78
588.18	45890.88
588.34	45645.13
588.49	45209.79
588.65	44971.05
588.81	45162.98
588.97	45174.68
589.13	45469.59
589.29	45411.07
589.45	45766.84
589.61	45689.60
589.77	45731.73
589.93	45687.26
590.08	45820.67
590.24	46061.74
590.40	45619.38
590.56	45792.58
590.72	45984.51
590.88	45216.81
591.04	46059.40
591.20	46129.62
591.35	45872.16
591.51	46216.22
591.67	46190.47
591.83	45958.76
591.99	45804.28
592.15	45411.07
592.31	45841.73
592.46	45820.67
592.62	45633.42
592.78	45968.12
592.94	45776.20
593.10	45631.08
593.26	46337.93
593.41	45855.78
593.57	45511.72
593.73	45507.04
593.89	45701.30
594.05	46033.66
594.20	45748.11
594.36	45911.95
594.52	46028.98
594.68	45818.33
594.84	46220.90
594.99	46164.73
595.15	45598.32
595.31	46185.79
595.47	45923.65
595.62	45970.46
595.78	45792.58
595.94	45951.74
596.10	46127.28
596.25	45670.87
596.41	46129.62
596.57	45876.84
596.73	46628.15
596.88	45507.04
597.04	45769.18
597.20	46384.74
597.36	46150.68
597.51	46461.97
597.67	46248.99
597.83	46174.09
597.99	46057.06
598.14	46012.59
598.30	45991.53
598.46	45886.20
598.61	45869.82
598.77	45687.26
598.93	46141.32
599.09	46251.33
599.24	46382.40
599.40	46094.51
599.56	45872.16
599.71	46017.27
599.87	46270.05
600.03	45979.82
600.18	46557.94
600.34	45846.41
600.50	45605.34
600.65	46094.51
600.81	46237.28
600.97	46583.68
601.12	46471.34
601.28	46188.13
601.44	46368.35
601.59	46321.54
601.75	45914.29
601.91	46080.47
602.06	45837.05
602.22	45874.50
602.37	45996.21
602.53	46078.13
602.69	45965.78
602.84	45998.55
603.00	46220.90
603.16	46244.30
603.31	46000.89
603.47	45998.55
603.62	45902.59
603.78	46028.98
603.94	45713.00
604.09	46239.62
604.25	46019.61
604.40	45872.16
604.56	45860.46
604.71	45808.96
604.87	45792.58
605.03	46101.53
605.18	45900.25
605.34	46141.32
605.49	45195.74
605.65	46199.83
605.80	46021.95
605.96	46323.88
606.12	45823.01
606.27	46010.25
606.43	45563.21
606.58	46363.67
606.74	45460.23
606.89	45385.33
607.05	45588.95
607.20	45652.15
607.36	46251.33
607.51	46213.88
607.67	45642.79
607.82	45759.81
607.98	45911.95
608.13	45696.62
608.29	45361.92
608.44	45443.84
608.60	44994.46
608.75	45329.16
608.91	45284.68
609.06	45146.59
609.22	45832.37
609.37	45303.41
609.53	45656.83
609.68	45146.59
609.84	45729.39
609.99	45439.16
610.15	45588.95
610.30	45394.69
610.46	45120.85
610.61	45542.14
610.76	45539.80
610.92	45471.93
611.07	45221.49
611.23	45242.56
611.38	45518.74
611.54	45052.97
611.69	45132.55
611.84	45162.98
612.00	45382.99
612.15	45071.70
612.31	45345.54
612.46	45317.45
612.62	45429.80
612.77	45462.57
612.92	45387.67
613.08	45153.62
613.23	45200.43
613.39	44823.60
613.54	45055.31
613.69	45212.13
613.85	44818.92
614.00	45432.14
614.15	45247.24
614.31	44818.92
614.46	44957.01
614.62	45038.93
614.77	44879.77
614.92	44924.24
615.08	44350.81
615.23	44699.55
615.38	44779.13
615.54	44224.42
615.69	44839.98
615.84	44065.27
616.00	44786.15
616.15	44968.71
616.30	44842.32
616.46	44486.56
616.61	44470.18
616.76	44465.50
616.92	44697.21
617.07	44137.82
617.22	44467.84
617.37	44163.57
617.53	44477.20
617.68	44463.16
617.83	44823.60
617.99	44701.89
618.14	44598.91
618.29	44680.83
618.45	44287.62
618.60	44350.81
618.75	44493.58
618.90	44128.46
619.06	44156.55
619.21	44425.71
619.36	44708.91
619.51	44095.69
619.67	44098.03
619.82	44493.58
619.97	44053.56
620.12	44149.53
620.28	43487.15
620.43	44182.29
620.58	44018.46
620.73	44091.01
620.89	44091.01
621.04	43693.12
621.19	44048.88
621.34	44072.29
621.49	43381.83
621.65	43854.62
621.80	43985.69
621.95	43915.47
622.10	43819.51
622.25	43742.27
622.41	43849.94
622.56	43873.34
622.71	43866.32
622.86	43536.30
623.01	43674.40
623.16	43665.03
623.32	43889.73
623.47	43632.27
623.62	43639.29
623.77	43533.96
623.92	43660.35
624.07	43210.97
624.23	43283.53
624.38	42941.81
624.53	43421.62
624.68	43306.93
624.83	43681.42
624.98	43676.74
625.13	43058.84
625.29	43489.49
625.44	43110.33
625.59	42948.83
625.74	42810.74
625.89	42693.71
626.04	42934.79
626.19	43304.59
626.34	43035.43
626.49	42639.88
626.65	42890.32
626.80	43320.98
626.95	42990.96
627.10	43140.75
627.25	42436.25
627.40	42579.03
627.55	42319.23
627.70	42770.95
627.85	42433.91
628.00	42658.60
628.15	42719.46
628.30	42375.40
628.45	42464.34
628.60	42651.58
628.76	42820.10
628.91	42841.17
629.06	43030.75
629.21	42728.82
629.36	41804.31
629.51	42241.99
629.66	42321.57
629.81	42040.70
629.96	42431.57
630.11	42504.13
630.26	42665.63
630.41	42672.65
630.56	41773.88
630.71	42265.39
630.86	42574.34
631.01	42143.69
631.16	41968.15
631.31	41890.91
631.46	41610.04
631.61	41893.25
631.76	42220.92
631.91	41890.91
632.06	41715.37
632.21	42160.07
632.36	42337.95
632.51	41909.63
632.66	41874.52
632.81	41771.54
632.96	41654.51
633.10	41436.84
633.25	41792.61
633.40	41787.92
633.55	41663.88
633.70	42066.45
633.85	41200.45
634.00	41591.32
634.15	41631.11
634.30	41556.21
634.45	41755.16
634.60	40942.99
634.75	41069.38
634.90	41743.45
635.05	41811.33
635.19	41619.41
635.34	41663.88
635.49	41787.92
635.64	41380.67
635.79	41378.33
635.94	41207.47
636.09	41654.51
636.24	41343.22
636.39	41006.19
636.53	41003.85
636.68	41064.70
636.83	40825.96
636.98	40964.06
637.13	41141.94
637.28	41265.99
637.43	41469.61
637.57	40781.49
637.72	41074.06
637.87	41319.82
638.02	41294.07
638.17	40964.06
638.32	40950.01
638.46	40940.65
638.61	40732.34
638.76	40701.92
638.91	40591.91
639.06	40961.72
639.20	40636.38
639.35	41134.92
639.50	41230.88
639.65	40992.14
639.80	40814.26
639.94	40465.52
640.09	40521.69
640.24	40449.14
640.39	40428.07
640.54	40388.28
640.68	40488.93
640.83	40355.52
640.98	39934.22
641.13	40568.51
641.27	39974.01
641.42	40863.41
641.57	40528.72
641.72	39959.97
641.86	40069.97
642.01	39866.34
642.16	39796.13
642.31	39889.75
642.45	40392.97
642.60	40081.67
642.75	40093.38
642.90	39943.58
643.04	39917.84
643.19	39786.77
643.34	40109.76
643.48	40002.10
643.63	40191.68
643.78	39831.24
643.93	40069.97
644.07	39779.74
644.22	39810.17
644.37	39976.35
644.51	39819.53
644.66	39503.56
644.81	39997.41
644.95	39807.83
645.10	39629.95
645.25	40093.38
645.39	39728.25
645.54	39541.01
645.69	39849.96
645.83	39655.70
645.98	40046.57
646.13	39697.83
646.27	39325.68
646.42	39332.70
646.57	39505.90
646.71	39697.83
646.86	39218.02
647.00	39262.49
647.15	39381.85
647.30	39522.29
647.44	39241.42
647.59	39311.64
647.74	39129.08
647.88	39089.29
648.03	38880.98
648.17	38808.42
648.32	38834.17
648.47	38806.08
648.61	39112.69
648.76	39604.20
648.90	38976.94
649.05	39082.27
649.20	38733.53
649.34	39117.37
649.49	39091.63
649.63	38763.95
649.78	38913.75
649.92	38892.68
650.07	38911.41
650.21	38616.50
650.36	39079.92
650.51	38843.53
650.65	39157.16
650.80	39220.36
650.94	39271.85
651.09	38656.29
651.23	38754.59
651.38	39061.20
651.52	38464.36
651.67	38913.75
651.81	38635.22
651.96	38345.00
652.10	38939.49
652.25	38209.25
652.39	38291.16
652.54	38426.92
652.68	38511.17
652.83	38211.59
652.97	38684.37
653.12	38485.43
653.26	38134.35
653.41	38396.49
653.55	37970.51
653.70	37724.75
653.84	38354.36
653.99	38256.06
654.13	37717.73
654.27	37921.36
654.42	37832.42
654.56	38466.70
654.71	38129.67
654.85	38225.63
655.00	37904.98
655.14	37612.41
655.29	37708.37
655.43	37867.53
655.57	37436.87
655.72	37326.86
655.86	37762.20
656.01	37455.59
656.15	37532.83
656.30	37797.31
656.44	37745.82
656.58	37530.49
656.73	37720.07
656.87	37336.23
657.01	37516.45
657.16	37347.93
657.30	37022.59
657.45	37347.93
657.59	37420.48
657.73	37001.53
657.88	37092.81
658.02	37738.80
658.16	37202.82
658.31	37406.44
658.45	37329.20
658.60	36605.98
658.74	37254.31
658.88	37490.70
659.03	36875.14
659.17	36737.05
659.31	37373.67
659.46	36739.39
659.60	36875.14
659.74	37022.59
659.89	36933.65
660.03	36575.55
660.17	36933.65
660.32	36718.32
660.46	36947.70
660.60	37027.28
660.74	36608.32
660.89	36989.83
661.03	36292.35
661.17	36297.03
661.32	36383.63
661.46	36549.81
661.60	36378.95
661.74	36067.66
661.89	36254.90
662.03	36318.09
662.17	36077.02
662.31	36219.79
662.46	36362.56
662.60	36107.44
662.74	35903.82
662.88	36062.97
663.03	35920.20
663.17	35854.67
663.31	35737.64
663.45	35995.10
663.60	35814.88
663.74	35721.26
663.88	35393.58
664.02	35091.65
664.17	35831.26
664.31	35108.04
664.45	35583.16
664.59	35164.21
664.73	35119.74
664.88	35342.09
665.02	35021.44
665.16	35072.93
665.30	35409.96
665.44	34969.94
665.59	34536.94
665.73	35098.67
665.87	34675.04
666.01	34733.55
666.15	34520.56
666.29	34951.22
666.44	34895.05
666.58	34581.42
666.72	34878.66
666.86	34597.80
667.00	34621.20
667.14	34286.51
667.28	34220.97
667.43	34080.54
667.57	34483.11
667.71	34117.99
667.85	34394.17
667.99	34150.76
668.13	33673.29
668.27	33954.15
668.41	34148.42
668.56	33736.48
668.70	34176.50
668.84	33881.60
668.98	33420.51
669.12	33900.32
669.26	33628.82
669.40	33558.60
669.54	33411.15
669.68	33364.34
669.82	33542.22
669.96	33020.28
670.10	33034.32
670.25	33621.80
670.39	33638.18
670.53	33060.07
670.67	32723.03
670.81	33165.39
670.95	33226.24
671.09	33031.98
671.23	33013.26
671.37	32821.33
671.51	32758.14
671.65	32631.75
671.79	32666.86
671.93	32488.98
672.07	32563.87
672.21	32357.91
672.35	32217.47
672.49	32079.38
672.63	32329.82
672.77	32641.11
672.91	31924.91
673.05	32236.20
673.19	31999.80
673.33	32203.43
673.47	32002.14
673.61	31512.97
673.75	31505.95
673.89	31283.60
674.03	31257.85
674.17	31503.61
674.31	31276.58
674.45	31611.28
674.59	31557.44
674.73	31264.88
674.87	31344.45
675.01	31194.66
675.15	31494.25
675.29	30904.43
675.43	30756.98
675.56	30808.47
675.70	30976.99
675.84	30696.13
675.98	30136.74
676.12	30340.36
676.26	30258.45
676.40	30246.74
676.54	30724.21
676.68	30394.20
676.82	29961.20
676.96	30178.87
677.10	29951.84
677.23	30005.67
677.37	29914.39
677.51	30010.35
677.65	29905.02
677.79	29528.20
677.93	29256.70
678.07	29268.40
678.21	29219.25
678.34	29350.32
678.48	29174.78
678.62	28891.57
678.76	28978.17
678.90	28699.65
679.04	28943.06
679.18	28580.28
679.31	28521.77
679.45	28484.32
679.59	27934.29
679.73	28411.76
679.87	28517.09
680.00	28219.84
680.14	28060.68
680.28	27791.52
680.42	27941.32
680.56	27524.70
680.70	27747.05
680.83	27541.08
680.97	27410.01
681.11	27644.07
681.25	27096.38
681.39	27246.18
681.52	27325.75
681.66	27321.07
681.80	26871.69
681.94	26941.91
682.07	27054.25
682.21	26595.51
682.35	26593.17
682.49	26647.00
682.62	26780.41
682.76	26115.70
682.90	26405.92
683.04	26408.26
683.17	26176.55
683.31	26146.12
683.45	25874.62
683.59	26029.10
683.72	25846.54
683.86	25724.83
684.00	25766.96
684.13	25366.73
684.27	25624.18
684.41	25139.69
684.55	25502.48
684.68	24737.12
684.82	25123.31
684.96	25081.18
685.09	24975.86
685.23	24996.92
685.37	24702.01
685.50	24938.41
685.64	24875.21
685.78	24603.71
685.91	24484.34
686.05	24339.23
686.19	24348.59
686.32	24051.34
686.46	24320.51
686.60	23545.79
686.73	23805.59
686.87	23393.65
687.01	23344.50
687.14	23571.54
687.28	23260.24
687.42	23414.72
687.55	23091.73
687.69	23035.55
687.82	22927.89
687.96	22925.55
688.10	22670.43
688.23	22836.61
688.37	22721.92
688.50	22579.15
688.64	22286.58
688.78	22611.92
688.91	22415.31
689.05	22326.37
689.18	22204.66
689.32	22120.40
689.46	22113.38
689.59	22235.09
689.73	22029.12
689.86	21806.77
690.00	21912.10
690.13	22136.79
690.27	21734.21
690.41	22043.17
690.54	21523.57
690.68	21720.17
690.81	21277.81
690.95	21053.12
691.08	21097.59
691.22	21315.26
691.35	21261.43
691.49	21228.66
691.62	20926.73
691.76	21008.65
691.89	20760.55
692.03	20828.43
692.16	20713.74
692.30	20709.06
692.43	20362.66
692.57	20601.40
692.70	20456.28
692.84	20257.34
692.97	20189.46
693.11	19798.59
693.24	20229.25
693.38	20201.16
693.51	19786.89
693.65	20002.22
693.78	19477.94
693.92	19681.56
694.05	19723.69
694.19	19433.47
694.32	19513.05
694.45	19243.88
694.59	19515.39
694.72	19126.86
694.86	19161.97
694.99	18780.46
695.13	18698.54
695.26	18518.32
695.39	18693.86
695.53	18691.52
695.66	18682.16
695.80	18448.10
695.93	18307.67
696.07	18480.87
696.20	18242.14
696.33	18272.56
696.47	18345.12
696.60	17923.82
696.73	18258.52
696.87	18207.03
697.00	17844.24
697.14	17994.04
697.27	17638.28
697.40	17809.14
697.54	17647.64
697.67	17685.09
697.80	17649.98
697.94	17497.84
698.07	17455.72
698.21	17226.34
698.34	17245.07
698.47	17011.01
698.61	16575.67
698.74	16889.31
698.87	16917.39
699.01	16507.80
699.14	16580.36
699.27	16716.11
699.40	16676.32
699.54	16489.07
699.67	16418.86
699.80	16238.64
699.94	16168.42
700.07	16116.93
700.20	16250.34
700.34	15873.51
700.47	16114.59
700.60	16004.58
700.73	16042.03
700.87	16168.42
701.00	15864.15
701.13	15562.22
701.26	15751.81
701.40	15826.70
701.53	15459.24
701.66	15426.47
701.79	15276.68
701.93	14949.00
702.06	15379.66
702.19	15002.83
702.32	15061.35
702.46	14831.97
702.59	14834.32
702.72	14792.19
702.85	14810.91
702.99	14892.83
703.12	14981.77
703.25	14640.05
703.38	14649.41
703.51	14422.38
703.65	14494.94
703.78	14125.13
703.91	14225.78
704.04	14146.20
704.17	14256.20
704.31	13989.38
704.44	13799.80
704.57	13816.18
704.70	13757.67
704.83	13827.88
704.96	13682.77
705.10	13774.05
705.23	14176.62
>>>>>End Processed Spectral Data<<<<<
