SpectraSuite Data File
++++++++++++++++++++++++++++++++++++
Date: Fri Oct 25 10:47:20 EDT 2013
User: price-jones
Dark Spectrum Present: No
Reference Spectrum Present: No
Number of Sampled Component Spectra: 1
Spectrometers: USB2+H05261
Integration Time (usec): 100000 (USB2+H05261)
Spectra Averaged: 1 (USB2+H05261)
Boxcar Smoothing: 0 (USB2+H05261)
Correct for Electrical Dark: No (USB2+H05261)
Strobe/Lamp Enabled: No (USB2+H05261)
Correct for Detector Non-linearity: No (USB2+H05261)
Correct for Stray Light: No (USB2+H05261)
Number of Pixels in Processed Spectrum: 2048
>>>>>Begin Processed Spectral Data<<<<<
365.73	126.39
365.92	126.39
366.12	126.39
366.32	0.00
366.52	0.00
366.72	23.41
366.91	0.00
367.11	9.36
367.31	32.77
367.51	32.77
367.70	0.00
367.90	0.00
368.10	32.77
368.30	0.00
368.49	0.00
368.69	161.50
368.89	110.01
369.09	84.26
369.28	70.22
369.48	88.94
369.68	149.79
369.87	152.13
370.07	84.26
370.27	156.82
370.47	189.58
370.66	402.57
370.86	421.30
371.06	433.00
371.25	468.11
371.45	414.27
371.65	507.90
371.84	458.74
372.04	454.06
372.24	447.04
372.44	477.47
372.63	435.34
372.83	510.24
373.03	500.87
373.22	507.90
373.42	564.07
373.62	484.49
373.81	568.75
374.01	517.26
374.21	550.03
374.40	519.60
374.60	526.62
374.79	468.11
374.99	486.83
375.19	526.62
375.38	645.99
375.58	514.92
375.78	624.92
375.97	571.09
376.17	650.67
376.37	573.43
376.56	521.94
376.76	566.41
376.95	578.11
377.15	624.92
377.35	620.24
377.54	582.79
377.74	603.86
377.93	664.71
378.13	566.41
378.33	648.33
378.52	606.20
378.72	564.07
378.91	667.05
379.11	613.22
379.31	599.18
379.50	650.67
379.70	589.82
379.89	636.63
380.09	643.65
380.28	631.94
380.48	641.31
380.68	571.09
380.87	671.73
381.07	568.75
381.26	648.33
381.46	671.73
381.65	667.05
381.85	641.31
382.04	671.73
382.24	631.94
382.43	601.52
382.63	758.33
382.83	725.57
383.02	657.69
383.22	737.27
383.41	704.50
383.61	711.52
383.80	692.80
384.00	741.95
384.19	774.72
384.39	699.82
384.58	755.99
384.78	655.35
384.97	821.53
385.17	688.12
385.36	650.67
385.56	741.95
385.75	777.06
385.95	746.63
386.14	788.76
386.34	779.40
386.53	795.78
386.72	854.30
386.92	802.80
387.11	903.45
387.31	835.57
387.50	851.96
387.70	821.53
387.89	814.51
388.09	779.40
388.28	748.97
388.48	774.72
388.67	805.14
388.86	837.91
389.06	894.08
389.25	894.08
389.45	866.00
389.64	901.11
389.84	880.04
390.03	854.30
390.22	922.17
390.42	861.32
390.61	901.11
390.81	936.21
391.00	908.13
391.19	968.98
391.39	945.58
391.58	957.28
391.78	891.74
391.97	891.74
392.16	938.55
392.36	954.94
392.55	978.34
392.75	1036.86
392.94	961.96
393.13	877.70
393.33	933.87
393.52	983.02
393.71	1036.86
393.91	952.60
394.10	931.53
394.29	1006.43
394.49	1067.28
394.68	1111.75
394.88	1025.15
395.07	1107.07
395.26	1139.84
395.46	1156.22
395.65	1184.31
395.84	1188.99
396.04	1193.67
396.23	1034.52
396.42	1039.20
396.62	1153.88
396.81	1107.07
397.00	1102.39
397.19	1109.41
397.39	1235.80
397.58	1160.91
397.77	1226.44
397.97	1233.46
398.16	1291.98
398.35	1156.22
398.55	1174.95
398.74	1282.61
398.93	1275.59
399.12	1270.91
399.32	1378.58
399.51	1343.47
399.70	1383.26
399.90	1341.13
400.09	1348.15
400.28	1406.66
400.47	1371.55
400.67	1341.13
400.86	1385.60
401.05	1430.07
401.24	1437.09
401.44	1338.79
401.63	1437.09
401.82	1460.49
402.01	1514.33
402.21	1514.33
402.40	1451.13
402.59	1458.15
402.78	1451.13
402.97	1317.72
403.17	1465.18
403.36	1558.80
403.55	1516.67
403.74	1612.63
403.93	1528.37
404.13	1631.35
404.32	1645.40
404.51	1535.39
404.70	1638.38
404.89	1612.63
405.09	1664.12
405.28	1668.80
405.47	1750.72
405.66	1729.66
405.85	1710.93
406.05	1769.44
406.24	1685.19
406.43	1696.89
406.62	1673.48
406.81	1898.17
407.00	1813.92
407.20	1746.04
407.39	1673.48
407.58	1813.92
407.77	1867.75
407.96	1849.02
408.15	1975.41
408.34	1940.30
408.54	1926.26
408.73	1930.94
408.92	1926.26
409.11	1970.73
409.30	1937.96
409.49	1966.05
409.68	2057.33
409.87	1975.41
410.07	1942.64
410.26	1959.03
410.45	2118.18
410.64	2052.65
410.83	2106.48
411.02	2120.53
411.21	2225.85
411.40	2172.02
411.59	2223.51
411.78	2307.77
411.98	2342.88
412.17	2303.09
412.36	2256.28
412.55	2387.35
412.74	2321.81
412.93	2389.69
413.12	2413.09
413.31	2532.46
413.50	2370.96
413.69	2445.86
413.88	2525.44
414.07	2480.97
414.26	2576.93
414.45	2553.52
414.64	2518.42
414.83	2485.65
415.02	2670.55
415.22	2689.28
415.41	2656.51
415.60	2726.72
415.79	2708.00
415.98	2724.38
416.17	2874.18
416.36	2846.09
416.55	2871.84
416.74	2874.18
416.93	2787.58
417.12	2778.22
417.31	2906.95
417.50	2843.75
417.69	3016.95
417.88	2829.71
418.07	2951.42
418.26	2970.14
418.45	3073.12
418.64	3192.49
418.83	3108.23
419.02	3199.51
419.21	3045.04
419.39	3204.19
419.58	3096.53
419.77	3145.68
419.96	3143.34
420.15	3180.79
420.34	3246.32
420.53	3272.07
420.72	3258.03
420.91	3323.56
421.10	3325.90
421.29	3382.07
421.48	3169.09
421.67	3370.37
421.86	3297.81
422.05	3304.84
422.24	3410.16
422.43	3363.35
422.61	3391.44
422.80	3524.85
422.99	3375.05
423.18	3471.01
423.37	3419.52
423.56	3349.31
423.75	3363.35
423.94	3426.54
424.13	3122.27
424.32	3239.30
424.50	3442.93
424.69	3499.10
424.88	3606.77
425.07	3492.08
425.26	3361.01
425.45	3522.51
425.64	3370.37
425.83	3529.53
426.01	3475.70
426.20	3466.33
426.39	3501.44
426.58	3522.51
426.77	3480.38
426.96	3581.02
427.15	3543.57
427.33	3480.38
427.52	3644.21
427.71	3786.99
427.90	3634.85
428.09	3564.64
428.28	3679.32
428.46	3740.18
428.65	3714.43
428.84	3747.20
429.03	3733.15
429.22	3473.36
429.40	3641.87
429.59	3705.07
429.78	3510.80
429.97	3632.51
430.16	3681.66
430.34	3700.39
430.53	3761.24
430.72	3918.06
430.91	3779.97
431.10	3887.63
431.28	3971.89
431.47	4030.40
431.66	4102.96
431.85	4016.36
432.03	4060.83
432.22	4126.36
432.41	4177.86
432.60	4084.23
432.79	4117.00
432.97	4166.15
433.16	4105.30
433.35	4004.66
433.54	4234.03
433.72	4234.03
433.91	4229.35
434.10	4294.88
434.28	4243.39
434.47	4198.92
434.66	4388.50
434.85	4337.01
435.03	4390.84
435.22	4365.10
435.41	4437.66
435.59	4440.00
435.78	4437.66
435.97	4505.53
436.16	4503.19
436.34	4358.08
436.53	4458.72
436.72	4596.81
436.90	4442.34
437.09	4442.34
437.28	4409.57
437.46	4542.98
437.65	4589.79
437.84	4620.22
438.02	4557.02
438.21	4755.97
438.40	4631.92
438.58	4746.61
438.77	4732.56
438.96	4833.21
439.14	4908.10
439.33	4896.40
439.52	4896.40
439.70	4896.40
439.89	5027.47
440.08	5097.69
440.26	5158.54
440.45	5085.98
440.63	5167.90
440.82	5231.10
441.01	5118.75
441.19	5249.82
441.38	5242.80
441.57	5252.16
441.75	5320.04
441.94	5523.66
442.12	5430.04
442.31	5497.92
442.50	5383.23
442.68	5432.38
442.87	5547.07
443.05	5682.82
443.24	5706.23
443.43	5624.31
443.61	5685.16
443.80	5900.49
443.98	5664.10
444.17	5563.45
444.35	5816.23
444.54	5607.92
444.73	5703.89
444.91	5774.10
445.10	5689.84
445.28	5720.27
445.47	5657.07
445.65	5750.70
445.84	5710.91
446.02	5760.06
446.21	5713.25
446.39	5736.65
446.58	5888.79
446.77	5912.19
446.95	5736.65
447.14	5816.23
447.32	6054.97
447.51	6085.39
447.69	5806.87
447.88	5778.78
448.06	5921.56
448.25	5802.19
448.43	5937.94
448.62	5738.99
448.80	5853.68
448.99	5870.06
449.17	5872.40
449.36	5940.28
449.54	5991.77
449.73	5959.00
449.91	6157.95
450.10	6059.65
450.28	6267.95
450.46	6139.23
450.65	6001.13
450.83	6076.03
451.02	6377.96
451.20	6363.92
451.39	6239.87
451.57	6267.95
451.76	6209.44
451.94	6382.64
452.13	6328.81
452.31	6375.62
452.49	6090.07
452.68	6354.55
452.86	6502.01
453.05	6530.09
453.23	6457.54
453.42	6340.51
453.60	6518.39
453.78	6574.56
453.97	6436.47
454.15	6476.26
454.34	6417.75
454.52	6642.44
454.70	6532.44
454.89	6647.12
455.07	6719.68
455.26	6801.60
455.44	6747.76
455.62	6890.54
455.81	6855.43
455.99	7005.22
456.17	6974.80
456.36	6841.39
456.54	6860.11
456.73	7012.24
456.91	6916.28
457.09	7023.95
457.28	7225.23
457.46	6967.77
457.64	7084.80
457.83	7098.84
458.01	7091.82
458.19	7445.24
458.38	7286.09
458.56	7171.40
458.74	7262.68
458.93	7119.91
459.11	7229.91
459.29	7297.79
459.48	7396.09
459.66	7325.88
459.84	7508.44
460.03	7613.76
460.21	7365.67
460.39	7454.61
460.57	7555.25
460.76	7431.20
460.94	7625.47
461.12	7545.89
461.31	7545.89
461.49	7534.18
461.67	7609.08
461.85	7798.66
462.04	7637.17
462.22	8154.43
462.40	7929.74
462.59	7918.03
462.77	7709.72
462.95	7833.77
463.13	7768.24
463.32	7885.26
463.50	7929.74
463.68	7721.43
463.86	7885.26
464.05	8023.36
464.23	7943.78
464.41	8042.08
464.59	7936.76
464.78	8077.19
464.96	7988.25
465.14	7967.18
465.32	8042.08
465.50	8191.88
465.69	8315.92
465.87	8084.21
466.05	8058.46
466.23	8091.23
466.41	8252.73
466.60	8444.65
466.78	8114.64
466.96	8257.41
467.14	8262.09
467.32	8285.50
467.51	8262.09
467.69	8121.66
467.87	8241.03
468.05	8475.08
468.23	8301.88
468.41	8271.45
468.60	8285.50
468.78	8683.39
468.96	8526.57
469.14	8498.49
469.32	8781.69
469.50	8187.19
469.69	8748.92
469.87	8821.48
470.05	8751.26
470.23	8922.12
470.41	8798.07
470.59	8844.88
470.77	8720.84
470.95	8774.67
471.14	8751.26
471.32	8786.37
471.50	9158.52
471.68	9055.53
471.86	8999.36
472.04	9015.74
472.22	9404.27
472.40	9242.78
472.58	9137.45
472.77	9453.42
472.95	9247.46
473.13	9724.93
473.31	9280.22
473.49	9254.48
473.67	9439.38
473.85	9310.65
474.03	9804.50
474.21	9811.53
474.39	9844.29
474.57	9713.22
474.75	9872.38
474.93	9994.09
475.12	9900.47
475.30	10169.63
475.48	10040.90
475.66	10207.08
475.84	9905.15
476.02	10050.26
476.20	9966.00
476.38	10380.28
476.56	10483.26
476.74	10441.13
476.92	10391.98
477.10	10427.09
477.28	10663.48
477.46	10686.89
477.64	11007.54
477.82	11035.63
478.00	11063.71
478.18	10981.79
478.36	11344.58
478.54	11171.38
478.72	11330.53
478.90	11365.64
479.08	11501.39
479.26	11721.40
479.44	11702.68
479.62	11922.69
479.80	11845.45
479.98	12095.89
480.16	12215.26
480.34	12009.29
480.52	12009.29
480.70	12271.43
480.88	11908.65
481.06	12180.15
481.24	12493.78
481.41	12568.68
481.59	12788.69
481.77	12802.73
481.95	12851.88
482.13	12849.54
482.31	12999.34
482.49	13144.45
482.67	13399.57
482.85	13516.59
483.03	13518.93
483.21	13537.66
483.39	13659.37
483.57	13965.98
483.74	13989.38
483.92	13949.59
484.10	13860.65
484.28	14279.61
484.46	14265.57
484.64	14665.80
484.82	14445.79
485.00	14242.16
485.18	14576.86
485.35	14991.13
485.53	14614.30
485.71	14860.06
485.89	15073.05
486.07	14960.70
486.25	15323.49
486.43	15173.69
486.61	15293.06
486.78	15543.50
486.96	15815.00
487.14	15803.30
487.32	16168.42
487.50	15901.60
487.68	16306.51
487.85	16397.79
488.03	16765.26
488.21	16814.41
488.39	16744.19
488.57	16788.66
488.75	17312.94
488.92	17186.55
489.10	17441.67
489.28	17399.54
489.46	17776.37
489.64	17628.92
489.81	18090.00
489.99	17881.69
490.17	18249.16
490.35	18249.16
490.53	18389.59
490.70	18256.18
490.88	18913.87
491.06	18551.09
491.24	18785.14
491.41	18623.64
491.59	18775.78
491.77	18946.64
491.95	19117.50
492.13	19293.04
492.30	19447.51
492.48	19777.53
492.66	20194.14
492.84	19693.27
493.01	20088.82
493.19	20166.06
493.37	20023.28
493.54	20152.01
493.72	20451.60
493.90	20250.32
494.08	20709.06
494.25	20807.36
494.43	20744.17
494.61	20992.26
494.79	21088.23
494.96	20711.40
495.14	20926.73
495.32	21549.31
495.49	21748.26
495.67	21685.06
495.85	21816.13
496.02	21909.75
496.20	21998.70
496.38	22155.51
496.55	22045.51
496.73	22703.20
496.91	22354.46
497.09	22160.19
497.26	22464.46
497.44	22885.76
497.62	22635.32
497.79	23278.97
497.97	22778.09
498.14	22965.34
498.32	23115.13
498.50	23468.55
498.67	23309.40
498.85	23793.89
499.03	23616.01
499.20	23733.03
499.38	23866.44
499.56	23854.74
499.73	24184.76
499.91	23880.49
500.08	24435.19
500.26	24201.14
500.44	24308.80
500.61	24510.09
500.79	24266.67
500.97	24519.45
501.14	24879.89
501.32	25132.67
501.49	25067.14
501.67	24608.39
501.84	24809.68
502.02	24863.51
502.20	25249.70
502.37	25366.73
502.55	25411.20
502.72	25645.25
502.90	25439.28
503.07	25348.00
503.25	25411.20
503.43	25795.04
503.60	25898.03
503.78	25614.82
503.95	25804.41
504.13	26118.04
504.30	25956.54
504.48	26171.87
504.65	26036.12
504.83	26377.84
505.01	26719.56
505.18	26457.42
505.36	26649.34
505.53	26766.37
505.71	26721.90
505.88	26955.95
506.06	26668.06
506.23	27122.13
506.41	26843.60
506.58	26906.80
506.76	27126.81
506.93	27419.38
507.11	27314.05
507.28	27484.91
507.46	27545.76
507.63	27641.73
507.81	27978.76
507.98	27461.51
508.16	28011.53
508.33	27843.01
508.50	28079.41
508.68	28086.43
508.85	28397.72
509.03	28217.50
509.20	28381.34
509.38	28795.61
509.55	28510.07
509.73	28865.83
509.90	28844.76
510.08	28692.63
510.25	28739.44
510.42	28744.12
510.60	29010.94
510.77	29120.95
510.95	29043.71
511.12	28877.53
511.30	29153.71
511.47	29390.11
511.64	29415.85
511.82	29762.25
511.99	29511.81
512.17	29738.85
512.34	29577.35
512.51	29738.85
512.69	30410.58
512.86	30307.60
513.04	30171.85
513.21	30052.48
513.38	30291.21
513.56	30314.62
513.73	29963.54
513.90	30560.37
514.08	30267.81
514.25	30293.55
514.43	30387.18
514.60	30529.95
514.77	30618.89
514.95	30843.58
515.12	30778.04
515.29	30700.81
515.47	31438.08
515.64	31204.02
515.81	31082.31
515.99	30986.35
516.16	31517.65
516.33	31337.43
516.51	31105.72
516.68	31040.18
516.85	31009.76
517.03	31377.22
517.20	31599.57
517.37	31709.58
517.54	32058.32
517.72	31662.77
517.89	31850.01
518.06	31896.82
518.24	31707.24
518.41	31761.07
518.58	31892.14
518.75	32091.09
518.93	32240.88
519.10	32231.52
519.27	32566.21
519.45	32671.54
519.62	32748.78
519.79	32451.53
519.96	32762.82
520.14	33113.90
520.31	32795.59
520.48	33069.43
520.65	32966.45
520.83	33411.15
521.00	32971.13
521.17	32943.04
521.34	33373.70
521.52	33284.76
521.69	33282.42
521.86	33663.93
522.03	33392.42
522.20	33673.29
522.38	33703.71
522.55	33750.52
522.72	33418.17
522.89	34068.84
523.07	34417.58
523.24	34010.32
523.41	33982.24
523.58	34033.73
523.75	34370.77
523.92	34328.64
524.10	34555.67
524.27	34775.68
524.44	34237.36
524.61	34754.61
524.78	34595.46
524.96	34600.14
525.13	35227.40
525.30	34902.07
525.47	35276.55
525.64	34724.19
525.81	35019.10
525.98	35019.10
526.16	35075.27
526.33	35131.44
526.50	35363.15
526.67	34754.61
526.84	35299.96
527.01	34848.24
527.18	34979.31
527.36	35477.84
527.53	35697.85
527.70	35859.35
527.87	35435.71
528.04	35325.71
528.21	35461.46
528.38	35295.28
528.55	36229.15
528.72	36055.95
528.89	36416.40
529.07	36112.13
529.24	35924.88
529.41	36163.62
529.58	36210.43
529.75	36194.04
529.92	36184.68
530.09	36067.66
530.26	36453.84
530.43	36701.94
530.60	36194.04
530.77	36268.94
530.94	36514.70
531.11	36517.04
531.28	36704.28
531.46	36800.24
531.63	36484.27
531.80	36671.51
531.97	36966.42
532.14	36830.67
532.31	36896.20
532.48	37017.91
532.65	36800.24
532.82	36893.86
532.99	36769.82
533.16	36982.80
533.33	37184.09
533.50	37324.52
533.67	37736.46
533.84	37141.96
534.01	37258.99
534.18	37471.98
534.35	37928.38
534.52	37387.72
534.69	37226.22
534.86	37975.19
535.03	37471.98
535.20	38012.64
535.37	37993.92
535.54	38345.00
535.71	37937.74
535.88	37989.24
536.05	37839.44
536.22	38010.30
536.38	38089.88
536.55	37989.24
536.72	38087.54
536.89	38162.43
537.06	37982.21
537.23	38443.30
537.40	38330.95
537.57	38436.28
537.74	38164.78
537.91	39000.35
538.08	38536.92
538.25	38658.63
538.42	38323.93
538.59	38562.67
538.75	38281.80
538.92	38911.41
539.09	38742.89
539.26	38728.84
539.43	38597.77
539.60	38686.71
539.77	39168.87
539.94	38941.83
540.11	39227.38
540.28	38930.13
540.44	38899.70
540.61	38986.30
540.78	39098.65
540.95	38895.02
541.12	38911.41
541.29	39033.11
541.46	39229.72
541.62	39215.68
541.79	39026.09
541.96	39398.24
542.13	38955.88
542.30	39438.03
542.47	39681.44
542.63	39175.89
542.80	39250.78
542.97	40133.17
543.14	40156.57
543.31	40383.60
543.48	40133.17
543.64	40547.44
543.81	40053.59
543.98	40268.92
544.15	39941.24
544.32	39999.76
544.48	40374.24
544.65	40240.83
544.82	40304.02
544.99	40088.70
545.16	40327.43
545.32	40350.84
545.49	40566.16
545.66	40730.00
545.83	40425.73
546.00	40685.53
546.16	40500.63
546.33	40327.43
546.50	40346.15
546.67	40818.94
546.83	40212.74
547.00	40669.15
547.17	40802.56
547.34	40781.49
547.50	40940.65
547.67	40844.69
547.84	40828.30
548.00	41109.17
548.17	40971.08
548.34	41151.30
548.51	40940.65
548.67	41354.93
548.84	41109.17
549.01	40992.14
549.18	41350.24
549.34	41464.93
549.51	41256.62
549.68	41319.82
549.84	41500.04
550.01	41413.44
550.18	41418.12
550.34	41684.94
550.51	41324.50
550.68	41542.17
550.84	41116.19
551.01	42124.96
551.18	41689.62
551.34	41617.07
551.51	42036.02
551.68	41811.33
551.84	42185.82
552.01	42075.81
552.18	42031.34
552.34	41619.41
552.51	42066.45
552.68	41883.89
552.84	42106.24
553.01	42314.55
553.18	41886.23
553.34	41769.20
553.51	42103.90
553.67	42148.37
553.84	42328.59
554.01	42590.73
554.17	42351.99
554.34	42548.60
554.51	42389.44
554.67	42789.67
554.84	42541.58
555.00	42122.62
555.17	42351.99
555.33	42326.25
555.50	42686.69
555.67	42476.04
555.83	42415.19
556.00	42555.62
556.16	43023.73
556.33	42230.29
556.50	42635.20
556.66	42913.72
556.83	42719.46
556.99	42721.80
557.16	42838.83
557.32	43175.86
557.49	42770.95
557.65	42932.45
557.82	42534.56
557.98	42775.63
558.15	42366.04
558.32	42979.26
558.48	42820.10
558.65	42843.51
558.81	42988.62
558.98	43126.71
559.14	42906.70
559.31	43147.78
559.47	43056.50
559.64	42941.81
559.80	43096.28
559.97	42820.10
560.13	43222.67
560.30	42773.29
560.46	42993.30
560.63	42902.02
560.79	43119.69
560.96	43564.39
561.12	43023.73
561.29	42899.68
561.45	43571.41
561.61	43093.94
561.78	43405.23
561.94	43000.32
562.11	43288.21
562.27	43367.79
562.44	43346.72
562.60	43388.85
562.77	43791.42
562.93	43388.85
563.10	43636.95
563.26	43154.80
563.42	43274.16
563.59	43257.78
563.75	43409.92
563.92	43688.44
564.08	43648.65
564.24	43868.66
564.41	43585.46
564.57	43536.30
564.74	43903.77
564.90	43487.15
565.07	43871.00
565.23	43646.31
565.39	43466.09
565.56	43526.94
565.72	43192.25
565.88	43515.24
566.05	43704.82
566.21	43456.73
566.38	43725.89
566.54	43775.04
566.70	44215.06
566.87	44348.47
567.03	43545.67
567.19	44500.61
567.36	43791.42
567.52	43789.08
567.68	44116.76
567.85	43428.64
568.01	43901.43
568.17	43540.99
568.34	43833.55
568.50	43995.05
568.66	43768.02
568.83	43548.01
568.99	43634.61
569.15	43931.86
569.32	43302.25
569.48	43606.52
569.64	44388.26
569.81	43976.33
569.97	43653.33
570.13	44186.97
570.30	43519.92
570.46	44016.11
570.62	43725.89
570.78	43910.79
570.95	43412.26
571.11	43936.54
571.27	43786.74
571.43	43973.98
571.60	44055.90
571.76	44296.98
571.92	43669.72
572.09	44072.29
572.25	43878.02
572.41	43796.10
572.57	43847.60
572.74	44816.58
572.90	44062.93
573.06	44037.18
573.22	44268.89
573.38	43737.59
573.55	43803.13
573.71	43973.98
573.87	43997.39
574.03	43548.01
574.20	43908.45
574.36	43875.68
574.52	44402.30
574.68	44402.30
574.84	44346.13
575.01	43959.94
575.17	44245.49
575.33	44346.13
575.49	44140.16
575.65	44577.84
575.82	44268.89
575.98	44039.52
576.14	44486.56
576.30	44463.16
576.46	43735.25
576.62	44212.72
576.79	44224.42
576.95	43995.05
577.11	44172.93
577.27	44369.54
577.43	44346.13
577.59	44238.47
577.75	44189.31
577.92	43906.11
578.08	44194.00
578.24	43749.29
578.40	44210.38
578.56	44364.85
578.72	44278.25
578.88	44453.79
579.04	44126.12
579.21	43964.62
579.37	43964.62
579.53	44278.25
579.69	43920.15
579.85	44521.67
580.01	44325.07
580.17	44643.38
580.33	44603.59
580.49	44369.54
580.65	44364.85
580.82	44247.83
580.98	43763.34
581.14	44030.16
581.30	44126.12
581.46	44250.17
581.62	44186.97
581.78	44308.68
581.94	44470.18
582.10	44423.37
582.26	44603.59
582.42	44465.50
582.58	44041.86
582.74	44261.87
582.90	44439.75
583.06	44165.91
583.22	44451.45
583.38	44250.17
583.54	44453.79
583.70	44060.58
583.86	43852.28
584.02	44004.41
584.18	44423.37
584.34	44559.12
584.50	44142.50
584.66	44470.18
584.82	44119.10
584.98	44566.14
585.14	44367.20
585.30	44151.87
585.46	44406.98
585.62	44446.77
585.78	44531.03
585.94	43725.89
586.10	44395.28
586.26	44491.24
586.42	44547.42
586.58	44641.04
586.74	44865.73
586.90	44582.52
587.06	44435.07
587.22	44491.24
587.38	44156.55
587.54	44402.30
587.70	44652.74
587.86	44374.22
588.02	44425.71
588.18	44697.21
588.34	44610.61
588.49	44341.45
588.65	43950.58
588.81	44140.16
588.97	44128.46
589.13	44144.84
589.29	44112.08
589.45	44865.73
589.61	44538.05
589.77	44858.71
589.93	44554.44
590.08	44818.92
590.24	44851.69
590.40	44538.05
590.56	44987.44
590.72	45064.67
590.88	44767.43
591.04	44327.41
591.20	44704.23
591.35	44296.98
591.51	45200.43
591.67	44914.88
591.83	45064.67
591.99	44498.26
592.15	44306.34
592.31	44685.51
592.46	44189.31
592.62	44809.56
592.78	44886.79
592.94	45294.05
593.10	44652.74
593.26	44701.89
593.41	44982.76
593.57	44641.04
593.73	44849.35
593.89	44898.50
594.05	45024.89
594.20	45113.83
594.36	44594.23
594.52	44825.94
594.68	44631.68
594.84	44886.79
594.99	45546.82
595.15	44474.86
595.31	45022.54
595.47	44896.16
595.62	44732.32
595.78	44701.89
595.94	45001.48
596.10	44837.64
596.25	45125.53
596.41	44598.91
596.57	44659.76
596.73	44989.78
596.88	44596.57
597.04	44488.90
597.20	45132.55
597.36	44776.79
597.51	45097.44
597.67	44985.10
597.83	44664.44
597.99	45261.28
598.14	45151.27
598.30	45240.21
598.46	44479.54
598.61	44921.90
598.77	44673.81
598.93	44926.58
599.09	44910.20
599.24	45322.13
599.40	45265.96
599.56	44935.95
599.71	45125.53
599.87	45153.62
600.03	44711.25
600.18	44868.07
600.34	44516.99
600.50	44685.51
600.65	44603.59
600.81	45102.12
600.97	45392.35
601.12	45371.28
601.28	45160.64
601.44	44942.97
601.59	44889.13
601.75	44994.46
601.91	44975.73
602.06	44774.45
602.22	45062.33
602.37	44931.26
602.53	44942.97
602.69	45581.93
602.84	44835.30
603.00	44861.05
603.16	44587.21
603.31	44680.83
603.47	44889.13
603.62	44631.68
603.78	45165.32
603.94	44821.26
604.09	45198.09
604.25	44755.72
604.40	45170.00
604.56	44828.28
604.71	44577.84
604.87	44877.43
605.03	44959.35
605.18	44545.08
605.34	45020.20
605.49	44690.19
605.65	44648.06
605.80	44692.53
605.96	44875.09
606.12	44982.76
606.27	44715.93
606.43	44406.98
606.58	44734.66
606.74	43983.35
606.89	44842.32
607.05	44713.59
607.20	44685.51
607.36	44458.48
607.51	45038.93
607.67	44765.09
607.82	44498.26
607.98	44526.35
608.13	44643.38
608.29	44683.17
608.44	44158.89
608.60	44493.58
608.75	44296.98
608.91	44343.79
609.06	44519.33
609.22	45017.86
609.37	44729.98
609.53	44364.85
609.68	44364.85
609.84	44079.31
609.99	44304.00
610.15	44184.63
610.30	44289.96
610.46	44215.06
610.61	44456.14
610.76	44531.03
610.92	44610.61
611.07	43950.58
611.23	44177.61
611.38	44027.82
611.54	44301.66
611.69	44477.20
611.84	44238.47
612.00	43995.05
612.15	44376.56
612.31	44179.95
612.46	43903.77
612.62	44023.14
612.77	44198.68
612.92	44116.76
613.08	44119.10
613.23	43955.26
613.39	43735.25
613.54	43866.32
613.69	43714.19
613.85	43894.41
614.00	44493.58
614.15	44296.98
614.31	44343.79
614.46	44067.61
614.62	43784.40
614.77	43847.60
614.92	43730.57
615.08	43955.26
615.23	43571.41
615.38	43562.05
615.54	43475.45
615.69	43746.95
615.84	43796.10
616.00	43449.70
616.15	43449.70
616.30	43878.02
616.46	43157.14
616.61	43447.36
616.76	43613.54
616.92	43103.31
617.07	43412.26
617.22	43571.41
617.37	43309.27
617.53	43791.42
617.68	43250.76
617.83	43445.02
617.99	43599.50
618.14	43508.22
618.29	43299.91
618.45	43824.19
618.60	43510.56
618.75	43154.80
618.90	43580.78
619.06	43353.74
619.21	43304.59
619.36	43540.99
619.51	43430.98
619.67	43159.48
619.82	43047.13
619.97	43543.33
620.12	43112.67
620.28	43075.22
620.43	43061.18
620.58	43061.18
620.73	42895.00
620.89	42897.34
621.04	43138.41
621.19	42841.17
621.34	42939.47
621.49	42976.92
621.65	42684.35
621.80	42649.24
621.95	42843.51
622.10	42784.99
622.25	42714.78
622.41	42511.15
622.56	42391.78
622.71	42616.47
622.86	42705.41
623.01	42637.54
623.16	42611.79
623.32	42674.99
623.47	42974.58
623.62	42834.14
623.77	42188.16
623.92	42834.14
624.07	42366.04
624.23	42272.42
624.38	42094.53
624.53	42373.06
624.68	42335.61
624.83	42335.61
624.98	42356.67
625.13	42110.92
625.29	42312.20
625.44	42616.47
625.59	41902.61
625.74	42139.00
625.89	41567.91
626.04	41757.50
626.19	42148.37
626.34	42106.24
626.49	42284.12
626.65	42052.41
626.80	42054.75
626.95	41909.63
627.10	42279.44
627.25	41612.38
627.40	41390.03
627.55	41605.36
627.70	41287.05
627.85	41497.70
628.00	41675.58
628.15	41977.51
628.30	41469.61
628.45	41862.82
628.60	41818.35
628.76	41982.19
628.91	41656.85
629.06	41523.44
629.21	41560.89
629.36	41467.27
629.51	41158.32
629.66	41495.36
629.81	41062.36
629.96	41144.28
630.11	41289.39
630.26	41619.41
630.41	41588.98
630.56	41495.36
630.71	41429.82
630.86	41455.57
631.01	40964.06
631.16	40879.80
631.31	40847.03
631.46	40760.43
631.61	40804.90
631.76	41418.12
631.91	41191.09
632.06	41303.43
632.21	40952.35
632.36	41345.56
632.51	41256.62
632.66	40884.48
632.81	41017.89
632.96	40992.14
633.10	40535.74
633.25	40535.74
633.40	40769.79
633.55	40863.41
633.70	40737.02
633.85	40715.96
634.00	40751.07
634.15	40664.47
634.30	40313.39
634.45	40945.33
634.60	40758.09
634.75	41013.21
634.90	40446.80
635.05	40814.26
635.19	40460.84
635.34	40603.61
635.49	40442.12
635.64	40123.80
635.79	40392.97
635.94	40189.34
636.09	40332.11
636.24	40341.47
636.39	40121.46
636.53	40245.51
636.68	39908.47
636.83	40458.50
636.98	40514.67
637.13	39948.26
637.28	39690.80
637.43	40456.16
637.57	40552.12
637.72	40418.71
637.87	40392.97
638.02	39908.47
638.17	40062.95
638.32	39702.51
638.46	39592.50
638.61	39936.56
638.76	39318.66
638.91	39915.50
639.06	40044.23
639.20	39941.24
639.35	40067.63
639.50	39978.69
639.65	40287.64
639.80	40177.64
639.94	40086.36
640.09	39332.70
640.24	39449.73
640.39	39433.35
640.54	39243.76
640.68	39732.93
640.83	39629.95
640.98	39501.22
641.13	39040.14
641.27	39978.69
641.42	39508.24
641.57	39885.07
641.72	39360.79
641.86	39143.12
642.01	39248.44
642.16	39321.00
642.31	38749.91
642.45	39339.72
642.60	38492.45
642.75	38913.75
642.90	39084.61
643.04	39316.32
643.19	39119.71
643.34	39541.01
643.48	38850.55
643.63	38979.28
643.78	38803.74
643.93	38602.46
644.07	38590.75
644.22	38930.13
644.37	38820.13
644.51	38909.07
644.66	38780.34
644.81	38864.60
644.95	38834.17
645.10	39110.35
645.25	38974.60
645.39	38892.68
645.54	38593.09
645.69	38810.76
645.83	38689.06
645.98	38859.91
646.13	38885.66
646.27	38969.92
646.42	38260.74
646.57	38518.20
646.71	38565.01
646.86	38852.89
647.00	38466.70
647.15	38822.47
647.30	38569.69
647.44	38593.09
647.59	38417.55
647.74	38937.15
647.88	38630.54
648.03	38740.55
648.17	38094.56
648.32	37890.93
648.47	38459.68
648.61	38082.86
648.76	38279.46
648.90	38333.29
649.05	38536.92
649.20	38307.55
649.34	38260.74
649.49	38328.61
649.63	38059.45
649.78	38106.26
649.92	38557.99
650.07	38417.55
650.21	38272.44
650.36	37900.29
650.51	38150.73
650.65	38314.57
650.80	38644.59
650.94	38532.24
651.09	38352.02
651.23	38029.02
651.38	37600.71
651.52	37837.10
651.67	38225.63
651.81	37996.26
651.96	37617.09
652.10	37659.22
652.25	37783.27
652.39	37729.44
652.54	37214.52
652.68	37605.39
652.83	37881.57
652.97	37907.32
653.12	37216.86
653.26	37333.89
653.41	37710.71
653.55	37640.50
653.70	37666.24
653.84	37193.45
653.99	37364.31
654.13	37787.95
654.27	37343.25
654.42	37387.72
654.56	37249.63
654.71	37284.73
654.85	37642.84
655.00	37198.13
655.14	36957.06
655.29	37083.45
655.43	37310.48
655.57	36926.63
655.72	36943.02
655.86	36943.02
656.01	36971.10
656.15	37069.40
656.30	36804.92
656.44	36650.45
656.58	36931.31
656.73	36790.88
656.87	36512.36
657.01	36659.81
657.16	36914.93
657.30	36648.11
657.45	36477.25
657.59	36535.76
657.73	36467.89
657.88	36685.56
658.02	36945.36
658.16	36884.50
658.31	36608.32
658.45	36952.38
658.60	36762.79
658.74	36266.60
658.88	36158.94
659.03	36304.05
659.17	35906.16
659.31	36418.74
659.46	36070.00
659.60	36070.00
659.74	36397.67
659.89	35803.17
660.03	35573.80
660.17	35908.50
660.32	35700.19
660.46	36119.15
660.60	35962.33
660.74	36034.89
660.89	35969.35
661.03	35618.27
661.17	35424.01
661.32	35047.18
661.46	35538.69
661.60	35730.62
661.74	35337.41
661.89	35398.26
662.03	35550.40
662.17	35541.03
662.31	35143.14
662.46	35220.38
662.60	35377.20
662.74	34927.81
662.88	35342.09
663.03	35129.10
663.17	35005.05
663.31	34810.79
663.45	34920.79
663.60	34934.84
663.74	34618.86
663.88	34752.27
664.02	34862.28
664.17	34670.36
664.31	34422.26
664.45	34981.65
664.59	34579.07
664.73	34852.92
664.88	34895.05
665.02	34251.40
665.16	34490.13
665.30	34628.23
665.44	34478.43
665.59	34043.09
665.73	34195.23
665.87	34050.11
666.01	33841.81
666.15	33912.02
666.29	34064.16
666.44	34108.63
666.58	34115.65
666.72	34153.10
666.86	34319.28
667.00	34169.48
667.14	33813.72
667.28	33497.75
667.43	33490.73
667.57	33649.88
667.71	33291.78
667.85	33532.86
667.99	33900.32
668.13	33507.11
668.27	33305.82
668.41	33460.30
668.56	33446.26
668.70	33511.79
668.84	33074.11
668.98	32891.55
669.12	33249.65
669.26	33120.92
669.40	32818.99
669.54	32535.79
669.68	32800.27
669.82	32858.78
669.96	32760.48
670.10	32758.14
670.25	32809.63
670.39	32566.21
670.53	32460.89
670.67	32503.02
670.81	32397.70
670.95	32666.86
671.09	32346.20
671.23	32769.84
671.37	32458.55
671.51	32336.84
671.65	32369.61
671.79	31924.91
671.93	31824.26
672.07	32201.09
672.21	31859.37
672.35	31807.88
672.49	31866.39
672.63	31833.63
672.77	31756.39
672.91	32079.38
673.05	31648.72
673.19	30930.18
673.33	31374.88
673.47	31370.20
673.61	30752.30
673.75	31157.21
673.89	30988.69
674.03	30859.96
674.17	30822.51
674.31	30698.47
674.45	30506.54
674.59	30522.93
674.73	30705.49
674.87	30801.45
675.01	30623.57
675.15	30543.99
675.29	30813.15
675.43	30342.70
675.56	30387.18
675.70	30625.91
675.84	30328.66
675.98	29109.24
676.12	29935.45
676.26	30022.05
676.40	29762.25
676.54	29670.97
676.68	29376.06
676.82	28893.91
676.96	29518.84
677.10	29324.57
677.23	29289.46
677.37	29252.02
677.51	29181.80
677.65	29057.75
677.79	28900.94
677.93	28980.51
678.07	29193.50
678.21	28549.85
678.34	28442.19
678.48	28418.78
678.62	28414.10
678.76	28381.34
678.90	28428.15
679.04	27857.06
679.18	28304.10
679.31	27751.73
679.45	28114.52
679.59	27662.79
679.73	27421.72
679.87	27538.74
680.00	27672.15
680.14	27721.30
680.28	27522.36
680.42	27388.95
680.56	27386.61
680.70	27248.52
680.83	27356.18
680.97	26822.54
681.11	27204.05
681.25	26913.82
681.39	26815.52
681.52	26799.13
681.66	26796.79
681.80	26630.62
681.94	26752.32
682.07	26286.56
682.21	26642.32
682.35	26010.37
682.49	26368.48
682.62	26071.23
682.76	26073.57
682.90	26160.17
683.04	25797.38
683.17	25912.07
683.31	26003.35
683.45	25795.04
683.59	25406.52
683.72	25039.05
683.86	25378.43
684.00	24994.58
684.13	25296.51
684.27	25223.95
684.41	25071.82
684.55	24704.35
684.68	24844.79
684.82	24507.75
684.96	24706.70
685.09	24610.73
685.23	24334.55
685.37	24624.78
685.50	24680.95
685.64	24266.67
685.78	24063.05
685.91	23798.57
686.05	24004.53
686.19	23843.04
686.32	23843.04
686.46	23548.13
686.60	23618.35
686.73	23325.78
686.87	23454.51
687.01	23374.93
687.14	23077.68
687.28	23023.85
687.42	23381.95
687.55	22876.40
687.69	22869.37
687.82	22583.83
687.96	22583.83
688.10	22876.40
688.23	22562.76
688.37	22450.42
688.50	21972.95
688.64	22134.45
688.78	22066.57
688.91	21752.94
689.05	22230.41
689.18	21900.39
689.32	21507.18
689.46	21958.91
689.59	22202.32
689.73	22148.49
689.86	21706.13
690.00	21598.46
690.13	21755.28
690.27	21385.47
690.41	21352.71
690.54	21343.35
690.68	20954.82
690.81	20982.90
690.95	20849.49
691.08	20620.12
691.22	20922.05
691.35	21053.12
691.49	20968.86
691.62	20823.75
691.76	20613.10
691.89	20552.24
692.03	20589.69
692.16	20659.91
692.30	20336.91
692.43	19875.83
692.57	20079.46
692.70	20102.86
692.84	20058.39
692.97	19915.62
693.11	19501.34
693.24	19503.68
693.38	19566.88
693.51	19447.51
693.65	19604.33
693.78	19613.69
693.92	19367.93
694.05	19082.39
694.19	18925.57
694.32	19309.42
694.45	19190.05
694.59	19026.21
694.72	18895.14
694.86	18625.98
694.99	18696.20
695.13	18654.07
695.26	18459.81
695.39	18216.39
695.53	18326.39
695.66	18401.29
695.80	18272.56
695.93	18090.00
696.07	17930.84
696.20	17858.29
696.33	18080.64
696.47	17846.58
696.60	17717.86
696.73	17399.54
696.87	17570.40
697.00	17600.83
697.14	17507.21
697.27	17547.00
697.40	17699.13
697.54	17509.55
697.67	16856.54
697.80	16886.97
697.94	17132.72
698.07	17069.53
698.21	16985.27
698.34	16901.01
698.47	16924.41
698.61	16690.36
698.74	16535.88
698.87	16585.04
699.01	16587.38
699.14	16360.34
699.27	16468.01
699.40	16159.06
699.54	16049.05
699.67	16035.01
699.80	16257.36
699.94	15929.69
700.07	15864.15
700.20	15857.13
700.34	15585.63
700.47	15836.06
700.60	15882.88
700.73	15669.89
700.87	15733.08
701.00	15370.30
701.13	15274.34
701.26	15367.96
701.40	15068.37
701.53	15157.31
701.66	15222.84
701.79	15166.67
701.93	15094.11
702.06	14834.32
702.19	14834.32
702.32	14775.80
702.46	14721.97
702.59	14492.60
702.72	14539.41
702.85	14616.65
702.99	14480.89
703.12	14677.50
703.25	14162.58
703.38	14310.04
703.51	14246.84
703.65	13898.10
703.78	13930.87
703.91	14204.71
704.04	14185.99
704.17	14012.79
704.31	14033.85
704.44	13617.24
704.57	13874.70
704.70	13532.98
704.83	13727.24
704.96	13591.49
705.10	13579.79
705.23	13743.63
>>>>>End Processed Spectral Data<<<<<
