SpectraSuite Data File
++++++++++++++++++++++++++++++++++++
Date: Fri Oct 25 10:48:02 EDT 2013
User: price-jones
Dark Spectrum Present: No
Reference Spectrum Present: No
Number of Sampled Component Spectra: 1
Spectrometers: USB2+H05261
Integration Time (usec): 100000 (USB2+H05261)
Spectra Averaged: 1 (USB2+H05261)
Boxcar Smoothing: 0 (USB2+H05261)
Correct for Electrical Dark: No (USB2+H05261)
Strobe/Lamp Enabled: No (USB2+H05261)
Correct for Detector Non-linearity: No (USB2+H05261)
Correct for Stray Light: No (USB2+H05261)
Number of Pixels in Processed Spectrum: 2048
>>>>>Begin Processed Spectral Data<<<<<
365.73	142.77
365.92	142.77
366.12	142.77
366.32	105.32
366.52	0.00
366.72	67.88
366.91	28.09
367.11	58.51
367.31	9.36
367.51	0.00
367.70	46.81
367.90	32.77
368.10	51.49
368.30	0.00
368.49	110.01
368.69	67.88
368.89	23.41
369.09	93.62
369.28	37.45
369.48	56.17
369.68	72.56
369.87	86.60
370.07	138.09
370.27	105.32
370.47	161.50
370.66	367.46
370.86	383.85
371.06	390.87
371.25	440.02
371.45	400.23
371.65	402.57
371.84	468.11
372.04	414.27
372.24	339.38
372.44	528.96
372.63	472.79
372.83	477.47
373.03	573.43
373.22	503.22
373.42	498.53
373.62	461.09
373.81	554.71
374.01	610.88
374.21	557.05
374.40	484.49
374.60	571.09
374.79	503.22
374.99	599.18
375.19	528.96
375.38	547.69
375.58	531.30
375.78	594.50
375.97	634.29
376.17	557.05
376.37	582.79
376.56	552.37
376.76	566.41
376.95	552.37
377.15	585.13
377.35	629.60
377.54	592.16
377.74	603.86
377.93	559.39
378.13	573.43
378.33	667.05
378.52	653.01
378.72	629.60
378.91	685.78
379.11	648.33
379.31	641.31
379.50	622.58
379.70	636.63
379.89	662.37
380.09	674.07
380.28	594.50
380.48	631.94
380.68	662.37
380.87	653.01
381.07	641.31
381.26	681.10
381.46	603.86
381.65	744.29
381.85	770.04
382.04	660.03
382.24	725.57
382.43	627.26
382.63	631.94
382.83	671.73
383.02	730.25
383.22	709.18
383.41	683.44
383.61	690.46
383.80	784.08
384.00	699.82
384.19	692.80
384.39	697.48
384.58	709.18
384.78	861.32
384.97	720.88
385.17	716.20
385.36	716.20
385.56	744.29
385.75	751.31
385.95	791.10
386.14	781.74
386.34	744.29
386.53	718.54
386.72	805.14
386.92	816.85
387.11	821.53
387.31	767.70
387.50	807.48
387.70	795.78
387.89	781.74
388.09	894.08
388.28	868.34
388.48	812.17
388.67	861.32
388.86	884.72
389.06	842.59
389.25	912.81
389.45	847.27
389.64	877.70
389.84	870.68
390.03	910.47
390.22	894.08
390.42	1015.79
390.61	922.17
390.81	929.19
391.00	961.96
391.19	945.58
391.39	954.94
391.58	976.00
391.78	896.43
391.97	971.32
392.16	833.23
392.36	1011.11
392.55	1046.22
392.75	940.90
392.94	896.43
393.13	983.02
393.33	990.05
393.52	959.62
393.71	1048.56
393.91	1076.65
394.10	1034.52
394.29	1043.88
394.49	980.68
394.68	1067.28
394.88	1107.07
395.07	1107.07
395.26	1062.60
395.46	1125.80
395.65	1139.84
395.84	1146.86
396.04	1184.31
396.23	1032.18
396.42	999.41
396.62	1090.69
396.81	1053.24
397.00	1203.04
397.19	1125.80
397.39	1116.44
397.58	1252.19
397.77	1114.10
397.97	1165.59
398.16	1252.19
398.35	1299.00
398.55	1184.31
398.74	1287.29
398.93	1313.04
399.12	1329.42
399.32	1289.64
399.51	1352.83
399.70	1338.79
399.90	1380.92
400.09	1303.68
400.28	1387.94
400.47	1303.68
400.67	1387.94
400.86	1441.77
401.05	1481.56
401.24	1526.03
401.44	1516.67
401.63	1406.66
401.82	1385.60
402.01	1411.34
402.21	1439.43
402.40	1519.01
402.59	1500.28
402.78	1568.16
402.97	1629.01
403.17	1474.54
403.36	1514.33
403.55	1650.08
403.74	1621.99
403.93	1598.59
404.13	1689.87
404.32	1654.76
404.51	1666.46
404.70	1661.78
404.89	1636.03
405.09	1739.02
405.28	1701.57
405.47	1621.99
405.66	1720.29
405.85	1746.04
406.05	1734.34
406.24	1706.25
406.43	1769.44
406.62	1795.19
406.81	1839.66
407.00	1767.10
407.20	1741.36
407.39	1727.32
407.58	1802.21
407.77	1898.17
407.96	1870.09
408.15	1877.11
408.34	1877.11
408.54	1916.90
408.73	1870.09
408.92	1905.20
409.11	1944.99
409.30	2012.86
409.49	1961.37
409.68	1987.11
409.87	2111.16
410.07	1970.73
410.26	2026.90
410.45	2078.40
410.64	2113.50
410.83	2148.61
411.02	2085.42
411.21	2284.36
411.40	2310.11
411.59	2267.98
411.78	2356.92
411.98	2214.15
412.17	2258.62
412.36	2312.45
412.55	2417.77
412.74	2389.69
412.93	2335.85
413.12	2429.48
413.31	2537.14
413.50	2429.48
413.69	2466.92
413.88	2469.27
414.07	2485.65
414.26	2385.01
414.45	2612.04
414.64	2710.34
414.83	2579.27
415.02	2684.59
415.22	2656.51
415.41	2616.72
415.60	2764.17
415.79	2780.56
415.98	2745.45
416.17	2860.13
416.36	2647.15
416.55	2862.48
416.74	2867.16
416.93	2888.22
417.12	2785.24
417.31	2871.84
417.50	2906.95
417.69	3063.76
417.88	3033.33
418.07	2958.44
418.26	2888.22
418.45	3042.70
418.64	3152.70
418.83	3002.91
419.02	3084.83
419.21	3030.99
419.39	3148.02
419.58	3042.70
419.77	3066.10
419.96	3176.11
420.15	3286.11
420.34	3213.56
420.53	3213.56
420.72	3335.26
420.91	3349.31
421.10	3501.44
421.29	3368.03
421.48	3274.41
421.67	3440.59
421.86	3445.27
422.05	3375.05
422.24	3337.60
422.43	3293.13
422.61	3304.84
422.80	3431.23
422.99	3517.83
423.18	3407.82
423.37	3412.50
423.56	3473.36
423.75	3468.67
423.94	3449.95
424.13	3283.77
424.32	3307.18
424.50	3566.98
424.69	3578.68
424.88	3648.90
425.07	3351.65
425.26	3428.88
425.45	3508.46
425.64	3440.59
425.83	3407.82
426.01	3585.70
426.20	3454.63
426.39	3506.12
426.58	3475.70
426.77	3473.36
426.96	3517.83
427.15	3492.08
427.33	3552.93
427.52	3639.53
427.71	3618.47
427.90	3655.92
428.09	3662.94
428.28	3618.47
428.46	3817.41
428.65	3728.47
428.84	3791.67
429.03	3749.54
429.22	3559.95
429.40	3733.15
429.59	3700.39
429.78	3651.24
429.97	3489.74
430.16	3597.40
430.34	3707.41
430.53	3829.12
430.72	3831.46
430.91	3840.82
431.10	3784.65
431.28	3983.59
431.47	4081.89
431.66	4077.21
431.85	3941.46
432.03	4161.47
432.22	4269.14
432.41	4201.26
432.60	4117.00
432.79	4126.36
432.97	4128.70
433.16	4203.60
433.35	4224.67
433.54	4126.36
433.72	4280.84
433.91	4243.39
434.10	4241.05
434.28	4252.75
434.47	4283.18
434.66	4241.05
434.85	4482.13
435.03	4404.89
435.22	4374.46
435.41	4458.72
435.59	4491.49
435.78	4479.79
435.97	4493.83
436.16	4465.74
436.34	4582.77
436.53	4444.68
436.72	4753.63
436.90	4540.64
437.09	4685.75
437.28	4418.93
437.46	4617.88
437.65	4652.98
437.84	4596.81
438.02	4603.83
438.21	4641.28
438.40	4519.57
438.58	4798.10
438.77	4809.80
438.96	4720.86
439.14	4795.76
439.33	4938.53
439.52	4987.68
439.70	4922.15
439.89	5238.12
440.08	5142.16
440.26	4985.34
440.45	4943.21
440.63	5158.54
440.82	5334.08
441.01	5336.42
441.19	5284.93
441.38	5308.34
441.57	5380.89
441.75	5392.59
441.94	5504.94
442.12	5439.40
442.31	5586.86
442.50	5600.90
442.68	5434.72
442.87	5479.19
443.05	5404.30
443.24	5767.08
443.43	5628.99
443.61	5603.24
443.80	5900.49
443.98	5584.52
444.17	5535.37
444.35	5671.12
444.54	5895.81
444.73	5708.57
444.91	5825.59
445.10	5542.39
445.28	5537.71
445.47	5746.02
445.65	5701.54
445.84	5743.67
446.02	5849.00
446.21	5816.23
446.39	5783.46
446.58	5851.34
446.77	5919.21
446.95	5694.52
447.14	5888.79
447.32	5935.60
447.51	5846.66
447.69	5797.51
447.88	5741.33
448.06	5928.58
448.25	5966.03
448.43	6026.88
448.62	5921.56
448.80	5837.30
448.99	5933.26
449.17	5949.64
449.36	5944.96
449.54	6169.65
449.73	6122.84
449.91	6232.85
450.10	6282.00
450.28	6204.76
450.46	6317.11
450.65	6480.94
450.83	6438.81
451.02	6253.91
451.20	6310.08
451.39	6392.00
451.57	6338.17
451.76	6490.31
451.94	6448.18
452.13	6401.37
452.31	6373.28
452.49	6225.82
452.68	6354.55
452.86	6640.10
453.05	6560.52
453.23	6429.45
453.42	6317.11
453.60	6504.35
453.78	6490.31
453.97	6518.39
454.15	6340.51
454.34	6558.18
454.52	6619.04
454.70	6616.69
454.89	6686.91
455.07	6604.99
455.26	6633.08
455.44	6874.15
455.62	6895.22
455.81	6808.62
455.99	6864.79
456.17	6991.18
456.36	6953.73
456.54	6916.28
456.73	7108.21
456.91	7035.65
457.09	7007.56
457.28	7220.55
457.46	7164.38
457.64	7344.60
457.83	7136.29
458.01	7070.76
458.19	7478.01
458.38	7288.43
458.56	7375.03
458.74	7307.15
458.93	7417.16
459.11	7400.77
459.29	7243.96
459.48	7403.11
459.66	7410.14
459.84	7403.11
460.03	7588.02
460.21	7597.38
460.39	7545.89
460.57	7559.93
460.76	7595.04
460.94	7646.53
461.12	7578.65
461.31	7529.50
461.49	7618.44
461.67	7698.02
461.85	7967.18
462.04	7808.03
462.22	8189.53
462.40	7875.90
462.59	7868.88
462.77	7964.84
462.95	7932.08
463.13	7997.61
463.32	8009.31
463.50	7995.27
463.68	8046.76
463.86	8070.17
464.05	7953.14
464.23	8032.72
464.41	8114.64
464.59	7784.62
464.78	8212.94
464.96	8006.97
465.14	8058.46
465.32	8088.89
465.50	8093.57
465.69	8201.24
465.87	8334.65
466.05	8205.92
466.23	8065.49
466.41	8292.52
466.60	8486.78
466.78	8252.73
466.96	8294.86
467.14	8339.33
467.32	8397.84
467.51	8315.92
467.69	8269.11
467.87	8262.09
468.05	8458.70
468.23	8304.22
468.41	8421.25
468.60	8484.44
468.78	8596.79
468.96	8365.07
469.14	8449.33
469.32	8538.27
469.50	8587.43
469.69	8854.25
469.87	8753.60
470.05	8706.79
470.23	8664.66
470.41	8933.82
470.59	8978.30
470.77	9097.66
470.95	8947.87
471.14	8931.48
471.32	9102.34
471.50	9228.73
471.68	9109.36
471.86	9062.55
472.04	9100.00
472.22	9305.97
472.40	8950.21
472.58	9202.99
472.77	9493.21
472.95	9406.61
473.13	9703.86
473.31	9362.14
473.49	9467.47
473.67	9516.62
473.85	9394.91
474.03	9797.48
474.21	9731.95
474.39	9806.84
474.57	9914.51
474.75	10017.49
474.93	9928.55
475.12	9921.53
475.30	10160.27
475.48	10160.27
475.66	9930.89
475.84	10106.43
476.02	10246.87
476.20	10136.86
476.38	10406.02
476.56	10747.74
476.74	10530.07
476.92	10560.50
477.10	10541.77
477.28	10768.80
477.46	10827.32
477.64	11185.42
477.82	10946.69
478.00	11274.36
478.18	11183.08
478.36	11140.95
478.54	11566.93
478.72	11590.33
478.90	11384.37
479.08	11702.68
479.26	11648.85
479.44	11953.12
479.62	11770.55
479.80	11946.09
479.98	11826.73
480.16	12212.92
480.34	12081.85
480.52	12135.68
480.70	12421.22
480.88	12189.51
481.06	12421.22
481.24	12292.49
481.41	12755.92
481.59	12856.56
481.77	12795.71
481.95	12999.34
482.13	12844.86
482.31	13128.06
482.49	13275.52
482.67	13200.62
482.85	13231.05
483.03	13469.78
483.21	13818.52
483.39	13844.27
483.57	13816.18
483.74	13900.44
483.92	14188.33
484.10	14031.51
484.28	14235.14
484.46	14284.29
484.64	15012.20
484.82	14293.65
485.00	14682.18
485.18	14916.23
485.35	14843.68
485.53	14682.18
485.71	14602.60
485.89	15073.05
486.07	15035.60
486.25	15438.17
486.43	15484.98
486.61	15201.78
486.78	15676.91
486.96	15716.70
487.14	16133.31
487.32	15843.09
487.50	16217.57
487.68	16381.41
487.85	16599.08
488.03	16875.26
488.21	16615.46
488.39	16819.09
488.57	16947.82
488.75	16966.54
488.92	17493.16
489.10	17479.12
489.28	17502.53
489.46	17617.21
489.64	17699.13
489.81	18038.51
489.99	18043.19
490.17	17940.21
490.35	18314.69
490.53	18398.95
490.70	18581.51
490.88	18548.75
491.06	19026.21
491.24	19056.64
491.41	19035.58
491.59	18960.68
491.77	18665.77
491.95	19101.11
492.13	19398.36
492.30	19552.84
492.48	19634.75
492.66	19515.39
492.84	19847.74
493.01	20072.43
493.19	19784.55
493.37	20067.75
493.54	20107.54
493.72	20556.93
493.90	20739.49
494.08	20713.74
494.25	20999.29
494.43	20666.93
494.61	20933.75
494.79	21282.49
494.96	21139.72
495.14	21186.53
495.32	21729.53
495.49	21628.89
495.67	21476.76
495.85	21790.39
496.02	21577.40
496.20	22190.62
496.38	22129.77
496.55	22059.55
496.73	22803.84
496.91	22527.66
497.09	22494.89
497.26	22820.22
497.44	22918.53
497.62	22874.06
497.79	23344.50
497.97	22960.66
498.14	23051.94
498.32	23475.57
498.50	23475.57
498.67	23798.57
498.85	24051.34
499.03	23978.79
499.20	23353.87
499.38	23667.50
499.56	24023.26
499.73	24203.48
499.91	24287.74
500.08	24360.30
500.26	24428.17
500.44	24362.64
500.61	24666.91
500.79	24500.73
500.97	24694.99
501.14	25062.46
501.32	24669.25
501.49	25027.35
501.67	25074.16
501.84	25348.00
502.02	25369.07
502.20	25352.68
502.37	25553.97
502.55	25436.94
502.72	25764.62
502.90	25727.17
503.07	25596.10
503.25	25926.11
503.43	25764.62
503.60	25455.67
503.78	26146.12
503.95	25720.15
504.13	26265.49
504.30	26111.02
504.48	26001.01
504.65	26579.12
504.83	26574.44
505.01	26775.73
505.18	26705.51
505.36	27075.32
505.53	26710.19
505.71	26939.57
505.88	27129.15
506.06	27072.98
506.23	27267.24
506.41	27087.02
506.58	27253.20
506.76	27344.48
506.93	27723.65
507.11	27562.15
507.28	27410.01
507.46	27410.01
507.63	27873.44
507.81	27868.76
507.98	27648.75
508.16	27995.15
508.33	28109.83
508.50	28229.20
508.68	28233.88
508.85	28500.70
509.03	28371.97
509.20	28559.22
509.38	28816.68
509.55	28861.15
509.73	28666.88
509.90	28737.10
510.08	29113.92
510.25	28863.49
510.42	29275.42
510.60	29034.35
510.77	29277.76
510.95	29457.98
511.12	29240.31
511.30	29427.56
511.47	29783.32
511.64	29413.51
511.82	30139.08
511.99	29715.44
512.17	29661.61
512.34	29928.43
512.51	30373.13
512.69	30553.35
512.86	29930.77
513.04	30321.64
513.21	30689.10
513.38	30361.43
513.56	30480.80
513.73	30497.18
513.90	30410.58
514.08	30497.18
514.25	30485.48
514.43	30965.29
514.60	30904.43
514.77	30766.34
514.95	31227.43
515.12	30761.66
515.29	31145.51
515.47	31548.08
515.64	31534.04
515.81	31409.99
515.99	31409.99
516.16	31618.30
516.33	31557.44
516.51	31868.73
516.68	31124.44
516.85	31613.62
517.03	31257.85
517.20	31786.82
517.37	31597.23
517.54	32229.18
517.72	31922.57
517.89	31866.39
518.06	31871.07
518.24	32126.19
518.41	32060.66
518.58	32334.50
518.75	31957.67
518.93	32608.34
519.10	32360.25
519.27	31981.08
519.45	32699.62
519.62	32517.06
519.79	32851.76
519.96	32818.99
520.14	32933.68
520.31	32652.81
520.48	33186.46
520.65	33209.86
520.83	33642.86
521.00	33483.70
521.17	33633.50
521.34	33385.40
521.52	33682.65
521.69	33631.16
521.86	33603.07
522.03	33591.37
522.20	33614.77
522.38	33790.31
522.55	34202.25
522.72	34300.55
522.89	34017.35
523.07	33977.56
523.24	33963.51
523.41	34455.03
523.58	33944.79
523.75	34700.78
523.92	34756.96
524.10	34469.07
524.27	35054.20
524.44	34506.52
524.61	34600.14
524.78	34345.02
524.96	35222.72
525.13	35157.19
525.30	34892.71
525.47	35063.57
525.64	35299.96
525.81	35269.53
525.98	35409.96
526.16	34754.61
526.33	35398.26
526.50	35285.92
526.67	35091.65
526.84	35026.12
527.01	35292.94
527.18	35510.61
527.36	35618.27
527.53	35578.48
527.70	36041.91
527.87	35707.21
528.04	35861.69
528.21	36084.04
528.38	35578.48
528.55	36158.94
528.72	35917.86
528.89	36219.79
529.07	36172.98
529.24	36018.50
529.41	36526.40
529.58	36243.20
529.75	36245.54
529.92	36013.82
530.09	36353.20
530.26	36582.57
530.43	36917.27
530.60	36341.50
530.77	36797.90
530.94	37031.96
531.11	36624.70
531.28	36669.17
531.46	36692.58
531.63	37315.16
531.80	37148.98
531.97	37043.66
532.14	37312.82
532.31	36449.16
532.48	37172.39
532.65	37092.81
532.82	37317.50
532.99	37450.91
533.16	37415.80
533.33	37392.40
533.50	37467.30
533.67	37879.23
533.84	37467.30
534.01	37757.52
534.18	37797.31
534.35	38052.43
534.52	37308.14
534.69	37816.04
534.86	37801.99
535.03	37839.44
535.20	37778.59
535.37	37830.08
535.54	38246.69
535.71	38459.68
535.88	38087.54
536.05	37647.52
536.22	38403.51
536.38	37989.24
536.55	38363.72
536.72	38298.19
536.89	37750.50
537.06	38134.35
537.23	38583.73
537.40	38618.84
537.57	38073.49
537.74	38663.31
537.91	39098.65
538.08	38829.49
538.25	38562.67
538.42	38712.46
538.59	38595.43
538.75	38295.85
538.92	38918.43
539.09	38808.42
539.26	39498.88
539.43	38888.00
539.60	38951.20
539.77	38796.72
539.94	39136.10
540.11	38962.90
540.28	38941.83
540.44	39388.88
540.61	38897.36
540.78	38904.38
540.95	38892.68
541.12	38888.00
541.29	38871.62
541.46	39316.32
541.62	39625.27
541.79	39693.15
541.96	39435.69
542.13	39688.46
542.30	39700.17
542.47	39819.53
542.63	39555.05
542.80	40306.37
542.97	40402.33
543.14	40430.41
543.31	39578.46
543.48	39903.79
543.64	40662.13
543.81	40940.65
543.98	40683.19
544.15	40044.23
544.32	40566.16
544.48	40783.83
544.65	40582.55
544.82	40432.75
544.99	40271.26
545.16	40760.43
545.32	40547.44
545.49	41081.08
545.66	41397.06
545.83	41291.73
546.00	41359.61
546.16	40849.37
546.33	40992.14
546.50	40467.86
546.67	40935.97
546.83	40280.62
547.00	40910.22
547.17	41141.94
547.34	40744.05
547.50	40903.20
547.67	41155.98
547.84	41137.26
548.00	41628.77
548.17	41205.13
548.34	41045.97
548.51	41916.65
548.67	41825.37
548.84	41523.44
549.01	41013.21
549.18	41048.32
549.34	41823.03
549.51	41500.04
549.68	41722.39
549.84	42010.28
550.01	41743.45
550.18	41551.53
550.34	41521.10
550.51	41715.37
550.68	41801.97
550.84	41507.06
551.01	41956.44
551.18	41703.67
551.34	41577.28
551.51	41879.21
551.68	41750.48
551.84	42050.06
552.01	42066.45
552.18	41914.31
552.34	41574.94
552.51	42204.54
552.68	42251.35
552.84	42527.53
553.01	42443.27
553.18	42075.81
553.34	42309.86
553.51	41834.74
553.67	42284.12
553.84	42415.19
554.01	42663.28
554.17	42527.53
554.34	42883.30
554.51	42555.62
554.67	42642.22
554.84	42595.41
555.00	42384.76
555.17	42256.03
555.33	42710.10
555.50	42490.09
555.67	42672.65
555.83	42663.28
556.00	42813.08
556.16	43037.77
556.33	42761.59
556.50	43044.79
556.66	43283.53
556.83	42492.43
556.99	42852.87
557.16	42855.21
557.32	43168.84
557.49	43264.80
557.65	42719.46
557.82	42705.41
557.98	42871.59
558.15	42909.04
558.32	43049.47
558.48	42827.12
558.65	42939.47
558.81	42932.45
558.98	43194.59
559.14	43023.73
559.31	42883.30
559.47	43196.93
559.64	43255.44
559.80	43718.87
559.97	43330.34
560.13	43126.71
560.30	43262.46
560.46	43515.24
560.63	43086.92
560.79	43346.72
560.96	43477.79
561.12	43578.43
561.29	43344.38
561.45	42965.21
561.61	43250.76
561.78	43306.93
561.94	42843.51
562.11	43210.97
562.27	43185.22
562.44	43264.80
562.60	43564.39
562.77	43889.73
562.93	43634.61
563.10	43618.22
563.26	43543.33
563.42	43428.64
563.59	43461.41
563.75	43931.86
563.92	44151.87
564.08	43648.65
564.24	43922.49
564.41	43629.93
564.57	43894.41
564.74	43878.02
564.90	43761.00
565.07	43765.68
565.23	43611.20
565.39	43739.93
565.56	44009.09
565.72	43789.08
565.88	43660.35
566.05	44074.63
566.21	43856.96
566.38	43782.06
566.54	43611.20
566.70	44158.89
566.87	44289.96
567.03	43833.55
567.19	44048.88
567.36	44201.02
567.52	43782.06
567.68	43948.24
567.85	43976.33
568.01	43920.15
568.17	43639.29
568.34	44177.61
568.50	43863.98
568.66	43655.67
568.83	43962.28
568.99	43508.22
569.15	44233.78
569.32	43934.20
569.48	43866.32
569.64	44203.36
569.81	44177.61
569.97	44039.52
570.13	44601.25
570.30	43704.82
570.46	44002.07
570.62	43842.92
570.78	43922.49
570.95	44023.14
571.11	44137.82
571.27	44376.56
571.43	44182.29
571.60	44133.14
571.76	44364.85
571.92	44165.91
572.09	44264.21
572.25	43845.26
572.41	44151.87
572.57	43934.20
572.74	44858.71
572.90	44311.02
573.06	44414.01
573.22	44636.36
573.38	44509.97
573.55	43847.60
573.71	44348.47
573.87	44179.95
574.03	44076.97
574.20	44535.71
574.36	44198.68
574.52	43981.01
574.68	44453.79
574.84	44725.30
575.01	44151.87
575.17	44304.00
575.33	44259.53
575.49	44257.19
575.65	44439.75
575.82	44538.05
575.98	44439.75
576.14	44252.51
576.30	43988.03
576.46	44140.16
576.62	44083.99
576.79	44528.69
576.95	43966.96
577.11	44095.69
577.27	44664.44
577.43	44278.25
577.59	44725.30
577.75	44619.97
577.92	44144.84
578.08	44076.97
578.24	44294.64
578.40	44254.85
578.56	44374.22
578.72	44641.04
578.88	44641.04
579.04	44591.89
579.21	44418.69
579.37	43985.69
579.53	44556.78
579.69	44044.20
579.85	44250.17
580.01	44811.90
580.17	44720.62
580.33	44395.28
580.49	44540.39
580.65	44713.59
580.82	44301.66
580.98	44446.77
581.14	44425.71
581.30	44271.23
581.46	44839.98
581.62	44025.48
581.78	44786.15
581.94	44495.92
582.10	45020.20
582.26	44589.55
582.42	44774.45
582.58	44273.57
582.74	44465.50
582.90	44587.21
583.06	44739.34
583.22	44470.18
583.38	44727.64
583.54	44568.48
583.70	44486.56
583.86	44526.35
584.02	44346.13
584.18	44753.38
584.34	44701.89
584.50	44575.50
584.66	44456.14
584.82	44388.26
584.98	44722.96
585.14	44713.59
585.30	44615.29
585.46	44533.37
585.62	44481.88
585.78	44479.54
585.94	43992.71
586.10	44205.70
586.26	44772.11
586.42	44949.99
586.58	44919.56
586.74	44587.21
586.90	44179.95
587.06	44020.80
587.22	44404.64
587.38	44247.83
587.54	45059.99
587.70	45120.85
587.86	44545.08
588.02	44985.10
588.18	44795.51
588.34	44893.82
588.49	44648.06
588.65	44865.73
588.81	44226.76
588.97	44458.48
589.13	44437.41
589.29	44568.48
589.45	44521.67
589.61	44495.92
589.77	44961.69
589.93	44947.65
590.08	45036.59
590.24	45329.16
590.40	44879.77
590.56	45151.27
590.72	45104.46
590.88	44781.47
591.04	45092.76
591.20	44847.00
591.35	44889.13
591.51	45118.51
591.67	45263.62
591.83	44634.02
591.99	44435.07
592.15	45010.84
592.31	44989.78
592.46	44758.06
592.62	44479.54
592.78	45340.86
592.94	44996.80
593.10	44849.35
593.26	45188.72
593.41	44961.69
593.57	45132.55
593.73	44935.95
593.89	44432.73
594.05	45020.20
594.20	45078.72
594.36	44854.03
594.52	44875.09
594.68	44622.31
594.84	44715.93
594.99	44868.07
595.15	45181.70
595.31	44849.35
595.47	44598.91
595.62	45050.63
595.78	45193.40
595.94	44732.32
596.10	45326.81
596.25	45050.63
596.41	45139.57
596.57	44807.22
596.73	45034.25
596.88	44416.35
597.04	45099.78
597.20	44905.52
597.36	45404.05
597.51	45155.96
597.67	44896.16
597.83	45041.27
597.99	44996.80
598.14	45392.35
598.30	45111.49
598.46	44992.12
598.61	44921.90
598.77	45015.52
598.93	44842.32
599.09	45001.48
599.24	45359.58
599.40	45284.68
599.56	45170.00
599.71	45289.37
599.87	45319.79
600.03	44783.81
600.18	44975.73
600.34	45034.25
600.50	45134.89
600.65	44959.35
600.81	45209.79
600.97	45574.91
601.12	45172.34
601.28	45345.54
601.44	45148.93
601.59	45338.52
601.75	44921.90
601.91	44725.30
602.06	44687.85
602.22	45148.93
602.37	44737.00
602.53	44961.69
602.69	45284.68
602.84	45172.34
603.00	45162.98
603.16	44825.94
603.31	45270.64
603.47	45160.64
603.62	44769.77
603.78	45029.57
603.94	45062.33
604.09	45022.54
604.25	45237.87
604.40	44685.51
604.56	45048.29
604.71	45216.81
604.87	44772.11
605.03	45062.33
605.18	44905.52
605.34	44996.80
605.49	44697.21
605.65	44854.03
605.80	44989.78
605.96	44914.88
606.12	44954.67
606.27	45045.95
606.43	44863.39
606.58	44868.07
606.74	44645.72
606.89	44942.97
607.05	44814.24
607.20	45240.21
607.36	44704.23
607.51	45595.98
607.67	45202.77
607.82	44856.37
607.98	44758.06
608.13	44734.66
608.29	44851.69
608.44	44364.85
608.60	44332.09
608.75	44355.49
608.91	44704.23
609.06	44449.11
609.22	44753.38
609.37	44158.89
609.53	45329.16
609.68	44713.59
609.84	44608.27
609.99	44989.78
610.15	44753.38
610.30	44837.64
610.46	44222.08
610.61	44545.08
610.76	44353.15
610.92	44495.92
611.07	44484.22
611.23	44439.75
611.38	44437.41
611.54	44367.20
611.69	44444.43
611.84	44467.84
612.00	43910.79
612.15	44425.71
612.31	44268.89
612.46	44414.01
612.62	44629.34
612.77	44095.69
612.92	44081.65
613.08	44020.80
613.23	44133.14
613.39	43592.48
613.54	43473.11
613.69	44034.84
613.85	44119.10
614.00	43842.92
614.15	44296.98
614.31	44378.90
614.46	44147.18
614.62	43835.89
614.77	43880.36
614.92	43962.28
615.08	44060.58
615.23	43779.72
615.38	43894.41
615.54	43412.26
615.69	43969.30
615.84	43363.11
616.00	43828.87
616.15	43863.98
616.30	43838.23
616.46	43765.68
616.61	43543.33
616.76	43557.37
616.92	43608.86
617.07	43763.34
617.22	43330.34
617.37	43737.59
617.53	43955.26
617.68	43828.87
617.83	43543.33
617.99	44016.11
618.14	43648.65
618.29	43325.66
618.45	43182.88
618.60	43117.35
618.75	43484.81
618.90	43468.43
619.06	44018.46
619.21	43550.35
619.36	43583.12
619.51	43175.86
619.67	43725.89
619.82	43643.97
619.97	43372.47
620.12	43124.37
620.28	43255.44
620.43	43548.01
620.58	43089.26
620.73	43526.94
620.89	42799.04
621.04	43386.51
621.19	43033.09
621.34	42820.10
621.49	42614.13
621.65	43208.63
621.80	43885.04
621.95	42595.41
622.10	42913.72
622.25	42593.07
622.41	42763.93
622.56	42717.12
622.71	42855.21
622.86	42913.72
623.01	43292.89
623.16	42759.25
623.32	43098.62
623.47	43115.01
623.62	42962.87
623.77	42494.77
623.92	42618.81
624.07	42436.25
624.23	42553.28
624.38	42513.49
624.53	42485.40
624.68	42356.67
624.83	42485.40
624.98	42689.03
625.13	42651.58
625.29	42469.02
625.44	42251.35
625.59	42192.84
625.74	42309.86
625.89	41958.78
626.04	42391.78
626.19	42794.36
626.34	42436.25
626.49	42124.96
626.65	42801.38
626.80	42513.49
626.95	42108.58
627.10	41986.87
627.25	42026.66
627.40	41874.52
627.55	41610.04
627.70	41593.66
627.85	41317.48
628.00	41553.87
628.15	42192.84
628.30	41757.50
628.45	42026.66
628.60	41460.25
628.76	41993.89
628.91	41867.50
629.06	42057.09
629.21	41785.58
629.36	41619.41
629.51	41659.20
629.66	41495.36
629.81	41270.67
629.96	41420.46
630.11	41581.96
630.26	41698.98
630.41	41961.12
630.56	41322.16
630.71	41605.36
630.86	41317.48
631.01	41722.39
631.16	41701.32
631.31	40540.42
631.46	40793.20
631.61	40935.97
631.76	41422.80
631.91	41034.27
632.06	41095.13
632.21	41219.17
632.36	41420.46
632.51	41228.54
632.66	41507.06
632.81	40816.60
632.96	40926.61
633.10	40783.83
633.25	40704.26
633.40	40751.07
633.55	41322.16
633.70	41242.58
633.85	40896.18
634.00	40746.39
634.15	40868.09
634.30	40999.16
634.45	40917.25
634.60	40488.93
634.75	41083.42
634.90	40364.88
635.05	41284.71
635.19	40926.61
635.34	41053.00
635.49	40840.01
635.64	40587.23
635.79	40734.68
635.94	40397.65
636.09	40570.85
636.24	40554.46
636.39	40404.67
636.53	40458.50
636.68	40016.14
636.83	40224.45
636.98	40444.46
637.13	40320.41
637.28	40297.00
637.43	40900.86
637.57	40446.80
637.72	40098.06
637.87	40561.48
638.02	40346.15
638.17	40086.36
638.32	40009.12
638.46	39892.09
638.61	40165.93
638.76	40116.78
638.91	39908.47
639.06	39658.04
639.20	40037.20
639.35	39555.05
639.50	40011.46
639.65	40252.53
639.80	39824.22
639.94	39569.10
640.09	39892.09
640.24	39562.08
640.39	39606.55
640.54	39522.29
640.68	39557.39
640.83	39739.96
640.98	39805.49
641.13	39604.20
641.27	39746.98
641.42	38955.88
641.57	39440.37
641.72	39686.12
641.86	39370.15
642.01	39344.41
642.16	39482.50
642.31	39248.44
642.45	39435.69
642.60	38920.77
642.75	39150.14
642.90	39309.30
643.04	39442.71
643.19	39126.74
643.34	39250.78
643.48	39061.20
643.63	39372.49
643.78	39150.14
643.93	39356.11
644.07	38934.81
644.22	38895.02
644.37	38848.21
644.51	39091.63
644.66	39098.65
644.81	39477.82
644.95	38983.96
645.10	38895.02
645.25	39203.97
645.39	39171.21
645.54	39358.45
645.69	39049.50
645.83	38677.35
645.98	39168.87
646.13	39133.76
646.27	39103.33
646.42	38572.03
646.57	38803.74
646.71	38583.73
646.86	38384.79
647.00	38998.01
647.15	38756.93
647.30	38981.62
647.44	38960.56
647.59	38675.01
647.74	38698.42
647.88	38689.06
648.03	38445.64
648.17	38625.86
648.32	38644.59
648.47	38274.78
648.61	38307.55
648.76	38651.61
648.90	38216.27
649.05	38330.95
649.20	38518.20
649.34	38459.68
649.49	38326.27
649.63	37902.64
649.78	38227.97
649.92	38550.96
650.07	38796.72
650.21	37979.87
650.36	38455.00
650.51	38005.62
650.65	38464.36
650.80	38632.88
650.94	38588.41
651.09	38270.10
651.23	38005.62
651.38	38134.35
651.52	37982.21
651.67	38057.11
651.81	37968.17
651.96	37900.29
652.10	37308.14
652.25	37668.58
652.39	37640.50
652.54	37579.64
652.68	38087.54
652.83	37834.76
652.97	38174.14
653.12	37811.35
653.26	37624.11
653.41	38167.12
653.55	37659.22
653.70	37600.71
653.84	37790.29
653.99	37680.28
654.13	37633.47
654.27	37436.87
654.42	37855.82
654.56	37467.30
654.71	37677.94
654.85	37839.44
655.00	37329.20
655.14	37493.04
655.29	37352.61
655.43	37717.73
655.57	36765.14
655.72	37167.71
655.86	37317.50
656.01	36952.38
656.15	36648.11
656.30	36872.80
656.44	37113.87
656.58	37097.49
656.73	37043.66
656.87	36484.27
657.01	36720.66
657.16	36968.76
657.30	36776.84
657.45	36613.00
657.59	36772.16
657.73	36720.66
657.88	36882.16
658.02	36753.43
658.16	36849.39
658.31	36765.14
658.45	37053.02
658.60	36613.00
658.74	36659.81
658.88	37017.91
659.03	36453.84
659.17	36559.17
659.31	36404.69
659.46	36308.73
659.60	36268.94
659.74	36149.57
659.89	36011.48
660.03	35957.65
660.17	36531.08
660.32	35995.10
660.46	36575.55
660.60	36591.94
660.74	36224.47
660.89	36105.10
661.03	35768.07
661.17	35637.00
661.32	35489.54
661.46	35360.81
661.60	35400.60
661.74	35775.09
661.89	35742.32
662.03	36123.83
662.17	35608.91
662.31	35606.57
662.46	35899.14
662.60	35597.21
662.74	35363.15
662.88	35274.21
663.03	34684.40
663.17	35182.93
663.31	34930.16
663.45	35543.38
663.60	35358.47
663.74	35154.85
663.88	34850.58
664.02	34948.88
664.17	35086.97
664.31	34789.72
664.45	34918.45
664.59	34937.18
664.73	34902.07
664.88	34934.84
665.02	34562.69
665.16	34532.26
665.30	34490.13
665.44	34958.24
665.59	34164.80
665.73	34190.55
665.87	34349.70
666.01	34082.88
666.15	34319.28
666.29	34015.01
666.44	34000.96
666.58	34040.75
666.72	33989.26
666.86	34220.97
667.00	34553.33
667.14	33862.87
667.28	33869.89
667.43	33631.16
667.57	33640.52
667.71	33677.97
667.85	33617.11
667.99	33404.13
668.13	33254.33
668.27	33099.86
668.41	33170.07
668.56	33167.73
668.70	33621.80
668.84	33584.35
668.98	33172.41
669.12	33364.34
669.26	32999.21
669.40	33223.90
669.54	32898.57
669.68	33008.58
669.82	33069.43
669.96	32753.46
670.10	32797.93
670.25	32727.71
670.39	32538.13
670.53	32385.99
670.67	32315.78
670.81	32570.90
670.95	32896.23
671.09	32589.62
671.23	32556.85
671.37	32662.18
671.51	32400.04
671.65	32254.92
671.79	32077.04
671.93	32088.74
672.07	32657.49
672.21	32165.98
672.35	31732.98
672.49	31824.26
672.63	31885.12
672.77	31854.69
672.91	31662.77
673.05	31517.65
673.19	31335.09
673.33	31658.09
673.47	31199.34
673.61	31079.97
673.75	30764.00
673.89	30883.37
674.03	31087.00
674.17	31068.27
674.31	30712.51
674.45	30656.34
674.59	30749.96
674.73	31391.26
674.87	30813.15
675.01	31035.50
675.15	31028.48
675.29	30583.78
675.43	31096.36
675.56	30230.36
675.70	30438.67
675.84	30106.31
675.98	29324.57
676.12	30455.05
676.26	29727.14
676.40	29996.31
676.54	29572.67
676.68	30038.44
676.82	29273.08
676.96	29380.74
677.10	29273.08
677.23	29362.02
677.37	29095.20
677.51	29165.42
677.65	29392.45
677.79	28493.68
677.93	28914.98
678.07	28945.41
678.21	28781.57
678.34	28414.10
678.48	28830.72
678.62	28601.35
678.76	28336.87
678.90	28355.59
679.04	28175.37
679.18	28128.56
679.31	27906.21
679.45	28297.08
679.59	27957.70
679.73	27665.13
679.87	27957.70
680.00	27941.32
680.14	27667.47
680.28	27484.91
680.42	27630.02
680.56	27531.72
680.70	27379.59
680.83	27316.39
680.97	27246.18
681.11	26696.15
681.25	26684.45
681.39	27056.59
681.52	26984.04
681.66	26817.86
681.80	26455.08
681.94	26471.46
682.07	26478.48
682.21	26181.23
682.35	26160.17
682.49	26300.60
682.62	26401.24
682.76	25900.37
682.90	26073.57
683.04	26010.37
683.17	25937.82
683.31	25717.81
683.45	25741.21
683.59	25425.24
683.72	25254.38
683.86	25333.96
684.00	25331.62
684.13	25151.40
684.27	25193.53
684.41	25076.50
684.55	25212.25
684.68	24851.81
684.82	24917.34
684.96	24531.15
685.09	24645.84
685.23	24510.09
685.37	24566.26
685.50	24694.99
685.64	24617.75
685.78	24290.08
685.91	24020.92
686.05	24079.43
686.19	23775.16
686.32	24304.12
686.46	24044.32
686.60	23295.35
686.73	23655.79
686.87	23557.49
687.01	23255.56
687.14	22923.21
687.28	23183.01
687.42	23171.30
687.55	22775.75
687.69	22955.97
687.82	22806.18
687.96	23218.11
688.10	22768.73
688.23	22548.72
688.37	22560.42
688.50	22178.92
688.64	22544.04
688.78	22274.88
688.91	21898.05
689.05	22078.27
689.18	22129.77
689.32	21907.41
689.46	21799.75
689.59	22216.36
689.73	21710.81
689.86	21591.44
690.00	21612.51
690.13	21881.67
690.27	21495.48
690.41	21551.65
690.54	21050.78
690.68	21071.84
690.81	20884.60
690.95	20893.96
691.08	20994.61
691.22	20910.35
691.35	20762.89
691.49	20793.32
691.62	20917.37
691.76	20634.16
691.89	20835.45
692.03	20507.77
692.16	20350.96
692.30	20353.30
692.43	20603.74
692.57	20252.66
692.70	20177.76
692.84	20053.71
692.97	19894.55
693.11	19768.16
693.24	19789.23
693.38	19852.42
693.51	19379.64
693.65	19506.02
693.78	19323.46
693.92	19274.31
694.05	19412.40
694.19	19082.39
694.32	19269.63
694.45	19168.99
694.59	18771.10
694.72	18965.36
694.86	18778.12
694.99	18525.34
695.13	18286.61
695.26	18396.61
695.39	18202.35
695.53	18333.42
695.66	18494.91
695.80	18534.70
695.93	18473.85
696.07	18176.60
696.20	17921.48
696.33	18082.98
696.47	17893.40
696.60	17713.17
696.73	17893.40
696.87	17902.76
697.00	17380.82
697.14	17708.49
697.27	17448.69
697.40	17654.66
697.54	17219.32
697.67	17329.33
697.80	17158.47
697.94	17114.00
698.07	16980.59
698.21	16917.39
698.34	16872.92
698.47	16989.95
698.61	16383.75
698.74	16762.92
698.87	16917.39
699.01	16533.54
699.14	16484.39
699.27	16428.22
699.40	16332.26
699.54	16301.83
699.67	16020.97
699.80	16088.84
699.94	15908.62
700.07	15812.66
700.20	15791.59
700.34	15618.39
700.47	15704.99
700.60	15859.47
700.73	15786.91
700.87	15515.41
701.00	15316.47
701.13	15606.69
701.26	15740.10
701.40	15594.99
701.53	15328.17
701.66	15211.14
701.79	15215.82
701.93	15143.27
702.06	14583.88
702.19	14621.33
702.32	15077.73
702.46	14750.06
702.59	14778.14
702.72	14614.30
702.85	14764.10
702.99	14719.63
703.12	14576.86
703.25	14626.01
703.38	14211.73
703.51	14593.24
703.65	14377.91
703.78	14398.98
703.91	14410.68
704.04	14040.87
704.17	13853.63
704.31	13893.42
704.44	13748.31
704.57	13830.23
704.70	13743.63
704.83	13762.35
704.96	13575.11
705.10	13729.58
705.23	13757.67
>>>>>End Processed Spectral Data<<<<<
