SpectraSuite Data File
++++++++++++++++++++++++++++++++++++
Date: Fri Oct 25 10:47:15 EDT 2013
User: price-jones
Dark Spectrum Present: No
Reference Spectrum Present: No
Number of Sampled Component Spectra: 1
Spectrometers: USB2+H05261
Integration Time (usec): 100000 (USB2+H05261)
Spectra Averaged: 1 (USB2+H05261)
Boxcar Smoothing: 0 (USB2+H05261)
Correct for Electrical Dark: No (USB2+H05261)
Strobe/Lamp Enabled: No (USB2+H05261)
Correct for Detector Non-linearity: No (USB2+H05261)
Correct for Stray Light: No (USB2+H05261)
Number of Pixels in Processed Spectrum: 2048
>>>>>Begin Processed Spectral Data<<<<<
365.73	198.95
365.92	198.95
366.12	198.95
366.32	102.98
366.52	0.00
366.72	32.77
366.91	51.49
367.11	0.00
367.31	0.00
367.51	84.26
367.70	37.45
367.90	79.58
368.10	23.41
368.30	9.36
368.49	95.96
368.69	51.49
368.89	100.64
369.09	60.85
369.28	70.22
369.48	42.13
369.68	114.69
369.87	173.20
370.07	95.96
370.27	124.05
370.47	215.33
370.66	299.59
370.86	379.17
371.06	411.93
371.25	526.62
371.45	386.19
371.65	454.06
371.84	442.36
372.04	519.60
372.24	393.21
372.44	484.49
372.63	465.77
372.83	491.51
373.03	552.37
373.22	468.11
373.42	475.13
373.62	477.47
373.81	454.06
374.01	475.13
374.21	540.66
374.40	585.13
374.60	547.69
374.79	540.66
374.99	517.26
375.19	561.73
375.38	587.47
375.58	568.75
375.78	610.88
375.97	538.32
376.17	662.37
376.37	580.45
376.56	514.92
376.76	599.18
376.95	599.18
377.15	610.88
377.35	596.84
377.54	608.54
377.74	566.41
377.93	526.62
378.13	535.98
378.33	627.26
378.52	662.37
378.72	664.71
378.91	615.56
379.11	575.77
379.31	667.05
379.50	589.82
379.70	603.86
379.89	571.09
380.09	636.63
380.28	650.67
380.48	592.16
380.68	655.35
380.87	648.33
381.07	720.88
381.26	645.99
381.46	610.88
381.65	645.99
381.85	690.46
382.04	676.41
382.24	709.18
382.43	697.48
382.63	718.54
382.83	678.76
383.02	650.67
383.22	683.44
383.41	636.63
383.61	732.59
383.80	856.64
384.00	758.33
384.19	702.16
384.39	748.97
384.58	737.27
384.78	702.16
384.97	751.31
385.17	650.67
385.36	718.54
385.56	730.25
385.75	711.52
385.95	758.33
386.14	765.36
386.34	711.52
386.53	725.57
386.72	786.42
386.92	814.51
387.11	746.63
387.31	802.80
387.50	802.80
387.70	781.74
387.89	837.91
388.09	828.55
388.28	795.78
388.48	734.93
388.67	784.08
388.86	828.55
389.06	877.70
389.25	802.80
389.45	821.53
389.64	819.19
389.84	915.15
390.03	891.74
390.22	861.32
390.42	875.36
390.61	903.45
390.81	847.27
391.00	919.83
391.19	863.66
391.39	898.77
391.58	959.62
391.78	971.32
391.97	835.57
392.16	915.15
392.36	999.41
392.55	992.39
392.75	929.19
392.94	908.13
393.13	873.02
393.33	964.30
393.52	926.85
393.71	966.64
393.91	1083.67
394.10	961.96
394.29	980.68
394.49	992.39
394.68	1041.54
394.88	1029.84
395.07	1090.69
395.26	1125.80
395.46	1025.15
395.65	1074.31
395.84	1022.81
396.04	1198.35
396.23	1076.65
396.42	1078.99
396.62	1118.78
396.81	1116.44
397.00	1074.31
397.19	1198.35
397.39	1160.91
397.58	1160.91
397.77	1277.93
397.97	1247.51
398.16	1214.74
398.35	1219.42
398.55	1139.84
398.74	1350.49
398.93	1277.93
399.12	1313.04
399.32	1341.13
399.51	1322.40
399.70	1303.68
399.90	1214.74
400.09	1458.15
400.28	1329.42
400.47	1329.42
400.67	1369.21
400.86	1362.19
401.05	1366.87
401.24	1446.45
401.44	1411.34
401.63	1369.21
401.82	1488.58
402.01	1507.30
402.21	1404.32
402.40	1575.18
402.59	1502.62
402.78	1448.79
402.97	1397.30
403.17	1521.35
403.36	1476.88
403.55	1526.03
403.74	1528.37
403.93	1575.18
404.13	1521.35
404.32	1652.42
404.51	1563.48
404.70	1586.88
404.89	1678.16
405.09	1636.03
405.28	1631.35
405.47	1563.48
405.66	1614.97
405.85	1661.78
406.05	1605.61
406.24	1610.29
406.43	1696.89
406.62	1734.34
406.81	1856.04
407.00	1788.17
407.20	1825.62
407.39	1757.74
407.58	1764.76
407.77	1898.17
407.96	1809.23
408.15	1891.15
408.34	1846.68
408.54	1853.70
408.73	1799.87
408.92	1884.13
409.11	1947.33
409.30	1984.77
409.49	2026.90
409.68	1863.07
409.87	1895.83
410.07	1975.41
410.26	2083.08
410.45	2080.74
410.64	2071.37
410.83	2139.25
411.02	2071.37
411.21	2277.34
411.40	2090.10
411.59	2125.21
411.78	2218.83
411.98	2099.46
412.17	2293.72
412.36	2253.94
412.55	2190.74
412.74	2331.17
412.93	2275.00
413.12	2251.60
413.31	2408.41
413.50	2380.32
413.69	2434.16
413.88	2396.71
414.07	2335.85
414.26	2471.61
414.45	2394.37
414.64	2499.69
414.83	2602.68
415.02	2541.82
415.22	2511.39
415.41	2651.83
415.60	2724.38
415.79	2693.96
415.98	2640.12
416.17	2586.29
416.36	2733.75
416.55	2722.04
416.74	2801.62
416.93	2761.83
417.12	2712.68
417.31	2904.60
417.50	2810.98
417.69	2899.92
417.88	3014.61
418.07	2878.86
418.26	2967.80
418.45	2963.12
418.64	3129.30
418.83	2916.31
419.02	2958.44
419.21	3103.55
419.39	3068.44
419.58	3059.08
419.77	3035.67
419.96	3164.40
420.15	3176.11
420.34	3103.55
420.53	3272.07
420.72	3258.03
420.91	3225.26
421.10	3274.41
421.29	3239.30
421.48	3267.39
421.67	3368.03
421.86	3349.31
422.05	3337.60
422.24	3229.94
422.43	3302.50
422.61	3246.32
422.80	3269.73
422.99	3293.13
423.18	3307.18
423.37	3412.50
423.56	3421.86
423.75	3337.60
423.94	3384.41
424.13	3028.65
424.32	3220.58
424.50	3482.72
424.69	3627.83
424.88	3513.14
425.07	3424.20
425.26	3351.65
425.45	3517.83
425.64	3527.19
425.83	3407.82
426.01	3391.44
426.20	3485.06
426.39	3480.38
426.58	3482.72
426.77	3428.88
426.96	3513.14
427.15	3449.95
427.33	3513.14
427.52	3475.70
427.71	3779.97
427.90	3627.83
428.09	3609.11
428.28	3543.57
428.46	3616.13
428.65	3595.06
428.84	3712.09
429.03	3721.45
429.22	3611.45
429.40	3688.68
429.59	3531.87
429.78	3564.64
429.97	3499.10
430.16	3662.94
430.34	3672.30
430.53	3756.56
430.72	3819.75
430.91	3658.26
431.10	3808.05
431.28	3920.40
431.47	3948.48
431.66	4007.00
431.85	3871.25
432.03	3920.40
432.22	3971.89
432.41	4138.07
432.60	4149.77
432.79	4074.87
432.97	4224.67
433.16	4067.85
433.35	4180.20
433.54	4060.83
433.72	4299.56
433.91	4117.00
434.10	4109.98
434.28	4102.96
434.47	4287.86
434.66	4236.37
434.85	4266.80
435.03	4297.22
435.22	4311.27
435.41	4374.46
435.59	4315.95
435.78	4475.10
435.97	4484.47
436.16	4414.25
436.34	4271.48
436.53	4425.95
436.72	4507.87
436.90	4397.87
437.09	4505.53
437.28	4351.06
437.46	4538.30
437.65	4428.29
437.84	4510.21
438.02	4580.43
438.21	4564.04
438.40	4557.02
438.58	4692.77
438.77	4774.69
438.96	4610.86
439.14	4830.87
439.33	4772.35
439.52	4847.25
439.70	4821.50
439.89	4924.49
440.08	4894.06
440.26	5109.39
440.45	5095.35
440.63	5123.43
440.82	5233.44
441.01	5055.56
441.19	5191.31
441.38	5022.79
441.57	5263.86
441.75	5191.31
441.94	5364.51
442.12	5518.98
442.31	5504.94
442.50	5533.03
442.68	5350.46
442.87	5493.24
443.05	5416.00
443.24	5631.33
443.43	5554.09
443.61	5785.80
443.80	5659.42
443.98	5376.21
444.17	5303.65
444.35	5518.98
444.54	5643.03
444.73	5645.37
444.91	5474.51
445.10	5678.14
445.28	5554.09
445.47	5479.19
445.65	5650.05
445.84	5563.45
446.02	5713.25
446.21	5659.42
446.39	5600.90
446.58	5870.06
446.77	5893.47
446.95	5607.92
447.14	5650.05
447.32	5715.59
447.51	5900.49
447.69	5596.22
447.88	5701.54
448.06	5809.21
448.25	5846.66
448.43	5905.17
448.62	5710.91
448.80	5628.99
448.99	5748.36
449.17	5914.53
449.36	5846.66
449.54	6162.63
449.73	6085.39
449.91	6153.27
450.10	6106.46
450.28	6310.08
450.46	6038.58
450.65	6136.88
450.83	6162.63
451.02	6188.38
451.20	6204.76
451.39	6188.38
451.57	6333.49
451.76	6169.65
451.94	6230.51
452.13	6286.68
452.31	6228.17
452.49	6200.08
452.68	6258.59
452.86	6314.77
453.05	6352.21
453.23	6394.34
453.42	6279.66
453.60	6181.35
453.78	6267.95
453.97	6279.66
454.15	6431.79
454.34	6410.73
454.52	6452.86
454.70	6401.37
454.89	6443.49
455.07	6665.85
455.26	6476.26
455.44	6726.70
455.62	6588.61
455.81	6569.88
455.99	6761.81
456.17	6764.15
456.36	6857.77
456.54	6719.68
456.73	6794.58
456.91	7023.95
457.09	6925.65
457.28	7049.69
457.46	6960.75
457.64	7056.72
457.83	7133.95
458.01	6918.62
458.19	7063.74
458.38	7122.25
458.56	7136.29
458.74	7169.06
458.93	7054.37
459.11	7204.17
459.29	7185.44
459.48	7269.70
459.66	7145.66
459.84	7302.47
460.03	7300.13
460.21	7178.42
460.39	7466.31
460.57	7316.51
460.76	7433.54
460.94	7424.18
461.12	7513.12
461.31	7639.51
461.49	7323.54
461.67	7344.60
461.85	7705.04
462.04	7691.00
462.22	7995.27
462.40	7796.32
462.59	7592.70
462.77	7723.77
462.95	7925.05
463.13	7742.49
463.32	7962.50
463.50	7880.58
463.68	7873.56
463.86	7775.26
464.05	7576.31
464.23	7651.21
464.41	7911.01
464.59	7691.00
464.78	7990.59
464.96	7899.31
465.14	7859.52
465.32	7911.01
465.50	8095.91
465.69	7964.84
465.87	8105.28
466.05	8112.30
466.23	8081.87
466.41	8013.99
466.60	8477.42
466.78	7948.46
466.96	8025.70
467.14	7981.23
467.32	8131.02
467.51	8266.77
467.69	8011.65
467.87	8269.11
468.05	8404.86
468.23	8390.82
468.41	8060.80
468.60	8484.44
468.78	8435.29
468.96	8241.03
469.14	8458.70
469.32	8594.45
469.50	8299.54
469.69	8278.47
469.87	8863.61
470.05	8748.92
470.23	8699.77
470.41	8753.60
470.59	8664.66
470.77	8800.41
470.95	8713.81
471.14	8840.20
471.32	8652.96
471.50	8847.22
471.68	8898.72
471.86	9160.86
472.04	9053.19
472.22	9205.33
472.40	9165.54
472.58	9308.31
472.77	9046.17
472.95	9259.16
473.13	9600.88
473.31	9144.47
473.49	9320.01
473.67	9460.45
473.85	9418.32
474.03	9376.19
474.21	9671.09
474.39	9561.09
474.57	9446.40
474.75	9713.22
474.93	9909.83
475.12	9832.59
475.30	9713.22
475.48	9926.21
475.66	9994.09
475.84	9994.09
476.02	10071.33
476.20	9977.70
476.38	10487.94
476.56	10534.75
476.74	10483.26
476.92	10200.05
477.10	10111.11
477.28	10537.09
477.46	10459.85
477.64	10806.25
477.82	10740.72
478.00	11021.58
478.18	11119.89
478.36	11169.04
478.54	11171.38
478.72	11281.38
478.90	11543.52
479.08	11482.67
479.26	11531.82
479.44	11779.92
479.62	11410.11
479.80	11810.34
479.98	11810.34
480.16	11941.41
480.34	11840.77
480.52	12119.29
480.70	11845.45
480.88	11974.18
481.06	12287.81
481.24	12149.72
481.41	12505.48
481.59	12652.94
481.77	12704.43
481.95	12727.83
482.13	12678.68
482.31	12690.38
482.49	12926.78
482.67	13142.11
482.85	13195.94
483.03	13137.43
483.21	13490.85
483.39	13561.06
483.57	13467.44
483.74	13748.31
483.92	13720.22
484.10	13699.16
484.28	14171.94
484.46	13848.95
484.64	14518.34
484.82	14129.81
485.00	14485.58
485.18	14719.63
485.35	14654.09
485.53	14696.22
485.71	14883.47
485.89	14939.64
486.07	14665.80
486.25	14958.36
486.43	15042.62
486.61	15234.55
486.78	15330.51
486.96	15492.01
487.14	15775.21
487.32	15737.76
487.50	16023.31
487.68	16229.27
487.85	16313.53
488.03	16259.70
488.21	16542.91
488.39	16652.91
488.57	17001.65
488.75	16879.94
488.92	17067.19
489.10	17198.26
489.28	17184.21
489.46	17319.96
489.64	17415.93
489.81	17680.41
489.99	17951.91
490.17	17989.36
490.35	18258.52
490.53	17947.23
490.70	18258.52
490.88	18218.73
491.06	18246.82
491.24	18459.81
491.41	18408.31
491.59	18836.63
491.77	18789.82
491.95	18993.45
492.13	18878.76
492.30	19358.57
492.48	19321.12
492.66	19501.34
492.84	19424.11
493.01	19641.78
493.19	19775.19
493.37	19573.90
493.54	19880.51
493.72	20159.03
493.90	20334.57
494.08	20025.62
494.25	20437.56
494.43	20418.83
494.61	20924.39
494.79	20758.21
494.96	20713.74
495.14	20957.16
495.32	21350.37
495.49	21394.84
495.67	21518.89
495.85	21380.79
496.02	21853.58
496.20	21928.48
496.38	22045.51
496.55	21713.15
496.73	22288.92
496.91	22008.06
497.09	22153.17
497.26	22611.92
497.44	22424.67
497.62	22635.32
497.79	22902.14
497.97	22333.39
498.14	22780.43
498.32	22988.74
498.50	23122.15
498.67	23428.76
498.85	23110.45
499.03	23379.61
499.20	23234.50
499.38	23590.26
499.56	24018.58
499.73	23463.87
499.91	23700.26
500.08	24161.35
500.26	23761.12
500.44	24072.41
500.61	24023.26
500.79	24339.23
500.97	24142.63
501.14	24439.87
501.32	24713.72
501.49	24582.65
501.67	24783.93
501.84	24802.66
502.02	24678.61
502.20	25020.33
502.37	24961.81
502.55	24889.26
502.72	24959.47
502.90	25429.92
503.07	25067.14
503.25	25516.52
503.43	25504.82
503.60	25436.94
503.78	25628.87
503.95	25308.21
504.13	25743.55
504.30	26132.08
504.48	25921.43
504.65	25937.82
504.83	26066.55
505.01	26148.46
505.18	26473.80
505.36	26628.27
505.53	26611.89
505.71	26684.45
505.88	26829.56
506.06	26445.71
506.23	26677.43
506.41	26595.51
506.58	27042.55
506.76	27180.64
506.93	27206.39
507.11	27084.68
507.28	27426.40
507.46	27208.73
507.63	27194.68
507.81	27592.58
507.98	27548.11
508.16	27707.26
508.33	27615.98
508.50	27749.39
508.68	27751.73
508.85	28149.62
509.03	27859.40
509.20	28304.10
509.38	28233.88
509.55	28648.16
509.73	28430.49
509.90	28367.29
510.08	28739.44
510.25	28430.49
510.42	28437.51
510.60	28716.03
510.77	29085.84
510.95	29015.62
511.12	28912.64
511.30	28854.12
511.47	29223.93
511.64	29249.67
511.82	29326.91
511.99	29528.20
512.17	29773.95
512.34	29280.10
512.51	29584.37
512.69	29841.83
512.86	29771.61
513.04	29888.64
513.21	29741.19
513.38	29940.13
513.56	29736.51
513.73	29722.46
513.90	30178.87
514.08	29890.98
514.25	30525.27
514.43	30153.12
514.60	29998.65
514.77	30237.38
514.95	31304.67
515.12	30485.48
515.29	30522.93
515.47	30934.86
515.64	31035.50
515.81	30792.09
515.99	30918.48
516.16	31285.94
516.33	31040.18
516.51	31264.88
516.68	31136.15
516.85	30831.88
517.03	31314.03
517.20	31154.87
517.37	31543.40
517.54	31548.08
517.72	31534.04
517.89	31548.08
518.06	31819.58
518.24	31534.04
518.41	31660.43
518.58	31686.17
518.75	31391.26
518.93	32294.71
519.10	32039.59
519.27	32510.04
519.45	32524.08
519.62	32402.38
519.79	32051.30
519.96	32769.84
520.14	32767.50
520.31	32254.92
520.48	32772.18
520.65	32414.08
520.83	33083.47
521.00	32765.16
521.17	32802.61
521.34	33179.43
521.52	33015.60
521.69	33202.84
521.86	33282.42
522.03	33574.98
522.20	33282.42
522.38	33186.46
522.55	33282.42
522.72	33500.09
522.89	33352.63
523.07	33860.53
523.24	33890.96
523.41	33954.15
523.58	33724.78
523.75	33886.28
523.92	34223.31
524.10	34380.13
524.27	34066.50
524.44	33928.41
524.61	34132.03
524.78	34169.48
524.96	34452.69
525.13	34883.34
525.30	34953.56
525.47	34888.03
525.64	34976.97
525.81	34651.63
525.98	34785.04
526.16	34754.61
526.33	34843.56
526.50	34768.66
526.67	34738.23
526.84	34644.61
527.01	34646.95
527.18	35615.93
527.36	34920.79
527.53	35115.06
527.70	35578.48
527.87	35463.80
528.04	35171.23
528.21	35594.87
528.38	35627.63
528.55	35482.52
528.72	35220.38
528.89	35452.09
529.07	35901.48
529.24	35732.96
529.41	36140.21
529.58	36093.40
529.75	36369.58
529.92	36039.57
530.09	35997.44
530.26	36472.57
530.43	36156.60
530.60	36158.94
530.77	36526.40
530.94	36194.04
531.11	36151.91
531.28	36577.89
531.46	36641.09
531.63	36837.69
531.80	35908.50
531.97	36584.91
532.14	36580.23
532.31	36631.72
532.48	36884.50
532.65	36992.17
532.82	36772.16
532.99	37127.92
533.16	36266.60
533.33	36760.45
533.50	37298.78
533.67	37368.99
533.84	36655.13
534.01	37462.61
534.18	37200.47
534.35	37731.78
534.52	37373.67
534.69	37429.85
534.86	37397.08
535.03	37134.94
535.20	37689.65
535.37	37504.74
535.54	37809.01
535.71	37542.19
535.88	37469.64
536.05	37806.67
536.22	38068.81
536.38	37881.57
536.55	37998.60
536.72	38129.67
536.89	37830.08
537.06	38213.93
537.23	38237.33
537.40	38124.99
537.57	37876.89
537.74	37893.27
537.91	38213.93
538.08	38602.46
538.25	38197.54
538.42	38284.14
538.59	38543.94
538.75	37787.95
538.92	38518.20
539.09	38684.37
539.26	38845.87
539.43	38639.90
539.60	38075.84
539.77	38368.40
539.94	38536.92
540.11	38990.98
540.28	38604.80
540.44	38672.67
540.61	38635.22
540.78	38693.74
540.95	38836.51
541.12	38815.44
541.29	38455.00
541.46	39061.20
541.62	39112.69
541.79	39466.11
541.96	38962.90
542.13	39058.86
542.30	39243.76
542.47	39086.95
542.63	38883.32
542.80	39203.97
542.97	39562.08
543.14	39931.88
543.31	39791.45
543.48	39817.19
543.64	40402.33
543.81	40009.12
543.98	40004.44
544.15	39599.52
544.32	40039.54
544.48	40425.73
544.65	40215.08
544.82	39983.37
544.99	39761.02
545.16	40079.33
545.32	40229.13
545.49	40332.11
545.66	40144.87
545.83	40608.29
546.00	40741.71
546.16	40598.93
546.33	40107.42
546.50	39735.27
546.67	40086.36
546.83	39922.52
547.00	40081.67
547.17	40465.52
547.34	40123.80
547.50	40627.02
547.67	41116.19
547.84	40699.58
548.00	41186.41
548.17	41057.68
548.34	40919.59
548.51	41001.50
548.67	40952.35
548.84	41399.40
549.01	40840.01
549.18	41134.92
549.34	41294.07
549.51	41153.64
549.68	41273.01
549.84	41184.07
550.01	41422.80
550.18	41420.46
550.34	41432.16
550.51	41305.77
550.68	41015.55
550.84	41144.28
551.01	41074.06
551.18	40917.25
551.34	41324.50
551.51	41560.89
551.68	41464.93
551.84	41640.47
552.01	41329.18
552.18	41799.63
552.34	41312.80
552.51	41951.76
552.68	41350.24
552.84	41727.07
553.01	42576.69
553.18	42157.73
553.34	41549.19
553.51	41593.66
553.67	41624.09
553.84	41846.44
554.01	42183.48
554.17	41731.75
554.34	42466.68
554.51	42096.88
554.67	42146.03
554.84	42263.05
555.00	41923.68
555.17	41921.34
555.33	42256.03
555.50	42281.78
555.67	42494.77
555.83	42534.56
556.00	42258.37
556.16	42784.99
556.33	42632.86
556.50	42288.80
556.66	42665.63
556.83	42293.48
556.99	42855.21
557.16	42773.29
557.32	42492.43
557.49	42693.71
557.65	42197.52
557.82	42274.76
557.98	42454.98
558.15	42082.83
558.32	43019.05
558.48	42913.72
558.65	42583.71
558.81	42618.81
558.98	42452.64
559.14	42803.72
559.31	43220.33
559.47	42637.54
559.64	43199.27
559.80	43065.86
559.97	42857.55
560.13	42731.16
560.30	42543.92
560.46	42693.71
560.63	42913.72
560.79	43243.74
560.96	43372.47
561.12	43147.78
561.29	43313.95
561.45	42965.21
561.61	42890.32
561.78	42759.25
561.94	42588.39
562.11	42958.19
562.27	42946.49
562.44	43147.78
562.60	43426.30
562.77	43213.31
562.93	42822.44
563.10	43262.46
563.26	42794.36
563.42	43438.00
563.59	42859.89
563.75	43571.41
563.92	43470.77
564.08	43234.38
564.24	43367.79
564.41	43526.94
564.57	43138.41
564.74	43304.59
564.90	43522.26
565.07	43328.00
565.23	43316.29
565.39	43227.35
565.56	43770.36
565.72	43615.88
565.88	43714.19
566.05	43068.20
566.21	43222.67
566.38	43409.92
566.54	43290.55
566.70	43718.87
566.87	43721.21
567.03	43473.11
567.19	43662.69
567.36	43339.70
567.52	43332.68
567.68	43636.95
567.85	43012.02
568.01	43557.37
568.17	43395.87
568.34	43962.28
568.50	43379.49
568.66	43342.04
568.83	43426.30
568.99	43461.41
569.15	43466.09
569.32	43555.03
569.48	43693.12
569.64	43931.86
569.81	43950.58
569.97	43398.21
570.13	43529.28
570.30	43072.88
570.46	43217.99
570.62	43323.32
570.78	43196.93
570.95	43416.94
571.11	43538.65
571.27	43697.80
571.43	43828.87
571.60	43728.23
571.76	43484.81
571.92	43887.39
572.09	43309.27
572.25	43374.81
572.41	43414.60
572.57	43772.70
572.74	44357.83
572.90	43489.49
573.06	43948.24
573.22	43775.04
573.38	43325.66
573.55	43454.39
573.71	43976.33
573.87	43831.21
574.03	43714.19
574.20	43824.19
574.36	43751.63
574.52	43899.09
574.68	43952.92
574.84	44168.25
575.01	44048.88
575.17	43896.75
575.33	43950.58
575.49	43814.83
575.65	44308.68
575.82	44048.88
575.98	44147.18
576.14	44318.04
576.30	44271.23
576.46	43992.71
576.62	43503.54
576.79	44203.36
576.95	43042.45
577.11	44135.48
577.27	43908.45
577.43	44109.74
577.59	43906.11
577.75	43924.83
577.92	43578.43
578.08	43454.39
578.24	44034.84
578.40	43929.51
578.56	44423.37
578.72	43957.60
578.88	44322.72
579.04	43910.79
579.21	44027.82
579.37	44067.61
579.53	44011.43
579.69	43662.69
579.85	44259.53
580.01	43957.60
580.17	44250.17
580.33	44320.38
580.49	43768.02
580.65	44156.55
580.82	44519.33
580.98	43814.83
581.14	43669.72
581.30	44098.03
581.46	43871.00
581.62	43969.30
581.78	44329.75
581.94	44711.25
582.10	44350.81
582.26	44261.87
582.42	43955.26
582.58	43985.69
582.74	43983.35
582.90	44348.47
583.06	44175.27
583.22	43922.49
583.38	43997.39
583.54	43929.51
583.70	44149.53
583.86	43852.28
584.02	43393.53
584.18	44322.72
584.34	44311.02
584.50	43936.54
584.66	44023.14
584.82	43840.57
584.98	44179.95
585.14	44788.49
585.30	43852.28
585.46	43775.04
585.62	43693.12
585.78	44229.10
585.94	44109.74
586.10	44140.16
586.26	44196.34
586.42	44648.06
586.58	44615.29
586.74	44882.11
586.90	44275.91
587.06	44259.53
587.22	44170.59
587.38	43978.67
587.54	44486.56
587.70	44542.74
587.86	43999.73
588.02	44762.75
588.18	44493.58
588.34	44091.01
588.49	43693.12
588.65	43793.76
588.81	43990.37
588.97	44512.31
589.13	44030.16
589.29	44198.68
589.45	44509.97
589.61	44238.47
589.77	44638.70
589.93	44318.04
590.08	44421.03
590.24	44804.88
590.40	44498.26
590.56	44502.95
590.72	44484.22
590.88	43952.92
591.04	44409.32
591.20	44767.43
591.35	44776.79
591.51	45017.86
591.67	44706.57
591.83	44498.26
591.99	44442.09
592.15	44561.46
592.31	44219.74
592.46	44201.02
592.62	44240.81
592.78	44472.52
592.94	44931.26
593.10	44133.14
593.26	44694.87
593.41	44594.23
593.57	44002.07
593.73	44318.04
593.89	44535.71
594.05	44708.91
594.20	44502.95
594.36	44559.12
594.52	44502.95
594.68	44741.68
594.84	44652.74
594.99	45090.42
595.15	44325.07
595.31	44418.69
595.47	44643.38
595.62	44978.07
595.78	44786.15
595.94	44676.15
596.10	44790.83
596.25	44760.40
596.41	44687.85
596.57	45090.42
596.73	44629.34
596.88	44325.07
597.04	44648.06
597.20	44648.06
597.36	44549.76
597.51	45013.18
597.67	44318.04
597.83	44676.15
597.99	44484.22
598.14	44706.57
598.30	44694.87
598.46	44748.70
598.61	44465.50
598.77	44505.29
598.93	44947.65
599.09	44718.28
599.24	44884.45
599.40	45097.44
599.56	44612.95
599.71	44519.33
599.87	45188.72
600.03	44376.56
600.18	44788.49
600.34	45153.62
600.50	44961.69
600.65	44889.13
600.81	44957.01
600.97	45230.85
601.12	45134.89
601.28	45095.10
601.44	44788.49
601.59	44587.21
601.75	44818.92
601.91	44378.90
602.06	44533.37
602.22	44891.48
602.37	44556.78
602.53	44875.09
602.69	45099.78
602.84	44919.56
603.00	44818.92
603.16	44755.72
603.31	44594.23
603.47	44765.09
603.62	44130.80
603.78	44889.13
603.94	45265.96
604.09	44793.17
604.25	44715.93
604.40	44495.92
604.56	44327.41
604.71	44423.37
604.87	44177.61
605.03	44704.23
605.18	44493.58
605.34	44390.60
605.49	44488.90
605.65	44608.27
605.80	44425.71
605.96	44444.43
606.12	45109.14
606.27	44535.71
606.43	44348.47
606.58	44823.60
606.74	44559.12
606.89	44575.50
607.05	44411.67
607.20	44748.70
607.36	44636.36
607.51	44865.73
607.67	44825.94
607.82	44657.42
607.98	44992.12
608.13	44566.14
608.29	44252.51
608.44	44626.99
608.60	43915.47
608.75	44163.57
608.91	44123.78
609.06	44261.87
609.22	44975.73
609.37	44320.38
609.53	44081.65
609.68	44397.62
609.84	44458.48
609.99	44484.22
610.15	44243.15
610.30	43667.37
610.46	43426.30
610.61	43915.47
610.76	43983.35
610.92	44488.90
611.07	44044.20
611.23	43842.92
611.38	44336.77
611.54	44023.14
611.69	43550.35
611.84	44079.31
612.00	43810.15
612.15	43646.31
612.31	44030.16
612.46	44098.03
612.62	44385.92
612.77	44102.71
612.92	43814.83
613.08	43838.23
613.23	44044.20
613.39	43847.60
613.54	43629.93
613.69	44140.16
613.85	43772.70
614.00	43732.91
614.15	44215.06
614.31	44062.93
614.46	44399.96
614.62	43866.32
614.77	43627.59
614.92	43569.07
615.08	43510.56
615.23	43388.85
615.38	43873.34
615.54	43452.05
615.69	43658.01
615.84	43590.14
616.00	43381.83
616.15	42951.17
616.30	43501.20
616.46	43278.85
616.61	43061.18
616.76	43620.56
616.92	42792.01
617.07	43292.89
617.22	43501.20
617.37	43491.83
617.53	43407.58
617.68	43257.78
617.83	43636.95
617.99	43622.90
618.14	43103.31
618.29	43068.20
618.45	43110.33
618.60	43234.38
618.75	43161.82
618.90	43292.89
619.06	43143.09
619.21	43089.26
619.36	43271.82
619.51	42651.58
619.67	42869.25
619.82	43407.58
619.97	43395.87
620.12	43030.75
620.28	42632.86
620.43	42934.79
620.58	43047.13
620.73	43246.08
620.89	42876.27
621.04	42897.34
621.19	43023.73
621.34	42904.36
621.49	42632.86
621.65	42576.69
621.80	42864.57
621.95	42731.16
622.10	42761.59
622.25	42410.51
622.41	42291.14
622.56	42567.32
622.71	42892.66
622.86	42892.66
623.01	42527.53
623.16	42433.91
623.32	42548.60
623.47	42962.87
623.62	42747.54
623.77	42089.85
623.92	42251.35
624.07	42183.48
624.23	42249.01
624.38	42188.16
624.53	41989.21
624.68	42075.81
624.83	42536.90
624.98	42052.41
625.13	42373.06
625.29	42160.07
625.44	42017.30
625.59	41834.74
625.74	41656.85
625.89	42227.95
626.04	41509.40
626.19	42026.66
626.34	42075.81
626.49	42220.92
626.65	41869.84
626.80	42082.83
626.95	41514.08
627.10	41879.21
627.25	41799.63
627.40	42117.94
627.55	41500.04
627.70	41202.79
627.85	41694.30
628.00	41638.13
628.15	41911.97
628.30	41509.40
628.45	41666.22
628.60	41495.36
628.76	41745.80
628.91	41799.63
629.06	41352.58
629.21	41219.17
629.36	41317.48
629.51	40910.22
629.66	41172.36
629.81	41390.03
629.96	41003.85
630.11	41209.81
630.26	41762.18
630.41	41448.55
630.56	40889.16
630.71	41254.28
630.86	41446.21
631.01	41368.97
631.16	41373.65
631.31	40865.75
631.46	40992.14
631.61	40978.10
631.76	41130.23
631.91	41254.28
632.06	41261.30
632.21	41024.91
632.36	41354.93
632.51	40739.36
632.66	41450.89
632.81	40430.41
632.96	40554.46
633.10	40519.35
633.25	40931.29
633.40	40643.40
633.55	41076.40
633.70	40893.84
633.85	40905.54
634.00	40706.60
634.15	40315.73
634.30	40645.74
634.45	40297.00
634.60	40481.91
634.75	40311.05
634.90	40591.91
635.05	40596.59
635.19	40825.96
635.34	41141.94
635.49	40474.88
635.64	40402.33
635.79	39906.13
635.94	39957.63
636.09	40268.92
636.24	40217.43
636.39	40299.34
636.53	40011.46
636.68	39828.90
636.83	39381.85
636.98	40182.32
637.13	39859.32
637.28	40034.86
637.43	40046.57
637.57	40418.71
637.72	40362.54
637.87	39969.33
638.02	39643.99
638.17	39950.60
638.32	39754.00
638.46	39161.84
638.61	39807.83
638.76	39573.78
638.91	39498.88
639.06	39721.23
639.20	40233.81
639.35	40240.83
639.50	39700.17
639.65	39454.41
639.80	39707.19
639.94	39367.81
640.09	39344.41
640.24	39859.32
640.39	39386.54
640.54	39377.17
640.68	39573.78
640.83	39669.74
640.98	39349.09
641.13	39147.80
641.27	39709.53
641.42	39175.89
641.57	39412.28
641.72	39653.36
641.86	39536.33
642.01	39117.37
642.16	39243.76
642.31	39166.52
642.45	39433.35
642.60	39236.74
642.75	38911.41
642.90	39290.57
643.04	39044.82
643.19	39077.58
643.34	39196.95
643.48	39398.24
643.63	39222.70
643.78	38953.54
643.93	38852.89
644.07	38462.02
644.22	38567.35
644.37	38890.34
644.51	38733.53
644.66	38761.61
644.81	38955.88
644.95	38864.60
645.10	38902.04
645.25	39365.47
645.39	38873.96
645.54	38998.01
645.69	38787.36
645.83	38621.18
645.98	38455.00
646.13	38897.36
646.27	38696.08
646.42	38356.70
646.57	38820.13
646.71	38637.56
646.86	38621.18
647.00	38911.41
647.15	39194.61
647.30	38780.34
647.44	38588.41
647.59	38501.81
647.74	38473.73
647.88	38293.50
648.03	38398.83
648.17	38061.79
648.32	37881.57
648.47	38370.74
648.61	37734.12
648.76	38211.59
648.90	37872.21
649.05	38120.31
649.20	38440.96
649.34	38543.94
649.49	38232.65
649.63	38316.91
649.78	38752.25
649.92	37834.76
650.07	38328.61
650.21	37778.59
650.36	37841.78
650.51	38087.54
650.65	38288.82
650.80	38408.19
650.94	37933.06
651.09	37839.44
651.23	37626.45
651.38	37839.44
651.52	37649.86
651.67	38099.24
651.81	38340.32
651.96	37699.01
652.10	37610.07
652.25	37109.19
652.39	37827.74
652.54	37298.78
652.68	37738.80
652.83	37724.75
652.97	37741.14
653.12	37399.42
653.26	37134.94
653.41	37801.99
653.55	37226.22
653.70	36945.36
653.84	37993.92
653.99	37804.33
654.13	37553.90
654.27	37116.22
654.42	37268.35
654.56	37483.68
654.71	37326.86
654.85	37432.19
655.00	37471.98
655.14	36879.82
655.29	36921.95
655.43	36591.94
655.57	36762.79
655.72	36879.82
655.86	36240.86
656.01	36896.20
656.15	36835.35
656.30	36505.34
656.44	36486.61
656.58	36788.54
656.73	36507.68
656.87	36701.94
657.01	36467.89
657.16	36531.08
657.30	36385.97
657.45	36481.93
657.59	36346.18
657.73	36147.23
657.88	36556.83
658.02	36240.86
658.16	36652.79
658.31	36713.64
658.45	36570.87
658.60	36608.32
658.74	36620.02
658.88	36472.57
659.03	36222.13
659.17	36133.19
659.31	35899.14
659.46	35929.56
659.60	35800.83
659.74	36233.83
659.89	35393.58
660.03	36053.61
660.17	36135.53
660.32	35945.95
660.46	36449.16
660.60	35838.28
660.74	36388.31
660.89	36039.57
661.03	35573.80
661.17	35398.26
661.32	35028.46
661.46	35517.63
661.60	35358.47
661.74	35260.17
661.89	35395.92
662.03	35393.58
662.17	34953.56
662.31	35103.35
662.46	35185.27
662.60	34965.26
662.74	35353.79
662.88	35058.88
663.03	35299.96
663.17	35159.53
663.31	34761.64
663.45	34930.16
663.60	34937.18
663.74	34375.45
663.88	34827.17
664.02	34522.90
664.17	34497.16
664.31	34483.11
664.45	34658.65
664.59	34836.53
664.73	34932.50
664.88	34754.61
665.02	34459.71
665.16	34368.43
665.30	34426.94
665.44	34213.95
665.59	33907.34
665.73	33958.83
665.87	33919.04
666.01	33802.02
666.15	33893.30
666.29	33804.36
666.44	33942.45
666.58	33830.10
666.72	33914.36
666.86	33951.81
667.00	33848.83
667.14	33472.00
667.28	33551.58
667.43	33661.58
667.57	33411.15
667.71	33825.42
667.85	33312.84
667.99	33324.55
668.13	33139.65
668.27	33125.60
668.41	33067.09
668.56	32882.19
668.70	32924.32
668.84	32933.68
668.98	33186.46
669.12	32769.84
669.26	33046.02
669.40	32989.85
669.54	32531.11
669.68	32650.47
669.82	32662.18
669.96	32954.74
670.10	32652.81
670.25	32896.23
670.39	32870.48
670.53	32622.39
670.67	32395.35
670.81	32521.74
670.95	32266.63
671.09	31899.16
671.23	32343.86
671.37	32620.05
671.51	32140.24
671.65	31821.92
671.79	31908.52
671.93	32116.83
672.07	31770.43
672.21	32142.58
672.35	31548.08
672.49	31606.59
672.63	31772.77
672.77	31133.81
672.91	31515.31
673.05	31503.61
673.19	31103.38
673.33	31285.94
673.47	31208.70
673.61	31009.76
673.75	30752.30
673.89	30773.36
674.03	30644.63
674.17	30740.60
674.31	30906.77
674.45	30705.49
674.59	30764.00
674.73	30778.04
674.87	30494.84
675.01	30820.17
675.15	30749.96
675.29	30639.95
675.43	30726.55
675.56	30096.95
675.70	30473.78
675.84	29582.03
675.98	29001.58
676.12	29790.34
676.26	30026.73
676.40	29898.00
676.54	29893.32
676.68	29385.43
676.82	29097.54
676.96	29404.15
677.10	29434.58
677.23	29715.44
677.37	29792.68
677.51	29144.35
677.65	29207.55
677.79	28671.56
677.93	28563.90
678.07	28650.50
678.21	28577.94
678.34	28631.77
678.48	28203.46
678.62	28346.23
678.76	28500.70
678.90	28290.06
679.04	28271.33
679.18	28304.10
679.31	27398.31
679.45	27770.46
679.59	27344.48
679.73	27477.89
679.87	27929.61
680.00	27384.27
680.14	27356.18
680.28	27426.40
680.42	27248.52
680.56	27112.77
680.70	27445.12
680.83	27105.74
680.97	26801.47
681.11	26988.72
681.25	26859.99
681.39	26410.60
681.52	26647.00
681.66	26789.77
681.80	26909.14
681.94	26464.44
682.07	26075.91
682.21	26412.95
682.35	26143.78
682.49	25825.47
682.62	26256.13
682.76	25750.57
682.90	25481.41
683.04	25942.50
683.17	25844.20
683.31	25544.61
683.45	25476.73
683.59	25645.25
683.72	24989.90
683.86	24858.83
684.00	24816.70
684.13	24940.75
684.27	24886.92
684.41	25113.95
684.55	24992.24
684.68	24538.18
684.82	24589.67
684.96	24545.20
685.09	24470.30
685.23	24535.84
685.37	24446.90
685.50	24154.33
685.64	24395.40
685.78	24100.50
685.91	24006.87
686.05	23934.32
686.19	23489.62
686.32	23821.97
686.46	23517.70
686.60	23388.97
686.73	23695.58
686.87	23608.98
687.01	23454.51
687.14	23314.08
687.28	23173.64
687.42	22925.55
687.55	22876.40
687.69	22635.32
687.82	22686.81
687.96	22988.74
688.10	22752.35
688.23	22391.91
688.37	22401.27
688.50	22026.78
688.64	22169.55
688.78	22218.71
688.91	21907.41
689.05	22324.03
689.18	22031.46
689.32	21528.25
689.46	21909.75
689.59	21717.83
689.73	21771.66
689.86	21642.93
690.00	21575.06
690.13	21483.78
690.27	21380.79
690.41	21284.83
690.54	20957.16
690.68	20863.54
690.81	20926.73
690.95	20847.15
691.08	20875.24
691.22	20659.91
691.35	20823.75
691.49	20802.68
691.62	20769.91
691.76	20823.75
691.89	20496.07
692.03	20198.82
692.16	20114.56
692.30	20278.40
692.43	20526.50
692.57	19587.94
692.70	20063.07
692.84	20063.07
692.97	19899.23
693.11	19812.63
693.24	19489.64
693.38	19683.91
693.51	19407.72
693.65	19241.54
693.78	19154.94
693.92	19185.37
694.05	19440.49
694.19	19044.94
694.32	19105.79
694.45	18752.37
694.59	18871.74
694.72	18581.51
694.86	18836.63
694.99	18597.90
695.13	18576.83
695.26	18501.93
695.39	18251.50
695.53	18300.65
695.66	18122.77
695.80	18139.15
695.93	17944.89
696.07	18080.64
696.20	18104.04
696.33	17874.67
696.47	17778.71
696.60	17834.88
696.73	17919.14
696.87	17626.57
697.00	17759.98
697.14	17755.30
697.27	17341.03
697.40	17514.23
697.54	17343.37
697.67	17048.46
697.80	17015.69
697.94	17139.74
698.07	17029.74
698.21	16851.86
698.34	17167.83
698.47	16966.54
698.61	16669.30
698.74	16652.91
698.87	16451.63
699.01	16212.89
699.14	16259.70
699.27	16250.34
699.40	16365.03
699.54	16100.55
699.67	16016.29
699.80	16072.46
699.94	15917.98
700.07	16002.24
700.20	15812.66
700.34	15484.98
700.47	15761.17
700.60	15707.34
700.73	15662.86
700.87	15662.86
701.00	15321.15
701.13	15639.46
701.26	15028.58
701.40	15316.47
701.53	14782.82
701.66	15276.68
701.79	15190.08
701.93	14897.51
702.06	14717.29
702.19	14916.23
702.32	14670.48
702.46	14890.49
702.59	14494.94
702.72	14745.38
702.85	14476.21
702.99	14656.43
703.12	14628.35
703.25	14408.34
703.38	14455.15
703.51	14307.69
703.65	14094.71
703.78	14164.92
703.91	14230.46
704.04	14153.22
704.17	13977.68
704.31	13951.93
704.44	13682.77
704.57	13448.72
704.70	13446.38
704.83	13268.50
704.96	13734.26
705.10	13645.32
705.23	13741.29
>>>>>End Processed Spectral Data<<<<<
