SpectraSuite Data File
++++++++++++++++++++++++++++++++++++
Date: Fri Oct 25 11:33:20 EDT 2013
User: price-jones
Dark Spectrum Present: No
Reference Spectrum Present: No
Number of Sampled Component Spectra: 1
Spectrometers: USB2+H05261
Integration Time (usec): 100000 (USB2+H05261)
Spectra Averaged: 1 (USB2+H05261)
Boxcar Smoothing: 0 (USB2+H05261)
Correct for Electrical Dark: No (USB2+H05261)
Strobe/Lamp Enabled: No (USB2+H05261)
Correct for Detector Non-linearity: No (USB2+H05261)
Correct for Stray Light: No (USB2+H05261)
Number of Pixels in Processed Spectrum: 2048
>>>>>Begin Processed Spectral Data<<<<<
365.73	320.65
365.92	320.65
366.12	320.65
366.32	180.22
366.52	315.97
366.72	196.60
366.91	198.95
367.11	180.22
367.31	156.82
367.51	177.88
367.70	276.18
367.90	159.16
368.10	159.16
368.30	159.16
368.49	191.92
368.69	191.92
368.89	107.66
369.09	170.86
369.28	138.09
369.48	187.24
369.68	234.05
369.87	266.82
370.07	287.89
370.27	276.18
370.47	290.23
370.66	456.40
370.86	540.66
371.06	503.22
371.25	599.18
371.45	517.26
371.65	538.32
371.84	465.77
372.04	599.18
372.24	543.00
372.44	575.77
372.63	613.22
372.83	594.50
373.03	636.63
373.22	545.34
373.42	695.14
373.62	608.54
373.81	681.10
374.01	573.43
374.21	617.90
374.40	645.99
374.60	669.39
374.79	699.82
374.99	655.35
375.19	685.78
375.38	592.16
375.58	664.71
375.78	767.70
375.97	725.57
376.17	702.16
376.37	662.37
376.56	617.90
376.76	706.84
376.95	695.14
377.15	667.05
377.35	702.16
377.54	741.95
377.74	674.07
377.93	624.92
378.13	650.67
378.33	671.73
378.52	702.16
378.72	755.99
378.91	748.97
379.11	676.41
379.31	716.20
379.50	655.35
379.70	699.82
379.89	732.59
380.09	688.12
380.28	674.07
380.48	751.31
380.68	739.61
380.87	730.25
381.07	767.70
381.26	779.40
381.46	730.25
381.65	777.06
381.85	739.61
382.04	821.53
382.24	741.95
382.43	774.72
382.63	781.74
382.83	807.48
383.02	854.30
383.22	840.25
383.41	819.19
383.61	844.93
383.80	828.55
384.00	793.44
384.19	814.51
384.39	802.80
384.58	861.32
384.78	922.17
384.97	823.87
385.17	816.85
385.36	793.44
385.56	880.04
385.75	828.55
385.95	861.32
386.14	847.27
386.34	880.04
386.53	912.81
386.72	854.30
386.92	905.79
387.11	957.28
387.31	947.92
387.50	873.02
387.70	971.32
387.89	894.08
388.09	912.81
388.28	814.51
388.48	875.36
388.67	875.36
388.86	870.68
389.06	891.74
389.25	983.02
389.45	997.07
389.64	1008.77
389.84	1011.11
390.03	1018.13
390.22	1081.33
390.42	926.85
390.61	868.34
390.81	1004.09
391.00	1025.15
391.19	1032.18
391.39	966.64
391.58	959.62
391.78	1078.99
391.97	1064.94
392.16	1064.94
392.36	985.37
392.55	1055.58
392.75	1050.90
392.94	990.05
393.13	1078.99
393.33	1027.50
393.52	1020.47
393.71	1107.07
393.91	1078.99
394.10	1046.22
394.29	1093.03
394.49	1036.86
394.68	1207.72
394.88	1116.44
395.07	1132.82
395.26	1163.25
395.46	1121.12
395.65	1214.74
395.84	1181.97
396.04	1231.12
396.23	1224.10
396.42	1146.86
396.62	1231.12
396.81	1224.10
397.00	1142.18
397.19	1203.04
397.39	1301.34
397.58	1254.53
397.77	1268.57
397.97	1219.42
398.16	1341.13
398.35	1240.48
398.55	1247.51
398.74	1394.96
398.93	1394.96
399.12	1266.23
399.32	1270.91
399.51	1387.94
399.70	1380.92
399.90	1331.76
400.09	1350.49
400.28	1420.71
400.47	1397.30
400.67	1390.28
400.86	1409.00
401.05	1420.71
401.24	1467.52
401.44	1430.07
401.63	1479.22
401.82	1401.98
402.01	1472.20
402.21	1516.67
402.40	1490.92
402.59	1455.81
402.78	1509.65
402.97	1488.58
403.17	1607.95
403.36	1605.61
403.55	1643.06
403.74	1537.73
403.93	1605.61
404.13	1540.07
404.32	1664.12
404.51	1631.35
404.70	1673.48
404.89	1668.80
405.09	1668.80
405.28	1631.35
405.47	1703.91
405.66	1713.27
405.85	1767.10
406.05	1767.10
406.24	1823.28
406.43	1746.04
406.62	1762.42
406.81	1769.44
407.00	1909.88
407.20	1809.23
407.39	1860.73
407.58	1895.83
407.77	1877.11
407.96	1963.71
408.15	1914.56
408.34	1954.35
408.54	1940.30
408.73	1980.09
408.92	1966.05
409.11	1905.20
409.30	1935.62
409.49	1994.14
409.68	2047.97
409.87	1987.11
410.07	2146.27
410.26	2069.03
410.45	2008.18
410.64	2162.66
410.83	2129.89
411.02	2256.28
411.21	2157.97
411.40	2190.74
411.59	2150.95
411.78	2165.00
411.98	2230.53
412.17	2349.90
412.36	2282.02
412.55	2314.79
412.74	2275.00
412.93	2361.60
413.12	2438.84
413.31	2424.80
413.50	2436.50
413.69	2413.09
413.88	2438.84
414.07	2532.46
414.26	2499.69
414.45	2473.95
414.64	2527.78
414.83	2780.56
415.02	2656.51
415.22	2747.79
415.41	2670.55
415.60	2656.51
415.79	2785.24
415.98	2813.32
416.17	2789.92
416.36	2698.64
416.55	2745.45
416.74	2839.07
416.93	2801.62
417.12	2864.82
417.31	2911.63
417.50	2958.44
417.69	2963.12
417.88	2869.50
418.07	2897.58
418.26	3016.95
418.45	3002.91
418.64	3101.21
418.83	3136.32
419.02	3101.21
419.21	3162.06
419.39	3171.43
419.58	3122.27
419.77	3042.70
419.96	3162.06
420.15	3171.43
420.34	3290.79
420.53	3169.09
420.72	3229.94
420.91	3440.59
421.10	3267.39
421.29	3274.41
421.48	3328.24
421.67	3368.03
421.86	3396.12
422.05	3286.11
422.24	3377.39
422.43	3316.54
422.61	3417.18
422.80	3414.84
422.99	3384.41
423.18	3421.86
423.37	3473.36
423.56	3424.20
423.75	3330.58
423.94	3337.60
424.13	3171.43
424.32	3281.43
424.50	3454.63
424.69	3520.17
424.88	3485.06
425.07	3419.52
425.26	3459.31
425.45	3346.97
425.64	3440.59
425.83	3438.25
426.01	3548.25
426.20	3431.23
426.39	3438.25
426.58	3426.54
426.77	3559.95
426.96	3562.30
427.15	3574.00
427.33	3592.72
427.52	3609.11
427.71	3623.15
427.90	3632.51
428.09	3737.84
428.28	3662.94
428.46	3726.13
428.65	3676.98
428.84	3775.28
429.03	3819.75
429.22	3735.50
429.40	3794.01
429.59	3702.73
429.78	3712.09
429.97	3705.07
430.16	3808.05
430.34	3786.99
430.53	3920.40
430.72	4042.11
430.91	3805.71
431.10	3801.03
431.28	4166.15
431.47	4049.13
431.66	4014.02
431.85	3983.59
432.03	3988.27
432.22	4128.70
432.41	4119.34
432.60	4077.21
432.79	4070.19
432.97	4124.02
433.16	4086.58
433.35	4098.28
433.54	4205.94
433.72	4264.46
433.91	4170.83
434.10	4329.99
434.28	4273.82
434.47	4386.16
434.66	4351.06
434.85	4393.19
435.03	4348.72
435.22	4348.72
435.41	4517.23
435.59	4430.63
435.78	4290.20
435.97	4606.17
436.16	4418.93
436.34	4402.55
436.53	4369.78
436.72	4528.94
436.90	4308.93
437.09	4671.71
437.28	4479.79
437.46	4585.11
437.65	4683.41
437.84	4830.87
438.02	4582.77
438.21	4765.33
438.40	4554.68
438.58	4903.42
438.77	4793.42
438.96	4828.53
439.14	5050.88
439.33	4884.70
439.52	4943.21
439.70	4830.87
439.89	4922.15
440.08	5001.72
440.26	5167.90
440.45	4933.85
440.63	5022.79
440.82	5338.76
441.01	5231.10
441.19	5207.69
441.38	5298.97
441.57	5261.52
441.75	5317.70
441.94	5554.09
442.12	5313.02
442.31	5488.56
442.50	5612.60
442.68	5621.97
442.87	5420.68
443.05	5593.88
443.24	5600.90
443.43	5591.54
443.61	5593.88
443.80	5755.38
443.98	5483.88
444.17	5460.47
444.35	5657.07
444.54	5788.14
444.73	5703.89
444.91	5593.88
445.10	5750.70
445.28	5806.87
445.47	5650.05
445.65	5666.44
445.84	5645.37
446.02	5797.51
446.21	5614.95
446.39	5731.97
446.58	5799.85
446.77	5921.56
446.95	5731.97
447.14	5692.18
447.32	5699.20
447.51	5860.70
447.69	5930.92
447.88	5839.64
448.06	5804.53
448.25	5813.89
448.43	5785.80
448.62	5827.93
448.80	5856.02
448.99	6057.31
449.17	5900.49
449.36	5895.81
449.54	6111.14
449.73	6113.48
449.91	6186.04
450.10	6134.54
450.28	6293.70
450.46	6097.10
450.65	6293.70
450.83	6394.34
451.02	6197.74
451.20	6303.06
451.39	6246.89
451.57	6200.08
451.76	6214.12
451.94	6377.96
452.13	6335.83
452.31	6232.85
452.49	6223.48
452.68	6305.40
452.86	6179.01
453.05	6410.73
453.23	6595.63
453.42	6537.12
453.60	6420.09
453.78	6473.92
453.97	6363.92
454.15	6406.05
454.34	6590.95
454.52	6597.97
454.70	6651.80
454.89	6698.61
455.07	6715.00
455.26	6565.20
455.44	6722.02
455.62	6696.27
455.81	6768.83
455.99	6782.87
456.17	6878.83
456.36	6839.05
456.54	6848.41
456.73	6911.60
456.91	6913.94
457.09	7049.69
457.28	7276.73
457.46	6970.12
457.64	7159.70
457.83	7190.13
458.01	7115.23
458.19	7042.67
458.38	7119.91
458.56	7351.62
458.74	7276.73
458.93	7087.14
459.11	7426.52
459.29	7344.60
459.48	7482.69
459.66	7311.83
459.84	7447.58
460.03	7719.09
460.21	7433.54
460.39	7452.27
460.57	7440.56
460.76	7709.72
460.94	7440.56
461.12	7576.31
461.31	7688.66
461.49	7557.59
461.67	7489.71
461.85	7817.39
462.04	7616.10
462.22	7920.37
462.40	7988.25
462.59	7915.69
462.77	7726.11
462.95	7894.63
463.13	7948.46
463.32	7840.79
463.50	7934.42
463.68	8255.07
463.86	8053.78
464.05	7782.28
464.23	7978.89
464.41	7955.48
464.59	7796.32
464.78	8116.98
464.96	7990.59
465.14	8011.65
465.32	8067.83
465.50	8135.70
465.69	8081.87
465.87	8259.75
466.05	8175.49
466.23	8355.71
466.41	8334.65
466.60	8479.76
466.78	8032.72
466.96	8456.36
467.14	8238.69
467.32	8346.35
467.51	8355.71
467.69	8238.69
467.87	8472.74
468.05	8446.99
468.23	8114.64
468.41	8507.85
468.60	8503.17
468.78	8596.79
468.96	8503.17
469.14	8561.68
469.32	8587.43
469.50	8608.49
469.69	8807.44
469.87	8889.35
470.05	8868.29
470.23	8863.61
470.41	8798.07
470.59	8727.86
470.77	8945.53
470.95	8929.14
471.14	9022.77
471.32	8968.93
471.50	8990.00
471.68	9256.82
471.86	9184.26
472.04	9397.25
472.22	9364.48
472.40	9083.62
472.58	9345.76
472.77	9579.81
472.95	9603.22
473.13	9776.42
473.31	9177.24
473.49	9610.24
473.67	9479.17
473.85	9638.33
474.03	9769.40
474.21	9937.91
474.39	10157.92
474.57	9949.62
474.75	9923.87
474.93	10132.18
475.12	10012.81
475.30	10061.96
475.48	10160.27
475.66	10462.19
475.84	10099.41
476.02	10338.15
476.20	10420.06
476.38	10452.83
476.56	10567.52
476.74	10644.76
476.92	10487.94
477.10	10492.62
477.28	10757.10
477.46	10689.23
477.64	10766.46
477.82	11192.44
478.00	11295.43
478.18	10920.94
478.36	11250.96
478.54	11440.54
478.72	11365.64
478.90	11613.74
479.08	11571.61
479.26	11831.41
479.44	11875.88
479.62	11903.96
479.80	12046.74
479.98	12030.35
480.16	12224.62
480.34	12346.33
480.52	12355.69
480.70	12353.35
480.88	12243.34
481.06	12559.31
481.24	12596.76
481.41	12683.36
481.59	12833.16
481.77	12814.43
481.95	13011.04
482.13	13195.94
482.31	13083.59
482.49	13516.59
482.67	13575.11
482.85	13752.99
483.03	13825.54
483.21	13940.23
483.39	13900.44
483.57	13752.99
483.74	13994.06
483.92	13996.40
484.10	13987.04
484.28	14218.75
484.46	14810.91
484.64	14824.95
484.82	14508.98
485.00	14827.29
485.18	15161.99
485.35	15091.77
485.53	15063.69
485.71	15356.25
485.89	15463.92
486.07	15449.88
486.25	15707.34
486.43	15927.35
486.61	15796.28
486.78	16376.73
486.96	15929.69
487.14	16500.78
487.32	16362.69
487.50	16505.46
487.68	16407.16
487.85	16582.70
488.03	17109.32
488.21	17214.64
488.39	16926.75
488.57	17406.56
488.75	17439.33
488.92	17949.57
489.10	17638.28
489.28	17755.30
489.46	18047.87
489.64	17774.03
489.81	18305.33
489.99	18445.76
490.17	18530.02
490.35	18834.29
490.53	18675.13
490.70	18649.39
490.88	18778.12
491.06	19087.07
491.24	19035.58
491.41	19431.13
491.59	19232.18
491.77	19335.17
491.95	19690.93
492.13	19683.91
492.30	19903.92
492.48	19899.23
492.66	20006.90
492.84	20006.90
493.01	20376.70
493.19	20533.52
493.37	20657.57
493.54	20950.14
493.72	21111.63
493.90	20870.56
494.08	20814.38
494.25	21099.93
494.43	21078.86
494.61	21528.25
494.79	21570.38
494.96	21146.74
495.14	21715.49
495.32	21755.28
495.49	22178.92
495.67	22008.06
495.85	22263.18
496.02	22480.85
496.20	22520.63
496.38	22597.87
496.55	22548.72
496.73	23089.38
496.91	22750.01
497.09	23035.55
497.26	23335.14
497.44	23276.63
497.62	23704.95
497.79	23590.26
497.97	23625.37
498.14	23627.71
498.32	24070.07
498.50	24107.52
498.67	24489.03
498.85	23929.64
499.03	24491.37
499.20	24180.07
499.38	24425.83
499.56	24863.51
499.73	24671.59
499.91	24922.02
500.08	25097.56
500.26	24947.77
500.44	25010.96
500.61	24964.15
500.79	25017.99
500.97	24968.84
501.14	25343.32
501.32	25851.22
501.49	25790.36
501.67	25586.74
501.84	26108.68
502.02	25472.05
502.20	25710.78
502.37	26073.57
502.55	25993.99
502.72	26443.37
502.90	26134.42
503.07	25891.01
503.25	26649.34
503.43	26499.55
503.60	26574.44
503.78	26419.97
503.95	26679.77
504.13	26965.31
504.30	26813.18
504.48	27201.71
504.65	27164.26
504.83	27225.11
505.01	27213.41
505.18	27379.59
505.36	27714.28
505.53	27421.72
505.71	27557.47
505.88	28046.64
506.06	27711.94
506.23	27864.08
506.41	27721.30
506.58	28299.42
506.76	28364.95
506.93	28276.01
507.11	28552.20
507.28	28374.31
507.46	28379.00
507.63	28510.07
507.81	29010.94
507.98	28472.62
508.16	29057.75
508.33	28765.18
508.50	29127.97
508.68	29247.33
508.85	29193.50
509.03	29062.43
509.20	29509.47
509.38	29713.10
509.55	29645.23
509.73	29631.18
509.90	29811.40
510.08	30295.89
510.25	29785.66
510.42	29865.24
510.60	30059.50
510.77	30370.79
510.95	30389.52
511.12	30305.26
511.30	30532.29
511.47	30506.54
511.64	30384.83
511.82	30646.97
511.99	30529.95
512.17	30480.80
512.34	30419.94
512.51	31082.31
512.69	31110.40
512.86	31154.87
513.04	31473.18
513.21	31091.68
513.38	31349.14
513.56	31424.03
513.73	31026.14
513.90	31349.14
514.08	31702.56
514.25	31868.73
514.43	31611.28
514.60	31838.31
514.77	32189.39
514.95	31915.54
515.12	31955.33
515.29	32086.40
515.47	32641.11
515.64	32545.15
515.81	32016.19
515.99	32648.13
516.16	32769.84
516.33	32573.24
516.51	32769.84
516.68	32603.66
516.85	32877.51
517.03	32936.02
517.20	33167.73
517.37	33062.41
517.54	33214.54
517.72	33371.36
517.89	33181.77
518.06	33350.29
518.24	33387.74
518.41	33198.16
518.58	33567.96
518.75	33422.85
518.93	33816.06
519.10	33797.34
519.27	33923.72
519.45	33614.77
519.62	34258.42
519.79	33759.89
519.96	33825.42
520.14	34436.30
520.31	33743.50
520.48	34288.85
520.65	34377.79
520.83	34621.20
521.00	34864.62
521.17	34398.85
521.34	35012.07
521.52	35243.79
521.69	34618.86
521.86	34955.90
522.03	35159.53
522.20	35124.42
522.38	35426.35
522.55	35730.62
522.72	35763.39
522.89	35569.12
523.07	35477.84
523.24	35487.20
523.41	35580.82
523.58	35541.03
523.75	35817.22
523.92	35775.09
524.10	35777.43
524.27	36165.96
524.44	36252.56
524.61	36285.33
524.78	36400.01
524.96	36369.58
525.13	36275.96
525.30	36842.37
525.47	36802.58
525.64	35948.29
525.81	36727.69
525.98	37104.51
526.16	36641.09
526.33	36477.25
526.50	37247.29
526.67	36615.34
526.84	36837.69
527.01	36847.05
527.18	37198.13
527.36	37422.83
527.53	37043.66
527.70	37413.46
527.87	37120.90
528.04	37268.35
528.21	37242.60
528.38	37521.13
528.55	37399.42
528.72	37589.00
528.89	37771.57
529.07	37247.29
529.24	37460.27
529.41	37984.55
529.58	37858.17
529.75	37640.50
529.92	38036.05
530.09	38089.88
530.26	38162.43
530.43	37998.60
530.60	37668.58
530.77	38003.28
530.94	38153.07
531.11	37869.87
531.28	38337.98
531.46	38064.13
531.63	38440.96
531.80	38766.29
531.97	38787.36
532.14	38880.98
532.31	38787.36
532.48	38787.36
532.65	39636.97
532.82	38960.56
532.99	39220.36
533.16	38497.13
533.33	39269.51
533.50	39063.54
533.67	39098.65
533.84	38848.21
534.01	39580.80
534.18	39545.69
534.35	40076.99
534.52	39763.36
534.69	40027.84
534.86	39714.21
535.03	39653.36
535.20	39711.87
535.37	39590.16
535.54	39845.28
535.71	40353.18
535.88	40208.06
536.05	40034.86
536.22	40460.84
536.38	39920.18
536.55	40275.94
536.72	40381.26
536.89	40198.70
537.06	40002.10
537.23	40168.27
537.40	40149.55
537.57	40144.87
537.74	40411.69
537.91	40751.07
538.08	40423.39
538.25	40495.95
538.42	40563.82
538.59	40800.22
538.75	40725.32
538.92	41181.73
539.09	40722.98
539.26	40580.21
539.43	40521.69
539.60	41120.87
539.77	40971.08
539.94	41544.51
540.11	41067.04
540.28	41549.19
540.44	40790.86
540.61	41256.62
540.78	41069.38
540.95	41315.14
541.12	41127.89
541.29	41308.11
541.46	41373.65
541.62	41394.71
541.79	41282.37
541.96	40987.46
542.13	41486.00
542.30	41689.62
542.47	42071.13
542.63	41523.44
542.80	42019.64
542.97	42251.35
543.14	42176.45
543.31	42206.88
543.48	42162.41
543.64	42749.88
543.81	42363.70
543.98	41935.38
544.15	42003.25
544.32	42300.50
544.48	42682.01
544.65	42902.02
544.82	42815.42
544.99	42487.74
545.16	42553.28
545.32	42319.23
545.49	42955.85
545.66	43136.07
545.83	43131.39
546.00	43112.67
546.16	42630.52
546.33	43007.34
546.50	42401.14
546.67	43433.32
546.83	42583.71
547.00	42780.31
547.17	42948.83
547.34	42836.48
547.50	43604.18
547.67	43445.02
547.84	43576.09
548.00	43524.60
548.17	44161.23
548.34	43833.55
548.51	43922.49
548.67	43915.47
548.84	43580.78
549.01	43538.65
549.18	43690.78
549.34	43735.25
549.51	44039.52
549.68	44432.73
549.84	43711.84
550.01	44343.79
550.18	43700.14
550.34	43840.57
550.51	44179.95
550.68	44123.78
550.84	44041.86
551.01	44257.19
551.18	43922.49
551.34	44074.63
551.51	44463.16
551.68	44425.71
551.84	44257.19
552.01	43976.33
552.18	44332.09
552.34	44002.07
552.51	44289.96
552.68	44547.42
552.84	44704.23
553.01	44376.56
553.18	44292.30
553.34	44788.49
553.51	44210.38
553.67	44507.63
553.84	45095.10
554.01	44795.51
554.17	44795.51
554.34	45228.51
554.51	44823.60
554.67	45345.54
554.84	45191.06
555.00	44739.34
555.17	44678.49
555.33	44758.06
555.50	44999.14
555.67	44802.53
555.83	45186.38
556.00	45401.71
556.16	45020.20
556.33	44856.37
556.50	45102.12
556.66	45640.45
556.83	45268.30
556.99	45659.17
557.16	45734.07
557.32	45455.54
557.49	45485.97
557.65	45549.17
557.82	45471.93
557.98	45546.82
558.15	45661.51
558.32	45780.88
558.48	45427.46
558.65	45453.20
558.81	45579.59
558.98	45595.98
559.14	45794.92
559.31	45275.32
559.47	45872.16
559.64	45736.41
559.80	45865.14
559.97	45879.18
560.13	45785.56
560.30	45832.37
560.46	46178.77
560.63	46141.32
560.79	46000.89
560.96	46281.75
561.12	46279.41
561.29	45888.54
561.45	46344.95
561.61	46094.51
561.78	46192.81
561.94	46209.20
562.11	46115.58
562.27	46115.58
562.44	46347.29
562.60	46040.68
562.77	46464.32
562.93	46405.80
563.10	46429.21
563.26	46178.77
563.42	46782.63
563.59	46176.43
563.75	46050.04
563.92	45991.53
564.08	46251.33
564.24	46363.67
564.41	46323.88
564.57	46548.57
564.74	46480.70
564.90	46756.88
565.07	46553.26
565.23	46330.90
565.39	46291.12
565.56	47157.11
565.72	46536.87
565.88	46843.48
566.05	46618.79
566.21	46457.29
566.38	46443.25
566.54	46930.08
566.70	46635.17
566.87	46714.75
567.03	46714.75
567.19	46838.80
567.36	46581.34
567.52	46979.23
567.68	47072.85
567.85	46799.01
568.01	46700.71
568.17	47054.13
568.34	47000.30
568.50	46768.58
568.66	46663.26
568.83	46810.71
568.99	46937.10
569.15	47007.32
569.32	46909.02
569.48	46534.53
569.64	47309.25
569.81	46934.76
569.97	47400.53
570.13	47283.50
570.30	46997.96
570.46	47241.37
570.62	46887.95
570.78	47517.56
570.95	47122.01
571.11	47330.31
571.27	46887.95
571.43	46873.91
571.60	46986.25
571.76	46426.87
571.92	47007.32
572.09	47140.73
572.25	46714.75
572.41	47093.92
572.57	47292.86
572.74	47585.43
572.90	47126.69
573.06	47323.29
573.22	47606.50
573.38	47283.50
573.55	47327.97
573.71	47522.24
573.87	47295.21
574.03	47395.85
574.20	47477.77
574.36	47370.10
574.52	47311.59
574.68	47386.49
574.84	47667.35
575.01	47555.00
575.17	47737.57
575.33	47522.24
575.49	47627.56
575.65	46983.91
575.82	47407.55
575.98	47421.59
576.14	47423.93
576.30	47786.72
576.46	47550.32
576.62	47629.90
576.79	47484.79
576.95	46880.93
577.11	47285.84
577.27	47522.24
577.43	47475.43
577.59	47463.72
577.75	47531.60
577.92	47049.45
578.08	47370.10
578.24	47674.37
578.40	47501.17
578.56	47313.93
578.72	47566.71
578.88	47716.50
579.04	47601.82
579.21	47770.33
579.37	47606.50
579.53	47489.47
579.69	47508.19
579.85	47512.88
580.01	47599.47
580.17	47580.75
580.33	47880.34
580.49	47782.04
580.65	47721.18
580.82	47395.85
580.98	47002.64
581.14	47239.03
581.30	47767.99
581.46	47508.19
581.62	47569.05
581.78	47159.45
581.94	47566.71
582.10	47526.92
582.26	47962.26
582.42	47873.32
582.58	47929.49
582.74	47655.65
582.90	47868.64
583.06	47515.22
583.22	47531.60
583.38	47824.17
583.54	47683.73
583.70	47803.10
583.86	47697.78
584.02	47702.46
584.18	48240.78
584.34	47615.86
584.50	48051.20
584.66	48144.82
584.82	48027.79
584.98	48140.14
585.14	47955.24
585.30	47756.29
585.46	47756.29
585.62	47786.72
585.78	47782.04
585.94	47716.50
586.10	47995.03
586.26	47288.18
586.42	47505.85
586.58	48034.81
586.74	47782.04
586.90	47381.80
587.06	47983.32
587.22	47842.89
587.38	47299.89
587.54	47779.70
587.70	48275.89
587.86	47847.57
588.02	47980.98
588.18	47435.64
588.34	47828.85
588.49	47931.83
588.65	47700.12
588.81	47620.54
588.97	47934.17
589.13	47735.23
589.29	47746.93
589.45	48528.67
589.61	48100.35
589.77	47969.28
589.93	47634.58
590.08	48236.10
590.24	48390.58
590.40	48662.08
590.56	48308.66
590.72	48519.31
590.88	48088.65
591.04	48294.61
591.20	48245.46
591.35	48362.49
591.51	48662.08
591.67	48484.20
591.83	48289.93
591.99	48032.47
592.15	48142.48
592.31	48193.97
592.46	47913.11
592.62	48020.77
592.78	48027.79
592.94	48985.07
593.10	48322.70
593.26	48570.80
593.41	48301.64
593.57	48549.73
593.73	48526.33
593.89	48903.15
594.05	48772.08
594.20	48683.14
594.36	48633.99
594.52	48832.94
594.68	48498.24
594.84	48189.29
594.99	48736.98
595.15	48189.29
595.31	48727.61
595.47	48086.31
595.62	48423.34
595.78	48357.81
595.94	48680.80
596.10	48439.73
596.25	48296.95
596.41	48570.80
596.57	48664.42
596.73	48622.29
596.88	48884.43
597.04	48535.69
597.20	48802.51
597.36	48629.31
597.51	48191.63
597.67	48669.10
597.83	48523.99
597.99	48692.50
598.14	48318.02
598.30	48858.68
598.46	48357.81
598.61	48830.60
598.77	48336.74
598.93	48362.49
599.09	48376.53
599.24	48732.29
599.40	48741.66
599.56	48788.47
599.71	48722.93
599.87	49219.13
600.03	48601.22
600.18	48713.57
600.34	48629.31
600.50	48776.76
600.65	48767.40
600.81	49069.33
600.97	49258.91
601.12	48875.07
601.28	48804.85
601.44	48755.70
601.59	48989.75
601.75	48772.08
601.91	48875.07
602.06	48767.40
602.22	48875.07
602.37	48964.01
602.53	48868.05
602.69	48662.08
602.84	48762.72
603.00	49155.93
603.16	48491.22
603.31	48952.30
603.47	48711.23
603.62	48699.53
603.78	49200.40
603.94	48818.89
604.09	49181.68
604.25	49123.16
604.40	48671.44
604.56	49158.27
604.71	48994.43
604.87	48933.58
605.03	48547.39
605.18	48832.94
605.34	48992.09
605.49	48526.33
605.65	49010.82
605.80	48549.73
605.96	48451.43
606.12	48662.08
606.27	48905.49
606.43	48329.72
606.58	48751.02
606.74	48610.59
606.89	48240.78
607.05	48301.64
607.20	48650.38
607.36	48584.84
607.51	48872.73
607.67	48229.08
607.82	48032.47
607.98	48376.53
608.13	48437.39
608.29	48353.13
608.44	48542.71
608.60	48573.14
608.75	48446.75
608.91	48421.00
609.06	48357.81
609.22	48760.38
609.37	48243.12
609.53	48650.38
609.68	49062.31
609.84	48397.60
609.99	48825.92
610.15	48570.80
610.30	48456.11
610.46	48519.31
610.61	48336.74
610.76	48671.44
610.92	48154.18
611.07	47973.96
611.23	48353.13
611.38	48542.71
611.54	48538.03
611.69	48285.25
611.84	48493.56
612.00	48236.10
612.15	47679.05
612.31	48034.81
612.46	47849.91
612.62	48083.97
612.77	48439.73
612.92	48460.79
613.08	48032.47
613.23	48037.16
613.39	48086.31
613.54	48102.69
613.69	48264.19
613.85	48123.75
614.00	47842.89
614.15	48348.45
614.31	47988.00
614.46	47880.34
614.62	47590.11
614.77	47814.80
614.92	47831.19
615.08	48147.16
615.23	48023.11
615.38	48362.49
615.54	47934.17
615.69	47866.30
615.84	47957.58
616.00	48193.97
616.15	48051.20
616.30	48072.26
616.46	47880.34
616.61	47817.14
616.76	47744.59
616.92	47524.58
617.07	47782.04
617.22	47676.71
617.37	47508.19
617.53	47477.77
617.68	47983.32
617.83	48151.84
617.99	48048.86
618.14	48116.73
618.29	47854.59
618.45	47374.78
618.60	47379.46
618.75	47267.12
618.90	47480.11
619.06	47608.84
619.21	47552.66
619.36	48069.92
619.51	47290.52
619.67	47379.46
619.82	47510.53
619.97	47653.31
620.12	47262.44
620.28	46927.74
620.43	47257.76
620.58	47777.36
620.73	47590.11
620.89	47346.70
621.04	47480.11
621.19	47894.38
621.34	47199.24
621.49	47227.33
621.65	47505.85
621.80	47517.56
621.95	47196.90
622.10	47131.37
622.25	47461.38
622.41	47229.67
622.56	47178.18
622.71	47239.03
622.86	46955.83
623.01	47143.07
623.16	46850.50
623.32	46909.02
623.47	47082.22
623.62	46576.66
623.77	47119.66
623.92	47028.38
624.07	46941.78
624.23	47232.01
624.38	47021.36
624.53	47241.37
624.68	46333.24
624.83	46424.53
624.98	46637.51
625.13	46564.96
625.29	46543.89
625.44	46974.55
625.59	46740.50
625.74	46454.95
625.89	46164.73
626.04	46625.81
626.19	46721.77
626.34	46230.26
626.49	46101.53
626.65	45755.13
626.80	46391.76
626.95	46419.84
627.10	46314.52
627.25	46394.10
627.40	46351.97
627.55	46913.70
627.70	46260.69
627.85	46684.33
628.00	46279.41
628.15	46557.94
628.30	45872.16
628.45	46204.52
628.60	45617.04
628.76	46064.08
628.91	45930.67
629.06	45977.48
629.21	45752.79
629.36	46003.23
629.51	45755.13
629.66	46522.83
629.81	45867.48
629.96	46256.01
630.11	45797.26
630.26	45478.95
630.41	46066.42
630.56	45631.08
630.71	46047.70
630.86	46284.09
631.01	45581.93
631.16	45483.63
631.31	45797.26
631.46	45584.27
631.61	46258.35
631.76	46103.87
631.91	45918.97
632.06	45673.21
632.21	45595.98
632.36	46160.05
632.51	45249.58
632.66	45628.74
632.81	45523.42
632.96	45375.97
633.10	45752.79
633.25	45111.49
633.40	45481.29
633.55	46092.17
633.70	45308.09
633.85	45483.63
634.00	45043.61
634.15	45315.11
634.30	45202.77
634.45	45043.61
634.60	45443.84
634.75	45806.62
634.90	45240.21
635.05	45198.09
635.19	45399.37
635.34	45329.16
635.49	45043.61
635.64	45294.05
635.79	45287.03
635.94	45181.70
636.09	45390.01
636.24	45141.91
636.39	45048.29
636.53	45113.83
636.68	44570.82
636.83	44835.30
636.98	44737.00
637.13	44353.15
637.28	44435.07
637.43	44708.91
637.57	44889.13
637.72	44409.32
637.87	44327.41
638.02	44772.11
638.17	44498.26
638.32	44626.99
638.46	43856.96
638.61	44114.42
638.76	44879.77
638.91	44797.85
639.06	43950.58
639.20	44011.43
639.35	43873.34
639.50	43901.43
639.65	44250.17
639.80	44488.90
639.94	45207.45
640.09	44638.70
640.24	44011.43
640.39	43936.54
640.54	43999.73
640.68	44098.03
640.83	44376.56
640.98	43889.73
641.13	44236.12
641.27	44439.75
641.42	44397.62
641.57	43934.20
641.72	43835.89
641.86	43461.41
642.01	43697.80
642.16	43625.25
642.31	43313.95
642.45	44404.64
642.60	43672.06
642.75	44051.22
642.90	44219.74
643.04	44109.74
643.19	43625.25
643.34	43697.80
643.48	43545.67
643.63	43426.30
643.78	43859.30
643.93	43915.47
644.07	43840.57
644.22	43786.74
644.37	43505.88
644.51	43669.72
644.66	43679.08
644.81	43707.16
644.95	43597.16
645.10	43461.41
645.25	43512.90
645.39	42859.89
645.54	43164.16
645.69	42763.93
645.83	42988.62
645.98	43423.96
646.13	43122.03
646.27	43082.24
646.42	42962.87
646.57	42986.28
646.71	43215.65
646.86	43700.14
647.00	43213.31
647.15	43133.73
647.30	43335.02
647.44	43082.24
647.59	42995.64
647.74	43150.12
647.88	43498.86
648.03	43255.44
648.17	43079.90
648.32	43206.29
648.47	43519.92
648.61	42738.18
648.76	42384.76
648.90	42836.48
649.05	42719.46
649.20	42572.00
649.34	42677.33
649.49	42602.43
649.63	43026.07
649.78	43143.09
649.92	42731.16
650.07	43096.28
650.21	42768.61
650.36	43517.58
650.51	42370.72
650.65	43040.11
650.80	43344.38
650.94	42593.07
651.09	42464.34
651.23	42066.45
651.38	42192.84
651.52	42408.17
651.67	42625.84
651.81	42136.66
651.96	42375.40
652.10	41794.95
652.25	42337.95
652.39	42192.84
652.54	42344.97
652.68	41790.27
652.83	42590.73
652.97	42557.96
653.12	42260.71
653.26	42052.41
653.41	42157.73
653.55	41869.84
653.70	42014.96
653.84	42368.38
653.99	42628.18
654.13	42206.88
654.27	41930.70
654.42	41677.92
654.56	41703.67
654.71	42295.82
654.85	42424.55
655.00	42279.44
655.14	42319.23
655.29	42319.23
655.43	42089.85
655.57	41911.97
655.72	41280.03
655.86	41677.92
656.01	41823.03
656.15	41170.02
656.30	41546.85
656.44	41490.68
656.58	41415.78
656.73	41478.97
656.87	41521.10
657.01	41581.96
657.16	41570.25
657.30	41542.17
657.45	41111.51
657.59	41151.30
657.73	41003.85
657.88	41614.72
658.02	41680.26
658.16	41291.73
658.31	41251.94
658.45	41277.69
658.60	41106.83
658.74	41256.62
658.88	41083.42
659.03	41294.07
659.17	40940.65
659.31	40165.93
659.46	41127.89
659.60	41301.09
659.74	40645.74
659.89	40254.87
660.03	40587.23
660.17	41102.15
660.32	40739.36
660.46	40299.34
660.60	40004.44
660.74	39957.63
660.89	40512.33
661.03	39805.49
661.17	40191.68
661.32	40165.93
661.46	40184.66
661.60	40304.02
661.74	40217.43
661.89	39938.90
662.03	40172.96
662.17	39913.16
662.31	39798.47
662.46	40002.10
662.60	40107.42
662.74	39639.31
662.88	39871.03
663.03	39236.74
663.17	39196.95
663.31	39264.83
663.45	39452.07
663.60	39606.55
663.74	39805.49
663.88	39323.34
664.02	39168.87
664.17	39812.51
664.31	39386.54
664.45	38899.70
664.59	39634.63
664.73	39178.23
664.88	39194.61
665.02	38583.73
665.16	38969.92
665.30	39145.46
665.44	38880.98
665.59	38646.93
665.73	38958.22
665.87	38363.72
666.01	38653.95
666.15	38291.16
666.29	38298.19
666.44	38429.26
666.58	38740.55
666.72	37888.59
666.86	37825.40
667.00	38277.12
667.14	38106.26
667.28	37970.51
667.43	37612.41
667.57	38178.82
667.71	38019.66
667.85	37869.87
667.99	37944.76
668.13	37757.52
668.27	37504.74
668.41	37823.06
668.56	37432.19
668.70	37106.85
668.84	37118.56
668.98	37453.25
669.12	37270.69
669.26	37165.37
669.40	37361.97
669.54	37319.84
669.68	37118.56
669.82	37153.66
669.96	36435.12
670.10	36587.25
670.25	36304.05
670.39	36587.25
670.53	36947.70
670.67	36187.02
670.81	36601.30
670.95	36322.77
671.09	36290.01
671.23	36077.02
671.37	35983.40
671.51	35950.63
671.65	36058.29
671.79	36524.06
671.93	36297.03
672.07	36039.57
672.21	36144.89
672.35	35725.94
672.49	35849.99
672.63	36109.78
672.77	35278.89
672.91	35548.06
673.05	35372.52
673.19	35452.09
673.33	34976.97
673.47	35157.19
673.61	34862.28
673.75	34756.96
673.89	34700.78
674.03	34637.59
674.17	34483.11
674.31	34600.14
674.45	34047.77
674.59	34373.11
674.73	34333.32
674.87	34181.18
675.01	33743.50
675.15	33858.19
675.29	33984.58
675.43	33930.75
675.56	34253.74
675.70	33684.99
675.84	33390.08
675.98	32280.67
676.12	33764.57
676.26	33596.05
676.40	33282.42
676.54	33390.08
676.68	32912.61
676.82	32835.38
676.96	33090.49
677.10	33120.92
677.23	33036.66
677.37	33067.09
677.51	32231.52
677.65	32430.46
677.79	32283.01
677.93	32568.55
678.07	32400.04
678.21	32077.04
678.34	31964.70
678.48	32184.71
678.62	31864.05
678.76	31917.89
678.90	31653.40
679.04	31749.37
679.18	31824.26
679.31	31459.14
679.45	31318.71
679.59	30693.79
679.73	31150.19
679.87	30766.34
680.00	31105.72
680.14	30745.28
680.28	30759.32
680.42	30845.92
680.56	30808.47
680.70	30113.33
680.83	29947.15
680.97	30115.67
681.11	29993.97
681.25	30108.65
681.39	29823.11
681.52	29741.19
681.66	29582.03
681.80	29252.02
681.94	29399.47
682.07	29116.26
682.21	29118.60
682.35	29230.95
682.49	28720.71
682.62	28936.04
682.76	28748.80
682.90	28819.02
683.04	28655.18
683.17	28231.54
683.31	28486.66
683.45	28379.00
683.59	28163.67
683.72	28261.97
683.86	27927.27
684.00	28114.52
684.13	27758.75
684.27	27580.87
684.41	27592.58
684.55	27491.93
684.68	27564.49
684.82	27307.03
684.96	26967.65
685.09	27276.60
685.23	27323.41
685.37	27442.78
685.50	27234.47
685.64	27213.41
685.78	27033.19
685.91	26565.08
686.05	26501.89
686.19	25893.35
686.32	26150.81
686.46	25867.60
686.60	26040.80
686.73	25949.52
686.87	25790.36
687.01	25942.50
687.14	26326.35
687.28	25923.77
687.42	25472.05
687.55	25521.20
687.69	25589.08
687.82	25125.65
687.96	25259.06
688.10	25226.29
688.23	25032.03
688.37	24910.32
688.50	25483.75
688.64	24966.49
688.78	24788.61
688.91	24636.48
689.05	24613.07
689.18	24037.30
689.32	24046.66
689.46	24105.18
689.59	24114.54
689.73	24348.59
689.86	24217.52
690.00	24280.72
690.13	24098.16
690.27	23665.16
690.41	23791.55
690.54	22986.40
690.68	23674.52
690.81	23126.83
690.95	23166.62
691.08	23197.05
691.22	22745.33
691.35	22939.59
691.49	23278.97
691.62	22829.59
691.76	22537.02
691.89	22583.83
692.03	22146.15
692.16	22066.57
692.30	22373.18
692.43	22139.13
692.57	21947.20
692.70	21579.74
692.84	21872.31
692.97	21521.23
693.11	21745.92
693.24	21223.98
693.38	21376.11
693.51	21383.13
693.65	21109.29
693.78	21291.85
693.92	21088.23
694.05	21088.23
694.19	20957.16
694.32	20889.28
694.45	21032.05
694.59	21104.61
694.72	20884.60
694.86	20676.29
694.99	20402.45
695.13	20212.87
695.26	20168.40
695.39	20018.60
695.53	19953.07
695.66	19838.38
695.80	19711.99
695.93	19623.05
696.07	20065.41
696.20	19440.49
696.33	19482.62
696.47	19115.16
696.60	19321.12
696.73	19566.88
696.87	19147.92
697.00	19073.03
697.14	19173.67
697.27	18527.68
697.40	18565.13
697.54	18621.30
697.67	18441.08
697.80	18663.43
697.94	18637.69
698.07	18391.93
698.21	18476.19
698.34	18277.24
698.47	17984.68
698.61	17989.36
698.74	17774.03
698.87	17795.09
699.01	17755.30
699.14	17675.73
699.27	17598.49
699.40	17495.50
699.54	17252.09
699.67	17509.55
699.80	17507.21
699.94	17095.27
700.07	17547.00
700.20	17305.92
700.34	17025.06
700.47	16776.96
700.60	16940.80
700.73	16872.92
700.87	16606.10
701.00	16575.67
701.13	16458.65
701.26	16119.27
701.40	16580.36
701.53	16329.92
701.66	16264.38
701.79	16128.63
701.93	16032.67
702.06	15960.11
702.19	15681.59
702.32	16027.99
702.46	15812.66
702.59	15730.74
702.72	15887.56
702.85	15896.92
702.99	15552.86
703.12	15241.57
703.25	15150.29
703.38	15161.99
703.51	15105.82
703.65	15026.24
703.78	14881.13
703.91	14836.66
704.04	14801.55
704.17	14511.32
704.31	14567.49
704.44	14541.75
704.57	14740.69
704.70	14249.18
704.83	14562.81
704.96	14178.97
705.10	14354.51
705.23	14398.98
>>>>>End Processed Spectral Data<<<<<
