SpectraSuite Data File
++++++++++++++++++++++++++++++++++++
Date: Fri Oct 25 11:33:43 EDT 2013
User: price-jones
Dark Spectrum Present: No
Reference Spectrum Present: No
Number of Sampled Component Spectra: 1
Spectrometers: USB2+H05261
Integration Time (usec): 100000 (USB2+H05261)
Spectra Averaged: 1 (USB2+H05261)
Boxcar Smoothing: 0 (USB2+H05261)
Correct for Electrical Dark: No (USB2+H05261)
Strobe/Lamp Enabled: No (USB2+H05261)
Correct for Detector Non-linearity: No (USB2+H05261)
Correct for Stray Light: No (USB2+H05261)
Number of Pixels in Processed Spectrum: 2048
>>>>>Begin Processed Spectral Data<<<<<
365.73	236.39
365.92	236.39
366.12	236.39
366.32	208.31
366.52	145.11
366.72	154.48
366.91	250.44
367.11	140.43
367.31	149.79
367.51	154.48
367.70	189.58
367.90	182.56
368.10	152.13
368.30	163.84
368.49	147.45
368.69	184.90
368.89	173.20
369.09	182.56
369.28	217.67
369.48	243.42
369.68	220.01
369.87	297.25
370.07	177.88
370.27	264.48
370.47	315.97
370.66	540.66
370.86	524.28
371.06	461.09
371.25	582.79
371.45	505.56
371.65	535.98
371.84	601.52
372.04	594.50
372.24	650.67
372.44	550.03
372.63	582.79
372.83	645.99
373.03	690.46
373.22	660.03
373.42	655.35
373.62	702.16
373.81	622.58
374.01	634.29
374.21	678.76
374.40	683.44
374.60	748.97
374.79	645.99
374.99	641.31
375.19	631.94
375.38	711.52
375.58	681.10
375.78	629.60
375.97	645.99
376.17	669.39
376.37	690.46
376.56	699.82
376.76	706.84
376.95	631.94
377.15	669.39
377.35	695.14
377.54	657.69
377.74	704.50
377.93	674.07
378.13	603.86
378.33	713.86
378.52	692.80
378.72	697.48
378.91	732.59
379.11	713.86
379.31	678.76
379.50	706.84
379.70	798.12
379.89	662.37
380.09	772.38
380.28	683.44
380.48	713.86
380.68	697.48
380.87	751.31
381.07	669.39
381.26	758.33
381.46	795.78
381.65	802.80
381.85	814.51
382.04	833.23
382.24	795.78
382.43	788.76
382.63	688.12
382.83	770.04
383.02	837.91
383.22	807.48
383.41	823.87
383.61	791.10
383.80	858.98
384.00	720.88
384.19	830.89
384.39	964.30
384.58	784.08
384.78	830.89
384.97	767.70
385.17	788.76
385.36	847.27
385.56	826.21
385.75	767.70
385.95	938.55
386.14	844.93
386.34	828.55
386.53	917.49
386.72	847.27
386.92	856.64
387.11	938.55
387.31	959.62
387.50	938.55
387.70	863.66
387.89	898.77
388.09	936.21
388.28	917.49
388.48	891.74
388.67	877.70
388.86	1022.81
389.06	896.43
389.25	875.36
389.45	877.70
389.64	908.13
389.84	922.17
390.03	980.68
390.22	966.64
390.42	973.66
390.61	910.47
390.81	929.19
391.00	950.26
391.19	1076.65
391.39	919.83
391.58	983.02
391.78	1036.86
391.97	987.71
392.16	1043.88
392.36	1083.67
392.55	1008.77
392.75	1013.45
392.94	964.30
393.13	1020.47
393.33	1027.50
393.52	1090.69
393.71	1097.71
393.91	1041.54
394.10	983.02
394.29	1132.82
394.49	1132.82
394.68	1086.01
394.88	1128.14
395.07	1198.35
395.26	1196.01
395.46	1188.99
395.65	1188.99
395.84	1130.48
396.04	1224.10
396.23	1142.18
396.42	1174.95
396.62	1177.29
396.81	1174.95
397.00	1149.20
397.19	1177.29
397.39	1296.66
397.58	1231.12
397.77	1181.97
397.97	1277.93
398.16	1210.06
398.35	1287.29
398.55	1254.53
398.74	1301.34
398.93	1420.71
399.12	1261.55
399.32	1301.34
399.51	1263.89
399.70	1359.85
399.90	1376.24
400.09	1336.45
400.28	1366.87
400.47	1364.53
400.67	1437.09
400.86	1406.66
401.05	1453.47
401.24	1427.73
401.44	1416.02
401.63	1460.49
401.82	1451.13
402.01	1446.45
402.21	1427.73
402.40	1500.28
402.59	1474.54
402.78	1502.62
402.97	1486.24
403.17	1556.46
403.36	1533.05
403.55	1490.92
403.74	1596.25
403.93	1598.59
404.13	1570.50
404.32	1631.35
404.51	1591.56
404.70	1626.67
404.89	1647.74
405.09	1685.19
405.28	1722.63
405.47	1633.69
405.66	1774.13
405.85	1631.35
406.05	1713.27
406.24	1713.27
406.43	1781.15
406.62	1734.34
406.81	1746.04
407.00	1834.98
407.20	1629.01
407.39	1689.87
407.58	1753.06
407.77	1853.70
407.96	1914.56
408.15	1975.41
408.34	1867.75
408.54	1856.04
408.73	1949.67
408.92	1893.49
409.11	1926.26
409.30	2024.56
409.49	1928.60
409.68	2024.56
409.87	2069.03
410.07	1996.48
410.26	2045.63
410.45	2026.90
410.64	2064.35
410.83	2106.48
411.02	2143.93
411.21	2232.87
411.40	2244.57
411.59	2157.97
411.78	2230.53
411.98	2181.38
412.17	2319.47
412.36	2246.91
412.55	2307.77
412.74	2335.85
412.93	2314.79
413.12	2333.51
413.31	2345.22
413.50	2373.30
413.69	2389.69
413.88	2544.16
414.07	2539.48
414.26	2443.52
414.45	2518.42
414.64	2466.92
414.83	2452.88
415.02	2555.86
415.22	2544.16
415.41	2665.87
415.60	2630.76
415.79	2682.25
415.98	2818.00
416.17	2712.68
416.36	2710.34
416.55	2747.79
416.74	2722.04
416.93	2789.92
417.12	2754.81
417.31	2813.32
417.50	2897.58
417.69	3030.99
417.88	2895.24
418.07	3023.97
418.26	2967.80
418.45	3005.25
418.64	3080.14
418.83	3150.36
419.02	3059.08
419.21	3084.83
419.39	3157.38
419.58	2977.16
419.77	3112.91
419.96	3176.11
420.15	3164.40
420.34	3117.59
420.53	3070.78
420.72	3293.13
420.91	3279.09
421.10	3321.22
421.29	3197.17
421.48	3265.05
421.67	3297.81
421.86	3251.00
422.05	3358.67
422.24	3452.29
422.43	3229.94
422.61	3400.80
422.80	3468.67
422.99	3426.54
423.18	3419.52
423.37	3499.10
423.56	3346.97
423.75	3337.60
423.94	3255.69
424.13	3229.94
424.32	3279.09
424.50	3487.40
424.69	3442.93
424.88	3634.85
425.07	3454.63
425.26	3269.73
425.45	3419.52
425.64	3583.36
425.83	3559.95
426.01	3473.36
426.20	3452.29
426.39	3400.80
426.58	3555.27
426.77	3534.21
426.96	3459.31
427.15	3454.63
427.33	3520.17
427.52	3428.88
427.71	3693.37
427.90	3595.06
428.09	3574.00
428.28	3641.87
428.46	3737.84
428.65	3728.47
428.84	3777.62
429.03	3819.75
429.22	3688.68
429.40	3822.09
429.59	3772.94
429.78	3742.52
429.97	3552.93
430.16	3796.35
430.34	3742.52
430.53	3805.71
430.72	3941.46
430.91	3871.25
431.10	3943.80
431.28	3864.22
431.47	4081.89
431.66	3960.19
431.85	3885.29
432.03	4208.28
432.22	4140.41
432.41	4105.30
432.60	3943.80
432.79	4117.00
432.97	4004.66
433.16	4231.69
433.35	4109.98
433.54	4058.49
433.72	4166.15
433.91	4187.22
434.10	4177.86
434.28	4229.35
434.47	4196.58
434.66	4334.67
434.85	4205.94
435.03	4306.59
435.22	4322.97
435.41	4470.42
435.59	4416.59
435.78	4456.38
435.97	4512.55
436.16	4276.16
436.34	4500.85
436.53	4514.89
436.72	4615.54
436.90	4418.93
437.09	4554.68
437.28	4472.76
437.46	4512.55
437.65	4484.47
437.84	4669.37
438.02	4559.36
438.21	4751.29
438.40	4540.64
438.58	4667.03
438.77	4917.47
438.96	4781.71
439.14	4842.57
439.33	4849.59
439.52	5020.45
439.70	4992.36
439.89	5069.60
440.08	4929.17
440.26	4919.81
440.45	5011.09
440.63	5235.78
440.82	5245.14
441.01	4964.28
441.19	5298.97
441.38	5294.29
441.57	5359.83
441.75	5270.89
441.94	5408.98
442.12	5439.40
442.31	5504.94
442.50	5390.25
442.68	5334.08
442.87	5343.44
443.05	5617.29
443.24	5577.50
443.43	5495.58
443.61	5486.22
443.80	5568.13
443.98	5554.09
444.17	5226.42
444.35	5488.56
444.54	5570.48
444.73	5481.53
444.91	5757.72
445.10	5591.54
445.28	5507.28
445.47	5633.67
445.65	5762.40
445.84	5792.83
446.02	5563.45
446.21	5582.18
446.39	5851.34
446.58	5715.59
446.77	5809.21
446.95	5636.01
447.14	5685.16
447.32	5874.74
447.51	5788.14
447.69	5884.11
447.88	5734.31
448.06	5783.46
448.25	5837.30
448.43	5769.42
448.62	5827.93
448.80	5818.57
448.99	5802.19
449.17	5891.13
449.36	5933.26
449.54	5940.28
449.73	5954.32
449.91	6146.25
450.10	6024.54
450.28	6157.95
450.46	6078.37
450.65	6143.91
450.83	6113.48
451.02	6047.94
451.20	6087.73
451.39	6202.42
451.57	6354.55
451.76	6179.01
451.94	6214.12
452.13	6354.55
452.31	6195.40
452.49	6148.59
452.68	6328.81
452.86	6256.25
453.05	6338.17
453.23	6502.01
453.42	6296.04
453.60	6296.04
453.78	6490.31
453.97	6342.85
454.15	6361.58
454.34	6317.11
454.52	6532.44
454.70	6635.42
454.89	6392.00
455.07	6558.18
455.26	6539.46
455.44	6609.67
455.62	6684.57
455.81	6567.54
455.99	6862.45
456.17	6768.83
456.36	6860.11
456.54	6719.68
456.73	6953.73
456.91	7126.93
457.09	7012.24
457.28	7016.93
457.46	7012.24
457.64	7021.61
457.83	7131.61
458.01	6942.03
458.19	7215.87
458.38	6902.24
458.56	7419.50
458.74	7169.06
458.93	7166.72
459.11	7389.07
459.29	7218.21
459.48	7286.09
459.66	7229.91
459.84	7262.68
460.03	7503.76
460.21	7274.38
460.39	7328.22
460.57	7382.05
460.76	7581.00
460.94	7564.61
461.12	7548.23
461.31	7585.68
461.49	7499.08
461.67	7424.18
461.85	7719.09
462.04	7583.34
462.22	8098.25
462.40	7719.09
462.59	7618.44
462.77	7588.02
462.95	7927.39
463.13	7927.39
463.32	7735.47
463.50	7845.48
463.68	7882.92
463.86	7936.76
464.05	7761.22
464.23	7925.05
464.41	8046.76
464.59	7929.74
464.78	8124.00
464.96	7882.92
465.14	8009.31
465.32	8067.83
465.50	8259.75
465.69	8182.51
465.87	8070.17
466.05	8121.66
466.23	8163.79
466.41	8285.50
466.60	8276.13
466.78	8177.83
466.96	8093.57
467.14	8341.67
467.32	8404.86
467.51	8421.25
467.69	8098.25
467.87	8294.86
468.05	8322.94
468.23	8177.83
468.41	8245.71
468.60	8446.99
468.78	8557.00
468.96	8344.01
469.14	8512.53
469.32	8732.54
469.50	8510.19
469.69	8659.98
469.87	8685.73
470.05	8704.45
470.23	8784.03
470.41	8671.68
470.59	8809.78
470.77	8781.69
470.95	8774.67
471.14	9214.69
471.32	8847.22
471.50	8826.16
471.68	9064.89
471.86	9153.84
472.04	9362.14
472.22	9385.55
472.40	9083.62
472.58	9158.52
472.77	9322.35
472.95	9434.70
473.13	9741.31
473.31	9305.97
473.49	9397.25
473.67	9537.68
473.85	9488.53
474.03	9701.52
474.21	9699.18
474.39	9954.30
474.57	9774.08
474.75	10090.05
474.93	10045.58
475.12	9926.21
475.30	10207.08
475.48	10099.41
475.66	10174.31
475.84	9872.38
476.02	10445.81
476.20	10136.86
476.38	10455.17
476.56	10619.01
476.74	10565.18
476.92	10658.80
477.10	10342.83
477.28	10682.20
477.46	10848.38
477.64	10729.02
477.82	10995.84
478.00	11316.49
478.18	11138.61
478.36	11154.99
478.54	11213.51
478.72	11257.98
478.90	11332.87
479.08	11833.75
479.26	11543.52
479.44	11822.05
479.62	11590.33
479.80	12142.70
479.98	11903.96
480.16	12154.40
480.34	11939.07
480.52	12210.57
480.70	12159.08
480.88	12348.67
481.06	12446.97
481.24	12517.18
481.41	12634.21
481.59	12720.81
481.77	12688.04
481.95	12912.74
482.13	12985.29
482.31	12938.48
482.49	13350.42
482.67	13355.10
482.85	13518.93
483.03	13582.13
483.21	13617.24
483.39	13783.41
483.57	13710.86
483.74	13752.99
483.92	13928.53
484.10	14001.08
484.28	14249.18
484.46	14530.05
484.64	14611.96
484.82	14483.24
485.00	14565.15
485.18	14923.26
485.35	15276.68
485.53	14906.87
485.71	15374.98
485.89	15501.37
486.07	15405.41
486.25	15583.29
486.43	15602.01
486.61	15693.29
486.78	15782.23
486.96	16009.26
487.14	15939.05
487.32	15917.98
487.50	16456.31
487.68	16563.97
487.85	16896.33
488.03	16641.21
488.21	17053.14
488.39	17081.23
488.57	17060.16
488.75	17247.41
488.92	17338.69
489.10	17446.35
489.28	17387.84
489.46	17731.90
489.64	17621.89
489.81	18352.14
489.99	18331.08
490.17	18249.16
490.35	18359.16
490.53	18429.38
490.70	18520.66
490.88	18665.77
491.06	18892.80
491.24	18799.18
491.41	19185.37
491.59	19271.97
491.77	19344.53
491.95	19611.35
492.13	19585.60
492.30	19854.76
492.48	19653.48
492.66	19742.42
492.84	19793.91
493.01	20072.43
493.19	20432.88
493.37	20304.15
493.54	20278.40
493.72	20606.08
493.90	20900.98
494.08	20758.21
494.25	21003.97
494.43	21223.98
494.61	20915.03
494.79	21261.43
494.96	21268.45
495.14	21528.25
495.32	21678.04
495.49	21462.71
495.67	21832.52
495.85	22279.56
496.02	22382.54
496.20	22319.35
496.38	22305.31
496.55	22169.55
496.73	22831.93
496.91	22850.65
497.09	22738.30
497.26	23260.24
497.44	23047.26
497.62	23267.27
497.79	23634.73
497.97	23229.82
498.14	23335.14
498.32	23365.57
498.50	23608.98
498.67	23695.58
498.85	23747.08
499.03	24088.79
499.20	24119.22
499.38	24531.15
499.56	24460.94
499.73	24264.33
499.91	24367.32
500.08	24805.00
500.26	24652.86
500.44	24556.90
500.61	24751.17
500.79	24587.33
500.97	24856.49
501.14	25198.21
501.32	25617.16
501.49	25048.41
501.67	25413.54
501.84	25825.47
502.02	25717.81
502.20	25687.38
502.37	25743.55
502.55	25640.57
502.72	25933.14
502.90	25764.62
503.07	26050.16
503.25	25963.56
503.43	26312.30
503.60	26260.81
503.78	26422.31
503.95	26174.21
504.13	26590.83
504.30	26628.27
504.48	26476.14
504.65	26890.41
504.83	26616.57
505.01	27321.07
505.18	27351.50
505.36	27440.44
505.53	26977.01
505.71	27615.98
505.88	27255.54
506.06	27419.38
506.23	27552.79
506.41	27608.96
506.58	27962.38
506.76	27840.67
506.93	28011.53
507.11	27878.12
507.28	28322.82
507.46	28301.76
507.63	28105.15
507.81	28669.22
507.98	28166.01
508.16	28271.33
508.33	28210.48
508.50	28865.83
508.68	28444.53
508.85	29125.63
509.03	28758.16
509.20	29034.35
509.38	29322.23
509.55	29256.70
509.73	29472.03
509.90	29415.85
510.08	29364.36
510.25	29549.26
510.42	29729.48
510.60	29790.34
510.77	29570.33
510.95	30185.89
511.12	29912.05
511.30	29979.92
511.47	30188.23
511.64	29748.21
511.82	30485.48
511.99	30312.28
512.17	30417.60
512.34	30532.29
512.51	30518.25
512.69	30986.35
512.86	30920.82
513.04	30724.21
513.21	31232.11
513.38	30960.61
513.56	31358.50
513.73	31239.13
513.90	31143.17
514.08	31702.56
514.25	31763.41
514.43	31463.82
514.60	31325.73
514.77	31606.59
514.95	31791.50
515.12	31803.20
515.29	32208.11
515.47	31885.12
515.64	32177.68
515.81	31978.74
515.99	32283.01
516.16	32341.52
516.33	32301.73
516.51	32371.95
516.68	32287.69
516.85	32617.71
517.03	32598.98
517.20	32662.18
517.37	32514.72
517.54	32826.01
517.72	32989.85
517.89	32844.74
518.06	32912.61
518.24	32907.93
518.41	32872.82
518.58	33130.28
518.75	33235.61
518.93	33647.54
519.10	33191.14
519.27	33408.81
519.45	33511.79
519.62	33785.63
519.79	33589.03
519.96	33792.65
520.14	33933.09
520.31	33855.85
520.48	34220.97
520.65	33869.89
520.83	34464.39
521.00	34356.72
521.17	34153.10
521.34	34087.56
521.52	34384.81
521.69	34499.50
521.86	34646.95
522.03	34885.68
522.20	34930.16
522.38	35318.68
522.55	35077.61
522.72	34979.31
522.89	35241.45
523.07	35384.22
523.24	34749.93
523.41	35257.83
523.58	35292.94
523.75	35414.65
523.92	35796.15
524.10	35477.84
524.27	35641.68
524.44	35372.52
524.61	35800.83
524.78	35690.83
524.96	35997.44
525.13	35838.28
525.30	35950.63
525.47	35763.39
525.64	36161.28
525.81	36601.30
525.98	36442.14
526.16	36154.26
526.33	36004.46
526.50	36587.25
526.67	36250.22
526.84	36418.74
527.01	36591.94
527.18	36809.61
527.36	36900.89
527.53	37064.72
527.70	36889.18
527.87	37340.91
528.04	36980.46
528.21	37322.18
528.38	37177.07
528.55	37408.78
528.72	37097.49
528.89	36917.27
529.07	37130.26
529.24	37242.60
529.41	37525.81
529.58	37404.10
529.75	37216.86
529.92	37591.34
530.09	37907.32
530.26	37390.06
530.43	37949.45
530.60	37668.58
530.77	37724.75
530.94	38024.34
531.11	37762.20
531.28	38204.56
531.46	37935.40
531.63	38185.84
531.80	38302.87
531.97	38541.60
532.14	38321.59
532.31	38333.29
532.48	38897.36
532.65	38653.95
532.82	38508.83
532.99	38679.69
533.16	38398.83
533.33	38462.02
533.50	38815.44
533.67	38511.17
533.84	38405.85
534.01	38946.51
534.18	39278.87
534.35	38904.38
534.52	39391.22
534.69	39318.66
534.86	39225.04
535.03	39203.97
535.20	39360.79
535.37	39262.49
535.54	39833.58
535.71	39541.01
535.88	40084.01
536.05	39761.02
536.22	39721.23
536.38	39763.36
536.55	39653.36
536.72	39875.71
536.89	39194.61
537.06	39812.51
537.23	40332.11
537.40	39564.42
537.57	40053.59
537.74	39791.45
537.91	40194.02
538.08	39859.32
538.25	39604.20
538.42	40170.61
538.59	40418.71
538.75	40100.40
538.92	40299.34
539.09	40821.28
539.26	40507.65
539.43	40297.00
539.60	40612.98
539.77	40659.79
539.94	41144.28
540.11	40985.12
540.28	41020.23
540.44	41144.28
540.61	41111.51
540.78	40992.14
540.95	41104.49
541.12	40744.05
541.29	41003.85
541.46	41050.66
541.62	40886.82
541.79	41675.58
541.96	40931.29
542.13	40971.08
542.30	41167.68
542.47	41254.28
542.63	41680.26
542.80	41476.63
542.97	41970.49
543.14	41794.95
543.31	41556.21
543.48	41713.03
543.64	42295.82
543.81	42202.20
543.98	42131.98
544.15	42068.79
544.32	42026.66
544.48	42464.34
544.65	42508.81
544.82	42745.20
544.99	41998.57
545.16	42078.15
545.32	41961.12
545.49	42604.77
545.66	42705.41
545.83	42330.93
546.00	42639.88
546.16	42677.33
546.33	42459.66
546.50	42487.74
546.67	42422.21
546.83	42356.67
547.00	42405.83
547.17	42698.39
547.34	42927.77
547.50	42742.86
547.67	43253.10
547.84	43393.53
548.00	43405.23
548.17	43503.54
548.34	43672.06
548.51	43002.66
548.67	43449.70
548.84	43798.44
549.01	42939.47
549.18	43580.78
549.34	43533.96
549.51	43194.59
549.68	43901.43
549.84	43400.55
550.01	43440.34
550.18	43550.35
550.34	43501.20
550.51	43723.55
550.68	43636.95
550.84	43299.91
551.01	43985.69
551.18	43253.10
551.34	43559.71
551.51	44039.52
551.68	44044.20
551.84	43648.65
552.01	43681.42
552.18	43931.86
552.34	43526.94
552.51	44041.86
552.68	43992.71
552.84	43924.83
553.01	44446.77
553.18	44205.70
553.34	43924.83
553.51	44259.53
553.67	44091.01
553.84	44406.98
554.01	44423.37
554.17	44158.89
554.34	44488.90
554.51	44624.65
554.67	44512.31
554.84	44708.91
555.00	44451.45
555.17	44596.57
555.33	45031.91
555.50	45165.32
555.67	44664.44
555.83	44938.29
556.00	44914.88
556.16	45137.23
556.33	44896.16
556.50	44722.96
556.66	44659.76
556.83	44158.89
556.99	45368.94
557.16	45289.37
557.32	45191.06
557.49	44921.90
557.65	44861.05
557.82	45275.32
557.98	45514.06
558.15	44802.53
558.32	45315.11
558.48	45052.97
558.65	45134.89
558.81	45268.30
558.98	45188.72
559.14	45099.78
559.31	45322.13
559.47	45071.70
559.64	45322.13
559.80	45415.76
559.97	45572.57
560.13	44987.44
560.30	45326.81
560.46	46047.70
560.63	45361.92
560.79	45345.54
560.96	45808.96
561.12	45925.99
561.29	45668.53
561.45	45640.45
561.61	45673.21
561.78	45839.39
561.94	45668.53
562.11	45720.02
562.27	45827.69
562.44	45425.12
562.60	45886.20
562.77	45525.76
562.93	46064.08
563.10	46204.52
563.26	46003.23
563.42	45982.16
563.59	46057.06
563.75	46005.57
563.92	45867.48
564.08	45881.52
564.24	46321.54
564.41	45989.19
564.57	46108.55
564.74	46223.24
564.90	46043.02
565.07	46024.29
565.23	46031.32
565.39	45713.00
565.56	46258.35
565.72	45879.18
565.88	46251.33
566.05	45925.99
566.21	46176.43
566.38	46284.09
566.54	46253.67
566.70	46279.41
566.87	46225.58
567.03	45991.53
567.19	46780.29
567.36	46260.69
567.52	46415.16
567.68	46579.00
567.85	46632.83
568.01	46672.62
568.17	46515.81
568.34	46499.42
568.50	46267.71
568.66	46284.09
568.83	46534.53
568.99	46761.56
569.15	46347.29
569.32	46251.33
569.48	46644.54
569.64	47070.51
569.81	46616.45
569.97	46717.09
570.13	47037.75
570.30	46153.02
570.46	46607.09
570.62	46590.70
570.78	46663.26
570.95	46499.42
571.11	47004.98
571.27	46494.74
571.43	46415.16
571.60	46836.46
571.76	46106.21
571.92	46681.98
572.09	46632.83
572.25	46429.21
572.41	46354.31
572.57	46918.38
572.74	47143.07
572.90	46398.78
573.06	47009.66
573.22	47063.49
573.38	47178.18
573.55	47093.92
573.71	47538.62
573.87	46995.62
574.03	47086.90
574.20	47051.79
574.36	46920.72
574.52	47217.97
574.68	46972.21
574.84	47367.76
575.01	47047.11
575.17	46937.10
575.33	46944.12
575.49	47119.66
575.65	47185.20
575.82	46925.40
575.98	46705.39
576.14	47442.66
576.30	47334.99
576.46	47089.24
576.62	47054.13
576.79	47232.01
576.95	46829.44
577.11	47068.17
577.27	46799.01
577.43	46983.91
577.59	47466.06
577.75	46635.17
577.92	46646.88
578.08	47161.79
578.24	47114.98
578.40	47257.76
578.56	47384.15
578.72	46972.21
578.88	47208.61
579.04	47456.70
579.21	47143.07
579.37	47257.76
579.53	47562.03
579.69	46930.08
579.85	47161.79
580.01	47047.11
580.17	47051.79
580.33	47220.31
580.49	47077.54
580.65	47466.06
580.82	47117.32
580.98	46993.28
581.14	46806.03
581.30	47103.28
581.46	47264.78
581.62	47262.44
581.78	47051.79
581.94	47299.89
582.10	47449.68
582.26	47082.22
582.42	47430.96
582.58	47187.54
582.74	47503.51
582.90	47320.95
583.06	47208.61
583.22	47040.09
583.38	47239.03
583.54	47437.98
583.70	47180.52
583.86	47459.04
584.02	47281.16
584.18	47313.93
584.34	47585.43
584.50	47334.99
584.66	47304.57
584.82	47461.38
584.98	47533.94
585.14	47688.42
585.30	47229.67
585.46	47241.37
585.62	47229.67
585.78	47777.36
585.94	47164.14
586.10	47349.04
586.26	46995.62
586.42	47473.09
586.58	47466.06
586.74	47672.03
586.90	46763.90
587.06	47126.69
587.22	47351.38
587.38	47342.02
587.54	47775.02
587.70	47655.65
587.86	47552.66
588.02	47346.70
588.18	47454.36
588.34	47159.45
588.49	47641.60
588.65	47714.16
588.81	47082.22
588.97	47576.07
589.13	47517.56
589.29	47496.49
589.45	47880.34
589.61	47796.08
589.77	47929.49
589.93	47239.03
590.08	47475.43
590.24	47856.93
590.40	48151.84
590.56	47971.62
590.72	47852.25
590.88	47777.36
591.04	48072.26
591.20	48240.78
591.35	47908.43
591.51	48074.60
591.67	48296.95
591.83	48048.86
591.99	47920.13
592.15	47775.02
592.31	47870.98
592.46	47665.01
592.62	47627.56
592.78	47995.03
592.94	48311.00
593.10	48053.54
593.26	48512.28
593.41	48142.48
593.57	47838.21
593.73	48044.18
593.89	48140.14
594.05	48109.71
594.20	48055.88
594.36	47950.56
594.52	48465.47
594.68	47945.87
594.84	48100.35
594.99	48446.75
595.15	48114.39
595.31	47983.32
595.47	47915.45
595.62	47938.85
595.78	48067.58
595.94	48191.63
596.10	48067.58
596.25	48367.17
596.41	48086.31
596.57	48081.63
596.73	48549.73
596.88	48147.16
597.04	47878.00
597.20	48062.90
597.36	48011.41
597.51	48208.01
597.67	48229.08
597.83	47847.57
597.99	48264.19
598.14	47667.35
598.30	48308.66
598.46	48278.23
598.61	48472.49
598.77	48018.43
598.93	48313.34
599.09	48030.13
599.24	48765.06
599.40	48706.55
599.56	48437.39
599.71	48924.22
599.87	49123.16
600.03	48474.84
600.18	48409.30
600.34	48212.70
600.50	48081.63
600.65	48044.18
600.81	48882.09
600.97	48648.03
601.12	48318.02
601.28	48168.22
601.44	48163.54
601.59	48245.46
601.75	48271.21
601.91	48500.58
602.06	48456.11
602.22	48839.96
602.37	48252.48
602.53	48371.85
602.69	48226.74
602.84	48135.46
603.00	48224.40
603.16	48016.09
603.31	48432.71
603.47	48512.28
603.62	48348.45
603.78	48430.36
603.94	48353.13
604.09	48271.21
604.25	48079.28
604.40	48421.00
604.56	48886.77
604.71	48334.40
604.87	48105.03
605.03	48025.45
605.18	47831.19
605.34	48119.07
605.49	47770.33
605.65	48369.51
605.80	48184.61
605.96	47866.30
606.12	47992.68
606.27	48208.01
606.43	47608.84
606.58	48357.81
606.74	48369.51
606.89	48177.59
607.05	48168.22
607.20	48257.17
607.36	48016.09
607.51	48306.32
607.67	48041.84
607.82	48039.50
607.98	47856.93
608.13	48170.57
608.29	47936.51
608.44	48142.48
608.60	47835.87
608.75	47723.52
608.91	48090.99
609.06	47805.44
609.22	48261.85
609.37	47695.44
609.53	48360.15
609.68	48023.11
609.84	48261.85
609.99	48238.44
610.15	48175.25
610.30	48168.22
610.46	47737.57
610.61	47927.15
610.76	47950.56
610.92	47674.37
611.07	47999.71
611.23	48203.33
611.38	47618.20
611.54	47775.02
611.69	48074.60
611.84	47751.61
612.00	47966.94
612.15	47571.39
612.31	47793.74
612.46	47337.33
612.62	47547.98
612.77	47868.64
612.92	48233.76
613.08	47445.00
613.23	47695.44
613.39	47695.44
613.54	48004.39
613.69	47828.85
613.85	47758.63
614.00	47592.45
614.15	47840.55
614.31	47522.24
614.46	47564.37
614.62	47433.30
614.77	48128.44
614.92	47412.23
615.08	47669.69
615.23	47545.64
615.38	48147.16
615.54	47255.42
615.69	47632.24
615.84	47615.86
616.00	47739.91
616.15	47512.88
616.30	46951.15
616.46	47622.88
616.61	47660.33
616.76	47475.43
616.92	47222.65
617.07	47192.22
617.22	47042.43
617.37	46791.99
617.53	47037.75
617.68	47178.18
617.83	47100.94
617.99	47482.45
618.14	47966.94
618.29	46911.36
618.45	47035.41
618.60	46721.77
618.75	46866.89
618.90	46897.31
619.06	46710.07
619.21	46946.47
619.36	47178.18
619.51	47330.31
619.67	46733.48
619.82	47110.30
619.97	47136.05
620.12	47051.79
620.28	47178.18
620.43	47342.02
620.58	47119.66
620.73	46974.55
620.89	47154.77
621.04	47122.01
621.19	46955.83
621.34	46799.01
621.49	46803.69
621.65	46742.84
621.80	46976.89
621.95	47065.83
622.10	46817.74
622.25	46230.26
622.41	46625.81
622.56	46663.26
622.71	46539.21
622.86	46925.40
623.01	46838.80
623.16	46564.96
623.32	46595.38
623.47	46684.33
623.62	46466.66
623.77	46925.40
623.92	46829.44
624.07	46368.35
624.23	46663.26
624.38	46878.59
624.53	46438.57
624.68	46401.12
624.83	46417.50
624.98	46150.68
625.13	46108.55
625.29	46288.77
625.44	45975.14
625.59	46047.70
625.74	46122.60
625.89	45897.91
626.04	46417.50
626.19	45881.52
626.34	46153.02
626.49	45928.33
626.65	45811.31
626.80	46251.33
626.95	45631.08
627.10	45532.78
627.25	45858.12
627.40	45921.31
627.55	46052.38
627.70	45633.42
627.85	46241.96
628.00	46075.79
628.15	45897.91
628.30	45441.50
628.45	45336.18
628.60	45188.72
628.76	45120.85
628.91	45546.82
629.06	45289.37
629.21	45736.41
629.36	45497.67
629.51	45382.99
629.66	45443.84
629.81	45272.98
629.96	45549.17
630.11	45350.22
630.26	45074.04
630.41	45904.93
630.56	45092.76
630.71	45188.72
630.86	45006.16
631.01	45095.10
631.16	45216.81
631.31	45291.71
631.46	45059.99
631.61	45483.63
631.76	45291.71
631.91	45497.67
632.06	45572.57
632.21	45331.50
632.36	45399.37
632.51	45205.11
632.66	45249.58
632.81	44741.68
632.96	45165.32
633.10	45130.21
633.25	45036.59
633.40	45200.43
633.55	45441.50
633.70	44889.13
633.85	44687.85
634.00	45139.57
634.15	44655.08
634.30	44542.74
634.45	44725.30
634.60	44926.58
634.75	45031.91
634.90	44664.44
635.05	45272.98
635.19	44575.50
635.34	44474.86
635.49	44739.34
635.64	44634.02
635.79	45010.84
635.94	44886.79
636.09	44751.04
636.24	44542.74
636.39	44847.00
636.53	44879.77
636.68	44561.46
636.83	44091.01
636.98	44226.76
637.13	44142.50
637.28	44065.27
637.43	44685.51
637.57	44048.88
637.72	44273.57
637.87	44186.97
638.02	44369.54
638.17	43971.64
638.32	44404.64
638.46	44039.52
638.61	44086.33
638.76	43868.66
638.91	43906.11
639.06	43931.86
639.20	43917.81
639.35	43875.68
639.50	43330.34
639.65	44488.90
639.80	44130.80
639.94	43704.82
640.09	43950.58
640.24	43807.81
640.39	43753.97
640.54	43278.85
640.68	43421.62
640.83	44168.25
640.98	43611.20
641.13	43358.42
641.27	43908.45
641.42	44002.07
641.57	43615.88
641.72	43515.24
641.86	43468.43
642.01	43262.46
642.16	43716.53
642.31	43168.84
642.45	43283.53
642.60	43636.95
642.75	43208.63
642.90	43236.72
643.04	43358.42
643.19	43391.19
643.34	43208.63
643.48	42843.51
643.63	42909.04
643.78	43388.85
643.93	43536.30
644.07	43489.49
644.22	43047.13
644.37	43100.97
644.51	43730.57
644.66	43253.10
644.81	43349.06
644.95	42789.67
645.10	43007.34
645.25	43044.79
645.39	42904.36
645.54	42848.19
645.69	42873.93
645.83	42593.07
645.98	42677.33
646.13	42880.95
646.27	42623.50
646.42	42553.28
646.57	42609.45
646.71	42745.20
646.86	43398.21
647.00	42801.38
647.15	42560.30
647.30	43098.62
647.44	42782.65
647.59	42653.92
647.74	42670.31
647.88	42686.69
648.03	42796.70
648.17	43136.07
648.32	42391.78
648.47	42670.31
648.61	42501.79
648.76	42370.72
648.90	42368.38
649.05	42380.08
649.20	43014.37
649.34	42366.04
649.49	42440.93
649.63	42291.14
649.78	42373.06
649.92	42396.46
650.07	43147.78
650.21	42651.58
650.36	42674.99
650.51	42209.22
650.65	42768.61
650.80	42263.05
650.94	42504.13
651.09	42136.66
651.23	41958.78
651.38	41918.99
651.52	41420.46
651.67	41916.65
651.81	41958.78
651.96	41834.74
652.10	41813.67
652.25	41588.98
652.39	41551.53
652.54	41914.31
652.68	41579.62
652.83	41706.01
652.97	41752.82
653.12	41797.29
653.26	41832.39
653.41	41762.18
653.55	42054.75
653.70	41713.03
653.84	41858.14
653.99	41886.23
654.13	41691.96
654.27	41633.45
654.42	41797.29
654.56	41647.49
654.71	41462.59
654.85	41191.09
655.00	41500.04
655.14	41532.81
655.29	41546.85
655.43	41418.12
655.57	41347.90
655.72	41277.69
655.86	41205.13
656.01	41280.03
656.15	40912.56
656.30	41228.54
656.44	41343.22
656.58	41198.11
656.73	41045.97
656.87	40669.15
657.01	40493.61
657.16	40627.02
657.30	41008.53
657.45	41083.42
657.59	40566.16
657.73	40720.64
657.88	40957.03
658.02	40725.32
658.16	40961.72
658.31	40601.27
658.45	40666.81
658.60	40622.34
658.74	40601.27
658.88	40720.64
659.03	40423.39
659.17	40598.93
659.31	40018.48
659.46	40210.40
659.60	40137.85
659.74	40067.63
659.89	40102.74
660.03	39807.83
660.17	40130.83
660.32	39948.26
660.46	39793.79
660.60	39648.68
660.74	39920.18
660.89	40287.64
661.03	39707.19
661.17	39157.16
661.32	40081.67
661.46	39957.63
661.60	39625.27
661.74	39536.33
661.89	39690.80
662.03	39758.68
662.17	40041.88
662.31	39126.74
662.46	39646.33
662.60	39154.82
662.74	39164.18
662.88	39454.41
663.03	38782.68
663.17	38925.45
663.31	39005.03
663.45	39409.94
663.60	39297.59
663.74	38796.72
663.88	38925.45
664.02	38827.15
664.17	38691.40
664.31	38829.49
664.45	38394.15
664.59	38972.26
664.73	38689.06
664.88	38277.12
665.02	38457.34
665.16	38253.72
665.30	38775.66
665.44	38363.72
665.59	38117.96
665.73	37940.08
665.87	37996.26
666.01	38342.66
666.15	37942.42
666.29	37755.18
666.44	37972.85
666.58	38026.68
666.72	37493.04
666.86	37649.86
667.00	37572.62
667.14	37670.92
667.28	37420.48
667.43	37518.79
667.57	37834.76
667.71	37448.57
667.85	37668.58
667.99	37446.23
668.13	37415.80
668.27	37024.93
668.41	37020.25
668.56	36830.67
668.70	36624.70
668.84	36917.27
668.98	36524.06
669.12	36833.01
669.26	36704.28
669.40	36896.20
669.54	36823.65
669.68	36208.09
669.82	36334.48
669.96	35819.56
670.10	36020.84
670.25	36605.98
670.39	36048.93
670.53	36271.28
670.67	36378.95
670.81	36446.82
670.95	36191.70
671.09	35964.67
671.23	36091.06
671.37	36280.64
671.51	35938.93
671.65	35662.74
671.79	35489.54
671.93	35435.71
672.07	35835.94
672.21	35484.86
672.35	35117.40
672.49	34965.26
672.63	35206.34
672.77	35112.72
672.91	35005.05
673.05	35065.91
673.19	34618.86
673.33	34857.60
673.47	34817.81
673.61	34345.02
673.75	34312.25
673.89	35194.64
674.03	34117.99
674.17	34092.24
674.31	33970.54
674.45	34129.69
674.59	33839.47
674.73	34274.80
674.87	33572.64
675.01	33773.93
675.15	33453.28
675.29	32978.15
675.43	33455.62
675.56	33680.31
675.70	33371.36
675.84	33158.37
675.98	32039.59
676.12	32943.04
676.26	33612.43
676.40	33186.46
676.54	32517.06
676.68	33020.28
676.82	32601.32
676.96	32678.56
677.10	32809.63
677.23	32627.07
677.37	32320.46
677.51	32538.13
677.65	32613.02
677.79	31967.04
677.93	32378.97
678.07	32247.90
678.21	31735.32
678.34	31627.66
678.48	31606.59
678.62	31557.44
678.76	31585.53
678.90	31316.37
679.04	30876.35
679.18	31318.71
679.31	30888.05
679.45	31138.49
679.59	30555.69
679.73	31178.28
679.87	30590.80
680.00	30387.18
680.14	31070.61
680.28	30551.01
680.42	30277.17
680.56	30326.32
680.70	29993.97
680.83	30150.78
680.97	29788.00
681.11	29731.83
681.25	29413.51
681.39	29364.36
681.52	29752.89
681.66	29195.84
681.80	28699.65
681.94	29284.78
682.07	28896.25
682.21	28804.97
682.35	28437.51
682.49	28671.56
682.62	28863.49
682.76	28606.03
682.90	28481.98
683.04	28306.44
683.17	28526.45
683.31	28205.80
683.45	28154.30
683.59	28025.57
683.72	27852.38
683.86	27548.11
684.00	27651.09
684.13	28027.92
684.27	27084.68
684.41	27494.27
684.55	27346.82
684.68	26958.29
684.82	27026.17
684.96	26953.61
685.09	27152.55
685.23	26962.97
685.37	27112.77
685.50	27175.96
685.64	26799.13
685.78	26651.68
685.91	26199.96
686.05	26071.23
686.19	25898.03
686.32	26085.27
686.46	25678.02
686.60	25518.86
686.73	25453.33
686.87	25617.16
687.01	25921.43
687.14	25687.38
687.28	25659.29
687.42	25158.42
687.55	25266.08
687.69	25048.41
687.82	25071.82
687.96	25310.55
688.10	24734.78
688.23	24947.77
688.37	24961.81
688.50	25254.38
688.64	24512.43
688.78	25062.46
688.91	24580.31
689.05	24456.26
689.18	24156.67
689.32	23604.30
689.46	23358.55
689.59	23988.15
689.73	24245.61
689.86	23697.92
690.00	23634.73
690.13	23833.68
690.27	23314.08
690.41	23330.46
690.54	23183.01
690.68	23278.97
690.81	23089.38
690.95	22515.95
691.08	23009.81
691.22	22499.57
691.35	22356.80
691.49	22700.86
691.62	22885.76
691.76	22321.69
691.89	22057.21
692.03	22097.00
692.16	21664.00
692.30	21991.67
692.43	21872.31
692.57	21769.32
692.70	21301.22
692.84	21324.62
692.97	21750.60
693.11	21399.52
693.24	20978.22
693.38	21064.82
693.51	21158.44
693.65	21247.38
693.78	20975.88
693.92	20809.70
694.05	20856.51
694.19	20563.95
694.32	20608.42
694.45	20772.25
694.59	20868.22
694.72	20650.55
694.86	20449.26
694.99	20123.93
695.13	19903.92
695.26	20231.59
695.39	19637.09
695.53	19922.64
695.66	19611.35
695.80	19625.39
695.93	19459.21
696.07	19264.95
696.20	19152.60
696.33	18874.08
696.47	19176.01
696.60	19248.57
696.73	19073.03
696.87	19089.41
697.00	18853.02
697.14	18747.69
697.27	18733.65
697.40	18647.05
697.54	18810.89
697.67	18604.92
697.80	18312.35
697.94	17937.87
698.07	17977.65
698.21	18008.08
698.34	18312.35
698.47	17570.40
698.61	17547.00
698.74	17626.57
698.87	17841.90
699.01	17366.78
699.14	17570.40
699.27	17495.50
699.40	17233.36
699.54	17380.82
699.67	17240.39
699.80	17387.84
699.94	17170.17
700.07	17104.64
700.20	17099.95
700.34	16769.94
700.47	16730.15
700.60	16854.20
700.73	16973.56
700.87	16418.86
701.00	16524.18
701.13	16156.72
701.26	16098.20
701.40	16248.00
701.53	16020.97
701.66	15894.58
701.79	15934.37
701.93	15697.97
702.06	15602.01
702.19	15896.92
702.32	15761.17
702.46	15716.70
702.59	15513.07
702.72	15573.92
702.85	15616.05
702.99	15468.60
703.12	15276.68
703.25	15164.33
703.38	15140.93
703.51	15026.24
703.65	14654.09
703.78	14689.20
703.91	14635.37
704.04	14773.46
704.17	14471.53
704.31	14443.45
704.44	14352.16
704.57	14319.40
704.70	14204.71
704.83	13996.40
704.96	14176.62
705.10	13891.08
705.23	13867.67
>>>>>End Processed Spectral Data<<<<<
