SpectraSuite Data File
++++++++++++++++++++++++++++++++++++
Date: Fri Oct 25 11:33:54 EDT 2013
User: price-jones
Dark Spectrum Present: No
Reference Spectrum Present: No
Number of Sampled Component Spectra: 1
Spectrometers: USB2+H05261
Integration Time (usec): 100000 (USB2+H05261)
Spectra Averaged: 1 (USB2+H05261)
Boxcar Smoothing: 0 (USB2+H05261)
Correct for Electrical Dark: No (USB2+H05261)
Strobe/Lamp Enabled: No (USB2+H05261)
Correct for Detector Non-linearity: No (USB2+H05261)
Correct for Stray Light: No (USB2+H05261)
Number of Pixels in Processed Spectrum: 2048
>>>>>Begin Processed Spectral Data<<<<<
365.73	280.86
365.92	280.86
366.12	280.86
366.32	170.86
366.52	166.18
366.72	191.92
366.91	152.13
367.11	229.37
367.31	145.11
367.51	173.20
367.70	203.63
367.90	152.13
368.10	126.39
368.30	145.11
368.49	184.90
368.69	194.26
368.89	191.92
369.09	248.10
369.28	241.08
369.48	238.73
369.68	220.01
369.87	285.55
370.07	311.29
370.27	308.95
370.47	397.89
370.66	484.49
370.86	493.85
371.06	500.87
371.25	554.71
371.45	524.28
371.65	571.09
371.84	503.22
372.04	463.43
372.24	592.16
372.44	622.58
372.63	641.31
372.83	540.66
373.03	535.98
373.22	543.00
373.42	636.63
373.62	526.62
373.81	638.97
374.01	631.94
374.21	660.03
374.40	660.03
374.60	615.56
374.79	681.10
374.99	690.46
375.19	699.82
375.38	622.58
375.58	695.14
375.78	634.29
375.97	636.63
376.17	695.14
376.37	662.37
376.56	697.48
376.76	627.26
376.95	653.01
377.15	779.40
377.35	671.73
377.54	669.39
377.74	739.61
377.93	669.39
378.13	685.78
378.33	763.01
378.52	681.10
378.72	699.82
378.91	713.86
379.11	667.05
379.31	678.76
379.50	695.14
379.70	795.78
379.89	807.48
380.09	737.27
380.28	671.73
380.48	755.99
380.68	695.14
380.87	692.80
381.07	730.25
381.26	744.29
381.46	774.72
381.65	816.85
381.85	842.59
382.04	734.93
382.24	767.70
382.43	774.72
382.63	758.33
382.83	678.76
383.02	816.85
383.22	819.19
383.41	840.25
383.61	802.80
383.80	774.72
384.00	807.48
384.19	805.14
384.39	875.36
384.58	779.40
384.78	856.64
384.97	875.36
385.17	840.25
385.36	791.10
385.56	844.93
385.75	854.30
385.95	873.02
386.14	873.02
386.34	861.32
386.53	856.64
386.72	814.51
386.92	896.43
387.11	875.36
387.31	917.49
387.50	905.79
387.70	945.58
387.89	915.15
388.09	905.79
388.28	910.47
388.48	870.68
388.67	978.34
388.86	922.17
389.06	898.77
389.25	898.77
389.45	966.64
389.64	884.72
389.84	940.90
390.03	959.62
390.22	994.73
390.42	912.81
390.61	954.94
390.81	945.58
391.00	973.66
391.19	980.68
391.39	1036.86
391.58	950.26
391.78	1022.81
391.97	1008.77
392.16	992.39
392.36	1055.58
392.55	1097.71
392.75	1083.67
392.94	1111.75
393.13	1086.01
393.33	1088.35
393.52	1109.41
393.71	1041.54
393.91	1086.01
394.10	1111.75
394.29	1050.90
394.49	1198.35
394.68	1146.86
394.88	1053.24
395.07	1135.16
395.26	1165.59
395.46	1139.84
395.65	1158.57
395.84	1158.57
396.04	1146.86
396.23	1135.16
396.42	1135.16
396.62	1188.99
396.81	1219.42
397.00	1156.22
397.19	1200.69
397.39	1228.78
397.58	1252.19
397.77	1214.74
397.97	1198.35
398.16	1270.91
398.35	1275.59
398.55	1266.23
398.74	1282.61
398.93	1273.25
399.12	1287.29
399.32	1313.04
399.51	1299.00
399.70	1350.49
399.90	1268.57
400.09	1369.21
400.28	1376.24
400.47	1364.53
400.67	1528.37
400.86	1320.06
401.05	1380.92
401.24	1406.66
401.44	1490.92
401.63	1399.64
401.82	1413.68
402.01	1385.60
402.21	1390.28
402.40	1486.24
402.59	1540.07
402.78	1542.41
402.97	1509.65
403.17	1614.97
403.36	1556.46
403.55	1589.22
403.74	1638.38
403.93	1586.88
404.13	1650.08
404.32	1535.39
404.51	1612.63
404.70	1586.88
404.89	1490.92
405.09	1769.44
405.28	1708.59
405.47	1713.27
405.66	1678.16
405.85	1717.95
406.05	1760.08
406.24	1720.29
406.43	1696.89
406.62	1858.39
406.81	1830.30
407.00	1858.39
407.20	1717.95
407.39	1827.96
407.58	1856.04
407.77	1774.13
407.96	1851.36
408.15	1881.79
408.34	1823.28
408.54	1860.73
408.73	1881.79
408.92	2019.88
409.11	1982.43
409.30	1914.56
409.49	1968.39
409.68	1916.90
409.87	1954.35
410.07	2080.74
410.26	2038.61
410.45	2019.88
410.64	2066.69
410.83	2097.12
411.02	2141.59
411.21	2120.53
411.40	2237.55
411.59	2195.42
411.78	2115.84
411.98	2296.07
412.17	2265.64
412.36	2204.78
412.55	2385.01
412.74	2361.60
412.93	2256.28
413.12	2293.72
413.31	2513.74
413.50	2373.30
413.69	2413.09
413.88	2544.16
414.07	2413.09
414.26	2476.29
414.45	2424.80
414.64	2511.39
414.83	2693.96
415.02	2583.95
415.22	2789.92
415.41	2651.83
415.60	2698.64
415.79	2782.90
415.98	2600.34
416.17	2736.09
416.36	2710.34
416.55	2708.00
416.74	2782.90
416.93	2806.30
417.12	2693.96
417.31	2871.84
417.50	2801.62
417.69	2949.08
417.88	2937.37
418.07	2862.48
418.26	3007.59
418.45	2946.73
418.64	3012.27
418.83	2967.80
419.02	2937.37
419.21	3096.53
419.39	3063.76
419.58	3101.21
419.77	2958.44
419.96	3068.44
420.15	3133.98
420.34	3197.17
420.53	3173.77
420.72	3199.51
420.91	3309.52
421.10	3243.98
421.29	3318.88
421.48	3155.04
421.67	3400.80
421.86	3225.26
422.05	3222.92
422.24	3208.87
422.43	3255.69
422.61	3279.09
422.80	3288.45
422.99	3300.16
423.18	3323.56
423.37	3405.48
423.56	3325.90
423.75	3496.76
423.94	3358.67
424.13	3185.47
424.32	3290.79
424.50	3426.54
424.69	3485.06
424.88	3447.61
425.07	3295.47
425.26	3435.91
425.45	3379.73
425.64	3318.88
425.83	3485.06
426.01	3365.69
426.20	3463.99
426.39	3452.29
426.58	3325.90
426.77	3527.19
426.96	3557.61
427.15	3499.10
427.33	3485.06
427.52	3564.64
427.71	3634.85
427.90	3555.27
428.09	3672.30
428.28	3606.77
428.46	3623.15
428.65	3669.96
428.84	3728.47
429.03	3735.50
429.22	3527.19
429.40	3786.99
429.59	3801.03
429.78	3733.15
429.97	3613.79
430.16	3712.09
430.34	3740.18
430.53	3747.20
430.72	3779.97
430.91	3838.48
431.10	3913.38
431.28	3896.99
431.47	3801.03
431.66	3969.55
431.85	3850.18
432.03	3920.40
432.22	4170.83
432.41	4016.36
432.60	4009.34
432.79	3911.04
432.97	4016.36
433.16	4028.06
433.35	4053.81
433.54	4140.41
433.72	4198.92
433.91	4191.90
434.10	4210.62
434.28	4039.76
434.47	4194.24
434.66	4161.47
434.85	4262.12
435.03	4358.08
435.22	4313.61
435.41	4311.27
435.59	4311.27
435.78	4470.42
435.97	4353.40
436.16	4245.73
436.34	4367.44
436.53	4287.86
436.72	4332.33
436.90	4442.34
437.09	4437.66
437.28	4376.80
437.46	4414.25
437.65	4418.93
437.84	4496.17
438.02	4631.92
438.21	4547.66
438.40	4423.61
438.58	4690.43
438.77	4685.75
438.96	4648.30
439.14	4699.80
439.33	4800.44
439.52	4814.48
439.70	4805.12
439.89	4978.32
440.08	4975.98
440.26	4975.98
440.45	4990.02
440.63	5057.90
440.82	5048.54
441.01	5097.69
441.19	5015.77
441.38	5298.97
441.57	5273.23
441.75	5296.63
441.94	5434.72
442.12	5380.89
442.31	5479.19
442.50	5392.59
442.68	5352.81
442.87	5455.79
443.05	5387.91
443.24	5453.45
443.43	5516.64
443.61	5359.83
443.80	5638.35
443.98	5329.40
444.17	5364.51
444.35	5481.53
444.54	5640.69
444.73	5643.03
444.91	5607.92
445.10	5500.26
445.28	5584.52
445.47	5540.05
445.65	5509.62
445.84	5687.50
446.02	5626.65
446.21	5664.10
446.39	5678.14
446.58	5706.23
446.77	5582.18
446.95	5488.56
447.14	5577.50
447.32	5767.08
447.51	5582.18
447.69	5816.23
447.88	5617.29
448.06	5696.86
448.25	5736.65
448.43	5830.27
448.62	5715.59
448.80	5699.20
448.99	5706.23
449.17	5769.42
449.36	5678.14
449.54	5905.17
449.73	5884.11
449.91	5996.45
450.10	6108.80
450.28	6033.90
450.46	6108.80
450.65	6157.95
450.83	6015.18
451.02	6197.74
451.20	6139.23
451.39	6033.90
451.57	6059.65
451.76	5933.26
451.94	6164.97
452.13	6314.77
452.31	6160.29
452.49	6069.01
452.68	6289.02
452.86	6195.40
453.05	6209.44
453.23	6232.85
453.42	6148.59
453.60	6193.06
453.78	6162.63
453.97	6253.91
454.15	6310.08
454.34	6375.62
454.52	6410.73
454.70	6588.61
454.89	6595.63
455.07	6600.31
455.26	6487.96
455.44	6565.20
455.62	6520.73
455.81	6509.03
455.99	6607.33
456.17	6614.35
456.36	6764.15
456.54	6846.07
456.73	6766.49
456.91	6906.92
457.09	6892.88
457.28	7033.31
457.46	6935.01
457.64	7037.99
457.83	6909.26
458.01	7009.90
458.19	7089.48
458.38	7091.82
458.56	7023.95
458.74	6918.62
458.93	6974.80
459.11	7087.14
459.29	6984.16
459.48	7176.08
459.66	7365.67
459.84	7155.02
460.03	7492.05
460.21	7379.71
460.39	7368.01
460.57	7225.23
460.76	7323.54
460.94	7267.36
461.12	7445.24
461.31	7398.43
461.49	7297.79
461.67	7517.80
461.85	7536.52
462.04	7527.16
462.22	7838.45
462.40	7606.74
462.59	7815.05
462.77	7730.79
462.95	7637.17
463.13	7627.81
463.32	7908.67
463.50	7730.79
463.68	7852.50
463.86	7688.66
464.05	7847.82
464.23	7721.43
464.41	7843.14
464.59	7894.63
464.78	8072.51
464.96	7946.12
465.14	7756.54
465.32	7901.65
465.50	8074.85
465.69	7969.52
465.87	7915.69
466.05	8203.58
466.23	8112.30
466.41	7997.61
466.60	8255.07
466.78	7962.50
466.96	7873.56
467.14	8318.26
467.32	8222.30
467.51	8292.52
467.69	8011.65
467.87	8294.86
468.05	8184.85
468.23	8163.79
468.41	8266.77
468.60	8329.97
468.78	8407.20
468.96	8503.17
469.14	8365.07
469.32	8683.39
469.50	8423.59
469.69	8585.08
469.87	8718.50
470.05	8533.59
470.23	8896.38
470.41	8723.18
470.59	8725.52
470.77	8765.31
470.95	8613.17
471.14	9004.04
471.32	8807.44
471.50	8812.12
471.68	8814.46
471.86	9121.07
472.04	8973.61
472.22	9224.05
472.40	9202.99
472.58	9212.35
472.77	9322.35
472.95	9245.12
473.13	9661.73
473.31	9376.19
473.49	9198.31
473.67	9411.29
473.85	9415.98
474.03	9685.14
474.21	9612.58
474.39	9788.12
474.57	9600.88
474.75	9593.86
474.93	9830.25
475.12	9806.84
475.30	9977.70
475.48	9781.10
475.66	9778.76
475.84	10010.47
476.02	10164.95
476.20	10162.61
476.38	10211.76
476.56	10249.21
476.74	10317.08
476.92	10523.05
477.10	10401.34
477.28	10436.45
477.46	10721.99
477.64	10675.18
477.82	10682.20
478.00	11033.29
478.18	10981.79
478.36	10932.64
478.54	11070.73
478.72	11133.93
478.90	11449.90
479.08	11562.25
479.26	11541.18
479.44	11735.45
479.62	11843.11
479.80	11737.79
479.98	11789.28
480.16	12229.30
480.34	11988.22
480.52	12035.03
480.70	12219.94
480.88	12194.19
481.06	12191.85
481.24	12142.70
481.41	12507.82
481.59	12627.19
481.77	12765.28
481.95	12587.40
482.13	12849.54
482.31	12725.49
482.49	13090.62
482.67	13327.01
482.85	13357.44
483.03	13336.37
483.21	13540.00
483.39	13603.19
483.57	13451.06
483.74	13626.60
483.92	13785.76
484.10	13991.72
484.28	14204.71
484.46	14366.21
484.64	14342.80
484.82	14298.33
485.00	14420.04
485.18	14705.59
485.35	14967.73
485.53	14913.89
485.71	15023.90
485.89	15267.31
486.07	15140.93
486.25	15133.90
486.43	15625.42
486.61	15391.36
486.78	15632.44
486.96	16016.29
487.14	15978.84
487.32	15819.68
487.50	16039.69
487.68	16269.06
487.85	16285.45
488.03	16549.93
488.21	16575.67
488.39	16695.04
488.57	16865.90
488.75	16985.27
488.92	17259.11
489.10	17331.67
489.28	17436.99
489.46	17717.86
489.64	17371.46
489.81	17963.61
489.99	17792.75
490.17	18202.35
490.35	18373.21
490.53	18401.29
490.70	18370.86
490.88	18211.71
491.06	18712.58
491.24	18555.77
491.41	18981.74
491.59	18963.02
491.77	18948.98
491.95	19159.63
492.13	19363.25
492.30	19304.74
492.48	19742.42
492.66	19756.46
492.84	19693.27
493.01	20051.37
493.19	19934.34
493.37	20231.59
493.54	19936.68
493.72	20381.38
493.90	20566.29
494.08	20496.07
494.25	20704.38
494.43	20727.78
494.61	20994.61
494.79	21071.84
494.96	20964.18
495.14	21458.03
495.32	21378.45
495.49	21350.37
495.67	21511.86
495.85	21752.94
496.02	21745.92
496.20	22003.38
496.38	22066.57
496.55	21848.90
496.73	22455.10
496.91	22375.52
497.09	22537.02
497.26	22663.41
497.44	22782.77
497.62	22682.13
497.79	23042.57
497.97	22864.69
498.14	23293.01
498.32	23587.92
498.50	23278.97
498.67	23400.68
498.85	23353.87
499.03	23323.44
499.20	23658.14
499.38	23929.64
499.56	24051.34
499.73	24325.19
499.91	24039.64
500.08	24364.98
500.26	24030.28
500.44	24528.81
500.61	24582.65
500.79	24652.86
500.97	24774.57
501.14	25027.35
501.32	24982.88
501.49	25193.53
501.67	25097.56
501.84	25263.74
502.02	25408.86
502.20	25408.86
502.37	25544.61
502.55	25359.70
502.72	25759.94
502.90	25579.71
503.07	25455.67
503.25	25944.84
503.43	26190.59
503.60	25799.73
503.78	26225.70
503.95	26024.42
504.13	26274.85
504.30	26204.64
504.48	26307.62
504.65	26581.46
504.83	26373.16
505.01	26665.72
505.18	26618.91
505.36	27087.02
505.53	27054.25
505.71	27070.64
505.88	27026.17
506.06	27372.57
506.23	27040.21
506.41	26625.93
506.58	27627.68
506.76	27615.98
506.93	27608.96
507.11	28072.39
507.28	27861.74
507.46	27976.42
507.63	28056.00
507.81	28032.60
507.98	28189.41
508.16	27728.33
508.33	27953.02
508.50	28133.24
508.68	28292.40
508.85	28779.23
509.03	28439.85
509.20	28638.80
509.38	29048.39
509.55	28884.55
509.73	29055.41
509.90	29024.98
510.08	29347.98
510.25	29118.60
510.42	29289.46
510.60	29219.25
510.77	29310.53
510.95	29626.50
511.12	29619.48
511.30	29689.70
511.47	29947.15
511.64	30162.48
511.82	29970.56
511.99	29553.94
512.17	30188.23
512.34	29993.97
512.51	30586.12
512.69	30604.84
512.86	30148.44
513.04	30515.90
513.21	30438.67
513.38	30892.73
513.56	30536.97
513.73	30766.34
513.90	30759.32
514.08	30661.02
514.25	31012.10
514.43	31087.00
514.60	31323.39
514.77	31218.07
514.95	31351.48
515.12	31180.62
515.29	31222.75
515.47	31508.29
515.64	31962.36
515.81	31449.78
515.99	31522.34
516.16	32268.97
516.33	32114.49
516.51	32266.63
516.68	32144.92
516.85	32086.40
517.03	32322.80
517.20	32243.22
517.37	32315.78
517.54	32292.37
517.72	32657.49
517.89	32470.25
518.06	32559.19
518.24	32826.01
518.41	32886.87
518.58	32734.73
518.75	32493.66
518.93	32947.72
519.10	33137.30
519.27	33235.61
519.45	33116.24
519.62	33404.13
519.79	32992.19
519.96	33266.03
520.14	33345.61
520.31	33137.30
520.48	33656.90
520.65	33795.00
520.83	33792.65
521.00	34251.40
521.17	33921.38
521.34	33827.76
521.52	33715.42
521.69	34338.00
521.86	34321.62
522.03	34429.28
522.20	34265.44
522.38	34623.54
522.55	34707.80
522.72	34686.74
522.89	34768.66
523.07	34923.13
523.24	35026.12
523.41	35112.72
523.58	34735.89
523.75	35049.52
523.92	35283.58
524.10	34801.43
524.27	35201.66
524.44	35372.52
524.61	35480.18
524.78	35566.78
524.96	35414.65
525.13	35665.08
525.30	35541.03
525.47	35519.97
525.64	36048.93
525.81	35721.26
525.98	36006.80
526.16	36020.84
526.33	36409.37
526.50	36280.64
526.67	35711.89
526.84	35915.52
527.01	35962.33
527.18	36444.48
527.36	36458.52
527.53	36282.98
527.70	36556.83
527.87	36851.73
528.04	36343.84
528.21	36353.20
528.38	36275.96
528.55	36683.22
528.72	36495.97
528.89	36694.92
529.07	36655.13
529.24	36687.90
529.41	36823.65
529.58	37097.49
529.75	36863.44
529.92	37076.43
530.09	36844.71
530.26	37074.09
530.43	37509.43
530.60	37170.05
530.77	37191.11
530.94	37598.37
531.11	37694.33
531.28	37333.89
531.46	37631.13
531.63	37518.79
531.80	37706.03
531.97	37865.19
532.14	37897.95
532.31	38171.80
532.48	38204.56
532.65	38349.68
532.82	37825.40
532.99	38003.28
533.16	37614.75
533.33	37921.36
533.50	38459.68
533.67	38038.39
533.84	37766.88
534.01	38780.34
534.18	38403.51
534.35	38621.18
534.52	38609.48
534.69	39189.93
534.86	38871.62
535.03	38691.40
535.20	38841.19
535.37	39124.40
535.54	38670.33
535.71	39028.43
535.88	39236.74
536.05	39154.82
536.22	39058.86
536.38	39281.21
536.55	39225.04
536.72	39306.96
536.89	39007.37
537.06	39522.29
537.23	39227.38
537.40	39803.15
537.57	39180.57
537.74	39454.41
537.91	39587.82
538.08	39651.02
538.25	39498.88
538.42	39440.37
538.59	40318.07
538.75	39643.99
538.92	40568.51
539.09	40271.26
539.26	40060.61
539.43	40240.83
539.60	40222.11
539.77	40175.30
539.94	40692.55
540.11	40271.26
540.28	40315.73
540.44	40421.05
540.61	39889.75
540.78	39768.04
540.95	40528.72
541.12	40444.46
541.29	40109.76
541.46	40697.24
541.62	40479.57
541.79	40641.06
541.96	40680.85
542.13	40526.38
542.30	40369.56
542.47	40854.05
542.63	40870.43
542.80	41141.94
542.97	41244.92
543.14	41621.75
543.31	41198.11
543.48	41434.50
543.64	41464.93
543.81	41638.13
543.98	41841.76
544.15	41654.51
544.32	41694.30
544.48	41635.79
544.65	41921.34
544.82	41860.48
544.99	41640.47
545.16	41851.12
545.32	41387.69
545.49	42291.14
545.66	42178.79
545.83	41907.29
546.00	42176.45
546.16	42272.42
546.33	42038.36
546.50	42108.58
546.67	42588.39
546.83	41567.91
547.00	42361.36
547.17	41675.58
547.34	42277.10
547.50	42370.72
547.67	43292.89
547.84	42368.38
548.00	42511.15
548.17	42256.03
548.34	42691.37
548.51	42932.45
548.67	42710.10
548.84	42660.94
549.01	42656.26
549.18	43021.39
549.34	42649.24
549.51	42843.51
549.68	43161.82
549.84	42801.38
550.01	43351.40
550.18	42810.74
550.34	42752.23
550.51	42972.24
550.68	42909.04
550.84	43063.52
551.01	43426.30
551.18	42904.36
551.34	43611.20
551.51	43669.72
551.68	43587.80
551.84	43103.31
552.01	43164.16
552.18	43583.12
552.34	43253.10
552.51	43402.89
552.68	43164.16
552.84	43615.88
553.01	43833.55
553.18	43704.82
553.34	43737.59
553.51	43793.76
553.67	44151.87
553.84	44268.89
554.01	44388.26
554.17	43768.02
554.34	43973.98
554.51	43943.56
554.67	43971.64
554.84	43861.64
555.00	43938.88
555.17	44006.75
555.33	43973.98
555.50	43959.94
555.67	43833.55
555.83	44268.89
556.00	44198.68
556.16	45167.66
556.33	44598.91
556.50	44577.84
556.66	44074.63
556.83	44039.52
556.99	44240.81
557.16	44369.54
557.32	44533.37
557.49	44786.15
557.65	44664.44
557.82	44811.90
557.98	44311.02
558.15	44729.98
558.32	44648.06
558.48	44444.43
558.65	44685.51
558.81	44582.52
558.98	44357.83
559.14	44460.82
559.31	44917.22
559.47	44687.85
559.64	44917.22
559.80	45394.69
559.97	45057.65
560.13	44311.02
560.30	45078.72
560.46	45251.92
560.63	45092.76
560.79	45331.50
560.96	45443.84
561.12	45226.17
561.29	45303.41
561.45	45476.61
561.61	44795.51
561.78	44839.98
561.94	44818.92
562.11	45275.32
562.27	45542.14
562.44	45076.38
562.60	45474.27
562.77	45373.63
562.93	45425.12
563.10	45453.20
563.26	45558.53
563.42	45710.66
563.59	45689.60
563.75	45567.89
563.92	45261.28
564.08	45399.37
564.24	45514.06
564.41	45247.24
564.57	45481.29
564.74	45530.44
564.90	45469.59
565.07	45734.07
565.23	45603.00
565.39	45666.19
565.56	45551.51
565.72	45350.22
565.88	45708.32
566.05	45830.03
566.21	45429.80
566.38	45703.64
566.54	45343.20
566.70	45415.76
566.87	46019.61
567.03	45970.46
567.19	45750.45
567.36	45661.51
567.52	45380.65
567.68	46422.19
567.85	46106.21
568.01	46237.28
568.17	45916.63
568.34	46047.70
568.50	45783.22
568.66	45675.55
568.83	46129.62
568.99	45883.86
569.15	45977.48
569.32	45794.92
569.48	46492.40
569.64	46337.93
569.81	46136.64
569.97	46188.13
570.13	46426.87
570.30	45748.11
570.46	46167.07
570.62	46099.19
570.78	46197.49
570.95	46061.74
571.11	46457.29
571.27	45893.22
571.43	46288.77
571.60	45855.78
571.76	45869.82
571.92	46522.83
572.09	45984.51
572.25	46136.64
572.41	45886.20
572.57	45925.99
572.74	46831.78
572.90	46483.04
573.06	46637.51
573.22	46288.77
573.38	46260.69
573.55	45996.21
573.71	46681.98
573.87	46351.97
574.03	46576.66
574.20	46431.55
574.36	46361.33
574.52	46784.97
574.68	46672.62
574.84	46759.22
575.01	46429.21
575.17	46787.31
575.33	46366.01
575.49	46492.40
575.65	46916.04
575.82	46384.74
575.98	46117.92
576.14	47023.70
576.30	46899.65
576.46	46684.33
576.62	46522.83
576.79	46534.53
576.95	46403.46
577.11	46382.40
577.27	46536.87
577.43	46398.78
577.59	46143.66
577.75	46862.21
577.92	46391.76
578.08	46813.05
578.24	46628.15
578.40	46536.87
578.56	46344.95
578.72	46794.33
578.88	46763.90
579.04	46693.69
579.21	46525.17
579.37	46384.74
579.53	46719.43
579.69	46536.87
579.85	46784.97
580.01	46735.82
580.17	46801.35
580.33	47004.98
580.49	47004.98
580.65	46768.58
580.82	46635.17
580.98	46410.48
581.14	46536.87
581.30	46745.18
581.46	46590.70
581.62	46459.63
581.78	46656.24
581.94	46770.93
582.10	46459.63
582.26	47185.20
582.42	46815.40
582.58	46710.07
582.74	46937.10
582.90	46770.93
583.06	47007.32
583.22	46714.75
583.38	46810.71
583.54	47253.08
583.70	46866.89
583.86	46773.27
584.02	46841.14
584.18	47234.35
584.34	47056.47
584.50	47168.82
584.66	46939.44
584.82	46993.28
584.98	47112.64
585.14	46981.57
585.30	46674.96
585.46	46595.38
585.62	46600.07
585.78	46904.34
585.94	46323.88
586.10	47007.32
586.26	46726.46
586.42	46871.57
586.58	46859.87
586.74	46705.39
586.90	46745.18
587.06	46763.90
587.22	46941.78
587.38	46632.83
587.54	47222.65
587.70	47143.07
587.86	47185.20
588.02	46642.20
588.18	47033.07
588.34	46894.97
588.49	46817.74
588.65	47257.76
588.81	47077.54
588.97	47114.98
589.13	47093.92
589.29	47342.02
589.45	47114.98
589.61	46969.87
589.77	47538.62
589.93	46777.95
590.08	47056.47
590.24	47655.65
590.40	47690.76
590.56	47468.40
590.72	47386.49
590.88	47009.66
591.04	46988.60
591.20	47220.31
591.35	47269.46
591.51	47482.45
591.67	47629.90
591.83	47655.65
591.99	47299.89
592.15	47260.10
592.31	47365.42
592.46	47241.37
592.62	47512.88
592.78	47590.11
592.94	47543.30
593.10	47746.93
593.26	47620.54
593.41	47840.55
593.57	47566.71
593.73	47742.25
593.89	47655.65
594.05	47681.39
594.20	47433.30
594.36	47973.96
594.52	47679.05
594.68	47597.13
594.84	47686.07
594.99	48030.13
595.15	47789.06
595.31	47903.74
595.47	47583.09
595.62	47828.85
595.78	47552.66
595.94	47758.63
596.10	47536.28
596.25	47913.11
596.41	47903.74
596.57	47187.54
596.73	47903.74
596.88	47442.66
597.04	48016.09
597.20	47767.99
597.36	47812.46
597.51	47880.34
597.67	47646.29
597.83	47852.25
597.99	47613.52
598.14	47632.24
598.30	47679.05
598.46	47517.56
598.61	48327.38
598.77	47662.67
598.93	47494.15
599.09	47791.40
599.24	48186.95
599.40	47805.44
599.56	47803.10
599.71	48418.66
599.87	48327.38
600.03	47992.68
600.18	47999.71
600.34	48090.99
600.50	47784.38
600.65	47868.64
600.81	48273.55
600.97	47995.03
601.12	47936.51
601.28	47665.01
601.44	47831.19
601.59	47934.17
601.75	47674.37
601.91	48423.34
602.06	47854.59
602.22	47601.82
602.37	48069.92
602.53	47454.36
602.69	47899.06
602.84	47552.66
603.00	47508.19
603.16	48074.60
603.31	47927.15
603.47	47587.77
603.62	47760.97
603.78	48247.80
603.94	48282.91
604.09	47753.95
604.25	47611.18
604.40	47878.00
604.56	47735.23
604.71	48278.23
604.87	47412.23
605.03	47732.89
605.18	47824.17
605.34	47840.55
605.49	47428.62
605.65	47552.66
605.80	47674.37
605.96	47203.92
606.12	47559.69
606.27	47812.46
606.43	47583.09
606.58	48013.75
606.74	47173.50
606.89	48137.80
607.05	47688.42
607.20	48329.72
607.36	47468.40
607.51	47414.57
607.67	47564.37
607.82	47627.56
607.98	47360.74
608.13	47569.05
608.29	47564.37
608.44	47943.53
608.60	47239.03
608.75	47423.93
608.91	47487.13
609.06	47187.54
609.22	47889.70
609.37	47878.00
609.53	47880.34
609.68	47978.64
609.84	47224.99
609.99	47859.27
610.15	47583.09
610.30	47615.86
610.46	47559.69
610.61	47147.75
610.76	47229.67
610.92	47070.51
611.07	47365.42
611.23	47491.81
611.38	47337.33
611.54	47590.11
611.69	47672.03
611.84	47817.14
612.00	47700.12
612.15	47028.38
612.31	47260.10
612.46	46796.67
612.62	47510.53
612.77	46836.46
612.92	47405.21
613.08	46651.56
613.23	47164.14
613.39	47381.80
613.54	47437.98
613.69	47217.97
613.85	47126.69
614.00	47246.05
614.15	47124.35
614.31	47250.74
614.46	47243.71
614.62	46824.76
614.77	47093.92
614.92	47044.77
615.08	46735.82
615.23	47175.84
615.38	46923.06
615.54	46911.36
615.69	47033.07
615.84	46979.23
616.00	47356.06
616.15	47271.80
616.30	47196.90
616.46	46953.49
616.61	47030.72
616.76	46979.23
616.92	46724.11
617.07	46965.19
617.22	46651.56
617.37	46536.87
617.53	46892.63
617.68	46461.97
617.83	46515.81
617.99	46796.67
618.14	47571.39
618.29	46389.42
618.45	46387.08
618.60	46543.89
618.75	46195.15
618.90	46415.16
619.06	46665.60
619.21	46562.62
619.36	46607.09
619.51	46717.09
619.67	46361.33
619.82	46307.50
619.97	47028.38
620.12	46319.20
620.28	46298.14
620.43	46443.25
620.58	46508.79
620.73	46614.11
620.89	47100.94
621.04	46745.18
621.19	46375.37
621.34	46323.88
621.49	46263.03
621.65	46630.49
621.80	46667.94
621.95	46384.74
622.10	46190.47
622.25	46073.45
622.41	46424.53
622.56	45970.46
622.71	46356.65
622.86	46234.94
623.01	46759.22
623.16	45937.69
623.32	46286.43
623.47	46314.52
623.62	46176.43
623.77	46363.67
623.92	45682.58
624.07	45993.87
624.23	46204.52
624.38	46195.15
624.53	46169.41
624.68	45638.11
624.83	46146.00
624.98	46068.76
625.13	45607.68
625.29	45874.50
625.44	45837.05
625.59	45815.99
625.74	45710.66
625.89	45492.99
626.04	45640.45
626.19	45635.77
626.34	45518.74
626.49	45624.06
626.65	45092.76
626.80	45656.83
626.95	45310.43
627.10	45394.69
627.25	45736.41
627.40	45345.54
627.55	45324.47
627.70	45429.80
627.85	45727.05
628.00	45624.06
628.15	45294.05
628.30	44933.60
628.45	45214.47
628.60	44896.16
628.76	45514.06
628.91	44884.45
629.06	44954.67
629.21	44655.08
629.36	44797.85
629.51	45008.50
629.66	45397.03
629.81	45160.64
629.96	45048.29
630.11	44926.58
630.26	44760.40
630.41	45001.48
630.56	44980.42
630.71	45001.48
630.86	44648.06
631.01	44378.90
631.16	44914.88
631.31	44655.08
631.46	44236.12
631.61	45038.93
631.76	45130.21
631.91	44729.98
632.06	45375.97
632.21	45062.33
632.36	44940.63
632.51	44404.64
632.66	44484.22
632.81	44495.92
632.96	44594.23
633.10	44498.26
633.25	44863.39
633.40	44694.87
633.55	44949.99
633.70	44697.21
633.85	44535.71
634.00	43952.92
634.15	44437.41
634.30	44402.30
634.45	44289.96
634.60	44509.97
634.75	44210.38
634.90	44371.88
635.05	44729.98
635.19	44376.56
635.34	44847.00
635.49	44133.14
635.64	44091.01
635.79	44170.59
635.94	43931.86
636.09	44259.53
636.24	44194.00
636.39	44252.51
636.53	44238.47
636.68	43700.14
636.83	43576.09
636.98	44509.97
637.13	44091.01
637.28	43667.37
637.43	43910.79
637.57	43501.20
637.72	43763.34
637.87	43620.56
638.02	43395.87
638.17	43952.92
638.32	44100.37
638.46	43360.76
638.61	43353.74
638.76	43730.57
638.91	43620.56
639.06	43505.88
639.20	43381.83
639.35	43227.35
639.50	43250.76
639.65	43566.73
639.80	43817.17
639.94	43466.09
640.09	43533.96
640.24	43742.27
640.39	43133.73
640.54	43021.39
640.68	42878.61
640.83	43669.72
640.98	43136.07
641.13	43402.89
641.27	43098.62
641.42	43278.85
641.57	43402.89
641.72	43335.02
641.86	42902.02
642.01	42777.97
642.16	42885.64
642.31	42869.25
642.45	42850.53
642.60	42738.18
642.75	42913.72
642.90	42967.55
643.04	43136.07
643.19	43082.24
643.34	42899.68
643.48	42555.62
643.63	42490.09
643.78	42859.89
643.93	43023.73
644.07	43131.39
644.22	42581.37
644.37	42651.58
644.51	42792.01
644.66	42759.25
644.81	43035.43
644.95	42679.67
645.10	42696.05
645.25	42298.16
645.39	42155.39
645.54	42471.36
645.69	42237.31
645.83	42127.30
645.98	42333.27
646.13	42408.17
646.27	41993.89
646.42	42384.76
646.57	42309.86
646.71	42583.71
646.86	42225.60
647.00	42344.97
647.15	42335.61
647.30	42408.17
647.44	41986.87
647.59	42199.86
647.74	42454.98
647.88	41963.46
648.03	42176.45
648.17	42408.17
648.32	42639.88
648.47	42284.12
648.61	41886.23
648.76	41783.24
648.90	41888.57
649.05	41897.93
649.20	42082.83
649.34	41895.59
649.49	42291.14
649.63	41666.22
649.78	42029.00
649.92	42171.77
650.07	41996.23
650.21	42033.68
650.36	42366.04
650.51	41628.77
650.65	42113.26
650.80	41794.95
650.94	41811.33
651.09	41785.58
651.23	41345.56
651.38	41432.16
651.52	40552.12
651.67	41549.19
651.81	40968.74
651.96	41329.18
652.10	40835.33
652.25	41186.41
652.39	41289.39
652.54	41390.03
652.68	41399.40
652.83	41649.83
652.97	41706.01
653.12	41441.53
653.26	41244.92
653.41	41350.24
653.55	41165.34
653.70	41523.44
653.84	41420.46
653.99	41247.26
654.13	41151.30
654.27	41153.64
654.42	41118.53
654.56	41024.91
654.71	41053.00
654.85	41003.85
655.00	41144.28
655.14	41345.56
655.29	41078.74
655.43	41422.80
655.57	40985.12
655.72	40629.36
655.86	41043.63
656.01	40645.74
656.15	40385.94
656.30	40442.12
656.44	41055.34
656.58	40617.66
656.73	40807.24
656.87	40381.26
657.01	40430.41
657.16	40481.91
657.30	40587.23
657.45	40404.67
657.59	40339.13
657.73	40236.15
657.88	40383.60
658.02	40313.39
658.16	40921.93
658.31	39985.71
658.45	40432.75
658.60	40217.43
658.74	40451.48
658.88	40095.72
659.03	39835.92
659.17	39812.51
659.31	39871.03
659.46	39512.92
659.60	40142.53
659.74	39999.76
659.89	39702.51
660.03	39250.78
660.17	39618.25
660.32	39716.55
660.46	39917.84
660.60	39533.99
660.74	39840.60
660.89	39550.37
661.03	39253.12
661.17	39557.39
661.32	39232.06
661.46	39398.24
661.60	39220.36
661.74	39103.33
661.89	39012.05
662.03	39714.21
662.17	38822.47
662.31	38763.95
662.46	38998.01
662.60	38506.49
662.74	38560.33
662.88	38756.93
663.03	38246.69
663.17	38260.74
663.31	38302.87
663.45	38689.06
663.60	38803.74
663.74	38614.16
663.88	38263.08
664.02	38335.63
664.17	38389.47
664.31	38246.69
664.45	38089.88
664.59	38258.40
664.73	38438.62
664.88	38148.39
665.02	38202.22
665.16	38000.94
665.30	38071.15
665.44	37881.57
665.59	37315.16
665.73	37806.67
665.87	37104.51
666.01	37860.51
666.15	37577.30
666.29	37046.00
666.44	37670.92
666.58	37053.02
666.72	37221.54
666.86	37476.66
667.00	37324.52
667.14	37127.92
667.28	37088.13
667.43	37172.39
667.57	37675.60
667.71	37017.91
667.85	37113.87
667.99	36891.52
668.13	36924.29
668.27	36701.94
668.41	36304.05
668.56	35985.74
668.70	36301.71
668.84	36250.22
668.98	36315.75
669.12	36463.21
669.26	36446.82
669.40	36442.14
669.54	36313.41
669.68	36769.82
669.82	35730.62
669.96	36006.80
670.10	35473.16
670.25	35730.62
670.39	35714.23
670.53	35929.56
670.67	35428.69
670.81	35847.64
670.95	35700.19
671.09	35695.51
671.23	35365.49
671.37	35564.44
671.51	35295.28
671.65	35175.91
671.79	35290.60
671.93	35768.07
672.07	35124.42
672.21	34656.31
672.35	34600.14
672.49	35243.79
672.63	34707.80
672.77	34761.64
672.91	34682.06
673.05	34548.65
673.19	34370.77
673.33	34160.12
673.47	34394.17
673.61	34178.84
673.75	33675.63
673.89	33830.10
674.03	34146.08
674.17	33675.63
674.31	33715.42
674.45	33947.13
674.59	33582.01
674.73	33432.21
674.87	33413.49
675.01	33443.91
675.15	32711.33
675.29	33216.88
675.43	33242.63
675.56	33046.02
675.70	32987.51
675.84	33125.60
675.98	32006.83
676.12	33010.92
676.26	32912.61
676.40	32772.18
676.54	32542.81
676.68	32095.77
676.82	31789.16
676.96	32067.68
677.10	32486.64
677.23	32393.01
677.37	32201.09
677.51	32098.11
677.65	31924.91
677.79	32063.00
677.93	31374.88
678.07	31683.83
678.21	31400.63
678.34	31447.44
678.48	31012.10
678.62	31075.29
678.76	31087.00
678.90	30831.88
679.04	31103.38
679.18	30848.26
679.31	30445.69
679.45	30749.96
679.59	30054.82
679.73	30433.99
679.87	30221.00
680.00	30272.49
680.14	30244.40
680.28	29898.00
680.42	30024.39
680.56	29563.31
680.70	29535.22
680.83	29703.74
680.97	29434.58
681.11	29710.76
681.25	29170.10
681.39	29259.04
681.52	29347.98
681.66	28882.21
681.80	28627.09
681.94	28573.26
682.07	28538.15
682.21	28355.59
682.35	28095.79
682.49	28320.48
682.62	28517.09
682.76	28474.96
682.90	27962.38
683.04	27983.44
683.17	27999.83
683.31	27688.54
683.45	27683.86
683.59	27250.86
683.72	27466.19
683.86	27356.18
684.00	27592.58
684.13	27208.73
684.27	27042.55
684.41	27051.91
684.55	27295.33
684.68	26749.98
684.82	26522.95
684.96	26712.53
685.09	26785.09
685.23	26843.60
685.37	26806.16
685.50	26930.20
685.64	26455.08
685.78	26113.36
685.91	25975.27
686.05	25542.27
686.19	25429.92
686.32	25551.63
686.46	25523.54
686.60	25261.40
686.73	25422.90
686.87	25219.27
687.01	25404.17
687.14	25245.02
687.28	24762.87
687.42	25275.45
687.55	24973.52
687.69	24723.08
687.82	24491.37
687.96	24580.31
688.10	24505.41
688.23	24797.98
688.37	24606.05
688.50	24687.97
688.64	24229.23
688.78	24240.93
688.91	24217.52
689.05	24154.33
689.18	23887.51
689.32	23424.08
689.46	23449.83
689.59	23681.54
689.73	23686.22
689.86	23873.46
690.00	23524.72
690.13	23534.09
690.27	23175.98
690.41	22796.82
690.54	22684.47
690.68	22480.85
690.81	22916.19
690.95	22579.15
691.08	22731.28
691.22	22427.01
691.35	22373.18
691.49	22515.95
691.62	22504.25
691.76	22001.04
691.89	21823.16
692.03	21678.04
692.16	21570.38
692.30	21387.82
692.43	21713.15
692.57	21626.55
692.70	21420.58
692.84	21394.84
692.97	21341.00
693.11	21111.63
693.24	21111.63
693.38	20587.35
693.51	20814.38
693.65	20819.07
693.78	20697.36
693.92	20900.98
694.05	20521.82
694.19	20505.43
694.32	20142.65
694.45	20393.09
694.59	20528.84
694.72	20577.99
694.86	19873.49
694.99	20030.30
695.13	19953.07
695.26	19609.01
695.39	19271.97
695.53	19735.40
695.66	19119.84
695.80	19459.21
695.93	19246.23
696.07	19002.81
696.20	18649.39
696.33	18679.82
696.47	18731.31
696.60	18705.56
696.73	18726.63
696.87	19028.56
697.00	18686.84
697.14	18623.64
697.27	18326.39
697.40	18476.19
697.54	18281.92
697.67	18185.96
697.80	18244.48
697.94	18033.83
698.07	18038.51
698.21	18108.72
698.34	17678.07
698.47	17652.32
698.61	17263.79
698.74	17383.16
698.87	17453.37
699.01	17392.52
699.14	17137.40
699.27	17214.64
699.40	17114.00
699.54	16870.58
699.67	16936.12
699.80	16978.25
699.94	16807.39
700.07	17003.99
700.20	16723.13
700.34	16681.00
700.47	16673.98
700.60	16908.03
700.73	16449.28
700.87	16112.25
701.00	16027.99
701.13	15939.05
701.26	16189.49
701.40	16009.26
701.53	16257.36
701.66	15932.03
701.79	15697.97
701.93	15569.24
702.06	15468.60
702.19	15676.91
702.32	15515.41
702.46	15407.75
702.59	15447.54
702.72	15545.84
702.85	15330.51
702.99	15234.55
703.12	14902.19
703.25	14899.85
703.38	14857.72
703.51	14759.42
703.65	14593.24
703.78	14394.29
703.91	14244.50
704.04	14548.77
704.17	14331.10
704.31	14356.85
704.44	14434.08
704.57	14157.90
704.70	14153.22
704.83	14085.34
704.96	13785.76
705.10	13991.72
705.23	13806.82
>>>>>End Processed Spectral Data<<<<<
