SpectraSuite Data File
++++++++++++++++++++++++++++++++++++
Date: Fri Oct 25 11:34:27 EDT 2013
User: price-jones
Dark Spectrum Present: No
Reference Spectrum Present: No
Number of Sampled Component Spectra: 1
Spectrometers: USB2+H05261
Integration Time (usec): 100000 (USB2+H05261)
Spectra Averaged: 1 (USB2+H05261)
Boxcar Smoothing: 0 (USB2+H05261)
Correct for Electrical Dark: No (USB2+H05261)
Strobe/Lamp Enabled: No (USB2+H05261)
Correct for Detector Non-linearity: No (USB2+H05261)
Correct for Stray Light: No (USB2+H05261)
Number of Pixels in Processed Spectrum: 2048
>>>>>Begin Processed Spectral Data<<<<<
365.73	245.76
365.92	245.76
366.12	245.76
366.32	177.88
366.52	182.56
366.72	236.39
366.91	114.69
367.11	180.22
367.31	189.58
367.51	196.60
367.70	201.29
367.90	184.90
368.10	149.79
368.30	205.97
368.49	191.92
368.69	168.52
368.89	241.08
369.09	187.24
369.28	243.42
369.48	198.95
369.68	250.44
369.87	313.63
370.07	245.76
370.27	238.73
370.47	325.33
370.66	416.62
370.86	491.51
371.06	566.41
371.25	568.75
371.45	514.92
371.65	578.11
371.84	496.19
372.04	500.87
372.24	580.45
372.44	552.37
372.63	554.71
372.83	685.78
373.03	587.47
373.22	603.86
373.42	496.19
373.62	624.92
373.81	601.52
374.01	667.05
374.21	653.01
374.40	645.99
374.60	725.57
374.79	657.69
374.99	603.86
375.19	641.31
375.38	667.05
375.58	653.01
375.78	688.12
375.97	692.80
376.17	699.82
376.37	545.34
376.56	653.01
376.76	669.39
376.95	631.94
377.15	711.52
377.35	765.36
377.54	741.95
377.74	723.23
377.93	648.33
378.13	676.41
378.33	599.18
378.52	615.56
378.72	671.73
378.91	716.20
379.11	697.48
379.31	748.97
379.50	676.41
379.70	760.67
379.89	725.57
380.09	706.84
380.28	688.12
380.48	688.12
380.68	681.10
380.87	713.86
381.07	758.33
381.26	821.53
381.46	697.48
381.65	746.63
381.85	770.04
382.04	734.93
382.24	800.46
382.43	711.52
382.63	709.18
382.83	732.59
383.02	821.53
383.22	816.85
383.41	767.70
383.61	772.38
383.80	777.06
384.00	835.57
384.19	744.29
384.39	805.14
384.58	793.44
384.78	765.36
384.97	891.74
385.17	856.64
385.36	856.64
385.56	746.63
385.75	814.51
385.95	821.53
386.14	882.38
386.34	833.23
386.53	830.89
386.72	844.93
386.92	870.68
387.11	905.79
387.31	849.61
387.50	915.15
387.70	802.80
387.89	940.90
388.09	901.11
388.28	823.87
388.48	905.79
388.67	875.36
388.86	877.70
389.06	954.94
389.25	896.43
389.45	875.36
389.64	863.66
389.84	957.28
390.03	959.62
390.22	950.26
390.42	929.19
390.61	926.85
390.81	961.96
391.00	980.68
391.19	964.30
391.39	931.53
391.58	964.30
391.78	919.83
391.97	950.26
392.16	1020.47
392.36	966.64
392.55	1006.43
392.75	1043.88
392.94	1020.47
393.13	1088.35
393.33	1027.50
393.52	1036.86
393.71	1109.41
393.91	1118.78
394.10	1071.97
394.29	1107.07
394.49	1083.67
394.68	1050.90
394.88	1107.07
395.07	1146.86
395.26	1123.46
395.46	1090.69
395.65	1144.52
395.84	1125.80
396.04	1203.04
396.23	1151.54
396.42	1055.58
396.62	1165.59
396.81	1188.99
397.00	1149.20
397.19	1212.40
397.39	1228.78
397.58	1240.48
397.77	1137.50
397.97	1282.61
398.16	1245.16
398.35	1268.57
398.55	1301.34
398.74	1315.38
398.93	1256.87
399.12	1282.61
399.32	1282.61
399.51	1252.19
399.70	1313.04
399.90	1207.72
400.09	1313.04
400.28	1320.06
400.47	1313.04
400.67	1369.21
400.86	1343.47
401.05	1282.61
401.24	1401.98
401.44	1394.96
401.63	1409.00
401.82	1345.81
402.01	1411.34
402.21	1418.36
402.40	1385.60
402.59	1385.60
402.78	1446.45
402.97	1397.30
403.17	1495.60
403.36	1528.37
403.55	1537.73
403.74	1511.99
403.93	1568.16
404.13	1614.97
404.32	1577.52
404.51	1568.16
404.70	1570.50
404.89	1544.75
405.09	1614.97
405.28	1664.12
405.47	1500.28
405.66	1626.67
405.85	1671.14
406.05	1593.90
406.24	1593.90
406.43	1647.74
406.62	1734.34
406.81	1849.02
407.00	1736.68
407.20	1703.91
407.39	1706.25
407.58	1760.08
407.77	1706.25
407.96	1767.10
408.15	1832.64
408.34	1781.15
408.54	1795.19
408.73	1846.68
408.92	1884.13
409.11	1867.75
409.30	1912.22
409.49	1949.67
409.68	1863.07
409.87	1842.00
410.07	1928.60
410.26	1975.41
410.45	1977.75
410.64	2050.31
410.83	2101.80
411.02	1996.48
411.21	2122.87
411.40	2101.80
411.59	2125.21
411.78	2157.97
411.98	2097.12
412.17	2111.16
412.36	2139.25
412.55	2134.57
412.74	2202.44
412.93	2293.72
413.12	2277.34
413.31	2232.87
413.50	2310.11
413.69	2246.91
413.88	2429.48
414.07	2349.90
414.26	2408.41
414.45	2420.11
414.64	2487.99
414.83	2375.64
415.02	2457.56
415.22	2539.48
415.41	2502.03
415.60	2595.65
415.79	2619.06
415.98	2590.97
416.17	2544.16
416.36	2649.49
416.55	2560.55
416.74	2747.79
416.93	2764.17
417.12	2768.85
417.31	2726.72
417.50	2738.43
417.69	2778.22
417.88	2764.17
418.07	2789.92
418.26	2874.18
418.45	2818.00
418.64	3005.25
418.83	2958.44
419.02	3019.29
419.21	3075.46
419.39	2909.29
419.58	2977.16
419.77	2972.48
419.96	3096.53
420.15	3054.40
420.34	3038.02
420.53	3035.67
420.72	3192.49
420.91	3007.59
421.10	3194.83
421.29	3187.81
421.48	3138.66
421.67	3241.64
421.86	3103.55
422.05	3094.19
422.24	3148.02
422.43	3208.87
422.61	3190.15
422.80	3183.13
422.99	3377.39
423.18	3236.96
423.37	3332.92
423.56	3295.47
423.75	3211.22
423.94	3272.07
424.13	3038.02
424.32	3098.87
424.50	3204.19
424.69	3274.41
424.88	3346.97
425.07	3215.90
425.26	3220.58
425.45	3314.20
425.64	3330.58
425.83	3265.05
426.01	3375.05
426.20	3513.14
426.39	3260.37
426.58	3368.03
426.77	3403.14
426.96	3262.71
427.15	3485.06
427.33	3396.12
427.52	3286.11
427.71	3419.52
427.90	3447.61
428.09	3468.67
428.28	3548.25
428.46	3492.08
428.65	3588.04
428.84	3583.36
429.03	3658.26
429.22	3604.42
429.40	3641.87
429.59	3627.83
429.78	3545.91
429.97	3431.23
430.16	3447.61
430.34	3716.77
430.53	3620.81
430.72	3730.81
430.91	3693.37
431.10	3887.63
431.28	3803.37
431.47	3873.59
431.66	3904.01
431.85	3775.28
432.03	3822.09
432.22	3873.59
432.41	3995.29
432.60	3974.23
432.79	3922.74
432.97	4081.89
433.16	3927.42
433.35	3927.42
433.54	3969.55
433.72	4072.53
433.91	3955.51
434.10	3906.35
434.28	3974.23
434.47	4124.02
434.66	4205.94
434.85	4032.74
435.03	4224.67
435.22	4266.80
435.41	4219.99
435.59	4166.15
435.78	4182.54
435.97	4121.68
436.16	4203.60
436.34	4217.65
436.53	4140.41
436.72	4318.29
436.90	4189.56
437.09	4269.14
437.28	4196.58
437.46	4273.82
437.65	4435.32
437.84	4468.08
438.02	4411.91
438.21	4379.14
438.40	4482.13
438.58	4730.22
438.77	4601.49
438.96	4482.13
439.14	4634.26
439.33	4765.33
439.52	4634.26
439.70	4903.42
439.89	4877.68
440.08	4798.10
440.26	4877.68
440.45	4730.22
440.63	4875.34
440.82	4910.44
441.01	4980.66
441.19	4884.70
441.38	5078.96
441.57	5036.83
441.75	5062.58
441.94	5142.16
442.12	5128.11
442.31	5039.17
442.50	5125.77
442.68	5310.68
442.87	5242.80
443.05	5263.86
443.24	5366.85
443.43	5275.57
443.61	5408.98
443.80	5359.83
443.98	5043.85
444.17	5088.32
444.35	5441.75
444.54	5533.03
444.73	5465.15
444.91	5418.34
445.10	5322.38
445.28	5446.43
445.47	5268.55
445.65	5350.46
445.84	5486.22
446.02	5544.73
446.21	5488.56
446.39	5420.68
446.58	5640.69
446.77	5582.18
446.95	5423.02
447.14	5397.28
447.32	5554.09
447.51	5483.88
447.69	5563.45
447.88	5610.26
448.06	5575.16
448.25	5451.11
448.43	5579.84
448.62	5706.23
448.80	5558.77
448.99	5713.25
449.17	5746.02
449.36	5675.80
449.54	5666.44
449.73	5708.57
449.91	5865.38
450.10	5893.47
450.28	5895.81
450.46	5816.23
450.65	5874.74
450.83	5839.64
451.02	5753.04
451.20	6029.22
451.39	5921.56
451.57	6038.58
451.76	5937.94
451.94	5982.41
452.13	5996.45
452.31	6085.39
452.49	6015.18
452.68	5909.85
452.86	6061.99
453.05	6129.86
453.23	6026.88
453.42	5975.39
453.60	5989.43
453.78	6038.58
453.97	6260.93
454.15	6197.74
454.34	6080.71
454.52	6352.21
454.70	6249.23
454.89	6328.81
455.07	6249.23
455.26	6370.94
455.44	6345.19
455.62	6459.88
455.81	6228.17
455.99	6401.37
456.17	6420.09
456.36	6462.22
456.54	6553.50
456.73	6665.85
456.91	6778.19
457.09	6670.53
457.28	6665.85
457.46	6696.27
457.64	6930.33
457.83	6745.42
458.01	6771.17
458.19	6970.12
458.38	6899.90
458.56	6766.49
458.74	6913.94
458.93	6764.15
459.11	6794.58
459.29	6771.17
459.48	6822.66
459.66	6848.41
459.84	7023.95
460.03	7192.47
460.21	7012.24
460.39	7129.27
460.57	7059.06
460.76	6944.37
460.94	7091.82
461.12	7229.91
461.31	7236.94
461.49	7030.97
461.67	7091.82
461.85	7396.09
462.04	7344.60
462.22	7861.86
462.40	7492.05
462.59	7274.38
462.77	7499.08
462.95	7396.09
463.13	7431.20
463.32	7566.95
463.50	7433.54
463.68	7566.95
463.86	7625.47
464.05	7360.98
464.23	7456.95
464.41	7433.54
464.59	7595.04
464.78	7903.99
464.96	7735.47
465.14	7379.71
465.32	7630.15
465.50	7793.98
465.69	7796.32
465.87	7740.15
466.05	7712.07
466.23	7894.63
466.41	7831.43
466.60	8201.24
466.78	7796.32
466.96	7801.01
467.14	7845.48
467.32	8039.74
467.51	8006.97
467.69	7880.58
467.87	7995.27
468.05	8161.45
468.23	7978.89
468.41	7976.55
468.60	8030.38
468.78	8372.10
468.96	8004.63
469.14	8299.54
469.32	8208.26
469.50	8107.62
469.69	8154.43
469.87	8428.27
470.05	8175.49
470.23	8306.56
470.41	8463.38
470.59	8564.02
470.77	8369.76
470.95	8346.35
471.14	8695.09
471.32	8311.24
471.50	8472.74
471.68	8594.45
471.86	8655.30
472.04	8706.79
472.22	8788.71
472.40	8718.50
472.58	8879.99
472.77	8929.14
472.95	8861.27
473.13	9039.15
473.31	8865.95
473.49	8985.32
473.67	9025.11
473.85	9210.01
474.03	9252.14
474.21	9217.03
474.39	9327.03
474.57	9582.15
474.75	9694.50
474.93	9488.53
475.12	9469.81
475.30	9703.86
475.48	9390.23
475.66	9654.71
475.84	9554.07
476.02	9856.00
476.20	9731.95
476.38	9823.23
476.56	10228.14
476.74	10052.60
476.92	9991.75
477.10	10061.96
477.28	10033.88
477.46	10207.08
477.64	10246.87
477.82	10473.90
478.00	10611.99
478.18	10623.69
478.36	11084.78
478.54	10843.70
478.72	10970.09
478.90	10918.60
479.08	11080.10
479.26	11075.42
479.44	11215.85
479.62	11192.44
479.80	11463.94
479.98	11513.10
480.16	11800.98
480.34	11538.84
480.52	11470.97
480.70	11536.50
480.88	11749.49
481.06	11791.62
481.24	11927.37
481.41	11850.13
481.59	12119.29
481.77	12163.76
481.95	12435.27
482.13	12372.07
482.31	12334.62
482.49	12596.76
482.67	12594.42
482.85	12812.09
483.03	12975.93
483.21	13018.06
483.39	13200.62
483.57	13018.06
483.74	13217.01
483.92	13535.32
484.10	13399.57
484.28	13579.79
484.46	13884.06
484.64	14012.79
484.82	13813.84
485.00	14235.14
485.18	14288.97
485.35	14518.34
485.53	14146.20
485.71	14415.36
485.89	14806.23
486.07	14544.09
486.25	14839.00
486.43	14862.40
486.61	14963.04
486.78	15073.05
486.96	15084.75
487.14	15225.18
487.32	15211.14
487.50	15602.01
487.68	15889.90
487.85	15775.21
488.03	15793.94
488.21	16210.55
488.39	16236.30
488.57	16561.63
488.75	16470.35
488.92	16486.73
489.10	16718.45
489.28	16739.51
489.46	16968.88
489.64	16882.28
489.81	17301.24
489.99	17128.04
490.17	17448.69
490.35	17537.63
490.53	17647.64
490.70	17869.99
490.88	17724.88
491.06	17991.70
491.24	17951.91
491.41	18204.69
491.59	18073.62
491.77	18288.95
491.95	18714.92
492.13	18544.06
492.30	18902.17
492.48	18995.79
492.66	18909.19
492.84	18806.20
493.01	19365.59
493.19	19236.86
493.37	19325.80
493.54	19396.02
493.72	19648.80
493.90	19543.47
494.08	19810.29
494.25	19922.64
494.43	19939.02
494.61	19962.43
494.79	20264.36
494.96	20116.90
495.14	20325.21
495.32	20772.25
495.49	20762.89
495.67	20695.02
495.85	21046.10
496.02	20678.63
496.20	21071.84
496.38	21448.67
496.55	21399.52
496.73	21692.08
496.91	21476.76
497.09	21741.24
497.26	21809.11
497.44	21827.84
497.62	22199.98
497.79	22490.21
497.97	22209.34
498.14	22562.76
498.32	22209.34
498.50	22537.02
498.67	22726.60
498.85	22707.88
499.03	23328.12
499.20	22934.91
499.38	23194.71
499.56	23297.69
499.73	23220.45
499.91	23510.68
500.08	23763.46
500.26	23566.85
500.44	23576.22
500.61	23555.15
500.79	23648.77
500.97	24322.85
501.14	24091.13
501.32	24547.54
501.49	24168.37
501.67	24121.56
501.84	24568.60
502.02	24631.80
502.20	24613.07
502.37	24638.82
502.55	24451.58
502.72	24992.24
502.90	25027.35
503.07	24971.18
503.25	24751.17
503.43	24807.34
503.60	25291.83
503.78	25268.42
503.95	25319.92
504.13	25441.62
504.30	25425.24
504.48	25298.85
504.65	25591.42
504.83	25640.57
505.01	25369.07
505.18	25982.29
505.36	26164.85
505.53	25577.37
505.71	26185.91
505.88	26298.26
506.06	25989.31
506.23	26244.43
506.41	26555.72
506.58	26230.38
506.76	26808.50
506.93	26806.16
507.11	26398.90
507.28	27236.81
507.46	26684.45
507.63	26815.52
507.81	27033.19
507.98	27140.85
508.16	27129.15
508.33	27676.83
508.50	27531.72
508.68	27520.02
508.85	27468.53
509.03	27665.13
509.20	27353.84
509.38	28130.90
509.55	27901.53
509.73	27709.60
509.90	28212.82
510.08	28079.41
510.25	28201.11
510.42	28250.27
510.60	28177.71
510.77	28643.48
510.95	28491.34
511.12	28472.62
511.30	28559.22
511.47	28800.29
511.64	28776.89
511.82	29319.89
511.99	28975.83
512.17	29319.89
512.34	29088.18
512.51	29118.60
512.69	29226.27
512.86	29467.34
513.04	29710.76
513.21	29326.91
513.38	29888.64
513.56	30005.67
513.73	29624.16
513.90	30101.63
514.08	29462.66
514.25	30272.49
514.43	30221.00
514.60	30045.46
514.77	30178.87
514.95	30527.61
515.12	29954.18
515.29	30359.09
515.47	30506.54
515.64	30778.04
515.81	30251.42
515.99	31007.42
516.16	30909.11
516.33	31007.42
516.51	30888.05
516.68	30897.41
516.85	30944.22
517.03	31161.89
517.20	31166.57
517.37	31220.41
517.54	31489.57
517.72	31175.94
517.89	31747.03
518.06	31367.86
518.24	31768.09
518.41	31386.58
518.58	31271.90
518.75	31438.08
518.93	31892.14
519.10	31721.28
519.27	31782.13
519.45	31990.44
519.62	31936.61
519.79	32034.91
519.96	32301.73
520.14	32446.85
520.31	31824.26
520.48	32552.17
520.65	32598.98
520.83	32818.99
521.00	32676.22
521.17	32903.25
521.34	32706.65
521.52	32706.65
521.69	33191.14
521.86	32947.72
522.03	33050.70
522.20	33659.24
522.38	33479.02
522.55	33745.84
522.72	33357.32
522.89	33656.90
523.07	33783.29
523.24	33457.96
523.41	33631.16
523.58	33518.81
523.75	33722.44
523.92	34089.90
524.10	33862.87
524.27	33811.38
524.44	33963.51
524.61	34284.17
524.78	34361.40
524.96	34328.64
525.13	34323.96
525.30	34822.49
525.47	34614.18
525.64	34637.59
525.81	34934.84
525.98	34464.39
526.16	34726.53
526.33	34780.36
526.50	34813.13
526.67	34567.37
526.84	34864.62
527.01	34941.86
527.18	34986.33
527.36	34939.52
527.53	35281.24
527.70	35730.62
527.87	35475.50
528.04	35302.30
528.21	35651.04
528.38	35253.15
528.55	35515.29
528.72	35845.30
528.89	35211.02
529.07	35412.31
529.24	35424.01
529.41	35578.48
529.58	35653.38
529.75	36023.19
529.92	35859.35
530.09	35784.45
530.26	36311.07
530.43	35758.70
530.60	36224.47
530.77	35557.42
530.94	36437.46
531.11	35892.12
531.28	36570.87
531.46	36062.97
531.63	36027.87
531.80	36758.11
531.97	36577.89
532.14	36645.77
532.31	36290.01
532.48	36538.10
532.65	36790.88
532.82	36795.56
532.99	36882.16
533.16	37024.93
533.33	36921.95
533.50	37359.63
533.67	36879.82
533.84	36814.29
534.01	37090.47
534.18	37287.07
534.35	37329.20
534.52	37298.78
534.69	38019.66
534.86	37338.57
535.03	37567.94
535.20	37511.77
535.37	38012.64
535.54	37844.12
535.71	37645.18
535.88	37523.47
536.05	37809.01
536.22	38132.01
536.38	37837.10
536.55	37989.24
536.72	37450.91
536.89	37839.44
537.06	38136.69
537.23	38590.75
537.40	37944.76
537.57	37837.10
537.74	38277.12
537.91	38616.50
538.08	38232.65
538.25	38408.19
538.42	38298.19
538.59	38642.24
538.75	38686.71
538.92	38974.60
539.09	38630.54
539.26	38855.23
539.43	38679.69
539.60	38939.49
539.77	38387.13
539.94	38838.85
540.11	38653.95
540.28	39028.43
540.44	39313.98
540.61	38803.74
540.78	38939.49
540.95	38855.23
541.12	38869.28
541.29	38852.89
541.46	38902.04
541.62	38998.01
541.79	39416.96
541.96	39002.69
542.13	39161.84
542.30	39054.18
542.47	39365.47
542.63	39622.93
542.80	39962.31
542.97	39988.05
543.14	39910.82
543.31	39487.18
543.48	39992.73
543.64	40381.26
543.81	40297.00
543.98	39667.40
544.15	40086.36
544.32	40163.59
544.48	40711.28
544.65	40376.58
544.82	40381.26
544.99	40217.43
545.16	40217.43
545.32	40512.33
545.49	40924.27
545.66	40744.05
545.83	40690.21
546.00	40861.07
546.16	40645.74
546.33	40690.21
546.50	40282.96
546.67	40570.85
546.83	40470.20
547.00	40910.22
547.17	40973.42
547.34	41411.10
547.50	41155.98
547.67	41429.82
547.84	41078.74
548.00	41165.34
548.17	41181.73
548.34	41249.60
548.51	40926.61
548.67	41071.72
548.84	41904.95
549.01	41228.54
549.18	41352.58
549.34	41666.22
549.51	41560.89
549.68	41418.12
549.84	41640.47
550.01	41682.60
550.18	41654.51
550.34	41694.30
550.51	41514.08
550.68	41752.82
550.84	41649.83
551.01	41752.82
551.18	41347.90
551.34	41916.65
551.51	41858.14
551.68	41825.37
551.84	41757.50
552.01	41865.16
552.18	41998.57
552.34	41933.04
552.51	42321.57
552.68	41818.35
552.84	41944.74
553.01	42026.66
553.18	42127.30
553.34	42520.51
553.51	41949.42
553.67	42539.24
553.84	42813.08
554.01	42534.56
554.17	42183.48
554.34	42431.57
554.51	42499.45
554.67	42787.33
554.84	42504.13
555.00	42593.07
555.17	42768.61
555.33	42946.49
555.50	42572.00
555.67	42665.63
555.83	43077.56
556.00	43117.35
556.16	43650.99
556.33	43107.99
556.50	42777.97
556.66	42726.48
556.83	42745.20
556.99	43255.44
557.16	43203.95
557.32	43372.47
557.49	43405.23
557.65	43330.34
557.82	43079.90
557.98	43168.84
558.15	43196.93
558.32	43543.33
558.48	42911.38
558.65	43248.42
558.81	43456.73
558.98	43271.82
559.14	43332.68
559.31	43005.00
559.47	43222.67
559.64	43578.43
559.80	43187.56
559.97	44191.65
560.13	43335.02
560.30	43484.81
560.46	43557.37
560.63	43494.18
560.79	43828.87
560.96	43999.73
561.12	43667.37
561.29	43803.13
561.45	43650.99
561.61	44025.48
561.78	43435.66
561.94	43557.37
562.11	43735.25
562.27	43934.20
562.44	43772.70
562.60	44205.70
562.77	43824.19
562.93	43920.15
563.10	43927.17
563.26	44151.87
563.42	44444.43
563.59	44189.31
563.75	43721.21
563.92	43988.03
564.08	44032.50
564.24	44041.86
564.41	43969.30
564.57	43901.43
564.74	44048.88
564.90	43716.53
565.07	43981.01
565.23	44406.98
565.39	44069.95
565.56	44491.24
565.72	44308.68
565.88	44559.12
566.05	44060.58
566.21	44580.18
566.38	44488.90
566.54	44481.88
566.70	44332.09
566.87	44322.72
567.03	43999.73
567.19	44404.64
567.36	44266.55
567.52	44217.40
567.68	44725.30
567.85	44500.61
568.01	44491.24
568.17	44601.25
568.34	44261.87
568.50	44610.61
568.66	44292.30
568.83	44177.61
568.99	44795.51
569.15	44306.34
569.32	44713.59
569.48	44701.89
569.64	44664.44
569.81	44430.39
569.97	44519.33
570.13	44474.86
570.30	44432.73
570.46	44830.62
570.62	44701.89
570.78	44465.50
570.95	44741.68
571.11	45291.71
571.27	44516.99
571.43	44556.78
571.60	44474.86
571.76	44673.81
571.92	44847.00
572.09	45071.70
572.25	44996.80
572.41	44275.91
572.57	44823.60
572.74	45429.80
572.90	44727.64
573.06	45188.72
573.22	44947.65
573.38	45401.71
573.55	45165.32
573.71	45172.34
573.87	45174.68
574.03	45228.51
574.20	45432.14
574.36	45233.19
574.52	45095.10
574.68	44928.92
574.84	45111.49
575.01	45209.79
575.17	45333.84
575.33	44608.27
575.49	44889.13
575.65	45230.85
575.82	45359.58
575.98	44994.46
576.14	44994.46
576.30	45219.15
576.46	45006.16
576.62	44872.75
576.79	44811.90
576.95	44470.18
577.11	44971.05
577.27	44919.56
577.43	45050.63
577.59	45116.17
577.75	44776.79
577.92	44905.52
578.08	45165.32
578.24	45226.17
578.40	45591.30
578.56	45319.79
578.72	45123.19
578.88	45067.02
579.04	45141.91
579.21	45064.67
579.37	45296.39
579.53	45366.60
579.69	45139.57
579.85	45038.93
580.01	45446.18
580.17	45343.20
580.33	45268.30
580.49	44978.07
580.65	45549.17
580.82	45055.31
580.98	45008.50
581.14	44694.87
581.30	45249.58
581.46	45422.78
581.62	45081.06
581.78	45064.67
581.94	44931.26
582.10	45123.19
582.26	45734.07
582.42	45357.24
582.58	45045.95
582.74	45137.23
582.90	44828.28
583.06	45516.40
583.22	44847.00
583.38	45237.87
583.54	45368.94
583.70	45275.32
583.86	45249.58
584.02	45434.48
584.18	45633.42
584.34	45649.81
584.50	45720.02
584.66	45844.07
584.82	45186.38
584.98	46068.76
585.14	45467.25
585.30	45415.76
585.46	45324.47
585.62	45357.24
585.78	45626.40
585.94	45090.42
586.10	45492.99
586.26	45230.85
586.42	45074.04
586.58	45319.79
586.74	44987.44
586.90	45041.27
587.06	45359.58
587.22	45909.61
587.38	45261.28
587.54	45902.59
587.70	45649.81
587.86	45282.34
588.02	45078.72
588.18	45783.22
588.34	45378.31
588.49	45588.95
588.65	45502.35
588.81	45055.31
588.97	45614.70
589.13	45041.27
589.29	45689.60
589.45	45713.00
589.61	45759.81
589.77	45743.43
589.93	46223.24
590.08	46003.23
590.24	46000.89
590.40	45897.91
590.56	46066.42
590.72	45808.96
590.88	45691.94
591.04	45595.98
591.20	45855.78
591.35	45757.47
591.51	46131.96
591.67	46010.25
591.83	45984.51
591.99	45860.46
592.15	45794.92
592.31	45851.09
592.46	45715.34
592.62	45631.08
592.78	46232.60
592.94	46162.39
593.10	46206.86
593.26	46384.74
593.41	46087.49
593.57	46007.91
593.73	45895.56
593.89	46419.84
594.05	46078.13
594.20	46155.36
594.36	46597.73
594.52	46576.66
594.68	45935.35
594.84	45787.90
594.99	46422.19
595.15	46171.75
595.31	46417.50
595.47	45911.95
595.62	46218.56
595.78	45731.73
595.94	45989.19
596.10	46358.99
596.25	46438.57
596.41	46260.69
596.57	46021.95
596.73	46377.72
596.88	46366.01
597.04	46316.86
597.20	46108.55
597.36	46096.85
597.51	46272.39
597.67	45778.54
597.83	46288.77
597.99	45968.12
598.14	46017.27
598.30	46328.56
598.46	46548.57
598.61	46857.52
598.77	46628.15
598.93	46335.59
599.09	46153.02
599.24	46410.48
599.40	46036.00
599.56	46529.85
599.71	46267.71
599.87	46623.47
600.03	46761.56
600.18	46176.43
600.34	46174.09
600.50	46424.53
600.65	46075.79
600.81	46569.64
600.97	46609.43
601.12	46663.26
601.28	46824.76
601.44	46473.68
601.59	46454.95
601.75	45940.04
601.91	46536.87
602.06	46478.36
602.22	46473.68
602.37	46454.95
602.53	46218.56
602.69	46267.71
602.84	46064.08
603.00	46504.10
603.16	46415.16
603.31	46038.34
603.47	46843.48
603.62	46241.96
603.78	46820.08
603.94	46157.70
604.09	46192.81
604.25	46272.39
604.40	45911.95
604.56	46040.68
604.71	46344.95
604.87	46422.19
605.03	46143.66
605.18	46452.61
605.34	46068.76
605.49	46358.99
605.65	46136.64
605.80	46312.18
605.96	46117.92
606.12	45918.97
606.27	46820.08
606.43	46164.73
606.58	46155.36
606.74	46518.15
606.89	46340.27
607.05	46426.87
607.20	46185.79
607.36	46047.70
607.51	45837.05
607.67	46028.98
607.82	46312.18
607.98	46277.07
608.13	45900.25
608.29	46038.34
608.44	46307.50
608.60	46138.98
608.75	46218.56
608.91	46120.26
609.06	46036.00
609.22	46295.80
609.37	46124.94
609.53	46581.34
609.68	45937.69
609.84	45851.09
609.99	46101.53
610.15	46047.70
610.30	45937.69
610.46	45911.95
610.61	46012.59
610.76	46000.89
610.92	45696.62
611.07	45792.58
611.23	45701.30
611.38	45961.10
611.54	46127.28
611.69	45937.69
611.84	45626.40
612.00	45647.47
612.15	45586.61
612.31	45705.98
612.46	45422.78
612.62	45577.25
612.77	45478.95
612.92	46054.72
613.08	45776.20
613.23	45675.55
613.39	45830.03
613.54	45572.57
613.69	45691.94
613.85	45443.84
614.00	45319.79
614.15	45815.99
614.31	45675.55
614.46	45722.37
614.62	45404.05
614.77	45418.10
614.92	45628.74
615.08	45631.08
615.23	45434.48
615.38	45933.01
615.54	45516.40
615.69	45588.95
615.84	45682.58
616.00	45535.12
616.15	45500.01
616.30	45727.05
616.46	45104.46
616.61	45535.12
616.76	45174.68
616.92	45390.01
617.07	45378.31
617.22	45071.70
617.37	44870.41
617.53	44889.13
617.68	45544.48
617.83	45588.95
617.99	45284.68
618.14	45614.70
618.29	44711.25
618.45	45078.72
618.60	44786.15
618.75	45013.18
618.90	44870.41
619.06	45062.33
619.21	44847.00
619.36	45502.35
619.51	44788.49
619.67	44971.05
619.82	44816.58
619.97	44893.82
620.12	44762.75
620.28	44844.66
620.43	45055.31
620.58	45092.76
620.73	44746.36
620.89	45303.41
621.04	45317.45
621.19	44877.43
621.34	45151.27
621.49	44732.32
621.65	44816.58
621.80	44495.92
621.95	44692.53
622.10	44842.32
622.25	44444.43
622.41	44545.08
622.56	44582.52
622.71	45045.95
622.86	45141.91
623.01	44900.84
623.16	44547.42
623.32	44617.63
623.47	45027.23
623.62	44411.67
623.77	44760.40
623.92	44875.09
624.07	44692.53
624.23	44678.49
624.38	44556.78
624.53	44364.85
624.68	44163.57
624.83	44542.74
624.98	44369.54
625.13	43662.69
625.29	44034.84
625.44	43899.09
625.59	44378.90
625.74	44294.64
625.89	43959.94
626.04	44196.34
626.19	44201.02
626.34	44062.93
626.49	44079.31
626.65	43871.00
626.80	44102.71
626.95	43592.48
627.10	43648.65
627.25	43906.11
627.40	43894.41
627.55	43758.66
627.70	43988.03
627.85	43831.21
628.00	44168.25
628.15	43566.73
628.30	43164.16
628.45	43803.13
628.60	43306.93
628.76	43531.62
628.91	43847.60
629.06	43440.34
629.21	43646.31
629.36	43569.07
629.51	43585.46
629.66	43548.01
629.81	43512.90
629.96	44053.56
630.11	43414.60
630.26	43379.49
630.41	43566.73
630.56	43225.01
630.71	43442.68
630.86	43433.32
631.01	42801.38
631.16	43311.61
631.31	43400.55
631.46	43115.01
631.61	43459.07
631.76	43313.95
631.91	43129.05
632.06	43597.16
632.21	43786.74
632.36	43257.78
632.51	42642.22
632.66	43171.18
632.81	42759.25
632.96	43084.58
633.10	42784.99
633.25	42794.36
633.40	42806.06
633.55	42885.64
633.70	42782.65
633.85	42892.66
634.00	42747.54
634.15	42539.24
634.30	42677.33
634.45	42728.82
634.60	42754.57
634.75	42958.19
634.90	43054.15
635.05	43093.94
635.19	42614.13
635.34	43075.22
635.49	42347.31
635.64	42679.67
635.79	42974.58
635.94	42234.97
636.09	42852.87
636.24	42871.59
636.39	42492.43
636.53	42897.34
636.68	42412.85
636.83	42417.53
636.98	42026.66
637.13	41881.55
637.28	42347.31
637.43	42127.30
637.57	42852.87
637.72	42267.73
637.87	42419.87
638.02	42366.04
638.17	42110.92
638.32	42356.67
638.46	41848.78
638.61	41766.86
638.76	41879.21
638.91	41921.34
639.06	41851.12
639.20	41691.96
639.35	41830.05
639.50	41570.25
639.65	41776.22
639.80	42071.13
639.94	41977.51
640.09	42157.73
640.24	41827.71
640.39	41273.01
640.54	41371.31
640.68	41869.84
640.83	42244.33
640.98	41897.93
641.13	41750.48
641.27	42029.00
641.42	41631.11
641.57	41450.89
641.72	41558.55
641.86	41530.47
642.01	41537.49
642.16	41425.14
642.31	40800.22
642.45	41090.44
642.60	41265.99
642.75	41287.05
642.90	41113.85
643.04	41036.61
643.19	41514.08
643.34	41251.94
643.48	41134.92
643.63	41099.81
643.78	41085.76
643.93	41881.55
644.07	41633.45
644.22	41118.53
644.37	41102.15
644.51	41434.50
644.66	41069.38
644.81	41003.85
644.95	41148.96
645.10	41074.06
645.25	40910.22
645.39	41081.08
645.54	40456.16
645.69	40554.46
645.83	40730.00
645.98	40893.84
646.13	40549.78
646.27	41057.68
646.42	40395.31
646.57	41097.47
646.71	40734.68
646.86	41172.36
647.00	40872.78
647.15	40669.15
647.30	41090.44
647.44	40783.83
647.59	40509.99
647.74	40463.18
647.88	40870.43
648.03	40802.56
648.17	40744.05
648.32	40741.71
648.47	40570.85
648.61	40549.78
648.76	40446.80
648.90	40662.13
649.05	40505.31
649.20	40325.09
649.34	40669.15
649.49	40292.32
649.63	40112.10
649.78	40634.04
649.92	40603.61
650.07	40783.83
650.21	40456.16
650.36	40414.03
650.51	40245.51
650.65	40767.45
650.80	40285.30
650.94	40320.41
651.09	40486.59
651.23	39805.49
651.38	40184.66
651.52	39627.61
651.67	40196.36
651.81	40018.48
651.96	39690.80
652.10	39482.50
652.25	40020.82
652.39	40121.46
652.54	40177.64
652.68	40055.93
652.83	39887.41
652.97	39978.69
653.12	39791.45
653.26	39337.38
653.41	39749.32
653.55	39491.86
653.70	39931.88
653.84	39948.26
653.99	39988.05
654.13	39260.15
654.27	39473.13
654.42	39814.85
654.56	39737.62
654.71	39622.93
654.85	39971.67
655.00	39484.84
655.14	39377.17
655.29	39679.10
655.43	39852.30
655.57	39182.91
655.72	39175.89
655.86	39103.33
656.01	39255.46
656.15	39236.74
656.30	39161.84
656.44	39323.34
656.58	38895.02
656.73	39335.04
656.87	38965.24
657.01	39185.25
657.16	39351.43
657.30	39192.27
657.45	39290.57
657.59	38548.62
657.73	38429.26
657.88	38778.00
658.02	39105.67
658.16	38953.54
658.31	39145.46
658.45	38972.26
658.60	38665.65
658.74	38869.28
658.88	38686.71
659.03	38876.30
659.17	38501.81
659.31	38415.21
659.46	38536.92
659.60	38403.51
659.74	38209.25
659.89	37954.13
660.03	37549.21
660.17	38333.29
660.32	38146.05
660.46	38117.96
660.60	37661.56
660.74	38075.84
660.89	38295.85
661.03	37748.16
661.17	37809.01
661.32	37521.13
661.46	37886.25
661.60	37446.23
661.74	37530.49
661.89	37755.18
662.03	37858.17
662.17	37378.36
662.31	37282.39
662.46	37811.35
662.60	37794.97
662.74	37474.32
662.88	37050.68
663.03	36910.25
663.17	36580.23
663.31	36973.44
663.45	37156.00
663.60	37352.61
663.74	36739.39
663.88	37024.93
664.02	36744.07
664.17	37357.29
664.31	36559.17
664.45	36521.72
664.59	36671.51
664.73	36938.33
664.88	36788.54
665.02	36453.84
665.16	36472.57
665.30	36488.95
665.44	36416.40
665.59	36416.40
665.73	36198.73
665.87	35969.35
666.01	36308.73
666.15	36163.62
666.29	36341.50
666.44	36357.88
666.58	35922.54
666.72	36154.26
666.86	36018.50
667.00	36210.43
667.14	36041.91
667.28	35849.99
667.43	35971.69
667.57	35501.25
667.71	35594.87
667.85	35894.46
667.99	36011.48
668.13	35358.47
668.27	35129.10
668.41	35178.25
668.56	34609.50
668.70	35030.80
668.84	34995.69
668.98	34925.47
669.12	35440.39
669.26	34976.97
669.40	35108.04
669.54	35040.16
669.68	34852.92
669.82	34756.96
669.96	34415.24
670.10	34108.63
670.25	34485.45
670.39	34279.49
670.53	34660.99
670.67	34068.84
670.81	34525.24
670.95	34668.02
671.09	34206.93
671.23	34160.12
671.37	34143.74
671.51	33848.83
671.65	34202.25
671.79	34298.21
671.93	33897.98
672.07	34508.86
672.21	34005.64
672.35	33481.36
672.49	33649.88
672.63	33699.03
672.77	33226.24
672.91	33273.06
673.05	33109.22
673.19	32996.87
673.33	33083.47
673.47	33198.16
673.61	32793.25
673.75	32591.96
673.89	32538.13
674.03	32676.22
674.17	32402.38
674.31	32421.10
674.45	32385.99
674.59	32453.87
674.73	32308.76
674.87	32297.05
675.01	32348.54
675.15	31892.14
675.29	31789.16
675.43	31744.69
675.56	32119.17
675.70	31714.26
675.84	31697.88
675.98	30984.01
676.12	31466.16
676.26	31342.11
676.40	31349.14
676.54	31215.72
676.68	31023.80
676.82	30810.81
676.96	30866.98
677.10	31000.40
677.23	30976.99
677.37	30859.96
677.51	30862.30
677.65	30499.52
677.79	30611.87
677.93	30103.97
678.07	30342.70
678.21	30113.33
678.34	30298.23
678.48	29631.18
678.62	29902.68
678.76	29862.90
678.90	29734.17
679.04	29647.57
679.18	29982.26
679.31	29640.54
679.45	29188.82
679.59	29376.06
679.73	29420.53
679.87	29226.27
680.00	28865.83
680.14	29179.46
680.28	29331.59
680.42	28898.59
680.56	28528.79
680.70	28067.70
680.83	28629.43
680.97	28479.64
681.11	28271.33
681.25	28313.46
681.39	28123.88
681.52	28121.54
681.66	28034.94
681.80	27194.68
681.94	27370.22
682.07	27477.89
682.21	27234.47
682.35	27391.29
682.49	27035.53
682.62	27051.91
682.76	27707.26
682.90	26831.90
683.04	26768.71
683.17	26941.91
683.31	26532.31
683.45	26349.75
683.59	26398.90
683.72	26331.03
683.86	26211.66
684.00	26223.36
684.13	26277.19
684.27	26040.80
684.41	26005.69
684.55	25795.04
684.68	25675.68
684.82	25156.08
684.96	25565.67
685.09	25666.31
685.23	25582.06
685.37	25682.70
685.50	25682.70
685.64	25163.10
685.78	25355.02
685.91	24994.58
686.05	24467.96
686.19	24582.65
686.32	24737.12
686.46	24180.07
686.60	24205.82
686.73	24470.30
686.87	24203.48
687.01	24269.01
687.14	24325.19
687.28	24306.46
687.42	24077.09
687.55	23630.05
687.69	23845.38
687.82	23763.46
687.96	23721.33
688.10	23632.39
688.23	23559.83
688.37	23611.32
688.50	23901.55
688.64	23442.81
688.78	23283.65
688.91	23428.76
689.05	23049.60
689.18	23016.83
689.32	22735.96
689.46	22412.97
689.59	22712.56
689.73	22761.71
689.86	23014.49
690.00	22579.15
690.13	22738.30
690.27	22181.26
690.41	22321.69
690.54	22148.49
690.68	22340.41
690.81	21771.66
690.95	21935.50
691.08	21565.70
691.22	21544.63
691.35	21474.42
691.49	21448.67
691.62	21146.74
691.76	20854.17
691.89	21137.38
692.03	20800.34
692.16	21165.46
692.30	20788.64
692.43	20912.69
692.57	20507.77
692.70	20388.41
692.84	20475.01
692.97	20100.52
693.11	20484.37
693.24	19927.32
693.38	20018.60
693.51	20039.67
693.65	19871.15
693.78	20065.41
693.92	19822.00
694.05	19178.35
694.19	19747.10
694.32	19412.40
694.45	19861.79
694.59	19892.21
694.72	19545.81
694.86	19002.81
694.99	19332.82
695.13	19295.38
695.26	18728.97
695.39	18888.12
695.53	18717.26
695.66	18925.57
695.80	18691.52
695.93	18476.19
696.07	18136.81
696.20	18326.39
696.33	18122.77
696.47	18099.36
696.60	18326.39
696.73	18384.91
696.87	18043.19
697.00	18281.92
697.14	17851.27
697.27	17495.50
697.40	17542.32
697.54	17518.91
697.67	17624.23
697.80	17439.33
697.94	17516.57
698.07	16968.88
698.21	17132.72
698.34	17301.24
698.47	16992.29
698.61	16512.48
698.74	16460.99
698.87	16575.67
699.01	16470.35
699.14	16723.13
699.27	16587.38
699.40	16566.31
699.54	16411.84
699.67	16341.62
699.80	16159.06
699.94	15901.60
700.07	16020.97
700.20	16414.18
700.34	15939.05
700.47	16004.58
700.60	16133.31
700.73	15740.10
700.87	15499.03
701.00	15447.54
701.13	15531.80
701.26	15070.71
701.40	15531.80
701.53	15339.87
701.66	15417.11
701.79	15260.29
701.93	14846.02
702.06	14651.75
702.19	14820.27
702.32	15178.37
702.46	14841.34
702.59	14728.99
702.72	14862.40
702.85	14956.02
702.99	14590.90
703.12	14307.69
703.25	14459.83
703.38	14214.07
703.51	14298.33
703.65	14005.77
703.78	13987.04
703.91	13806.82
704.04	13848.95
704.17	13886.40
704.31	13806.82
704.44	13647.66
704.57	13881.72
704.70	13671.07
704.83	13474.46
704.96	13261.48
705.10	13188.92
705.23	13170.19
>>>>>End Processed Spectral Data<<<<<
