SpectraSuite Data File
++++++++++++++++++++++++++++++++++++
Date: Fri Oct 25 10:47:04 EDT 2013
User: price-jones
Dark Spectrum Present: No
Reference Spectrum Present: No
Number of Sampled Component Spectra: 1
Spectrometers: USB2+H05261
Integration Time (usec): 100000 (USB2+H05261)
Spectra Averaged: 1 (USB2+H05261)
Boxcar Smoothing: 0 (USB2+H05261)
Correct for Electrical Dark: No (USB2+H05261)
Strobe/Lamp Enabled: No (USB2+H05261)
Correct for Detector Non-linearity: No (USB2+H05261)
Correct for Stray Light: No (USB2+H05261)
Number of Pixels in Processed Spectrum: 2048
>>>>>Begin Processed Spectral Data<<<<<
365.73	72.56
365.92	72.56
366.12	72.56
366.32	117.03
366.52	0.00
366.72	117.03
366.91	91.28
367.11	7.02
367.31	58.51
367.51	72.56
367.70	0.00
367.90	58.51
368.10	0.00
368.30	21.06
368.49	32.77
368.69	154.48
368.89	0.00
369.09	81.92
369.28	102.98
369.48	42.13
369.68	105.32
369.87	102.98
370.07	152.13
370.27	98.30
370.47	283.20
370.66	463.43
370.86	503.22
371.06	491.51
371.25	397.89
371.45	390.87
371.65	491.51
371.84	440.02
372.04	437.68
372.24	507.90
372.44	470.45
372.63	573.43
372.83	500.87
373.03	517.26
373.22	461.09
373.42	496.19
373.62	535.98
373.81	564.07
374.01	557.05
374.21	564.07
374.40	505.56
374.60	573.43
374.79	582.79
374.99	580.45
375.19	543.00
375.38	573.43
375.58	524.28
375.78	594.50
375.97	592.16
376.17	622.58
376.37	578.11
376.56	664.71
376.76	589.82
376.95	592.16
377.15	592.16
377.35	587.47
377.54	571.09
377.74	580.45
377.93	681.10
378.13	643.65
378.33	681.10
378.52	615.56
378.72	615.56
378.91	606.20
379.11	636.63
379.31	610.88
379.50	538.32
379.70	620.24
379.89	702.16
380.09	645.99
380.28	699.82
380.48	636.63
380.68	643.65
380.87	645.99
381.07	704.50
381.26	669.39
381.46	636.63
381.65	678.76
381.85	725.57
382.04	674.07
382.24	739.61
382.43	683.44
382.63	706.84
382.83	779.40
383.02	765.36
383.22	702.16
383.41	723.23
383.61	697.48
383.80	760.67
384.00	779.40
384.19	751.31
384.39	809.83
384.58	765.36
384.78	795.78
384.97	821.53
385.17	720.88
385.36	828.55
385.56	812.17
385.75	697.48
385.95	828.55
386.14	788.76
386.34	788.76
386.53	802.80
386.72	758.33
386.92	861.32
387.11	835.57
387.31	844.93
387.50	805.14
387.70	903.45
387.89	858.98
388.09	898.77
388.28	844.93
388.48	908.13
388.67	781.74
388.86	908.13
389.06	889.40
389.25	828.55
389.45	873.02
389.64	887.06
389.84	973.66
390.03	980.68
390.22	940.90
390.42	924.51
390.61	966.64
390.81	875.36
391.00	987.71
391.19	978.34
391.39	966.64
391.58	1008.77
391.78	1050.90
391.97	1008.77
392.16	926.85
392.36	1020.47
392.55	929.19
392.75	898.77
392.94	966.64
393.13	987.71
393.33	971.32
393.52	1060.26
393.71	1095.37
393.91	1041.54
394.10	1149.20
394.29	1086.01
394.49	1067.28
394.68	1088.35
394.88	1097.71
395.07	1181.97
395.26	1132.82
395.46	1121.12
395.65	1118.78
395.84	1144.52
396.04	1226.44
396.23	1135.16
396.42	1207.72
396.62	1170.27
396.81	1153.88
397.00	1217.08
397.19	1277.93
397.39	1219.42
397.58	1158.57
397.77	1273.25
397.97	1350.49
398.16	1259.21
398.35	1303.68
398.55	1401.98
398.74	1425.39
398.93	1327.08
399.12	1341.13
399.32	1380.92
399.51	1315.38
399.70	1387.94
399.90	1334.11
400.09	1476.88
400.28	1516.67
400.47	1453.47
400.67	1523.69
400.86	1495.60
401.05	1490.92
401.24	1458.15
401.44	1528.37
401.63	1537.73
401.82	1523.69
402.01	1486.24
402.21	1448.79
402.40	1579.86
402.59	1528.37
402.78	1511.99
402.97	1535.39
403.17	1523.69
403.36	1579.86
403.55	1661.78
403.74	1699.23
403.93	1579.86
404.13	1799.87
404.32	1610.29
404.51	1797.53
404.70	1748.38
404.89	1774.13
405.09	1884.13
405.28	1809.23
405.47	1724.97
405.66	1762.42
405.85	1863.07
406.05	1804.55
406.24	1785.83
406.43	1844.34
406.62	1830.30
406.81	1851.36
407.00	1844.34
407.20	1832.64
407.39	1830.30
407.58	2022.22
407.77	1973.07
407.96	2108.82
408.15	2066.69
408.34	1907.54
408.54	2015.20
408.73	1994.14
408.92	2125.21
409.11	2118.18
409.30	2036.27
409.49	2090.10
409.68	2008.18
409.87	2150.95
410.07	2115.84
410.26	2270.32
410.45	2188.40
410.64	2099.46
410.83	2298.41
411.02	2331.17
411.21	2307.77
411.40	2406.07
411.59	2333.51
411.78	2389.69
411.98	2300.75
412.17	2375.64
412.36	2396.71
412.55	2335.85
412.74	2511.39
412.93	2443.52
413.12	2452.88
413.31	2581.61
413.50	2621.40
413.69	2539.48
413.88	2523.10
414.07	2736.09
414.26	2595.65
414.45	2686.94
414.64	2583.95
414.83	2773.53
415.02	2731.41
415.22	2764.17
415.41	2860.13
415.60	2822.69
415.79	2822.69
415.98	2958.44
416.17	2946.73
416.36	2979.50
416.55	3061.42
416.74	2958.44
416.93	2951.42
417.12	3066.10
417.31	3098.87
417.50	3091.85
417.69	3094.19
417.88	3260.37
418.07	3049.72
418.26	3171.43
418.45	3162.06
418.64	3318.88
418.83	3052.06
419.02	3192.49
419.21	3218.24
419.39	3148.02
419.58	3208.87
419.77	3173.77
419.96	3391.44
420.15	3480.38
420.34	3330.58
420.53	3382.07
420.72	3400.80
420.91	3487.40
421.10	3414.84
421.29	3660.60
421.48	3485.06
421.67	3550.59
421.86	3400.80
422.05	3487.40
422.24	3473.36
422.43	3412.50
422.61	3459.31
422.80	3571.66
422.99	3550.59
423.18	3581.02
423.37	3583.36
423.56	3634.85
423.75	3604.42
423.94	3602.08
424.13	3316.54
424.32	3426.54
424.50	3700.39
424.69	3602.08
424.88	3574.00
425.07	3684.00
425.26	3485.06
425.45	3510.80
425.64	3730.81
425.83	3662.94
426.01	3705.07
426.20	3662.94
426.39	3691.02
426.58	3674.64
426.77	3705.07
426.96	3705.07
427.15	3716.77
427.33	3784.65
427.52	3726.13
427.71	3915.72
427.90	3730.81
428.09	3899.33
428.28	3969.55
428.46	3887.63
428.65	3779.97
428.84	3925.08
429.03	4079.55
429.22	3873.59
429.40	3939.12
429.59	3854.86
429.78	3672.30
429.97	3672.30
430.16	3817.41
430.34	3861.88
430.53	3953.16
430.72	3904.01
430.91	4018.70
431.10	4142.75
431.28	4170.83
431.47	4177.86
431.66	4243.39
431.85	4063.17
432.03	4166.15
432.22	4269.14
432.41	4306.59
432.60	4318.29
432.79	4262.12
432.97	4339.35
433.16	4320.63
433.35	4196.58
433.54	4278.50
433.72	4243.39
433.91	4341.69
434.10	4503.19
434.28	4477.44
434.47	4528.94
434.66	4573.41
434.85	4629.58
435.03	4409.57
435.22	4807.46
435.41	4671.71
435.59	4526.60
435.78	4638.94
435.97	4706.82
436.16	4697.46
436.34	4627.24
436.53	4751.29
436.72	4894.06
436.90	4655.33
437.09	4835.55
437.28	4753.63
437.46	4695.11
437.65	4760.65
437.84	4933.85
438.02	4704.48
438.21	4861.29
438.40	4723.20
438.58	5008.75
438.77	4950.23
438.96	4973.64
439.14	5174.92
439.33	5104.71
439.52	5233.44
439.70	5188.97
439.89	5296.63
440.08	5322.38
440.26	5238.12
440.45	5313.02
440.63	5343.44
440.82	5514.30
441.01	5530.69
441.19	5434.72
441.38	5526.00
441.57	5633.67
441.75	5568.13
441.94	5724.95
442.12	5823.25
442.31	5841.98
442.50	5708.57
442.68	5743.67
442.87	5734.31
443.05	5832.62
443.24	5837.30
443.43	5912.19
443.61	5872.40
443.80	6017.52
443.98	5937.94
444.17	5657.07
444.35	6036.24
444.54	5888.79
444.73	6083.05
444.91	5891.13
445.10	6015.18
445.28	5928.58
445.47	5916.87
445.65	5916.87
445.84	6076.03
446.02	5872.40
446.21	6052.63
446.39	6111.14
446.58	6118.16
446.77	6136.88
446.95	6033.90
447.14	6202.42
447.32	6300.72
447.51	6129.86
447.69	6015.18
447.88	6143.91
448.06	6026.88
448.25	6076.03
448.43	6340.51
448.62	5980.07
448.80	6211.78
448.99	6097.10
449.17	6211.78
449.36	6253.91
449.54	6518.39
449.73	6518.39
449.91	6593.29
450.10	6377.96
450.28	6392.00
450.46	6602.65
450.65	6483.28
450.83	6415.41
451.02	6516.05
451.20	6579.25
451.39	6546.48
451.57	6539.46
451.76	6621.38
451.94	6588.61
452.13	6740.74
452.31	6567.54
452.49	6499.67
452.68	6637.76
452.86	6546.48
453.05	6679.89
453.23	6724.36
453.42	6647.12
453.60	6726.70
453.78	6867.13
453.97	6747.76
454.15	6796.92
454.34	6799.26
454.52	6995.86
454.70	6841.39
454.89	6832.02
455.07	7002.88
455.26	6960.75
455.44	7171.40
455.62	7143.32
455.81	7070.76
455.99	7136.29
456.17	7323.54
456.36	7288.43
456.54	7382.05
456.73	7239.28
456.91	7499.08
457.09	7379.71
457.28	7637.17
457.46	7325.88
457.64	7475.67
457.83	7330.56
458.01	7260.34
458.19	7679.30
458.38	7595.04
458.56	7534.18
458.74	7609.08
458.93	7571.63
459.11	7648.87
459.29	7637.17
459.48	7620.78
459.66	7557.59
459.84	7698.02
460.03	7911.01
460.21	7765.90
460.39	7903.99
460.57	7768.24
460.76	7747.17
460.94	7974.21
461.12	7922.71
461.31	7873.56
461.49	7723.77
461.67	7801.01
461.85	7934.42
462.04	8105.28
462.22	8439.97
462.40	8301.88
462.59	8140.38
462.77	8201.24
462.95	8308.90
463.13	8159.11
463.32	8124.00
463.50	8175.49
463.68	8245.71
463.86	8299.54
464.05	8102.93
464.23	8259.75
464.41	8313.58
464.59	8271.45
464.78	8444.65
464.96	8271.45
465.14	8051.44
465.32	8470.40
465.50	8638.92
465.69	8557.00
465.87	8531.25
466.05	8524.23
466.23	8470.40
466.41	8479.76
466.60	8568.70
466.78	8545.30
466.96	8601.47
467.14	8505.51
467.32	8603.81
467.51	8814.46
467.69	8589.77
467.87	8821.48
468.05	8875.31
468.23	8713.81
468.41	8573.38
468.60	8645.94
468.78	8990.00
468.96	8812.12
469.14	8882.33
469.32	9095.32
469.50	8765.31
469.69	9050.85
469.87	9142.13
470.05	9013.40
470.23	9142.13
470.41	9205.33
470.59	9343.42
470.77	9214.69
470.95	9114.05
471.14	9343.42
471.32	9345.76
471.50	9458.10
471.68	9434.70
471.86	9586.83
472.04	9710.88
472.22	9685.14
472.40	9556.41
472.58	9666.41
472.77	9612.58
472.95	9661.73
473.13	9937.91
473.31	9781.10
473.49	9720.24
473.67	9764.72
473.85	9973.02
474.03	10097.07
474.21	10132.18
474.39	10267.93
474.57	10076.01
474.75	10216.44
474.93	10361.55
475.12	10595.61
475.30	10457.51
475.48	10504.32
475.66	10534.75
475.84	10539.43
476.02	10562.84
476.20	10370.91
476.38	10848.38
476.56	11052.01
476.74	10970.09
476.92	10707.95
477.10	10951.37
477.28	11173.72
477.46	11351.60
477.64	11382.03
477.82	11367.98
478.00	11627.78
478.18	11426.50
478.36	11550.54
478.54	11868.86
478.72	11756.51
478.90	11932.05
479.08	12262.07
479.26	12276.11
479.44	12060.78
479.62	12081.85
479.80	12198.87
479.98	12430.59
480.16	12636.55
480.34	12343.99
480.52	12931.46
480.70	12695.07
480.88	12678.68
481.06	12659.96
481.24	13011.04
481.41	13233.39
481.59	13270.84
481.77	13448.72
481.95	13188.92
482.13	13511.91
482.31	13689.79
482.49	13767.03
482.67	13921.51
482.85	13923.85
483.03	13951.93
483.21	14197.69
483.39	14047.90
483.57	14169.60
483.74	14377.91
483.92	14462.17
484.10	14572.18
484.28	14951.34
484.46	14939.64
484.64	15208.80
484.82	14860.06
485.00	14904.53
485.18	15154.97
485.35	15489.67
485.53	15391.36
485.71	15218.16
485.89	15302.42
486.07	15475.62
486.25	15470.94
486.43	16013.95
486.61	15857.13
486.78	16177.78
486.96	16205.87
487.14	16638.87
487.32	16568.65
487.50	16514.82
487.68	17025.06
487.85	17233.36
488.03	17116.34
488.21	17579.76
488.39	17315.28
488.57	17451.03
488.75	17785.73
488.92	17956.59
489.10	17954.25
489.28	18218.73
489.46	18396.61
489.64	18202.35
489.81	18523.00
489.99	18764.07
490.17	18609.60
490.35	19339.85
490.53	18876.42
490.70	19033.24
490.88	19035.58
491.06	19489.64
491.24	19377.30
491.41	19564.54
491.59	19295.38
491.77	19737.74
491.95	19800.93
492.13	20020.94
492.30	20297.13
492.48	20240.95
492.66	20414.15
492.84	20329.89
493.01	20507.77
493.19	20613.10
493.37	21069.50
493.54	21130.36
493.72	21081.21
493.90	20900.98
494.08	21579.74
494.25	21972.95
494.43	21734.21
494.61	21940.18
494.79	21928.48
494.96	21914.44
495.14	22195.30
495.32	22150.83
495.49	22160.19
495.67	22251.47
495.85	22384.88
496.02	22597.87
496.20	22759.37
496.38	22658.73
496.55	22869.37
496.73	23491.96
496.91	23033.21
497.09	23445.15
497.26	23562.17
497.44	23260.24
497.62	23440.47
497.79	23447.49
497.97	23632.39
498.14	23819.63
498.32	24250.29
498.50	24175.39
498.67	24353.27
498.85	24510.09
499.03	24790.95
499.20	24519.45
499.38	24809.68
499.56	24533.50
499.73	24587.33
499.91	24879.89
500.08	25102.25
500.26	24793.29
500.44	25050.75
500.61	25226.29
500.79	25261.40
500.97	25371.41
501.14	25659.29
501.32	25624.18
501.49	25551.63
501.67	25448.64
501.84	25944.84
502.02	25771.64
502.20	26331.03
502.37	26127.40
502.55	26309.96
502.72	26316.98
502.90	26324.01
503.07	26590.83
503.25	26590.83
503.43	26302.94
503.60	26307.62
503.78	26539.33
503.95	26698.49
504.13	26700.83
504.30	27204.05
504.48	27094.04
504.65	27089.36
504.83	27168.94
505.01	27435.76
505.18	27365.54
505.36	27735.35
505.53	27445.12
505.71	27873.44
505.88	27983.44
506.06	27988.13
506.23	28048.98
506.41	28140.26
506.58	28088.77
506.76	27882.80
506.93	28496.02
507.11	28299.42
507.28	28407.08
507.46	28264.31
507.63	28496.02
507.81	28833.06
507.98	28411.76
508.16	28720.71
508.33	29046.05
508.50	28973.49
508.68	28903.28
508.85	29284.78
509.03	28952.43
509.20	29584.37
509.38	29530.54
509.55	29319.89
509.73	29633.52
509.90	29745.87
510.08	29846.51
510.25	29816.08
510.42	29717.78
510.60	30054.82
510.77	30305.26
510.95	30256.11
511.12	30382.49
511.30	30043.12
511.47	30391.86
511.64	30321.64
511.82	30878.69
511.99	30309.94
512.17	30684.42
512.34	30436.33
512.51	30679.74
512.69	31077.63
512.86	31112.74
513.04	31297.64
513.21	31117.42
513.38	30890.39
513.56	31171.25
513.73	31220.41
513.90	31512.97
514.08	31208.70
514.25	31449.78
514.43	31475.52
514.60	31482.55
514.77	31424.03
514.95	31618.30
515.12	31751.71
515.29	31868.73
515.47	32098.11
515.64	32219.81
515.81	32311.10
515.99	31974.06
516.16	32095.77
516.33	32163.64
516.51	32793.25
516.68	32144.92
516.85	31875.76
517.03	32093.43
517.20	32683.24
517.37	32488.98
517.54	32975.81
517.72	32542.81
517.89	32613.02
518.06	32723.03
518.24	32863.46
518.41	32636.43
518.58	32662.18
518.75	32809.63
518.93	33385.40
519.10	33034.32
519.27	33415.83
519.45	33371.36
519.62	33343.27
519.79	33408.81
519.96	33647.54
520.14	33993.94
520.31	33528.17
520.48	34127.35
520.65	33958.83
520.83	34036.07
521.00	34401.19
521.17	34197.57
521.34	34330.98
521.52	34490.13
521.69	34199.91
521.86	34380.13
522.03	34639.93
522.20	34820.15
522.38	34452.69
522.55	34721.85
522.72	34611.84
522.89	35016.75
523.07	34991.01
523.24	34803.77
523.41	35264.85
523.58	34520.56
523.75	35082.29
523.92	35257.83
524.10	35672.10
524.27	35515.29
524.44	35232.08
524.61	35187.61
524.78	35503.59
524.96	35793.81
525.13	36041.91
525.30	35943.61
525.47	36081.70
525.64	35756.36
525.81	35978.72
525.98	36320.43
526.16	35852.33
526.33	35990.42
526.50	36067.66
526.67	35875.73
526.84	36079.36
527.01	35990.42
527.18	36343.84
527.36	36250.22
527.53	36914.93
527.70	36374.27
527.87	36694.92
528.04	36477.25
528.21	36453.84
528.38	36917.27
528.55	37146.64
528.72	36751.09
528.89	37275.37
529.07	36884.50
529.24	36872.80
529.41	37401.76
529.58	37139.62
529.75	37184.09
529.92	37324.52
530.09	37120.90
530.26	37481.34
530.43	37556.24
530.60	36992.17
530.77	37415.80
530.94	37558.58
531.11	37212.18
531.28	37706.03
531.46	38096.90
531.63	38234.99
531.80	37741.14
531.97	37549.21
532.14	37865.19
532.31	37455.59
532.48	38073.49
532.65	38258.40
532.82	38153.07
532.99	37862.85
533.16	37385.38
533.33	38204.56
533.50	38553.30
533.67	38621.18
533.84	38197.54
534.01	38555.64
534.18	37998.60
534.35	38869.28
534.52	38054.77
534.69	38693.74
534.86	38969.92
535.03	38469.04
535.20	38962.90
535.37	39110.35
535.54	39061.20
535.71	38981.62
535.88	39037.80
536.05	38855.23
536.22	38962.90
536.38	39281.21
536.55	38778.00
536.72	39421.64
536.89	38810.76
537.06	38927.79
537.23	39227.38
537.40	38895.02
537.57	39316.32
537.74	39098.65
537.91	39634.63
538.08	39765.70
538.25	39377.17
538.42	39807.83
538.59	39548.03
538.75	39494.20
538.92	39461.43
539.09	39274.19
539.26	39550.37
539.43	39295.25
539.60	39613.57
539.77	39875.71
539.94	40060.61
540.11	39730.59
540.28	40175.30
540.44	40102.74
540.61	40034.86
540.78	39906.13
540.95	40245.51
541.12	39854.64
541.29	40121.46
541.46	39983.37
541.62	39812.51
541.79	40662.13
541.96	40184.66
542.13	40065.29
542.30	40229.13
542.47	40573.19
542.63	40767.45
542.80	40605.95
542.97	41020.23
543.14	41148.96
543.31	41120.87
543.48	40891.50
543.64	41656.85
543.81	41600.68
543.98	41607.70
544.15	41060.02
544.32	41483.66
544.48	41474.29
544.65	41446.21
544.82	41317.48
544.99	40898.52
545.16	41198.11
545.32	41102.15
545.49	41596.00
545.66	41214.49
545.83	41579.62
546.00	41806.65
546.16	41596.00
546.33	41359.61
546.50	41317.48
546.67	41806.65
546.83	41851.12
547.00	41682.60
547.17	42153.05
547.34	41687.28
547.50	41495.36
547.67	41909.63
547.84	42082.83
548.00	42536.90
548.17	42293.48
548.34	41954.10
548.51	42344.97
548.67	42621.16
548.84	42391.78
549.01	42089.85
549.18	42195.18
549.34	42295.82
549.51	42314.55
549.68	42206.88
549.84	42525.19
550.01	42052.41
550.18	42682.01
550.34	42740.52
550.51	42265.39
550.68	42431.57
550.84	42476.04
551.01	42469.02
551.18	42761.59
551.34	42696.05
551.51	42850.53
551.68	42759.25
551.84	42857.55
552.01	42342.63
552.18	42497.11
552.34	42443.27
552.51	43044.79
552.68	42923.08
552.84	43225.01
553.01	43206.29
553.18	43028.41
553.34	42789.67
553.51	42728.82
553.67	43136.07
553.84	43407.58
554.01	42969.90
554.17	43201.61
554.34	43040.11
554.51	43203.95
554.67	43952.92
554.84	42993.30
555.00	43459.07
555.17	43131.39
555.33	43482.47
555.50	43278.85
555.67	43438.00
555.83	43330.34
556.00	43447.36
556.16	43533.96
556.33	43372.47
556.50	43648.65
556.66	43515.24
556.83	43119.69
556.99	43494.18
557.16	43679.08
557.32	43744.61
557.49	43753.97
557.65	43604.18
557.82	43585.46
557.98	43482.47
558.15	43686.10
558.32	43852.28
558.48	44121.44
558.65	43789.08
558.81	43782.06
558.98	43789.08
559.14	43777.38
559.31	43564.39
559.47	43936.54
559.64	44163.57
559.80	44186.97
559.97	44432.73
560.13	43498.86
560.30	43978.67
560.46	44109.74
560.63	44247.83
560.79	43920.15
560.96	44425.71
561.12	44219.74
561.29	44100.37
561.45	44222.08
561.61	43971.64
561.78	44076.97
561.94	44133.14
562.11	44062.93
562.27	44161.23
562.44	44355.49
562.60	44282.94
562.77	44411.67
562.93	44369.54
563.10	44425.71
563.26	43913.13
563.42	44259.53
563.59	44203.36
563.75	44341.45
563.92	44304.00
564.08	44236.12
564.24	44257.19
564.41	44428.05
564.57	44395.28
564.74	43976.33
564.90	44289.96
565.07	44465.50
565.23	44357.83
565.39	44093.35
565.56	44711.25
565.72	43889.73
565.88	44776.79
566.05	44163.57
566.21	44278.25
566.38	44800.19
566.54	44088.67
566.70	45155.96
566.87	44861.05
567.03	44538.05
567.19	45198.09
567.36	44591.89
567.52	44718.28
567.68	45038.93
567.85	44355.49
568.01	44603.59
568.17	44617.63
568.34	44575.50
568.50	44514.65
568.66	44556.78
568.83	44266.55
568.99	44835.30
569.15	44685.51
569.32	44179.95
569.48	44425.71
569.64	45078.72
569.81	44914.88
569.97	44666.78
570.13	45036.59
570.30	44369.54
570.46	44453.79
570.62	44343.79
570.78	44500.61
570.95	44484.22
571.11	44999.14
571.27	44528.69
571.43	44914.88
571.60	45095.10
571.76	45202.77
571.92	44900.84
572.09	44624.65
572.25	44465.50
572.41	45083.40
572.57	44989.78
572.74	45258.94
572.90	44985.10
573.06	44629.34
573.22	44854.03
573.38	45090.42
573.55	44945.31
573.71	44765.09
573.87	44942.97
574.03	44458.48
574.20	44507.63
574.36	45017.86
574.52	45141.91
574.68	44788.49
574.84	44704.23
575.01	45322.13
575.17	44999.14
575.33	44683.17
575.49	44830.62
575.65	45581.93
575.82	45640.45
575.98	44624.65
576.14	45120.85
576.30	45212.13
576.46	44467.84
576.62	44360.17
576.79	44839.98
576.95	44556.78
577.11	44739.34
577.27	44479.54
577.43	45418.10
577.59	45329.16
577.75	44914.88
577.92	44872.75
578.08	44697.21
578.24	44718.28
578.40	44699.55
578.56	45050.63
578.72	45179.36
578.88	45214.47
579.04	45240.21
579.21	45027.23
579.37	44856.37
579.53	45013.18
579.69	44949.99
579.85	45137.23
580.01	45228.51
580.17	44795.51
580.33	45553.85
580.49	44992.12
580.65	45055.31
580.82	45184.04
580.98	44940.63
581.14	44774.45
581.30	45549.17
581.46	45343.20
581.62	45099.78
581.78	44952.33
581.94	45322.13
582.10	45118.51
582.26	45390.01
582.42	45436.82
582.58	45448.52
582.74	44741.68
582.90	45109.14
583.06	45528.10
583.22	45397.03
583.38	45743.43
583.54	45139.57
583.70	45141.91
583.86	44825.94
584.02	44854.03
584.18	45254.26
584.34	44891.48
584.50	44882.11
584.66	44699.55
584.82	45045.95
584.98	45560.87
585.14	45045.95
585.30	45120.85
585.46	45397.03
585.62	44816.58
585.78	45071.70
585.94	44868.07
586.10	45081.06
586.26	44893.82
586.42	45184.04
586.58	45144.25
586.74	45160.64
586.90	45024.89
587.06	44879.77
587.22	45385.33
587.38	44989.78
587.54	45382.99
587.70	45476.61
587.86	45621.72
588.02	45294.05
588.18	45387.67
588.34	44966.37
588.49	45013.18
588.65	44765.09
588.81	44619.97
588.97	44942.97
589.13	44685.51
589.29	45085.74
589.45	45581.93
589.61	45235.53
589.77	45310.43
589.93	45324.47
590.08	45691.94
590.24	45563.21
590.40	46038.34
590.56	45336.18
590.72	45240.21
590.88	44657.42
591.04	45146.59
591.20	45577.25
591.35	45771.52
591.51	46143.66
591.67	45544.48
591.83	45387.67
591.99	45242.56
592.15	45322.13
592.31	45359.58
592.46	44851.69
592.62	45380.65
592.78	45436.82
592.94	45638.11
593.10	45661.51
593.26	45579.59
593.41	45654.49
593.57	45212.13
593.73	45485.97
593.89	45415.76
594.05	45294.05
594.20	45415.76
594.36	45755.13
594.52	45404.05
594.68	45347.88
594.84	45282.34
594.99	45570.23
595.15	45612.36
595.31	46115.58
595.47	45598.32
595.62	45565.55
595.78	45347.88
595.94	45661.51
596.10	45619.38
596.25	45855.78
596.41	45764.49
596.57	45296.39
596.73	45675.55
596.88	45457.88
597.04	45649.81
597.20	45642.79
597.36	45570.23
597.51	45689.60
597.67	45469.59
597.83	45830.03
597.99	45277.66
598.14	45532.78
598.30	45420.44
598.46	45560.87
598.61	45144.25
598.77	45277.66
598.93	45872.16
599.09	45202.77
599.24	46106.21
599.40	45553.85
599.56	45937.69
599.71	46066.42
599.87	45923.65
600.03	45509.38
600.18	45806.62
600.34	45614.70
600.50	45668.53
600.65	46043.02
600.81	45727.05
600.97	45961.10
601.12	46300.48
601.28	45825.35
601.44	45951.74
601.59	45481.29
601.75	45387.67
601.91	45682.58
602.06	45191.06
602.22	45694.28
602.37	45329.16
602.53	45413.41
602.69	46127.28
602.84	45755.13
603.00	45474.27
603.16	45577.25
603.31	45684.92
603.47	45226.17
603.62	45485.97
603.78	45670.87
603.94	45455.54
604.09	45930.67
604.25	45628.74
604.40	45457.88
604.56	45603.00
604.71	45109.14
604.87	45181.70
605.03	45170.00
605.18	45165.32
605.34	45659.17
605.49	45350.22
605.65	45762.15
605.80	45375.97
605.96	45710.66
606.12	45617.04
606.27	45319.79
606.43	45228.51
606.58	45675.55
606.74	45172.34
606.89	45174.68
607.05	45116.17
607.20	45750.45
607.36	45448.52
607.51	45567.89
607.67	45563.21
607.82	45500.01
607.98	45294.05
608.13	44954.67
608.29	45202.77
608.44	44935.95
608.60	45195.74
608.75	45003.82
608.91	44636.36
609.06	44825.94
609.22	45469.59
609.37	44954.67
609.53	45219.15
609.68	45106.80
609.84	44893.82
609.99	44919.56
610.15	45109.14
610.30	45092.76
610.46	44732.32
610.61	45078.72
610.76	45139.57
610.92	44882.11
611.07	44879.77
611.23	44491.24
611.38	44919.56
611.54	44832.96
611.69	45041.27
611.84	45244.90
612.00	44598.91
612.15	44474.86
612.31	45233.19
612.46	44664.44
612.62	44889.13
612.77	44589.55
612.92	45022.54
613.08	44641.04
613.23	44994.46
613.39	44271.23
613.54	44521.67
613.69	44683.17
613.85	44694.87
614.00	44587.21
614.15	44947.65
614.31	44552.10
614.46	45368.94
614.62	44535.71
614.77	44680.83
614.92	44638.70
615.08	44884.45
615.23	44158.89
615.38	44411.67
615.54	44030.16
615.69	44278.25
615.84	44369.54
616.00	44360.17
616.15	44486.56
616.30	44425.71
616.46	43990.37
616.61	44018.46
616.76	44470.18
616.92	43779.72
617.07	43768.02
617.22	43627.59
617.37	43863.98
617.53	44203.36
617.68	44493.58
617.83	43807.81
617.99	44112.08
618.14	44275.91
618.29	43934.20
618.45	44041.86
618.60	43995.05
618.75	44184.63
618.90	44306.34
619.06	44252.51
619.21	44079.31
619.36	43782.06
619.51	43683.76
619.67	43763.34
619.82	43878.02
619.97	43831.21
620.12	43803.13
620.28	43318.64
620.43	43597.16
620.58	43826.53
620.73	43639.29
620.89	43648.65
621.04	43445.02
621.19	43688.44
621.34	43241.40
621.49	43524.60
621.65	43295.23
621.80	43627.59
621.95	43473.11
622.10	43477.79
622.25	43182.88
622.41	42876.27
622.56	43129.05
622.71	43292.89
622.86	43124.37
623.01	43381.83
623.16	43459.07
623.32	43388.85
623.47	43232.04
623.62	43466.09
623.77	43103.31
623.92	42909.04
624.07	43309.27
624.23	42916.06
624.38	43122.03
624.53	42876.27
624.68	42843.51
624.83	42834.14
624.98	43033.09
625.13	42660.94
625.29	42789.67
625.44	43079.90
625.59	42635.20
625.74	42789.67
625.89	42300.50
626.04	42389.44
626.19	42375.40
626.34	42749.88
626.49	42979.26
626.65	42635.20
626.80	42864.57
626.95	42682.01
627.10	42487.74
627.25	42075.81
627.40	42124.96
627.55	42490.09
627.70	41825.37
627.85	42199.86
628.00	42181.13
628.15	42586.05
628.30	42431.57
628.45	42314.55
628.60	42532.22
628.76	42314.55
628.91	42710.10
629.06	42239.65
629.21	42094.53
629.36	41963.46
629.51	41965.81
629.66	41879.21
629.81	42216.24
629.96	42005.59
630.11	42452.64
630.26	42251.35
630.41	42267.73
630.56	41918.99
630.71	42171.77
630.86	41991.55
631.01	41631.11
631.16	42136.66
631.31	41755.16
631.46	41429.82
631.61	41752.82
631.76	41804.31
631.91	41741.11
632.06	41827.71
632.21	41493.02
632.36	42021.98
632.51	41495.36
632.66	42279.44
632.81	40996.82
632.96	41457.91
633.10	40781.49
633.25	41153.64
633.40	41212.15
633.55	41645.15
633.70	41432.16
633.85	41666.22
634.00	41322.16
634.15	41331.52
634.30	40863.41
634.45	41221.52
634.60	41193.43
634.75	41184.07
634.90	40971.08
635.05	41256.62
635.19	40875.12
635.34	41624.09
635.49	41062.36
635.64	40851.71
635.79	40825.96
635.94	40549.78
636.09	40638.72
636.24	40978.10
636.39	40491.27
636.53	40816.60
636.68	40755.75
636.83	40575.53
636.98	40844.69
637.13	40641.06
637.28	40699.58
637.43	41088.10
637.57	40978.10
637.72	40889.16
637.87	40758.09
638.02	40685.53
638.17	40680.85
638.32	40655.11
638.46	40229.13
638.61	40423.39
638.76	40311.05
638.91	40456.16
639.06	40645.74
639.20	40226.79
639.35	40470.20
639.50	40383.60
639.65	40727.66
639.80	40535.74
639.94	40343.81
640.09	39964.65
640.24	40348.50
640.39	40020.82
640.54	39861.66
640.68	40233.81
640.83	39945.92
640.98	40210.40
641.13	40348.50
641.27	40081.67
641.42	39793.79
641.57	39889.75
641.72	39934.22
641.86	39786.77
642.01	39859.32
642.16	39636.97
642.31	39590.16
642.45	39662.72
642.60	39543.35
642.75	39894.43
642.90	39557.39
643.04	39761.02
643.19	39728.25
643.34	39910.82
643.48	39716.55
643.63	39845.28
643.78	39487.18
643.93	39351.43
644.07	39091.63
644.22	38974.60
644.37	39592.50
644.51	38822.47
644.66	39386.54
644.81	39604.20
644.95	39901.45
645.10	39220.36
645.25	39466.11
645.39	39218.02
645.54	39620.59
645.69	39178.23
645.83	39058.86
645.98	39112.69
646.13	39550.37
646.27	39377.17
646.42	39452.07
646.57	39012.05
646.71	39321.00
646.86	39297.59
647.00	39110.35
647.15	39143.12
647.30	39297.59
647.44	39587.82
647.59	38843.53
647.74	38567.35
647.88	38483.09
648.03	38988.64
648.17	39316.32
648.32	38623.52
648.47	38663.31
648.61	38359.04
648.76	38899.70
648.90	39005.03
649.05	38763.95
649.20	38866.94
649.34	38923.11
649.49	38368.40
649.63	38651.61
649.78	38703.10
649.92	38576.71
650.07	39159.50
650.21	38904.38
650.36	38719.48
650.51	38464.36
650.65	38962.90
650.80	38759.27
650.94	38794.38
651.09	38644.59
651.23	38263.08
651.38	38387.13
651.52	38026.68
651.67	38225.63
651.81	38316.91
651.96	37940.08
652.10	38298.19
652.25	38223.29
652.39	37605.39
652.54	38415.21
652.68	38375.42
652.83	38082.86
652.97	38391.81
653.12	37890.93
653.26	37968.17
653.41	38171.80
653.55	37921.36
653.70	37773.91
653.84	37937.74
653.99	38003.28
654.13	37919.02
654.27	38213.93
654.42	38082.86
654.56	37935.40
654.71	38022.00
654.85	37839.44
655.00	37776.25
655.14	37368.99
655.29	37361.97
655.43	37294.10
655.57	37352.61
655.72	37179.41
655.86	37507.08
656.01	37268.35
656.15	37284.73
656.30	36992.17
656.44	36975.78
656.58	37237.92
656.73	37043.66
656.87	37170.05
657.01	37060.04
657.16	37036.64
657.30	37123.24
657.45	36825.99
657.59	36519.38
657.73	36741.73
657.88	37399.42
658.02	37069.40
658.16	37134.94
658.31	37036.64
658.45	37195.79
658.60	36641.09
658.74	36999.19
658.88	36961.74
659.03	36708.96
659.17	36423.42
659.31	36732.37
659.46	36170.64
659.60	36769.82
659.74	36126.17
659.89	36388.31
660.03	36360.22
660.17	36802.58
660.32	36210.43
660.46	36708.96
660.60	36392.99
660.74	36580.23
660.89	36254.90
661.03	35931.90
661.17	35812.54
661.32	35786.79
661.46	35838.28
661.60	35742.32
661.74	35915.52
661.89	35761.05
662.03	35988.08
662.17	36172.98
662.31	35892.12
662.46	35871.05
662.60	36086.38
662.74	35819.56
662.88	35571.46
663.03	35709.55
663.17	35414.65
663.31	35548.06
663.45	35133.78
663.60	35152.51
663.74	35220.38
663.88	35208.68
664.02	34796.74
664.17	35297.62
664.31	35150.17
664.45	34960.58
664.59	35009.73
664.73	34890.37
664.88	35211.02
665.02	34623.54
665.16	35122.08
665.30	35185.27
665.44	34651.63
665.59	34586.10
665.73	34574.39
665.87	34377.79
666.01	34092.24
666.15	34543.97
666.29	34438.64
666.44	34525.24
666.58	34328.64
666.72	34401.19
666.86	34448.00
667.00	34693.76
667.14	34101.61
667.28	34347.36
667.43	33741.16
667.57	33525.83
667.71	34352.04
667.85	34108.63
667.99	33745.84
668.13	34029.05
668.27	33837.12
668.41	34136.71
668.56	33497.75
668.70	33593.71
668.84	33780.95
668.98	33724.78
669.12	33228.59
669.26	33385.40
669.40	33137.30
669.54	33085.81
669.68	33572.64
669.82	33219.22
669.96	32957.08
670.10	32872.82
670.25	33436.89
670.39	33109.22
670.53	33092.83
670.67	32601.32
670.81	33050.70
670.95	32807.29
671.09	32802.61
671.23	32989.85
671.37	32758.14
671.51	32191.73
671.65	32067.68
671.79	32182.37
671.93	32247.90
672.07	32680.90
672.21	32151.94
672.35	32252.58
672.49	32081.72
672.63	32376.63
672.77	31859.37
672.91	32180.03
673.05	31555.10
673.19	31524.68
673.33	31192.32
673.47	31421.69
673.61	31725.96
673.75	31782.13
673.89	31461.48
674.03	31496.59
674.17	31433.39
674.31	31171.25
674.45	31136.15
674.59	31122.10
674.73	31323.39
674.87	31220.41
675.01	31103.38
675.15	31035.50
675.29	30967.63
675.43	30635.27
675.56	30801.45
675.70	30478.46
675.84	30604.84
675.98	29537.56
676.12	30167.16
676.26	30230.36
676.40	30092.27
676.54	29813.74
676.68	30174.19
676.82	29502.45
676.96	29830.13
677.10	29638.20
677.23	29366.70
677.37	29752.89
677.51	29692.04
677.65	29652.25
677.79	29263.72
677.93	29287.12
678.07	28929.02
678.21	29020.30
678.34	29249.67
678.48	28861.15
678.62	28737.10
678.76	28510.07
678.90	28783.91
679.04	28655.18
679.18	28332.18
679.31	28364.95
679.45	27831.31
679.59	28283.03
679.73	27716.62
679.87	28006.85
680.00	27957.70
680.14	27683.86
680.28	27552.79
680.42	27498.95
680.56	27838.33
680.70	27725.99
680.83	27475.55
680.97	27166.60
681.11	27372.57
681.25	26934.88
681.39	26836.58
681.52	27199.37
681.66	27087.02
681.80	26911.48
681.94	26661.04
682.07	26843.60
682.21	26764.03
682.35	26593.17
682.49	26536.99
682.62	26544.02
682.76	26410.60
682.90	25935.48
683.04	26288.90
683.17	26134.42
683.31	26010.37
683.45	26239.75
683.59	25954.20
683.72	25617.16
683.86	25317.57
684.00	25427.58
684.13	25113.95
684.27	25596.10
684.41	25195.87
684.55	25450.99
684.68	25095.22
684.82	25191.19
684.96	25125.65
685.09	24996.92
685.23	24774.57
685.37	25057.78
685.50	24531.15
685.64	24772.23
685.78	24290.08
685.91	24219.86
686.05	24041.98
686.19	23936.66
686.32	23770.48
686.46	24002.19
686.60	23805.59
686.73	23796.23
686.87	23594.94
687.01	23562.17
687.14	23534.09
687.28	23445.15
687.42	22974.70
687.55	23178.33
687.69	23419.40
687.82	23033.21
687.96	22911.50
688.10	22909.16
688.23	22958.31
688.37	22504.25
688.50	22279.56
688.64	22429.35
688.78	22340.41
688.91	22335.73
689.05	22525.32
689.18	22281.90
689.32	21984.65
689.46	22068.91
689.59	22270.20
689.73	21933.16
689.86	22174.24
690.00	21991.67
690.13	21893.37
690.27	21736.56
690.41	21759.96
690.54	21200.57
690.68	21383.13
690.81	21060.14
690.95	20868.22
691.08	20795.66
691.22	21027.37
691.35	20931.41
691.49	21266.11
691.62	20842.47
691.76	20926.73
691.89	20435.22
692.03	20631.82
692.16	20540.54
692.30	20444.58
692.43	20397.77
692.57	20067.75
692.70	19920.30
692.84	20250.32
692.97	19941.36
693.11	19922.64
693.24	19786.89
693.38	19709.65
693.51	19798.59
693.65	19892.21
693.78	19915.62
693.92	19503.68
694.05	19737.74
694.19	19159.63
694.32	19506.02
694.45	19302.40
694.59	19110.47
694.72	19269.63
694.86	18726.63
694.99	19044.94
695.13	18539.38
695.26	18750.03
695.39	18398.95
695.53	18621.30
695.66	18345.12
695.80	18752.37
695.93	18370.86
696.07	18169.58
696.20	18335.76
696.33	18143.83
696.47	18256.18
696.60	17954.25
696.73	18064.25
696.87	17860.63
697.00	17853.61
697.14	17544.66
697.27	17579.76
697.40	17408.90
697.54	17642.96
697.67	17453.37
697.80	17429.97
697.94	17394.86
698.07	17076.55
698.21	16896.33
698.34	17298.90
698.47	16975.91
698.61	16936.12
698.74	16753.55
698.87	16781.64
699.01	16762.92
699.14	16294.81
699.27	16610.78
699.40	16610.78
699.54	16477.37
699.67	16215.23
699.80	16362.69
699.94	16292.47
700.07	16006.92
700.20	16011.60
700.34	15962.45
700.47	15950.75
700.60	16123.95
700.73	16032.67
700.87	15681.59
701.00	15646.48
701.13	15566.90
701.26	15559.88
701.40	15482.64
701.53	15536.48
701.66	15176.03
701.79	15239.23
701.93	15269.66
702.06	15225.18
702.19	15133.90
702.32	14977.09
702.46	15089.43
702.59	14789.85
702.72	14663.46
702.85	14471.53
702.99	14293.65
703.12	14679.84
703.25	14740.69
703.38	14469.19
703.51	14324.08
703.65	14321.74
703.78	14204.71
703.91	13865.33
704.04	14047.90
704.17	14115.77
704.31	13905.12
704.44	13809.16
704.57	13919.17
704.70	13825.54
704.83	13563.40
704.96	13624.26
705.10	13462.76
705.23	13813.84
>>>>>End Processed Spectral Data<<<<<
