SpectraSuite Data File
++++++++++++++++++++++++++++++++++++
Date: Fri Oct 25 10:44:17 EDT 2013
User: price-jones
Dark Spectrum Present: No
Reference Spectrum Present: No
Number of Sampled Component Spectra: 1
Spectrometers: USB2+H05261
Integration Time (usec): 100000 (USB2+H05261)
Spectra Averaged: 1 (USB2+H05261)
Boxcar Smoothing: 0 (USB2+H05261)
Correct for Electrical Dark: No (USB2+H05261)
Strobe/Lamp Enabled: No (USB2+H05261)
Correct for Detector Non-linearity: No (USB2+H05261)
Correct for Stray Light: No (USB2+H05261)
Number of Pixels in Processed Spectrum: 2048
>>>>>Begin Processed Spectral Data<<<<<
365.73	65.54
365.92	65.54
366.12	65.54
366.32	11.70
366.52	28.09
366.72	49.15
366.91	0.00
367.11	0.00
367.31	21.06
367.51	0.00
367.70	7.02
367.90	42.13
368.10	11.70
368.30	44.47
368.49	0.00
368.69	60.85
368.89	0.00
369.09	49.15
369.28	65.54
369.48	9.36
369.68	79.58
369.87	121.71
370.07	159.16
370.27	142.77
370.47	173.20
370.66	381.51
370.86	369.80
371.06	484.49
371.25	512.58
371.45	411.93
371.65	444.70
371.84	475.13
372.04	493.85
372.24	472.79
372.44	517.26
372.63	454.06
372.83	505.56
373.03	472.79
373.22	519.60
373.42	507.90
373.62	550.03
373.81	423.64
374.01	550.03
374.21	594.50
374.40	552.37
374.60	528.96
374.79	575.77
374.99	475.13
375.19	540.66
375.38	568.75
375.58	601.52
375.78	596.84
375.97	566.41
376.17	624.92
376.37	592.16
376.56	585.13
376.76	617.90
376.95	547.69
377.15	629.60
377.35	648.33
377.54	571.09
377.74	662.37
377.93	627.26
378.13	587.47
378.33	655.35
378.52	695.14
378.72	758.33
378.91	681.10
379.11	662.37
379.31	685.78
379.50	653.01
379.70	636.63
379.89	660.03
380.09	746.63
380.28	720.88
380.48	690.46
380.68	653.01
380.87	716.20
381.07	697.48
381.26	753.65
381.46	650.67
381.65	739.61
381.85	688.12
382.04	706.84
382.24	795.78
382.43	741.95
382.63	667.05
382.83	681.10
383.02	709.18
383.22	791.10
383.41	709.18
383.61	683.44
383.80	741.95
384.00	805.14
384.19	823.87
384.39	802.80
384.58	840.25
384.78	791.10
384.97	861.32
385.17	755.99
385.36	786.42
385.56	816.85
385.75	809.83
385.95	809.83
386.14	866.00
386.34	887.06
386.53	779.40
386.72	870.68
386.92	849.61
387.11	894.08
387.31	800.46
387.50	896.43
387.70	882.38
387.89	917.49
388.09	875.36
388.28	880.04
388.48	858.98
388.67	933.87
388.86	950.26
389.06	922.17
389.25	964.30
389.45	1022.81
389.64	915.15
389.84	884.72
390.03	1004.09
390.22	1027.50
390.42	887.06
390.61	992.39
390.81	1043.88
391.00	1109.41
391.19	1104.73
391.39	957.28
391.58	1116.44
391.78	1088.35
391.97	1109.41
392.16	990.05
392.36	1135.16
392.55	1057.92
392.75	1034.52
392.94	1036.86
393.13	973.66
393.33	973.66
393.52	1153.88
393.71	1100.05
393.91	1039.20
394.10	1062.60
394.29	1139.84
394.49	1219.42
394.68	1252.19
394.88	1226.44
395.07	1214.74
395.26	1254.53
395.46	1165.59
395.65	1170.27
395.84	1240.48
396.04	1259.21
396.23	1261.55
396.42	1097.71
396.62	1142.18
396.81	1191.33
397.00	1153.88
397.19	1350.49
397.39	1261.55
397.58	1476.88
397.77	1383.26
397.97	1387.94
398.16	1409.00
398.35	1458.15
398.55	1537.73
398.74	1409.00
398.93	1486.24
399.12	1519.01
399.32	1444.11
399.51	1472.20
399.70	1537.73
399.90	1612.63
400.09	1533.05
400.28	1680.50
400.47	1593.90
400.67	1771.79
400.86	1645.40
401.05	1629.01
401.24	1675.82
401.44	1722.63
401.63	1689.87
401.82	1741.36
402.01	1680.50
402.21	1727.32
402.40	1732.00
402.59	1750.72
402.78	1778.81
402.97	1748.38
403.17	1717.95
403.36	1774.13
403.55	1888.81
403.74	1753.06
403.93	1823.28
404.13	1832.64
404.32	1830.30
404.51	1863.07
404.70	2001.16
404.89	1952.01
405.09	1952.01
405.28	1888.81
405.47	1900.52
405.66	1998.82
405.85	1944.99
406.05	1916.90
406.24	1998.82
406.43	2019.88
406.62	2069.03
406.81	2153.29
407.00	2115.84
407.20	1987.11
407.39	2012.86
407.58	2190.74
407.77	2141.59
407.96	2157.97
408.15	2242.23
408.34	2204.78
408.54	2253.94
408.73	2312.45
408.92	2260.96
409.11	2380.32
409.30	2242.23
409.49	2359.26
409.68	2256.28
409.87	2176.70
410.07	2347.56
410.26	2392.03
410.45	2352.24
410.64	2385.01
410.83	2450.54
411.02	2537.14
411.21	2469.27
411.40	2499.69
411.59	2555.86
411.78	2693.96
411.98	2558.21
412.17	2546.50
412.36	2548.84
412.55	2799.28
412.74	2698.64
412.93	2750.13
413.12	2757.15
413.31	2778.22
413.50	2761.83
413.69	2864.82
413.88	2857.79
414.07	2892.90
414.26	2918.65
414.45	2967.80
414.64	2878.86
414.83	2796.94
415.02	3042.70
415.22	3089.51
415.41	3152.70
415.60	3138.66
415.79	3178.45
415.98	3286.11
416.17	3215.90
416.36	3218.24
416.55	3150.36
416.74	3316.54
416.93	3136.32
417.12	3246.32
417.31	3344.63
417.50	3365.69
417.69	3492.08
417.88	3445.27
418.07	3473.36
418.26	3473.36
418.45	3478.04
418.64	3669.96
418.83	3517.83
419.02	3508.46
419.21	3529.53
419.39	3576.34
419.58	3602.08
419.77	3520.17
419.96	3721.45
420.15	3653.58
420.34	3754.22
420.53	3660.60
420.72	3744.86
420.91	3850.18
421.10	4009.34
421.29	3922.74
421.48	3763.58
421.67	3955.51
421.86	3789.33
422.05	3857.20
422.24	3777.62
422.43	3744.86
422.61	3845.50
422.80	3969.55
422.99	4035.08
423.18	3971.89
423.37	3962.53
423.56	3817.41
423.75	3936.78
423.94	3901.67
424.13	3747.20
424.32	3707.41
424.50	4025.72
424.69	3908.69
424.88	4032.74
425.07	3859.54
425.26	3892.31
425.45	3906.35
425.64	3971.89
425.83	3934.44
426.01	4079.55
426.20	4014.02
426.39	3960.19
426.58	4093.60
426.77	4039.76
426.96	4112.32
427.15	3941.46
427.33	4065.51
427.52	4098.28
427.71	4149.77
427.90	4037.42
428.09	4046.79
428.28	4182.54
428.46	4109.98
428.65	4168.49
428.84	4187.22
429.03	4187.22
429.22	4081.89
429.40	4128.70
429.59	4170.83
429.78	3960.19
429.97	3936.78
430.16	3946.14
430.34	4215.30
430.53	4142.75
430.72	4278.50
430.91	4126.36
431.10	4227.01
431.28	4535.96
431.47	4683.41
431.66	4770.01
431.85	4477.44
432.03	4550.00
432.22	4610.86
432.41	4519.57
432.60	4765.33
432.79	4638.94
432.97	4765.33
433.16	4732.56
433.35	4802.78
433.54	4744.27
433.72	4699.80
433.91	4704.48
434.10	4755.97
434.28	4725.54
434.47	5022.79
434.66	5006.41
434.85	5088.32
435.03	4954.91
435.22	4901.08
435.41	5032.15
435.59	4905.76
435.78	5039.17
435.97	5128.11
436.16	5088.32
436.34	5184.29
436.53	5022.79
436.72	5303.65
436.90	5275.57
437.09	5217.05
437.28	4994.70
437.46	5235.78
437.65	5261.52
437.84	5266.21
438.02	5249.82
438.21	5193.65
438.40	5085.98
438.58	5289.61
438.77	5324.72
438.96	5474.51
439.14	5607.92
439.33	5420.68
439.52	5628.99
439.70	5675.80
439.89	5685.16
440.08	5617.29
440.26	5685.16
440.45	5600.90
440.63	5893.47
440.82	6111.14
441.01	5977.73
441.19	5984.75
441.38	6076.03
441.57	6113.48
441.75	6003.47
441.94	6279.66
442.12	6202.42
442.31	6235.19
442.50	6333.49
442.68	6324.13
442.87	6384.98
443.05	6366.26
443.24	6462.22
443.43	6216.46
443.61	6516.05
443.80	6614.35
443.98	6361.58
444.17	6218.80
444.35	6356.90
444.54	6574.56
444.73	6363.92
444.91	6527.75
445.10	6630.74
445.28	6619.04
445.47	6373.28
445.65	6282.00
445.84	6604.99
446.02	6586.27
446.21	6497.33
446.39	6619.04
446.58	6623.72
446.77	6717.34
446.95	6473.92
447.14	6897.56
447.32	6808.62
447.51	6663.51
447.69	6715.00
447.88	6736.06
448.06	6743.08
448.25	6548.82
448.43	6668.19
448.62	6834.36
448.80	6736.06
448.99	6874.15
449.17	6923.30
449.36	6902.24
449.54	6906.92
449.73	7021.61
449.91	7122.25
450.10	7070.76
450.28	7290.77
450.46	7295.45
450.65	7258.00
450.83	7157.36
451.02	7138.63
451.20	7197.15
451.39	7276.73
451.57	7239.28
451.76	7110.55
451.94	7234.60
452.13	7281.41
452.31	7300.13
452.49	6953.73
452.68	7124.59
452.86	7262.68
453.05	7407.80
453.23	7265.02
453.42	7480.35
453.60	7176.08
453.78	7569.29
453.97	7316.51
454.15	7482.69
454.34	7288.43
454.52	7419.50
454.70	7506.10
454.89	7473.33
455.07	7726.11
455.26	7679.30
455.44	7714.41
455.62	7791.64
455.81	7655.89
455.99	7747.17
456.17	7936.76
456.36	7791.64
456.54	8025.70
456.73	7826.75
456.91	8074.85
457.09	8042.08
457.28	8334.65
457.46	8030.38
457.64	8266.77
457.83	8035.06
458.01	8126.34
458.19	8163.79
458.38	8177.83
458.56	8360.39
458.74	8262.09
458.93	8325.29
459.11	8138.04
459.29	8285.50
459.48	8196.56
459.66	8358.05
459.84	8353.37
460.03	8669.34
460.21	8442.31
460.39	8662.32
460.57	8528.91
460.76	8449.33
460.94	8667.00
461.12	8657.64
461.31	8559.34
461.49	8564.02
461.67	8545.30
461.85	8889.35
462.04	8730.20
462.22	8877.65
462.40	8835.52
462.59	8727.86
462.77	8788.71
462.95	8793.39
463.13	8950.21
463.32	9050.85
463.50	8889.35
463.68	8966.59
463.86	9076.60
464.05	8833.18
464.23	8669.34
464.41	9277.88
464.59	8779.35
464.78	8961.91
464.96	9289.59
465.14	8987.66
465.32	9240.44
465.50	9310.65
465.69	9095.32
465.87	9291.93
466.05	9125.75
466.23	9177.24
466.41	9245.12
466.60	9275.54
466.78	9123.41
466.96	9006.38
467.14	9282.56
467.32	9408.95
467.51	9645.35
467.69	8959.57
467.87	9387.89
468.05	9736.63
468.23	9479.17
468.41	9366.82
468.60	9724.93
468.78	9563.43
468.96	9521.30
469.14	9633.64
469.32	9930.89
469.50	9537.68
469.69	9753.01
469.87	9886.42
470.05	9661.73
470.23	9942.60
470.41	9832.59
470.59	9797.48
470.77	9753.01
470.95	10052.60
471.14	10136.86
471.32	10019.83
471.50	10260.91
471.68	10169.63
471.86	10162.61
472.04	10387.30
472.22	10693.91
472.40	10471.56
472.58	10333.47
472.77	10162.61
472.95	10480.92
473.13	10808.59
473.31	10569.86
473.49	10436.45
473.67	10789.87
473.85	10633.05
474.03	10855.40
474.21	11201.80
474.39	11042.65
474.57	11147.97
474.75	11150.31
474.93	11042.65
475.12	10867.11
475.30	11295.43
475.48	11021.58
475.66	11126.91
475.84	11220.53
476.02	11379.68
476.20	11520.12
476.38	11473.31
476.56	11808.00
476.74	11768.21
476.92	11861.84
477.10	11627.78
477.28	12065.46
477.46	12084.19
477.64	12210.57
477.82	12355.69
478.00	12613.15
478.18	12549.95
478.36	12453.99
478.54	12521.87
478.72	12531.23
478.90	12592.08
479.08	12910.40
479.26	13135.09
479.44	13247.43
479.62	13172.54
479.80	13427.65
479.98	13532.98
480.16	13717.88
480.34	13804.48
480.52	13680.43
480.70	13790.44
480.88	13781.07
481.06	13703.84
481.24	14097.05
481.41	14104.07
481.59	14293.65
481.77	14174.28
481.95	14181.31
482.13	14640.05
482.31	14576.86
482.49	14902.19
482.67	14736.01
482.85	14710.27
483.03	15138.58
483.21	15367.96
483.39	15487.32
483.57	15325.83
483.74	15789.25
483.92	15627.76
484.10	15583.29
484.28	15807.98
484.46	15887.56
484.64	16439.92
484.82	16252.68
485.00	16070.12
485.18	16271.40
485.35	16613.12
485.53	16346.30
485.71	16107.57
485.89	16233.96
486.07	16451.63
486.25	16692.70
486.43	16973.56
486.61	16987.61
486.78	16905.69
486.96	17364.43
487.14	17561.04
487.32	17837.22
487.50	18328.74
487.68	18185.96
487.85	18473.85
488.03	18611.94
488.21	18649.39
488.39	18382.57
488.57	18625.98
488.75	18731.31
488.92	19211.12
489.10	19695.61
489.28	19309.42
489.46	19477.94
489.64	19599.65
489.81	19967.11
489.99	20152.01
490.17	20226.91
490.35	20748.85
490.53	20262.02
490.70	20339.26
490.88	20149.67
491.06	20643.52
491.24	20596.71
491.41	20910.35
491.59	20624.80
491.77	20863.54
491.95	21076.52
492.13	21111.63
492.30	21703.79
492.48	21387.82
492.66	22263.18
492.84	21881.67
493.01	22113.38
493.19	21738.90
493.37	22209.34
493.54	22146.15
493.72	22499.57
493.90	22656.39
494.08	23044.91
494.25	23119.81
494.43	23253.22
494.61	23363.23
494.79	23550.47
494.96	23328.12
495.14	23616.01
495.32	23660.48
495.49	24027.94
495.67	23997.51
495.85	24041.98
496.02	24109.86
496.20	24552.22
496.38	24238.59
496.55	24655.20
496.73	25263.74
496.91	25050.75
497.09	25256.72
497.26	25127.99
497.44	25057.78
497.62	25043.73
497.79	25144.38
497.97	25146.72
498.14	25296.51
498.32	25369.07
498.50	25802.07
498.67	25879.30
498.85	25823.13
499.03	25951.86
499.20	25923.77
499.38	26452.73
499.56	26586.15
499.73	26462.10
499.91	26778.07
500.08	26937.23
500.26	26153.15
500.44	26817.86
500.61	26803.82
500.79	26611.89
500.97	26918.50
501.14	27346.82
501.32	27152.55
501.49	27108.08
501.67	27154.90
501.84	27737.69
502.02	27377.25
502.20	27786.84
502.37	27924.93
502.55	27857.06
502.72	27964.72
502.90	28168.35
503.07	27950.68
503.25	28240.90
503.43	28154.30
503.60	28240.90
503.78	28154.30
503.95	28542.83
504.13	28290.06
504.30	28720.71
504.48	28879.87
504.65	29149.03
504.83	28830.72
505.01	29156.05
505.18	29296.49
505.36	29736.51
505.53	29392.45
505.71	29888.64
505.88	29895.66
506.06	29315.21
506.23	29401.81
506.41	29778.64
506.58	29685.01
506.76	29937.79
506.93	30216.32
507.11	29881.62
507.28	29816.08
507.46	30174.19
507.63	30031.41
507.81	30061.84
507.98	30045.46
508.16	30621.23
508.33	30443.35
508.50	30841.24
508.68	30834.22
508.85	31164.23
509.03	31211.04
509.20	30841.24
509.38	31201.68
509.55	31136.15
509.73	31082.31
509.90	31215.72
510.08	31222.75
510.25	31386.58
510.42	31412.33
510.60	31835.97
510.77	31847.67
510.95	32037.25
511.12	32327.48
511.30	32369.61
511.47	32388.33
511.64	32460.89
511.82	32727.71
511.99	32374.29
512.17	32472.59
512.34	32210.45
512.51	32774.52
512.69	32591.96
512.86	33043.68
513.04	32891.55
513.21	32444.51
513.38	32713.67
513.56	32912.61
513.73	33387.74
513.90	32952.40
514.08	32842.40
514.25	33191.14
514.43	33116.24
514.60	33270.72
514.77	33219.22
514.95	33464.98
515.12	33677.97
515.29	33544.56
515.47	33626.48
515.64	34164.80
515.81	33942.45
515.99	33888.62
516.16	33869.89
516.33	33446.26
516.51	33453.28
516.68	33195.82
516.85	33228.59
517.03	33364.34
517.20	33809.04
517.37	34117.99
517.54	34302.89
517.72	34284.17
517.89	34157.78
518.06	33881.60
518.24	34099.26
518.41	34628.23
518.58	34380.13
518.75	34431.62
518.93	34597.80
519.10	34855.26
519.27	35115.06
519.45	35255.49
519.62	35288.26
519.79	35536.35
519.96	35292.94
520.14	35402.94
520.31	35299.96
520.48	35803.17
520.65	35629.98
520.83	36142.55
521.00	36095.74
521.17	35592.53
521.34	35828.92
521.52	35700.19
521.69	36297.03
521.86	35985.74
522.03	36346.18
522.20	36491.29
522.38	36594.28
522.55	36381.29
522.72	36261.92
522.89	36156.60
523.07	36917.27
523.24	36306.39
523.41	36959.40
523.58	37038.98
523.75	37020.25
523.92	37493.04
524.10	37343.25
524.27	37467.30
524.44	37338.57
524.61	37282.39
524.78	37682.62
524.96	37483.68
525.13	37570.28
525.30	37216.86
525.47	38188.18
525.64	37666.24
525.81	37532.83
525.98	37570.28
526.16	37610.07
526.33	37376.01
526.50	37614.75
526.67	37078.77
526.84	37703.69
527.01	37397.08
527.18	37741.14
527.36	38424.57
527.53	38384.79
527.70	38204.56
527.87	38082.86
528.04	38644.59
528.21	38649.27
528.38	38150.73
528.55	39510.58
528.72	38948.85
528.89	38782.68
529.07	38419.89
529.24	38321.59
529.41	38979.28
529.58	38567.35
529.75	39033.11
529.92	39337.38
530.09	39014.39
530.26	39386.54
530.43	39276.53
530.60	39463.77
530.77	39185.25
530.94	39679.10
531.11	39533.99
531.28	39295.25
531.46	39173.55
531.63	39725.91
531.80	39522.29
531.97	39131.42
532.14	39538.67
532.31	38974.60
532.48	39725.91
532.65	39358.45
532.82	39384.19
532.99	40229.13
533.16	39569.10
533.33	40013.80
533.50	39800.81
533.67	40297.00
533.84	39885.07
534.01	40357.86
534.18	40147.21
534.35	40428.07
534.52	40481.91
534.69	40437.44
534.86	40755.75
535.03	40528.72
535.20	40662.13
535.37	40938.31
535.54	40879.80
535.71	40594.25
535.88	40851.71
536.05	40575.53
536.22	40624.68
536.38	41099.81
536.55	40987.46
536.72	41317.48
536.89	40704.26
537.06	40687.87
537.23	41303.43
537.40	41219.17
537.57	40982.78
537.74	41130.23
537.91	41125.55
538.08	41099.81
538.25	41074.06
538.42	41324.50
538.59	41741.11
538.75	40741.71
538.92	41205.13
539.09	41371.31
539.26	41296.41
539.43	41247.26
539.60	41904.95
539.77	41324.50
539.94	41818.35
540.11	40814.26
540.28	41567.91
540.44	41111.51
540.61	41523.44
540.78	41521.10
540.95	41846.44
541.12	41406.42
541.29	41614.72
541.46	41453.23
541.62	41888.57
541.79	41717.71
541.96	42054.75
542.13	42370.72
542.30	41956.44
542.47	42277.10
542.63	42096.88
542.80	42263.05
542.97	42759.25
543.14	42740.52
543.31	42679.67
543.48	42649.24
543.64	43416.94
543.81	42850.53
543.98	42445.62
544.15	42944.15
544.32	43051.81
544.48	43374.81
544.65	43068.20
544.82	42979.26
544.99	42972.24
545.16	43012.02
545.32	42848.19
545.49	43522.26
545.66	43421.62
545.83	43505.88
546.00	43739.93
546.16	43068.20
546.33	43210.97
546.50	42930.11
546.67	43634.61
546.83	43548.01
547.00	43164.16
547.17	43150.12
547.34	43269.48
547.50	43377.15
547.67	43746.95
547.84	43882.70
548.00	43414.60
548.17	44023.14
548.34	44238.47
548.51	43878.02
548.67	44109.74
548.84	44212.72
549.01	43569.07
549.18	43339.70
549.34	43955.26
549.51	44044.20
549.68	44107.40
549.84	44226.76
550.01	44718.28
550.18	43938.88
550.34	43856.96
550.51	44046.54
550.68	44233.78
550.84	43854.62
551.01	44521.67
551.18	43892.07
551.34	44296.98
551.51	44378.90
551.68	44414.01
551.84	44170.59
552.01	44212.72
552.18	44275.91
552.34	44060.58
552.51	44451.45
552.68	44060.58
552.84	44832.96
553.01	44336.77
553.18	44561.46
553.34	44594.23
553.51	44250.17
553.67	44552.10
553.84	44406.98
554.01	44828.28
554.17	44938.29
554.34	44905.52
554.51	44788.49
554.67	45031.91
554.84	44406.98
555.00	44683.17
555.17	44744.02
555.33	45020.20
555.50	44708.91
555.67	45024.89
555.83	44896.16
556.00	44708.91
556.16	45551.51
556.33	45118.51
556.50	44556.78
556.66	45151.27
556.83	44870.41
556.99	45254.26
557.16	45202.77
557.32	45289.37
557.49	45380.65
557.65	44978.07
557.82	44830.62
557.98	45420.44
558.15	45186.38
558.32	44912.54
558.48	44699.55
558.65	45427.46
558.81	44910.20
558.98	45020.20
559.14	45296.39
559.31	45076.38
559.47	45371.28
559.64	45500.01
559.80	45668.53
559.97	45567.89
560.13	44971.05
560.30	45846.41
560.46	45476.61
560.63	45216.81
560.79	45865.14
560.96	45902.59
561.12	45350.22
561.29	45418.10
561.45	45209.79
561.61	45507.04
561.78	45490.65
561.94	45485.97
562.11	45127.87
562.27	45354.90
562.44	45406.39
562.60	45612.36
562.77	45954.08
562.93	45652.15
563.10	45432.14
563.26	45022.54
563.42	46162.39
563.59	45591.30
563.75	46019.61
563.92	45780.88
564.08	45937.69
564.24	46040.68
564.41	45453.20
564.57	45546.82
564.74	45834.71
564.90	45745.77
565.07	45923.65
565.23	45504.70
565.39	45584.27
565.56	45652.15
565.72	45572.57
565.88	45617.04
566.05	45752.79
566.21	45708.32
566.38	45792.58
566.54	45713.00
566.70	45949.40
566.87	46110.89
567.03	46134.30
567.19	46373.03
567.36	46003.23
567.52	45881.52
567.68	46099.19
567.85	45771.52
568.01	45783.22
568.17	46267.71
568.34	46036.00
568.50	45844.07
568.66	45734.07
568.83	45717.68
568.99	46021.95
569.15	45661.51
569.32	45951.74
569.48	45689.60
569.64	46202.18
569.81	46085.15
569.97	46045.36
570.13	46073.45
570.30	45373.63
570.46	45792.58
570.62	45626.40
570.78	45385.33
570.95	45827.69
571.11	46199.83
571.27	45736.41
571.43	46232.60
571.60	45832.37
571.76	45766.84
571.92	46012.59
572.09	45911.95
572.25	46057.06
572.41	45823.01
572.57	46312.18
572.74	46574.32
572.90	45989.19
573.06	45715.34
573.22	45909.61
573.38	46309.84
573.55	46012.59
573.71	46574.32
573.87	46454.95
574.03	46117.92
574.20	46384.74
574.36	46246.65
574.52	46195.15
574.68	46253.67
574.84	46412.82
575.01	45937.69
575.17	46064.08
575.33	45907.27
575.49	45603.00
575.65	46087.49
575.82	46312.18
575.98	46195.15
576.14	46429.21
576.30	46183.45
576.46	45844.07
576.62	46068.76
576.79	46253.67
576.95	45902.59
577.11	46328.56
577.27	46178.77
577.43	46061.74
577.59	46150.68
577.75	46218.56
577.92	45443.84
578.08	45930.67
578.24	45717.68
578.40	45801.94
578.56	46209.20
578.72	46064.08
578.88	46279.41
579.04	46291.12
579.21	46366.01
579.37	46031.32
579.53	46246.65
579.69	46099.19
579.85	46192.81
580.01	45925.99
580.17	46223.24
580.33	46295.80
580.49	46586.02
580.65	46206.86
580.82	46356.65
580.98	45951.74
581.14	46138.98
581.30	46536.87
581.46	46213.88
581.62	46153.02
581.78	46309.84
581.94	46731.14
582.10	46321.54
582.26	46302.82
582.42	46501.76
582.58	46469.00
582.74	46464.32
582.90	46483.04
583.06	46597.73
583.22	46487.72
583.38	46623.47
583.54	46351.97
583.70	46522.83
583.86	46396.44
584.02	46162.39
584.18	46714.75
584.34	46227.92
584.50	46160.05
584.66	46546.23
584.82	46272.39
584.98	46436.23
585.14	46590.70
585.30	45977.48
585.46	46431.55
585.62	46127.28
585.78	45827.69
585.94	45956.42
586.10	46274.73
586.26	46014.93
586.42	46623.47
586.58	46394.10
586.74	46454.95
586.90	46426.87
587.06	45977.48
587.22	46284.09
587.38	46078.13
587.54	46258.35
587.70	46494.74
587.86	45818.33
588.02	46293.46
588.18	46581.34
588.34	46433.89
588.49	46033.66
588.65	45544.48
588.81	45680.24
588.97	46092.17
589.13	45888.54
589.29	45986.85
589.45	45989.19
589.61	46017.27
589.77	45977.48
589.93	46499.42
590.08	46291.12
590.24	46373.03
590.40	46532.19
590.56	47117.32
590.72	46665.60
590.88	46031.32
591.04	46635.17
591.20	46681.98
591.35	46569.64
591.51	47030.72
591.67	46195.15
591.83	46672.62
591.99	46703.05
592.15	45858.12
592.31	46398.78
592.46	46466.66
592.62	46068.76
592.78	46401.12
592.94	46646.88
593.10	46389.42
593.26	46454.95
593.41	46007.91
593.57	46447.93
593.73	46494.74
593.89	46291.12
594.05	46632.83
594.20	46689.01
594.36	46497.08
594.52	46239.62
594.68	46438.57
594.84	46061.74
594.99	46499.42
595.15	46260.69
595.31	46742.84
595.47	46157.70
595.62	45954.08
595.78	46195.15
595.94	47138.39
596.10	46681.98
596.25	46719.43
596.41	46595.38
596.57	46356.65
596.73	46623.47
596.88	46223.24
597.04	46330.90
597.20	46258.35
597.36	46770.93
597.51	46948.81
597.67	46719.43
597.83	46642.20
597.99	47035.41
598.14	46504.10
598.30	46911.36
598.46	46742.84
598.61	46277.07
598.77	46244.30
598.93	46054.72
599.09	46728.80
599.24	46913.70
599.40	47082.22
599.56	46836.46
599.71	46515.81
599.87	46618.79
600.03	46728.80
600.18	46513.47
600.34	46408.14
600.50	46316.86
600.65	46705.39
600.81	46419.84
600.97	46499.42
601.12	46560.28
601.28	46424.53
601.44	46490.06
601.59	46307.50
601.75	46160.05
601.91	46590.70
602.06	46333.24
602.22	46260.69
602.37	46480.70
602.53	46342.61
602.69	46981.57
602.84	46569.64
603.00	46705.39
603.16	46787.31
603.31	46597.73
603.47	46335.59
603.62	46204.52
603.78	46454.95
603.94	46796.67
604.09	46902.00
604.25	46408.14
604.40	46681.98
604.56	46571.98
604.71	46787.31
604.87	46473.68
605.03	46492.40
605.18	46167.07
605.34	46548.57
605.49	46146.00
605.65	46604.75
605.80	46452.61
605.96	46347.29
606.12	46230.26
606.27	46801.35
606.43	45956.42
606.58	46333.24
606.74	46576.66
606.89	46185.79
607.05	46536.87
607.20	46220.90
607.36	46038.34
607.51	46340.27
607.67	46155.36
607.82	46174.09
607.98	46218.56
608.13	46300.48
608.29	46068.76
608.44	45720.02
608.60	45764.49
608.75	46033.66
608.91	45872.16
609.06	45633.42
609.22	46188.13
609.37	45947.06
609.53	46059.40
609.68	46204.52
609.84	46017.27
609.99	45404.05
610.15	45794.92
610.30	45673.21
610.46	45769.18
610.61	45963.44
610.76	45991.53
610.92	46003.23
611.07	45984.51
611.23	45883.86
611.38	45940.04
611.54	45750.45
611.69	45949.40
611.84	45198.09
612.00	45682.58
612.15	45492.99
612.31	45893.22
612.46	45312.77
612.62	46003.23
612.77	45759.81
612.92	45801.94
613.08	45411.07
613.23	45713.00
613.39	45603.00
613.54	45095.10
613.69	45881.52
613.85	45439.16
614.00	45457.88
614.15	45598.32
614.31	45457.88
614.46	45600.66
614.62	45446.18
614.77	44924.24
614.92	45268.30
615.08	45106.80
615.23	44928.92
615.38	45198.09
615.54	44910.20
615.69	44947.65
615.84	44814.24
616.00	44940.63
616.15	45148.93
616.30	44978.07
616.46	44870.41
616.61	44982.76
616.76	44795.51
616.92	44844.66
617.07	44769.77
617.22	44896.16
617.37	44779.13
617.53	45139.57
617.68	45184.04
617.83	44884.45
617.99	44423.37
618.14	44762.75
618.29	44910.20
618.45	44678.49
618.60	44083.99
618.75	44708.91
618.90	44772.11
619.06	44825.94
619.21	44617.63
619.36	44734.66
619.51	44617.63
619.67	44416.35
619.82	44870.41
619.97	44601.25
620.12	44048.88
620.28	44355.49
620.43	44776.79
620.58	44369.54
620.73	44542.74
620.89	44252.51
621.04	44481.88
621.19	44130.80
621.34	44683.17
621.49	44491.24
621.65	43990.37
621.80	44030.16
621.95	43838.23
622.10	44224.42
622.25	43880.36
622.41	43634.61
622.56	44130.80
622.71	44477.20
622.86	44348.47
623.01	43821.85
623.16	43969.30
623.32	44236.12
623.47	44388.26
623.62	43550.35
623.77	43908.45
623.92	44037.18
624.07	44053.56
624.23	43400.55
624.38	43660.35
624.53	43318.64
624.68	43353.74
624.83	43452.05
624.98	43922.49
625.13	42850.53
625.29	43079.90
625.44	43583.12
625.59	43168.84
625.74	42625.84
625.89	42745.20
626.04	43409.92
626.19	43112.67
626.34	43782.06
626.49	43019.05
626.65	43342.04
626.80	43777.38
626.95	42951.17
627.10	43320.98
627.25	43243.74
627.40	42887.98
627.55	42782.65
627.70	42384.76
627.85	42738.18
628.00	42450.30
628.15	42801.38
628.30	42820.10
628.45	43065.86
628.60	42852.87
628.76	43182.88
628.91	43267.14
629.06	42780.31
629.21	42644.56
629.36	42747.54
629.51	42635.20
629.66	42298.16
629.81	42288.80
629.96	42628.18
630.11	42160.07
630.26	42351.99
630.41	42784.99
630.56	42422.21
630.71	42349.65
630.86	42211.56
631.01	42415.19
631.16	42656.26
631.31	41921.34
631.46	41710.69
631.61	42312.20
631.76	41904.95
631.91	42117.94
632.06	42361.36
632.21	42391.78
632.36	42024.32
632.51	41862.82
632.66	42515.83
632.81	41970.49
632.96	41951.76
633.10	41921.34
633.25	41963.46
633.40	41944.74
633.55	41902.61
633.70	42038.36
633.85	41764.52
634.00	41951.76
634.15	42178.79
634.30	41832.39
634.45	41343.22
634.60	41900.27
634.75	41287.05
634.90	41968.15
635.05	41698.98
635.19	41233.22
635.34	41647.49
635.49	41567.91
635.64	41120.87
635.79	41467.27
635.94	41633.45
636.09	41631.11
636.24	41167.68
636.39	40996.82
636.53	41780.90
636.68	41483.66
636.83	41102.15
636.98	41649.83
637.13	40950.01
637.28	41368.97
637.43	41443.87
637.57	41469.61
637.72	40928.95
637.87	41230.88
638.02	41462.59
638.17	41345.56
638.32	41064.70
638.46	40730.00
638.61	41471.95
638.76	41053.00
638.91	41076.40
639.06	40961.72
639.20	40650.42
639.35	40910.22
639.50	40907.88
639.65	40971.08
639.80	41177.04
639.94	40727.66
640.09	40753.41
640.24	40868.09
640.39	40236.15
640.54	40229.13
640.68	40474.88
640.83	41254.28
640.98	40914.90
641.13	40334.45
641.27	40229.13
641.42	40271.26
641.57	40591.91
641.72	40023.16
641.86	40388.28
642.01	39835.92
642.16	40102.74
642.31	39985.71
642.45	40350.84
642.60	40301.68
642.75	40119.12
642.90	39922.52
643.04	40374.24
643.19	40119.12
643.34	40528.72
643.48	39887.41
643.63	40109.76
643.78	39966.99
643.93	39709.53
644.07	39508.24
644.22	40268.92
644.37	39599.52
644.51	39789.11
644.66	40620.00
644.81	39732.93
644.95	40439.78
645.10	40189.34
645.25	40257.21
645.39	40102.74
645.54	39948.26
645.69	39859.32
645.83	39599.52
645.98	39716.55
646.13	39695.49
646.27	39447.39
646.42	39761.02
646.57	39758.68
646.71	39587.82
646.86	39725.91
647.00	39845.28
647.15	39833.58
647.30	39480.16
647.44	39433.35
647.59	39864.00
647.74	39491.86
647.88	39651.02
648.03	39049.50
648.17	39082.27
648.32	39372.49
648.47	39494.20
648.61	39274.19
648.76	39033.11
648.90	39203.97
649.05	39482.50
649.20	39000.35
649.34	39496.54
649.49	38892.68
649.63	39194.61
649.78	38768.63
649.92	39330.36
650.07	39311.64
650.21	38941.83
650.36	38871.62
650.51	39339.72
650.65	39519.95
650.80	39339.72
650.94	39030.77
651.09	39524.63
651.23	38883.32
651.38	39388.88
651.52	38754.59
651.67	38569.69
651.81	38768.63
651.96	38431.60
652.10	38541.60
652.25	38380.10
652.39	38885.66
652.54	39304.62
652.68	38848.21
652.83	38749.91
652.97	38827.15
653.12	38710.12
653.26	38345.00
653.41	38614.16
653.55	38494.79
653.70	38349.68
653.84	38485.43
653.99	38447.98
654.13	38232.65
654.27	38066.47
654.42	38000.94
654.56	38124.99
654.71	38710.12
654.85	38300.53
655.00	38024.34
655.14	37909.66
655.29	37848.80
655.43	37809.01
655.57	37923.70
655.72	37617.09
655.86	37593.68
656.01	37406.44
656.15	37383.04
656.30	37443.89
656.44	37490.70
656.58	37191.11
656.73	37792.63
656.87	37560.92
657.01	37085.79
657.16	37244.94
657.30	37310.48
657.45	37565.60
657.59	37376.01
657.73	37483.68
657.88	37956.47
658.02	37448.57
658.16	37467.30
658.31	37649.86
658.45	37902.64
658.60	37598.37
658.74	37373.67
658.88	37486.02
659.03	37516.45
659.17	36945.36
659.31	37085.79
659.46	37167.71
659.60	36933.65
659.74	37223.88
659.89	37071.75
660.03	36477.25
660.17	36912.59
660.32	37036.64
660.46	36928.97
660.60	36582.57
660.74	36507.68
660.89	36704.28
661.03	36840.03
661.17	36444.48
661.32	36409.37
661.46	36395.33
661.60	36149.57
661.74	36624.70
661.89	36371.92
662.03	36093.40
662.17	36308.73
662.31	36252.56
662.46	36266.60
662.60	36226.81
662.74	36297.03
662.88	35896.80
663.03	35878.07
663.17	35828.92
663.31	35452.09
663.45	36034.89
663.60	35957.65
663.74	35625.29
663.88	35737.64
664.02	35555.08
664.17	35964.67
664.31	35611.25
664.45	35842.96
664.59	35248.47
664.73	35646.36
664.88	35236.77
665.02	34848.24
665.16	35615.93
665.30	35290.60
665.44	35108.04
665.59	34827.17
665.73	34796.74
665.87	35042.50
666.01	34836.53
666.15	34969.94
666.29	34810.79
666.44	34836.53
666.58	34693.76
666.72	34780.36
666.86	35260.17
667.00	34595.46
667.14	34302.89
667.28	34220.97
667.43	34213.95
667.57	34810.79
667.71	34497.16
667.85	34202.25
667.99	34110.97
668.13	34108.63
668.27	34469.07
668.41	34457.37
668.56	33680.31
668.70	34431.62
668.84	34017.35
668.98	33378.38
669.12	33366.68
669.26	33734.14
669.40	33558.60
669.54	33764.57
669.68	33404.13
669.82	33343.27
669.96	32708.99
670.10	33495.41
670.25	33567.96
670.39	32884.53
670.53	33254.33
670.67	33509.45
670.81	33610.09
670.95	32940.70
671.09	32966.45
671.23	33029.64
671.37	33055.39
671.51	32678.56
671.65	32493.66
671.79	32580.26
671.93	32669.20
672.07	32863.46
672.21	32378.97
672.35	32357.91
672.49	32236.20
672.63	32563.87
672.77	32568.55
672.91	32460.89
673.05	32435.14
673.19	32165.98
673.33	32018.53
673.47	31810.22
673.61	31857.03
673.75	31840.65
673.89	31466.16
674.03	31594.89
674.17	31426.37
674.31	31775.11
674.45	31108.06
674.59	31384.24
674.73	31585.53
674.87	31400.63
675.01	31384.24
675.15	31519.99
675.29	31316.37
675.43	30761.66
675.56	31110.40
675.70	30738.26
675.84	30855.28
675.98	29986.94
676.12	30654.00
676.26	30888.05
676.40	30614.21
676.54	30600.16
676.68	30827.20
676.82	29600.76
676.96	30436.33
677.10	30047.80
677.23	30031.41
677.37	29759.91
677.51	29497.77
677.65	29589.05
677.79	29408.83
677.93	29240.31
678.07	29415.85
678.21	29097.54
678.34	29130.31
678.48	28914.98
678.62	28828.38
678.76	28814.34
678.90	28524.11
679.04	28669.22
679.18	28678.58
679.31	28416.44
679.45	28245.58
679.59	27981.10
679.73	28020.89
679.87	28053.66
680.00	27971.74
680.14	28016.21
680.28	28170.69
680.42	27770.46
680.56	27564.49
680.70	27491.93
680.83	27850.03
680.97	27725.99
681.11	27611.30
681.25	26948.93
681.39	27407.67
681.52	27124.47
681.66	27000.42
681.80	26859.99
681.94	26927.86
682.07	27126.81
682.21	26600.19
682.35	26888.07
682.49	26560.40
682.62	26305.28
682.76	26279.54
682.90	26235.06
683.04	26312.30
683.17	26082.93
683.31	25909.73
683.45	25888.67
683.59	25661.63
683.72	25729.51
683.86	25455.67
684.00	25844.20
684.13	25797.38
684.27	25355.02
684.41	25663.97
684.55	25418.22
684.68	25097.56
684.82	25156.08
684.96	25060.12
685.09	25275.45
685.23	24945.43
685.37	24903.30
685.50	24821.38
685.64	24362.64
685.78	24966.49
685.91	24517.11
686.05	24163.69
686.19	24308.80
686.32	24018.58
686.46	23733.03
686.60	23463.87
686.73	23353.87
686.87	23468.55
687.01	23379.61
687.14	23037.89
687.28	23175.98
687.42	23508.34
687.55	23370.25
687.69	23325.78
687.82	23058.96
687.96	23243.86
688.10	23487.28
688.23	22728.94
688.37	22410.63
688.50	22370.84
688.64	22506.59
688.78	22567.45
688.91	22361.48
689.05	22628.30
689.18	22171.89
689.32	22017.42
689.46	22012.74
689.59	22068.91
689.73	22218.71
689.86	22136.79
690.00	21771.66
690.13	21858.26
690.27	21642.93
690.41	21762.30
690.54	21226.32
690.68	21085.89
690.81	21579.74
690.95	21495.48
691.08	21223.98
691.22	21153.76
691.35	21041.42
691.49	21060.14
691.62	21018.01
691.76	21123.33
691.89	21099.93
692.03	20617.78
692.16	20952.48
692.30	20360.32
692.43	20311.17
692.57	20638.84
692.70	20542.88
692.84	20231.59
692.97	19885.19
693.11	19772.85
693.24	20058.39
693.38	19733.06
693.51	19468.58
693.65	19796.25
693.78	19786.89
693.92	19707.31
694.05	19241.54
694.19	19522.41
694.32	19466.24
694.45	19358.57
694.59	19056.64
694.72	18988.77
694.86	18780.46
694.99	19007.49
695.13	18778.12
695.26	18824.93
695.39	18630.66
695.53	19103.45
695.66	18913.87
695.80	18647.05
695.93	18649.39
696.07	18523.00
696.20	18286.61
696.33	18134.47
696.47	18394.27
696.60	18157.88
696.73	18087.66
696.87	17783.39
697.00	17935.53
697.14	17591.47
697.27	17879.35
697.40	17661.68
697.54	17532.95
697.67	17319.96
697.80	17319.96
697.94	17212.30
698.07	17418.27
698.21	17188.89
698.34	17247.41
698.47	16989.95
698.61	16919.73
698.74	16774.62
698.87	16915.05
699.01	16182.46
699.14	16348.64
699.27	16187.14
699.40	16248.00
699.54	16414.18
699.67	16187.14
699.80	16383.75
699.94	16116.93
700.07	16166.08
700.20	16360.34
700.34	16229.27
700.47	16180.12
700.60	16182.46
700.73	16091.18
700.87	16133.31
701.00	15906.28
701.13	15726.06
701.26	15290.72
701.40	15428.81
701.53	15159.65
701.66	15335.19
701.79	15290.72
701.93	15433.49
702.06	15164.33
702.19	14871.76
702.32	14867.08
702.46	15009.86
702.59	15176.03
702.72	14899.85
702.85	14897.51
702.99	14764.10
703.12	14855.38
703.25	14628.35
703.38	14249.18
703.51	14457.49
703.65	14483.24
703.78	14345.14
703.91	14197.69
704.04	14136.84
704.17	14310.04
704.31	14263.22
704.44	13886.40
704.57	13930.87
704.70	14040.87
704.83	13851.29
704.96	13916.83
705.10	14036.19
705.23	13551.70
>>>>>End Processed Spectral Data<<<<<
