SpectraSuite Data File
++++++++++++++++++++++++++++++++++++
Date: Fri Oct 25 10:48:01 EDT 2013
User: price-jones
Dark Spectrum Present: No
Reference Spectrum Present: No
Number of Sampled Component Spectra: 1
Spectrometers: USB2+H05261
Integration Time (usec): 100000 (USB2+H05261)
Spectra Averaged: 1 (USB2+H05261)
Boxcar Smoothing: 0 (USB2+H05261)
Correct for Electrical Dark: No (USB2+H05261)
Strobe/Lamp Enabled: No (USB2+H05261)
Correct for Detector Non-linearity: No (USB2+H05261)
Correct for Stray Light: No (USB2+H05261)
Number of Pixels in Processed Spectrum: 2048
>>>>>Begin Processed Spectral Data<<<<<
365.73	191.92
365.92	191.92
366.12	191.92
366.32	11.70
366.52	95.96
366.72	110.01
366.91	9.36
367.11	0.00
367.31	0.00
367.51	58.51
367.70	23.41
367.90	79.58
368.10	28.09
368.30	49.15
368.49	28.09
368.69	95.96
368.89	53.83
369.09	0.00
369.28	0.00
369.48	30.43
369.68	74.90
369.87	152.13
370.07	133.41
370.27	138.09
370.47	173.20
370.66	372.15
370.86	468.11
371.06	433.00
371.25	463.43
371.45	395.55
371.65	454.06
371.84	489.17
372.04	409.59
372.24	472.79
372.44	465.77
372.63	514.92
372.83	468.11
373.03	454.06
373.22	437.68
373.42	454.06
373.62	512.58
373.81	512.58
374.01	517.26
374.21	589.82
374.40	449.38
374.60	524.28
374.79	552.37
374.99	540.66
375.19	535.98
375.38	594.50
375.58	575.77
375.78	587.47
375.97	631.94
376.17	610.88
376.37	545.34
376.56	566.41
376.76	636.63
376.95	566.41
377.15	631.94
377.35	568.75
377.54	620.24
377.74	582.79
377.93	573.43
378.13	540.66
378.33	566.41
378.52	596.84
378.72	606.20
378.91	622.58
379.11	589.82
379.31	573.43
379.50	573.43
379.70	592.16
379.89	627.26
380.09	624.92
380.28	662.37
380.48	613.22
380.68	631.94
380.87	624.92
381.07	657.69
381.26	678.76
381.46	657.69
381.65	674.07
381.85	631.94
382.04	627.26
382.24	681.10
382.43	627.26
382.63	699.82
382.83	716.20
383.02	704.50
383.22	706.84
383.41	709.18
383.61	725.57
383.80	746.63
384.00	725.57
384.19	688.12
384.39	774.72
384.58	786.42
384.78	779.40
384.97	716.20
385.17	753.65
385.36	732.59
385.56	816.85
385.75	709.18
385.95	753.65
386.14	851.96
386.34	868.34
386.53	746.63
386.72	727.91
386.92	807.48
387.11	758.33
387.31	739.61
387.50	741.95
387.70	812.17
387.89	835.57
388.09	837.91
388.28	812.17
388.48	772.38
388.67	847.27
388.86	779.40
389.06	889.40
389.25	828.55
389.45	877.70
389.64	938.55
389.84	943.24
390.03	931.53
390.22	954.94
390.42	901.11
390.61	1004.09
390.81	940.90
391.00	1027.50
391.19	961.96
391.39	940.90
391.58	954.94
391.78	976.00
391.97	931.53
392.16	830.89
392.36	952.60
392.55	1006.43
392.75	924.51
392.94	957.28
393.13	992.39
393.33	959.62
393.52	1015.79
393.71	1062.60
393.91	1060.26
394.10	1029.84
394.29	976.00
394.49	1022.81
394.68	1116.44
394.88	1090.69
395.07	1036.86
395.26	1109.41
395.46	1076.65
395.65	1111.75
395.84	1083.67
396.04	1160.91
396.23	1245.16
396.42	1139.84
396.62	1116.44
396.81	1102.39
397.00	1123.46
397.19	1210.06
397.39	1132.82
397.58	1219.42
397.77	1172.61
397.97	1228.78
398.16	1348.15
398.35	1238.14
398.55	1245.16
398.74	1280.27
398.93	1268.57
399.12	1247.51
399.32	1329.42
399.51	1240.48
399.70	1249.85
399.90	1277.93
400.09	1451.13
400.28	1352.83
400.47	1352.83
400.67	1394.96
400.86	1406.66
401.05	1469.86
401.24	1474.54
401.44	1369.21
401.63	1371.55
401.82	1434.75
402.01	1488.58
402.21	1511.99
402.40	1514.33
402.59	1490.92
402.78	1504.96
402.97	1530.71
403.17	1544.75
403.36	1633.69
403.55	1692.21
403.74	1556.46
403.93	1530.71
404.13	1638.38
404.32	1495.60
404.51	1563.48
404.70	1582.20
404.89	1657.10
405.09	1682.85
405.28	1638.38
405.47	1703.91
405.66	1781.15
405.85	1757.74
406.05	1724.97
406.24	1783.49
406.43	1685.19
406.62	1839.66
406.81	1842.00
407.00	1771.79
407.20	1797.53
407.39	1867.75
407.58	1844.34
407.77	1874.77
407.96	1926.26
408.15	1996.48
408.34	1994.14
408.54	1966.05
408.73	1856.04
408.92	2038.61
409.11	2022.22
409.30	2017.54
409.49	1956.69
409.68	2085.42
409.87	2069.03
410.07	2087.76
410.26	2101.80
410.45	2160.31
410.64	2172.02
410.83	2237.55
411.02	2204.78
411.21	2176.70
411.40	2317.13
411.59	2251.60
411.78	2373.30
411.98	2193.08
412.17	2387.35
412.36	2324.15
412.55	2356.92
412.74	2427.14
412.93	2349.90
413.12	2270.32
413.31	2565.23
413.50	2413.09
413.69	2504.37
413.88	2602.68
414.07	2588.63
414.26	2684.59
414.45	2605.02
414.64	2602.68
414.83	2722.04
415.02	2628.42
415.22	2635.44
415.41	2642.46
415.60	2614.38
415.79	2733.75
415.98	2759.49
416.17	2766.51
416.36	2799.28
416.55	2906.95
416.74	2757.15
416.93	2794.60
417.12	2822.69
417.31	3016.95
417.50	3077.80
417.69	3028.65
417.88	2916.31
418.07	3019.29
418.26	3038.02
418.45	3075.46
418.64	3096.53
418.83	3162.06
419.02	3038.02
419.21	3019.29
419.39	3166.74
419.58	3232.28
419.77	3096.53
419.96	3248.66
420.15	3239.30
420.34	3229.94
420.53	3379.73
420.72	3410.16
420.91	3279.09
421.10	3288.45
421.29	3379.73
421.48	3351.65
421.67	3325.90
421.86	3417.18
422.05	3417.18
422.24	3276.75
422.43	3384.41
422.61	3421.86
422.80	3414.84
422.99	3475.70
423.18	3452.29
423.37	3576.34
423.56	3522.51
423.75	3496.76
423.94	3337.60
424.13	3253.34
424.32	3391.44
424.50	3499.10
424.69	3726.13
424.88	3583.36
425.07	3475.70
425.26	3346.97
425.45	3590.38
425.64	3368.03
425.83	3410.16
426.01	3609.11
426.20	3730.81
426.39	3581.02
426.58	3541.23
426.77	3400.80
426.96	3471.01
427.15	3569.32
427.33	3630.17
427.52	3524.85
427.71	3770.60
427.90	3700.39
428.09	3641.87
428.28	3700.39
428.46	3754.22
428.65	3744.86
428.84	3861.88
429.03	3892.31
429.22	3630.17
429.40	3861.88
429.59	3756.56
429.78	3702.73
429.97	3588.04
430.16	3660.60
430.34	3756.56
430.53	3826.78
430.72	3747.20
430.91	3684.00
431.10	3852.52
431.28	4124.02
431.47	3960.19
431.66	4114.66
431.85	4035.08
432.03	4184.88
432.22	4212.96
432.41	4128.70
432.60	4098.28
432.79	4142.75
432.97	4208.28
433.16	4058.49
433.35	4119.34
433.54	4322.97
433.72	4250.41
433.91	4173.18
434.10	4121.68
434.28	4217.65
434.47	4278.50
434.66	4379.14
434.85	4395.53
435.03	4402.55
435.22	4203.60
435.41	4472.76
435.59	4608.51
435.78	4510.21
435.97	4484.47
436.16	4411.91
436.34	4554.68
436.53	4571.07
436.72	4585.11
436.90	4505.53
437.09	4617.88
437.28	4580.43
437.46	4683.41
437.65	4535.96
437.84	4587.45
438.02	4620.22
438.21	4685.75
438.40	4599.15
438.58	4887.04
438.77	4732.56
438.96	4854.27
439.14	4978.32
439.33	4884.70
439.52	5142.16
439.70	5025.13
439.89	5041.51
440.08	4966.62
440.26	5174.92
440.45	5116.41
440.63	5294.29
440.82	5146.84
441.01	5205.35
441.19	5378.55
441.38	5254.50
441.57	5294.29
441.75	5380.89
441.94	5570.48
442.12	5507.28
442.31	5558.77
442.50	5666.44
442.68	5650.05
442.87	5820.91
443.05	5738.99
443.24	5720.27
443.43	5685.16
443.61	5654.73
443.80	5647.71
443.98	5624.31
444.17	5502.60
444.35	5621.97
444.54	5806.87
444.73	5804.53
444.91	5748.36
445.10	5788.14
445.28	5738.99
445.47	5710.91
445.65	5701.54
445.84	5682.82
446.02	5912.19
446.21	6015.18
446.39	5792.83
446.58	5928.58
446.77	5806.87
446.95	5792.83
447.14	5820.91
447.32	5987.09
447.51	5891.13
447.69	5827.93
447.88	6019.86
448.06	5909.85
448.25	5867.72
448.43	5954.32
448.62	5937.94
448.80	5753.04
448.99	5998.79
449.17	5949.64
449.36	6164.97
449.54	6115.82
449.73	6209.44
449.91	6235.19
450.10	6251.57
450.28	6345.19
450.46	6237.53
450.65	6258.59
450.83	6232.85
451.02	6410.73
451.20	6317.11
451.39	6443.49
451.57	6143.91
451.76	6099.44
451.94	6373.28
452.13	6520.73
452.31	6356.90
452.49	6274.98
452.68	6434.13
452.86	6331.15
453.05	6504.35
453.23	6539.46
453.42	6754.79
453.60	6485.62
453.78	6427.11
453.97	6499.67
454.15	6661.16
454.34	6424.77
454.52	6642.44
454.70	6731.38
454.89	6532.44
455.07	6710.32
455.26	6715.00
455.44	6909.26
455.62	6733.72
455.81	6810.96
455.99	6920.96
456.17	6817.98
456.36	6897.56
456.54	6951.39
456.73	7108.21
456.91	7091.82
457.09	7321.20
457.28	7131.61
457.46	6991.18
457.64	7096.50
457.83	7330.56
458.01	7375.03
458.19	7304.81
458.38	7176.08
458.56	7126.93
458.74	7344.60
458.93	7372.69
459.11	7377.37
459.29	7183.10
459.48	7363.33
459.66	7353.96
459.84	7478.01
460.03	7468.65
460.21	7269.70
460.39	7588.02
460.57	7592.70
460.76	7700.36
460.94	7742.49
461.12	7529.50
461.31	7623.12
461.49	7721.43
461.67	7541.21
461.85	7793.98
462.04	7414.82
462.22	8224.64
462.40	7908.67
462.59	7838.45
462.77	7749.51
462.95	7880.58
463.13	7789.30
463.32	8011.65
463.50	8098.25
463.68	7978.89
463.86	7824.41
464.05	7775.26
464.23	7943.78
464.41	8152.09
464.59	7946.12
464.78	8105.28
464.96	8070.17
465.14	8128.68
465.32	8189.53
465.50	8348.69
465.69	8355.71
465.87	8072.51
466.05	7990.59
466.23	8093.57
466.41	8519.55
466.60	8552.32
466.78	8231.66
466.96	8294.86
467.14	8322.94
467.32	8287.84
467.51	8362.73
467.69	8184.85
467.87	8386.14
468.05	8608.49
468.23	8329.97
468.41	8376.78
468.60	8456.36
468.78	8601.47
468.96	8465.72
469.14	8681.05
469.32	8716.16
469.50	8390.82
469.69	8559.34
469.87	8674.03
470.05	8901.06
470.23	8772.33
470.41	8578.06
470.59	8901.06
470.77	8943.19
470.95	8931.48
471.14	9025.11
471.32	8959.57
471.50	9268.52
471.68	9100.00
471.86	9198.31
472.04	9142.13
472.22	9408.95
472.40	9156.18
472.58	9383.21
472.77	9327.03
472.95	9640.67
473.13	9577.47
473.31	9415.98
473.49	9476.83
473.67	9455.76
473.85	9624.28
474.03	9825.57
474.21	9832.59
474.39	9973.02
474.57	9919.19
474.75	9977.70
474.93	9928.55
475.12	9813.87
475.30	10061.96
475.48	10164.95
475.66	10209.42
475.84	10097.07
476.02	10202.40
476.20	10251.55
476.38	10417.72
476.56	10544.11
476.74	10623.69
476.92	10520.71
477.10	10541.77
477.28	10792.21
477.46	10759.44
477.64	10656.46
477.82	11131.59
478.00	11222.87
478.18	11178.40
478.36	11318.83
478.54	11229.89
478.72	11391.39
478.90	11527.14
479.08	11775.24
479.26	11587.99
479.44	11772.89
479.62	11714.38
479.80	11885.24
479.98	12067.80
480.16	12013.97
480.34	12098.23
480.52	12369.73
480.70	12336.96
480.88	12266.75
481.06	12556.97
481.24	12285.47
481.41	12713.79
481.59	12875.29
481.77	12856.56
481.95	12931.46
482.13	13163.17
482.31	12947.84
482.49	13547.02
482.67	13137.43
482.85	13675.75
483.03	13729.58
483.21	13687.45
483.39	13900.44
483.57	13926.19
483.74	14218.75
483.92	14012.79
484.10	13980.02
484.28	14281.95
484.46	14324.08
484.64	14761.76
484.82	14511.32
485.00	14602.60
485.18	14696.22
485.35	15246.25
485.53	14829.63
485.71	14853.04
485.89	15225.18
486.07	14974.75
486.25	15438.17
486.43	15215.82
486.61	15573.92
486.78	15700.31
486.96	15824.36
487.14	15854.79
487.32	15990.54
487.50	16219.91
487.68	16477.37
487.85	16606.10
488.03	16791.00
488.21	16685.68
488.39	17067.19
488.57	17121.02
488.75	17078.89
488.92	17238.05
489.10	17366.78
489.28	17481.46
489.46	17572.74
489.64	17509.55
489.81	18026.81
489.99	18092.34
490.17	18412.99
490.35	18436.40
490.53	18427.04
490.70	18792.16
490.88	18628.32
491.06	19012.17
491.24	18855.36
491.41	18672.79
491.59	19033.24
491.77	18775.78
491.95	19234.52
492.13	19253.25
492.30	19777.53
492.48	19508.37
492.66	19644.12
492.84	19798.59
493.01	20072.43
493.19	20072.43
493.37	20049.03
493.54	20280.74
493.72	20617.78
493.90	20636.50
494.08	20549.90
494.25	20863.54
494.43	20999.29
494.61	21284.83
494.79	21055.46
494.96	21118.65
495.14	21191.21
495.32	21476.76
495.49	21708.47
495.67	21621.87
495.85	21848.90
496.02	22155.51
496.20	22174.24
496.38	22108.70
496.55	22256.15
496.73	22597.87
496.91	22553.40
497.09	22815.54
497.26	22560.42
497.44	22501.91
497.62	23026.19
497.79	23257.90
497.97	22857.67
498.14	23646.43
498.32	23414.72
498.50	23335.14
498.67	23606.64
498.85	23618.35
499.03	23878.15
499.20	24320.51
499.38	23939.00
499.56	24151.99
499.73	24341.57
499.91	23913.25
500.08	24493.71
500.26	24147.31
500.44	24416.47
500.61	24247.95
500.79	24271.36
500.97	24662.22
501.14	25123.31
501.32	24821.38
501.49	25067.14
501.67	25259.06
501.84	25406.52
502.02	25263.74
502.20	25308.21
502.37	25565.67
502.55	25364.39
502.72	25645.25
502.90	25668.66
503.07	25537.59
503.25	25755.26
503.43	25806.75
503.60	25649.93
503.78	25905.05
503.95	26071.23
504.13	25919.09
504.30	26094.63
504.48	26520.61
504.65	26607.21
504.83	26663.38
505.01	26923.18
505.18	26696.15
505.36	27112.77
505.53	26918.50
505.71	27363.20
505.88	27220.43
506.06	27009.78
506.23	26864.67
506.41	26459.76
506.58	27356.18
506.76	27323.41
506.93	27749.39
507.11	27803.22
507.28	27592.58
507.46	27814.93
507.63	27798.54
507.81	27936.63
507.98	27906.21
508.16	27903.87
508.33	28084.09
508.50	28088.77
508.68	28006.85
508.85	28727.74
509.03	28222.18
509.20	28325.16
509.38	28870.51
509.55	29074.13
509.73	28496.02
509.90	28886.89
510.08	28931.36
510.25	28790.93
510.42	29385.43
510.60	29303.51
510.77	29244.99
510.95	29701.40
511.12	29769.27
511.30	29565.65
511.47	29544.58
511.64	30213.98
511.82	30078.22
511.99	29315.21
512.17	30181.21
512.34	29610.12
512.51	29958.86
512.69	30148.44
512.86	30202.27
513.04	30478.46
513.21	30321.64
513.38	30375.47
513.56	30228.02
513.73	30059.50
513.90	30548.67
514.08	30628.25
514.25	30972.31
514.43	30623.57
514.60	30967.63
514.77	31075.29
514.95	31126.78
515.12	31302.32
515.29	30916.14
515.47	31255.51
515.64	31417.01
515.81	31126.78
515.99	31765.75
516.16	31381.90
516.33	31758.73
516.51	31393.61
516.68	30951.24
516.85	31662.77
517.03	30906.77
517.20	31243.81
517.37	31903.84
517.54	32053.64
517.72	31955.33
517.89	31943.63
518.06	32081.72
518.24	31817.24
518.41	32264.28
518.58	32219.81
518.75	32362.59
518.93	32645.79
519.10	32706.65
519.27	32481.95
519.45	32322.80
519.62	32472.59
519.79	32931.34
519.96	33235.61
520.14	33261.35
520.31	32680.90
520.48	33118.58
520.65	33525.83
520.83	33834.78
521.00	33247.31
521.17	33443.91
521.34	33167.73
521.52	33565.62
521.69	33553.92
521.86	33549.24
522.03	33750.52
522.20	34101.61
522.38	33809.04
522.55	33930.75
522.72	33909.68
522.89	33914.36
523.07	33956.49
523.24	33972.88
523.41	34316.93
523.58	33841.81
523.75	34576.73
523.92	34822.49
524.10	34628.23
524.27	35033.14
524.44	34768.66
524.61	34595.46
524.78	35185.27
524.96	34913.77
525.13	35426.35
525.30	35204.00
525.47	35178.25
525.64	35063.57
525.81	35204.00
525.98	35157.19
526.16	34899.73
526.33	34843.56
526.50	35470.82
526.67	34932.50
526.84	35164.21
527.01	35321.02
527.18	35536.35
527.36	35662.74
527.53	35484.86
527.70	35871.05
527.87	36215.11
528.04	35552.74
528.21	36254.90
528.38	35625.29
528.55	35927.22
528.72	35793.81
528.89	36151.91
529.07	36044.25
529.24	35948.29
529.41	36378.95
529.58	36346.18
529.75	36119.15
529.92	36683.22
530.09	36367.24
530.26	36184.68
530.43	36472.57
530.60	36369.58
530.77	36678.54
530.94	37120.90
531.11	36849.39
531.28	36924.29
531.46	36697.26
531.63	37441.55
531.80	36971.10
531.97	36945.36
532.14	37205.16
532.31	36968.76
532.48	37212.18
532.65	37373.67
532.82	37450.91
532.99	37413.46
533.16	37106.85
533.33	37432.19
533.50	37727.10
533.67	37195.79
533.84	37366.65
534.01	37958.81
534.18	37521.13
534.35	37984.55
534.52	37787.95
534.69	37904.98
534.86	37951.79
535.03	37926.04
535.20	37762.20
535.37	38270.10
535.54	38459.68
535.71	38213.93
535.88	38213.93
536.05	38218.61
536.22	37996.26
536.38	38295.85
536.55	38277.12
536.72	38234.99
536.89	37944.76
537.06	38124.99
537.23	38497.13
537.40	38160.09
537.57	38766.29
537.74	38438.62
537.91	38574.37
538.08	38878.64
538.25	38822.47
538.42	38855.23
538.59	38927.79
538.75	38356.70
538.92	39049.50
539.09	39054.18
539.26	39042.48
539.43	38869.28
539.60	39108.01
539.77	39346.75
539.94	38974.60
540.11	38675.01
540.28	39089.29
540.44	38976.94
540.61	38866.94
540.78	39140.78
540.95	39421.64
541.12	39423.98
541.29	38841.19
541.46	39098.65
541.62	39468.45
541.79	39487.18
541.96	39129.08
542.13	39693.15
542.30	39613.57
542.47	40151.89
542.63	39643.99
542.80	39449.73
542.97	40018.48
543.14	40463.18
543.31	39917.84
543.48	40383.60
543.64	40404.67
543.81	40133.17
543.98	40229.13
544.15	40428.07
544.32	40973.42
544.48	40755.75
544.65	40315.73
544.82	40456.16
544.99	40011.46
545.16	40404.67
545.32	40407.01
545.49	40954.69
545.66	40659.79
545.83	40851.71
546.00	41165.34
546.16	41174.70
546.33	40680.85
546.50	40493.61
546.67	40652.76
546.83	40376.58
547.00	40559.14
547.17	40828.30
547.34	40797.88
547.50	40830.65
547.67	41242.58
547.84	41020.23
548.00	41748.14
548.17	41490.68
548.34	41209.81
548.51	41368.97
548.67	41198.11
548.84	41921.34
549.01	41570.25
549.18	41418.12
549.34	41443.87
549.51	41696.64
549.68	41478.97
549.84	41165.34
550.01	41839.42
550.18	41645.15
550.34	41804.31
550.51	41603.02
550.68	41670.90
550.84	41710.69
551.01	41986.87
551.18	41930.70
551.34	41909.63
551.51	41715.37
551.68	41778.56
551.84	42272.42
552.01	42274.76
552.18	41797.29
552.34	41766.86
552.51	42195.18
552.68	42202.20
552.84	42087.51
553.01	43030.75
553.18	42188.16
553.34	42293.48
553.51	42181.13
553.67	42117.94
553.84	42775.63
554.01	42438.59
554.17	42663.28
554.34	42829.46
554.51	42277.10
554.67	42670.31
554.84	42632.86
555.00	42190.50
555.17	42302.84
555.33	42499.45
555.50	42443.27
555.67	42520.51
555.83	42670.31
556.00	42698.39
556.16	42997.98
556.33	42609.45
556.50	42766.27
556.66	42937.13
556.83	42333.27
556.99	43002.66
557.16	42983.94
557.32	42904.36
557.49	42902.02
557.65	42410.51
557.82	42719.46
557.98	43035.43
558.15	42974.58
558.32	43161.82
558.48	42843.51
558.65	43044.79
558.81	42927.77
558.98	43367.79
559.14	43143.09
559.31	43234.38
559.47	43377.15
559.64	43723.55
559.80	43379.49
559.97	43634.61
560.13	42904.36
560.30	43208.63
560.46	43171.18
560.63	43587.80
560.79	43304.59
560.96	43597.16
561.12	43693.12
561.29	43531.62
561.45	43271.82
561.61	43285.87
561.78	43239.06
561.94	43248.42
562.11	43255.44
562.27	43107.99
562.44	43555.03
562.60	43512.90
562.77	43545.67
562.93	43180.54
563.10	43863.98
563.26	43236.72
563.42	44165.91
563.59	43789.08
563.75	44006.75
563.92	43676.74
564.08	43791.42
564.24	43594.82
564.41	43641.63
564.57	43426.30
564.74	43784.40
564.90	43913.13
565.07	43828.87
565.23	43592.48
565.39	43807.81
565.56	44018.46
565.72	43522.26
565.88	44088.67
566.05	43889.73
566.21	43749.29
566.38	44186.97
566.54	43660.35
566.70	43931.86
566.87	44449.11
567.03	43990.37
567.19	44350.81
567.36	44301.66
567.52	43693.12
567.68	44079.31
567.85	43831.21
568.01	44318.04
568.17	43821.85
568.34	43590.14
568.50	44140.16
568.66	43847.60
568.83	43826.53
568.99	43751.63
569.15	43613.54
569.32	44069.95
569.48	43784.40
569.64	44289.96
569.81	44133.14
569.97	43964.62
570.13	44381.24
570.30	44130.80
570.46	43690.78
570.62	43482.47
570.78	43952.92
570.95	43798.44
571.11	44076.97
571.27	44238.47
571.43	44009.09
571.60	44170.59
571.76	44236.12
571.92	44149.53
572.09	44055.90
572.25	44016.11
572.41	43648.65
572.57	44236.12
572.74	44748.70
572.90	44474.86
573.06	44236.12
573.22	44437.41
573.38	44432.73
573.55	44280.60
573.71	44570.82
573.87	43585.46
574.03	44062.93
574.20	44505.29
574.36	44308.68
574.52	44938.29
574.68	44362.51
574.84	44559.12
575.01	44273.57
575.17	44133.14
575.33	44196.34
575.49	44985.10
575.65	44507.63
575.82	44524.01
575.98	44500.61
576.14	44268.89
576.30	44414.01
576.46	44109.74
576.62	44226.76
576.79	44502.95
576.95	44048.88
577.11	44346.13
577.27	44669.12
577.43	44617.63
577.59	44378.90
577.75	44451.45
577.92	43899.09
578.08	44748.70
578.24	44027.82
578.40	44416.35
578.56	44102.71
578.72	44231.44
578.88	44385.92
579.04	44584.86
579.21	44383.58
579.37	44467.84
579.53	44240.81
579.69	43988.03
579.85	44444.43
580.01	44411.67
580.17	44519.33
580.33	44758.06
580.49	44872.75
580.65	44477.20
580.82	44392.94
580.98	44179.95
581.14	44418.69
581.30	44589.55
581.46	44788.49
581.62	44435.07
581.78	44524.01
581.94	44978.07
582.10	44795.51
582.26	44444.43
582.42	44573.16
582.58	44669.12
582.74	44573.16
582.90	44535.71
583.06	44715.93
583.22	44980.42
583.38	44882.11
583.54	44711.25
583.70	44758.06
583.86	44694.87
584.02	44552.10
584.18	44556.78
584.34	44350.81
584.50	44811.90
584.66	44531.03
584.82	44568.48
584.98	44861.05
585.14	44788.49
585.30	44332.09
585.46	44439.75
585.62	44339.11
585.78	44524.01
585.94	44177.61
586.10	44512.31
586.26	44807.22
586.42	44582.52
586.58	44781.47
586.74	44336.77
586.90	44425.71
587.06	44659.76
587.22	44538.05
587.38	44406.98
587.54	44704.23
587.70	44999.14
587.86	44514.65
588.02	44797.85
588.18	44940.63
588.34	44917.22
588.49	44729.98
588.65	43981.01
588.81	44718.28
588.97	44502.95
589.13	44737.00
589.29	44912.54
589.45	44507.63
589.61	45106.80
589.77	45055.31
589.93	44772.11
590.08	44818.92
590.24	44914.88
590.40	44987.44
590.56	45354.90
590.72	44486.56
590.88	44685.51
591.04	44774.45
591.20	44907.86
591.35	44641.04
591.51	45294.05
591.67	44877.43
591.83	44884.45
591.99	44835.30
592.15	44456.14
592.31	44563.80
592.46	45209.79
592.62	44886.79
592.78	44732.32
592.94	45158.30
593.10	45277.66
593.26	44912.54
593.41	44921.90
593.57	44940.63
593.73	45062.33
593.89	44971.05
594.05	44762.75
594.20	44865.73
594.36	45045.95
594.52	45069.36
594.68	45036.59
594.84	44919.56
594.99	45095.10
595.15	44800.19
595.31	45038.93
595.47	44814.24
595.62	44673.81
595.78	45104.46
595.94	45127.87
596.10	45394.69
596.25	45158.30
596.41	44919.56
596.57	45001.48
596.73	44945.31
596.88	44727.64
597.04	44893.82
597.20	45525.76
597.36	44825.94
597.51	45106.80
597.67	44924.24
597.83	45146.59
597.99	44509.97
598.14	45280.00
598.30	44935.95
598.46	45256.60
598.61	44664.44
598.77	45024.89
598.93	45022.54
599.09	45212.13
599.24	45350.22
599.40	45425.12
599.56	45153.62
599.71	45251.92
599.87	45158.30
600.03	45478.95
600.18	44957.01
600.34	44762.75
600.50	45162.98
600.65	44697.21
600.81	44987.44
600.97	45425.12
601.12	45446.18
601.28	45336.18
601.44	44861.05
601.59	45139.57
601.75	44399.96
601.91	45118.51
602.06	44865.73
602.22	44996.80
602.37	45179.36
602.53	45256.60
602.69	45312.77
602.84	45090.42
603.00	44912.54
603.16	44978.07
603.31	44823.60
603.47	44809.56
603.62	44507.63
603.78	44926.58
603.94	44935.95
604.09	45134.89
604.25	44706.57
604.40	44837.64
604.56	44704.23
604.71	44978.07
604.87	44858.71
605.03	44751.04
605.18	44914.88
605.34	44818.92
605.49	44423.37
605.65	45249.58
605.80	44954.67
605.96	45057.65
606.12	45191.06
606.27	45022.54
606.43	44872.75
606.58	45116.17
606.74	44968.71
606.89	44650.40
607.05	44680.83
607.20	44823.60
607.36	44924.24
607.51	45268.30
607.67	45017.86
607.82	44889.13
607.98	44821.26
608.13	44711.25
608.29	44678.49
608.44	44577.84
608.60	44137.82
608.75	44692.53
608.91	44406.98
609.06	44587.21
609.22	44832.96
609.37	44264.21
609.53	44989.78
609.68	44561.46
609.84	43950.58
609.99	44755.72
610.15	44608.27
610.30	44444.43
610.46	44528.69
610.61	44215.06
610.76	44397.62
610.92	44793.17
611.07	44509.97
611.23	44542.74
611.38	44294.64
611.54	44322.72
611.69	44198.68
611.84	43863.98
612.00	44224.42
612.15	44208.04
612.31	44638.70
612.46	44119.10
612.62	44683.17
612.77	44371.88
612.92	44978.07
613.08	44414.01
613.23	44435.07
613.39	44191.65
613.54	43847.60
613.69	44467.84
613.85	44261.87
614.00	44439.75
614.15	44449.11
614.31	44175.27
614.46	44203.36
614.62	44210.38
614.77	43988.03
614.92	43863.98
615.08	43845.26
615.23	44168.25
615.38	44069.95
615.54	43363.11
615.69	44105.06
615.84	43849.94
616.00	44030.16
616.15	44048.88
616.30	43903.77
616.46	43938.88
616.61	43709.50
616.76	43955.26
616.92	43674.40
617.07	43274.16
617.22	43569.07
617.37	43695.46
617.53	43901.43
617.68	43798.44
617.83	44009.09
617.99	43803.13
618.14	43936.54
618.29	43346.72
618.45	43306.93
618.60	43489.49
618.75	43571.41
618.90	43913.13
619.06	43498.86
619.21	43952.92
619.36	43480.13
619.51	43592.48
619.67	43316.29
619.82	43824.19
619.97	43667.37
620.12	42843.51
620.28	42667.97
620.43	43168.84
620.58	43360.76
620.73	42932.45
620.89	43248.42
621.04	43002.66
621.19	43103.31
621.34	43012.02
621.49	42890.32
621.65	42686.69
621.80	42979.26
621.95	43030.75
622.10	43241.40
622.25	42827.12
622.41	42424.55
622.56	43189.91
622.71	42831.80
622.86	43133.73
623.01	43124.37
623.16	42836.48
623.32	43119.69
623.47	42911.38
623.62	43213.31
623.77	43068.20
623.92	42747.54
624.07	42630.52
624.23	42394.12
624.38	42756.91
624.53	42588.39
624.68	42738.18
624.83	42677.33
624.98	42536.90
625.13	42572.00
625.29	42525.19
625.44	42763.93
625.59	42335.61
625.74	42164.75
625.89	41851.12
626.04	41663.88
626.19	42443.27
626.34	42253.69
626.49	42653.92
626.65	42253.69
626.80	42548.60
626.95	41722.39
627.10	41996.23
627.25	41750.48
627.40	41572.60
627.55	41390.03
627.70	41366.63
627.85	41787.92
628.00	42017.30
628.15	42157.73
628.30	41736.43
628.45	41986.87
628.60	41930.70
628.76	41918.99
628.91	41949.42
629.06	41886.23
629.21	41750.48
629.36	41785.58
629.51	41392.37
629.66	41558.55
629.81	41598.34
629.96	41771.54
630.11	41691.96
630.26	41764.52
630.41	41591.32
630.56	41345.56
630.71	41507.06
630.86	41605.36
631.01	41202.79
631.16	41799.63
631.31	41265.99
631.46	40786.18
631.61	41132.57
631.76	41099.81
631.91	41420.46
632.06	41165.34
632.21	41045.97
632.36	41029.59
632.51	41373.65
632.66	41249.60
632.81	41020.23
632.96	40884.48
633.10	40673.83
633.25	40484.25
633.40	41233.22
633.55	41481.31
633.70	41006.19
633.85	40355.52
634.00	41120.87
634.15	40802.56
634.30	41060.02
634.45	40680.85
634.60	40942.99
634.75	40624.68
634.90	40690.21
635.05	40849.37
635.19	40706.60
635.34	41074.06
635.49	40617.66
635.64	40664.47
635.79	40275.94
635.94	40603.61
636.09	40650.42
636.24	40641.06
636.39	40498.29
636.53	40404.67
636.68	40210.40
636.83	40093.38
636.98	41031.93
637.13	40217.43
637.28	40631.70
637.43	40484.25
637.57	40502.97
637.72	40343.81
637.87	39936.56
638.02	40151.89
638.17	40301.68
638.32	39952.94
638.46	39988.05
638.61	39845.28
638.76	39618.25
638.91	40027.84
639.06	39959.97
639.20	40119.12
639.35	40002.10
639.50	39999.76
639.65	40233.81
639.80	40112.10
639.94	39955.29
640.09	40009.12
640.24	39983.37
640.39	39555.05
640.54	39927.20
640.68	39634.63
640.83	39625.27
640.98	39519.95
641.13	39564.42
641.27	40271.26
641.42	39871.03
641.57	39634.63
641.72	39519.95
641.86	39264.83
642.01	39332.70
642.16	39613.57
642.31	38967.58
642.45	39721.23
642.60	39255.46
642.75	39112.69
642.90	39510.58
643.04	39126.74
643.19	38923.11
643.34	39241.42
643.48	39335.04
643.63	39641.65
643.78	38946.51
643.93	39342.06
644.07	39108.01
644.22	39154.82
644.37	38841.19
644.51	39257.81
644.66	39133.76
644.81	39363.13
644.95	39014.39
645.10	39084.61
645.25	38946.51
645.39	39412.28
645.54	39351.43
645.69	39042.48
645.83	39358.45
645.98	39089.29
646.13	39285.89
646.27	38574.37
646.42	38799.06
646.57	38932.47
646.71	38714.80
646.86	38944.17
647.00	38899.70
647.15	38796.72
647.30	38799.06
647.44	38740.55
647.59	38555.64
647.74	38511.17
647.88	38583.73
648.03	38412.87
648.17	38354.36
648.32	38134.35
648.47	38609.48
648.61	38436.28
648.76	38478.41
648.90	38714.80
649.05	38274.78
649.20	38515.86
649.34	38342.66
649.49	38089.88
649.63	38225.63
649.78	38766.29
649.92	38176.48
650.07	38663.31
650.21	38073.49
650.36	38459.68
650.51	37991.58
650.65	38398.83
650.80	38696.08
650.94	38553.30
651.09	38370.74
651.23	38274.78
651.38	37731.78
651.52	38043.07
651.67	37942.42
651.81	38293.50
651.96	38022.00
652.10	37876.89
652.25	37656.88
652.39	37919.02
652.54	37684.97
652.68	37647.52
652.83	37914.34
652.97	38288.82
653.12	38022.00
653.26	38139.03
653.41	38171.80
653.55	37460.27
653.70	36945.36
653.84	37804.33
653.99	37895.61
654.13	37539.85
654.27	37741.14
654.42	37961.15
654.56	37593.68
654.71	37677.94
654.85	37586.66
655.00	37706.03
655.14	37251.97
655.29	37401.76
655.43	36952.38
655.57	37270.69
655.72	37141.96
655.86	37088.13
656.01	37003.87
656.15	36535.76
656.30	37420.48
656.44	37050.68
656.58	36968.76
656.73	36758.11
656.87	36982.80
657.01	36928.97
657.16	36863.44
657.30	36542.78
657.45	36374.27
657.59	36758.11
657.73	36250.22
657.88	36486.61
658.02	36636.41
658.16	36491.29
658.31	36996.85
658.45	37123.24
658.60	36514.70
658.74	36914.93
658.88	36891.52
659.03	36460.87
659.17	36226.81
659.31	36301.71
659.46	36299.37
659.60	36231.49
659.74	36421.08
659.89	35936.59
660.03	36257.24
660.17	36549.81
660.32	35653.38
660.46	36495.97
660.60	36390.65
660.74	36210.43
660.89	35931.90
661.03	35461.46
661.17	35817.22
661.32	35597.21
661.46	35775.09
661.60	35503.59
661.74	35658.06
661.89	35274.21
662.03	35859.35
662.17	35391.24
662.31	36006.80
662.46	35742.32
662.60	35452.09
662.74	35311.66
662.88	35222.72
663.03	35129.10
663.17	35590.19
663.31	34939.52
663.45	35622.95
663.60	35012.07
663.74	35161.87
663.88	35192.30
664.02	34630.57
664.17	34930.16
664.31	34684.40
664.45	34298.21
664.59	34888.03
664.73	34466.73
664.88	34976.97
665.02	34576.73
665.16	34651.63
665.30	34595.46
665.44	34653.97
665.59	33937.77
665.73	34555.67
665.87	34057.14
666.01	34061.82
666.15	34270.12
666.29	34272.46
666.44	34274.80
666.58	34015.01
666.72	34106.29
666.86	34232.68
667.00	34443.32
667.14	33645.20
667.28	33858.19
667.43	33713.08
667.57	33738.82
667.71	33640.52
667.85	33757.55
667.99	33275.40
668.13	33092.83
668.27	33277.74
668.41	33216.88
668.56	33050.70
668.70	32989.85
668.84	33081.13
668.98	32868.14
669.12	33163.05
669.26	33273.06
669.40	33303.48
669.54	32889.21
669.68	33050.70
669.82	32811.97
669.96	32528.77
670.10	32409.40
670.25	32638.77
670.39	32889.21
670.53	32601.32
670.67	32194.07
670.81	32503.02
670.95	32889.21
671.09	32428.12
671.23	32538.13
671.37	32533.45
671.51	32472.59
671.65	32154.28
671.79	32053.64
671.93	31894.48
672.07	32041.93
672.21	31800.86
672.35	31929.59
672.49	31868.73
672.63	32360.25
672.77	31880.44
672.91	31793.84
673.05	31615.96
673.19	31517.65
673.33	31255.51
673.47	31412.33
673.61	31197.00
673.75	31211.04
673.89	30845.92
674.03	30766.34
674.17	30728.89
674.31	31197.00
674.45	30726.55
674.59	30836.56
674.73	31370.20
674.87	30988.69
675.01	30834.22
675.15	30796.77
675.29	30600.16
675.43	30483.14
675.56	30363.77
675.70	30333.34
675.84	30288.87
675.98	29191.16
676.12	30176.53
676.26	29610.12
676.40	29984.60
676.54	29970.56
676.68	29479.05
676.82	29315.21
676.96	29387.77
677.10	28999.24
677.23	29394.79
677.37	29109.24
677.51	29163.08
677.65	29310.53
677.79	28849.44
677.93	28926.68
678.07	28926.68
678.21	28748.80
678.34	28753.48
678.48	28940.72
678.62	28119.20
678.76	28240.90
678.90	28247.93
679.04	28421.13
679.18	28526.45
679.31	28514.75
679.45	27859.40
679.59	27676.83
679.73	27508.32
679.87	27896.85
680.00	27997.49
680.14	27372.57
680.28	27800.88
680.42	27459.16
680.56	27400.65
680.70	27349.16
680.83	27346.82
680.97	27234.47
681.11	26815.52
681.25	26576.78
681.39	26466.78
681.52	26609.55
681.66	26480.82
681.80	26864.67
681.94	26462.10
682.07	26338.05
682.21	26508.91
682.35	26003.35
682.49	26309.96
682.62	26370.82
682.76	26092.29
682.90	26242.09
683.04	25909.73
683.17	25937.82
683.31	25703.76
683.45	25832.49
683.59	25586.74
683.72	25673.34
683.86	25408.86
684.00	25017.99
684.13	25584.40
684.27	25268.42
684.41	25074.16
684.55	24933.73
684.68	24886.92
684.82	24615.41
684.96	24528.81
685.09	24444.56
685.23	24589.67
685.37	24610.73
685.50	24575.62
685.64	24339.23
685.78	24070.07
685.91	23990.49
686.05	23744.73
686.19	23513.02
686.32	23955.38
686.46	23665.16
686.60	23571.54
686.73	23498.98
686.87	23218.11
687.01	23131.51
687.14	23040.23
687.28	22920.87
687.42	23215.77
687.55	22869.37
687.69	22590.85
687.82	22808.52
687.96	22707.88
688.10	22508.93
688.23	22745.33
688.37	22459.78
688.50	22295.94
688.64	22122.74
688.78	22408.29
688.91	21968.27
689.05	22129.77
689.18	22054.87
689.32	21771.66
689.46	22422.33
689.59	21984.65
689.73	21778.68
689.86	21958.91
690.00	21745.92
690.13	22026.78
690.27	21769.32
690.41	21392.50
690.54	21018.01
690.68	21130.36
690.81	21048.44
690.95	21181.85
691.08	21120.99
691.22	21163.12
691.35	21078.86
691.49	20973.54
691.62	20776.94
691.76	20910.35
691.89	20926.73
692.03	20416.49
692.16	20676.29
692.30	20423.51
692.43	20027.96
692.57	20159.03
692.70	20137.97
692.84	19910.94
692.97	20119.24
693.11	19885.19
693.24	19826.68
693.38	19803.27
693.51	19683.91
693.65	19929.66
693.78	19538.79
693.92	19531.77
694.05	19424.11
694.19	18939.62
694.32	19255.59
694.45	19220.48
694.59	18841.31
694.72	18869.40
694.86	18743.01
694.99	18562.79
695.13	18359.16
695.26	18806.20
695.39	18511.30
695.53	18403.63
695.66	18422.36
695.80	18214.05
695.93	18228.09
696.07	18024.47
696.20	18036.17
696.33	17818.50
696.47	18228.09
696.60	18183.62
696.73	17649.98
696.87	17586.79
697.00	17975.31
697.14	17855.95
697.27	17596.15
697.40	17436.99
697.54	17390.18
697.67	17153.79
697.80	17270.81
697.94	17158.47
698.07	16992.29
698.21	17116.34
698.34	16798.02
698.47	16842.50
698.61	16638.87
698.74	16585.04
698.87	16329.92
699.01	16606.10
699.14	16470.35
699.27	16472.69
699.40	16294.81
699.54	16173.10
699.67	15763.51
699.80	16051.39
699.94	16137.99
700.07	15864.15
700.20	15929.69
700.34	15709.68
700.47	15510.73
700.60	15882.88
700.73	15939.05
700.87	15941.39
701.00	15517.75
701.13	15573.92
701.26	15234.55
701.40	15538.82
701.53	15253.27
701.66	15522.43
701.79	15117.52
701.93	14977.09
702.06	14745.38
702.19	14977.09
702.32	14998.15
702.46	14738.35
702.59	14492.60
702.72	14789.85
702.85	14876.44
702.99	14541.75
703.12	14745.38
703.25	14553.45
703.38	14462.17
703.51	14338.12
703.65	14579.20
703.78	14321.74
703.91	14162.58
704.04	13860.65
704.17	14197.69
704.31	14017.47
704.44	13811.50
704.57	13792.78
704.70	13731.92
704.83	13720.22
704.96	13853.63
705.10	13788.10
705.23	13774.05
>>>>>End Processed Spectral Data<<<<<
