SpectraSuite Data File
++++++++++++++++++++++++++++++++++++
Date: Fri Oct 25 10:48:15 EDT 2013
User: price-jones
Dark Spectrum Present: No
Reference Spectrum Present: No
Number of Sampled Component Spectra: 1
Spectrometers: USB2+H05261
Integration Time (usec): 100000 (USB2+H05261)
Spectra Averaged: 1 (USB2+H05261)
Boxcar Smoothing: 0 (USB2+H05261)
Correct for Electrical Dark: No (USB2+H05261)
Strobe/Lamp Enabled: No (USB2+H05261)
Correct for Detector Non-linearity: No (USB2+H05261)
Correct for Stray Light: No (USB2+H05261)
Number of Pixels in Processed Spectrum: 2048
>>>>>Begin Processed Spectral Data<<<<<
365.73	135.75
365.92	135.75
366.12	135.75
366.32	70.22
366.52	16.38
366.72	0.00
366.91	53.83
367.11	25.75
367.31	42.13
367.51	28.09
367.70	35.11
367.90	74.90
368.10	0.00
368.30	0.00
368.49	46.81
368.69	81.92
368.89	51.49
369.09	63.19
369.28	98.30
369.48	53.83
369.68	91.28
369.87	88.94
370.07	180.22
370.27	131.07
370.47	215.33
370.66	425.98
370.86	482.15
371.06	407.25
371.25	465.77
371.45	421.30
371.65	479.81
371.84	463.43
372.04	519.60
372.24	507.90
372.44	484.49
372.63	503.22
372.83	521.94
373.03	550.03
373.22	458.74
373.42	526.62
373.62	486.83
373.81	519.60
374.01	543.00
374.21	592.16
374.40	566.41
374.60	667.05
374.79	554.71
374.99	550.03
375.19	568.75
375.38	669.39
375.58	575.77
375.78	573.43
375.97	636.63
376.17	613.22
376.37	587.47
376.56	648.33
376.76	566.41
376.95	662.37
377.15	650.67
377.35	592.16
377.54	606.20
377.74	653.01
377.93	648.33
378.13	685.78
378.33	706.84
378.52	631.94
378.72	587.47
378.91	755.99
379.11	592.16
379.31	606.20
379.50	655.35
379.70	725.57
379.89	641.31
380.09	610.88
380.28	681.10
380.48	655.35
380.68	723.23
380.87	683.44
381.07	711.52
381.26	779.40
381.46	697.48
381.65	791.10
381.85	674.07
382.04	662.37
382.24	760.67
382.43	755.99
382.63	660.03
382.83	716.20
383.02	755.99
383.22	727.91
383.41	758.33
383.61	636.63
383.80	870.68
384.00	713.86
384.19	734.93
384.39	788.76
384.58	767.70
384.78	725.57
384.97	814.51
385.17	751.31
385.36	791.10
385.56	884.72
385.75	767.70
385.95	819.19
386.14	861.32
386.34	807.48
386.53	891.74
386.72	858.98
386.92	854.30
387.11	800.46
387.31	821.53
387.50	798.12
387.70	763.01
387.89	835.57
388.09	833.23
388.28	837.91
388.48	915.15
388.67	882.38
388.86	910.47
389.06	945.58
389.25	1015.79
389.45	931.53
389.64	926.85
389.84	961.96
390.03	1053.24
390.22	959.62
390.42	940.90
390.61	983.02
390.81	987.71
391.00	1029.84
391.19	1027.50
391.39	985.37
391.58	973.66
391.78	1034.52
391.97	1008.77
392.16	1011.11
392.36	1095.37
392.55	952.60
392.75	997.07
392.94	945.58
393.13	1053.24
393.33	1057.92
393.52	1004.09
393.71	1078.99
393.91	1057.92
394.10	1071.97
394.29	1165.59
394.49	1111.75
394.68	1116.44
394.88	1151.54
395.07	1249.85
395.26	1224.10
395.46	1196.01
395.65	1256.87
395.84	1228.78
396.04	1186.65
396.23	1198.35
396.42	1224.10
396.62	1217.08
396.81	1249.85
397.00	1111.75
397.19	1121.12
397.39	1242.82
397.58	1275.59
397.77	1228.78
397.97	1273.25
398.16	1282.61
398.35	1336.45
398.55	1387.94
398.74	1369.21
398.93	1413.68
399.12	1418.36
399.32	1289.64
399.51	1373.89
399.70	1483.90
399.90	1451.13
400.09	1514.33
400.28	1504.96
400.47	1507.30
400.67	1568.16
400.86	1572.84
401.05	1533.05
401.24	1561.14
401.44	1605.61
401.63	1629.01
401.82	1600.93
402.01	1647.74
402.21	1579.86
402.40	1556.46
402.59	1633.69
402.78	1638.38
402.97	1650.08
403.17	1579.86
403.36	1650.08
403.55	1823.28
403.74	1741.36
403.93	1736.68
404.13	1729.66
404.32	1753.06
404.51	1797.53
404.70	1722.63
404.89	1809.23
405.09	1827.96
405.28	1856.04
405.47	1879.45
405.66	1923.92
405.85	1860.73
406.05	1837.32
406.24	1975.41
406.43	1970.73
406.62	1930.94
406.81	2090.10
407.00	1827.96
407.20	1947.33
407.39	2071.37
407.58	1942.64
407.77	2038.61
407.96	2111.16
408.15	2052.65
408.34	2026.90
408.54	2120.53
408.73	2090.10
408.92	2179.04
409.11	2204.78
409.30	2129.89
409.49	2127.55
409.68	2141.59
409.87	2162.66
410.07	2125.21
410.26	2277.34
410.45	2289.04
410.64	2335.85
410.83	2312.45
411.02	2340.54
411.21	2368.62
411.40	2377.98
411.59	2317.13
411.78	2417.77
411.98	2420.11
412.17	2476.29
412.36	2495.01
412.55	2469.27
412.74	2572.25
412.93	2509.05
413.12	2595.65
413.31	2724.38
413.50	2712.68
413.69	2560.55
413.88	2576.93
414.07	2567.57
414.26	2710.34
414.45	2808.64
414.64	2747.79
414.83	2839.07
415.02	2862.48
415.22	2883.54
415.41	2920.99
415.60	2986.52
415.79	2984.18
415.98	2988.86
416.17	3145.68
416.36	3096.53
416.55	3056.74
416.74	2979.50
416.93	3119.93
417.12	3157.38
417.31	3141.00
417.50	3056.74
417.69	3272.07
417.88	3248.66
418.07	3192.49
418.26	3232.28
418.45	3286.11
418.64	3403.14
418.83	3403.14
419.02	3272.07
419.21	3391.44
419.39	3389.10
419.58	3379.73
419.77	3353.99
419.96	3496.76
420.15	3356.33
420.34	3506.12
420.53	3386.76
420.72	3576.34
420.91	3639.53
421.10	3597.40
421.29	3676.98
421.48	3454.63
421.67	3609.11
421.86	3517.83
422.05	3534.21
422.24	3515.48
422.43	3494.42
422.61	3602.08
422.80	3616.13
422.99	3674.64
423.18	3763.58
423.37	3660.60
423.56	3684.00
423.75	3810.39
423.94	3613.79
424.13	3361.01
424.32	3478.04
424.50	3609.11
424.69	3850.18
424.88	3791.67
425.07	3716.77
425.26	3777.62
425.45	3660.60
425.64	3761.24
425.83	3742.52
426.01	3859.54
426.20	3688.68
426.39	3686.34
426.58	3770.60
426.77	3705.07
426.96	3779.97
427.15	3723.79
427.33	3801.03
427.52	3796.35
427.71	3978.91
427.90	3948.48
428.09	3911.04
428.28	3969.55
428.46	3985.93
428.65	4039.76
428.84	4070.19
429.03	4053.81
429.22	3985.93
429.40	3962.53
429.59	3838.48
429.78	3667.62
429.97	3946.14
430.16	3854.86
430.34	3920.40
430.53	4042.11
430.72	3899.33
430.91	4142.75
431.10	4046.79
431.28	4121.68
431.47	4332.33
431.66	4432.97
431.85	4259.78
432.03	4397.87
432.22	4346.37
432.41	4301.90
432.60	4386.16
432.79	4435.32
432.97	4507.87
433.16	4456.38
433.35	4533.62
433.54	4367.44
433.72	4437.66
433.91	4409.57
434.10	4631.92
434.28	4470.42
434.47	4482.13
434.66	4685.75
434.85	4580.43
435.03	4692.77
435.22	4564.04
435.41	4760.65
435.59	4594.47
435.78	4753.63
435.97	4875.34
436.16	4791.08
436.34	4812.14
436.53	4858.95
436.72	4816.82
436.90	4873.00
437.09	4840.23
437.28	4779.37
437.46	4802.78
437.65	4683.41
437.84	4940.87
438.02	4814.48
438.21	4844.91
438.40	4870.65
438.58	5022.79
438.77	4985.34
438.96	5093.01
439.14	5167.90
439.33	5163.22
439.52	5287.27
439.70	5401.96
439.89	5362.17
440.08	5369.19
440.26	5458.13
440.45	5233.44
440.63	5476.85
440.82	5507.28
441.01	5636.01
441.19	5579.84
441.38	5584.52
441.57	5680.48
441.75	5809.21
441.94	5884.11
442.12	5874.74
442.31	6066.67
442.50	5916.87
442.68	5959.00
442.87	6061.99
443.05	5921.56
443.24	6066.67
443.43	6073.69
443.61	6260.93
443.80	6092.41
443.98	6069.01
444.17	5907.51
444.35	5977.73
444.54	6179.01
444.73	6143.91
444.91	6132.20
445.10	6066.67
445.28	6132.20
445.47	6106.46
445.65	5982.41
445.84	6176.67
446.02	6216.46
446.21	6125.18
446.39	6040.92
446.58	6303.06
446.77	6324.13
446.95	6155.61
447.14	6214.12
447.32	6370.94
447.51	6349.87
447.69	6347.53
447.88	6279.66
448.06	6305.40
448.25	6319.45
448.43	6190.72
448.62	6270.30
448.80	6380.30
448.99	6429.45
449.17	6354.55
449.36	6338.17
449.54	6544.14
449.73	6609.67
449.91	6698.61
450.10	6597.97
450.28	6869.47
450.46	6715.00
450.65	6778.19
450.83	6607.33
451.02	6656.48
451.20	6825.00
451.39	6757.13
451.57	6679.89
451.76	6614.35
451.94	6663.51
452.13	6953.73
452.31	6825.00
452.49	6740.74
452.68	6820.32
452.86	6834.36
453.05	6761.81
453.23	6853.09
453.42	6738.40
453.60	6913.94
453.78	6949.05
453.97	6817.98
454.15	6813.30
454.34	6841.39
454.52	7021.61
454.70	6913.94
454.89	6986.50
455.07	6995.86
455.26	7157.36
455.44	7269.70
455.62	7269.70
455.81	7258.00
455.99	7318.86
456.17	7382.05
456.36	7267.36
456.54	7407.80
456.73	7456.95
456.91	7637.17
457.09	7585.68
457.28	7819.73
457.46	7489.71
457.64	7805.69
457.83	7573.97
458.01	7691.00
458.19	7669.94
458.38	7613.76
458.56	7915.69
458.74	7691.00
458.93	7999.95
459.11	7896.97
459.29	7744.83
459.48	7791.64
459.66	7836.11
459.84	7735.47
460.03	8006.97
460.21	7967.18
460.39	7913.35
460.57	7981.23
460.76	8018.68
460.94	7985.91
461.12	8065.49
461.31	8049.10
461.49	8325.29
461.67	7953.14
461.85	8234.00
462.04	8194.22
462.22	8669.34
462.40	8341.67
462.59	8287.84
462.77	8215.28
462.95	8507.85
463.13	8341.67
463.32	8414.23
463.50	8557.00
463.68	8620.19
463.86	8603.81
464.05	8266.77
464.23	8365.07
464.41	8479.76
464.59	8500.83
464.78	8713.81
464.96	8388.48
465.14	8613.17
465.32	8655.30
465.50	8702.11
465.69	8547.64
465.87	8896.38
466.05	8777.01
466.23	8741.90
466.41	8554.66
466.60	8758.28
466.78	8650.62
466.96	8814.46
467.14	8610.83
467.32	8922.12
467.51	9043.83
467.69	8702.11
467.87	8819.14
468.05	8947.87
468.23	8922.12
468.41	8779.35
468.60	8887.01
468.78	9177.24
468.96	9193.62
469.14	9174.90
469.32	9167.88
469.50	8929.14
469.69	9020.42
469.87	9378.53
470.05	9451.08
470.23	9334.06
470.41	9345.76
470.59	9380.87
470.77	9355.12
470.95	9301.29
471.14	9596.20
471.32	9406.61
471.50	9671.09
471.68	9827.91
471.86	9720.24
472.04	9923.87
472.22	10162.61
472.40	9748.33
472.58	9785.78
472.77	10003.45
472.95	9785.78
473.13	10443.47
473.31	9975.36
473.49	9982.38
473.67	9991.75
473.85	10228.14
474.03	10326.44
474.21	10265.59
474.39	10492.62
474.57	10509.01
474.75	10513.69
474.93	10450.49
475.12	10387.30
475.30	10668.16
475.48	10560.50
475.66	10815.62
475.84	10656.46
476.02	10714.97
476.20	10991.16
476.38	10857.75
476.56	11211.17
476.74	11143.29
476.92	11138.61
477.10	11178.40
477.28	11370.32
477.46	11185.42
477.64	11417.13
477.82	11920.35
478.00	12100.57
478.18	11929.71
478.36	11655.87
478.54	11873.54
478.72	12102.91
478.90	12203.55
479.08	12119.29
479.26	12329.94
479.44	12453.99
479.62	12575.70
479.80	12613.15
479.98	12666.98
480.16	13205.30
480.34	12966.57
480.52	12936.14
480.70	13041.46
480.88	12795.71
481.06	13415.95
481.24	13114.02
481.41	13408.93
481.59	13650.00
481.77	13394.89
481.95	13788.10
482.13	13902.78
482.31	13792.78
482.49	13954.27
482.67	14150.88
482.85	14085.34
483.03	14251.52
483.21	14476.21
483.39	14429.40
483.57	14438.76
483.74	14726.65
483.92	14787.50
484.10	14691.54
484.28	14897.51
484.46	15295.40
484.64	15377.32
484.82	15412.43
485.00	15293.06
485.18	15754.15
485.35	15646.48
485.53	15733.08
485.71	15377.32
485.89	15868.83
486.07	15623.08
486.25	15903.94
486.43	16011.60
486.61	16177.78
486.78	16341.62
486.96	16547.59
487.14	17053.14
487.32	16713.77
487.50	17334.01
487.68	17146.76
487.85	17289.54
488.03	17593.81
488.21	17818.50
488.39	17659.34
488.57	17820.84
488.75	18026.81
488.92	18064.25
489.10	18515.98
489.28	18204.69
489.46	18326.39
489.64	18761.73
489.81	19028.56
489.99	19150.26
490.17	19232.18
490.35	19499.00
490.53	19314.10
490.70	19686.25
490.88	19351.55
491.06	19864.13
491.24	19782.21
491.41	19807.95
491.59	19637.09
491.77	20191.80
491.95	20243.29
492.13	20381.38
492.30	20205.84
492.48	20617.78
492.66	20833.11
492.84	20683.31
493.01	20912.69
493.19	21123.33
493.37	21282.49
493.54	21446.33
493.72	21600.80
493.90	21656.98
494.08	21940.18
494.25	21898.05
494.43	21788.05
494.61	22136.79
494.79	22235.09
494.96	22230.41
495.14	22398.93
495.32	22686.81
495.49	22693.83
495.67	22841.29
495.85	22932.57
496.02	23143.22
496.20	23515.36
496.38	23110.45
496.55	23220.45
496.73	24025.60
496.91	23548.13
497.09	23758.78
497.26	24212.84
497.44	24044.32
497.62	24018.58
497.79	24566.26
497.97	23929.64
498.14	24233.91
498.32	24774.57
498.50	24482.00
498.67	24657.54
498.85	24882.24
499.03	25015.65
499.20	25151.40
499.38	25170.12
499.56	25305.87
499.73	25160.76
499.91	25170.12
500.08	25516.52
500.26	25465.03
500.44	25340.98
500.61	25373.75
500.79	25577.37
500.97	26089.95
501.14	26487.84
501.32	25874.62
501.49	25661.63
501.67	26132.08
501.84	26216.34
502.02	26206.98
502.20	26569.76
502.37	26668.06
502.55	26244.43
502.72	27175.96
502.90	26607.21
503.07	26565.08
503.25	27271.92
503.43	27014.46
503.60	27131.49
503.78	27105.74
503.95	26878.71
504.13	27147.87
504.30	27168.94
504.48	27433.42
504.65	27824.29
504.83	27573.85
505.01	28203.46
505.18	27552.79
505.36	28386.02
505.53	28360.27
505.71	27777.48
505.88	28126.22
506.06	28074.73
506.23	28535.81
506.41	28240.90
506.58	28676.24
506.76	28652.84
506.93	28662.20
507.11	28910.30
507.28	29034.35
507.46	29003.92
507.63	28751.14
507.81	28884.55
507.98	28980.51
508.16	29102.22
508.33	29312.87
508.50	29366.70
508.68	29266.06
508.85	29902.68
509.03	29584.37
509.20	29837.15
509.38	30213.98
509.55	30047.80
509.73	30171.85
509.90	30101.63
510.08	30080.56
510.25	30408.24
510.42	30218.66
510.60	30412.92
510.77	30771.02
510.95	30609.53
511.12	30558.03
511.30	30356.75
511.47	31119.76
511.64	31239.13
511.82	31449.78
511.99	30682.08
512.17	31077.63
512.34	30902.09
512.51	31590.21
512.69	31412.33
512.86	31599.57
513.04	31875.76
513.21	31747.03
513.38	31697.88
513.56	31618.30
513.73	31517.65
513.90	31847.67
514.08	31784.48
514.25	32116.83
514.43	31983.42
514.60	31934.27
514.77	31749.37
514.95	32474.93
515.12	32407.06
515.29	32421.10
515.47	32800.27
515.64	32414.08
515.81	32652.81
515.99	32418.76
516.16	32980.49
516.33	32648.13
516.51	32444.51
516.68	32144.92
516.85	32233.86
517.03	32631.75
517.20	32608.34
517.37	33141.99
517.54	33008.58
517.72	32959.42
517.89	32692.60
518.06	33003.89
518.24	33111.56
518.41	33343.27
518.58	33369.02
518.75	33329.23
518.93	33713.08
519.10	33472.00
519.27	34199.91
519.45	33680.31
519.62	34202.25
519.79	34108.63
519.96	34057.14
520.14	33874.57
520.31	33942.45
520.48	34295.87
520.65	34583.76
520.83	34696.10
521.00	34852.92
521.17	34532.26
521.34	34920.79
521.52	34646.95
521.69	35220.38
521.86	34759.30
522.03	35330.39
522.20	34859.94
522.38	35438.05
522.55	35159.53
522.72	35084.63
522.89	35342.09
523.07	35419.33
523.24	35023.78
523.41	35751.68
523.58	35704.87
523.75	36023.19
523.92	35917.86
524.10	36112.13
524.27	36032.55
524.44	35899.14
524.61	36336.82
524.78	35990.42
524.96	36362.56
525.13	36147.23
525.30	36577.89
525.47	36854.08
525.64	36753.43
525.81	36322.77
525.98	36226.81
526.16	36231.49
526.33	35952.97
526.50	36582.57
526.67	36397.67
526.84	36821.31
527.01	36458.52
527.18	36648.11
527.36	36830.67
527.53	36788.54
527.70	37450.91
527.87	37275.37
528.04	37209.84
528.21	37340.91
528.38	37727.10
528.55	37659.22
528.72	37811.35
528.89	37848.80
529.07	37708.37
529.24	37268.35
529.41	37691.99
529.58	37521.13
529.75	37256.65
529.92	37556.24
530.09	37738.80
530.26	37958.81
530.43	38265.42
530.60	37993.92
530.77	37933.06
530.94	38380.10
531.11	37979.87
531.28	38010.30
531.46	38698.42
531.63	38335.63
531.80	38291.16
531.97	38129.67
532.14	38110.94
532.31	38335.63
532.48	38218.61
532.65	38485.43
532.82	38609.48
532.99	38948.85
533.16	38665.65
533.33	38459.68
533.50	39171.21
533.67	38644.59
533.84	38691.40
534.01	38712.46
534.18	39079.92
534.35	39491.86
534.52	39110.35
534.69	38803.74
534.86	39253.12
535.03	38902.04
535.20	39126.74
535.37	39538.67
535.54	39454.41
535.71	39246.10
535.88	39707.19
536.05	39782.09
536.22	39548.03
536.38	40076.99
536.55	39711.87
536.72	39924.86
536.89	39423.98
537.06	39463.77
537.23	40100.40
537.40	39742.30
537.57	39814.85
537.74	39849.96
537.91	40158.91
538.08	40142.53
538.25	39831.24
538.42	40212.74
538.59	40392.97
538.75	39978.69
538.92	40128.48
539.09	40025.50
539.26	40582.55
539.43	40357.86
539.60	40343.81
539.77	40168.27
539.94	40584.89
540.11	40432.75
540.28	40236.15
540.44	40430.41
540.61	40556.80
540.78	40605.95
540.95	40343.81
541.12	40903.20
541.29	40641.06
541.46	40280.62
541.62	40905.54
541.79	40999.16
541.96	40390.62
542.13	40727.66
542.30	40835.33
542.47	40872.78
542.63	40921.93
542.80	41078.74
542.97	41530.47
543.14	41708.35
543.31	41118.53
543.48	41673.24
543.64	42103.90
543.81	41727.07
543.98	41881.55
544.15	41565.57
544.32	41727.07
544.48	42181.13
544.65	42195.18
544.82	42057.09
544.99	41736.43
545.16	41881.55
545.32	41844.10
545.49	41860.48
545.66	41794.95
545.83	42361.36
546.00	42539.24
546.16	42218.58
546.33	42417.53
546.50	42050.06
546.67	42110.92
546.83	41823.03
547.00	41848.78
547.17	42244.33
547.34	41764.52
547.50	42457.32
547.67	42497.11
547.84	42454.98
548.00	42684.35
548.17	42939.47
548.34	42410.51
548.51	42930.11
548.67	43199.27
548.84	42663.28
549.01	42714.78
549.18	42728.82
549.34	42909.04
549.51	42625.84
549.68	43049.47
549.84	42822.44
550.01	42913.72
550.18	42995.64
550.34	42323.91
550.51	42923.08
550.68	42515.83
550.84	42637.54
551.01	42927.77
551.18	42862.23
551.34	43040.11
551.51	43047.13
551.68	43566.73
551.84	43456.73
552.01	43192.25
552.18	42990.96
552.34	42719.46
552.51	43349.06
552.68	43686.10
552.84	43152.46
553.01	43838.23
553.18	43613.54
553.34	43555.03
553.51	43306.93
553.67	43672.06
553.84	43831.21
554.01	43995.05
554.17	43632.27
554.34	44388.26
554.51	43658.01
554.67	44018.46
554.84	43845.26
555.00	43901.43
555.17	43484.81
555.33	43772.70
555.50	43643.97
555.67	43807.81
555.83	43901.43
556.00	44186.97
556.16	44526.35
556.33	43772.70
556.50	44135.48
556.66	43650.99
556.83	44093.35
556.99	44320.38
557.16	44161.23
557.32	44322.72
557.49	44622.31
557.65	44065.27
557.82	43854.62
557.98	44079.31
558.15	44474.86
558.32	44509.97
558.48	44266.55
558.65	44238.47
558.81	44058.24
558.98	44123.78
559.14	44355.49
559.31	44210.38
559.47	44587.21
559.64	44140.16
559.80	44474.86
559.97	44856.37
560.13	44327.41
560.30	44318.04
560.46	44332.09
560.63	44552.10
560.79	44753.38
560.96	44992.12
561.12	44453.79
561.29	44704.23
561.45	44437.41
561.61	44704.23
561.78	44516.99
561.94	44245.49
562.11	44257.19
562.27	45052.97
562.44	44315.70
562.60	44605.93
562.77	45031.91
562.93	44797.85
563.10	45158.30
563.26	44444.43
563.42	44622.31
563.59	44598.91
563.75	44690.19
563.92	44673.81
564.08	44748.70
564.24	44896.16
564.41	44800.19
564.57	44964.03
564.74	44971.05
564.90	45198.09
565.07	45209.79
565.23	45074.04
565.39	45076.38
565.56	44987.44
565.72	44629.34
565.88	44563.80
566.05	45043.61
566.21	44809.56
566.38	44741.68
566.54	44968.71
566.70	45378.31
566.87	45315.11
567.03	45052.97
567.19	45439.16
567.36	45193.40
567.52	45130.21
567.68	45301.07
567.85	44568.48
568.01	45177.02
568.17	44744.02
568.34	45097.44
568.50	44940.63
568.66	44652.74
568.83	44804.88
568.99	44891.48
569.15	45162.98
569.32	44807.22
569.48	44900.84
569.64	45319.79
569.81	44739.34
569.97	45237.87
570.13	45392.35
570.30	44821.26
570.46	45050.63
570.62	44507.63
570.78	44919.56
570.95	45081.06
571.11	45202.77
571.27	45132.55
571.43	45202.77
571.60	45411.07
571.76	45331.50
571.92	45315.11
572.09	45544.48
572.25	45102.12
572.41	44891.48
572.57	45549.17
572.74	45902.59
572.90	45162.98
573.06	45411.07
573.22	45652.15
573.38	44931.26
573.55	45006.16
573.71	45425.12
573.87	45015.52
574.03	45258.94
574.20	45544.48
574.36	45312.77
574.52	45563.21
574.68	45766.84
574.84	45984.51
575.01	45333.84
575.17	45198.09
575.33	44795.51
575.49	44807.22
575.65	45258.94
575.82	45518.74
575.98	45619.38
576.14	45752.79
576.30	45375.97
576.46	45127.87
576.62	45404.05
576.79	45343.20
576.95	45319.79
577.11	45298.73
577.27	45261.28
577.43	45640.45
577.59	45488.31
577.75	45247.24
577.92	44907.86
578.08	45141.91
578.24	44753.38
578.40	45167.66
578.56	45570.23
578.72	45249.58
578.88	45649.81
579.04	45689.60
579.21	45406.39
579.37	45455.54
579.53	45064.67
579.69	45338.52
579.85	45165.32
580.01	45776.20
580.17	45439.16
580.33	45715.34
580.49	45689.60
580.65	45514.06
580.82	45385.33
580.98	45352.56
581.14	45502.35
581.30	45474.27
581.46	45298.73
581.62	45436.82
581.78	45546.82
581.94	45872.16
582.10	46024.29
582.26	46195.15
582.42	45429.80
582.58	45502.35
582.74	45174.68
582.90	45745.77
583.06	45530.44
583.22	45773.86
583.38	45862.80
583.54	45617.04
583.70	45474.27
583.86	45268.30
584.02	45221.49
584.18	45415.76
584.34	45509.38
584.50	45722.37
584.66	45064.67
584.82	45415.76
584.98	45689.60
585.14	45586.61
585.30	45310.43
585.46	45738.75
585.62	45588.95
585.78	45345.54
585.94	45230.85
586.10	45329.16
586.26	45537.46
586.42	45951.74
586.58	45844.07
586.74	45488.31
586.90	45200.43
587.06	45329.16
587.22	45638.11
587.38	45294.05
587.54	45729.39
587.70	45806.62
587.86	45691.94
588.02	45469.59
588.18	45649.81
588.34	45380.65
588.49	45621.72
588.65	44854.03
588.81	45572.57
588.97	45310.43
589.13	45303.41
589.29	45102.12
589.45	45687.26
589.61	45387.67
589.77	45907.27
589.93	45546.82
590.08	45998.55
590.24	45764.49
590.40	45855.78
590.56	45537.46
590.72	45614.70
590.88	45446.18
591.04	45773.86
591.20	46253.67
591.35	45827.69
591.51	46183.45
591.67	46153.02
591.83	45720.02
591.99	45546.82
592.15	45640.45
592.31	45815.99
592.46	45642.79
592.62	45970.46
592.78	46209.20
592.94	45682.58
593.10	45656.83
593.26	45991.53
593.41	45656.83
593.57	45734.07
593.73	45914.29
593.89	45834.71
594.05	45757.47
594.20	45469.59
594.36	45708.32
594.52	45687.26
594.68	45834.71
594.84	45830.03
594.99	46174.09
595.15	45680.24
595.31	45776.20
595.47	45837.05
595.62	46167.07
595.78	45846.41
595.94	46075.79
596.10	45984.51
596.25	46181.11
596.41	46370.69
596.57	45846.41
596.73	46188.13
596.88	45549.17
597.04	46124.94
597.20	45806.62
597.36	45860.46
597.51	46218.56
597.67	46005.57
597.83	46019.61
597.99	46143.66
598.14	45925.99
598.30	45879.18
598.46	45963.44
598.61	46122.60
598.77	45542.14
598.93	45771.52
599.09	45848.75
599.24	46424.53
599.40	46389.42
599.56	45888.54
599.71	46220.90
599.87	46078.13
600.03	45745.77
600.18	45624.06
600.34	46075.79
600.50	45769.18
600.65	46319.20
600.81	46300.48
600.97	46366.01
601.12	46330.90
601.28	45614.70
601.44	45790.24
601.59	45979.82
601.75	45743.43
601.91	45942.38
602.06	45759.81
602.22	46101.53
602.37	46096.85
602.53	46274.73
602.69	46330.90
602.84	45968.12
603.00	46005.57
603.16	46347.29
603.31	45654.49
603.47	45773.86
603.62	45464.91
603.78	45965.78
603.94	45872.16
604.09	46066.42
604.25	46227.92
604.40	45769.18
604.56	45970.46
604.71	45837.05
604.87	45951.74
605.03	46010.25
605.18	45563.21
605.34	45497.67
605.49	45455.54
605.65	45624.06
605.80	45750.45
605.96	45715.34
606.12	45500.01
606.27	45537.46
606.43	46094.51
606.58	46028.98
606.74	45680.24
606.89	46162.39
607.05	45773.86
607.20	45825.35
607.36	45591.30
607.51	46230.26
607.67	45794.92
607.82	45375.97
607.98	45804.28
608.13	45600.66
608.29	45532.78
608.44	45284.68
608.60	45188.72
608.75	45214.47
608.91	44966.37
609.06	45764.49
609.22	45937.69
609.37	45404.05
609.53	45598.32
609.68	45612.36
609.84	45385.33
609.99	45581.93
610.15	45469.59
610.30	45010.84
610.46	45378.31
610.61	45237.87
610.76	45460.23
610.92	45366.60
611.07	45280.00
611.23	45193.40
611.38	45148.93
611.54	44664.44
611.69	44978.07
611.84	45179.36
612.00	45219.15
612.15	45181.70
612.31	45305.75
612.46	45118.51
612.62	45507.04
612.77	45251.92
612.92	45200.43
613.08	44912.54
613.23	44563.80
613.39	44954.67
613.54	44861.05
613.69	44917.22
613.85	44772.11
614.00	45441.50
614.15	45102.12
614.31	44877.43
614.46	45223.83
614.62	44865.73
614.77	44839.98
614.92	45116.17
615.08	44966.37
615.23	44961.69
615.38	44875.09
615.54	44570.82
615.69	44327.41
615.84	44282.94
616.00	44683.17
616.15	44479.54
616.30	44608.27
616.46	44851.69
616.61	44629.34
616.76	44781.47
616.92	44292.30
617.07	44793.17
617.22	44526.35
617.37	44357.83
617.53	44645.72
617.68	44776.79
617.83	44877.43
617.99	44542.74
618.14	44311.02
618.29	44538.05
618.45	44055.90
618.60	44458.48
618.75	44217.40
618.90	44306.34
619.06	44388.26
619.21	44509.97
619.36	44479.54
619.51	44542.74
619.67	44231.44
619.82	44385.92
619.97	44332.09
620.12	44280.60
620.28	43981.01
620.43	43786.74
620.58	44327.41
620.73	43796.10
620.89	43700.14
621.04	43964.62
621.19	43817.17
621.34	43917.81
621.49	43639.29
621.65	43749.29
621.80	44051.22
621.95	43548.01
622.10	43903.77
622.25	43798.44
622.41	43618.22
622.56	43585.46
622.71	43849.94
622.86	43435.66
623.01	43496.52
623.16	43587.80
623.32	43653.33
623.47	43868.66
623.62	43466.09
623.77	43686.10
623.92	43573.75
624.07	43239.06
624.23	43049.47
624.38	43044.79
624.53	43044.79
624.68	43625.25
624.83	43704.82
624.98	43555.03
625.13	43217.99
625.29	43365.45
625.44	43091.60
625.59	42906.70
625.74	42855.21
625.89	42679.67
626.04	42485.40
626.19	43019.05
626.34	42742.86
626.49	42904.36
626.65	42658.60
626.80	42948.83
626.95	42642.22
627.10	42902.02
627.25	42831.80
627.40	42363.70
627.55	42267.73
627.70	42644.56
627.85	42223.26
628.00	42462.00
628.15	42934.79
628.30	42223.26
628.45	42328.59
628.60	42354.33
628.76	42703.07
628.91	42855.21
629.06	42361.36
629.21	42227.95
629.36	42157.73
629.51	42068.79
629.66	42218.58
629.81	42267.73
629.96	42321.57
630.11	42693.71
630.26	42082.83
630.41	42391.78
630.56	41972.83
630.71	42258.37
630.86	42183.48
631.01	42302.84
631.16	42012.62
631.31	41785.58
631.46	41684.94
631.61	41546.85
631.76	41874.52
631.91	41698.98
632.06	41886.23
632.21	42148.37
632.36	42164.75
632.51	42012.62
632.66	41895.59
632.81	41462.59
632.96	41607.70
633.10	41886.23
633.25	41511.74
633.40	41528.13
633.55	41900.27
633.70	41525.78
633.85	41638.13
634.00	41434.50
634.15	41603.02
634.30	41677.92
634.45	41752.82
634.60	41837.08
634.75	41383.01
634.90	41694.30
635.05	41792.61
635.19	41989.21
635.34	41467.27
635.49	41539.83
635.64	41301.09
635.79	41317.48
635.94	41771.54
636.09	42012.62
636.24	41050.66
636.39	40926.61
636.53	41036.61
636.68	40587.23
636.83	40804.90
636.98	41759.84
637.13	40718.30
637.28	41226.20
637.43	41219.17
637.57	40980.44
637.72	41109.17
637.87	41141.94
638.02	41177.04
638.17	41008.53
638.32	41008.53
638.46	40767.45
638.61	40872.78
638.76	40669.15
638.91	41165.34
639.06	40528.72
639.20	40844.69
639.35	40996.82
639.50	40830.65
639.65	40753.41
639.80	40582.55
639.94	40437.44
640.09	40615.32
640.24	40341.47
640.39	40531.06
640.54	40722.98
640.68	40336.79
640.83	40472.54
640.98	40259.55
641.13	40147.21
641.27	40526.38
641.42	40364.88
641.57	40037.20
641.72	40238.49
641.86	39849.96
642.01	40091.04
642.16	40023.16
642.31	39739.96
642.45	40545.10
642.60	39723.57
642.75	39702.51
642.90	39828.90
643.04	39903.79
643.19	40048.91
643.34	40229.13
643.48	39957.63
643.63	39887.41
643.78	40013.80
643.93	39896.77
644.07	39466.11
644.22	39634.63
644.37	39817.19
644.51	40032.52
644.66	39372.49
644.81	39929.54
644.95	40147.21
645.10	40023.16
645.25	39981.03
645.39	39807.83
645.54	39957.63
645.69	39796.13
645.83	39391.22
645.98	39669.74
646.13	39672.08
646.27	39562.08
646.42	39496.54
646.57	39360.79
646.71	39253.12
646.86	39351.43
647.00	39367.81
647.15	39264.83
647.30	39349.09
647.44	39377.17
647.59	38827.15
647.74	39061.20
647.88	38775.66
648.03	38976.94
648.17	39133.76
648.32	38738.21
648.47	39164.18
648.61	38689.06
648.76	39234.40
648.90	39208.65
649.05	39407.60
649.20	39044.82
649.34	39276.53
649.49	38565.01
649.63	38953.54
649.78	38864.60
649.92	38691.40
650.07	38785.02
650.21	38747.57
650.36	38560.33
650.51	38614.16
650.65	39328.02
650.80	39161.84
650.94	39393.56
651.09	38995.67
651.23	38368.40
651.38	38855.23
651.52	38455.00
651.67	38469.04
651.81	38574.37
651.96	38316.91
652.10	38359.04
652.25	38546.28
652.39	38333.29
652.54	38794.38
652.68	38274.78
652.83	38452.66
652.97	38740.55
653.12	38532.24
653.26	38389.47
653.41	38667.99
653.55	38089.88
653.70	38078.18
653.84	38223.29
653.99	38492.45
654.13	38359.04
654.27	38139.03
654.42	38419.89
654.56	38000.94
654.71	38312.23
654.85	38279.46
655.00	38068.81
655.14	37462.61
655.29	37757.52
655.43	37462.61
655.57	37663.90
655.72	37266.01
655.86	37809.01
656.01	37825.40
656.15	37315.16
656.30	37134.94
656.44	37511.77
656.58	37240.26
656.73	37347.93
656.87	37123.24
657.01	36488.95
657.16	36992.17
657.30	37298.78
657.45	37041.32
657.59	37113.87
657.73	37350.27
657.88	37626.45
658.02	37078.77
658.16	37230.90
658.31	37160.69
658.45	37097.49
658.60	37581.98
658.74	37076.43
658.88	37258.99
659.03	37460.27
659.17	36786.20
659.31	36919.61
659.46	37083.45
659.60	36896.20
659.74	36671.51
659.89	36547.47
660.03	36903.23
660.17	36943.02
660.32	36620.02
660.46	36971.10
660.60	36589.59
660.74	36568.53
660.89	36395.33
661.03	36247.88
661.17	36287.67
661.32	36411.71
661.46	36287.67
661.60	36133.19
661.74	36273.62
661.89	35992.76
662.03	36385.97
662.17	36140.21
662.31	35978.72
662.46	36215.11
662.60	35995.10
662.74	35854.67
662.88	35564.44
663.03	35789.13
663.17	35831.26
663.31	35667.42
663.45	35679.13
663.60	35555.08
663.74	35433.37
663.88	35414.65
664.02	35737.64
664.17	35470.82
664.31	35716.58
664.45	35021.44
664.59	35138.46
664.73	35641.68
664.88	35433.37
665.02	35370.18
665.16	34972.28
665.30	35526.99
665.44	34864.62
665.59	35222.72
665.73	34902.07
665.87	34855.26
666.01	34789.72
666.15	34569.71
666.29	34483.11
666.44	34815.47
666.58	34864.62
666.72	34838.87
666.86	35016.75
667.00	34686.74
667.14	33977.56
667.28	34080.54
667.43	34192.89
667.57	34429.28
667.71	34396.51
667.85	34321.62
667.99	34120.33
668.13	33795.00
668.27	33802.02
668.41	34220.97
668.56	34007.98
668.70	33846.49
668.84	33694.35
668.98	33820.74
669.12	34022.03
669.26	34115.65
669.40	33790.31
669.54	33647.54
669.68	33390.08
669.82	33242.63
669.96	33312.84
670.10	33104.54
670.25	33647.54
670.39	33174.75
670.53	33076.45
670.67	33062.41
670.81	33134.96
670.95	32952.40
671.09	33326.89
671.23	32781.54
671.37	33020.28
671.51	32931.34
671.65	32744.09
671.79	32769.84
671.93	32713.67
672.07	32315.78
672.21	32364.93
672.35	32334.50
672.49	32491.32
672.63	32643.45
672.77	32556.85
672.91	32151.94
673.05	31742.35
673.19	31887.46
673.33	31920.23
673.47	32063.00
673.61	31929.59
673.75	31922.57
673.89	31903.84
674.03	31477.86
674.17	31424.03
674.31	31159.55
674.45	31220.41
674.59	31246.15
674.73	31307.01
674.87	31314.03
675.01	31381.90
675.15	30976.99
675.29	31098.70
675.43	30721.87
675.56	31044.87
675.70	30792.09
675.84	30754.64
675.98	29811.40
676.12	30646.97
676.26	30253.76
676.40	30270.15
676.54	30295.89
676.68	30176.53
676.82	29736.51
676.96	29764.59
677.10	29605.44
677.23	29497.77
677.37	29848.85
677.51	29680.33
677.65	29736.51
677.79	29675.65
677.93	29263.72
678.07	29434.58
678.21	29015.62
678.34	29069.45
678.48	28938.38
678.62	29041.37
678.76	28893.91
678.90	28725.39
679.04	28503.04
679.18	29015.62
679.31	28123.88
679.45	28013.87
679.59	27978.76
679.73	28400.06
679.87	28016.21
680.00	28404.74
680.14	28175.37
680.28	27922.59
680.42	27559.81
680.56	27831.31
680.70	27725.99
680.83	27667.47
680.97	27641.73
681.11	27332.78
681.25	27206.39
681.39	26946.59
681.52	27395.97
681.66	27154.90
681.80	27035.53
681.94	26906.80
682.07	26796.79
682.21	26403.58
682.35	26778.07
682.49	26656.36
682.62	26644.66
682.76	26464.44
682.90	26122.72
683.04	26354.43
683.17	26604.87
683.31	26319.32
683.45	26342.73
683.59	25776.32
683.72	25448.64
683.86	25680.36
684.00	25511.84
684.13	25710.78
684.27	25855.90
684.41	25769.30
684.55	25125.65
684.68	24964.15
684.82	25027.35
684.96	25156.08
685.09	25373.75
685.23	24786.27
685.37	24603.71
685.50	24795.64
685.64	24833.08
685.78	24959.47
685.91	24985.22
686.05	24229.23
686.19	24088.79
686.32	24243.27
686.46	24126.24
686.60	23531.75
686.73	23658.14
686.87	23754.10
687.01	23133.86
687.14	23438.12
687.28	23370.25
687.42	23140.88
687.55	23005.13
687.69	23248.54
687.82	22785.12
687.96	23117.47
688.10	23215.77
688.23	22979.38
688.37	22675.11
688.50	22431.69
688.64	22827.24
688.78	22473.82
688.91	22286.58
689.05	22361.48
689.18	22106.36
689.32	22101.68
689.46	22167.21
689.59	22078.27
689.73	22398.93
689.86	22192.96
690.00	22022.10
690.13	22108.70
690.27	21989.33
690.41	21584.42
690.54	21549.31
690.68	21493.14
690.81	21125.68
690.95	21130.36
691.08	21280.15
691.22	21287.17
691.35	21319.94
691.49	20877.58
691.62	21104.61
691.76	20739.49
691.89	20975.88
692.03	20800.34
692.16	20819.07
692.30	20704.38
692.43	20444.58
692.57	20107.54
692.70	20446.92
692.84	20168.40
692.97	20210.53
693.11	19955.41
693.24	20074.77
693.38	19840.72
693.51	19873.49
693.65	19749.44
693.78	19824.34
693.92	19470.92
694.05	19393.68
694.19	19330.48
694.32	19051.96
694.45	19515.39
694.59	19225.16
694.72	18970.04
694.86	19236.86
694.99	18640.03
695.13	18750.03
695.26	18375.55
695.39	18342.78
695.53	18677.48
695.66	18904.51
695.80	18717.26
695.93	18523.00
696.07	18242.14
696.20	18438.74
696.33	18501.93
696.47	18225.75
696.60	18424.70
696.73	18040.85
696.87	17949.57
697.00	17816.16
697.14	17926.16
697.27	17607.85
697.40	17369.12
697.54	17682.75
697.67	17762.33
697.80	17701.47
697.94	17411.25
698.07	16961.86
698.21	17102.29
698.34	17048.46
698.47	17001.65
698.61	16999.31
698.74	16748.87
698.87	16879.94
699.01	16957.18
699.14	16540.57
699.27	16725.47
699.40	16599.08
699.54	16498.44
699.67	16404.81
699.80	16219.91
699.94	16374.39
700.07	16145.02
700.20	16114.59
700.34	15981.18
700.47	16114.59
700.60	16098.20
700.73	15932.03
700.87	15854.79
701.00	15445.20
701.13	15714.36
701.26	15419.45
701.40	15405.41
701.53	15583.29
701.66	15492.01
701.79	15459.24
701.93	15044.96
702.06	15173.69
702.19	14878.79
702.32	15063.69
702.46	14993.47
702.59	15084.75
702.72	15014.54
702.85	14944.32
702.99	14724.31
703.12	14806.23
703.25	14616.65
703.38	14307.69
703.51	14534.73
703.65	14885.81
703.78	14714.95
703.91	14019.81
704.04	14434.08
704.17	14326.42
704.31	13816.18
704.44	13947.25
704.57	13745.97
704.70	13797.46
704.83	13823.20
704.96	13671.07
705.10	13844.27
705.23	13870.01
>>>>>End Processed Spectral Data<<<<<
