SpectraSuite Data File
++++++++++++++++++++++++++++++++++++
Date: Fri Oct 25 10:44:27 EDT 2013
User: price-jones
Dark Spectrum Present: No
Reference Spectrum Present: No
Number of Sampled Component Spectra: 1
Spectrometers: USB2+H05261
Integration Time (usec): 100000 (USB2+H05261)
Spectra Averaged: 1 (USB2+H05261)
Boxcar Smoothing: 0 (USB2+H05261)
Correct for Electrical Dark: No (USB2+H05261)
Strobe/Lamp Enabled: No (USB2+H05261)
Correct for Detector Non-linearity: No (USB2+H05261)
Correct for Stray Light: No (USB2+H05261)
Number of Pixels in Processed Spectrum: 2048
>>>>>Begin Processed Spectral Data<<<<<
365.73	131.07
365.92	131.07
366.12	131.07
366.32	86.60
366.52	110.01
366.72	44.47
366.91	18.72
367.11	105.32
367.31	16.38
367.51	0.00
367.70	51.49
367.90	0.00
368.10	0.00
368.30	46.81
368.49	0.00
368.69	39.79
368.89	91.28
369.09	35.11
369.28	124.05
369.48	4.68
369.68	121.71
369.87	81.92
370.07	119.37
370.27	154.48
370.47	236.39
370.66	423.64
370.86	435.34
371.06	433.00
371.25	472.79
371.45	362.78
371.65	550.03
371.84	421.30
372.04	451.72
372.24	437.68
372.44	444.70
372.63	547.69
372.83	559.39
373.03	449.38
373.22	500.87
373.42	465.77
373.62	512.58
373.81	631.94
374.01	561.73
374.21	622.58
374.40	475.13
374.60	559.39
374.79	524.28
374.99	589.82
375.19	610.88
375.38	648.33
375.58	582.79
375.78	580.45
375.97	526.62
376.17	706.84
376.37	594.50
376.56	592.16
376.76	601.52
376.95	620.24
377.15	718.54
377.35	772.38
377.54	664.71
377.74	660.03
377.93	676.41
378.13	653.01
378.33	723.23
378.52	678.76
378.72	730.25
378.91	664.71
379.11	631.94
379.31	601.52
379.50	641.31
379.70	664.71
379.89	692.80
380.09	720.88
380.28	695.14
380.48	739.61
380.68	779.40
380.87	716.20
381.07	744.29
381.26	800.46
381.46	669.39
381.65	706.84
381.85	702.16
382.04	784.08
382.24	763.01
382.43	779.40
382.63	615.56
382.83	727.91
383.02	755.99
383.22	812.17
383.41	800.46
383.61	779.40
383.80	767.70
384.00	699.82
384.19	770.04
384.39	788.76
384.58	849.61
384.78	816.85
384.97	784.08
385.17	882.38
385.36	863.66
385.56	828.55
385.75	791.10
385.95	866.00
386.14	798.12
386.34	800.46
386.53	800.46
386.72	957.28
386.92	805.14
387.11	849.61
387.31	819.19
387.50	875.36
387.70	912.81
387.89	870.68
388.09	858.98
388.28	877.70
388.48	945.58
388.67	957.28
388.86	976.00
389.06	973.66
389.25	968.98
389.45	1036.86
389.64	1025.15
389.84	1076.65
390.03	1090.69
390.22	1046.22
390.42	985.37
390.61	1043.88
390.81	1071.97
391.00	1153.88
391.19	1074.31
391.39	1083.67
391.58	1135.16
391.78	1139.84
391.97	997.07
392.16	1132.82
392.36	1128.14
392.55	1013.45
392.75	1013.45
392.94	1001.75
393.13	1083.67
393.33	983.02
393.52	1137.50
393.71	1144.52
393.91	1156.22
394.10	1104.73
394.29	1165.59
394.49	1170.27
394.68	1266.23
394.88	1210.06
395.07	1348.15
395.26	1259.21
395.46	1198.35
395.65	1287.29
395.84	1299.00
396.04	1191.33
396.23	1149.20
396.42	1090.69
396.62	1231.12
396.81	1156.22
397.00	1212.40
397.19	1301.34
397.39	1362.19
397.58	1390.28
397.77	1542.41
397.97	1462.83
398.16	1488.58
398.35	1589.22
398.55	1497.94
398.74	1551.78
398.93	1526.03
399.12	1486.24
399.32	1619.65
399.51	1476.88
399.70	1549.43
399.90	1612.63
400.09	1624.33
400.28	1673.48
400.47	1586.88
400.67	1605.61
400.86	1757.74
401.05	1661.78
401.24	1664.12
401.44	1797.53
401.63	1757.74
401.82	1790.51
402.01	1778.81
402.21	1778.81
402.40	1881.79
402.59	1799.87
402.78	1708.59
402.97	1804.55
403.17	1909.88
403.36	1919.24
403.55	1919.24
403.74	1891.15
403.93	1930.94
404.13	1886.47
404.32	1905.20
404.51	1907.54
404.70	1935.62
404.89	2073.71
405.09	1989.46
405.28	2022.22
405.47	2104.14
405.66	2012.86
405.85	1980.09
406.05	1982.43
406.24	2186.06
406.43	2136.91
406.62	2097.12
406.81	2321.81
407.00	2127.55
407.20	2143.93
407.39	2136.91
407.58	2162.66
407.77	2214.15
407.96	2193.08
408.15	2289.04
408.34	2317.13
408.54	2282.02
408.73	2300.75
408.92	2342.88
409.11	2321.81
409.30	2403.73
409.49	2345.22
409.68	2366.28
409.87	2389.69
410.07	2291.38
410.26	2300.75
410.45	2555.86
410.64	2499.69
410.83	2619.06
411.02	2546.50
411.21	2736.09
411.40	2605.02
411.59	2661.19
411.78	2719.70
411.98	2726.72
412.17	2686.94
412.36	2780.56
412.55	2700.98
412.74	2726.72
412.93	2761.83
413.12	2796.94
413.31	3019.29
413.50	2895.24
413.69	2888.22
413.88	2960.78
414.07	2977.16
414.26	2944.39
414.45	2970.14
414.64	3059.08
414.83	3009.93
415.02	3009.93
415.22	3293.13
415.41	3101.21
415.60	3152.70
415.79	3211.22
415.98	3361.01
416.17	3330.58
416.36	3351.65
416.55	3243.98
416.74	3269.73
416.93	3424.20
417.12	3517.83
417.31	3398.46
417.50	3485.06
417.69	3550.59
417.88	3625.49
418.07	3410.16
418.26	3510.80
418.45	3499.10
418.64	3672.30
418.83	3686.34
419.02	3684.00
419.21	3749.54
419.39	3782.31
419.58	3637.19
419.77	3658.26
419.96	3812.73
420.15	3777.62
420.34	3866.56
420.53	3836.14
420.72	3894.65
420.91	3847.84
421.10	3878.27
421.29	3997.64
421.48	3878.27
421.67	3925.08
421.86	4037.42
422.05	3955.51
422.24	3801.03
422.43	3873.59
422.61	3864.22
422.80	3995.29
422.99	4063.17
423.18	4107.64
423.37	4121.68
423.56	4084.23
423.75	4023.38
423.94	3943.80
424.13	3810.39
424.32	3939.12
424.50	4114.66
424.69	4007.00
424.88	4159.13
425.07	3974.23
425.26	3927.42
425.45	4021.04
425.64	4056.15
425.83	4058.49
426.01	3983.59
426.20	3976.57
426.39	4109.98
426.58	4025.72
426.77	3988.27
426.96	3997.64
427.15	4088.92
427.33	4187.22
427.52	4128.70
427.71	4205.94
427.90	4318.29
428.09	4306.59
428.28	4128.70
428.46	4236.37
428.65	4257.43
428.84	4475.10
429.03	4372.12
429.22	4212.96
429.40	4114.66
429.59	4058.49
429.78	3997.64
429.97	3992.95
430.16	4077.21
430.34	4308.93
430.53	4257.43
430.72	4315.95
430.91	4346.37
431.10	4425.95
431.28	4606.17
431.47	4629.58
431.66	4690.43
431.85	4737.24
432.03	4844.91
432.22	4903.42
432.41	4678.73
432.60	4964.28
432.79	4814.48
432.97	4861.29
433.16	4915.12
433.35	4767.67
433.54	4727.88
433.72	4798.10
433.91	4901.08
434.10	4833.21
434.28	4975.98
434.47	4968.96
434.66	5109.39
434.85	4992.36
435.03	5219.39
435.22	5174.92
435.41	5200.67
435.59	5163.22
435.78	5163.22
435.97	5313.02
436.16	5423.02
436.34	5102.37
436.53	5355.15
436.72	5451.11
436.90	5252.16
437.09	5472.17
437.28	5137.48
437.46	5317.70
437.65	5261.52
437.84	5427.70
438.02	5364.51
438.21	5336.42
438.40	5245.14
438.58	5554.09
438.77	5661.76
438.96	5544.73
439.14	5687.50
439.33	5689.84
439.52	5785.80
439.70	5795.17
439.89	5757.72
440.08	5638.35
440.26	5818.57
440.45	5907.51
440.63	5982.41
440.82	6232.85
441.01	6120.50
441.19	5980.07
441.38	6263.27
441.57	6333.49
441.75	6258.59
441.94	6401.37
442.12	6628.40
442.31	6387.32
442.50	6473.92
442.68	6258.59
442.87	6361.58
443.05	6502.01
443.24	6682.23
443.43	6464.56
443.61	6670.53
443.80	6785.21
443.98	6513.71
444.17	6504.35
444.35	6616.69
444.54	6785.21
444.73	6752.45
444.91	6668.19
445.10	6806.28
445.28	6698.61
445.47	6654.14
445.65	6768.83
445.84	6595.63
446.02	6604.99
446.21	6895.22
446.39	6916.28
446.58	6761.81
446.77	6899.90
446.95	6738.40
447.14	6897.56
447.32	7026.29
447.51	6953.73
447.69	6661.16
447.88	6930.33
448.06	6932.67
448.25	6951.39
448.43	6956.07
448.62	6881.18
448.80	6927.99
448.99	7087.14
449.17	7112.89
449.36	6965.43
449.54	7026.29
449.73	7183.10
449.91	7403.11
450.10	7363.33
450.28	7356.30
450.46	7470.99
450.65	7496.74
450.83	7407.80
451.02	7314.17
451.20	7365.67
451.39	7440.56
451.57	7375.03
451.76	7494.40
451.94	7534.18
452.13	7442.90
452.31	7508.44
452.49	7185.44
452.68	7339.92
452.86	7360.98
453.05	7496.74
453.23	7555.25
453.42	7360.98
453.60	7494.40
453.78	7644.19
453.97	7688.66
454.15	7534.18
454.34	7648.87
454.52	7691.00
454.70	7782.28
454.89	7929.74
455.07	7854.84
455.26	7824.41
455.44	7857.18
455.62	7779.94
455.81	7911.01
455.99	7751.85
456.17	7906.33
456.36	8182.51
456.54	8046.76
456.73	8212.94
456.91	8344.01
457.09	8292.52
457.28	8355.71
457.46	8262.09
457.64	8446.99
457.83	8238.69
458.01	8088.89
458.19	8505.51
458.38	8292.52
458.56	8564.02
458.74	8287.84
458.93	8182.51
459.11	8402.52
459.29	8484.44
459.48	8540.61
459.66	8514.87
459.84	8458.70
460.03	8765.31
460.21	8692.75
460.39	8821.48
460.57	8779.35
460.76	8800.41
460.94	8908.08
461.12	8945.53
461.31	8802.75
461.49	8851.91
461.67	8959.57
461.85	9069.58
462.04	8987.66
462.22	9149.15
462.40	9163.20
462.59	9062.55
462.77	9214.69
462.95	9205.33
463.13	9310.65
463.32	9200.65
463.50	9275.54
463.68	9327.03
463.86	9287.25
464.05	9228.73
464.23	9221.71
464.41	9226.39
464.59	9102.34
464.78	9614.92
464.96	9554.07
465.14	9364.48
465.32	9598.54
465.50	9521.30
465.69	9603.22
465.87	9399.59
466.05	9458.10
466.23	9472.15
466.41	9455.76
466.60	9565.77
466.78	9408.95
466.96	9420.66
467.14	9673.43
467.32	9736.63
467.51	9556.41
467.69	9556.41
467.87	9460.45
468.05	9753.01
468.23	9657.05
468.41	9762.37
468.60	9778.76
468.78	9790.46
468.96	9865.36
469.14	9762.37
469.32	10221.12
469.50	9621.94
469.69	10127.50
469.87	9867.70
470.05	10024.51
470.23	10080.69
470.41	10171.97
470.59	10193.03
470.77	10050.26
470.95	10328.78
471.14	10321.76
471.32	10143.88
471.50	10401.34
471.68	10356.87
471.86	10607.31
472.04	10663.48
472.22	10972.43
472.40	10485.60
472.58	10766.46
472.77	10579.22
472.95	10534.75
473.13	11087.12
473.31	10764.12
473.49	10766.46
473.67	10792.21
473.85	10867.11
474.03	11218.19
474.21	11279.04
474.39	11398.41
474.57	11241.59
474.75	11262.66
474.93	11487.35
475.12	11492.03
475.30	11501.39
475.48	11293.08
475.66	11707.36
475.84	11566.93
476.02	11461.60
476.20	11625.44
476.38	11861.84
476.56	12278.45
476.74	12058.44
476.92	12112.27
477.10	12025.67
477.28	12482.08
477.46	12252.70
477.64	12592.08
477.82	12678.68
478.00	12849.54
478.18	12655.28
478.36	12896.35
478.54	12943.16
478.72	12999.34
478.90	13296.58
479.08	13001.68
479.26	13511.91
479.44	13607.87
479.62	13437.02
479.80	13537.66
479.98	13778.73
480.16	13984.70
480.34	13881.72
480.52	14155.56
480.70	14211.73
480.88	13914.48
481.06	14295.99
481.24	14279.61
481.41	14607.28
481.59	14537.07
481.77	14834.32
481.95	14782.82
482.13	14981.77
482.31	14740.69
482.49	15342.21
482.67	15211.14
482.85	15555.20
483.03	15412.43
483.21	15737.76
483.39	15763.51
483.57	15592.65
483.74	15922.66
483.92	16140.33
484.10	16006.92
484.28	16283.11
484.46	16613.12
484.64	16491.41
484.82	16482.05
485.00	16685.68
485.18	16638.87
485.35	17317.62
485.53	16507.80
485.71	16638.87
485.89	16783.98
486.07	16823.77
486.25	17312.94
486.43	16936.12
486.61	17198.26
486.78	17649.98
486.96	17743.60
487.14	17975.31
487.32	17881.69
487.50	18185.96
487.68	18429.38
487.85	19168.99
488.03	18860.04
488.21	18960.68
488.39	18974.72
488.57	19051.96
488.75	19126.86
488.92	19648.80
489.10	19648.80
489.28	19702.63
489.46	20271.38
489.64	20135.63
489.81	20547.56
489.99	20533.52
490.17	20849.49
490.35	21088.23
490.53	20685.65
490.70	20966.52
490.88	21205.25
491.06	21128.02
491.24	21074.18
491.41	21568.04
491.59	20924.39
491.77	21153.76
491.95	21415.90
492.13	21722.51
492.30	21888.69
492.48	22043.17
492.66	22333.39
492.84	22295.94
493.01	22342.75
493.19	22434.03
493.37	22438.72
493.54	22876.40
493.72	23037.89
493.90	23269.61
494.08	23204.07
494.25	23686.22
494.43	23817.29
494.61	23843.04
494.79	23875.80
494.96	23728.35
495.14	24173.05
495.32	24130.92
495.49	24313.48
495.67	24404.77
495.85	24437.53
496.02	24526.47
496.20	24950.11
496.38	25312.89
496.55	25209.91
496.73	25535.24
496.91	25486.09
497.09	25626.53
497.26	25373.75
497.44	25560.99
497.62	25666.31
497.79	25694.40
497.97	25490.77
498.14	26085.27
498.32	26134.42
498.50	25991.65
498.67	26443.37
498.85	26532.31
499.03	27452.14
499.20	27215.75
499.38	26579.12
499.56	27044.89
499.73	27094.04
499.91	27124.47
500.08	27175.96
500.26	26677.43
500.44	27218.09
500.61	27325.75
500.79	27442.78
500.97	26946.59
501.14	27969.40
501.32	27552.79
501.49	27658.11
501.67	27538.74
501.84	28051.32
502.02	28477.30
502.20	28414.10
502.37	28091.11
502.55	28013.87
502.72	28856.46
502.90	28872.85
503.07	28596.67
503.25	29137.33
503.43	28329.84
503.60	28627.09
503.78	28779.23
503.95	28968.81
504.13	28985.19
504.30	29235.63
504.48	29205.20
504.65	29357.34
504.83	29855.87
505.01	29518.84
505.18	29717.78
505.36	30103.97
505.53	29958.86
505.71	30436.33
505.88	30394.20
506.06	30008.01
506.23	30228.02
506.41	29841.83
506.58	30345.05
506.76	30529.95
506.93	30677.40
507.11	30668.04
507.28	30609.53
507.46	31054.23
507.63	30398.88
507.81	30721.87
507.98	30625.91
508.16	30995.71
508.33	31239.13
508.50	31124.44
508.68	31597.23
508.85	31548.08
509.03	31847.67
509.20	31714.26
509.38	31782.13
509.55	31882.78
509.73	31763.41
509.90	31803.20
510.08	31988.10
510.25	32332.16
510.42	32100.45
510.60	32481.95
510.77	32346.20
510.95	32598.98
511.12	32407.06
511.30	32809.63
511.47	32936.02
511.64	32950.06
511.82	33027.30
511.99	32854.10
512.17	33083.47
512.34	33177.09
512.51	33226.24
512.69	33722.44
512.86	33191.14
513.04	33457.96
513.21	33647.54
513.38	33240.29
513.56	33455.62
513.73	33549.24
513.90	33549.24
514.08	33666.27
514.25	33549.24
514.43	33799.68
514.60	33837.12
514.77	33902.66
514.95	34286.51
515.12	34513.54
515.29	34054.79
515.47	35159.53
515.64	34607.16
515.81	34085.22
515.99	34153.10
516.16	33998.62
516.33	34178.84
516.51	34162.46
516.68	33848.83
516.85	33951.81
517.03	34167.14
517.20	34813.13
517.37	34920.79
517.54	34995.69
517.72	34862.28
517.89	34642.27
518.06	34363.75
518.24	34501.84
518.41	34916.11
518.58	34801.43
518.75	35449.75
518.93	35466.14
519.10	35459.12
519.27	35906.16
519.45	35833.60
519.62	35704.87
519.79	36116.81
519.96	36058.29
520.14	36437.46
520.31	35864.03
520.48	36147.23
520.65	36013.82
520.83	36634.06
521.00	36666.83
521.17	36285.33
521.34	36905.57
521.52	36987.49
521.69	36687.90
521.86	37057.70
522.03	37104.51
522.20	36699.60
522.38	37247.29
522.55	37244.94
522.72	36872.80
522.89	37268.35
523.07	37528.15
523.24	37137.28
523.41	37785.61
523.58	37385.38
523.75	38050.09
523.92	37823.06
524.10	38000.94
524.27	37715.39
524.44	37930.72
524.61	38122.65
524.78	38244.35
524.96	38316.91
525.13	38057.11
525.30	38447.98
525.47	38511.17
525.64	38555.64
525.81	38293.50
525.98	38508.83
526.16	37837.10
526.33	38450.32
526.50	38277.12
526.67	37642.84
526.84	38122.65
527.01	37986.89
527.18	38497.13
527.36	38913.75
527.53	39180.57
527.70	39203.97
527.87	38864.60
528.04	38906.73
528.21	38979.28
528.38	39552.71
528.55	39714.21
528.72	39627.61
528.89	39491.86
529.07	40233.81
529.24	39328.02
529.41	39683.78
529.58	39550.37
529.75	39739.96
529.92	39828.90
530.09	39997.41
530.26	39728.25
530.43	39955.29
530.60	39880.39
530.77	40371.90
530.94	40472.54
531.11	40074.65
531.28	39936.56
531.46	40439.78
531.63	40547.44
531.80	40140.19
531.97	40212.74
532.14	39775.06
532.31	39583.14
532.48	39784.43
532.65	40149.55
532.82	40149.55
532.99	40776.81
533.16	40215.08
533.33	40811.92
533.50	40935.97
533.67	41048.32
533.84	40399.99
534.01	40931.29
534.18	40882.14
534.35	41233.22
534.52	41109.17
534.69	41074.06
534.86	41310.46
535.03	40849.37
535.20	41448.55
535.37	41708.35
535.54	41530.47
535.71	41284.71
535.88	41329.18
536.05	41425.14
536.22	41605.36
536.38	41811.33
536.55	41684.94
536.72	41324.50
536.89	41172.36
537.06	41251.94
537.23	42124.96
537.40	41734.09
537.57	41979.85
537.74	41610.04
537.91	42043.04
538.08	41853.46
538.25	41684.94
538.42	42066.45
538.59	41963.46
538.75	41645.15
538.92	41860.48
539.09	42061.77
539.26	42351.99
539.43	42099.22
539.60	42000.91
539.77	42057.09
539.94	42148.37
540.11	42471.36
540.28	42295.82
540.44	41968.15
540.61	41937.72
540.78	42171.77
540.95	42230.29
541.12	42178.79
541.29	42305.18
541.46	42576.69
541.62	42387.10
541.79	42742.86
541.96	42576.69
542.13	42632.86
542.30	42841.17
542.47	42880.95
542.63	43159.48
542.80	42623.50
542.97	43063.52
543.14	43283.53
543.31	43555.03
543.48	43288.21
543.64	43761.00
543.81	43810.15
543.98	43793.76
544.15	43557.37
544.32	43515.24
544.48	43746.95
544.65	43419.28
544.82	43889.73
544.99	43433.32
545.16	43878.02
545.32	43482.47
545.49	43882.70
545.66	44390.60
545.83	44076.97
546.00	43812.49
546.16	43847.60
546.33	44004.41
546.50	43613.54
546.67	43899.09
546.83	43620.56
547.00	44245.49
547.17	43824.19
547.34	43978.67
547.50	44163.57
547.67	44217.40
547.84	44018.46
548.00	44479.54
548.17	44477.20
548.34	44203.36
548.51	44919.56
548.67	44720.62
548.84	44992.12
549.01	44390.60
549.18	44645.72
549.34	44421.03
549.51	44741.68
549.68	44563.80
549.84	44582.52
550.01	44968.71
550.18	44575.50
550.34	44659.76
550.51	44638.70
550.68	44882.11
550.84	44809.56
551.01	45017.86
551.18	44893.82
551.34	44470.18
551.51	44971.05
551.68	44940.63
551.84	44957.01
552.01	44690.19
552.18	44734.66
552.34	44573.16
552.51	44708.91
552.68	44891.48
552.84	45317.45
553.01	45336.18
553.18	45287.03
553.34	45338.52
553.51	44676.15
553.67	45378.31
553.84	45432.14
554.01	45553.85
554.17	45240.21
554.34	45624.06
554.51	45340.86
554.67	45731.73
554.84	45347.88
555.00	45495.33
555.17	45237.87
555.33	45338.52
555.50	45731.73
555.67	45827.69
555.83	45535.12
556.00	45530.44
556.16	45757.47
556.33	45146.59
556.50	45385.33
556.66	45558.53
556.83	45155.96
556.99	45748.11
557.16	45516.40
557.32	46178.77
557.49	45687.26
557.65	45577.25
557.82	45858.12
557.98	45958.76
558.15	45724.71
558.32	45572.57
558.48	45743.43
558.65	45879.18
558.81	45755.13
558.98	45773.86
559.14	45600.66
559.31	45528.10
559.47	45914.29
559.64	46059.40
559.80	46007.91
559.97	45888.54
560.13	45752.79
560.30	45577.25
560.46	46120.26
560.63	46569.64
560.79	46012.59
560.96	46356.65
561.12	46382.40
561.29	45998.55
561.45	45888.54
561.61	45947.06
561.78	45661.51
561.94	46043.02
562.11	46136.64
562.27	46160.05
562.44	46237.28
562.60	46576.66
562.77	46506.44
562.93	46382.40
563.10	46389.42
563.26	45804.28
563.42	46382.40
563.59	46007.91
563.75	46499.42
563.92	45914.29
564.08	46059.40
564.24	46347.29
564.41	46370.69
564.57	46202.18
564.74	46513.47
564.90	46096.85
565.07	46457.29
565.23	46410.48
565.39	46450.27
565.56	46106.21
565.72	46328.56
565.88	46426.87
566.05	46263.03
566.21	46246.65
566.38	46162.39
566.54	46419.84
566.70	46784.97
566.87	46775.61
567.03	46520.49
567.19	46850.50
567.36	46602.41
567.52	46698.37
567.68	46476.02
567.85	46307.50
568.01	46279.41
568.17	46267.71
568.34	46663.26
568.50	46319.20
568.66	46361.33
568.83	46763.90
568.99	46197.49
569.15	46204.52
569.32	46590.70
569.48	46188.13
569.64	46576.66
569.81	46415.16
569.97	47058.81
570.13	46323.88
570.30	46263.03
570.46	46319.20
570.62	46419.84
570.78	46281.75
570.95	46064.08
571.11	46756.88
571.27	46340.27
571.43	46719.43
571.60	46349.63
571.76	45860.46
571.92	46726.46
572.09	46749.86
572.25	46754.54
572.41	46293.46
572.57	46948.81
572.74	46822.42
572.90	46742.84
573.06	46417.50
573.22	46396.44
573.38	46684.33
573.55	46539.21
573.71	46983.91
573.87	46794.33
574.03	46579.00
574.20	46850.50
574.36	46621.13
574.52	46759.22
574.68	46880.93
574.84	46454.95
575.01	46590.70
575.17	46260.69
575.33	46248.99
575.49	46583.68
575.65	46827.10
575.82	46766.24
575.98	46478.36
576.14	46719.43
576.30	46777.95
576.46	46511.13
576.62	46305.16
576.79	46466.66
576.95	46457.29
577.11	46251.33
577.27	46665.60
577.43	46721.77
577.59	47054.13
577.75	46445.59
577.92	46321.54
578.08	46452.61
578.24	46199.83
578.40	46728.80
578.56	46508.79
578.72	46454.95
578.88	46834.12
579.04	46791.99
579.21	46595.38
579.37	46476.02
579.53	46988.60
579.69	46710.07
579.85	46651.56
580.01	47014.34
580.17	46766.24
580.33	46969.87
580.49	46995.62
580.65	46791.99
580.82	47093.92
580.98	46630.49
581.14	46773.27
581.30	47157.11
581.46	46745.18
581.62	46597.73
581.78	47023.70
581.94	47075.19
582.10	46600.07
582.26	47002.64
582.42	46894.97
582.58	46342.61
582.74	46534.53
582.90	46852.84
583.06	46803.69
583.22	47304.57
583.38	47269.46
583.54	47430.96
583.70	46834.12
583.86	47126.69
584.02	46714.75
584.18	46799.01
584.34	46686.67
584.50	46768.58
584.66	46604.75
584.82	46731.14
584.98	47075.19
585.14	47136.05
585.30	46567.30
585.46	46857.52
585.62	46483.04
585.78	46459.63
585.94	46504.10
586.10	46677.30
586.26	46894.97
586.42	47061.15
586.58	46841.14
586.74	46763.90
586.90	46925.40
587.06	47007.32
587.22	46749.86
587.38	46944.12
587.54	47103.28
587.70	46850.50
587.86	46855.18
588.02	46815.40
588.18	47079.88
588.34	46799.01
588.49	46370.69
588.65	45989.19
588.81	45982.16
588.97	46246.65
589.13	45883.86
589.29	46686.67
589.45	46389.42
589.61	46836.46
589.77	46789.65
589.93	46925.40
590.08	46841.14
590.24	46855.18
590.40	46733.48
590.56	47126.69
590.72	46892.63
590.88	46663.26
591.04	47126.69
591.20	47129.03
591.35	47004.98
591.51	47292.86
591.67	47173.50
591.83	46906.68
591.99	46806.03
592.15	46873.91
592.31	46855.18
592.46	46735.82
592.62	46990.94
592.78	47185.20
592.94	47173.50
593.10	47164.14
593.26	47330.31
593.41	46817.74
593.57	46855.18
593.73	47061.15
593.89	47016.68
594.05	46897.31
594.20	46990.94
594.36	47033.07
594.52	46777.95
594.68	46885.61
594.84	46946.47
594.99	47171.16
595.15	46948.81
595.31	47028.38
595.47	47360.74
595.62	47089.24
595.78	46848.16
595.94	46962.85
596.10	47105.62
596.25	47344.36
596.41	46969.87
596.57	47131.37
596.73	47295.21
596.88	46569.64
597.04	46887.95
597.20	46934.76
597.36	47447.34
597.51	47430.96
597.67	47360.74
597.83	47098.60
597.99	47285.84
598.14	47173.50
598.30	46883.27
598.46	46670.28
598.61	47138.39
598.77	46670.28
598.93	47079.88
599.09	47105.62
599.24	47700.12
599.40	47091.58
599.56	46983.91
599.71	46630.49
599.87	46981.57
600.03	46967.53
600.18	47136.05
600.34	47227.33
600.50	46791.99
600.65	46766.24
600.81	47398.19
600.97	47199.24
601.12	47234.35
601.28	46813.05
601.44	46883.27
601.59	47047.11
601.75	46525.17
601.91	46918.38
602.06	46876.25
602.22	47182.86
602.37	47072.85
602.53	46859.87
602.69	47271.80
602.84	46738.16
603.00	46976.89
603.16	46564.96
603.31	47489.47
603.47	47173.50
603.62	47217.97
603.78	47049.45
603.94	47131.37
604.09	47243.71
604.25	47126.69
604.40	46635.17
604.56	46660.92
604.71	46883.27
604.87	46391.76
605.03	46766.24
605.18	46541.55
605.34	46742.84
605.49	46326.22
605.65	46897.31
605.80	46581.34
605.96	46667.94
606.12	46752.20
606.27	46913.70
606.43	46810.71
606.58	47222.65
606.74	46256.01
606.89	46677.30
607.05	46775.61
607.20	46815.40
607.36	46904.34
607.51	46981.57
607.67	46515.81
607.82	46520.49
607.98	46609.43
608.13	46040.68
608.29	46445.59
608.44	46277.07
608.60	46188.13
608.75	46218.56
608.91	46405.80
609.06	46204.52
609.22	46494.74
609.37	46440.91
609.53	46801.35
609.68	46155.36
609.84	46007.91
609.99	46291.12
610.15	45942.38
610.30	46246.65
610.46	46061.74
610.61	46078.13
610.76	46440.91
610.92	46405.80
611.07	46541.55
611.23	46501.76
611.38	46433.89
611.54	45734.07
611.69	46050.04
611.84	45818.33
612.00	46199.83
612.15	46003.23
612.31	46251.33
612.46	45949.40
612.62	46274.73
612.77	46220.90
612.92	46754.54
613.08	45942.38
613.23	45989.19
613.39	45668.53
613.54	45724.71
613.69	45830.03
613.85	45617.04
614.00	45886.20
614.15	46124.94
614.31	46148.34
614.46	46312.18
614.62	46206.86
614.77	46068.76
614.92	46146.00
615.08	45354.90
615.23	45378.31
615.38	45462.57
615.54	45471.93
615.69	45933.01
615.84	45467.25
616.00	45380.65
616.15	45464.91
616.30	45567.89
616.46	45062.33
616.61	45151.27
616.76	45027.23
616.92	44690.19
617.07	45226.17
617.22	45095.10
617.37	45118.51
617.53	45256.60
617.68	45399.37
617.83	45015.52
617.99	45645.13
618.14	45333.84
618.29	45177.02
618.45	45219.15
618.60	45064.67
618.75	45303.41
618.90	45064.67
619.06	45165.32
619.21	45518.74
619.36	45385.33
619.51	45359.58
619.67	44811.90
619.82	45235.53
619.97	45399.37
620.12	45193.40
620.28	44589.55
620.43	44669.12
620.58	44928.92
620.73	44500.61
620.89	44996.80
621.04	45240.21
621.19	45001.48
621.34	44980.42
621.49	44683.17
621.65	44760.40
621.80	44437.41
621.95	44641.04
622.10	44404.64
622.25	44247.83
622.41	44332.09
622.56	44432.73
622.71	44708.91
622.86	44729.98
623.01	44495.92
623.16	44252.51
623.32	44399.96
623.47	44390.60
623.62	44067.61
623.77	43988.03
623.92	44275.91
624.07	44123.78
624.23	44397.62
624.38	44172.93
624.53	43966.96
624.68	44196.34
624.83	44109.74
624.98	44105.06
625.13	43438.00
625.29	44055.90
625.44	43611.20
625.59	43880.36
625.74	43409.92
625.89	44360.17
626.04	43634.61
626.19	43463.75
626.34	43564.39
626.49	44044.20
626.65	43903.77
626.80	43746.95
626.95	43566.73
627.10	43564.39
627.25	43545.67
627.40	43077.56
627.55	43166.50
627.70	42841.17
627.85	42986.28
628.00	43173.52
628.15	43421.62
628.30	42934.79
628.45	43143.09
628.60	43283.53
628.76	43335.02
628.91	43061.18
629.06	43681.42
629.21	42951.17
629.36	42974.58
629.51	43047.13
629.66	43330.34
629.81	43227.35
629.96	42866.91
630.11	42761.59
630.26	43342.04
630.41	43363.11
630.56	43075.22
630.71	42639.88
630.86	42834.14
631.01	42892.66
631.16	42438.59
631.31	42452.64
631.46	42192.84
631.61	42733.50
631.76	42295.82
631.91	42316.89
632.06	42529.87
632.21	43210.97
632.36	42876.27
632.51	42579.03
632.66	42728.82
632.81	42309.86
632.96	42429.23
633.10	42286.46
633.25	42773.29
633.40	42621.16
633.55	42740.52
633.70	42431.57
633.85	42178.79
634.00	41956.44
634.15	42382.42
634.30	42572.00
634.45	42183.48
634.60	42333.27
634.75	41811.33
634.90	42061.77
635.05	42209.22
635.19	42216.24
635.34	42080.49
635.49	42078.15
635.64	42087.51
635.79	41677.92
635.94	42040.70
636.09	42202.20
636.24	42146.03
636.39	41724.73
636.53	41759.84
636.68	41640.47
636.83	41408.76
636.98	41853.46
637.13	41549.19
637.28	41750.48
637.43	42155.39
637.57	42160.07
637.72	41846.44
637.87	41518.76
638.02	41588.98
638.17	41586.64
638.32	41303.43
638.46	41530.47
638.61	41305.77
638.76	41813.67
638.91	41635.79
639.06	41134.92
639.20	41631.11
639.35	41277.69
639.50	41586.64
639.65	41860.48
639.80	41298.75
639.94	41411.10
640.09	41329.18
640.24	40802.56
640.39	40840.01
640.54	40739.36
640.68	40926.61
640.83	41193.43
640.98	40692.55
641.13	41024.91
641.27	41048.32
641.42	40821.28
641.57	41139.60
641.72	40713.62
641.86	40715.96
642.01	40811.92
642.16	40407.01
642.31	40123.80
642.45	41170.02
642.60	40327.43
642.75	40479.57
642.90	40603.61
643.04	40678.51
643.19	40624.68
643.34	40755.75
643.48	40601.27
643.63	40535.74
643.78	40149.55
643.93	40250.19
644.07	40561.48
644.22	40465.52
644.37	40137.85
644.51	40179.98
644.66	40734.68
644.81	40456.16
644.95	40718.30
645.10	40247.85
645.25	40346.15
645.39	40568.51
645.54	40252.53
645.69	40282.96
645.83	40238.49
645.98	40119.12
646.13	40100.40
646.27	40119.12
646.42	39842.94
646.57	39803.15
646.71	40147.21
646.86	40414.03
647.00	39761.02
647.15	40060.61
647.30	39674.42
647.44	39732.93
647.59	40002.10
647.74	39693.15
647.88	39824.22
648.03	39587.82
648.17	39681.44
648.32	39697.83
648.47	39838.26
648.61	39756.34
648.76	39934.22
648.90	39480.16
649.05	39875.71
649.20	39662.72
649.34	39381.85
649.49	38918.43
649.63	39194.61
649.78	39555.05
649.92	39625.27
650.07	39522.29
650.21	39222.70
650.36	39220.36
650.51	39133.76
650.65	39531.65
650.80	39749.32
650.94	39381.85
651.09	39683.78
651.23	39297.59
651.38	39110.35
651.52	38979.28
651.67	38885.66
651.81	39194.61
651.96	39075.24
652.10	39058.86
652.25	38553.30
652.39	38888.00
652.54	39386.54
652.68	39241.42
652.83	39173.55
652.97	38892.68
653.12	38925.45
653.26	38703.10
653.41	38974.60
653.55	38157.75
653.70	37940.08
653.84	38485.43
653.99	38670.33
654.13	38522.88
654.27	38307.55
654.42	38614.16
654.56	38218.61
654.71	38366.06
654.85	38382.45
655.00	38623.52
655.14	38155.41
655.29	38115.62
655.43	38403.51
655.57	38277.12
655.72	38005.62
655.86	37439.21
656.01	37858.17
656.15	37944.76
656.30	37574.96
656.44	37993.92
656.58	37376.01
656.73	37617.09
656.87	37876.89
657.01	37694.33
657.16	37673.26
657.30	38103.92
657.45	37638.15
657.59	37855.82
657.73	37598.37
657.88	37972.85
658.02	37841.78
658.16	37860.51
658.31	37881.57
658.45	37450.91
658.60	37380.70
658.74	37516.45
658.88	37581.98
659.03	37717.73
659.17	37345.59
659.31	36947.70
659.46	37289.42
659.60	37818.38
659.74	37404.10
659.89	37546.87
660.03	37584.32
660.17	37031.96
660.32	36994.51
660.46	37298.78
660.60	37148.98
660.74	36704.28
660.89	37500.06
661.03	36980.46
661.17	37036.64
661.32	36662.15
661.46	36664.49
661.60	36767.48
661.74	36641.09
661.89	36641.09
662.03	36833.01
662.17	36507.68
662.31	36479.59
662.46	36950.04
662.60	37038.98
662.74	36624.70
662.88	36184.68
663.03	35999.78
663.17	35873.39
663.31	35526.99
663.45	36231.49
663.60	35901.48
663.74	36156.60
663.88	35931.90
664.02	36093.40
664.17	36271.28
664.31	35658.06
664.45	36135.53
664.59	36088.72
664.73	35754.02
664.88	35840.62
665.02	35260.17
665.16	35611.25
665.30	35768.07
665.44	35482.52
665.59	35346.77
665.73	35475.50
665.87	35012.07
666.01	34703.12
666.15	35047.18
666.29	35152.51
666.44	35227.40
666.58	34712.49
666.72	35241.45
666.86	35260.17
667.00	35342.09
667.14	34792.06
667.28	34536.94
667.43	34888.03
667.57	34857.60
667.71	34185.86
667.85	34993.35
667.99	34178.84
668.13	34852.92
668.27	34417.58
668.41	35063.57
668.56	34183.52
668.70	34452.69
668.84	34293.53
668.98	34080.54
669.12	33883.94
669.26	34160.12
669.40	33413.49
669.54	33766.91
669.68	33387.74
669.82	33757.55
669.96	33432.21
670.10	33579.67
670.25	33834.78
670.39	33766.91
670.53	33420.51
670.67	33151.35
670.81	33420.51
670.95	33607.75
671.09	33509.45
671.23	33092.83
671.37	33406.47
671.51	33153.69
671.65	33029.64
671.79	33046.02
671.93	32793.25
672.07	33146.67
672.21	33146.67
672.35	32802.61
672.49	32896.23
672.63	32332.16
672.77	32847.08
672.91	32554.51
673.05	32304.07
673.19	32140.24
673.33	32290.03
673.47	32048.96
673.61	31880.44
673.75	31704.90
673.89	31964.70
674.03	31777.45
674.17	31496.59
674.31	31732.98
674.45	31854.69
674.59	31456.80
674.73	31772.77
674.87	31735.32
675.01	31559.78
675.15	31456.80
675.29	31454.46
675.43	31311.69
675.56	31456.80
675.70	30979.33
675.84	31044.87
675.98	30106.31
676.12	31213.38
676.26	30637.61
676.40	30773.36
676.54	30679.74
676.68	30689.10
676.82	30022.05
676.96	30237.38
677.10	30551.01
677.23	30595.48
677.37	30462.07
677.51	29907.37
677.65	29916.73
677.79	29500.11
677.93	29788.00
678.07	29708.42
678.21	29556.28
678.34	29708.42
678.48	29090.52
678.62	29172.44
678.76	28819.02
678.90	28875.19
679.04	28776.89
679.18	28814.34
679.31	28606.03
679.45	28804.97
679.59	28451.55
679.73	28357.93
679.87	28350.91
680.00	28355.59
680.14	28261.97
680.28	28034.94
680.42	28112.17
680.56	28191.75
680.70	27838.33
680.83	28128.56
680.97	27761.09
681.11	28044.30
681.25	27594.92
681.39	27770.46
681.52	27672.15
681.66	27173.62
681.80	27723.65
681.94	27063.61
682.07	27328.10
682.21	27215.75
682.35	26700.83
682.49	27105.74
682.62	26714.87
682.76	26948.93
682.90	26389.54
683.04	26532.31
683.17	26075.91
683.31	26345.07
683.45	26253.79
683.59	26274.85
683.72	26270.17
683.86	25661.63
684.00	25699.08
684.13	26003.35
684.27	25724.83
684.41	25593.76
684.55	25481.41
684.68	25687.38
684.82	25516.52
684.96	25474.39
685.09	25401.83
685.23	25364.39
685.37	25228.63
685.50	25357.36
685.64	24884.58
685.78	24833.08
685.91	24498.39
686.05	24671.59
686.19	24271.36
686.32	24467.96
686.46	23875.80
686.60	23770.48
686.73	23562.17
686.87	23396.00
687.01	23491.96
687.14	23157.26
687.28	23360.89
687.42	23377.27
687.55	23030.87
687.69	23576.22
687.82	23229.82
687.96	23456.85
688.10	23082.36
688.23	23056.62
688.37	22757.03
688.50	22689.15
688.64	22827.24
688.78	22827.24
688.91	22721.92
689.05	22757.03
689.18	22534.68
689.32	22024.44
689.46	22162.53
689.59	22155.51
689.73	22689.15
689.86	22127.42
690.00	22104.02
690.13	22178.92
690.27	21898.05
690.41	21928.48
690.54	21633.57
690.68	21469.73
690.81	21579.74
690.95	21472.07
691.08	21338.66
691.22	21411.22
691.35	21120.99
691.49	21490.80
691.62	21308.24
691.76	21083.55
691.89	20919.71
692.03	20812.04
692.16	20683.31
692.30	20835.45
692.43	20460.96
692.57	20496.07
692.70	20531.18
692.84	20379.04
692.97	20458.62
693.11	20140.31
693.24	20156.69
693.38	20140.31
693.51	19740.08
693.65	20126.27
693.78	19784.55
693.92	19775.19
694.05	19840.72
694.19	19513.05
694.32	19669.86
694.45	19325.80
694.59	19147.92
694.72	19000.47
694.86	19204.10
694.99	19206.44
695.13	18757.05
695.26	18965.36
695.39	18618.96
695.53	18808.54
695.66	18895.14
695.80	18689.18
695.93	18789.82
696.07	18396.61
696.20	18321.71
696.33	18640.03
696.47	18380.23
696.60	18583.85
696.73	17998.72
696.87	18195.32
697.00	18197.67
697.14	17818.50
697.27	17844.24
697.40	17909.78
697.54	17582.10
697.67	17804.46
697.80	17514.23
697.94	17308.26
698.07	17224.00
698.21	17280.18
698.34	17214.64
698.47	17280.18
698.61	16915.05
698.74	16957.18
698.87	16884.62
699.01	16659.93
699.14	16681.00
699.27	16711.42
699.40	16540.57
699.54	16601.42
699.67	16460.99
699.80	16552.27
699.94	16418.86
700.07	16540.57
700.20	16423.54
700.34	16053.73
700.47	16217.57
700.60	16294.81
700.73	16299.49
700.87	16086.50
701.00	15903.94
701.13	16006.92
701.26	15704.99
701.40	15578.61
701.53	15367.96
701.66	15499.03
701.79	15199.44
701.93	15356.25
702.06	15215.82
702.19	15091.77
702.32	15119.86
702.46	14958.36
702.59	14909.21
702.72	15082.41
702.85	14991.13
702.99	15035.60
703.12	14878.79
703.25	14569.83
703.38	14728.99
703.51	14663.46
703.65	14436.42
703.78	14394.29
703.91	14424.72
704.04	14424.72
704.17	14422.38
704.31	14078.32
704.44	14171.94
704.57	13940.23
704.70	14146.20
704.83	13809.16
704.96	13942.57
705.10	14008.11
705.23	13947.25
>>>>>End Processed Spectral Data<<<<<
