SpectraSuite Data File
++++++++++++++++++++++++++++++++++++
Date: Fri Oct 25 10:44:45 EDT 2013
User: price-jones
Dark Spectrum Present: No
Reference Spectrum Present: No
Number of Sampled Component Spectra: 1
Spectrometers: USB2+H05261
Integration Time (usec): 100000 (USB2+H05261)
Spectra Averaged: 1 (USB2+H05261)
Boxcar Smoothing: 0 (USB2+H05261)
Correct for Electrical Dark: No (USB2+H05261)
Strobe/Lamp Enabled: No (USB2+H05261)
Correct for Detector Non-linearity: No (USB2+H05261)
Correct for Stray Light: No (USB2+H05261)
Number of Pixels in Processed Spectrum: 2048
>>>>>Begin Processed Spectral Data<<<<<
365.73	112.35
365.92	112.35
366.12	112.35
366.32	60.85
366.52	9.36
366.72	81.92
366.91	11.70
367.11	0.00
367.31	0.00
367.51	60.85
367.70	11.70
367.90	21.06
368.10	0.00
368.30	44.47
368.49	21.06
368.69	102.98
368.89	70.22
369.09	93.62
369.28	0.00
369.48	98.30
369.68	114.69
369.87	44.47
370.07	98.30
370.27	159.16
370.47	201.29
370.66	409.59
370.86	418.96
371.06	521.94
371.25	500.87
371.45	454.06
371.65	416.62
371.84	444.70
372.04	472.79
372.24	489.17
372.44	409.59
372.63	575.77
372.83	507.90
373.03	433.00
373.22	533.64
373.42	535.98
373.62	526.62
373.81	512.58
374.01	470.45
374.21	524.28
374.40	468.11
374.60	503.22
374.79	617.90
374.99	564.07
375.19	512.58
375.38	571.09
375.58	641.31
375.78	557.05
375.97	580.45
376.17	653.01
376.37	580.45
376.56	559.39
376.76	613.22
376.95	573.43
377.15	575.77
377.35	610.88
377.54	601.52
377.74	624.92
377.93	552.37
378.13	613.22
378.33	564.07
378.52	613.22
378.72	603.86
378.91	636.63
379.11	566.41
379.31	564.07
379.50	660.03
379.70	667.05
379.89	629.60
380.09	674.07
380.28	664.71
380.48	650.67
380.68	655.35
380.87	608.54
381.07	648.33
381.26	711.52
381.46	716.20
381.65	664.71
381.85	671.73
382.04	601.52
382.24	617.90
382.43	585.13
382.63	699.82
382.83	660.03
383.02	737.27
383.22	638.97
383.41	713.86
383.61	699.82
383.80	753.65
384.00	706.84
384.19	753.65
384.39	709.18
384.58	779.40
384.78	760.67
384.97	795.78
385.17	727.91
385.36	699.82
385.56	692.80
385.75	716.20
385.95	739.61
386.14	770.04
386.34	725.57
386.53	662.37
386.72	828.55
386.92	809.83
387.11	884.72
387.31	833.23
387.50	695.14
387.70	842.59
387.89	847.27
388.09	786.42
388.28	849.61
388.48	753.65
388.67	851.96
388.86	915.15
389.06	851.96
389.25	854.30
389.45	894.08
389.64	884.72
389.84	924.51
390.03	863.66
390.22	901.11
390.42	924.51
390.61	964.30
390.81	954.94
391.00	940.90
391.19	896.43
391.39	908.13
391.58	987.71
391.78	903.45
391.97	954.94
392.16	947.92
392.36	978.34
392.55	957.28
392.75	1001.75
392.94	938.55
393.13	929.19
393.33	952.60
393.52	1027.50
393.71	1034.52
393.91	994.73
394.10	1081.33
394.29	1025.15
394.49	1001.75
394.68	1214.74
394.88	1088.35
395.07	1179.63
395.26	1174.95
395.46	1156.22
395.65	1174.95
395.84	1055.58
396.04	1196.01
396.23	1121.12
396.42	1153.88
396.62	1109.41
396.81	1153.88
397.00	1153.88
397.19	1114.10
397.39	1196.01
397.58	1273.25
397.77	1149.20
397.97	1249.85
398.16	1284.95
398.35	1313.04
398.55	1310.70
398.74	1266.23
398.93	1441.77
399.12	1240.48
399.32	1331.76
399.51	1322.40
399.70	1406.66
399.90	1401.98
400.09	1362.19
400.28	1390.28
400.47	1490.92
400.67	1448.79
400.86	1460.49
401.05	1350.49
401.24	1465.18
401.44	1535.39
401.63	1500.28
401.82	1533.05
402.01	1540.07
402.21	1481.56
402.40	1577.52
402.59	1629.01
402.78	1530.71
402.97	1640.72
403.17	1589.22
403.36	1652.42
403.55	1666.46
403.74	1710.93
403.93	1701.57
404.13	1755.40
404.32	1638.38
404.51	1750.72
404.70	1760.08
404.89	1715.61
405.09	1853.70
405.28	1762.42
405.47	1781.15
405.66	1743.70
405.85	1818.60
406.05	1858.39
406.24	1795.19
406.43	1851.36
406.62	1816.26
406.81	1795.19
407.00	1874.77
407.20	1764.76
407.39	1839.66
407.58	1888.81
407.77	1935.62
407.96	1935.62
408.15	1926.26
408.34	2047.97
408.54	1973.07
408.73	1898.17
408.92	2050.31
409.11	2064.35
409.30	1987.11
409.49	2134.57
409.68	1989.46
409.87	2113.50
410.07	2097.12
410.26	2165.00
410.45	2080.74
410.64	2064.35
410.83	2186.06
411.02	2221.17
411.21	2296.07
411.40	2314.79
411.59	2356.92
411.78	2284.36
411.98	2434.16
412.17	2312.45
412.36	2347.56
412.55	2363.94
412.74	2518.42
412.93	2558.21
413.12	2487.99
413.31	2569.91
413.50	2480.97
413.69	2555.86
413.88	2665.87
414.07	2612.04
414.26	2670.55
414.45	2647.15
414.64	2682.25
414.83	2764.17
415.02	2778.22
415.22	2717.36
415.41	2834.39
415.60	2871.84
415.79	2672.89
415.98	2902.26
416.17	2827.37
416.36	2963.12
416.55	2935.03
416.74	2935.03
416.93	3033.33
417.12	2991.20
417.31	2981.84
417.50	2937.37
417.69	3073.12
417.88	3047.38
418.07	3028.65
418.26	3056.74
418.45	3122.27
418.64	3368.03
418.83	3215.90
419.02	3262.71
419.21	3222.92
419.39	3155.04
419.58	3339.94
419.77	3274.41
419.96	3356.33
420.15	3363.35
420.34	3358.67
420.53	3300.16
420.72	3379.73
420.91	3482.72
421.10	3545.91
421.29	3562.30
421.48	3412.50
421.67	3527.19
421.86	3433.57
422.05	3384.41
422.24	3520.17
422.43	3559.95
422.61	3545.91
422.80	3576.34
422.99	3531.87
423.18	3620.81
423.37	3559.95
423.56	3454.63
423.75	3583.36
423.94	3571.66
424.13	3393.78
424.32	3384.41
424.50	3627.83
424.69	3714.43
424.88	3672.30
425.07	3382.07
425.26	3550.59
425.45	3459.31
425.64	3487.40
425.83	3632.51
426.01	3723.79
426.20	3660.60
426.39	3702.73
426.58	3620.81
426.77	3667.62
426.96	3674.64
427.15	3763.58
427.33	3681.66
427.52	3775.28
427.71	3733.15
427.90	3911.04
428.09	3761.24
428.28	3824.44
428.46	3721.45
428.65	3695.71
428.84	3836.14
429.03	3962.53
429.22	3871.25
429.40	3709.75
429.59	4004.66
429.78	3562.30
429.97	3796.35
430.16	3681.66
430.34	3866.56
430.53	3925.08
430.72	3960.19
430.91	3929.76
431.10	3845.50
431.28	4166.15
431.47	4105.30
431.66	4222.33
431.85	4117.00
432.03	4287.86
432.22	4229.35
432.41	4245.73
432.60	4266.80
432.79	4208.28
432.97	4332.33
433.16	4344.03
433.35	4344.03
433.54	4332.33
433.72	4208.28
433.91	4231.69
434.10	4449.36
434.28	4290.20
434.47	4411.91
434.66	4423.61
434.85	4571.07
435.03	4458.72
435.22	4667.03
435.41	4634.26
435.59	4559.36
435.78	4519.57
435.97	4688.09
436.16	4592.13
436.34	4540.64
436.53	4741.93
436.72	4779.37
436.90	4629.58
437.09	4676.39
437.28	4702.14
437.46	4688.09
437.65	4830.87
437.84	4697.46
438.02	4648.30
438.21	4816.82
438.40	4727.88
438.58	4814.48
438.77	5018.11
438.96	4830.87
439.14	5177.26
439.33	5226.42
439.52	5039.17
439.70	5034.49
439.89	5214.71
440.08	5172.58
440.26	5226.42
440.45	5408.98
440.63	5322.38
440.82	5329.40
441.01	5359.83
441.19	5444.09
441.38	5591.54
441.57	5701.54
441.75	5673.46
441.94	5654.73
442.12	5762.40
442.31	5734.31
442.50	5708.57
442.68	5898.15
442.87	5830.27
443.05	5741.33
443.24	5870.06
443.43	5900.49
443.61	5984.75
443.80	5947.30
443.98	5762.40
444.17	5764.74
444.35	5916.87
444.54	6092.41
444.73	5823.25
444.91	5898.15
445.10	5769.42
445.28	5818.57
445.47	5799.85
445.65	5849.00
445.84	5907.51
446.02	5998.79
446.21	6054.97
446.39	5849.00
446.58	6143.91
446.77	6108.80
446.95	5902.83
447.14	5977.73
447.32	6221.14
447.51	5914.53
447.69	6078.37
447.88	6150.93
448.06	6150.93
448.25	5940.28
448.43	5980.07
448.62	6111.14
448.80	6045.60
448.99	6160.29
449.17	6235.19
449.36	6225.82
449.54	6317.11
449.73	6253.91
449.91	6450.52
450.10	6335.83
450.28	6562.86
450.46	6619.04
450.65	6511.37
450.83	6593.29
451.02	6546.48
451.20	6640.10
451.39	6595.63
451.57	6532.44
451.76	6602.65
451.94	6494.99
452.13	6588.61
452.31	6473.92
452.49	6555.84
452.68	6593.29
452.86	6480.94
453.05	6576.91
453.23	6787.55
453.42	6635.42
453.60	6670.53
453.78	6644.78
453.97	6654.14
454.15	6808.62
454.34	6785.21
454.52	6841.39
454.70	6815.64
454.89	6829.68
455.07	7087.14
455.26	7005.22
455.44	7040.33
455.62	6967.77
455.81	7047.35
455.99	7009.90
456.17	7045.01
456.36	7283.75
456.54	7253.32
456.73	7452.27
456.91	7442.90
457.09	7377.37
457.28	7440.56
457.46	7236.94
457.64	7363.33
457.83	7321.20
458.01	7243.96
458.19	7765.90
458.38	7515.46
458.56	7698.02
458.74	7360.98
458.93	7602.06
459.11	7784.62
459.29	7524.82
459.48	7588.02
459.66	7644.19
459.84	7683.98
460.03	7702.70
460.21	7798.66
460.39	7857.18
460.57	7639.51
460.76	7882.92
460.94	7754.19
461.12	7880.58
461.31	7765.90
461.49	7948.46
461.67	7763.56
461.85	8030.38
462.04	7915.69
462.22	8177.83
462.40	8009.31
462.59	8128.68
462.77	8058.46
462.95	7901.65
463.13	8187.19
463.32	8154.43
463.50	8079.53
463.68	8325.29
463.86	8238.69
464.05	8205.92
464.23	8379.12
464.41	8266.77
464.59	8102.93
464.78	8491.46
464.96	8189.53
465.14	8477.42
465.32	8381.46
465.50	8477.42
465.69	8514.87
465.87	8435.29
466.05	8421.25
466.23	8456.36
466.41	8409.54
466.60	8809.78
466.78	8425.93
466.96	8552.32
467.14	8542.96
467.32	8648.28
467.51	8636.58
467.69	8461.04
467.87	8475.08
468.05	8685.73
468.23	8758.28
468.41	8648.28
468.60	8779.35
468.78	8765.31
468.96	8652.96
469.14	8919.78
469.32	9095.32
469.50	8699.77
469.69	9252.14
469.87	8994.68
470.05	9067.24
470.23	9078.94
470.41	9013.40
470.59	9193.62
470.77	9228.73
470.95	9018.08
471.14	9158.52
471.32	9050.85
471.50	9277.88
471.68	9453.42
471.86	9261.50
472.04	9338.74
472.22	9533.00
472.40	9317.67
472.58	9563.43
472.77	9612.58
472.95	9650.03
473.13	9900.47
473.31	9769.40
473.49	9671.09
473.67	9745.99
473.85	9989.41
474.03	10106.43
474.21	10076.01
474.39	10363.89
474.57	10111.11
474.75	10466.88
474.93	10246.87
475.12	10403.68
475.30	10539.43
475.48	10317.08
475.66	10321.76
475.84	10478.58
476.02	10527.73
476.20	10513.69
476.38	10609.65
476.56	11033.29
476.74	10843.70
476.92	10881.15
477.10	10834.34
477.28	11248.61
477.46	11265.00
477.64	11178.40
477.82	11370.32
478.00	11492.03
478.18	11599.70
478.36	11414.79
478.54	11791.62
478.72	11672.25
478.90	11899.28
479.08	12109.93
479.26	12039.72
479.44	12116.95
479.62	12276.11
479.80	12231.64
479.98	12285.47
480.16	12662.30
480.34	12573.36
480.52	12648.26
480.70	12702.09
480.88	12540.59
481.06	12671.66
481.24	12865.92
481.41	13078.91
481.59	13214.66
481.77	13245.09
481.95	13165.51
482.13	13420.63
482.31	13448.72
482.49	13664.05
482.67	13504.89
482.85	13762.35
483.03	14047.90
483.21	14075.98
483.39	14001.08
483.57	14211.73
483.74	14675.16
483.92	14551.11
484.10	14394.29
484.28	14434.08
484.46	14754.74
484.64	15070.71
484.82	14960.70
485.00	15218.16
485.18	15295.40
485.35	15145.61
485.53	15061.35
485.71	14855.38
485.89	15543.50
486.07	15159.65
486.25	15389.02
486.43	15730.74
486.61	15866.49
486.78	15981.18
486.96	16252.68
487.14	16519.50
487.32	16334.60
487.50	16669.30
487.68	17011.01
487.85	17034.42
488.03	17158.47
488.21	17170.17
488.39	17053.14
488.57	17413.59
488.75	17343.37
488.92	17572.74
489.10	18050.21
489.28	17783.39
489.46	17900.42
489.64	18310.01
489.81	18403.63
489.99	18597.90
490.17	18684.50
490.35	18827.27
490.53	18635.35
490.70	19089.41
490.88	19166.65
491.06	19510.71
491.24	19194.73
491.41	19311.76
491.59	19445.17
491.77	19389.00
491.95	19524.75
492.13	19566.88
492.30	20336.91
492.48	20196.48
492.66	20180.10
492.84	20269.04
493.01	20479.69
493.19	20119.24
493.37	20805.02
493.54	20496.07
493.72	21106.95
493.90	20980.56
494.08	20908.01
494.25	21177.17
494.43	21451.01
494.61	21525.91
494.79	21820.81
494.96	21563.36
495.14	21809.11
495.32	21855.92
495.49	21991.67
495.67	21958.91
495.85	22005.72
496.02	22693.83
496.20	22848.31
496.38	22635.32
496.55	22670.43
496.73	23325.78
496.91	23096.41
497.09	23309.40
497.26	23274.29
497.44	23777.50
497.62	23117.47
497.79	23786.86
497.97	23250.88
498.14	23782.18
498.32	23838.36
498.50	23871.12
498.67	24245.61
498.85	24126.24
499.03	23967.09
499.20	24379.02
499.38	24524.13
499.56	24559.24
499.73	24386.04
499.91	24372.00
500.08	24702.01
500.26	24528.81
500.44	24931.39
500.61	24809.68
500.79	24884.58
500.97	25223.95
501.14	25378.43
501.32	25422.90
501.49	25343.32
501.67	25411.20
501.84	25797.38
502.02	25273.10
502.20	26150.81
502.37	26270.17
502.55	25986.97
502.72	26043.14
502.90	26401.24
503.07	26260.81
503.25	26345.07
503.43	26188.25
503.60	26389.54
503.78	26244.43
503.95	26132.08
504.13	26590.83
504.30	27068.30
504.48	26663.38
504.65	26494.86
504.83	26960.63
505.01	27461.51
505.18	26958.29
505.36	27292.99
505.53	27543.42
505.71	27424.06
505.88	27351.50
506.06	27438.10
506.23	27922.59
506.41	27709.60
506.58	27775.14
506.76	28126.22
506.93	28084.09
507.11	27964.72
507.28	28456.23
507.46	27981.10
507.63	27889.82
507.81	28308.78
507.98	27960.04
508.16	28381.34
508.33	28662.20
508.50	28573.26
508.68	28570.92
508.85	29230.95
509.03	29039.03
509.20	29032.00
509.38	29385.43
509.55	29242.65
509.73	29198.18
509.90	29142.01
510.08	29362.02
510.25	29661.61
510.42	29923.75
510.60	29614.80
510.77	29701.40
510.95	30082.91
511.12	30047.80
511.30	29865.24
511.47	30424.62
511.64	30293.55
511.82	30293.55
511.99	30108.65
512.17	30059.50
512.34	29909.71
512.51	30412.92
512.69	30712.51
512.86	30677.40
513.04	30756.98
513.21	30838.90
513.38	30874.01
513.56	30794.43
513.73	30834.22
513.90	30745.28
514.08	30817.83
514.25	31019.12
514.43	31402.97
514.60	31405.31
514.77	31566.81
514.95	31910.86
515.12	31433.39
515.29	31173.60
515.47	32004.49
515.64	32116.83
515.81	31702.56
515.99	31578.51
516.16	31833.63
516.33	31941.29
516.51	31484.89
516.68	31299.98
516.85	31903.84
517.03	31847.67
517.20	32013.85
517.37	32575.58
517.54	32519.40
517.72	32229.18
517.89	32013.85
518.06	31990.44
518.24	31971.72
518.41	32393.01
518.58	32641.11
518.75	32329.82
518.93	32907.93
519.10	32966.45
519.27	32671.54
519.45	32926.66
519.62	33212.20
519.79	33041.34
519.96	33305.82
520.14	33706.05
520.31	33289.44
520.48	33881.60
520.65	33715.42
520.83	33895.64
521.00	33869.89
521.17	33827.76
521.34	33972.88
521.52	34080.54
521.69	33935.43
521.86	34389.49
522.03	34586.10
522.20	34408.22
522.38	34651.63
522.55	34562.69
522.72	34024.37
522.89	34637.59
523.07	34558.01
523.24	34274.80
523.41	34483.11
523.58	34838.87
523.75	35211.02
523.92	34841.21
524.10	35026.12
524.27	35232.08
524.44	35573.80
524.61	35124.42
524.78	35604.23
524.96	35721.26
525.13	35613.59
525.30	35747.00
525.47	35702.53
525.64	35559.76
525.81	35405.28
525.98	35702.53
526.16	35487.20
526.33	35597.21
526.50	35915.52
526.67	35257.83
526.84	35739.98
527.01	35573.80
527.18	35718.92
527.36	36250.22
527.53	36556.83
527.70	36744.07
527.87	36339.16
528.04	36292.35
528.21	36730.03
528.38	36247.88
528.55	36481.93
528.72	36788.54
528.89	36842.37
529.07	36257.24
529.24	36545.12
529.41	36669.17
529.58	36694.92
529.75	36453.84
529.92	36947.70
530.09	37050.68
530.26	37017.91
530.43	37294.10
530.60	37411.12
530.77	37029.62
530.94	37214.52
531.11	37223.88
531.28	37514.11
531.46	37263.67
531.63	37469.64
531.80	37179.41
531.97	37315.16
532.14	37303.46
532.31	37294.10
532.48	37467.30
532.65	38000.94
532.82	37823.06
532.99	38038.39
533.16	37558.58
533.33	38195.20
533.50	38024.34
533.67	37963.49
533.84	37773.91
534.01	37921.36
534.18	37567.94
534.35	38092.22
534.52	38232.65
534.69	38389.47
534.86	38740.55
535.03	38426.92
535.20	38153.07
535.37	38693.74
535.54	39112.69
535.71	38508.83
535.88	38469.04
536.05	38202.22
536.22	38857.57
536.38	38719.48
536.55	38625.86
536.72	38565.01
536.89	38623.52
537.06	38286.48
537.23	39068.22
537.40	39192.27
537.57	38679.69
537.74	39098.65
537.91	39445.05
538.08	39157.16
538.25	39269.51
538.42	39157.16
538.59	39014.39
538.75	38820.13
538.92	39133.76
539.09	39185.25
539.26	39655.70
539.43	39281.21
539.60	39524.63
539.77	39182.91
539.94	39466.11
540.11	39353.77
540.28	39966.99
540.44	39798.47
540.61	39536.33
540.78	39821.87
540.95	39533.99
541.12	39782.09
541.29	39548.03
541.46	40217.43
541.62	40275.94
541.79	40414.03
541.96	39697.83
542.13	40161.25
542.30	39765.70
542.47	40102.74
542.63	39889.75
542.80	40362.54
542.97	40636.38
543.14	40849.37
543.31	40535.74
543.48	40713.62
543.64	41022.57
543.81	41155.98
543.98	40460.84
544.15	40758.09
544.32	41181.73
544.48	41081.08
544.65	40594.25
544.82	40708.94
544.99	41036.61
545.16	40825.96
545.32	40800.22
545.49	41532.81
545.66	41457.91
545.83	41275.35
546.00	41766.86
546.16	41666.22
546.33	40975.76
546.50	41347.90
546.67	41408.76
546.83	41109.17
547.00	41148.96
547.17	41600.68
547.34	41621.75
547.50	41310.46
547.67	41738.77
547.84	41752.82
548.00	41764.52
548.17	41977.51
548.34	41626.43
548.51	41937.72
548.67	41909.63
548.84	41860.48
549.01	41675.58
549.18	41652.17
549.34	42019.64
549.51	41654.51
549.68	42223.26
549.84	42103.90
550.01	42412.85
550.18	42157.73
550.34	41755.16
550.51	42197.52
550.68	42363.70
550.84	41542.17
551.01	42064.11
551.18	41691.96
551.34	42043.04
551.51	42216.24
551.68	42564.98
551.84	42089.85
552.01	42050.06
552.18	42122.62
552.34	42220.92
552.51	42494.77
552.68	42693.71
552.84	42806.06
553.01	42873.93
553.18	42499.45
553.34	42583.71
553.51	42143.69
553.67	42932.45
553.84	42714.78
554.01	42909.04
554.17	42920.74
554.34	42890.32
554.51	42770.95
554.67	42890.32
554.84	43276.51
555.00	43033.09
555.17	42920.74
555.33	43021.39
555.50	42962.87
555.67	42848.19
555.83	42806.06
556.00	42890.32
556.16	43232.04
556.33	42857.55
556.50	43007.34
556.66	43360.76
556.83	42780.31
556.99	43442.68
557.16	43246.08
557.32	43346.72
557.49	43379.49
557.65	43058.84
557.82	43098.62
557.98	42927.77
558.15	43398.21
558.32	43330.34
558.48	43152.46
558.65	43316.29
558.81	43189.91
558.98	43510.56
559.14	43302.25
559.31	43398.21
559.47	43288.21
559.64	43676.74
559.80	43704.82
559.97	43770.36
560.13	43452.05
560.30	43084.58
560.46	43398.21
560.63	43484.81
560.79	44011.43
560.96	44243.15
561.12	43775.04
561.29	43615.88
561.45	43653.33
561.61	43751.63
561.78	43409.92
561.94	43622.90
562.11	43632.27
562.27	43821.85
562.44	43697.80
562.60	43814.83
562.77	43735.25
562.93	43594.82
563.10	44208.04
563.26	43746.95
563.42	43606.52
563.59	43852.28
563.75	43901.43
563.92	44292.30
564.08	44126.12
564.24	43924.83
564.41	43943.56
564.57	43583.12
564.74	44088.67
564.90	43838.23
565.07	44083.99
565.23	44009.09
565.39	44034.84
565.56	43889.73
565.72	43810.15
565.88	44385.92
566.05	44058.24
566.21	43856.96
566.38	43910.79
566.54	44233.78
566.70	43908.45
566.87	44135.48
567.03	44112.08
567.19	44760.40
567.36	44353.15
567.52	44334.43
567.68	44545.08
567.85	44079.31
568.01	44222.08
568.17	44034.84
568.34	43964.62
568.50	44446.77
568.66	43992.71
568.83	43906.11
568.99	44032.50
569.15	43988.03
569.32	43868.66
569.48	43632.27
569.64	44383.58
569.81	44528.69
569.97	44425.71
570.13	44488.90
570.30	44224.42
570.46	44229.10
570.62	44074.63
570.78	43917.81
570.95	44114.42
571.11	44318.04
571.27	43892.07
571.43	44304.00
571.60	44250.17
571.76	44126.12
571.92	44381.24
572.09	44112.08
572.25	44226.76
572.41	43718.87
572.57	44514.65
572.74	45010.84
572.90	44531.03
573.06	44512.31
573.22	44182.29
573.38	44652.74
573.55	44540.39
573.71	44414.01
573.87	44158.89
574.03	44189.31
574.20	44685.51
574.36	44460.82
574.52	44774.45
574.68	44364.85
574.84	44884.45
575.01	44423.37
575.17	44727.64
575.33	44261.87
575.49	44477.20
575.65	44481.88
575.82	44346.13
575.98	44357.83
576.14	44641.04
576.30	44751.04
576.46	44781.47
576.62	44570.82
576.79	44261.87
576.95	44486.56
577.11	44516.99
577.27	44580.18
577.43	44474.86
577.59	44729.98
577.75	44521.67
577.92	44072.29
578.08	44486.56
578.24	44390.60
578.40	44421.03
578.56	44477.20
578.72	44435.07
578.88	44318.04
579.04	44683.17
579.21	44524.01
579.37	44631.68
579.53	44854.03
579.69	44346.13
579.85	44500.61
580.01	44538.05
580.17	44306.34
580.33	44671.46
580.49	44783.81
580.65	44500.61
580.82	44512.31
580.98	44327.41
581.14	44222.08
581.30	44727.64
581.46	44767.43
581.62	45251.92
581.78	44498.26
581.94	44933.60
582.10	44219.74
582.26	44896.16
582.42	44186.97
582.58	44816.58
582.74	44861.05
582.90	44624.65
583.06	44631.68
583.22	45301.07
583.38	45139.57
583.54	44940.63
583.70	44928.92
583.86	45031.91
584.02	44683.17
584.18	44772.11
584.34	44610.61
584.50	44505.29
584.66	44444.43
584.82	44371.88
584.98	45029.57
585.14	45043.61
585.30	44273.57
585.46	44650.40
585.62	44605.93
585.78	44781.47
585.94	44669.12
586.10	44561.46
586.26	44442.09
586.42	44854.03
586.58	45003.82
586.74	44825.94
586.90	44385.92
587.06	44566.14
587.22	44687.85
587.38	44179.95
587.54	44622.31
587.70	44875.09
587.86	45202.77
588.02	44467.84
588.18	44554.44
588.34	44657.42
588.49	44219.74
588.65	44116.76
588.81	44353.15
588.97	44739.34
589.13	44245.49
589.29	44296.98
589.45	44521.67
589.61	44573.16
589.77	45158.30
589.93	44666.78
590.08	44788.49
590.24	44870.41
590.40	44828.28
590.56	44741.68
590.72	44994.46
590.88	44942.97
591.04	45048.29
591.20	45584.27
591.35	45010.84
591.51	45333.84
591.67	45495.33
591.83	44989.78
591.99	44786.15
592.15	44732.32
592.31	45022.54
592.46	44978.07
592.62	45055.31
592.78	45345.54
592.94	45013.18
593.10	44942.97
593.26	45106.80
593.41	44875.09
593.57	44638.70
593.73	44797.85
593.89	45134.89
594.05	45216.81
594.20	44430.39
594.36	45305.75
594.52	44788.49
594.68	44947.65
594.84	44842.32
594.99	45191.06
595.15	44985.10
595.31	45116.17
595.47	44744.02
595.62	45301.07
595.78	44971.05
595.94	45303.41
596.10	45340.86
596.25	45198.09
596.41	45298.73
596.57	45170.00
596.73	45010.84
596.88	44720.62
597.04	45067.02
597.20	44996.80
597.36	45200.43
597.51	45319.79
597.67	45141.91
597.83	45034.25
597.99	45343.20
598.14	45322.13
598.30	44907.86
598.46	44715.93
598.61	44919.56
598.77	44622.31
598.93	45095.10
599.09	45050.63
599.24	45408.73
599.40	45233.19
599.56	45148.93
599.71	44957.01
599.87	45394.69
600.03	45120.85
600.18	45432.14
600.34	45198.09
600.50	45059.99
600.65	45008.50
600.81	45347.88
600.97	45366.60
601.12	45251.92
601.28	45539.80
601.44	44999.14
601.59	44884.45
601.75	44648.06
601.91	45041.27
602.06	44942.97
602.22	45188.72
602.37	44935.95
602.53	45104.46
602.69	45811.31
602.84	45078.72
603.00	45170.00
603.16	44980.42
603.31	44999.14
603.47	44762.75
603.62	45036.59
603.78	44982.76
603.94	45071.70
604.09	45317.45
604.25	45153.62
604.40	44725.30
604.56	44837.64
604.71	45031.91
604.87	44795.51
605.03	45111.49
605.18	44467.84
605.34	45013.18
605.49	44722.96
605.65	45411.07
605.80	45008.50
605.96	45244.90
606.12	45155.96
606.27	45364.26
606.43	44659.76
606.58	45036.59
606.74	44617.63
606.89	44856.37
607.05	45078.72
607.20	44804.88
607.36	44664.44
607.51	45092.76
607.67	44985.10
607.82	44502.95
607.98	44980.42
608.13	44655.08
608.29	44516.99
608.44	44559.12
608.60	44273.57
608.75	44491.24
608.91	44495.92
609.06	44240.81
609.22	44629.34
609.37	44479.54
609.53	44428.05
609.68	44561.46
609.84	44816.58
609.99	44566.14
610.15	44465.50
610.30	44191.65
610.46	44315.70
610.61	44568.48
610.76	44751.04
610.92	44435.07
611.07	44364.85
611.23	44158.89
611.38	44662.10
611.54	44479.54
611.69	44706.57
611.84	43892.07
612.00	44236.12
612.15	43882.70
612.31	44371.88
612.46	44041.86
612.62	44437.41
612.77	44219.74
612.92	44435.07
613.08	44135.48
613.23	43833.55
613.39	44254.85
613.54	44034.84
613.69	44278.25
613.85	43981.01
614.00	44390.60
614.15	44189.31
614.31	44762.75
614.46	44376.56
614.62	44268.89
614.77	44315.70
614.92	44128.46
615.08	43990.37
615.23	43679.08
615.38	43627.59
615.54	43611.20
615.69	43337.36
615.84	43709.50
616.00	43931.86
616.15	43580.78
616.30	44051.22
616.46	43817.17
616.61	43672.06
616.76	43309.27
616.92	43082.24
617.07	43732.91
617.22	43047.13
617.37	43199.27
617.53	43515.24
617.68	43831.21
617.83	43599.50
617.99	43964.62
618.14	43739.93
618.29	43592.48
618.45	43360.76
618.60	43545.67
618.75	43580.78
618.90	43398.21
619.06	43512.90
619.21	43646.31
619.36	43548.01
619.51	43449.70
619.67	43110.33
619.82	43749.29
619.97	43180.54
620.12	43208.63
620.28	43117.35
620.43	42965.21
620.58	43005.00
620.73	43269.48
620.89	43288.21
621.04	43157.14
621.19	42557.96
621.34	42852.87
621.49	43040.11
621.65	42712.44
621.80	43100.97
621.95	42635.20
622.10	43009.68
622.25	42770.95
622.41	42401.14
622.56	42267.73
622.71	43009.68
622.86	42497.11
623.01	42815.42
623.16	42293.48
623.32	42712.44
623.47	42848.19
623.62	42674.99
623.77	42370.72
623.92	42902.02
624.07	42602.43
624.23	42445.62
624.38	42417.53
624.53	42457.32
624.68	42136.66
624.83	42513.49
624.98	42195.18
625.13	42061.77
625.29	42415.19
625.44	42653.92
625.59	42202.20
625.74	42211.56
625.89	41839.42
626.04	41684.94
626.19	42087.51
626.34	41900.27
626.49	42117.94
626.65	42333.27
626.80	42398.80
626.95	42040.70
627.10	41698.98
627.25	41947.08
627.40	42033.68
627.55	41645.15
627.70	41048.32
627.85	41806.65
628.00	41572.60
628.15	41900.27
628.30	41235.56
628.45	41504.72
628.60	41179.39
628.76	42012.62
628.91	41682.60
629.06	41701.32
629.21	41326.84
629.36	41663.88
629.51	41453.23
629.66	41226.20
629.81	41067.04
629.96	41357.27
630.11	41528.13
630.26	41647.49
630.41	41614.72
630.56	41319.82
630.71	41251.94
630.86	41062.36
631.01	41249.60
631.16	41502.38
631.31	40893.84
631.46	41088.10
631.61	41001.50
631.76	41104.49
631.91	41064.70
632.06	41071.72
632.21	41247.26
632.36	41706.01
632.51	40992.14
632.66	41069.38
632.81	40634.04
632.96	40952.35
633.10	40477.22
633.25	41109.17
633.40	40928.95
633.55	41071.72
633.70	40856.39
633.85	40395.31
634.00	40573.19
634.15	40910.22
634.30	40807.24
634.45	40638.72
634.60	40528.72
634.75	40760.43
634.90	40807.24
635.05	40435.10
635.19	40708.94
635.34	40517.01
635.49	40547.44
635.64	40268.92
635.79	40648.08
635.94	40325.09
636.09	40554.46
636.24	40009.12
636.39	39873.37
636.53	40088.70
636.68	40259.55
636.83	40397.65
636.98	40177.64
637.13	40339.13
637.28	40519.35
637.43	40072.31
637.57	40357.86
637.72	39826.56
637.87	40397.65
638.02	40266.58
638.17	40402.33
638.32	39992.73
638.46	40175.30
638.61	39723.57
638.76	39641.65
638.91	39948.26
639.06	40044.23
639.20	40252.53
639.35	40636.38
639.50	40184.66
639.65	39658.04
639.80	39775.06
639.94	39754.00
640.09	39419.30
640.24	39854.64
640.39	39510.58
640.54	39342.06
640.68	39475.48
640.83	39852.30
640.98	39264.83
641.13	39126.74
641.27	39714.21
641.42	39152.48
641.57	39756.34
641.72	39213.34
641.86	39494.20
642.01	39456.75
642.16	39346.75
642.31	38937.15
642.45	39449.73
642.60	38808.42
642.75	39203.97
642.90	39536.33
643.04	39199.29
643.19	38958.22
643.34	38895.02
643.48	39019.07
643.63	38951.20
643.78	38967.58
643.93	38576.71
644.07	38932.47
644.22	38880.98
644.37	38408.19
644.51	39124.40
644.66	39108.01
644.81	39203.97
644.95	38953.54
645.10	39173.55
645.25	39005.03
645.39	38635.22
645.54	39154.82
645.69	39152.48
645.83	38733.53
645.98	38373.08
646.13	38909.07
646.27	38464.36
646.42	38286.48
646.57	38855.23
646.71	38396.49
646.86	38593.09
647.00	38998.01
647.15	38838.85
647.30	38469.04
647.44	38293.50
647.59	38047.75
647.74	38359.04
647.88	38452.66
648.03	38155.41
648.17	38471.39
648.32	38377.76
648.47	38312.23
648.61	38160.09
648.76	38347.34
648.90	38604.80
649.05	38396.49
649.20	38359.04
649.34	38153.07
649.49	38000.94
649.63	38061.79
649.78	37741.14
649.92	37965.83
650.07	38396.49
650.21	37940.08
650.36	37809.01
650.51	37717.73
650.65	38447.98
650.80	38532.24
650.94	38555.64
651.09	38129.67
651.23	37633.47
651.38	38120.31
651.52	37827.74
651.67	37345.59
651.81	37687.31
651.96	37371.33
652.10	37546.87
652.25	37610.07
652.39	37640.50
652.54	37837.10
652.68	37944.76
652.83	38183.50
652.97	37993.92
653.12	37589.00
653.26	37411.12
653.41	37701.35
653.55	37567.94
653.70	37317.50
653.84	37390.06
653.99	37413.46
654.13	37301.12
654.27	37156.00
654.42	37380.70
654.56	37315.16
654.71	37486.02
654.85	37263.67
655.00	37015.57
655.14	36861.10
655.29	36767.48
655.43	36945.36
655.57	36526.40
655.72	36807.26
655.86	36781.52
656.01	36730.03
656.15	36549.81
656.30	36758.11
656.44	36833.01
656.58	36715.98
656.73	36708.96
656.87	36966.42
657.01	36945.36
657.16	36802.58
657.30	36170.64
657.45	36341.50
657.59	36706.62
657.73	36432.78
657.88	36868.12
658.02	36645.77
658.16	37062.38
658.31	36643.43
658.45	36566.19
658.60	36278.30
658.74	36423.42
658.88	36512.36
659.03	36395.33
659.17	36271.28
659.31	36081.70
659.46	36037.23
659.60	36275.96
659.74	36378.95
659.89	36367.24
660.03	35880.41
660.17	35599.55
660.32	35735.30
660.46	36341.50
660.60	35625.29
660.74	35894.46
660.89	35732.96
661.03	35517.63
661.17	35477.84
661.32	35412.31
661.46	35512.95
661.60	35571.46
661.74	35697.85
661.89	35676.79
662.03	35566.78
662.17	35248.47
662.31	35166.55
662.46	35576.14
662.60	35461.46
662.74	35295.28
662.88	35208.68
663.03	34888.03
663.17	34574.39
663.31	35136.12
663.45	34850.58
663.60	34916.11
663.74	34820.15
663.88	34782.70
664.02	34302.89
664.17	34766.32
664.31	34471.41
664.45	34911.43
664.59	34724.19
664.73	34340.34
664.88	34469.07
665.02	34326.30
665.16	34068.84
665.30	34408.22
665.44	34291.19
665.59	33965.85
665.73	33783.29
665.87	34450.35
666.01	34057.14
666.15	33895.64
666.29	34263.10
666.44	34356.72
666.58	33713.08
666.72	33787.97
666.86	34103.95
667.00	34080.54
667.14	33797.34
667.28	33645.20
667.43	33134.96
667.57	33528.17
667.71	33584.35
667.85	33748.18
667.99	33666.27
668.13	33617.11
668.27	33706.05
668.41	33181.77
668.56	33036.66
668.70	33509.45
668.84	32961.76
668.98	32692.60
669.12	32786.22
669.26	32584.94
669.40	32315.78
669.54	32940.70
669.68	32732.39
669.82	32547.49
669.96	32215.13
670.10	32772.18
670.25	32411.74
670.39	32535.79
670.53	32446.85
670.67	32240.88
670.81	31995.12
670.95	32364.93
671.09	32025.55
671.23	32151.94
671.37	32011.51
671.51	32287.69
671.65	32212.79
671.79	31852.35
671.93	31784.48
672.07	32135.56
672.21	31632.34
672.35	31903.84
672.49	31534.04
672.63	31875.76
672.77	31477.86
672.91	31147.85
673.05	31119.76
673.19	31269.56
673.33	31304.67
673.47	31150.19
673.61	31119.76
673.75	30843.58
673.89	30752.30
674.03	30892.73
674.17	30752.30
674.31	31105.72
674.45	30855.28
674.59	30845.92
674.73	30869.33
674.87	30529.95
675.01	30162.48
675.15	30347.39
675.29	30691.44
675.43	30099.29
675.56	30146.10
675.70	30309.94
675.84	30167.16
675.98	29193.50
676.12	30096.95
676.26	30036.09
676.40	29687.36
676.54	29591.39
676.68	29654.59
676.82	29460.32
676.96	29589.05
677.10	29308.19
677.23	29273.08
677.37	28985.19
677.51	29193.50
677.65	28547.51
677.79	28411.76
677.93	28973.49
678.07	28685.61
678.21	28261.97
678.34	28510.07
678.48	28435.17
678.62	28268.99
678.76	27889.82
678.90	27737.69
679.04	27995.15
679.18	28088.77
679.31	27889.82
679.45	27410.01
679.59	27356.18
679.73	27527.04
679.87	27307.03
680.00	27370.22
680.14	26951.27
680.28	27269.58
680.42	27187.66
680.56	27398.31
680.70	27122.13
680.83	27082.34
680.97	26787.43
681.11	27058.93
681.25	26759.34
681.39	26438.69
681.52	26796.79
681.66	26565.08
681.80	26349.75
681.94	26412.95
682.07	26354.43
682.21	26305.28
682.35	26005.69
682.49	26199.96
682.62	25727.17
682.76	26211.66
682.90	25930.80
683.04	25762.28
683.17	25785.68
683.31	25612.48
683.45	25261.40
683.59	25628.87
683.72	25280.13
683.86	25362.04
684.00	25090.54
684.13	25415.88
684.27	25153.74
684.41	24727.76
684.55	24554.56
684.68	24753.51
684.82	24620.10
684.96	24472.64
685.09	24683.29
685.23	24718.40
685.37	24320.51
685.50	24631.80
685.64	23981.13
685.78	24278.38
685.91	23789.20
686.05	23931.98
686.19	24030.28
686.32	23709.63
686.46	23145.56
686.60	23154.92
686.73	23009.81
686.87	23131.51
687.01	23302.37
687.14	22991.08
687.28	22691.49
687.42	23227.48
687.55	23073.00
687.69	23082.36
687.82	22717.24
687.96	22852.99
688.10	22843.63
688.23	22625.96
688.37	22359.14
688.50	22106.36
688.64	22352.12
688.78	22253.81
688.91	21984.65
689.05	22251.47
689.18	22057.21
689.32	21509.52
689.46	21874.65
689.59	21736.56
689.73	21891.03
689.86	21759.96
690.00	21525.91
690.13	21408.88
690.27	21584.42
690.41	21465.05
690.54	21048.44
690.68	21020.35
690.81	21043.76
690.95	20608.42
691.08	20819.07
691.22	20912.69
691.35	21188.87
691.49	20957.16
691.62	20950.14
691.76	20425.86
691.89	20212.87
692.03	20163.72
692.16	20144.99
692.30	20187.12
692.43	20119.24
692.57	19875.83
692.70	19917.96
692.84	19693.27
692.97	19693.27
693.11	19580.92
693.24	19482.62
693.38	19543.47
693.51	19648.80
693.65	19173.67
693.78	19295.38
693.92	19206.44
694.05	19241.54
694.19	19077.71
694.32	19061.32
694.45	18937.27
694.59	18417.68
694.72	18654.07
694.86	18710.24
694.99	18661.09
695.13	18368.52
695.26	18572.15
695.39	18401.29
695.53	18441.08
695.66	18810.89
695.80	18157.88
695.93	18228.09
696.07	18221.07
696.20	18001.06
696.33	17818.50
696.47	17820.84
696.60	17839.56
696.73	17762.33
696.87	17645.30
697.00	17713.17
697.14	17411.25
697.27	17432.31
697.40	17336.35
697.54	17144.42
697.67	17205.28
697.80	17200.60
697.94	16959.52
698.07	16603.76
698.21	16655.25
698.34	16751.21
698.47	16809.73
698.61	16418.86
698.74	16365.03
698.87	16353.32
699.01	16020.97
699.14	16149.70
699.27	16091.18
699.40	16245.66
699.54	16042.03
699.67	15700.31
699.80	15840.75
699.94	15910.96
700.07	15854.79
700.20	15721.38
700.34	15747.12
700.47	15810.32
700.60	15796.28
700.73	15744.78
700.87	15613.71
701.00	15571.58
701.13	15133.90
701.26	15201.78
701.40	15330.51
701.53	15091.77
701.66	15318.81
701.79	15161.99
701.93	15131.56
702.06	14979.43
702.19	14569.83
702.32	14944.32
702.46	14572.18
702.59	14476.21
702.72	14537.07
702.85	14635.37
702.99	14485.58
703.12	14331.10
703.25	14164.92
703.38	14242.16
703.51	14127.47
703.65	14284.29
703.78	14022.15
703.91	13977.68
704.04	13954.27
704.17	13956.61
704.31	14029.17
704.44	13778.73
704.57	13750.65
704.70	13689.79
704.83	13619.58
704.96	13652.34
705.10	13666.39
705.23	13460.42
>>>>>End Processed Spectral Data<<<<<
