SpectraSuite Data File
++++++++++++++++++++++++++++++++++++
Date: Fri Oct 25 10:47:59 EDT 2013
User: price-jones
Dark Spectrum Present: No
Reference Spectrum Present: No
Number of Sampled Component Spectra: 1
Spectrometers: USB2+H05261
Integration Time (usec): 100000 (USB2+H05261)
Spectra Averaged: 1 (USB2+H05261)
Boxcar Smoothing: 0 (USB2+H05261)
Correct for Electrical Dark: No (USB2+H05261)
Strobe/Lamp Enabled: No (USB2+H05261)
Correct for Detector Non-linearity: No (USB2+H05261)
Correct for Stray Light: No (USB2+H05261)
Number of Pixels in Processed Spectrum: 2048
>>>>>Begin Processed Spectral Data<<<<<
365.73	117.03
365.92	117.03
366.12	117.03
366.32	25.75
366.52	39.79
366.72	119.37
366.91	74.90
367.11	86.60
367.31	0.00
367.51	70.22
367.70	25.75
367.90	124.05
368.10	105.32
368.30	0.00
368.49	0.00
368.69	100.64
368.89	35.11
369.09	14.04
369.28	56.17
369.48	0.00
369.68	128.73
369.87	161.50
370.07	46.81
370.27	44.47
370.47	128.73
370.66	418.96
370.86	423.64
371.06	479.81
371.25	526.62
371.45	479.81
371.65	514.92
371.84	421.30
372.04	500.87
372.24	472.79
372.44	482.15
372.63	510.24
372.83	454.06
373.03	505.56
373.22	435.34
373.42	437.68
373.62	482.15
373.81	566.41
374.01	566.41
374.21	564.07
374.40	454.06
374.60	524.28
374.79	552.37
374.99	482.15
375.19	561.73
375.38	524.28
375.58	479.81
375.78	573.43
375.97	528.96
376.17	622.58
376.37	552.37
376.56	533.64
376.76	599.18
376.95	587.47
377.15	629.60
377.35	601.52
377.54	610.88
377.74	603.86
377.93	634.29
378.13	660.03
378.33	641.31
378.52	585.13
378.72	603.86
378.91	624.92
379.11	564.07
379.31	613.22
379.50	559.39
379.70	657.69
379.89	624.92
380.09	641.31
380.28	648.33
380.48	617.90
380.68	608.54
380.87	664.71
381.07	683.44
381.26	603.86
381.46	678.76
381.65	638.97
381.85	664.71
382.04	603.86
382.24	697.48
382.43	648.33
382.63	613.22
382.83	674.07
383.02	727.91
383.22	716.20
383.41	718.54
383.61	784.08
383.80	674.07
384.00	744.29
384.19	720.88
384.39	774.72
384.58	791.10
384.78	777.06
384.97	746.63
385.17	753.65
385.36	695.14
385.56	755.99
385.75	737.27
385.95	840.25
386.14	727.91
386.34	755.99
386.53	800.46
386.72	784.08
386.92	851.96
387.11	814.51
387.31	830.89
387.50	812.17
387.70	807.48
387.89	931.53
388.09	816.85
388.28	922.17
388.48	837.91
388.67	837.91
388.86	823.87
389.06	861.32
389.25	898.77
389.45	837.91
389.64	908.13
389.84	931.53
390.03	915.15
390.22	870.68
390.42	898.77
390.61	889.40
390.81	851.96
391.00	1032.18
391.19	966.64
391.39	964.30
391.58	968.98
391.78	924.51
391.97	957.28
392.16	999.41
392.36	1036.86
392.55	1001.75
392.75	957.28
392.94	961.96
393.13	954.94
393.33	968.98
393.52	915.15
393.71	1006.43
393.91	1083.67
394.10	999.41
394.29	1116.44
394.49	1008.77
394.68	1125.80
394.88	1107.07
395.07	1090.69
395.26	1170.27
395.46	1146.86
395.65	1123.46
395.84	1184.31
396.04	1214.74
396.23	1097.71
396.42	1130.48
396.62	1132.82
396.81	1081.33
397.00	1111.75
397.19	1163.25
397.39	1149.20
397.58	1263.89
397.77	1184.31
397.97	1132.82
398.16	1221.76
398.35	1364.53
398.55	1266.23
398.74	1219.42
398.93	1308.36
399.12	1362.19
399.32	1404.32
399.51	1256.87
399.70	1287.29
399.90	1465.18
400.09	1263.89
400.28	1324.74
400.47	1348.15
400.67	1465.18
400.86	1378.58
401.05	1397.30
401.24	1418.36
401.44	1413.68
401.63	1444.11
401.82	1504.96
402.01	1397.30
402.21	1495.60
402.40	1469.86
402.59	1537.73
402.78	1502.62
402.97	1540.07
403.17	1547.09
403.36	1631.35
403.55	1612.63
403.74	1757.74
403.93	1561.14
404.13	1629.01
404.32	1617.31
404.51	1675.82
404.70	1661.78
404.89	1631.35
405.09	1650.08
405.28	1788.17
405.47	1717.95
405.66	1753.06
405.85	1748.38
406.05	1699.23
406.24	1743.70
406.43	1886.47
406.62	1839.66
406.81	1970.73
407.00	1785.83
407.20	1823.28
407.39	1781.15
407.58	1774.13
407.77	1902.86
407.96	1818.60
408.15	1891.15
408.34	1902.86
408.54	1977.75
408.73	2052.65
408.92	2045.63
409.11	2076.06
409.30	2052.65
409.49	2036.27
409.68	2057.33
409.87	1968.39
410.07	1975.41
410.26	2104.14
410.45	2106.48
410.64	2073.71
410.83	2188.40
411.02	2176.70
411.21	2298.41
411.40	2298.41
411.59	2242.23
411.78	2214.15
411.98	2228.19
412.17	2282.02
412.36	2354.58
412.55	2380.32
412.74	2373.30
412.93	2335.85
413.12	2422.45
413.31	2478.63
413.50	2312.45
413.69	2450.54
413.88	2565.23
414.07	2595.65
414.26	2623.74
414.45	2700.98
414.64	2736.09
414.83	2616.72
415.02	2689.28
415.22	2661.19
415.41	2726.72
415.60	2745.45
415.79	2630.76
415.98	2979.50
416.17	2818.00
416.36	2895.24
416.55	2832.05
416.74	2930.35
416.93	2904.60
417.12	2906.95
417.31	2885.88
417.50	2860.13
417.69	3082.49
417.88	3063.76
418.07	2984.18
418.26	3073.12
418.45	3087.17
418.64	3105.89
418.83	3066.10
419.02	3194.83
419.21	3122.27
419.39	3082.49
419.58	3105.89
419.77	3098.87
419.96	3145.68
420.15	3344.63
420.34	3157.38
420.53	3241.64
420.72	3328.24
420.91	3349.31
421.10	3330.58
421.29	3386.76
421.48	3295.47
421.67	3494.42
421.86	3405.48
422.05	3318.88
422.24	3337.60
422.43	3379.73
422.61	3372.71
422.80	3407.82
422.99	3400.80
423.18	3454.63
423.37	3559.95
423.56	3410.16
423.75	3389.10
423.94	3466.33
424.13	3309.52
424.32	3290.79
424.50	3578.68
424.69	3620.81
424.88	3623.15
425.07	3356.33
425.26	3449.95
425.45	3438.25
425.64	3452.29
425.83	3543.57
426.01	3550.59
426.20	3653.58
426.39	3489.74
426.58	3499.10
426.77	3471.01
426.96	3669.96
427.15	3648.90
427.33	3669.96
427.52	3606.77
427.71	3733.15
427.90	3562.30
428.09	3684.00
428.28	3747.20
428.46	3819.75
428.65	3726.13
428.84	3892.31
429.03	3906.35
429.22	3721.45
429.40	3784.65
429.59	3801.03
429.78	3602.08
429.97	3475.70
430.16	3660.60
430.34	3871.25
430.53	3866.56
430.72	3990.61
430.91	3880.61
431.10	3983.59
431.28	3964.87
431.47	4023.38
431.66	4109.98
431.85	3995.29
432.03	4131.05
432.22	4245.73
432.41	4021.04
432.60	4184.88
432.79	4124.02
432.97	4159.13
433.16	4147.43
433.35	4166.15
433.54	4245.73
433.72	4241.05
433.91	4166.15
434.10	4472.76
434.28	4292.54
434.47	4294.88
434.66	4320.63
434.85	4400.21
435.03	4489.15
435.22	4437.66
435.41	4449.36
435.59	4414.25
435.78	4437.66
435.97	4423.61
436.16	4505.53
436.34	4521.92
436.53	4411.91
436.72	4631.92
436.90	4547.66
437.09	4596.81
437.28	4561.70
437.46	4709.16
437.65	4627.24
437.84	4786.40
438.02	4671.71
438.21	4798.10
438.40	4620.22
438.58	4718.52
438.77	4875.34
438.96	4870.65
439.14	4966.62
439.33	4926.83
439.52	4966.62
439.70	5057.90
439.89	5160.88
440.08	5088.32
440.26	5074.28
440.45	5144.50
440.63	5043.85
440.82	5341.10
441.01	5074.28
441.19	5352.81
441.38	5268.55
441.57	5453.45
441.75	5416.00
441.94	5619.63
442.12	5535.37
442.31	5467.49
442.50	5481.53
442.68	5509.62
442.87	5628.99
443.05	5561.11
443.24	5631.33
443.43	5584.52
443.61	5589.20
443.80	5886.45
443.98	5685.16
444.17	5591.54
444.35	5486.22
444.54	5944.96
444.73	5774.10
444.91	5809.21
445.10	5785.80
445.28	5753.04
445.47	5788.14
445.65	5832.62
445.84	5806.87
446.02	6012.84
446.21	5839.64
446.39	5802.19
446.58	5804.53
446.77	5919.21
446.95	5827.93
447.14	5881.77
447.32	6059.65
447.51	5919.21
447.69	5928.58
447.88	6076.03
448.06	5778.78
448.25	5853.68
448.43	6022.20
448.62	5912.19
448.80	6003.47
448.99	6050.28
449.17	5881.77
449.36	6125.18
449.54	6153.27
449.73	6104.12
449.91	6277.32
450.10	6347.53
450.28	6377.96
450.46	6373.28
450.65	6232.85
450.83	6307.74
451.02	6326.47
451.20	6464.56
451.39	6473.92
451.57	6209.44
451.76	6249.23
451.94	6420.09
452.13	6487.96
452.31	6328.81
452.49	6314.77
452.68	6406.05
452.86	6436.47
453.05	6565.20
453.23	6399.02
453.42	6436.47
453.60	6441.15
453.78	6665.85
453.97	6581.59
454.15	6539.46
454.34	6490.31
454.52	6628.40
454.70	6665.85
454.89	6757.13
455.07	6787.55
455.26	6691.59
455.44	6932.67
455.62	6855.43
455.81	6761.81
455.99	6902.24
456.17	6705.63
456.36	6799.26
456.54	6981.82
456.73	7159.70
456.91	7148.00
457.09	7056.72
457.28	7335.24
457.46	7075.44
457.64	7288.43
457.83	7126.93
458.01	7133.95
458.19	7414.82
458.38	7091.82
458.56	7356.30
458.74	7302.47
458.93	7227.57
459.11	7478.01
459.29	7449.93
459.48	7536.52
459.66	7414.82
459.84	7417.16
460.03	7595.04
460.21	7503.76
460.39	7566.95
460.57	7370.35
460.76	7686.32
460.94	7508.44
461.12	7698.02
461.31	7676.96
461.49	7531.84
461.67	7550.57
461.85	7845.48
462.04	7702.70
462.22	8271.45
462.40	7915.69
462.59	8032.72
462.77	8102.93
462.95	7992.93
463.13	7957.82
463.32	7981.23
463.50	8067.83
463.68	8025.70
463.86	8028.04
464.05	8168.47
464.23	8191.88
464.41	7955.48
464.59	7960.16
464.78	8388.48
464.96	8156.77
465.14	8119.32
465.32	8145.06
465.50	8355.71
465.69	8306.56
465.87	8056.12
466.05	8119.32
466.23	8329.97
466.41	8301.88
466.60	8341.67
466.78	8376.78
466.96	8292.52
467.14	8266.77
467.32	8446.99
467.51	8365.07
467.69	8182.51
467.87	8463.38
468.05	8458.70
468.23	8465.72
468.41	8393.16
468.60	8767.65
468.78	8425.93
468.96	8446.99
469.14	8676.37
469.32	8741.90
469.50	8451.67
469.69	8879.99
469.87	8879.99
470.05	8870.63
470.23	8826.16
470.41	8905.74
470.59	8851.91
470.77	8828.50
470.95	8751.26
471.14	9102.34
471.32	8982.98
471.50	9249.80
471.68	9364.48
471.86	9362.14
472.04	9287.25
472.22	9738.97
472.40	9261.50
472.58	9284.91
472.77	9390.23
472.95	9406.61
473.13	9818.55
473.31	9490.87
473.49	9692.16
473.67	9514.28
473.85	9507.26
474.03	9785.78
474.21	9809.19
474.39	9727.27
474.57	10106.43
474.75	10017.49
474.93	10097.07
475.12	10083.03
475.30	10118.14
475.48	10134.52
475.66	10258.57
475.84	10057.28
476.02	10281.97
476.20	10040.90
476.38	10424.75
476.56	10813.28
476.74	10429.43
476.92	10565.18
477.10	10689.23
477.28	10897.53
477.46	10972.43
477.64	11028.60
477.82	11164.36
478.00	11265.00
478.18	11391.39
478.36	11269.68
478.54	11126.91
478.72	11351.60
478.90	11527.14
479.08	11908.65
479.26	11831.41
479.44	12004.61
479.62	11812.68
479.80	12100.57
479.98	12168.45
480.16	12177.81
480.34	12184.83
480.52	12229.30
480.70	12360.37
480.88	12264.41
481.06	12535.91
481.24	12549.95
481.41	12746.56
481.59	12844.86
481.77	13083.59
481.95	12629.53
482.13	13104.66
482.31	12877.63
482.49	13500.21
482.67	13308.29
482.85	13673.41
483.03	13745.97
483.21	13785.76
483.39	14008.11
483.57	13935.55
483.74	14040.87
483.92	14155.56
484.10	14017.47
484.28	14518.34
484.46	14450.47
484.64	14593.24
484.82	14759.42
485.00	14548.77
485.18	15108.16
485.35	15075.39
485.53	15089.43
485.71	14902.19
485.89	15073.05
486.07	15178.37
486.25	15281.36
486.43	15454.56
486.61	15487.32
486.78	15992.88
486.96	15786.91
487.14	16173.10
487.32	15971.82
487.50	16212.89
487.68	16552.27
487.85	16730.15
488.03	16769.94
488.21	17291.88
488.39	17282.52
488.57	17167.83
488.75	17118.68
488.92	17207.62
489.10	17778.71
489.28	17528.27
489.46	17921.48
489.64	17745.94
489.81	18082.98
489.99	18207.03
490.17	18310.01
490.35	18799.18
490.53	18429.38
490.70	18920.89
490.88	19002.81
491.06	18958.34
491.24	18766.42
491.41	18927.91
491.59	19033.24
491.77	19157.28
491.95	19396.02
492.13	19424.11
492.30	19328.14
492.48	19882.85
492.66	19868.81
492.84	19824.34
493.01	20049.03
493.19	20037.33
493.37	20535.86
493.54	20189.46
493.72	20524.16
493.90	20566.29
494.08	20833.11
494.25	20940.77
494.43	21294.19
494.61	21294.19
494.79	21287.17
494.96	21371.43
495.14	21476.76
495.32	21764.64
495.49	21937.84
495.67	21891.03
495.85	22181.26
496.02	22101.68
496.20	22286.58
496.38	22033.80
496.55	22321.69
496.73	22843.63
496.91	22288.92
497.09	22525.32
497.26	22993.42
497.44	22733.62
497.62	23009.81
497.79	23325.78
497.97	23297.69
498.14	23307.05
498.32	23351.52
498.50	23494.30
498.67	23768.14
498.85	23470.89
499.03	23836.02
499.20	24039.64
499.38	23981.13
499.56	24245.61
499.73	24336.89
499.91	24259.65
500.08	24093.47
500.26	24425.83
500.44	24311.14
500.61	24603.71
500.79	24814.36
500.97	25027.35
501.14	25118.63
501.32	24917.34
501.49	24858.83
501.67	24940.75
501.84	25057.78
502.02	25408.86
502.20	25448.64
502.37	25666.31
502.55	25525.88
502.72	25830.15
502.90	25610.14
503.07	25549.29
503.25	25937.82
503.43	25883.98
503.60	25912.07
503.78	26221.02
503.95	26429.33
504.13	26087.61
504.30	26335.71
504.48	26419.97
504.65	26202.30
504.83	26869.35
505.01	26752.32
505.18	26696.15
505.36	27101.06
505.53	26958.29
505.71	27229.79
505.88	27374.91
506.06	27087.02
506.23	27222.77
506.41	27122.13
506.58	27550.45
506.76	27725.99
506.93	27756.41
507.11	27828.97
507.28	27779.82
507.46	27442.78
507.63	27826.63
507.81	28006.85
507.98	27981.10
508.16	27859.40
508.33	28020.89
508.50	28332.18
508.68	28390.70
508.85	28762.84
509.03	28329.84
509.20	28540.49
509.38	29022.64
509.55	28851.78
509.73	28980.51
509.90	28779.23
510.08	28823.70
510.25	29109.24
510.42	28730.08
510.60	29553.94
510.77	29352.66
510.95	29956.52
511.12	29647.57
511.30	29879.28
511.47	29923.75
511.64	29982.26
511.82	29825.45
511.99	29867.58
512.17	30054.82
512.34	29881.62
512.51	30110.99
512.69	30134.40
512.86	30389.52
513.04	30555.69
513.21	30469.09
513.38	30206.95
513.56	30771.02
513.73	30075.88
513.90	30794.43
514.08	30328.66
514.25	30876.35
514.43	30981.67
514.60	30628.25
514.77	30946.56
514.95	31147.85
515.12	31295.30
515.29	31356.16
515.47	31709.58
515.64	31777.45
515.81	31498.93
515.99	31232.11
516.16	31580.85
516.33	31489.57
516.51	31346.79
516.68	31466.16
516.85	31426.37
517.03	31728.30
517.20	31828.95
517.37	31974.06
517.54	32116.83
517.72	31735.32
517.89	31800.86
518.06	32184.71
518.24	31772.77
518.41	31964.70
518.58	32243.22
518.75	32418.76
518.93	32701.96
519.10	32708.99
519.27	32519.40
519.45	32666.86
519.62	33034.32
519.79	32987.51
519.96	32896.23
520.14	33469.66
520.31	33310.50
520.48	33354.97
520.65	33280.08
520.83	33582.01
521.00	33633.50
521.17	33392.42
521.34	33275.40
521.52	33715.42
521.69	33942.45
521.86	33734.14
522.03	33755.21
522.20	33916.70
522.38	34398.85
522.55	34288.85
522.72	34380.13
522.89	33897.98
523.07	34260.76
523.24	33776.27
523.41	34415.24
523.58	34136.71
523.75	34581.42
523.92	34885.68
524.10	34696.10
524.27	34792.06
524.44	34969.94
524.61	34967.60
524.78	35082.29
524.96	35101.01
525.13	35108.04
525.30	35068.25
525.47	35178.25
525.64	35431.03
525.81	35613.59
525.98	35414.65
526.16	34972.28
526.33	35395.92
526.50	35274.21
526.67	35538.69
526.84	35416.99
527.01	35098.67
527.18	35578.48
527.36	35550.40
527.53	35655.72
527.70	35878.07
527.87	36339.16
528.04	36264.26
528.21	35887.43
528.38	35885.09
528.55	36137.87
528.72	36093.40
528.89	36086.38
529.07	36203.41
529.24	36390.65
529.41	36474.91
529.58	36308.73
529.75	36624.70
529.92	36645.77
530.09	36727.69
530.26	36708.96
530.43	36517.04
530.60	36128.51
530.77	36711.30
530.94	37177.07
531.11	36940.68
531.28	37240.26
531.46	36570.87
531.63	37305.80
531.80	37347.93
531.97	37083.45
532.14	36943.02
532.31	37277.71
532.48	36879.82
532.65	37474.32
532.82	37581.98
532.99	37701.35
533.16	37532.83
533.33	37420.48
533.50	37607.73
533.67	37139.62
533.84	37029.62
534.01	37572.62
534.18	37567.94
534.35	38251.38
534.52	37631.13
534.69	37986.89
534.86	37919.02
535.03	37764.54
535.20	38209.25
535.37	38988.64
535.54	38232.65
535.71	38349.68
535.88	37909.66
536.05	37984.55
536.22	38024.34
536.38	38284.14
536.55	38272.44
536.72	38583.73
536.89	38539.26
537.06	38347.34
537.23	38799.06
537.40	38536.92
537.57	38904.38
537.74	38408.19
537.91	39009.71
538.08	38958.22
538.25	38689.06
538.42	38677.35
538.59	38976.94
538.75	38277.12
538.92	39391.22
539.09	39070.56
539.26	39192.27
539.43	38752.25
539.60	39239.08
539.77	39021.41
539.94	39611.23
540.11	38927.79
540.28	39131.42
540.44	39161.84
540.61	39143.12
540.78	39077.58
540.95	39463.77
541.12	39093.97
541.29	39962.31
541.46	39529.31
541.62	39533.99
541.79	39910.82
541.96	39835.92
542.13	39606.55
542.30	40053.59
542.47	39646.33
542.63	39868.69
542.80	40215.08
542.97	40187.00
543.14	40392.97
543.31	39959.97
543.48	40463.18
543.64	40566.16
543.81	40519.35
543.98	40701.92
544.15	40238.49
544.32	40795.54
544.48	40353.18
544.65	40947.67
544.82	40760.43
544.99	40498.29
545.16	40715.96
545.32	40697.24
545.49	40596.59
545.66	40994.48
545.83	41055.34
546.00	40861.07
546.16	40645.74
546.33	40779.15
546.50	40851.71
546.67	41109.17
546.83	40652.76
547.00	40697.24
547.17	41165.34
547.34	41043.63
547.50	41127.89
547.67	41469.61
547.84	41263.64
548.00	41373.65
548.17	41399.40
548.34	41237.90
548.51	41448.55
548.67	41294.07
548.84	41895.59
549.01	41731.75
549.18	41460.25
549.34	41778.56
549.51	41872.18
549.68	41855.80
549.84	41703.67
550.01	41698.98
550.18	41741.11
550.34	42328.59
550.51	41289.39
550.68	42073.47
550.84	41673.24
551.01	42136.66
551.18	41991.55
551.34	41783.24
551.51	41855.80
551.68	42124.96
551.84	41933.04
552.01	41633.45
552.18	42347.31
552.34	41736.43
552.51	42403.49
552.68	42284.12
552.84	42494.77
553.01	43049.47
553.18	41860.48
553.34	42494.77
553.51	42047.72
553.67	42204.54
553.84	42684.35
554.01	42635.20
554.17	42855.21
554.34	42951.17
554.51	42696.05
554.67	42672.65
554.84	42532.22
555.00	42361.36
555.17	42181.13
555.33	42852.87
555.50	42838.83
555.67	42981.60
555.83	42529.87
556.00	43091.60
556.16	43147.78
556.33	43161.82
556.50	42579.03
556.66	43014.37
556.83	42784.99
556.99	43285.87
557.16	42955.85
557.32	42792.01
557.49	43138.41
557.65	43122.03
557.82	42906.70
557.98	43290.55
558.15	42899.68
558.32	43147.78
558.48	42990.96
558.65	43082.24
558.81	43122.03
558.98	43501.20
559.14	43379.49
559.31	42972.24
559.47	43150.12
559.64	43681.42
559.80	43969.30
559.97	43639.29
560.13	43026.07
560.30	43126.71
560.46	43278.85
560.63	43388.85
560.79	43473.11
560.96	43723.55
561.12	43358.42
561.29	43721.21
561.45	43892.07
561.61	43489.49
561.78	43136.07
561.94	43330.34
562.11	43674.40
562.27	43459.07
562.44	43409.92
562.60	43889.73
562.77	43653.33
562.93	43777.38
563.10	44222.08
563.26	43407.58
563.42	43849.94
563.59	43585.46
563.75	43501.20
563.92	44172.93
564.08	43700.14
564.24	44170.59
564.41	43803.13
564.57	44219.74
564.74	43913.13
564.90	43526.94
565.07	43763.34
565.23	43620.56
565.39	43885.04
565.56	43988.03
565.72	43908.45
565.88	44140.16
566.05	44133.14
566.21	43674.40
566.38	43777.38
566.54	44158.89
566.70	44198.68
566.87	44186.97
567.03	44362.51
567.19	44369.54
567.36	44388.26
567.52	43753.97
567.68	44086.33
567.85	44172.93
568.01	44135.48
568.17	44456.14
568.34	44006.75
568.50	44327.41
568.66	43826.53
568.83	44072.29
568.99	43756.32
569.15	43885.04
569.32	43786.74
569.48	44112.08
569.64	44561.46
569.81	44229.10
569.97	43915.47
570.13	44545.08
570.30	44275.91
570.46	44098.03
570.62	43803.13
570.78	44009.09
570.95	44411.67
571.11	44109.74
571.27	44121.44
571.43	44629.34
571.60	44439.75
571.76	44332.09
571.92	44252.51
572.09	44758.06
572.25	44034.84
572.41	44301.66
572.57	44217.40
572.74	45141.91
572.90	44451.45
573.06	44556.78
573.22	44432.73
573.38	44430.39
573.55	44540.39
573.71	44807.22
573.87	43887.39
574.03	44378.90
574.20	44275.91
574.36	44156.55
574.52	44414.01
574.68	44374.22
574.84	44460.82
575.01	44247.83
575.17	44374.22
575.33	44044.20
575.49	44168.25
575.65	44879.77
575.82	44577.84
575.98	44278.25
576.14	44800.19
576.30	43700.14
576.46	44690.19
576.62	44189.31
576.79	44058.24
576.95	43650.99
577.11	44371.88
577.27	44488.90
577.43	44624.65
577.59	44301.66
577.75	44259.53
577.92	44018.46
578.08	44112.08
578.24	44112.08
578.40	44409.32
578.56	44484.22
578.72	44470.18
578.88	44488.90
579.04	44378.90
579.21	44250.17
579.37	44030.16
579.53	44224.42
579.69	44741.68
579.85	44612.95
580.01	44484.22
580.17	44477.20
580.33	44786.15
580.49	44671.46
580.65	44760.40
580.82	44334.43
580.98	44856.37
581.14	44629.34
581.30	44538.05
581.46	44449.11
581.62	44619.97
581.78	44533.37
581.94	44931.26
582.10	44318.04
582.26	44729.98
582.42	44439.75
582.58	44556.78
582.74	44535.71
582.90	44271.23
583.06	44678.49
583.22	44968.71
583.38	45141.91
583.54	44570.82
583.70	44821.26
583.86	44678.49
584.02	44629.34
584.18	44673.81
584.34	44514.65
584.50	44603.59
584.66	44353.15
584.82	44491.24
584.98	45095.10
585.14	45139.57
585.30	44430.39
585.46	44669.12
585.62	44273.57
585.78	44399.96
585.94	44308.68
586.10	44383.58
586.26	44376.56
586.42	44666.78
586.58	45095.10
586.74	44734.66
586.90	44699.55
587.06	44250.17
587.22	45202.77
587.38	44573.16
587.54	45041.27
587.70	44811.90
587.86	44701.89
588.02	44624.65
588.18	44844.66
588.34	44442.09
588.49	44299.32
588.65	44362.51
588.81	44772.11
588.97	44629.34
589.13	44760.40
589.29	44580.18
589.45	44591.89
589.61	44725.30
589.77	44589.55
589.93	44737.00
590.08	45106.80
590.24	45418.10
590.40	44872.75
590.56	45301.07
590.72	44676.15
590.88	44793.17
591.04	44795.51
591.20	45331.50
591.35	45081.06
591.51	45436.82
591.67	45132.55
591.83	45055.31
591.99	44519.33
592.15	45015.52
592.31	44666.78
592.46	45184.04
592.62	44933.60
592.78	44870.41
592.94	44622.31
593.10	45172.34
593.26	45097.44
593.41	45399.37
593.57	45036.59
593.73	44683.17
593.89	44935.95
594.05	44793.17
594.20	44725.30
594.36	45404.05
594.52	45127.87
594.68	44744.02
594.84	45038.93
594.99	45277.66
595.15	45067.02
595.31	45509.38
595.47	45422.78
595.62	44905.52
595.78	44900.84
595.94	44940.63
596.10	45387.67
596.25	45193.40
596.41	45453.20
596.57	44863.39
596.73	44865.73
596.88	44708.91
597.04	45256.60
597.20	45331.50
597.36	45013.18
597.51	45841.73
597.67	45174.68
597.83	45127.87
597.99	45345.54
598.14	45003.82
598.30	44844.66
598.46	45137.23
598.61	45048.29
598.77	44540.39
598.93	44727.64
599.09	44608.27
599.24	45551.51
599.40	45261.28
599.56	45268.30
599.71	45120.85
599.87	45305.75
600.03	44823.60
600.18	45120.85
600.34	45158.30
600.50	45170.00
600.65	45104.46
600.81	45345.54
600.97	45076.38
601.12	45319.79
601.28	45230.85
601.44	45130.21
601.59	45120.85
601.75	44722.96
601.91	45081.06
602.06	45081.06
602.22	45022.54
602.37	45343.20
602.53	45059.99
602.69	45375.97
602.84	44975.73
603.00	44942.97
603.16	45006.16
603.31	45104.46
603.47	44907.86
603.62	44634.02
603.78	45474.27
603.94	44818.92
604.09	45310.43
604.25	45345.54
604.40	45244.90
604.56	45216.81
604.71	45062.33
604.87	44720.62
605.03	45202.77
605.18	44641.04
605.34	45027.23
605.49	44624.65
605.65	44783.81
605.80	44893.82
605.96	45034.25
606.12	45081.06
606.27	45326.81
606.43	44739.34
606.58	44961.69
606.74	44692.53
606.89	44617.63
607.05	45137.23
607.20	44961.69
607.36	44870.41
607.51	45329.16
607.67	45010.84
607.82	45118.51
607.98	44722.96
608.13	44893.82
608.29	44559.12
608.44	44414.01
608.60	44161.23
608.75	44514.65
608.91	44809.56
609.06	44540.39
609.22	44985.10
609.37	44720.62
609.53	45120.85
609.68	44676.15
609.84	44509.97
609.99	44781.47
610.15	44921.90
610.30	44914.88
610.46	44264.21
610.61	44566.14
610.76	44404.64
610.92	44699.55
611.07	44788.49
611.23	44477.20
611.38	44304.00
611.54	44362.51
611.69	44240.81
611.84	44341.45
612.00	44093.35
612.15	44442.09
612.31	44292.30
612.46	44594.23
612.62	44650.40
612.77	44528.69
612.92	44334.43
613.08	44542.74
613.23	44161.23
613.39	44296.98
613.54	43796.10
613.69	44446.77
613.85	44123.78
614.00	44502.95
614.15	44282.94
614.31	44598.91
614.46	44626.99
614.62	44013.77
614.77	44301.66
614.92	44175.27
615.08	44114.42
615.23	44088.67
615.38	43952.92
615.54	43524.60
615.69	43878.02
615.84	42974.58
616.00	43533.96
616.15	43789.08
616.30	44130.80
616.46	43505.88
616.61	43433.32
616.76	43753.97
616.92	43592.48
617.07	43821.85
617.22	43578.43
617.37	43943.56
617.53	43931.86
617.68	43669.72
617.83	43606.52
617.99	44032.50
618.14	43833.55
618.29	43730.57
618.45	42777.97
618.60	43538.65
618.75	43360.76
618.90	43470.77
619.06	43845.26
619.21	44027.82
619.36	43288.21
619.51	43522.26
619.67	43491.83
619.82	43192.25
619.97	43239.06
620.12	43196.93
620.28	42822.44
620.43	43210.97
620.58	43269.48
620.73	43501.20
620.89	43136.07
621.04	43360.76
621.19	43447.36
621.34	43267.14
621.49	43093.94
621.65	43033.09
621.80	42895.00
621.95	42787.33
622.10	43136.07
622.25	43110.33
622.41	42616.47
622.56	42429.23
622.71	43384.17
622.86	42761.59
623.01	43002.66
623.16	42845.85
623.32	43065.86
623.47	43255.44
623.62	42672.65
623.77	42375.40
623.92	42663.28
624.07	42682.01
624.23	42799.04
624.38	42459.66
624.53	42728.82
624.68	42684.35
624.83	42700.73
624.98	42518.17
625.13	42480.72
625.29	42590.73
625.44	42663.28
625.59	42555.62
625.74	42148.37
625.89	41965.81
626.04	41928.36
626.19	42281.78
626.34	42438.59
626.49	42443.27
626.65	42305.18
626.80	42485.40
626.95	41949.42
627.10	42005.59
627.25	42087.51
627.40	41827.71
627.55	41670.90
627.70	41797.29
627.85	41937.72
628.00	41706.01
628.15	42036.02
628.30	41715.37
628.45	42419.87
628.60	41661.54
628.76	41823.03
628.91	42281.78
629.06	42150.71
629.21	41572.60
629.36	41516.42
629.51	41748.14
629.66	41825.37
629.81	41467.27
629.96	41797.29
630.11	41645.15
630.26	41876.86
630.41	41755.16
630.56	41429.82
630.71	41666.22
630.86	41666.22
631.01	41628.77
631.16	41284.71
631.31	40811.92
631.46	40942.99
631.61	41226.20
631.76	40933.63
631.91	41413.44
632.06	41488.34
632.21	41352.58
632.36	41713.03
632.51	41167.68
632.66	41373.65
632.81	41064.70
632.96	41343.22
633.10	40811.92
633.25	40971.08
633.40	41413.44
633.55	41404.08
633.70	41214.49
633.85	41301.09
634.00	41118.53
634.15	40840.01
634.30	40807.24
634.45	40746.39
634.60	41071.72
634.75	40809.58
634.90	40783.83
635.05	40832.99
635.19	40556.80
635.34	40783.83
635.49	41053.00
635.64	40849.37
635.79	40285.30
635.94	40306.37
636.09	40425.73
636.24	40617.66
636.39	40514.67
636.53	40598.93
636.68	40399.99
636.83	40570.85
636.98	40266.58
637.13	40243.17
637.28	40629.36
637.43	40563.82
637.57	40788.52
637.72	40392.97
637.87	40039.54
638.02	40470.20
638.17	40133.17
638.32	39889.75
638.46	40023.16
638.61	40378.92
638.76	40107.42
638.91	39981.03
639.06	40758.09
639.20	40282.96
639.35	40418.71
639.50	39541.01
639.65	40030.18
639.80	40191.68
639.94	40069.97
640.09	39667.40
640.24	39700.17
640.39	39934.22
640.54	40048.91
640.68	39828.90
640.83	39761.02
640.98	39480.16
641.13	40006.78
641.27	39828.90
641.42	39405.26
641.57	39952.94
641.72	39800.81
641.86	39384.19
642.01	39290.57
642.16	39651.02
642.31	39332.70
642.45	39686.12
642.60	39285.89
642.75	38888.00
642.90	39421.64
643.04	39180.57
643.19	39519.95
643.34	39302.28
643.48	39400.58
643.63	39278.87
643.78	38909.07
643.93	39019.07
644.07	38710.12
644.22	39033.11
644.37	39049.50
644.51	38649.27
644.66	39442.71
644.81	39225.04
644.95	39384.19
645.10	39157.16
645.25	39243.76
645.39	39337.38
645.54	38934.81
645.69	39229.72
645.83	38855.23
645.98	39126.74
646.13	38948.85
646.27	39054.18
646.42	39395.90
646.57	39112.69
646.71	38843.53
646.86	38707.78
647.00	38459.68
647.15	39110.35
647.30	39065.88
647.44	38565.01
647.59	38586.07
647.74	39105.67
647.88	38260.74
648.03	38616.50
648.17	38401.17
648.32	38218.61
648.47	38703.10
648.61	38410.53
648.76	38469.04
648.90	38370.74
649.05	38590.75
649.20	38684.37
649.34	38345.00
649.49	37919.02
649.63	38045.41
649.78	38352.02
649.92	38260.74
650.07	38333.29
650.21	38253.72
650.36	37792.63
650.51	38176.48
650.65	38476.07
650.80	38572.03
650.94	38642.24
651.09	38239.67
651.23	37879.23
651.38	38026.68
651.52	38082.86
651.67	38153.07
651.81	38160.09
651.96	38246.69
652.10	37930.72
652.25	37706.03
652.39	37790.29
652.54	37778.59
652.68	37984.55
652.83	37895.61
652.97	37883.91
653.12	37818.38
653.26	37820.72
653.41	37596.03
653.55	37467.30
653.70	37525.81
653.84	37832.42
653.99	37612.41
654.13	37511.77
654.27	37855.82
654.42	37549.21
654.56	37663.90
654.71	37696.67
654.85	37710.71
655.00	37383.04
655.14	37392.40
655.29	36889.18
655.43	36896.20
655.57	37170.05
655.72	37441.55
655.86	37102.17
656.01	37078.77
656.15	37198.13
656.30	37181.75
656.44	36849.39
656.58	37067.06
656.73	36772.16
656.87	36601.30
657.01	36769.82
657.16	36835.35
657.30	36985.15
657.45	36818.97
657.59	36856.42
657.73	36643.43
657.88	37029.62
658.02	36603.64
658.16	36744.07
658.31	37034.30
658.45	37006.21
658.60	36999.19
658.74	36811.95
658.88	36538.10
659.03	36491.29
659.17	36341.50
659.31	36402.35
659.46	36463.21
659.60	36561.51
659.74	36140.21
659.89	36048.93
660.03	35831.26
660.17	35894.46
660.32	36037.23
660.46	36622.36
660.60	36488.95
660.74	36208.09
660.89	36187.02
661.03	35475.50
661.17	35835.94
661.32	35435.71
661.46	35716.58
661.60	35508.27
661.74	35679.13
661.89	35817.22
662.03	35562.10
662.17	35541.03
662.31	35440.39
662.46	35861.69
662.60	35086.97
662.74	35550.40
662.88	35548.06
663.03	35098.67
663.17	35585.50
663.31	35407.62
663.45	35351.45
663.60	35314.00
663.74	34958.24
663.88	34934.84
664.02	34506.52
664.17	34895.05
664.31	34693.76
664.45	35035.48
664.59	34951.22
664.73	34534.60
664.88	35056.54
665.02	34455.03
665.16	34834.19
665.30	35012.07
665.44	34576.73
665.59	34272.46
665.73	34258.42
665.87	34078.20
666.01	33841.81
666.15	34412.90
666.29	34497.16
666.44	34646.95
666.58	34099.26
666.72	34089.90
666.86	34291.19
667.00	34054.79
667.14	33600.73
667.28	33647.54
667.43	33717.76
667.57	33993.94
667.71	33589.03
667.85	33848.83
667.99	33837.12
668.13	33500.09
668.27	33228.59
668.41	33603.07
668.56	33319.87
668.70	33237.95
668.84	33118.58
668.98	33212.20
669.12	33425.19
669.26	33542.22
669.40	32725.37
669.54	33083.47
669.68	33055.39
669.82	32788.56
669.96	32479.61
670.10	32774.52
670.25	32795.59
670.39	32613.02
670.53	32528.77
670.67	32622.39
670.81	32854.10
670.95	33109.22
671.09	32748.78
671.23	32484.30
671.37	32774.52
671.51	32219.81
671.65	32301.73
671.79	32311.10
671.93	31770.43
672.07	32189.39
672.21	31988.10
672.35	31695.53
672.49	31622.98
672.63	31957.67
672.77	32247.90
672.91	31786.82
673.05	31672.13
673.19	31498.93
673.33	31688.51
673.47	31543.40
673.61	31512.97
673.75	31201.68
673.89	31028.48
674.03	30934.86
674.17	30780.39
674.31	30904.43
674.45	30831.88
674.59	30848.26
674.73	31180.62
674.87	31026.14
675.01	30794.43
675.15	31026.14
675.29	30766.34
675.43	30761.66
675.56	30962.95
675.70	30206.95
675.84	30419.94
675.98	29439.26
676.12	30419.94
676.26	29832.47
676.40	30110.99
676.54	29886.30
676.68	29883.96
676.82	29193.50
676.96	29567.99
677.10	29177.12
677.23	29598.41
677.37	29076.48
677.51	29202.86
677.65	29263.72
677.79	28961.79
677.93	28994.56
678.07	29223.93
678.21	28748.80
678.34	29008.60
678.48	28727.74
678.62	28556.88
678.76	28290.06
678.90	28449.21
679.04	28240.90
679.18	28425.81
679.31	27611.30
679.45	27861.74
679.59	27288.31
679.73	27814.93
679.87	27534.06
680.00	28191.75
680.14	27520.02
680.28	27363.20
680.42	27250.86
680.56	27412.35
680.70	27110.43
680.83	27295.33
680.97	27227.45
681.11	26859.99
681.25	26836.58
681.39	26712.53
681.52	26529.97
681.66	26810.84
681.80	26689.13
681.94	26380.18
682.07	26380.18
682.21	26333.37
682.35	26239.75
682.49	26661.04
682.62	26256.13
682.76	26064.21
682.90	26001.01
683.04	26319.32
683.17	25935.48
683.31	25956.54
683.45	25942.50
683.59	25514.18
683.72	25635.89
683.86	25188.85
684.00	25139.69
684.13	25631.21
684.27	25177.14
684.41	25198.21
684.55	24968.84
684.68	24456.26
684.82	24753.51
684.96	24737.12
685.09	24409.45
685.23	24367.32
685.37	24367.32
685.50	24676.27
685.64	24374.34
685.78	24229.23
685.91	24039.64
686.05	24259.65
686.19	23733.03
686.32	24032.62
686.46	23604.30
686.60	23653.45
686.73	23484.94
686.87	23716.65
687.01	23580.90
687.14	23274.29
687.28	22829.59
687.42	23161.94
687.55	22714.90
687.69	22789.80
687.82	22972.36
687.96	22796.82
688.10	22733.62
688.23	22785.12
688.37	22331.05
688.50	22347.44
688.64	22286.58
688.78	22122.74
688.91	21935.50
689.05	22113.38
689.18	21996.35
689.32	21832.52
689.46	21776.34
689.59	21921.46
689.73	21935.50
689.86	21764.64
690.00	21413.56
690.13	21982.31
690.27	21528.25
690.41	21600.80
690.54	20966.52
690.68	21287.17
690.81	20861.19
690.95	20854.17
691.08	21041.42
691.22	20950.14
691.35	20919.71
691.49	20809.70
691.62	21064.82
691.76	20959.50
691.89	20620.12
692.03	20592.03
692.16	20510.11
692.30	20142.65
692.43	20189.46
692.57	20123.93
692.70	20142.65
692.84	19763.48
692.97	20060.73
693.11	19988.18
693.24	19693.27
693.38	19623.05
693.51	19246.23
693.65	19559.86
693.78	19697.95
693.92	19391.34
694.05	19260.27
694.19	18958.34
694.32	19321.12
694.45	19047.28
694.59	19080.05
694.72	18635.35
694.86	19140.90
694.99	18750.03
695.13	18523.00
695.26	18307.67
695.39	18265.54
695.53	18515.98
695.66	18361.50
695.80	18375.55
695.93	18104.04
696.07	17951.91
696.20	17942.55
696.33	17844.24
696.47	17989.36
696.60	18078.30
696.73	17951.91
696.87	17898.08
697.00	17717.86
697.14	17500.19
697.27	17703.81
697.40	17451.03
697.54	17247.41
697.67	17366.78
697.80	17310.60
697.94	17238.05
698.07	17102.29
698.21	16901.01
698.34	16870.58
698.47	16589.72
698.61	16610.78
698.74	16636.53
698.87	16540.57
699.01	16350.98
699.14	16257.36
699.27	16688.02
699.40	16383.75
699.54	16318.22
699.67	15995.22
699.80	16163.74
699.94	15957.77
700.07	16189.49
700.20	15674.57
700.34	15751.81
700.47	15845.43
700.60	15857.13
700.73	16105.23
700.87	15609.03
701.00	15445.20
701.13	15625.42
701.26	15367.96
701.40	15150.29
701.53	15164.33
701.66	15580.95
701.79	15033.26
701.93	14986.45
702.06	14817.93
702.19	15028.58
702.32	14986.45
702.46	14710.27
702.59	14869.42
702.72	14794.53
702.85	14836.66
702.99	14696.22
703.12	14824.95
703.25	14679.84
703.38	14272.59
703.51	14272.59
703.65	14342.80
703.78	14017.47
703.91	14298.33
704.04	14253.86
704.17	14139.18
704.31	14005.77
704.44	13855.97
704.57	13481.49
704.70	13479.15
704.83	13528.30
704.96	13401.91
705.10	13596.17
705.23	13750.65
>>>>>End Processed Spectral Data<<<<<
