SpectraSuite Data File
++++++++++++++++++++++++++++++++++++
Date: Fri Oct 25 10:48:18 EDT 2013
User: price-jones
Dark Spectrum Present: No
Reference Spectrum Present: No
Number of Sampled Component Spectra: 1
Spectrometers: USB2+H05261
Integration Time (usec): 100000 (USB2+H05261)
Spectra Averaged: 1 (USB2+H05261)
Boxcar Smoothing: 0 (USB2+H05261)
Correct for Electrical Dark: No (USB2+H05261)
Strobe/Lamp Enabled: No (USB2+H05261)
Correct for Detector Non-linearity: No (USB2+H05261)
Correct for Stray Light: No (USB2+H05261)
Number of Pixels in Processed Spectrum: 2048
>>>>>Begin Processed Spectral Data<<<<<
365.73	131.07
365.92	131.07
366.12	131.07
366.32	0.00
366.52	86.60
366.72	65.54
366.91	49.15
367.11	74.90
367.31	0.00
367.51	49.15
367.70	88.94
367.90	46.81
368.10	67.88
368.30	7.02
368.49	11.70
368.69	154.48
368.89	131.07
369.09	25.75
369.28	77.24
369.48	44.47
369.68	77.24
369.87	110.01
370.07	81.92
370.27	114.69
370.47	259.80
370.66	451.72
370.86	465.77
371.06	517.26
371.25	440.02
371.45	528.96
371.65	519.60
371.84	470.45
372.04	430.66
372.24	496.19
372.44	437.68
372.63	514.92
372.83	550.03
373.03	573.43
373.22	575.77
373.42	535.98
373.62	500.87
373.81	606.20
374.01	636.63
374.21	627.26
374.40	636.63
374.60	594.50
374.79	550.03
374.99	631.94
375.19	589.82
375.38	662.37
375.58	580.45
375.78	538.32
375.97	603.86
376.17	617.90
376.37	645.99
376.56	615.56
376.76	617.90
376.95	620.24
377.15	648.33
377.35	781.74
377.54	690.46
377.74	683.44
377.93	645.99
378.13	727.91
378.33	664.71
378.52	592.16
378.72	606.20
378.91	802.80
379.11	704.50
379.31	720.88
379.50	645.99
379.70	631.94
379.89	716.20
380.09	770.04
380.28	730.25
380.48	653.01
380.68	732.59
380.87	744.29
381.07	706.84
381.26	828.55
381.46	716.20
381.65	711.52
381.85	681.10
382.04	779.40
382.24	709.18
382.43	774.72
382.63	786.42
382.83	758.33
383.02	751.31
383.22	709.18
383.41	751.31
383.61	767.70
383.80	732.59
384.00	755.99
384.19	847.27
384.39	880.04
384.58	763.01
384.78	823.87
384.97	866.00
385.17	877.70
385.36	877.70
385.56	880.04
385.75	779.40
385.95	791.10
386.14	950.26
386.34	980.68
386.53	837.91
386.72	926.85
386.92	922.17
387.11	966.64
387.31	884.72
387.50	802.80
387.70	898.77
387.89	936.21
388.09	901.11
388.28	910.47
388.48	931.53
388.67	938.55
388.86	994.73
389.06	912.81
389.25	950.26
389.45	1015.79
389.64	1020.47
389.84	1064.94
390.03	1064.94
390.22	1027.50
390.42	1093.03
390.61	1029.84
390.81	992.39
391.00	1043.88
391.19	1144.52
391.39	1121.12
391.58	1111.75
391.78	1006.43
391.97	1088.35
392.16	1020.47
392.36	1071.97
392.55	1006.43
392.75	1029.84
392.94	1050.90
393.13	997.07
393.33	1069.62
393.52	1078.99
393.71	1121.12
393.91	1144.52
394.10	1125.80
394.29	1235.80
394.49	1242.82
394.68	1167.93
394.88	1240.48
395.07	1394.96
395.26	1186.65
395.46	1259.21
395.65	1231.12
395.84	1275.59
396.04	1303.68
396.23	1233.46
396.42	1261.55
396.62	1233.46
396.81	1245.16
397.00	1231.12
397.19	1296.66
397.39	1341.13
397.58	1383.26
397.77	1500.28
397.97	1427.73
398.16	1469.86
398.35	1427.73
398.55	1591.56
398.74	1563.48
398.93	1565.82
399.12	1640.72
399.32	1444.11
399.51	1514.33
399.70	1591.56
399.90	1586.88
400.09	1633.69
400.28	1582.20
400.47	1596.25
400.67	1607.95
400.86	1640.72
401.05	1586.88
401.24	1706.25
401.44	1706.25
401.63	1795.19
401.82	1727.32
402.01	1713.27
402.21	1673.48
402.40	1870.09
402.59	1802.21
402.78	1823.28
402.97	1858.39
403.17	1750.72
403.36	1909.88
403.55	1874.77
403.74	1860.73
403.93	1853.70
404.13	1989.46
404.32	1884.13
404.51	1856.04
404.70	2054.99
404.89	1947.33
405.09	2008.18
405.28	2033.93
405.47	1998.82
405.66	2024.56
405.85	2001.16
406.05	1954.35
406.24	2003.50
406.43	2094.78
406.62	2031.58
406.81	2132.23
407.00	2047.97
407.20	2090.10
407.39	2113.50
407.58	2246.91
407.77	2256.28
407.96	2312.45
408.15	2225.85
408.34	2317.13
408.54	2251.60
408.73	2356.92
408.92	2387.35
409.11	2335.85
409.30	2321.81
409.49	2267.98
409.68	2377.98
409.87	2359.26
410.07	2448.20
410.26	2438.84
410.45	2333.51
410.64	2553.52
410.83	2572.25
411.02	2595.65
411.21	2569.91
411.40	2588.63
411.59	2677.57
411.78	2724.38
411.98	2794.60
412.17	2665.87
412.36	2651.83
412.55	2850.77
412.74	2829.71
412.93	2775.88
413.12	2853.11
413.31	2806.30
413.50	2867.16
413.69	2932.69
413.88	2963.12
414.07	2953.76
414.26	2970.14
414.45	2960.78
414.64	2967.80
414.83	3023.97
415.02	3052.06
415.22	3000.57
415.41	3241.64
415.60	3234.62
415.79	3194.83
415.98	3309.52
416.17	3407.82
416.36	3424.20
416.55	3302.50
416.74	3265.05
416.93	3382.07
417.12	3356.33
417.31	3435.91
417.50	3433.57
417.69	3529.53
417.88	3445.27
418.07	3634.85
418.26	3585.70
418.45	3534.21
418.64	3763.58
418.83	3660.60
419.02	3602.08
419.21	3623.15
419.39	3552.93
419.58	3571.66
419.77	3503.78
419.96	3737.84
420.15	3688.68
420.34	3794.01
420.53	3836.14
420.72	3892.31
420.91	3929.76
421.10	3927.42
421.29	3925.08
421.48	3953.16
421.67	3798.69
421.86	3896.99
422.05	3751.88
422.24	3915.72
422.43	3859.54
422.61	3948.48
422.80	3971.89
422.99	3997.64
423.18	3990.61
423.37	4102.96
423.56	4023.38
423.75	3957.85
423.94	3927.42
424.13	3648.90
424.32	3911.04
424.50	3992.95
424.69	4198.92
424.88	4079.55
425.07	4114.66
425.26	3964.87
425.45	3927.42
425.64	3969.55
425.83	3859.54
426.01	4264.46
426.20	3943.80
426.39	4044.45
426.58	3999.98
426.77	3955.51
426.96	4049.13
427.15	4154.45
427.33	4149.77
427.52	4189.56
427.71	4320.63
427.90	4128.70
428.09	4217.65
428.28	4201.26
428.46	4252.75
428.65	4215.30
428.84	4257.43
429.03	4362.76
429.22	4156.79
429.40	4227.01
429.59	4294.88
429.78	4135.73
429.97	3913.38
430.16	4030.40
430.34	4189.56
430.53	4184.88
430.72	4332.33
430.91	4294.88
431.10	4507.87
431.28	4498.51
431.47	4690.43
431.66	4678.73
431.85	4615.54
432.03	4793.42
432.22	4648.30
432.41	4744.27
432.60	4718.52
432.79	4819.16
432.97	4924.49
433.16	4903.42
433.35	4816.82
433.54	4631.92
433.72	4706.82
433.91	4802.78
434.10	4833.21
434.28	4858.95
434.47	4786.40
434.66	4987.68
434.85	5104.71
435.03	5111.73
435.22	5165.56
435.41	5231.10
435.59	5064.92
435.78	5111.73
435.97	5170.24
436.16	5177.26
436.34	5139.82
436.53	5289.61
436.72	5324.72
436.90	5172.58
437.09	5210.03
437.28	5109.39
437.46	5254.50
437.65	5284.93
437.84	5364.51
438.02	5296.63
438.21	5387.91
438.40	5203.01
438.58	5460.47
438.77	5516.64
438.96	5516.64
439.14	5544.73
439.33	5640.69
439.52	5706.23
439.70	5673.46
439.89	5741.33
440.08	5776.44
440.26	5951.98
440.45	5841.98
440.63	6101.78
440.82	6099.44
441.01	6097.10
441.19	6141.57
441.38	6230.51
441.57	6251.57
441.75	6218.80
441.94	6342.85
442.12	6497.33
442.31	6424.77
442.50	6361.58
442.68	6396.68
442.87	6466.90
443.05	6513.71
443.24	6431.79
443.43	6464.56
443.61	6595.63
443.80	6689.25
443.98	6457.54
444.17	6424.77
444.35	6651.80
444.54	6897.56
444.73	6612.01
444.91	6689.25
445.10	6590.95
445.28	6736.06
445.47	6473.92
445.65	6600.31
445.84	6478.60
446.02	6675.21
446.21	6518.39
446.39	6527.75
446.58	6876.49
446.77	6759.47
446.95	6764.15
447.14	6899.90
447.32	6918.62
447.51	6799.26
447.69	6757.13
447.88	6675.21
448.06	6810.96
448.25	6764.15
448.43	6871.81
448.62	6736.06
448.80	6761.81
448.99	6883.52
449.17	7061.40
449.36	6696.27
449.54	7063.74
449.73	7232.26
449.91	7026.29
450.10	7382.05
450.28	7522.48
450.46	7417.16
450.65	7316.51
450.83	7272.04
451.02	7398.43
451.20	7260.34
451.39	7286.09
451.57	7260.34
451.76	7316.51
451.94	7428.86
452.13	7403.11
452.31	7274.38
452.49	7248.64
452.68	7269.70
452.86	7433.54
453.05	7302.47
453.23	7632.49
453.42	7538.87
453.60	7307.15
453.78	7503.76
453.97	7566.95
454.15	7550.57
454.34	7646.53
454.52	7655.89
454.70	7606.74
454.89	7676.96
455.07	7726.11
455.26	7817.39
455.44	7801.01
455.62	7763.56
455.81	7798.66
455.99	7967.18
456.17	8124.00
456.36	8018.68
456.54	8180.17
456.73	7889.95
456.91	8308.90
457.09	8241.03
457.28	8280.82
457.46	8320.60
457.64	8388.48
457.83	8102.93
458.01	8292.52
458.19	8435.29
458.38	8170.81
458.56	8336.99
458.74	8245.71
458.93	8362.73
459.11	8400.18
459.29	8287.84
459.48	8524.23
459.66	8538.27
459.84	8571.04
460.03	8751.26
460.21	8411.89
460.39	8718.50
460.57	8528.91
460.76	8622.53
460.94	8779.35
461.12	8751.26
461.31	8877.65
461.49	8982.98
461.67	9013.40
461.85	8961.91
462.04	8926.80
462.22	9472.15
462.40	9273.20
462.59	9090.64
462.77	8945.53
462.95	9085.96
463.13	8847.22
463.32	8954.89
463.50	9275.54
463.68	9184.26
463.86	9275.54
464.05	9107.02
464.23	9130.43
464.41	9401.93
464.59	9008.72
464.78	9406.61
464.96	9254.48
465.14	9327.03
465.32	9472.15
465.50	9385.55
465.69	9488.53
465.87	9437.04
466.05	9401.93
466.23	9366.82
466.41	9373.85
466.60	9577.47
466.78	9317.67
466.96	9481.51
467.14	9287.25
467.32	9659.39
467.51	9596.20
467.69	9329.38
467.87	9638.33
468.05	9745.99
468.23	9474.49
468.41	9554.07
468.60	9643.01
468.78	9710.88
468.96	9589.17
469.14	9898.13
469.32	10052.60
469.50	9558.75
469.69	9891.10
469.87	10010.47
470.05	9748.33
470.23	9994.09
470.41	10066.64
470.59	10209.42
470.77	9949.62
470.95	10132.18
471.14	10324.10
471.32	10101.75
471.50	10619.01
471.68	10562.84
471.86	10413.04
472.04	10672.84
472.22	10649.44
472.40	10555.82
472.58	10572.20
472.77	10546.45
472.95	10675.18
473.13	11047.33
473.31	10633.05
473.49	10677.52
473.67	10810.93
473.85	10991.16
474.03	10960.73
474.21	11257.98
474.39	11183.08
474.57	11206.48
474.75	11227.55
474.93	11609.06
475.12	11300.11
475.30	11375.00
475.48	11602.04
475.66	11314.15
475.84	11543.52
476.02	11480.33
476.20	11524.80
476.38	11913.33
476.56	12006.95
476.74	11950.78
476.92	12140.36
477.10	12004.61
477.28	12355.69
477.46	12287.81
477.64	12348.67
477.82	12468.03
478.00	12863.58
478.18	12975.93
478.36	12634.21
478.54	12643.57
478.72	13048.49
478.90	13071.89
479.08	13263.82
479.26	13322.33
479.44	13399.57
479.62	13502.55
479.80	13437.02
479.98	13638.30
480.16	13902.78
480.34	13600.85
480.52	13996.40
480.70	13661.71
480.88	13905.12
481.06	13949.59
481.24	14382.59
481.41	14448.13
481.59	14614.30
481.77	14869.42
481.95	14562.81
482.13	14665.80
482.31	14728.99
482.49	15066.03
482.67	15218.16
482.85	15426.47
483.03	15342.21
483.21	15374.98
483.39	15602.01
483.57	15573.92
483.74	15817.34
483.92	16067.78
484.10	15962.45
484.28	15971.82
484.46	16294.81
484.64	16652.91
484.82	16421.20
485.00	16482.05
485.18	16805.05
485.35	16585.04
485.53	16367.37
485.71	16503.12
485.89	16657.59
486.07	16599.08
486.25	16814.41
486.43	17310.60
486.61	17156.13
486.78	17682.75
486.96	18099.36
487.14	18146.17
487.32	18008.08
487.50	18263.20
487.68	18492.57
487.85	18792.16
488.03	18773.44
488.21	18785.14
488.39	18829.61
488.57	18813.23
488.75	19264.95
488.92	19606.67
489.10	19632.41
489.28	19887.53
489.46	19735.40
489.64	20194.14
489.81	20678.63
489.99	20622.46
490.17	20556.93
490.35	20638.84
490.53	20470.33
490.70	20587.35
490.88	20884.60
491.06	21032.05
491.24	20952.48
491.41	20891.62
491.59	21085.89
491.77	20954.82
491.95	21373.77
492.13	21685.06
492.30	21610.17
492.48	22249.13
492.66	21994.01
492.84	22373.18
493.01	22431.69
493.19	22239.77
493.37	22665.75
493.54	22632.98
493.72	23300.03
493.90	22885.76
494.08	23260.24
494.25	23489.62
494.43	23517.70
494.61	23459.19
494.79	23852.40
494.96	23686.22
495.14	23812.61
495.32	23988.15
495.49	24290.08
495.67	24283.06
495.85	24507.75
496.02	24739.46
496.20	24856.49
496.38	24840.11
496.55	24922.02
496.73	25598.44
496.91	24922.02
497.09	25727.17
497.26	25710.78
497.44	25261.40
497.62	25460.35
497.79	25673.34
497.97	25343.32
498.14	25902.71
498.32	26122.72
498.50	26089.95
498.67	26312.30
498.85	26232.72
499.03	26984.04
499.20	27131.49
499.38	26635.30
499.56	27122.13
499.73	26869.35
499.91	26834.24
500.08	26902.12
500.26	26595.51
500.44	27391.29
500.61	27138.51
500.79	26988.72
500.97	27505.98
501.14	27709.60
501.32	27489.59
501.49	27733.01
501.67	27690.88
501.84	27597.26
502.02	27953.02
502.20	28107.49
502.37	28348.57
502.55	28308.78
502.72	28439.85
502.90	28379.00
503.07	28388.36
503.25	28711.35
503.43	28236.22
503.60	28957.11
503.78	28774.55
503.95	28748.80
504.13	29113.92
504.30	29057.75
504.48	29322.23
504.65	29394.79
504.83	29486.07
505.01	29865.24
505.18	29673.31
505.36	29984.60
505.53	29619.48
505.71	30211.64
505.88	30108.65
506.06	29778.64
506.23	30253.76
506.41	29823.11
506.58	30340.36
506.76	30274.83
506.93	30361.43
507.11	30586.12
507.28	30331.00
507.46	30384.83
507.63	30541.65
507.81	31014.44
507.98	30724.21
508.16	31110.40
508.33	31051.89
508.50	31494.25
508.68	31615.96
508.85	31587.87
509.03	31690.85
509.20	31793.84
509.38	31634.68
509.55	31770.43
509.73	31981.08
509.90	32034.91
510.08	31985.76
510.25	31850.01
510.42	32020.87
510.60	32451.53
510.77	32257.26
510.95	32507.70
511.12	32608.34
511.30	32435.14
511.47	32755.80
511.64	33289.44
511.82	33214.54
511.99	32713.67
512.17	32872.82
512.34	32926.66
512.51	33074.11
512.69	33626.48
512.86	33214.54
513.04	33113.90
513.21	33703.71
513.38	33221.56
513.56	33497.75
513.73	33385.40
513.90	33432.21
514.08	32973.47
514.25	33813.72
514.43	33738.82
514.60	33682.65
514.77	33802.02
514.95	33851.17
515.12	34040.75
515.29	34286.51
515.47	34796.74
515.64	34508.86
515.81	34579.07
515.99	34527.58
516.16	33970.54
516.33	34377.79
516.51	34450.35
516.68	33773.93
516.85	33787.97
517.03	34127.35
517.20	34321.62
517.37	34859.94
517.54	34724.19
517.72	34944.20
517.89	34602.48
518.06	34546.31
518.24	34827.17
518.41	34792.06
518.58	34838.87
518.75	34885.68
518.93	35611.25
519.10	35182.93
519.27	35784.45
519.45	35728.28
519.62	35971.69
519.79	36009.14
519.96	36060.63
520.14	36517.04
520.31	35985.74
520.48	36109.78
520.65	35929.56
520.83	36563.85
521.00	36715.98
521.17	36474.91
521.34	36226.81
521.52	37081.11
521.69	36877.48
521.86	37324.52
522.03	37284.73
522.20	37151.32
522.38	37036.64
522.55	37209.84
522.72	36947.70
522.89	37280.05
523.07	37324.52
523.24	36985.15
523.41	37406.44
523.58	37661.56
523.75	38136.69
523.92	37956.47
524.10	37933.06
524.27	38302.87
524.44	37830.08
524.61	38078.18
524.78	38199.88
524.96	38366.06
525.13	38319.25
525.30	38160.09
525.47	38801.40
525.64	38211.59
525.81	38499.47
525.98	38206.90
526.16	37904.98
526.33	37792.63
526.50	38202.22
526.67	38141.37
526.84	38038.39
527.01	38141.37
527.18	38405.85
527.36	38829.49
527.53	39040.14
527.70	38948.85
527.87	38871.62
528.04	39276.53
528.21	38946.51
528.38	39297.59
528.55	39522.29
528.72	39232.06
528.89	39964.65
529.07	39536.33
529.24	39222.70
529.41	39693.15
529.58	39271.85
529.75	39931.88
529.92	40189.34
530.09	39679.10
530.26	39810.17
530.43	40116.78
530.60	39805.49
530.77	40142.53
530.94	40421.05
531.11	40362.54
531.28	39988.05
531.46	40161.25
531.63	40343.81
531.80	40484.25
531.97	40271.26
532.14	40203.38
532.31	40065.29
532.48	40240.83
532.65	40371.90
532.82	40411.69
532.99	40657.45
533.16	40512.33
533.33	40823.62
533.50	40926.61
533.67	40718.30
533.84	40758.09
534.01	40942.99
534.18	40477.22
534.35	40957.03
534.52	40711.28
534.69	41186.41
534.86	41074.06
535.03	40964.06
535.20	41525.78
535.37	41490.68
535.54	41731.75
535.71	41312.80
535.88	41514.08
536.05	41228.54
536.22	41649.83
536.38	41486.00
536.55	41565.57
536.72	41331.52
536.89	41184.07
537.06	41432.16
537.23	41783.24
537.40	41373.65
537.57	41811.33
537.74	41968.15
537.91	42234.97
538.08	42169.43
538.25	41656.85
538.42	41654.51
538.59	42330.93
538.75	41371.31
538.92	42150.71
539.09	42384.76
539.26	41951.76
539.43	42199.86
539.60	41881.55
539.77	41968.15
539.94	42164.75
540.11	41888.57
540.28	42176.45
540.44	41844.10
540.61	42415.19
540.78	42330.93
540.95	42061.77
541.12	42438.59
541.29	42305.18
541.46	42366.04
541.62	42658.60
541.79	42581.37
541.96	41961.12
542.13	42440.93
542.30	42759.25
542.47	43065.86
542.63	42955.85
542.80	42848.19
542.97	43082.24
543.14	43203.95
543.31	42909.04
543.48	43672.06
543.64	44009.09
543.81	43910.79
543.98	43442.68
544.15	43330.34
544.32	43913.13
544.48	43718.87
544.65	43634.61
544.82	43917.81
544.99	43540.99
545.16	43964.62
545.32	43646.31
545.49	43667.37
545.66	43885.04
545.83	43552.69
546.00	44390.60
546.16	43896.75
546.33	44170.59
546.50	43339.70
546.67	44210.38
546.83	43480.13
547.00	43676.74
547.17	43819.51
547.34	43791.42
547.50	44161.23
547.67	44091.01
547.84	44643.38
548.00	44744.02
548.17	44453.79
548.34	44399.96
548.51	45064.67
548.67	44729.98
548.84	44921.90
549.01	44397.62
549.18	44341.45
549.34	44533.37
549.51	44762.75
549.68	44524.01
549.84	44362.51
550.01	45050.63
550.18	44535.71
550.34	44788.49
550.51	44699.55
550.68	44966.37
550.84	44540.39
551.01	44666.78
551.18	44421.03
551.34	44755.72
551.51	44421.03
551.68	44992.12
551.84	44837.64
552.01	45095.10
552.18	45085.74
552.34	44854.03
552.51	44849.35
552.68	45305.75
552.84	45549.17
553.01	45581.93
553.18	45048.29
553.34	45144.25
553.51	44961.69
553.67	45280.00
553.84	46078.13
554.01	45631.08
554.17	45757.47
554.34	45780.88
554.51	45984.51
554.67	45755.13
554.84	45352.56
555.00	45139.57
555.17	45202.77
555.33	45598.32
555.50	45195.74
555.67	45277.66
555.83	45525.76
556.00	45352.56
556.16	45991.53
556.33	45769.18
556.50	45535.12
556.66	45914.29
556.83	45350.22
556.99	46160.05
557.16	45914.29
557.32	45673.21
557.49	45776.20
557.65	45504.70
557.82	45979.82
557.98	45823.01
558.15	45661.51
558.32	45422.78
558.48	46059.40
558.65	45570.23
558.81	45996.21
558.98	45907.27
559.14	46335.59
559.31	45968.12
559.47	46169.41
559.64	46021.95
559.80	45963.44
559.97	46101.53
560.13	46057.06
560.30	45928.33
560.46	46169.41
560.63	46040.68
560.79	46153.02
560.96	46129.62
561.12	45872.16
561.29	45961.10
561.45	46457.29
561.61	46291.12
561.78	46363.67
561.94	45914.29
562.11	46260.69
562.27	46014.93
562.44	46204.52
562.60	46382.40
562.77	46536.87
562.93	46681.98
563.10	46101.53
563.26	46323.88
563.42	46677.30
563.59	46220.90
563.75	46429.21
563.92	46511.13
564.08	46600.07
564.24	46567.30
564.41	46918.38
564.57	46553.26
564.74	46635.17
564.90	46820.08
565.07	46337.93
565.23	46583.68
565.39	46754.54
565.56	46717.09
565.72	46417.50
565.88	46356.65
566.05	46234.94
566.21	46574.32
566.38	46536.87
566.54	46536.87
566.70	47023.70
566.87	46983.91
567.03	46396.44
567.19	47206.26
567.36	46703.05
567.52	46550.91
567.68	47269.46
567.85	46529.85
568.01	46515.81
568.17	46754.54
568.34	46752.20
568.50	46679.64
568.66	46368.35
568.83	46340.27
568.99	46178.77
569.15	46440.91
569.32	46216.22
569.48	46344.95
569.64	46567.30
569.81	46351.97
569.97	46625.81
570.13	46660.92
570.30	46761.56
570.46	46380.06
570.62	46258.35
570.78	46363.67
570.95	46635.17
571.11	46955.83
571.27	46487.72
571.43	46326.22
571.60	46553.26
571.76	47157.11
571.92	46457.29
572.09	46981.57
572.25	46777.95
572.41	46696.03
572.57	46841.14
572.74	47267.12
572.90	46990.94
573.06	46731.14
573.22	47114.98
573.38	47107.96
573.55	46944.12
573.71	46969.87
573.87	46714.75
574.03	46574.32
574.20	46962.85
574.36	46742.84
574.52	46899.65
574.68	47112.64
574.84	47180.52
575.01	47131.37
575.17	46822.42
575.33	46834.12
575.49	46831.78
575.65	47358.40
575.82	46932.42
575.98	46665.60
576.14	47068.17
576.30	46761.56
576.46	46403.46
576.62	46569.64
576.79	46611.77
576.95	46499.42
577.11	46897.31
577.27	46808.37
577.43	46829.44
577.59	46932.42
577.75	46796.67
577.92	46487.72
578.08	46389.42
578.24	46607.09
578.40	46934.76
578.56	46742.84
578.72	47051.79
578.88	47009.66
579.04	47122.01
579.21	46532.19
579.37	47203.92
579.53	46752.20
579.69	46490.06
579.85	47271.80
580.01	47140.73
580.17	47061.15
580.33	47077.54
580.49	46986.25
580.65	47222.65
580.82	47187.54
580.98	46845.82
581.14	46866.89
581.30	47381.80
581.46	46972.21
581.62	47159.45
581.78	47122.01
581.94	47054.13
582.10	47208.61
582.26	47117.32
582.42	47295.21
582.58	47224.99
582.74	47379.46
582.90	46925.40
583.06	47477.77
583.22	47009.66
583.38	47182.86
583.54	47140.73
583.70	46946.47
583.86	46855.18
584.02	46965.19
584.18	47147.75
584.34	46873.91
584.50	46930.08
584.66	46894.97
584.82	46927.74
584.98	47114.98
585.14	47285.84
585.30	46916.04
585.46	46904.34
585.62	47182.86
585.78	46703.05
585.94	46836.46
586.10	46752.20
586.26	46983.91
586.42	47192.22
586.58	47437.98
586.74	47065.83
586.90	46803.69
587.06	46492.40
587.22	47182.86
587.38	46684.33
587.54	47349.04
587.70	46834.12
587.86	47217.97
588.02	46873.91
588.18	47164.14
588.34	46480.70
588.49	46525.17
588.65	46410.48
588.81	46326.22
588.97	46511.13
589.13	46543.89
589.29	46506.44
589.45	46707.73
589.61	47365.42
589.77	47435.64
589.93	46913.70
590.08	46836.46
590.24	47014.34
590.40	47437.98
590.56	47068.17
590.72	46993.28
590.88	46955.83
591.04	47040.09
591.20	47440.32
591.35	47250.74
591.51	47306.91
591.67	47145.41
591.83	47103.28
591.99	47089.24
592.15	47033.07
592.31	47079.88
592.46	47255.42
592.62	47033.07
592.78	47157.11
592.94	47344.36
593.10	47224.99
593.26	47662.67
593.41	47075.19
593.57	46986.25
593.73	47091.58
593.89	46787.31
594.05	47131.37
594.20	47187.54
594.36	47510.53
594.52	47187.54
594.68	47349.04
594.84	47145.41
594.99	47449.68
595.15	46822.42
595.31	47421.59
595.47	47166.48
595.62	47262.44
595.78	47377.12
595.94	47622.88
596.10	47330.31
596.25	47468.40
596.41	47475.43
596.57	47075.19
596.73	47622.88
596.88	47012.00
597.04	47021.36
597.20	47103.28
597.36	47309.25
597.51	47576.07
597.67	47311.59
597.83	47454.36
597.99	47356.06
598.14	47487.13
598.30	47704.80
598.46	47004.98
598.61	47079.88
598.77	46801.35
598.93	47077.54
599.09	47019.02
599.24	47477.77
599.40	47220.31
599.56	47484.79
599.71	47468.40
599.87	47583.09
600.03	47363.08
600.18	47620.54
600.34	47239.03
600.50	47316.27
600.65	46983.91
600.81	47746.93
600.97	47398.19
601.12	47775.02
601.28	47126.69
601.44	46958.17
601.59	47365.42
601.75	47248.39
601.91	47091.58
602.06	47182.86
602.22	47002.64
602.37	47157.11
602.53	47379.46
602.69	47622.88
602.84	47180.52
603.00	47634.58
603.16	47145.41
603.31	47433.30
603.47	47276.48
603.62	47114.98
603.78	47629.90
603.94	47508.19
604.09	47234.35
604.25	47089.24
604.40	47054.13
604.56	47157.11
604.71	47051.79
604.87	47171.16
605.03	47232.01
605.18	47049.45
605.34	46981.57
605.49	47063.49
605.65	47201.58
605.80	47004.98
605.96	47653.31
606.12	47421.59
606.27	47337.33
606.43	47044.77
606.58	47140.73
606.74	46906.68
606.89	47051.79
607.05	47243.71
607.20	47215.63
607.36	46789.65
607.51	47360.74
607.67	46780.29
607.82	47044.77
607.98	47395.85
608.13	46876.25
608.29	46719.43
608.44	46857.52
608.60	46246.65
608.75	46340.27
608.91	46494.74
609.06	46981.57
609.22	47065.83
609.37	46712.41
609.53	46836.46
609.68	46686.67
609.84	47042.43
609.99	46522.83
610.15	46906.68
610.30	46700.71
610.46	46223.24
610.61	46478.36
610.76	46824.76
610.92	46696.03
611.07	46347.29
611.23	46258.35
611.38	46349.63
611.54	46321.54
611.69	46351.97
611.84	46071.10
612.00	46483.04
612.15	46337.93
612.31	46384.74
612.46	46471.34
612.62	46834.12
612.77	46452.61
612.92	46625.81
613.08	46539.21
613.23	46431.55
613.39	46305.16
613.54	45935.35
613.69	46155.36
613.85	46103.87
614.00	46141.32
614.15	46124.94
614.31	46614.11
614.46	46447.93
614.62	46405.80
614.77	46122.60
614.92	45783.22
615.08	46241.96
615.23	46096.85
615.38	45848.75
615.54	45518.74
615.69	45649.81
615.84	45415.76
616.00	45935.35
616.15	46211.54
616.30	45982.16
616.46	45696.62
616.61	45380.65
616.76	45806.62
616.92	45523.42
617.07	45691.94
617.22	45420.44
617.37	45467.25
617.53	45942.38
617.68	45853.44
617.83	45902.59
617.99	45904.93
618.14	45827.69
618.29	45537.46
618.45	45322.13
618.60	45411.07
618.75	45542.14
618.90	45378.31
619.06	45640.45
619.21	45511.72
619.36	45722.37
619.51	45249.58
619.67	45177.02
619.82	45350.22
619.97	45485.97
620.12	45230.85
620.28	45177.02
620.43	45282.34
620.58	45361.92
620.73	45153.62
620.89	45078.72
621.04	45207.45
621.19	45097.44
621.34	45031.91
621.49	44435.07
621.65	45097.44
621.80	45242.56
621.95	45064.67
622.10	45233.19
622.25	44921.90
622.41	44615.29
622.56	45027.23
622.71	44999.14
622.86	44793.17
623.01	44912.54
623.16	44971.05
623.32	45141.91
623.47	44952.33
623.62	44610.61
623.77	44456.14
623.92	44912.54
624.07	44896.16
624.23	44322.72
624.38	44463.16
624.53	44395.28
624.68	44832.96
624.83	44486.56
624.98	44477.20
625.13	44217.40
625.29	44079.31
625.44	44760.40
625.59	44210.38
625.74	43791.42
625.89	43548.01
626.04	44053.56
626.19	44116.76
626.34	43962.28
626.49	44224.42
626.65	44112.08
626.80	43973.98
626.95	43915.47
627.10	43763.34
627.25	43749.29
627.40	43833.55
627.55	43096.28
627.70	43192.25
627.85	43072.88
628.00	43452.05
628.15	44018.46
628.30	43475.45
628.45	43655.67
628.60	43529.28
628.76	43992.71
628.91	43709.50
629.06	43725.89
629.21	43503.54
629.36	43241.40
629.51	43543.33
629.66	43098.62
629.81	43098.62
629.96	42988.62
630.11	43615.88
630.26	43737.59
630.41	43702.48
630.56	43159.48
630.71	43395.87
630.86	43180.54
631.01	42843.51
631.16	43119.69
631.31	42665.63
631.46	42738.18
631.61	43449.70
631.76	42885.64
631.91	42768.61
632.06	43330.34
632.21	43049.47
632.36	43487.15
632.51	42822.44
632.66	43225.01
632.81	42560.30
632.96	42782.65
633.10	42602.43
633.25	42618.81
633.40	43103.31
633.55	43063.52
633.70	42724.14
633.85	42763.93
634.00	42698.39
634.15	43112.67
634.30	42602.43
634.45	42770.95
634.60	42415.19
634.75	42651.58
634.90	42838.83
635.05	41972.83
635.19	42689.03
635.34	42256.03
635.49	42616.47
635.64	42340.29
635.79	41921.34
635.94	42061.77
636.09	42351.99
636.24	42153.05
636.39	42405.83
636.53	42134.32
636.68	42059.43
636.83	42281.78
636.98	41926.02
637.13	42199.86
637.28	42618.81
637.43	42305.18
637.57	42366.04
637.72	42139.00
637.87	42342.63
638.02	41890.91
638.17	42181.13
638.32	41783.24
638.46	41921.34
638.61	41954.10
638.76	41546.85
638.91	41755.16
639.06	41675.58
639.20	42209.22
639.35	41462.59
639.50	41713.03
639.65	41759.84
639.80	41471.95
639.94	41778.56
640.09	41851.12
640.24	41385.35
640.39	41516.42
640.54	41291.73
640.68	41525.78
640.83	41291.73
640.98	41375.99
641.13	41088.10
641.27	41570.25
641.42	41432.16
641.57	41502.38
641.72	41338.54
641.86	41296.41
642.01	41062.36
642.16	41228.54
642.31	41095.13
642.45	41270.67
642.60	40847.03
642.75	40931.29
642.90	40835.33
643.04	40861.07
643.19	40879.80
643.34	41041.29
643.48	40999.16
643.63	40807.24
643.78	41195.77
643.93	40575.53
644.07	40708.94
644.22	41104.49
644.37	40278.28
644.51	40540.42
644.66	40896.18
644.81	40980.44
644.95	40940.65
645.10	40517.01
645.25	40720.64
645.39	40795.54
645.54	40203.38
645.69	40556.80
645.83	40435.10
645.98	40643.40
646.13	40425.73
646.27	40488.93
646.42	40163.59
646.57	40519.35
646.71	40399.99
646.86	40519.35
647.00	40589.57
647.15	40395.31
647.30	40226.79
647.44	40322.75
647.59	40191.68
647.74	39620.59
647.88	39978.69
648.03	39812.51
648.17	39962.31
648.32	39835.92
648.47	40023.16
648.61	39798.47
648.76	40076.99
648.90	39807.83
649.05	39842.94
649.20	40392.97
649.34	39906.13
649.49	39962.31
649.63	39587.82
649.78	40088.70
649.92	39079.92
650.07	39931.88
650.21	39442.71
650.36	39875.71
650.51	40062.95
650.65	40320.41
650.80	40561.48
650.94	39959.97
651.09	39859.32
651.23	39260.15
651.38	39227.38
651.52	39328.02
651.67	39711.87
651.81	39475.48
651.96	39372.49
652.10	39477.82
652.25	39409.94
652.39	39328.02
652.54	39477.82
652.68	39510.58
652.83	39185.25
652.97	39580.80
653.12	39360.79
653.26	39173.55
653.41	38899.70
653.55	38653.95
653.70	38934.81
653.84	39150.14
653.99	39129.08
654.13	39203.97
654.27	39248.44
654.42	38953.54
654.56	39232.06
654.71	38885.66
654.85	38810.76
655.00	38937.15
655.14	39040.14
655.29	38457.34
655.43	38527.56
655.57	38309.89
655.72	38632.88
655.86	38389.47
656.01	38279.46
656.15	38244.35
656.30	37825.40
656.44	38286.48
656.58	38279.46
656.73	38059.45
656.87	38277.12
657.01	37834.76
657.16	38110.94
657.30	37834.76
657.45	38022.00
657.59	38300.53
657.73	38239.67
657.88	38462.02
658.02	38068.81
658.16	38092.22
658.31	38452.66
658.45	38415.21
658.60	38244.35
658.74	38197.54
658.88	38007.96
659.03	37968.17
659.17	37631.13
659.31	37837.10
659.46	37830.08
659.60	37916.68
659.74	37610.07
659.89	37769.22
660.03	37455.59
660.17	37982.21
660.32	37649.86
660.46	38024.34
660.60	37865.19
660.74	37610.07
660.89	37642.84
661.03	37003.87
661.17	37469.64
661.32	37034.30
661.46	37301.12
661.60	37125.58
661.74	36835.35
661.89	37179.41
662.03	37244.94
662.17	37198.13
662.31	37043.66
662.46	37057.70
662.60	36835.35
662.74	36931.31
662.88	36629.38
663.03	36327.45
663.17	36678.54
663.31	37015.57
663.45	36172.98
663.60	36561.51
663.74	36437.46
663.88	36130.85
664.02	36088.72
664.17	35967.01
664.31	35627.63
664.45	36311.07
664.59	36261.92
664.73	36343.84
664.88	35999.78
665.02	35974.03
665.16	35995.10
665.30	35985.74
665.44	35667.42
665.59	35948.29
665.73	35805.52
665.87	35494.22
666.01	36250.22
666.15	35597.21
666.29	35400.60
666.44	35388.90
666.58	35667.42
666.72	35484.86
666.86	35800.83
667.00	35309.32
667.14	35185.27
667.28	35000.37
667.43	34873.98
667.57	34864.62
667.71	35115.06
667.85	35126.76
667.99	34948.88
668.13	34696.10
668.27	34553.33
668.41	34850.58
668.56	34541.63
668.70	34813.13
668.84	34377.79
668.98	34522.90
669.12	34911.43
669.26	34611.84
669.40	34621.20
669.54	34588.44
669.68	34101.61
669.82	34096.92
669.96	33846.49
670.10	33329.23
670.25	33745.84
670.39	33717.76
670.53	33530.51
670.67	33706.05
670.81	33762.23
670.95	34176.50
671.09	34089.90
671.23	33862.87
671.37	33663.93
671.51	33652.22
671.65	33312.84
671.79	33287.10
671.93	33284.76
672.07	33301.14
672.21	33282.42
672.35	33067.09
672.49	33291.78
672.63	33024.96
672.77	32587.28
672.91	32811.97
673.05	32996.87
673.19	32362.59
673.33	32753.46
673.47	32437.48
673.61	32156.62
673.75	32032.57
673.89	32144.92
674.03	32397.70
674.17	32102.79
674.31	32067.68
674.45	31866.39
674.59	32144.92
674.73	32055.98
674.87	31852.35
675.01	32006.83
675.15	31955.33
675.29	31807.88
675.43	32011.51
675.56	31653.40
675.70	31440.42
675.84	31187.64
675.98	30569.74
676.12	31475.52
676.26	30808.47
676.40	31014.44
676.54	30883.37
676.68	30869.33
676.82	30429.30
676.96	30733.57
677.10	30649.32
677.23	30625.91
677.37	30199.93
677.51	30457.39
677.65	30410.58
677.79	30022.05
677.93	29851.19
678.07	29776.30
678.21	29572.67
678.34	29764.59
678.48	29858.21
678.62	29261.38
678.76	29701.40
678.90	29376.06
679.04	29425.22
679.18	29488.41
679.31	29369.04
679.45	29071.79
679.59	28835.40
679.73	28694.97
679.87	28861.15
680.00	28936.04
680.14	28624.75
680.28	28601.35
680.42	28360.27
680.56	28292.40
680.70	28449.21
680.83	28276.01
680.97	27744.71
681.11	28086.43
681.25	27800.88
681.39	27896.85
681.52	28051.32
681.66	27807.90
681.80	27517.68
681.94	27473.21
682.07	27473.21
682.21	27288.31
682.35	27129.15
682.49	27431.08
682.62	27314.05
682.76	27002.76
682.90	26497.20
683.04	26890.41
683.17	26967.65
683.31	26611.89
683.45	26731.26
683.59	26593.17
683.72	26389.54
683.86	26197.62
684.00	26094.63
684.13	26197.62
684.27	26040.80
684.41	25818.45
684.55	25532.90
684.68	25841.85
684.82	25514.18
684.96	25256.72
685.09	25563.33
685.23	25427.58
685.37	25441.62
685.50	25270.76
685.64	25427.58
685.78	25256.72
685.91	25092.88
686.05	24929.05
686.19	24706.70
686.32	25106.93
686.46	24474.98
686.60	24311.14
686.73	24278.38
686.87	24002.19
687.01	23946.02
687.14	23768.14
687.28	23824.31
687.42	23538.77
687.55	23768.14
687.69	23424.08
687.82	23468.55
687.96	23288.33
688.10	23498.98
688.23	22953.63
688.37	23051.94
688.50	23222.80
688.64	22745.33
688.78	22979.38
688.91	22717.24
689.05	22794.48
689.18	22595.53
689.32	22061.89
689.46	22696.17
689.59	22913.84
689.73	22670.43
689.86	22082.95
690.00	22555.74
690.13	22663.41
690.27	22321.69
690.41	22129.77
690.54	21834.86
690.68	22183.60
690.81	21759.96
690.95	21626.55
691.08	21738.90
691.22	21341.00
691.35	21575.06
691.49	21642.93
691.62	21579.74
691.76	21460.37
691.89	21483.78
692.03	21102.27
692.16	21216.96
692.30	20973.54
692.43	20915.03
692.57	20812.04
692.70	20779.28
692.84	21015.67
692.97	20449.26
693.11	20374.36
693.24	20676.29
693.38	20409.47
693.51	20128.61
693.65	20390.75
693.78	20135.63
693.92	20063.07
694.05	20030.30
694.19	19784.55
694.32	19611.35
694.45	19730.72
694.59	19601.99
694.72	19609.01
694.86	19351.55
694.99	19412.40
695.13	19192.39
695.26	18904.51
695.39	18705.56
695.53	18993.45
695.66	19218.14
695.80	18911.53
695.93	18724.29
696.07	18349.80
696.20	18635.35
696.33	18820.25
696.47	18930.25
696.60	18551.09
696.73	18431.72
696.87	18284.26
697.00	18164.90
697.14	18200.01
697.27	18265.54
697.40	18389.59
697.54	17944.89
697.67	17844.24
697.80	17907.44
697.94	17827.86
698.07	17633.60
698.21	17446.35
698.34	17495.50
698.47	17460.40
698.61	17305.92
698.74	17280.18
698.87	16957.18
699.01	17095.27
699.14	17125.70
699.27	16964.20
699.40	16875.26
699.54	16519.50
699.67	16617.80
699.80	16659.93
699.94	16325.24
700.07	16629.51
700.20	16629.51
700.34	16091.18
700.47	16142.67
700.60	16404.81
700.73	16243.32
700.87	16208.21
701.00	15988.20
701.13	16027.99
701.26	16269.06
701.40	15857.13
701.53	15688.61
701.66	15735.42
701.79	15726.06
701.93	15447.54
702.06	15482.64
702.19	15424.13
702.32	15311.78
702.46	15410.09
702.59	15379.66
702.72	15257.95
702.85	15084.75
702.99	14986.45
703.12	15267.31
703.25	14967.73
703.38	15044.96
703.51	14633.03
703.65	14604.94
703.78	14597.92
703.91	14700.90
704.04	14328.76
704.17	14623.67
704.31	14319.40
704.44	14221.10
704.57	14113.43
704.70	13788.10
704.83	14139.18
704.96	13930.87
705.10	14230.46
705.23	14003.43
>>>>>End Processed Spectral Data<<<<<
