SpectraSuite Data File
++++++++++++++++++++++++++++++++++++
Date: Fri Oct 25 10:44:25 EDT 2013
User: price-jones
Dark Spectrum Present: No
Reference Spectrum Present: No
Number of Sampled Component Spectra: 1
Spectrometers: USB2+H05261
Integration Time (usec): 100000 (USB2+H05261)
Spectra Averaged: 1 (USB2+H05261)
Boxcar Smoothing: 0 (USB2+H05261)
Correct for Electrical Dark: No (USB2+H05261)
Strobe/Lamp Enabled: No (USB2+H05261)
Correct for Detector Non-linearity: No (USB2+H05261)
Correct for Stray Light: No (USB2+H05261)
Number of Pixels in Processed Spectrum: 2048
>>>>>Begin Processed Spectral Data<<<<<
365.73	138.09
365.92	138.09
366.12	138.09
366.32	84.26
366.52	53.83
366.72	105.32
366.91	0.00
367.11	39.79
367.31	7.02
367.51	0.00
367.70	16.38
367.90	49.15
368.10	0.00
368.30	18.72
368.49	56.17
368.69	128.73
368.89	60.85
369.09	0.00
369.28	138.09
369.48	49.15
369.68	28.09
369.87	49.15
370.07	95.96
370.27	44.47
370.47	217.67
370.66	393.21
370.86	423.64
371.06	454.06
371.25	465.77
371.45	423.64
371.65	414.27
371.84	465.77
372.04	440.02
372.24	535.98
372.44	482.15
372.63	528.96
372.83	528.96
373.03	461.09
373.22	486.83
373.42	564.07
373.62	568.75
373.81	559.39
374.01	547.69
374.21	538.32
374.40	592.16
374.60	573.43
374.79	566.41
374.99	540.66
375.19	631.94
375.38	655.35
375.58	500.87
375.78	606.20
375.97	624.92
376.17	571.09
376.37	641.31
376.56	608.54
376.76	571.09
376.95	594.50
377.15	636.63
377.35	603.86
377.54	648.33
377.74	622.58
377.93	641.31
378.13	578.11
378.33	638.97
378.52	655.35
378.72	641.31
378.91	634.29
379.11	678.76
379.31	716.20
379.50	629.60
379.70	638.97
379.89	732.59
380.09	636.63
380.28	603.86
380.48	711.52
380.68	688.12
380.87	692.80
381.07	732.59
381.26	741.95
381.46	702.16
381.65	730.25
381.85	716.20
382.04	702.16
382.24	758.33
382.43	713.86
382.63	758.33
382.83	739.61
383.02	699.82
383.22	812.17
383.41	653.01
383.61	767.70
383.80	807.48
384.00	791.10
384.19	779.40
384.39	844.93
384.58	819.19
384.78	793.44
384.97	828.55
385.17	910.47
385.36	758.33
385.56	814.51
385.75	809.83
385.95	870.68
386.14	887.06
386.34	784.08
386.53	887.06
386.72	849.61
386.92	791.10
387.11	887.06
387.31	889.40
387.50	868.34
387.70	854.30
387.89	922.17
388.09	814.51
388.28	910.47
388.48	887.06
388.67	1006.43
388.86	908.13
389.06	961.96
389.25	1062.60
389.45	1018.13
389.64	1001.75
389.84	1004.09
390.03	994.73
390.22	1027.50
390.42	1020.47
390.61	1081.33
390.81	1104.73
391.00	1064.94
391.19	1149.20
391.39	1034.52
391.58	1107.07
391.78	1097.71
391.97	1048.56
392.16	1100.05
392.36	1142.18
392.55	973.66
392.75	980.68
392.94	1011.11
393.13	1104.73
393.33	980.68
393.52	1095.37
393.71	1118.78
393.91	1123.46
394.10	1231.12
394.29	1210.06
394.49	1261.55
394.68	1275.59
394.88	1191.33
395.07	1266.23
395.26	1282.61
395.46	1310.70
395.65	1224.10
395.84	1217.08
396.04	1233.46
396.23	1207.72
396.42	1226.44
396.62	1228.78
396.81	1287.29
397.00	1249.85
397.19	1341.13
397.39	1327.08
397.58	1376.24
397.77	1418.36
397.97	1481.56
398.16	1465.18
398.35	1516.67
398.55	1476.88
398.74	1572.84
398.93	1593.90
399.12	1565.82
399.32	1556.46
399.51	1586.88
399.70	1570.50
399.90	1572.84
400.09	1591.56
400.28	1673.48
400.47	1673.48
400.67	1703.91
400.86	1720.29
401.05	1717.95
401.24	1729.66
401.44	1820.94
401.63	1860.73
401.82	1813.92
402.01	1884.13
402.21	1825.62
402.40	1771.79
402.59	1853.70
402.78	1914.56
402.97	1832.64
403.17	1806.89
403.36	1825.62
403.55	1987.11
403.74	1942.64
403.93	1767.10
404.13	1928.60
404.32	1867.75
404.51	1961.37
404.70	2047.97
404.89	1940.30
405.09	1977.75
405.28	2045.63
405.47	1982.43
405.66	2012.86
405.85	2099.46
406.05	2054.99
406.24	2040.95
406.43	2080.74
406.62	2059.67
406.81	2228.19
407.00	2036.27
407.20	2127.55
407.39	2062.01
407.58	2202.44
407.77	2326.49
407.96	2349.90
408.15	2289.04
408.34	2328.83
408.54	2415.43
408.73	2335.85
408.92	2328.83
409.11	2452.88
409.30	2396.71
409.49	2417.77
409.68	2328.83
409.87	2392.03
410.07	2394.37
410.26	2600.34
410.45	2588.63
410.64	2635.44
410.83	2644.81
411.02	2509.05
411.21	2649.49
411.40	2602.68
411.59	2597.99
411.78	2757.15
411.98	2726.72
412.17	2750.13
412.36	2754.81
412.55	2782.90
412.74	2834.39
412.93	2792.26
413.12	2843.75
413.31	3052.06
413.50	2911.63
413.69	2862.48
413.88	2986.52
414.07	2932.69
414.26	2939.71
414.45	3012.27
414.64	3101.21
414.83	3080.14
415.02	3124.62
415.22	3166.74
415.41	3419.52
415.60	3145.68
415.79	3192.49
415.98	3302.50
416.17	3452.29
416.36	3316.54
416.55	3365.69
416.74	3356.33
416.93	3449.95
417.12	3295.47
417.31	3377.39
417.50	3534.21
417.69	3501.44
417.88	3405.48
418.07	3524.85
418.26	3578.68
418.45	3676.98
418.64	3728.47
418.83	3672.30
419.02	3641.87
419.21	3719.11
419.39	3630.17
419.58	3768.26
419.77	3517.83
419.96	3719.11
420.15	3716.77
420.34	3852.52
420.53	3957.85
420.72	3908.69
420.91	3932.10
421.10	4070.19
421.29	4056.15
421.48	3920.40
421.67	3925.08
421.86	3899.33
422.05	3889.97
422.24	3796.35
422.43	3981.25
422.61	3974.23
422.80	3957.85
422.99	4023.38
423.18	3971.89
423.37	4049.13
423.56	3992.95
423.75	4023.38
423.94	3992.95
424.13	3929.76
424.32	3936.78
424.50	4046.79
424.69	4126.36
424.88	4072.53
425.07	4135.73
425.26	3943.80
425.45	4002.32
425.64	4105.30
425.83	4159.13
426.01	4161.47
426.20	4154.45
426.39	4086.58
426.58	4060.83
426.77	3990.61
426.96	4163.81
427.15	4086.58
427.33	4222.33
427.52	4182.54
427.71	4231.69
427.90	4215.30
428.09	4250.41
428.28	4243.39
428.46	4266.80
428.65	4320.63
428.84	4395.53
429.03	4519.57
429.22	4264.46
429.40	4283.18
429.59	4259.78
429.78	3960.19
429.97	4028.06
430.16	4011.68
430.34	4222.33
430.53	4208.28
430.72	4278.50
430.91	4327.65
431.10	4484.47
431.28	4688.09
431.47	4840.23
431.66	4821.50
431.85	4692.77
432.03	4870.65
432.22	4802.78
432.41	4865.97
432.60	4912.78
432.79	4884.70
432.97	4975.98
433.16	5053.22
433.35	4652.98
433.54	4713.84
433.72	4772.35
433.91	4793.42
434.10	4889.38
434.28	4929.17
434.47	4870.65
434.66	5139.82
434.85	5163.22
435.03	5062.58
435.22	5123.43
435.41	5266.21
435.59	5167.90
435.78	4983.00
435.97	5221.74
436.16	5364.51
436.34	5313.02
436.53	5401.96
436.72	5313.02
436.90	5261.52
437.09	5348.12
437.28	5289.61
437.46	5359.83
437.65	5371.53
437.84	5420.68
438.02	5181.95
438.21	5191.31
438.40	5214.71
438.58	5626.65
438.77	5582.18
438.96	5636.01
439.14	5657.07
439.33	5907.51
439.52	5816.23
439.70	5760.06
439.89	5837.30
440.08	5942.62
440.26	5877.09
440.45	5900.49
440.63	6024.54
440.82	6127.52
441.01	5956.66
441.19	6249.23
441.38	6216.46
441.57	6263.27
441.75	6244.55
441.94	6562.86
442.12	6274.98
442.31	6635.42
442.50	6558.18
442.68	6443.49
442.87	6494.99
443.05	6429.45
443.24	6602.65
443.43	6853.09
443.61	6621.38
443.80	6839.05
443.98	6502.01
444.17	6523.07
444.35	6717.34
444.54	6724.36
444.73	6808.62
444.91	6473.92
445.10	6719.68
445.28	6579.25
445.47	6637.76
445.65	6668.19
445.84	6834.36
446.02	6829.68
446.21	6839.05
446.39	6857.77
446.58	6780.53
446.77	6675.21
446.95	6846.07
447.14	6932.67
447.32	6820.32
447.51	6843.73
447.69	6780.53
447.88	6935.01
448.06	7047.35
448.25	6906.92
448.43	7035.65
448.62	7040.33
448.80	6829.68
448.99	7084.80
449.17	7007.56
449.36	7052.03
449.54	7105.87
449.73	7351.62
449.91	7248.64
450.10	7456.95
450.28	7295.45
450.46	7424.18
450.65	7351.62
450.83	7412.48
451.02	7445.24
451.20	7494.40
451.39	7461.63
451.57	7426.52
451.76	7435.88
451.94	7550.57
452.13	7485.03
452.31	7412.48
452.49	7222.89
452.68	7644.19
452.86	7470.99
453.05	7515.46
453.23	7435.88
453.42	7517.80
453.60	7407.80
453.78	7658.23
453.97	7691.00
454.15	7541.21
454.34	7442.90
454.52	7892.29
454.70	7791.64
454.89	7737.81
455.07	7861.86
455.26	7815.05
455.44	7866.54
455.62	7985.91
455.81	7932.08
455.99	8126.34
456.17	8021.02
456.36	8060.80
456.54	8168.47
456.73	8116.98
456.91	8390.82
457.09	8407.20
457.28	8528.91
457.46	8238.69
457.64	8248.05
457.83	8231.66
458.01	8217.62
458.19	8327.63
458.38	8531.25
458.56	8344.01
458.74	8599.13
458.93	8589.77
459.11	8542.96
459.29	8582.74
459.48	8542.96
459.66	8774.67
459.84	8622.53
460.03	8842.54
460.21	8734.88
460.39	8978.30
460.57	8697.43
460.76	8882.33
460.94	8997.02
461.12	8952.55
461.31	8828.50
461.49	8847.22
461.67	8863.61
461.85	9029.79
462.04	8992.34
462.22	9214.69
462.40	9078.94
462.59	8997.02
462.77	9153.84
462.95	9191.28
463.13	9355.12
463.32	9158.52
463.50	9305.97
463.68	9202.99
463.86	9312.99
464.05	9212.35
464.23	9198.31
464.41	9343.42
464.59	9186.60
464.78	9511.94
464.96	9310.65
465.14	9064.89
465.32	9397.25
465.50	9694.50
465.69	9624.28
465.87	9586.83
466.05	9364.48
466.23	9308.31
466.41	9490.87
466.60	9643.01
466.78	9383.21
466.96	9652.37
467.14	9486.19
467.32	9633.64
467.51	9802.16
467.69	9476.83
467.87	9607.90
468.05	9713.22
468.23	9851.31
468.41	9797.48
468.60	9811.53
468.78	9968.34
468.96	9781.10
469.14	9760.03
469.32	10153.24
469.50	9696.84
469.69	9891.10
469.87	10125.16
470.05	10068.98
470.23	10125.16
470.41	10303.04
470.59	10164.95
470.77	10272.61
470.95	10438.79
471.14	10581.56
471.32	10277.29
471.50	10647.10
471.68	10452.83
471.86	10773.49
472.04	10649.44
472.22	10785.19
472.40	10483.26
472.58	10850.72
472.77	10771.15
472.95	11103.50
473.13	11262.66
473.31	10951.37
473.49	10721.99
473.67	10712.63
473.85	10876.47
474.03	11143.29
474.21	11145.63
474.39	11449.90
474.57	11257.98
474.75	11330.53
474.93	11590.33
475.12	11473.31
475.30	11573.95
475.48	11627.78
475.66	11775.24
475.84	11665.23
476.02	11723.74
476.20	11726.08
476.38	11817.36
476.56	12208.23
476.74	12159.08
476.92	12035.03
477.10	12145.04
477.28	12535.91
477.46	12587.40
477.64	12556.97
477.82	12629.53
478.00	12922.10
478.18	12744.22
478.36	12809.75
478.54	12940.82
478.72	13184.24
478.90	13179.56
479.08	13359.78
479.26	13432.33
479.44	13717.88
479.62	13708.52
479.80	13877.04
479.98	13898.10
480.16	13884.06
480.34	14047.90
480.52	13879.38
480.70	13926.19
480.88	13963.64
481.06	14122.79
481.24	14541.75
481.41	14595.58
481.59	14773.46
481.77	14883.47
481.95	14991.13
482.13	15080.07
482.31	14941.98
482.49	15250.93
482.67	15222.84
482.85	15564.56
483.03	15861.81
483.21	15625.42
483.39	15789.25
483.57	15889.90
483.74	16032.67
483.92	16067.78
484.10	15763.51
484.28	16327.58
484.46	16673.98
484.64	16638.87
484.82	16460.99
485.00	16868.24
485.18	16769.94
485.35	16699.72
485.53	16751.21
485.71	16453.97
485.89	16933.78
486.07	16549.93
486.25	17188.89
486.43	17151.45
486.61	17362.09
486.78	17884.03
486.96	17790.41
487.14	18160.22
487.32	18106.38
487.50	18293.63
487.68	18658.75
487.85	18691.52
488.03	18956.00
488.21	18970.04
488.39	18930.25
488.57	19115.16
488.75	19386.66
488.92	19709.65
489.10	19697.95
489.28	20072.43
489.46	20161.37
489.64	19964.77
489.81	20762.89
489.99	20753.53
490.17	20802.68
490.35	20872.90
490.53	20748.85
490.70	21090.57
490.88	21055.46
491.06	21378.45
491.24	21219.30
491.41	21160.78
491.59	21624.21
491.77	21453.35
491.95	21593.78
492.13	21743.58
492.30	22066.57
492.48	22073.59
492.66	22155.51
492.84	22761.71
493.01	22757.03
493.19	22623.62
493.37	22803.84
493.54	22801.50
493.72	23133.86
493.90	23208.75
494.08	23297.69
494.25	23887.51
494.43	24013.90
494.61	23543.45
494.79	24238.59
494.96	24004.53
495.14	24112.20
495.32	24528.81
495.49	24414.13
495.67	24563.92
495.85	24758.19
496.02	24816.70
496.20	24996.92
496.38	25057.78
496.55	24891.60
496.73	25893.35
496.91	25324.60
497.09	25497.80
497.26	25867.60
497.44	25701.42
497.62	25827.81
497.79	26225.70
497.97	25614.82
498.14	26181.23
498.32	26368.48
498.50	26019.74
498.67	26785.09
498.85	26705.51
499.03	26693.81
499.20	26625.93
499.38	27030.85
499.56	26948.93
499.73	27393.63
499.91	26855.31
500.08	27302.35
500.26	26993.40
500.44	27344.48
500.61	27112.77
500.79	27056.59
500.97	27634.71
501.14	27964.72
501.32	27936.63
501.49	27798.54
501.67	28081.75
501.84	27927.27
502.02	28397.72
502.20	28294.74
502.37	28400.06
502.55	28582.62
502.72	28563.90
502.90	29116.26
503.07	28879.87
503.25	28919.66
503.43	29008.60
503.60	28917.32
503.78	28774.55
503.95	28952.43
504.13	29092.86
504.30	29359.68
504.48	29537.56
504.65	29558.63
504.83	29982.26
505.01	29799.70
505.18	29745.87
505.36	30569.74
505.53	30195.25
505.71	30569.74
505.88	30417.60
506.06	29949.50
506.23	30855.28
506.41	30295.89
506.58	30295.89
506.76	30438.67
506.93	30869.33
507.11	30581.44
507.28	30593.14
507.46	30649.32
507.63	30679.74
507.81	30714.85
507.98	30593.14
508.16	30965.29
508.33	31435.74
508.50	31519.99
508.68	31463.82
508.85	32060.66
509.03	31922.57
509.20	31716.60
509.38	32060.66
509.55	32187.05
509.73	32025.55
509.90	32444.51
510.08	31957.67
510.25	32163.64
510.42	32355.57
510.60	32292.37
510.77	32423.44
510.95	32924.32
511.12	32687.92
511.30	33067.09
511.47	33369.02
511.64	33137.30
511.82	33200.50
511.99	32690.26
512.17	32912.61
512.34	33202.84
512.51	33111.56
512.69	33322.21
512.86	33563.28
513.04	33888.62
513.21	33439.23
513.38	33493.07
513.56	33401.79
513.73	33532.86
513.90	33869.89
514.08	33811.38
514.25	33855.85
514.43	34178.84
514.60	34045.43
514.77	34092.24
514.95	34300.55
515.12	34527.58
515.29	34211.61
515.47	35328.05
515.64	34838.87
515.81	34890.37
515.99	34555.67
516.16	34499.50
516.33	34305.23
516.51	34363.75
516.68	33804.36
516.85	33951.81
517.03	33984.58
517.20	34209.27
517.37	34763.98
517.54	35412.31
517.72	35154.85
517.89	35042.50
518.06	34637.59
518.24	34349.70
518.41	35255.49
518.58	35241.45
518.75	35000.37
518.93	35803.17
519.10	35817.22
519.27	35803.17
519.45	36233.83
519.62	35931.90
519.79	35962.33
519.96	36210.43
520.14	36402.35
520.31	35913.18
520.48	36285.33
520.65	36074.68
520.83	36467.89
521.00	36814.29
521.17	36378.95
521.34	37090.47
521.52	36989.83
521.69	36989.83
521.86	37294.10
522.03	36917.27
522.20	37357.29
522.38	36950.04
522.55	37261.33
522.72	37102.17
522.89	36971.10
523.07	37270.69
523.24	37233.24
523.41	37912.00
523.58	37521.13
523.75	38267.76
523.92	38295.85
524.10	37670.92
524.27	38433.94
524.44	37752.84
524.61	38103.92
524.78	38197.54
524.96	38326.27
525.13	38178.82
525.30	38859.91
525.47	38433.94
525.64	38321.59
525.81	38424.57
525.98	38597.77
526.16	37947.11
526.33	38087.54
526.50	38415.21
526.67	37787.95
526.84	38501.81
527.01	38050.09
527.18	38827.15
527.36	38646.93
527.53	39122.05
527.70	39636.97
527.87	39358.45
528.04	39313.98
528.21	39091.63
528.38	39030.77
528.55	40177.64
528.72	40053.59
528.89	40121.46
529.07	39278.87
529.24	39096.31
529.41	39828.90
529.58	39414.62
529.75	39498.88
529.92	40163.59
530.09	40027.84
530.26	40044.23
530.43	39807.83
530.60	40231.47
530.77	40278.28
530.94	40507.65
531.11	40521.69
531.28	40280.62
531.46	40399.99
531.63	40486.59
531.80	40355.52
531.97	40229.13
532.14	40327.43
532.31	40355.52
532.48	40320.41
532.65	40620.00
532.82	40306.37
532.99	40554.46
533.16	40538.08
533.33	40797.88
533.50	41273.01
533.67	41069.38
533.84	40467.86
534.01	41050.66
534.18	40975.76
534.35	41406.42
534.52	40847.03
534.69	41235.56
534.86	41748.14
535.03	41504.72
535.20	41701.32
535.37	42148.37
535.54	41926.02
535.71	41617.07
535.88	41846.44
536.05	41708.35
536.22	41469.61
536.38	41584.30
536.55	41308.11
536.72	41357.27
536.89	41530.47
537.06	41385.35
537.23	41989.21
537.40	41813.67
537.57	42227.95
537.74	41881.55
537.91	42115.60
538.08	42139.00
538.25	42043.04
538.42	41581.96
538.59	42057.09
538.75	41734.09
538.92	42134.32
539.09	42560.30
539.26	42253.69
539.43	41989.21
539.60	42405.83
539.77	41963.46
539.94	41970.49
540.11	42010.28
540.28	42464.34
540.44	42160.07
540.61	42572.00
540.78	42396.46
540.95	42124.96
541.12	42274.76
541.29	42476.04
541.46	42553.28
541.62	42920.74
541.79	42927.77
541.96	42351.99
542.13	42298.16
542.30	42775.63
542.47	42899.68
542.63	42899.68
542.80	42714.78
542.97	43604.18
543.14	43435.66
543.31	43250.76
543.48	43655.67
543.64	44105.06
543.81	43833.55
543.98	43311.61
544.15	43414.60
544.32	44259.53
544.48	43796.10
544.65	43770.36
544.82	43812.49
544.99	43487.15
545.16	44105.06
545.32	43346.72
545.49	44158.89
545.66	43842.92
545.83	44137.82
546.00	44502.95
546.16	44060.58
546.33	43908.45
546.50	43725.89
546.67	44011.43
546.83	43531.62
547.00	43849.94
547.17	44041.86
547.34	43548.01
547.50	43922.49
547.67	44093.35
547.84	44507.63
548.00	44371.88
548.17	44762.75
548.34	44685.51
548.51	44463.16
548.67	45113.83
548.84	44622.31
549.01	44444.43
549.18	44587.21
549.34	44741.68
549.51	45067.02
549.68	44643.38
549.84	44776.79
550.01	44842.32
550.18	44854.03
550.34	44945.31
550.51	44903.18
550.68	45078.72
550.84	44357.83
551.01	45144.25
551.18	44811.90
551.34	45125.53
551.51	44947.65
551.68	44966.37
551.84	45228.51
552.01	44758.06
552.18	44856.37
552.34	44891.48
552.51	45013.18
552.68	45052.97
552.84	45488.31
553.01	45207.45
553.18	44975.73
553.34	44905.52
553.51	45153.62
553.67	45312.77
553.84	45694.28
554.01	45081.06
554.17	45808.96
554.34	45556.19
554.51	45923.65
554.67	45675.55
554.84	45509.38
555.00	45588.95
555.17	45268.30
555.33	45560.87
555.50	45586.61
555.67	45385.33
555.83	45574.91
556.00	45228.51
556.16	45881.52
556.33	45624.06
556.50	45556.19
556.66	45947.06
556.83	45565.55
556.99	45593.64
557.16	45638.11
557.32	46197.49
557.49	45689.60
557.65	45790.24
557.82	46190.47
557.98	46246.65
558.15	46148.34
558.32	46087.49
558.48	45867.48
558.65	46000.89
558.81	45666.19
558.98	45890.88
559.14	46122.60
559.31	45691.94
559.47	45652.15
559.64	46358.99
559.80	46335.59
559.97	46485.38
560.13	46256.01
560.30	45951.74
560.46	46543.89
560.63	46426.87
560.79	46241.96
560.96	46464.32
561.12	45886.20
561.29	46106.21
561.45	46146.00
561.61	46089.83
561.78	46099.19
561.94	46541.55
562.11	46021.95
562.27	45965.78
562.44	46464.32
562.60	46419.84
562.77	46492.40
562.93	46473.68
563.10	46789.65
563.26	45811.31
563.42	46752.20
563.59	46216.22
563.75	46333.24
563.92	46351.97
564.08	46679.64
564.24	46476.02
564.41	46532.19
564.57	46007.91
564.74	46476.02
564.90	46436.23
565.07	46438.57
565.23	46466.66
565.39	46440.91
565.56	46604.75
565.72	46260.69
565.88	46576.66
566.05	46248.99
566.21	46349.63
566.38	46248.99
566.54	46574.32
566.70	46616.45
566.87	46686.67
567.03	46494.74
567.19	46824.76
567.36	46457.29
567.52	46436.23
567.68	46642.20
567.85	46574.32
568.01	46555.60
568.17	46401.12
568.34	46698.37
568.50	46635.17
568.66	46281.75
568.83	46548.57
568.99	46401.12
569.15	46611.77
569.32	46534.53
569.48	46506.44
569.64	46738.16
569.81	46777.95
569.97	46759.22
570.13	46686.67
570.30	46635.17
570.46	46302.82
570.62	46206.86
570.78	46424.53
570.95	46515.81
571.11	46492.40
571.27	46696.03
571.43	46487.72
571.60	46632.83
571.76	46382.40
571.92	46897.31
572.09	46845.82
572.25	46473.68
572.41	46754.54
572.57	46941.78
572.74	46887.95
572.90	46394.10
573.06	46686.67
573.22	46728.80
573.38	46815.40
573.55	47093.92
573.71	46749.86
573.87	46492.40
574.03	46707.73
574.20	46557.94
574.36	46749.86
574.52	46665.60
574.68	46749.86
574.84	46520.49
575.01	46674.96
575.17	46679.64
575.33	46693.69
575.49	46747.52
575.65	46965.19
575.82	46780.29
575.98	46574.32
576.14	47117.32
576.30	46700.71
576.46	46899.65
576.62	46506.44
576.79	46850.50
576.95	46473.68
577.11	46424.53
577.27	46799.01
577.43	46916.04
577.59	46618.79
577.75	46625.81
577.92	46480.70
578.08	46719.43
578.24	46529.85
578.40	46389.42
578.56	46550.91
578.72	46270.05
578.88	46916.04
579.04	46759.22
579.21	47002.64
579.37	46761.56
579.53	47419.25
579.69	46611.77
579.85	46623.47
580.01	47311.59
580.17	46937.10
580.33	46976.89
580.49	47136.05
580.65	46951.15
580.82	47435.64
580.98	46761.56
581.14	46726.46
581.30	47299.89
581.46	46995.62
581.62	46796.67
581.78	46871.57
581.94	46997.96
582.10	46473.68
582.26	46958.17
582.42	46583.68
582.58	46960.51
582.74	46916.04
582.90	47129.03
583.06	47110.30
583.22	47089.24
583.38	47306.91
583.54	47089.24
583.70	46862.21
583.86	47093.92
584.02	46426.87
584.18	47072.85
584.34	46644.54
584.50	47028.38
584.66	46827.10
584.82	46782.63
584.98	47065.83
585.14	47100.94
585.30	46787.31
585.46	46838.80
585.62	46637.51
585.78	46672.62
585.94	46536.87
586.10	46738.16
586.26	46726.46
586.42	47084.56
586.58	47033.07
586.74	47000.30
586.90	46766.24
587.06	46763.90
587.22	46953.49
587.38	46658.58
587.54	46979.23
587.70	47239.03
587.86	47079.88
588.02	47274.14
588.18	47363.08
588.34	46909.02
588.49	46438.57
588.65	46277.07
588.81	46574.32
588.97	46106.21
589.13	46113.23
589.29	46323.88
589.45	46553.26
589.61	46504.10
589.77	47124.35
589.93	46976.89
590.08	47028.38
590.24	46890.29
590.40	47590.11
590.56	47402.87
590.72	47140.73
590.88	46925.40
591.04	46700.71
591.20	47161.79
591.35	47126.69
591.51	47136.05
591.67	47070.51
591.83	47138.39
591.99	46838.80
592.15	46883.27
592.31	47143.07
592.46	47157.11
592.62	46689.01
592.78	46981.57
592.94	47220.31
593.10	46965.19
593.26	47023.70
593.41	47217.97
593.57	47229.67
593.73	47084.56
593.89	47000.30
594.05	47393.51
594.20	47168.82
594.36	47386.49
594.52	46663.26
594.68	47325.63
594.84	46897.31
594.99	47304.57
595.15	47269.46
595.31	47351.38
595.47	47164.14
595.62	46862.21
595.78	46969.87
595.94	47349.04
596.10	47100.94
596.25	47379.46
596.41	47452.02
596.57	47129.03
596.73	47093.92
596.88	46962.85
597.04	46932.42
597.20	46791.99
597.36	47208.61
597.51	47274.14
597.67	47143.07
597.83	47416.91
597.99	47538.62
598.14	47180.52
598.30	47054.13
598.46	47171.16
598.61	47047.11
598.77	47014.34
598.93	46871.57
599.09	47068.17
599.24	47363.08
599.40	46857.52
599.56	47210.95
599.71	47187.54
599.87	47178.18
600.03	46911.36
600.18	47138.39
600.34	47019.02
600.50	47283.50
600.65	46857.52
600.81	47077.54
600.97	47206.26
601.12	47639.26
601.28	47281.16
601.44	46986.25
601.59	47124.35
601.75	46810.71
601.91	46667.94
602.06	46511.13
602.22	46670.28
602.37	47217.97
602.53	47164.14
602.69	47271.80
602.84	46836.46
603.00	47187.54
603.16	46852.84
603.31	47271.80
603.47	47311.59
603.62	47014.34
603.78	47295.21
603.94	47208.61
604.09	47334.99
604.25	46990.94
604.40	46916.04
604.56	47138.39
604.71	47349.04
604.87	46997.96
605.03	46789.65
605.18	46799.01
605.34	46735.82
605.49	46766.24
605.65	46632.83
605.80	46548.57
605.96	46829.44
606.12	46997.96
606.27	46958.17
606.43	46691.35
606.58	46934.76
606.74	46506.44
606.89	46525.17
607.05	46813.05
607.20	47353.72
607.36	46497.08
607.51	46838.80
607.67	47033.07
607.82	46485.38
607.98	46644.54
608.13	46780.29
608.29	46686.67
608.44	46518.15
608.60	46148.34
608.75	46234.94
608.91	46438.57
609.06	46506.44
609.22	46770.93
609.37	46375.37
609.53	46660.92
609.68	46504.10
609.84	46600.07
609.99	46167.07
610.15	46028.98
610.30	46375.37
610.46	46134.30
610.61	46330.90
610.76	46389.42
610.92	46593.04
611.07	46422.19
611.23	46181.11
611.38	46330.90
611.54	46534.53
611.69	46356.65
611.84	46490.06
612.00	46431.55
612.15	46036.00
612.31	46103.87
612.46	45937.69
612.62	46401.12
612.77	46216.22
612.92	46358.99
613.08	45947.06
613.23	46167.07
613.39	45954.08
613.54	45598.32
613.69	45579.59
613.85	45904.93
614.00	45909.61
614.15	46113.23
614.31	46476.02
614.46	46426.87
614.62	45940.04
614.77	45916.63
614.92	45808.96
615.08	45963.44
615.23	45722.37
615.38	45837.05
615.54	45724.71
615.69	45858.12
615.84	45371.28
616.00	45272.98
616.15	45347.88
616.30	45764.49
616.46	45050.63
616.61	45027.23
616.76	45127.87
616.92	45003.82
617.07	45375.97
617.22	45141.91
617.37	45191.06
617.53	45361.92
617.68	45619.38
617.83	45432.14
617.99	45319.79
618.14	45071.70
618.29	45397.03
618.45	45151.27
618.60	44971.05
618.75	45104.46
618.90	45282.34
619.06	44985.10
619.21	45537.46
619.36	45509.38
619.51	45193.40
619.67	45104.46
619.82	44687.85
619.97	45603.00
620.12	44699.55
620.28	44844.66
620.43	44603.59
620.58	44903.18
620.73	44942.97
620.89	44835.30
621.04	45043.61
621.19	44744.02
621.34	44666.78
621.49	45111.49
621.65	45045.95
621.80	44643.38
621.95	44821.26
622.10	44718.28
622.25	43985.69
622.41	44224.42
622.56	44587.21
622.71	44301.66
622.86	44105.06
623.01	44406.98
623.16	44142.50
623.32	44336.77
623.47	44439.75
623.62	44388.26
623.77	43983.35
623.92	44266.55
624.07	44254.85
624.23	44165.91
624.38	44547.42
624.53	44437.41
624.68	44069.95
624.83	43964.62
624.98	43885.04
625.13	43828.87
625.29	43943.56
625.44	43763.34
625.59	43908.45
625.74	43278.85
625.89	43409.92
626.04	43821.85
626.19	43756.32
626.34	43796.10
626.49	43796.10
626.65	43952.92
626.80	44067.61
626.95	43625.25
627.10	43728.23
627.25	43718.87
627.40	43744.61
627.55	42855.21
627.70	43086.92
627.85	43274.16
628.00	42941.81
628.15	43562.05
628.30	42831.80
628.45	43372.47
628.60	43629.93
628.76	43653.33
628.91	43428.64
629.06	43215.65
629.21	43110.33
629.36	43313.95
629.51	42990.96
629.66	43115.01
629.81	43150.12
629.96	42808.40
630.11	43248.42
630.26	43037.77
630.41	43068.20
630.56	43281.19
630.71	43093.94
630.86	42787.33
631.01	42927.77
631.16	42820.10
631.31	42649.24
631.46	42738.18
631.61	42609.45
631.76	42653.92
631.91	42859.89
632.06	42981.60
632.21	43058.84
632.36	43070.54
632.51	42270.08
632.66	42188.16
632.81	42249.01
632.96	42440.93
633.10	42321.57
633.25	42637.54
633.40	42583.71
633.55	42841.17
633.70	42284.12
633.85	42389.44
634.00	42403.49
634.15	42443.27
634.30	42457.32
634.45	42038.36
634.60	42422.21
634.75	42237.31
634.90	42181.13
635.05	42157.73
635.19	41991.55
635.34	42230.29
635.49	42141.35
635.64	42026.66
635.79	41748.14
635.94	41921.34
636.09	42122.62
636.24	41886.23
636.39	41432.16
636.53	41713.03
636.68	41867.50
636.83	41624.09
636.98	41722.39
637.13	41603.02
637.28	42082.83
637.43	41926.02
637.57	42103.90
637.72	41696.64
637.87	41853.46
638.02	42185.82
638.17	41729.41
638.32	41303.43
638.46	41874.52
638.61	41572.60
638.76	41361.95
638.91	41979.85
639.06	41661.54
639.20	41357.27
639.35	41574.94
639.50	41635.79
639.65	41872.18
639.80	41844.10
639.94	41535.15
640.09	41591.32
640.24	40982.78
640.39	40828.30
640.54	40802.56
640.68	41574.94
640.83	41158.32
640.98	40765.11
641.13	40875.12
641.27	41378.33
641.42	40982.78
641.57	40978.10
641.72	41127.89
641.86	40568.51
642.01	40648.08
642.16	40495.95
642.31	40362.54
642.45	40823.62
642.60	40495.95
642.75	40823.62
642.90	40821.28
643.04	40893.84
643.19	40311.05
643.34	40837.67
643.48	40395.31
643.63	40755.75
643.78	40411.69
643.93	40341.47
644.07	40509.99
644.22	40135.51
644.37	39845.28
644.51	40411.69
644.66	40744.05
644.81	40699.58
644.95	40594.25
645.10	40268.92
645.25	40659.79
645.39	40315.73
645.54	40194.02
645.69	40119.12
645.83	39739.96
645.98	40289.98
646.13	39894.43
646.27	40828.30
646.42	39969.33
646.57	40222.11
646.71	39831.24
646.86	40205.72
647.00	39868.69
647.15	40179.98
647.30	40385.94
647.44	39653.36
647.59	39927.20
647.74	39667.40
647.88	39709.53
648.03	40128.48
648.17	39941.24
648.32	39480.16
648.47	39716.55
648.61	39463.77
648.76	39835.92
648.90	39489.52
649.05	39746.98
649.20	39765.70
649.34	39206.31
649.49	39365.47
649.63	39229.72
649.78	39367.81
649.92	39372.49
650.07	39632.29
650.21	39538.67
650.36	39353.77
650.51	39503.56
650.65	39545.69
650.80	39672.08
650.94	39632.29
651.09	39454.41
651.23	39194.61
651.38	39725.91
651.52	39318.66
651.67	39012.05
651.81	38871.62
651.96	39295.25
652.10	38611.82
652.25	38742.89
652.39	38859.91
652.54	39201.63
652.68	38953.54
652.83	38745.23
652.97	39571.44
653.12	38850.55
653.26	38478.41
653.41	38965.24
653.55	38937.15
653.70	38476.07
653.84	38855.23
653.99	39159.50
654.13	38719.48
654.27	38492.45
654.42	38520.54
654.56	38129.67
654.71	38712.46
654.85	38422.23
655.00	38817.78
655.14	38082.86
655.29	38253.72
655.43	38302.87
655.57	37860.51
655.72	37851.14
655.86	37493.04
656.01	37645.18
656.15	37837.10
656.30	37785.61
656.44	37921.36
656.58	37846.46
656.73	37453.25
656.87	37848.80
657.01	37647.52
657.16	37998.60
657.30	37666.24
657.45	37542.19
657.59	38038.39
657.73	37832.42
657.88	38073.49
658.02	38377.76
658.16	38408.19
658.31	38183.50
658.45	37844.12
658.60	37684.97
658.74	37816.04
658.88	37638.15
659.03	37502.40
659.17	37455.59
659.31	37144.30
659.46	37509.43
659.60	37507.08
659.74	37572.62
659.89	37457.93
660.03	37366.65
660.17	37460.27
660.32	37275.37
660.46	37198.13
660.60	37357.29
660.74	37294.10
660.89	37450.91
661.03	36779.18
661.17	36737.05
661.32	36804.92
661.46	36694.92
661.60	36690.24
661.74	36919.61
661.89	36898.55
662.03	36877.48
662.17	36364.90
662.31	36430.44
662.46	36694.92
662.60	36669.17
662.74	36376.61
662.88	36542.78
663.03	36290.01
663.17	35725.94
663.31	35840.62
663.45	35950.63
663.60	36236.17
663.74	35859.35
663.88	36247.88
664.02	36016.16
664.17	35627.63
664.31	35833.60
664.45	35618.27
664.59	35995.10
664.73	35431.03
664.88	35938.93
665.02	35903.82
665.16	35700.19
665.30	35871.05
665.44	35386.56
665.59	35306.98
665.73	35510.61
665.87	35246.13
666.01	35452.09
666.15	34827.17
666.29	35159.53
666.44	35594.87
666.58	35012.07
666.72	35318.68
666.86	35093.99
667.00	35306.98
667.14	34883.34
667.28	34742.91
667.43	34637.59
667.57	34838.87
667.71	34672.70
667.85	34209.27
667.99	34534.60
668.13	34565.03
668.27	34672.70
668.41	34312.25
668.56	34354.38
668.70	34352.04
668.84	34293.53
668.98	33832.44
669.12	33942.45
669.26	33996.28
669.40	33619.46
669.54	33848.83
669.68	33642.86
669.82	33469.66
669.96	33647.54
670.10	33214.54
670.25	33694.35
670.39	33582.01
670.53	33596.05
670.67	33345.61
670.81	33666.27
670.95	33390.08
671.09	33652.22
671.23	33205.18
671.37	33413.49
671.51	33111.56
671.65	32772.18
671.79	33132.62
671.93	32556.85
672.07	32907.93
672.21	32804.95
672.35	32606.00
672.49	32732.39
672.63	32723.03
672.77	32507.70
672.91	32376.63
673.05	32517.06
673.19	32175.34
673.33	32079.38
673.47	31924.91
673.61	31967.04
673.75	32109.81
673.89	31679.15
674.03	31828.95
674.17	31800.86
674.31	31798.52
674.45	32149.60
674.59	31442.76
674.73	31842.99
674.87	31814.90
675.01	31438.08
675.15	31267.22
675.29	31428.71
675.43	31215.72
675.56	31356.16
675.70	31192.32
675.84	31211.04
675.98	30183.55
676.12	30883.37
676.26	30904.43
676.40	30859.96
676.54	30693.79
676.68	30752.30
676.82	30216.32
676.96	30576.76
677.10	30429.30
677.23	30436.33
677.37	30099.29
677.51	30026.73
677.65	29883.96
677.79	29715.44
677.93	29841.83
678.07	29488.41
678.21	29371.38
678.34	29539.90
678.48	29490.75
678.62	29455.64
678.76	28765.18
678.90	28762.84
679.04	28917.32
679.18	28627.09
679.31	28521.77
679.45	28783.91
679.59	28390.70
679.73	28086.43
679.87	28390.70
680.00	28311.12
680.14	28208.14
680.28	28264.31
680.42	28058.34
680.56	27953.02
680.70	28091.11
680.83	28041.96
680.97	28236.22
681.11	28219.84
681.25	27618.32
681.39	27594.92
681.52	27784.50
681.66	27264.90
681.80	27505.98
681.94	27072.98
682.07	27363.20
682.21	26885.73
682.35	26998.08
682.49	27321.07
682.62	26654.02
682.76	26998.08
682.90	26658.70
683.04	26185.91
683.17	26658.70
683.31	26291.24
683.45	25766.96
683.59	25881.64
683.72	25825.47
683.86	25813.77
684.00	26015.05
684.13	26008.03
684.27	25572.69
684.41	25715.47
684.55	25500.14
684.68	25350.34
684.82	25268.42
684.96	25247.36
685.09	25331.62
685.23	25118.63
685.37	25013.31
685.50	24989.90
685.64	25259.06
685.78	24907.98
685.91	24608.39
686.05	24781.59
686.19	24201.14
686.32	24077.09
686.46	23985.81
686.60	23583.24
686.73	24079.43
686.87	23515.36
687.01	23468.55
687.14	23171.30
687.28	23330.46
687.42	23192.37
687.55	23585.58
687.69	23646.43
687.82	23173.64
687.96	23370.25
688.10	23620.69
688.23	23311.74
688.37	22923.21
688.50	22661.07
688.64	22946.61
688.78	22492.55
688.91	22518.29
689.05	22616.60
689.18	22635.32
689.32	22246.79
689.46	22295.94
689.59	22237.43
689.73	22352.12
689.86	22214.02
690.00	22153.17
690.13	22167.21
690.27	22232.75
690.41	22047.85
690.54	21308.24
690.68	21544.63
690.81	21413.56
690.95	21338.66
691.08	21228.66
691.22	21624.21
691.35	21387.82
691.49	21324.62
691.62	21411.22
691.76	21135.04
691.89	20900.98
692.03	20947.79
692.16	20697.36
692.30	20425.86
692.43	20465.64
692.57	19964.77
692.70	20451.60
692.84	20460.96
692.97	20348.62
693.11	20102.86
693.24	20135.63
693.38	20084.14
693.51	20135.63
693.65	19969.45
693.78	19868.81
693.92	19936.68
694.05	19552.84
694.19	19924.98
694.32	19805.61
694.45	19536.45
694.59	19297.72
694.72	19236.86
694.86	19262.61
694.99	19044.94
695.13	18853.02
695.26	19019.19
695.39	18721.95
695.53	18853.02
695.66	19000.47
695.80	18607.26
695.93	18665.77
696.07	18462.15
696.20	18572.15
696.33	18455.12
696.47	18207.03
696.60	18466.83
696.73	17790.41
696.87	17881.69
697.00	18258.52
697.14	18045.53
697.27	17900.42
697.40	18136.81
697.54	17635.94
697.67	17568.06
697.80	17834.88
697.94	17619.55
698.07	17458.06
698.21	17289.54
698.34	17413.59
698.47	16999.31
698.61	16713.77
698.74	16877.60
698.87	16964.20
699.01	16475.03
699.14	16662.27
699.27	16496.10
699.40	16758.24
699.54	16318.22
699.67	16428.22
699.80	16259.70
699.94	16320.56
700.07	16121.61
700.20	16226.93
700.34	16173.10
700.47	16203.53
700.60	16475.03
700.73	16414.18
700.87	16093.52
701.00	16023.31
701.13	15805.64
701.26	15651.16
701.40	15606.69
701.53	15384.34
701.66	15356.25
701.79	15538.82
701.93	15281.36
702.06	14965.39
702.19	15150.29
702.32	15379.66
702.46	15030.92
702.59	15105.82
702.72	14803.89
702.85	15061.35
702.99	14853.04
703.12	14668.14
703.25	14621.33
703.38	14640.05
703.51	14675.16
703.65	14476.21
703.78	14523.02
703.91	14565.15
704.04	14342.80
704.17	14214.07
704.31	14167.26
704.44	14253.86
704.57	13984.70
704.70	14104.07
704.83	14127.47
704.96	14043.21
705.10	13778.73
705.23	13888.74
>>>>>End Processed Spectral Data<<<<<
