SpectraSuite Data File
++++++++++++++++++++++++++++++++++++
Date: Fri Oct 25 10:43:49 EDT 2013
User: price-jones
Dark Spectrum Present: No
Reference Spectrum Present: No
Number of Sampled Component Spectra: 1
Spectrometers: USB2+H05261
Integration Time (usec): 100000 (USB2+H05261)
Spectra Averaged: 1 (USB2+H05261)
Boxcar Smoothing: 0 (USB2+H05261)
Correct for Electrical Dark: No (USB2+H05261)
Strobe/Lamp Enabled: No (USB2+H05261)
Correct for Detector Non-linearity: No (USB2+H05261)
Correct for Stray Light: No (USB2+H05261)
Number of Pixels in Processed Spectrum: 2048
>>>>>Begin Processed Spectral Data<<<<<
365.73	170.86
365.92	170.86
366.12	170.86
366.32	4.68
366.52	53.83
366.72	35.11
366.91	0.00
367.11	72.56
367.31	0.00
367.51	25.75
367.70	65.54
367.90	23.41
368.10	11.70
368.30	11.70
368.49	0.00
368.69	42.13
368.89	49.15
369.09	65.54
369.28	46.81
369.48	0.00
369.68	112.35
369.87	63.19
370.07	67.88
370.27	102.98
370.47	180.22
370.66	407.25
370.86	418.96
371.06	468.11
371.25	517.26
371.45	416.62
371.65	472.79
371.84	496.19
372.04	416.62
372.24	528.96
372.44	489.17
372.63	479.81
372.83	526.62
373.03	449.38
373.22	472.79
373.42	482.15
373.62	479.81
373.81	528.96
374.01	599.18
374.21	524.28
374.40	521.94
374.60	528.96
374.79	435.34
374.99	505.56
375.19	617.90
375.38	615.56
375.58	514.92
375.78	620.24
375.97	596.84
376.17	580.45
376.37	617.90
376.56	627.26
376.76	561.73
376.95	547.69
377.15	695.14
377.35	667.05
377.54	667.05
377.74	662.37
377.93	645.99
378.13	610.88
378.33	737.27
378.52	709.18
378.72	592.16
378.91	655.35
379.11	685.78
379.31	599.18
379.50	667.05
379.70	634.29
379.89	690.46
380.09	709.18
380.28	716.20
380.48	645.99
380.68	730.25
380.87	676.41
381.07	730.25
381.26	734.93
381.46	676.41
381.65	744.29
381.85	704.50
382.04	713.86
382.24	732.59
382.43	681.10
382.63	610.88
382.83	744.29
383.02	720.88
383.22	777.06
383.41	772.38
383.61	692.80
383.80	681.10
384.00	704.50
384.19	718.54
384.39	786.42
384.58	732.59
384.78	777.06
384.97	774.72
385.17	830.89
385.36	737.27
385.56	791.10
385.75	809.83
385.95	800.46
386.14	802.80
386.34	770.04
386.53	842.59
386.72	795.78
386.92	915.15
387.11	912.81
387.31	849.61
387.50	833.23
387.70	870.68
387.89	889.40
388.09	809.83
388.28	856.64
388.48	880.04
388.67	910.47
388.86	966.64
389.06	952.60
389.25	983.02
389.45	882.38
389.64	922.17
389.84	875.36
390.03	968.98
390.22	966.64
390.42	1036.86
390.61	903.45
390.81	1025.15
391.00	1036.86
391.19	1034.52
391.39	1151.54
391.58	1060.26
391.78	1006.43
391.97	1022.81
392.16	983.02
392.36	1100.05
392.55	1130.48
392.75	978.34
392.94	870.68
393.13	926.85
393.33	966.64
393.52	1083.67
393.71	1123.46
393.91	1090.69
394.10	1146.86
394.29	1097.71
394.49	1132.82
394.68	1240.48
394.88	1228.78
395.07	1282.61
395.26	1228.78
395.46	1210.06
395.65	1132.82
395.84	1261.55
396.04	1270.91
396.23	1151.54
396.42	1165.59
396.62	1132.82
396.81	1219.42
397.00	1181.97
397.19	1203.04
397.39	1261.55
397.58	1343.47
397.77	1385.60
397.97	1411.34
398.16	1364.53
398.35	1444.11
398.55	1483.90
398.74	1462.83
398.93	1561.14
399.12	1416.02
399.32	1490.92
399.51	1493.26
399.70	1528.37
399.90	1514.33
400.09	1598.59
400.28	1596.25
400.47	1664.12
400.67	1591.56
400.86	1572.84
401.05	1673.48
401.24	1664.12
401.44	1621.99
401.63	1729.66
401.82	1722.63
402.01	1720.29
402.21	1755.40
402.40	1785.83
402.59	1748.38
402.78	1724.97
402.97	1741.36
403.17	1703.91
403.36	1816.26
403.55	1865.41
403.74	1923.92
403.93	1858.39
404.13	1872.43
404.32	1790.51
404.51	1790.51
404.70	2050.31
404.89	1909.88
405.09	2015.20
405.28	1926.26
405.47	1991.80
405.66	2054.99
405.85	1916.90
406.05	1994.14
406.24	2101.80
406.43	2090.10
406.62	2115.84
406.81	2244.57
407.00	2069.03
407.20	2040.95
407.39	2064.35
407.58	2160.31
407.77	2216.49
407.96	2249.25
408.15	2253.94
408.34	2167.34
408.54	2186.06
408.73	2253.94
408.92	2260.96
409.11	2239.89
409.30	2396.71
409.49	2188.40
409.68	2228.19
409.87	2207.13
410.07	2275.00
410.26	2342.88
410.45	2392.03
410.64	2495.01
410.83	2546.50
411.02	2485.65
411.21	2633.10
411.40	2581.61
411.59	2682.25
411.78	2569.91
411.98	2583.95
412.17	2633.10
412.36	2609.70
412.55	2651.83
412.74	2682.25
412.93	2705.66
413.12	2623.74
413.31	2892.90
413.50	2827.37
413.69	2946.73
413.88	2892.90
414.07	2967.80
414.26	2991.20
414.45	2977.16
414.64	2979.50
414.83	2972.48
415.02	3096.53
415.22	2970.14
415.41	3157.38
415.60	3297.81
415.79	3105.89
415.98	3323.56
416.17	3356.33
416.36	3148.02
416.55	3204.19
416.74	3321.22
416.93	3197.17
417.12	3225.26
417.31	3302.50
417.50	3208.87
417.69	3337.60
417.88	3414.84
418.07	3421.86
418.26	3314.20
418.45	3461.65
418.64	3597.40
418.83	3571.66
419.02	3489.74
419.21	3499.10
419.39	3492.08
419.58	3510.80
419.77	3531.87
419.96	3625.49
420.15	3679.32
420.34	3669.96
420.53	3730.81
420.72	3885.29
420.91	3719.11
421.10	3822.09
421.29	3885.29
421.48	3833.80
421.67	3887.63
421.86	3880.61
422.05	3840.82
422.24	3742.52
422.43	3761.24
422.61	3836.14
422.80	3873.59
422.99	3871.25
423.18	3838.48
423.37	4039.76
423.56	4018.70
423.75	3873.59
423.94	4023.38
424.13	3590.38
424.32	3810.39
424.50	4093.60
424.69	3992.95
424.88	3892.31
425.07	3887.63
425.26	3833.80
425.45	3957.85
425.64	3824.44
425.83	3875.93
426.01	4023.38
426.20	4032.74
426.39	4014.02
426.58	4016.36
426.77	3953.16
426.96	3974.23
427.15	3810.39
427.33	3885.29
427.52	4098.28
427.71	4217.65
427.90	4145.09
428.09	4276.16
428.28	4154.45
428.46	4131.05
428.65	4126.36
428.84	4313.61
429.03	4138.07
429.22	4208.28
429.40	4234.03
429.59	4145.09
429.78	3946.14
429.97	3899.33
430.16	4046.79
430.34	3957.85
430.53	4161.47
430.72	4264.46
430.91	4124.02
431.10	4353.40
431.28	4479.79
431.47	4613.20
431.66	4692.77
431.85	4557.02
432.03	4535.96
432.22	4652.98
432.41	4669.37
432.60	4648.30
432.79	4671.71
432.97	4784.06
433.16	4720.86
433.35	4620.22
433.54	4779.37
433.72	4620.22
433.91	4744.27
434.10	4692.77
434.28	4678.73
434.47	4873.00
434.66	4840.23
434.85	4863.63
435.03	4760.65
435.22	4847.25
435.41	4966.62
435.59	4980.66
435.78	5022.79
435.97	5160.88
436.16	5053.22
436.34	5128.11
436.53	5109.39
436.72	5135.14
436.90	5121.09
437.09	5191.31
437.28	5191.31
437.46	5322.38
437.65	5263.86
437.84	5217.05
438.02	5062.58
438.21	5151.52
438.40	5081.30
438.58	5504.94
438.77	5453.45
438.96	5462.81
439.14	5586.86
439.33	5715.59
439.52	5549.41
439.70	5605.58
439.89	5603.24
440.08	5661.76
440.26	5621.97
440.45	5671.12
440.63	5841.98
440.82	5966.03
441.01	5996.45
441.19	5977.73
441.38	6059.65
441.57	6087.73
441.75	6136.88
441.94	6211.78
442.12	6291.36
442.31	6457.54
442.50	6164.97
442.68	6066.67
442.87	6331.15
443.05	6368.60
443.24	6476.26
443.43	6434.13
443.61	6619.04
443.80	6583.93
443.98	6279.66
444.17	6260.93
444.35	6429.45
444.54	6703.29
444.73	6413.07
444.91	6431.79
445.10	6455.20
445.28	6434.13
445.47	6443.49
445.65	6422.43
445.84	6518.39
446.02	6614.35
446.21	6574.56
446.39	6527.75
446.58	6670.53
446.77	6656.48
446.95	6389.66
447.14	6654.14
447.32	6665.85
447.51	6621.38
447.69	6768.83
447.88	6757.13
448.06	6778.19
448.25	6635.42
448.43	6707.98
448.62	6726.70
448.80	6656.48
448.99	6862.45
449.17	6806.28
449.36	6855.43
449.54	6956.07
449.73	7045.01
449.91	7211.19
450.10	7089.48
450.28	7314.17
450.46	7262.68
450.65	7328.22
450.83	7148.00
451.02	7103.53
451.20	7281.41
451.39	7166.72
451.57	7260.34
451.76	7091.82
451.94	7145.66
452.13	7260.34
452.31	7166.72
452.49	7166.72
452.68	7229.91
452.86	7190.13
453.05	7433.54
453.23	7321.20
453.42	7269.70
453.60	7321.20
453.78	7520.14
453.97	7386.73
454.15	7283.75
454.34	7208.85
454.52	7410.14
454.70	7588.02
454.89	7513.12
455.07	7583.34
455.26	7606.74
455.44	7789.30
455.62	7592.70
455.81	7808.03
455.99	7742.49
456.17	7791.64
456.36	7995.27
456.54	7918.03
456.73	7955.48
456.91	8201.24
457.09	7985.91
457.28	8124.00
457.46	7995.27
457.64	8086.55
457.83	8170.81
458.01	7911.01
458.19	8241.03
458.38	8105.28
458.56	8376.78
458.74	8273.79
458.93	8201.24
459.11	8252.73
459.29	8119.32
459.48	8332.31
459.66	8205.92
459.84	8257.41
460.03	8557.00
460.21	8620.19
460.39	8557.00
460.57	8528.91
460.76	8444.65
460.94	8645.94
461.12	8674.03
461.31	8592.11
461.49	8800.41
461.67	8594.45
461.85	8872.97
462.04	8702.11
462.22	9006.38
462.40	8767.65
462.59	8842.54
462.77	8772.33
462.95	8973.61
463.13	8891.70
463.32	8739.56
463.50	8936.17
463.68	9090.64
463.86	9015.74
464.05	8922.12
464.23	8987.66
464.41	9198.31
464.59	9011.06
464.78	9055.53
464.96	9207.67
465.14	8978.30
465.32	9362.14
465.50	9427.68
465.69	9423.00
465.87	9254.48
466.05	9179.58
466.23	9130.43
466.41	9114.05
466.60	9432.36
466.78	9055.53
466.96	9280.22
467.14	9167.88
467.32	9397.25
467.51	9507.26
467.69	9334.06
467.87	9425.34
468.05	9619.60
468.23	9427.68
468.41	9425.34
468.60	9729.61
468.78	9624.28
468.96	9364.48
469.14	9678.12
469.32	9832.59
469.50	9537.68
469.69	9769.40
469.87	9944.94
470.05	9884.08
470.23	9851.31
470.41	9715.56
470.59	9643.01
470.77	10031.54
470.95	10017.49
471.14	10052.60
471.32	9958.98
471.50	10328.78
471.68	10200.05
471.86	10413.04
472.04	10499.64
472.22	10600.29
472.40	10188.35
472.58	10548.79
472.77	10457.51
472.95	10759.44
473.13	10810.93
473.31	10415.38
473.49	10413.04
473.67	10544.11
473.85	10815.62
474.03	11007.54
474.21	10799.23
474.39	10958.39
474.57	10944.34
474.75	10974.77
474.93	11094.14
475.12	11220.53
475.30	11400.75
475.48	11227.55
475.66	11529.48
475.84	11391.39
476.02	11363.30
476.20	11276.70
476.38	11569.27
476.56	11918.01
476.74	11875.88
476.92	11859.49
477.10	11803.32
477.28	11906.31
477.46	11868.86
477.64	12086.53
477.82	12491.44
478.00	12552.29
478.18	12423.56
478.36	12521.87
478.54	12940.82
478.72	12458.67
478.90	12767.62
479.08	13109.34
479.26	12975.93
479.44	13097.64
479.62	13319.99
479.80	13256.79
479.98	13451.06
480.16	13268.50
480.34	13462.76
480.52	13621.92
480.70	13839.59
480.88	13832.57
481.06	13851.29
481.24	14111.09
481.41	14338.12
481.59	14352.16
481.77	14335.78
481.95	14483.24
482.13	14427.06
482.31	14527.71
482.49	14862.40
482.67	15131.56
482.85	15026.24
483.03	15152.63
483.21	15300.08
483.39	15459.24
483.57	15180.71
483.74	15454.56
483.92	15733.08
484.10	15536.48
484.28	15758.83
484.46	16051.39
484.64	16430.56
484.82	16063.10
485.00	16109.91
485.18	16573.33
485.35	16613.12
485.53	16306.51
485.71	16238.64
485.89	16723.13
486.07	16566.31
486.25	16528.86
486.43	16444.60
486.61	17099.95
486.78	17387.84
486.96	17411.25
487.14	17579.76
487.32	17776.37
487.50	17874.67
487.68	18120.43
487.85	18230.43
488.03	18408.31
488.21	18312.35
488.39	18410.65
488.57	18707.90
488.75	18569.81
488.92	19108.13
489.10	19697.95
489.28	19515.39
489.46	19646.46
489.64	19314.10
489.81	20219.89
489.99	20086.48
490.17	19974.13
490.35	20327.55
490.53	20648.21
490.70	20355.64
490.88	20435.22
491.06	20835.45
491.24	20706.72
491.41	20989.92
491.59	20360.32
491.77	20753.53
491.95	21104.61
492.13	21142.06
492.30	21720.17
492.48	21720.17
492.66	21989.33
492.84	21886.35
493.01	21930.82
493.19	22036.14
493.37	22277.22
493.54	22246.79
493.72	22373.18
493.90	22600.21
494.08	22920.87
494.25	23227.48
494.43	23232.16
494.61	23098.75
494.79	23608.98
494.96	23601.96
495.14	23213.43
495.32	23709.63
495.49	23489.62
495.67	23529.41
495.85	23768.14
496.02	24063.05
496.20	24149.65
496.38	24423.49
496.55	24219.86
496.73	25319.92
496.91	24711.38
497.09	24896.28
497.26	25146.72
497.44	25151.40
497.62	24835.42
497.79	25663.97
497.97	24996.92
498.14	25305.87
498.32	25565.67
498.50	25853.56
498.67	25867.60
498.85	25970.58
499.03	26192.94
499.20	26223.36
499.38	26078.25
499.56	26347.41
499.73	26726.58
499.91	26672.74
500.08	26621.25
500.26	26267.83
500.44	26480.82
500.61	26714.87
500.79	26703.17
500.97	26867.01
501.14	27197.02
501.32	26628.27
501.49	26602.53
501.67	26878.71
501.84	27133.83
502.02	27587.89
502.20	27384.27
502.37	27725.99
502.55	27370.22
502.72	28081.75
502.90	28041.96
503.07	27920.25
503.25	28201.11
503.43	28032.60
503.60	27700.24
503.78	28271.33
503.95	28144.94
504.13	28285.37
504.30	28496.02
504.48	28568.58
504.65	29020.30
504.83	29006.26
505.01	29305.85
505.18	29198.18
505.36	29635.86
505.53	29317.55
505.71	29474.37
505.88	29549.26
506.06	29497.77
506.23	29462.66
506.41	29654.59
506.58	30015.03
506.76	29626.50
506.93	29951.84
507.11	29940.13
507.28	29780.98
507.46	29635.86
507.63	29565.65
507.81	30321.64
507.98	30251.42
508.16	30476.12
508.33	30661.02
508.50	30747.62
508.68	31040.18
508.85	31339.77
509.03	31173.60
509.20	31395.95
509.38	31297.64
509.55	31051.89
509.73	31040.18
509.90	31122.10
510.08	31197.00
510.25	31424.03
510.42	31756.39
510.60	31807.88
510.77	31850.01
510.95	31845.33
511.12	31634.68
511.30	32418.76
511.47	32250.24
511.64	32332.16
511.82	32507.70
511.99	32126.19
512.17	32311.10
512.34	32336.84
512.51	32889.21
512.69	32449.19
512.86	32840.06
513.04	32985.17
513.21	32844.74
513.38	32858.78
513.56	32685.58
513.73	32606.00
513.90	32755.80
514.08	32753.46
514.25	33221.56
514.43	33198.16
514.60	33322.21
514.77	33149.01
514.95	33413.49
515.12	33610.09
515.29	33560.94
515.47	34164.80
515.64	33621.80
515.81	34087.56
515.99	33715.42
516.16	33748.18
516.33	33113.90
516.51	33603.07
516.68	33347.95
516.85	33322.21
517.03	33560.94
517.20	33907.34
517.37	34066.50
517.54	34705.46
517.72	34384.81
517.89	34251.40
518.06	33841.81
518.24	33881.60
518.41	34710.14
518.58	34394.17
518.75	34462.05
518.93	34850.58
519.10	34838.87
519.27	34808.45
519.45	35435.71
519.62	35122.08
519.79	35555.08
519.96	35185.27
520.14	35435.71
520.31	35283.58
520.48	35538.69
520.65	35515.29
520.83	35489.54
521.00	35889.77
521.17	35978.72
521.34	35711.89
521.52	35779.77
521.69	35707.21
521.86	36046.59
522.03	36079.36
522.20	36350.86
522.38	36343.84
522.55	36304.05
522.72	36601.30
522.89	36020.84
523.07	36404.69
523.24	36364.90
523.41	37113.87
523.58	36865.78
523.75	37443.89
523.92	37022.59
524.10	37092.81
524.27	37223.88
524.44	37130.26
524.61	37188.77
524.78	37055.36
524.96	37553.90
525.13	37516.45
525.30	37392.40
525.47	38038.39
525.64	37376.01
525.81	37607.73
525.98	37572.62
526.16	37642.84
526.33	37448.57
526.50	37160.69
526.67	37294.10
526.84	37500.06
527.01	37797.31
527.18	37895.61
527.36	38450.32
527.53	37998.60
527.70	38401.17
527.87	38298.19
528.04	38103.92
528.21	38286.48
528.38	38731.18
528.55	38911.41
528.72	38639.90
528.89	38740.55
529.07	38904.38
529.24	38707.78
529.41	38635.22
529.58	38944.17
529.75	38658.63
529.92	38953.54
530.09	39056.52
530.26	39285.89
530.43	39133.76
530.60	39051.84
530.77	39344.41
530.94	39201.63
531.11	39232.06
531.28	39210.99
531.46	39725.91
531.63	39576.12
531.80	39365.47
531.97	39679.10
532.14	39583.14
532.31	39070.56
532.48	39690.80
532.65	39838.26
532.82	39643.99
532.99	39466.11
533.16	39959.97
533.33	39945.92
533.50	40179.98
533.67	39840.60
533.84	39536.33
534.01	39922.52
534.18	40048.91
534.35	40175.30
534.52	40069.97
534.69	40247.85
534.86	40313.39
535.03	40367.22
535.20	40451.48
535.37	40980.44
535.54	40842.35
535.71	40786.18
535.88	40748.73
536.05	40385.94
536.22	40931.29
536.38	40938.31
536.55	41057.68
536.72	40715.96
536.89	40196.36
537.06	40502.97
537.23	40985.12
537.40	41177.04
537.57	41081.08
537.74	40903.20
537.91	41432.16
538.08	41071.72
538.25	41209.81
538.42	41380.67
538.59	41720.05
538.75	41060.02
538.92	41333.86
539.09	41071.72
539.26	41312.80
539.43	41336.20
539.60	41570.25
539.77	41123.21
539.94	41668.56
540.11	41532.81
540.28	41408.76
540.44	41118.53
540.61	41317.48
540.78	41230.88
540.95	41383.01
541.12	40954.69
541.29	41549.19
541.46	41525.78
541.62	42239.65
541.79	42373.06
541.96	41642.81
542.13	41724.73
542.30	41865.16
542.47	42595.41
542.63	42139.00
542.80	42539.24
542.97	42293.48
543.14	42644.56
543.31	42773.29
543.48	42532.22
543.64	42747.54
543.81	42724.14
543.98	42717.12
544.15	42710.10
544.32	42920.74
544.48	43100.97
544.65	43187.56
544.82	43089.26
544.99	42726.48
545.16	42995.64
545.32	42572.00
545.49	43423.96
545.66	43145.44
545.83	43531.62
546.00	43454.39
546.16	43342.04
546.33	42904.36
546.50	42822.44
546.67	43650.99
546.83	42939.47
547.00	43353.74
547.17	43161.82
547.34	43175.86
547.50	43688.44
547.67	43454.39
547.84	43753.97
548.00	43800.79
548.17	43959.94
548.34	43789.08
548.51	43882.70
548.67	44247.83
548.84	43573.75
549.01	43253.10
549.18	43594.82
549.34	43751.63
549.51	43454.39
549.68	44121.44
549.84	44130.80
550.01	43861.64
550.18	43927.17
550.34	44069.95
550.51	43618.22
550.68	43948.24
550.84	43508.22
551.01	44254.85
551.18	43924.83
551.34	43847.60
551.51	44196.34
551.68	44346.13
551.84	44610.61
552.01	43997.39
552.18	44378.90
552.34	44027.82
552.51	44126.12
552.68	43917.81
552.84	44318.04
553.01	44830.62
553.18	43934.20
553.34	44470.18
553.51	43964.62
553.67	44680.83
553.84	44465.50
554.01	44563.80
554.17	44910.20
554.34	44884.45
554.51	44584.86
554.67	44783.81
554.84	44884.45
555.00	44444.43
555.17	44889.13
555.33	44762.75
555.50	44816.58
555.67	44568.48
555.83	45085.74
556.00	44561.46
556.16	44945.31
556.33	45001.48
556.50	44610.61
556.66	44926.58
556.83	44289.96
556.99	45408.73
557.16	45251.92
557.32	44900.84
557.49	45284.68
557.65	45006.16
557.82	44839.98
557.98	45223.83
558.15	45277.66
558.32	45237.87
558.48	44877.43
558.65	44921.90
558.81	45013.18
558.98	44933.60
559.14	45020.20
559.31	44842.32
559.47	45038.93
559.64	45235.53
559.80	45483.63
559.97	45687.26
560.13	44772.11
560.30	45188.72
560.46	45237.87
560.63	45766.84
560.79	45478.95
560.96	45762.15
561.12	45586.61
561.29	44851.69
561.45	45024.89
561.61	45090.42
561.78	45441.50
561.94	45226.17
562.11	45059.99
562.27	45282.34
562.44	45478.95
562.60	45462.57
562.77	45577.25
562.93	45223.83
563.10	45869.82
563.26	45155.96
563.42	45713.00
563.59	45275.32
563.75	45261.28
563.92	45591.30
564.08	45565.55
564.24	45631.08
564.41	45897.91
564.57	45736.41
564.74	46014.93
564.90	45350.22
565.07	45394.69
565.23	45647.47
565.39	45633.42
565.56	45907.27
565.72	45036.59
565.88	45364.26
566.05	45567.89
566.21	45507.04
566.38	45628.74
566.54	45806.62
566.70	45691.94
566.87	46410.48
567.03	45411.07
567.19	46508.79
567.36	45724.71
567.52	45837.05
567.68	45925.99
567.85	45811.31
568.01	45787.90
568.17	45865.14
568.34	46036.00
568.50	45705.98
568.66	45610.02
568.83	45773.86
568.99	45237.87
569.15	45652.15
569.32	45558.53
569.48	45605.34
569.64	45944.72
569.81	45663.85
569.97	45928.33
570.13	45900.25
570.30	45324.47
570.46	45558.53
570.62	45492.99
570.78	45429.80
570.95	45324.47
571.11	45820.67
571.27	45406.39
571.43	45689.60
571.60	45603.00
571.76	45893.22
571.92	46073.45
572.09	46204.52
572.25	46073.45
572.41	45839.39
572.57	45869.82
572.74	46026.63
572.90	46043.02
573.06	45977.48
573.22	45603.00
573.38	45736.41
573.55	45773.86
573.71	46234.94
573.87	46146.00
574.03	46078.13
574.20	46302.82
574.36	46073.45
574.52	46241.96
574.68	45790.24
574.84	46124.94
575.01	45902.59
575.17	45818.33
575.33	45897.91
575.49	45869.82
575.65	46043.02
575.82	46211.54
575.98	46176.43
576.14	46307.50
576.30	46146.00
576.46	46464.32
576.62	46080.47
576.79	45659.17
576.95	45495.33
577.11	46071.10
577.27	46703.05
577.43	46038.34
577.59	45808.96
577.75	46010.25
577.92	45343.20
578.08	45432.14
578.24	45148.93
578.40	45813.65
578.56	45916.63
578.72	46216.22
578.88	46649.22
579.04	46043.02
579.21	46108.55
579.37	46017.27
579.53	46314.52
579.69	45752.79
579.85	45797.26
580.01	46234.94
580.17	45902.59
580.33	46246.65
580.49	45940.04
580.65	45869.82
580.82	45668.53
580.98	46209.20
581.14	45612.36
581.30	46405.80
581.46	45680.24
581.62	46019.61
581.78	46232.60
581.94	46639.86
582.10	46115.58
582.26	46316.86
582.42	46344.95
582.58	46216.22
582.74	46185.79
582.90	46309.84
583.06	46504.10
583.22	46251.33
583.38	46515.81
583.54	46073.45
583.70	46078.13
583.86	46316.86
584.02	46014.93
584.18	46251.33
584.34	46244.30
584.50	46045.36
584.66	46028.98
584.82	46026.63
584.98	45820.67
585.14	46164.73
585.30	46300.48
585.46	46263.03
585.62	45792.58
585.78	46183.45
585.94	45808.96
586.10	46197.49
586.26	46178.77
586.42	46417.50
586.58	46185.79
586.74	46045.36
586.90	46234.94
587.06	45933.01
587.22	46223.24
587.38	45925.99
587.54	46239.62
587.70	46351.97
587.86	46244.30
588.02	46164.73
588.18	46174.09
588.34	45986.85
588.49	45677.90
588.65	45839.39
588.81	45647.47
588.97	45890.88
589.13	45654.49
589.29	46003.23
589.45	46110.89
589.61	46120.26
589.77	46106.21
589.93	45968.12
590.08	45996.21
590.24	46504.10
590.40	46995.62
590.56	46679.64
590.72	46426.87
590.88	46106.21
591.04	46632.83
591.20	46663.26
591.35	46391.76
591.51	46789.65
591.67	46073.45
591.83	45846.41
591.99	46131.96
592.15	46127.28
592.31	46431.55
592.46	46054.72
592.62	46522.83
592.78	46160.05
592.94	46536.87
593.10	46422.19
593.26	46115.58
593.41	46281.75
593.57	46263.03
593.73	46068.76
593.89	46351.97
594.05	46431.55
594.20	46394.10
594.36	46307.50
594.52	46007.91
594.68	46284.09
594.84	46127.28
594.99	46461.97
595.15	46117.92
595.31	46466.66
595.47	46597.73
595.62	46155.36
595.78	46211.54
595.94	46674.96
596.10	46351.97
596.25	46539.21
596.41	46031.32
596.57	46314.52
596.73	46284.09
596.88	46019.61
597.04	46256.01
597.20	46487.72
597.36	46263.03
597.51	46651.56
597.67	46356.65
597.83	46146.00
597.99	46564.96
598.14	46237.28
598.30	45961.10
598.46	46429.21
598.61	46307.50
598.77	46557.94
598.93	46412.82
599.09	46398.78
599.24	46806.03
599.40	46712.41
599.56	46483.04
599.71	46607.09
599.87	46492.40
600.03	46567.30
600.18	46092.17
600.34	46260.69
600.50	46323.88
600.65	46167.07
600.81	46583.68
600.97	46408.14
601.12	46663.26
601.28	46031.32
601.44	46319.20
601.59	46164.73
601.75	46370.69
601.91	46574.32
602.06	45815.99
602.22	46160.05
602.37	46064.08
602.53	46422.19
602.69	46349.63
602.84	46288.77
603.00	46012.59
603.16	46274.73
603.31	46129.62
603.47	46134.30
603.62	46131.96
603.78	46384.74
603.94	46213.88
604.09	46492.40
604.25	45996.21
604.40	46447.93
604.56	46628.15
604.71	46298.14
604.87	46520.49
605.03	45902.59
605.18	45968.12
605.34	46141.32
605.49	46036.00
605.65	46129.62
605.80	46478.36
605.96	46499.42
606.12	46169.41
606.27	46389.42
606.43	45923.65
606.58	46344.95
606.74	46363.67
606.89	45691.94
607.05	45993.87
607.20	46333.24
607.36	45752.79
607.51	46356.65
607.67	46021.95
607.82	45923.65
607.98	46167.07
608.13	45738.75
608.29	45298.73
608.44	45642.79
608.60	45581.93
608.75	45738.75
608.91	45954.08
609.06	45975.14
609.22	46092.17
609.37	45890.88
609.53	45766.84
609.68	45982.16
609.84	45869.82
609.99	45687.26
610.15	45553.85
610.30	45254.26
610.46	45514.06
610.61	45392.35
610.76	45794.92
610.92	45848.75
611.07	45827.69
611.23	45989.19
611.38	46092.17
611.54	45448.52
611.69	45617.04
611.84	45514.06
612.00	45123.19
612.15	45436.82
612.31	45607.68
612.46	45233.19
612.62	45893.22
612.77	45890.88
612.92	45675.55
613.08	45024.89
613.23	45455.54
613.39	45399.37
613.54	44989.78
613.69	45233.19
613.85	45050.63
614.00	45467.25
614.15	45567.89
614.31	45181.70
614.46	45504.70
614.62	45502.35
614.77	45380.65
614.92	45607.68
615.08	45284.68
615.23	44690.19
615.38	45216.81
615.54	44861.05
615.69	44924.24
615.84	44734.66
616.00	45177.02
616.15	44907.86
616.30	45247.24
616.46	44940.63
616.61	44914.88
616.76	44940.63
616.92	44781.47
617.07	44474.86
617.22	44947.65
617.37	45237.87
617.53	44982.76
617.68	44828.28
617.83	44921.90
617.99	44634.02
618.14	44947.65
618.29	44552.10
618.45	44360.17
618.60	44566.14
618.75	44252.51
618.90	44273.57
619.06	44479.54
619.21	44039.52
619.36	44715.93
619.51	44601.25
619.67	44538.05
619.82	44601.25
619.97	44580.18
620.12	44350.81
620.28	44322.72
620.43	43910.79
620.58	43959.94
620.73	44357.83
620.89	44205.70
621.04	44137.82
621.19	44034.84
621.34	44313.36
621.49	43749.29
621.65	43824.19
621.80	44215.06
621.95	43494.18
622.10	43915.47
622.25	44095.69
622.41	43676.74
622.56	43203.95
622.71	44460.82
622.86	43723.55
623.01	43981.01
623.16	43700.14
623.32	44299.32
623.47	43615.88
623.62	43636.95
623.77	43669.72
623.92	43941.22
624.07	43363.11
624.23	43629.93
624.38	43566.73
624.53	43707.16
624.68	43536.30
624.83	43814.83
624.98	43395.87
625.13	43040.11
625.29	43615.88
625.44	43194.59
625.59	42646.90
625.74	43019.05
625.89	42925.42
626.04	43086.92
626.19	42885.64
626.34	42885.64
626.49	43187.56
626.65	43189.91
626.80	43016.71
626.95	42831.80
627.10	43056.50
627.25	43433.32
627.40	42553.28
627.55	42583.71
627.70	42298.16
627.85	42562.64
628.00	42747.54
628.15	42485.40
628.30	42415.19
628.45	42916.06
628.60	42499.45
628.76	42796.70
628.91	42813.08
629.06	42705.41
629.21	42541.58
629.36	42689.03
629.51	42574.34
629.66	42436.25
629.81	42141.35
629.96	42333.27
630.11	42674.99
630.26	42976.92
630.41	42775.63
630.56	42497.11
630.71	42195.18
630.86	42483.06
631.01	42396.46
631.16	42143.69
631.31	42066.45
631.46	41663.88
631.61	41968.15
631.76	42206.88
631.91	42169.43
632.06	42139.00
632.21	42384.76
632.36	42284.12
632.51	41874.52
632.66	41806.65
632.81	41958.78
632.96	42150.71
633.10	41755.16
633.25	41631.11
633.40	42141.35
633.55	42099.22
633.70	41666.22
633.85	41879.21
634.00	41743.45
634.15	41916.65
634.30	41785.58
634.45	41502.38
634.60	41574.94
634.75	41099.81
634.90	41750.48
635.05	41652.17
635.19	41397.06
635.34	41481.31
635.49	41207.47
635.64	41268.33
635.79	40837.67
635.94	41036.61
636.09	41273.01
636.24	40994.48
636.39	40568.51
636.53	41116.19
636.68	41502.38
636.83	41331.52
636.98	41170.02
637.13	40800.22
637.28	41216.83
637.43	41876.86
637.57	41408.76
637.72	41312.80
637.87	41006.19
638.02	41268.33
638.17	40830.65
638.32	40690.21
638.46	41010.87
638.61	40926.61
638.76	40701.92
638.91	41193.43
639.06	40641.06
639.20	41163.00
639.35	40884.48
639.50	40704.26
639.65	40741.71
639.80	40886.82
639.94	40779.15
640.09	40526.38
640.24	40545.10
640.39	40739.36
640.54	40446.80
640.68	39974.01
640.83	40964.06
640.98	40210.40
641.13	40027.84
641.27	40772.13
641.42	40348.50
641.57	40257.21
641.72	40952.35
641.86	40023.16
642.01	40224.45
642.16	40121.46
642.31	40072.31
642.45	40346.15
642.60	39660.38
642.75	40086.36
642.90	40100.40
643.04	40006.78
643.19	39906.13
643.34	40018.48
643.48	39906.13
643.63	40030.18
643.78	39955.29
643.93	40037.20
644.07	40002.10
644.22	39639.31
644.37	39700.17
644.51	40215.08
644.66	39342.06
644.81	39917.84
644.95	40275.94
645.10	39842.94
645.25	39728.25
645.39	39957.63
645.54	39475.48
645.69	39182.91
645.83	39686.12
645.98	39304.62
646.13	39351.43
646.27	39323.34
646.42	39714.21
646.57	39168.87
646.71	39232.06
646.86	39374.83
647.00	39243.76
647.15	39065.88
647.30	39393.56
647.44	39332.70
647.59	39325.68
647.74	38895.02
647.88	39260.15
648.03	38873.96
648.17	39119.71
648.32	39119.71
648.47	38850.55
648.61	38930.13
648.76	38986.30
648.90	39271.85
649.05	39239.08
649.20	38731.18
649.34	38803.74
649.49	38916.09
649.63	38621.18
649.78	38857.57
649.92	39196.95
650.07	39131.42
650.21	38911.41
650.36	39274.19
650.51	39007.37
650.65	39501.22
650.80	39208.65
650.94	38909.07
651.09	39096.31
651.23	38733.53
651.38	38845.87
651.52	38412.87
651.67	38480.75
651.81	38749.91
651.96	38263.08
652.10	38520.54
652.25	38911.41
652.39	38770.97
652.54	38747.57
652.68	38471.39
652.83	38305.21
652.97	38476.07
653.12	38469.04
653.26	38555.64
653.41	38094.56
653.55	38010.30
653.70	38513.52
653.84	38043.07
653.99	38501.81
654.13	37998.60
654.27	38120.31
654.42	37610.07
654.56	37935.40
654.71	38464.36
654.85	38253.72
655.00	37942.42
655.14	38059.45
655.29	37827.74
655.43	37794.97
655.57	37415.80
655.72	37415.80
655.86	37364.31
656.01	37284.73
656.15	37078.77
656.30	37371.33
656.44	36914.93
656.58	37315.16
656.73	37015.57
656.87	37268.35
657.01	37010.89
657.16	37443.89
657.30	37050.68
657.45	37261.33
657.59	37593.68
657.73	37528.15
657.88	37525.81
658.02	37773.91
658.16	37479.00
658.31	37251.97
658.45	37118.56
658.60	37511.77
658.74	37148.98
658.88	37092.81
659.03	37064.72
659.17	37001.53
659.31	36648.11
659.46	36947.70
659.60	36961.74
659.74	36982.80
659.89	37050.68
660.03	36474.91
660.17	36807.26
660.32	36765.14
660.46	37287.07
660.60	36278.30
660.74	36802.58
660.89	36980.46
661.03	36610.66
661.17	36371.92
661.32	36016.16
661.46	35957.65
661.60	36130.85
661.74	36048.93
661.89	35945.95
662.03	36184.68
662.17	36037.23
662.31	36144.89
662.46	36044.25
662.60	36065.31
662.74	35810.20
662.88	35803.17
663.03	36095.74
663.17	35882.75
663.31	35742.32
663.45	35667.42
663.60	35924.88
663.74	35634.66
663.88	35442.73
664.02	35402.94
664.17	35594.87
664.31	35257.83
664.45	35302.30
664.59	35063.57
664.73	35346.77
664.88	35012.07
665.02	35133.78
665.16	35072.93
665.30	34859.94
665.44	34721.85
665.59	34455.03
665.73	34883.34
665.87	34464.39
666.01	34785.04
666.15	34534.60
666.29	34993.35
666.44	35173.57
666.58	34740.57
666.72	34455.03
666.86	34321.62
667.00	34637.59
667.14	34359.06
667.28	33984.58
667.43	34450.35
667.57	34216.29
667.71	34148.42
667.85	34185.86
667.99	34239.70
668.13	34295.87
668.27	33940.11
668.41	34286.51
668.56	33738.82
668.70	34326.30
668.84	33439.23
668.98	33640.52
669.12	33397.10
669.26	33839.47
669.40	33237.95
669.54	33195.82
669.68	33322.21
669.82	33151.35
669.96	33289.44
670.10	33064.75
670.25	33340.93
670.39	32992.19
670.53	32914.95
670.67	33057.73
670.81	33228.59
670.95	33319.87
671.09	32631.75
671.23	32875.16
671.37	32673.88
671.51	32493.66
671.65	32442.17
671.79	32268.97
671.93	32376.63
672.07	32683.24
672.21	32493.66
672.35	32091.09
672.49	32580.26
672.63	32030.23
672.77	31875.76
672.91	32538.13
673.05	32067.68
673.19	31929.59
673.33	31910.86
673.47	31527.02
673.61	31498.93
673.75	31681.49
673.89	31494.25
674.03	30866.98
674.17	31236.79
674.31	31461.48
674.45	31033.16
674.59	31377.22
674.73	31711.92
674.87	31407.65
675.01	31122.10
675.15	31089.34
675.29	30724.21
675.43	30955.93
675.56	31112.74
675.70	30710.17
675.84	30595.48
675.98	29900.34
676.12	30602.50
676.26	30625.91
676.40	30618.89
676.54	30448.03
676.68	30354.41
676.82	29523.52
676.96	29745.87
677.10	30073.54
677.23	29919.07
677.37	29596.07
677.51	29350.32
677.65	29350.32
677.79	28786.25
677.93	29060.09
678.07	28865.83
678.21	28746.46
678.34	28641.14
678.48	28830.72
678.62	28638.80
678.76	28652.84
678.90	28285.37
679.04	28243.24
679.18	28297.08
679.31	28496.02
679.45	27981.10
679.59	28163.67
679.73	27922.59
679.87	28348.57
680.00	28023.23
680.14	27896.85
680.28	27960.04
680.42	27503.64
680.56	27608.96
680.70	27473.21
680.83	27145.53
680.97	27236.81
681.11	27407.67
681.25	27124.47
681.39	27339.80
681.52	27101.06
681.66	27049.57
681.80	27330.44
681.94	27089.36
682.07	26345.07
682.21	26632.96
682.35	26410.60
682.49	26511.25
682.62	26312.30
682.76	26342.73
682.90	26092.29
683.04	26230.38
683.17	26174.21
683.31	25919.09
683.45	25773.98
683.59	25575.03
683.72	25783.34
683.86	25762.28
684.00	26061.87
684.13	25158.42
684.27	25308.21
684.41	25303.53
684.55	25308.21
684.68	25429.92
684.82	25071.82
684.96	24776.91
685.09	25104.59
685.23	24350.93
685.37	24414.13
685.50	24744.14
685.64	24212.84
685.78	24416.47
685.91	24194.12
686.05	24116.88
686.19	23864.10
686.32	23508.34
686.46	23384.29
686.60	23435.78
686.73	23304.71
686.87	22979.38
687.01	23049.60
687.14	23082.36
687.28	22998.10
687.42	23159.60
687.55	23065.98
687.69	22958.31
687.82	22941.93
687.96	23461.53
688.10	22871.72
688.23	22513.61
688.37	22787.46
688.50	22621.28
688.64	22188.28
688.78	22628.30
688.91	22319.35
689.05	22309.99
689.18	22066.57
689.32	21975.29
689.46	22155.51
689.59	22309.99
689.73	22232.75
689.86	21713.15
690.00	21928.48
690.13	21769.32
690.27	21776.34
690.41	21256.75
690.54	21212.28
690.68	20989.92
690.81	21413.56
690.95	21249.72
691.08	21109.29
691.22	21282.49
691.35	21142.06
691.49	21406.54
691.62	21027.37
691.76	21123.33
691.89	20889.28
692.03	20854.17
692.16	20563.95
692.30	20372.02
692.43	20334.57
692.57	19969.45
692.70	19969.45
692.84	19857.10
692.97	19826.68
693.11	19723.69
693.24	19920.30
693.38	19620.71
693.51	19651.14
693.65	19859.45
693.78	19314.10
693.92	19559.86
694.05	19508.37
694.19	19419.42
694.32	19253.25
694.45	19293.04
694.59	19066.00
694.72	18677.48
694.86	18799.18
694.99	18803.86
695.13	18834.29
695.26	18820.25
695.39	18539.38
695.53	18661.09
695.66	18373.21
695.80	18508.96
695.93	18228.09
696.07	18333.42
696.20	18546.40
696.33	18361.50
696.47	17942.55
696.60	17968.29
696.73	17696.79
696.87	17539.97
697.00	17874.67
697.14	17284.86
697.27	17432.31
697.40	17612.53
697.54	17167.83
697.67	17277.83
697.80	17317.62
697.94	17078.89
698.07	16861.22
698.21	16905.69
698.34	16886.97
698.47	17291.88
698.61	16798.02
698.74	16837.81
698.87	16868.24
699.01	16240.98
699.14	16484.39
699.27	16081.82
699.40	16496.10
699.54	16339.28
699.67	16051.39
699.80	15948.41
699.94	16013.95
700.07	16049.05
700.20	15878.19
700.34	15733.08
700.47	16056.08
700.60	15936.71
700.73	15913.30
700.87	15644.14
701.00	15466.26
701.13	15618.39
701.26	15391.36
701.40	15351.57
701.53	15220.50
701.66	15459.24
701.79	15192.42
701.93	15077.73
702.06	14874.10
702.19	14813.25
702.32	14712.61
702.46	14881.13
702.59	14841.34
702.72	14780.48
702.85	14513.66
702.99	14778.14
703.12	14597.92
703.25	14328.76
703.38	14160.24
703.51	14305.35
703.65	14310.04
703.78	14202.37
703.91	13827.88
704.04	14228.12
704.17	14157.90
704.31	14108.75
704.44	13853.63
704.57	13944.91
704.70	13715.54
704.83	13647.66
704.96	13687.45
705.10	13645.32
705.23	13745.97
>>>>>End Processed Spectral Data<<<<<
