SpectraSuite Data File
++++++++++++++++++++++++++++++++++++
Date: Fri Oct 25 11:33:20 EDT 2013
User: price-jones
Dark Spectrum Present: No
Reference Spectrum Present: No
Number of Sampled Component Spectra: 1
Spectrometers: USB2+H05261
Integration Time (usec): 100000 (USB2+H05261)
Spectra Averaged: 1 (USB2+H05261)
Boxcar Smoothing: 0 (USB2+H05261)
Correct for Electrical Dark: No (USB2+H05261)
Strobe/Lamp Enabled: No (USB2+H05261)
Correct for Detector Non-linearity: No (USB2+H05261)
Correct for Stray Light: No (USB2+H05261)
Number of Pixels in Processed Spectrum: 2048
>>>>>Begin Processed Spectral Data<<<<<
365.73	250.44
365.92	250.44
366.12	250.44
366.32	140.43
366.52	234.05
366.72	182.56
366.91	194.26
367.11	140.43
367.31	159.16
367.51	145.11
367.70	95.96
367.90	227.03
368.10	201.29
368.30	238.73
368.49	189.58
368.69	170.86
368.89	182.56
369.09	210.65
369.28	210.65
369.48	241.08
369.68	248.10
369.87	140.43
370.07	175.54
370.27	252.78
370.47	325.33
370.66	386.19
370.86	489.17
371.06	524.28
371.25	543.00
371.45	575.77
371.65	617.90
371.84	547.69
372.04	543.00
372.24	517.26
372.44	568.75
372.63	575.77
372.83	592.16
373.03	585.13
373.22	575.77
373.42	533.64
373.62	629.60
373.81	571.09
374.01	681.10
374.21	660.03
374.40	580.45
374.60	690.46
374.79	706.84
374.99	620.24
375.19	624.92
375.38	685.78
375.58	737.27
375.78	692.80
375.97	709.18
376.17	718.54
376.37	683.44
376.56	664.71
376.76	601.52
376.95	699.82
377.15	699.82
377.35	739.61
377.54	674.07
377.74	643.65
377.93	610.88
378.13	660.03
378.33	748.97
378.52	688.12
378.72	739.61
378.91	772.38
379.11	770.04
379.31	727.91
379.50	688.12
379.70	727.91
379.89	725.57
380.09	688.12
380.28	739.61
380.48	788.76
380.68	685.78
380.87	660.03
381.07	760.67
381.26	800.46
381.46	737.27
381.65	711.52
381.85	748.97
382.04	814.51
382.24	805.14
382.43	767.70
382.63	835.57
382.83	753.65
383.02	781.74
383.22	779.40
383.41	695.14
383.61	828.55
383.80	842.59
384.00	877.70
384.19	847.27
384.39	863.66
384.58	896.43
384.78	821.53
384.97	812.17
385.17	823.87
385.36	891.74
385.56	866.00
385.75	746.63
385.95	931.53
386.14	847.27
386.34	866.00
386.53	910.47
386.72	903.45
386.92	875.36
387.11	795.78
387.31	884.72
387.50	833.23
387.70	828.55
387.89	894.08
388.09	858.98
388.28	837.91
388.48	908.13
388.67	976.00
388.86	877.70
389.06	882.38
389.25	889.40
389.45	954.94
389.64	917.49
389.84	957.28
390.03	908.13
390.22	1046.22
390.42	961.96
390.61	943.24
390.81	992.39
391.00	936.21
391.19	1036.86
391.39	1034.52
391.58	1057.92
391.78	1006.43
391.97	1008.77
392.16	1015.79
392.36	1013.45
392.55	990.05
392.75	1046.22
392.94	1071.97
393.13	994.73
393.33	1053.24
393.52	1104.73
393.71	1107.07
393.91	1100.05
394.10	1086.01
394.29	1153.88
394.49	1064.94
394.68	1121.12
394.88	1116.44
395.07	1144.52
395.26	1165.59
395.46	1090.69
395.65	1186.65
395.84	1130.48
396.04	1217.08
396.23	1228.78
396.42	1179.63
396.62	1249.85
396.81	1273.25
397.00	1252.19
397.19	1207.72
397.39	1160.91
397.58	1221.76
397.77	1263.89
397.97	1256.87
398.16	1240.48
398.35	1261.55
398.55	1341.13
398.74	1273.25
398.93	1310.70
399.12	1343.47
399.32	1301.34
399.51	1357.51
399.70	1313.04
399.90	1364.53
400.09	1413.68
400.28	1418.36
400.47	1401.98
400.67	1427.73
400.86	1378.58
401.05	1411.34
401.24	1432.41
401.44	1455.81
401.63	1411.34
401.82	1486.24
402.01	1448.79
402.21	1462.83
402.40	1411.34
402.59	1547.09
402.78	1488.58
402.97	1495.60
403.17	1533.05
403.36	1542.41
403.55	1673.48
403.74	1561.14
403.93	1565.82
404.13	1657.10
404.32	1668.80
404.51	1647.74
404.70	1626.67
404.89	1575.18
405.09	1771.79
405.28	1776.47
405.47	1652.42
405.66	1668.80
405.85	1748.38
406.05	1753.06
406.24	1734.34
406.43	1806.89
406.62	1776.47
406.81	1746.04
407.00	1767.10
407.20	1734.34
407.39	1844.34
407.58	1898.17
407.77	1830.30
407.96	1860.73
408.15	1879.45
408.34	1842.00
408.54	1867.75
408.73	1933.28
408.92	1907.54
409.11	1916.90
409.30	2045.63
409.49	2019.88
409.68	2010.52
409.87	2031.58
410.07	1994.14
410.26	2062.01
410.45	2062.01
410.64	2129.89
410.83	2106.48
411.02	2118.18
411.21	2125.21
411.40	2157.97
411.59	2399.05
411.78	2293.72
411.98	2193.08
412.17	2307.77
412.36	2352.24
412.55	2385.01
412.74	2326.49
412.93	2300.75
413.12	2237.55
413.31	2499.69
413.50	2441.18
413.69	2462.24
413.88	2546.50
414.07	2600.34
414.26	2497.35
414.45	2464.58
414.64	2583.95
414.83	2658.85
415.02	2581.61
415.22	2703.32
415.41	2789.92
415.60	2607.36
415.79	2754.81
415.98	2754.81
416.17	2771.19
416.36	2752.47
416.55	2789.92
416.74	2768.85
416.93	2710.34
417.12	2731.41
417.31	2951.42
417.50	2911.63
417.69	3014.61
417.88	3030.99
418.07	2890.56
418.26	3033.33
418.45	2916.31
418.64	3103.55
418.83	3042.70
419.02	3239.30
419.21	3110.57
419.39	3089.51
419.58	3122.27
419.77	3026.31
419.96	3272.07
420.15	3126.96
420.34	3131.64
420.53	3183.13
420.72	3229.94
420.91	3295.47
421.10	3267.39
421.29	3375.05
421.48	3173.77
421.67	3314.20
421.86	3267.39
422.05	3309.52
422.24	3194.83
422.43	3419.52
422.61	3398.46
422.80	3442.93
422.99	3508.46
423.18	3492.08
423.37	3454.63
423.56	3335.26
423.75	3417.18
423.94	3438.25
424.13	3297.81
424.32	3342.28
424.50	3342.28
424.69	3616.13
424.88	3576.34
425.07	3337.60
425.26	3375.05
425.45	3592.72
425.64	3384.41
425.83	3452.29
426.01	3566.98
426.20	3559.95
426.39	3557.61
426.58	3578.68
426.77	3529.53
426.96	3496.76
427.15	3435.91
427.33	3489.74
427.52	3611.45
427.71	3651.24
427.90	3588.04
428.09	3721.45
428.28	3747.20
428.46	3669.96
428.65	3655.92
428.84	3765.92
429.03	3882.95
429.22	3719.11
429.40	3815.07
429.59	3845.50
429.78	3623.15
429.97	3676.98
430.16	3712.09
430.34	3831.46
430.53	3852.52
430.72	3974.23
430.91	3929.76
431.10	3941.46
431.28	3969.55
431.47	4028.06
431.66	4114.66
431.85	4014.02
432.03	4063.17
432.22	4102.96
432.41	4121.68
432.60	4159.13
432.79	4152.11
432.97	4212.96
433.16	4205.94
433.35	4250.41
433.54	4271.48
433.72	4217.65
433.91	4236.37
434.10	4175.52
434.28	4299.56
434.47	4315.95
434.66	4241.05
434.85	4297.22
435.03	4409.57
435.22	4365.10
435.41	4564.04
435.59	4376.80
435.78	4505.53
435.97	4400.21
436.16	4278.50
436.34	4498.51
436.53	4486.81
436.72	4568.73
436.90	4542.98
437.09	4423.61
437.28	4458.72
437.46	4524.26
437.65	4465.74
437.84	4624.90
438.02	4739.58
438.21	4631.92
438.40	4599.15
438.58	4940.87
438.77	4648.30
438.96	4873.00
439.14	5008.75
439.33	4945.55
439.52	4823.84
439.70	5013.43
439.89	5102.37
440.08	5095.35
440.26	4917.47
440.45	5043.85
440.63	4945.55
440.82	5226.42
441.01	5008.75
441.19	5256.84
441.38	5212.37
441.57	5266.21
441.75	5441.75
441.94	5483.88
442.12	5434.72
442.31	5542.39
442.50	5558.77
442.68	5416.00
442.87	5432.38
443.05	5472.17
443.24	5610.26
443.43	5483.88
443.61	5701.54
443.80	5750.70
443.98	5638.35
444.17	5343.44
444.35	5591.54
444.54	5710.91
444.73	5713.25
444.91	5682.82
445.10	5767.08
445.28	5720.27
445.47	5708.57
445.65	5706.23
445.84	5710.91
446.02	5909.85
446.21	5912.19
446.39	5783.46
446.58	5727.29
446.77	5802.19
446.95	5661.76
447.14	5879.43
447.32	5804.53
447.51	5720.27
447.69	5722.61
447.88	5668.78
448.06	5970.71
448.25	5881.77
448.43	5860.70
448.62	5671.12
448.80	5795.17
448.99	5963.68
449.17	6017.52
449.36	5675.80
449.54	6022.20
449.73	5949.64
449.91	6122.84
450.10	6005.81
450.28	6188.38
450.46	6090.07
450.65	6164.97
450.83	6223.48
451.02	6157.95
451.20	6267.95
451.39	6202.42
451.57	6272.64
451.76	6338.17
451.94	6382.64
452.13	6387.32
452.31	6122.84
452.49	6331.15
452.68	6354.55
452.86	6335.83
453.05	6401.37
453.23	6361.58
453.42	6363.92
453.60	6345.19
453.78	6445.84
453.97	6392.00
454.15	6373.28
454.34	6331.15
454.52	6729.04
454.70	6497.33
454.89	6604.99
455.07	6677.55
455.26	6719.68
455.44	6782.87
455.62	6792.23
455.81	6637.76
455.99	6862.45
456.17	6778.19
456.36	6754.79
456.54	6925.65
456.73	6911.60
456.91	7269.70
457.09	7204.17
457.28	7222.89
457.46	6937.35
457.64	7192.47
457.83	7012.24
458.01	6937.35
458.19	7351.62
458.38	7267.36
458.56	7353.96
458.74	7192.47
458.93	7342.26
459.11	7155.02
459.29	7260.34
459.48	7318.86
459.66	7267.36
459.84	7218.21
460.03	7611.42
460.21	7304.81
460.39	7208.85
460.57	7583.34
460.76	7398.43
460.94	7513.12
461.12	7433.54
461.31	7630.15
461.49	7763.56
461.67	7620.78
461.85	7915.69
462.04	7529.50
462.22	8161.45
462.40	7665.25
462.59	7976.55
462.77	7793.98
462.95	7709.72
463.13	7754.19
463.32	7740.15
463.50	8030.38
463.68	8009.31
463.86	8004.63
464.05	7826.75
464.23	7920.37
464.41	8107.62
464.59	7906.33
464.78	8147.40
464.96	7955.48
465.14	8065.49
465.32	7995.27
465.50	8205.92
465.69	8365.07
465.87	8198.90
466.05	8266.77
466.23	8322.94
466.41	8180.17
466.60	8212.94
466.78	8379.12
466.96	8243.37
467.14	8348.69
467.32	8397.84
467.51	8533.59
467.69	8299.54
467.87	8439.97
468.05	8351.03
468.23	8414.23
468.41	8479.76
468.60	8561.68
468.78	8571.04
468.96	8468.06
469.14	8657.64
469.32	8753.60
469.50	8374.44
469.69	8650.62
469.87	8861.27
470.05	8816.80
470.23	8774.67
470.41	8638.92
470.59	9039.15
470.77	8910.42
470.95	8760.63
471.14	9069.58
471.32	8769.99
471.50	9289.59
471.68	9329.38
471.86	9273.20
472.04	9334.06
472.22	9425.34
472.40	9179.58
472.58	9376.19
472.77	9547.05
472.95	9514.28
473.13	9774.08
473.31	9685.14
473.49	9415.98
473.67	9413.63
473.85	9689.82
474.03	9900.47
474.21	9652.37
474.39	9795.14
474.57	9795.14
474.75	10076.01
474.93	9970.68
475.12	10019.83
475.30	10328.78
475.48	10083.03
475.66	10242.18
475.84	10455.17
476.02	10459.85
476.20	10317.08
476.38	10572.20
476.56	10839.02
476.74	10675.18
476.92	10764.12
477.10	10590.92
477.28	10490.28
477.46	10888.17
477.64	10925.62
477.82	11019.24
478.00	11463.94
478.18	11073.07
478.36	11403.09
478.54	11370.32
478.72	11382.03
478.90	11651.19
479.08	11688.64
479.26	11742.47
479.44	11651.19
479.62	11768.21
479.80	12208.23
479.98	12042.06
480.16	12224.62
480.34	12091.21
480.52	12453.99
480.70	12498.46
480.88	12123.98
481.06	12556.97
481.24	12425.90
481.41	12706.77
481.59	12807.41
481.77	12903.37
481.95	13111.68
482.13	13188.92
482.31	13146.79
482.49	13348.08
482.67	13046.15
482.85	13497.87
483.03	13495.53
483.21	14010.45
483.39	13933.21
483.57	13877.04
483.74	13834.91
483.92	14136.84
484.10	14300.67
484.28	14202.37
484.46	14555.79
484.64	14916.23
484.82	14647.07
485.00	14728.99
485.18	14998.15
485.35	14974.75
485.53	15150.29
485.71	15257.95
485.89	15424.13
486.07	15454.56
486.25	15747.12
486.43	15726.06
486.61	15529.45
486.78	15866.49
486.96	16156.72
487.14	16205.87
487.32	15985.86
487.50	16170.76
487.68	16507.80
487.85	16896.33
488.03	17018.04
488.21	17252.09
488.39	17326.99
488.57	17296.56
488.75	17350.39
488.92	17301.24
489.10	17654.66
489.28	17771.69
489.46	18026.81
489.64	17987.02
489.81	18473.85
489.99	18061.91
490.17	18581.51
490.35	18459.81
490.53	18726.63
490.70	18764.07
490.88	19005.15
491.06	18855.36
491.24	18906.85
491.41	18902.17
491.59	19442.83
491.77	19777.53
491.95	19798.59
492.13	19763.48
492.30	19772.85
492.48	19910.94
492.66	20194.14
492.84	20016.26
493.01	20355.64
493.19	20198.82
493.37	20276.06
493.54	20526.50
493.72	20842.47
493.90	20783.96
494.08	21001.63
494.25	20987.58
494.43	21240.36
494.61	21137.38
494.79	21488.46
494.96	21453.35
495.14	21869.97
495.32	22087.64
495.49	21986.99
495.67	22075.93
495.85	22235.09
496.02	22499.57
496.20	22750.01
496.38	22450.42
496.55	22537.02
496.73	23349.18
496.91	22759.37
497.09	23218.11
497.26	23110.45
497.44	23300.03
497.62	23480.25
497.79	23793.89
497.97	23335.14
498.14	23953.04
498.32	23831.33
498.50	23931.98
498.67	24339.23
498.85	23838.36
499.03	23917.93
499.20	24372.00
499.38	24320.51
499.56	24575.62
499.73	24664.57
499.91	24807.34
500.08	24903.30
500.26	24678.61
500.44	24926.71
500.61	24802.66
500.79	24706.70
500.97	25371.41
501.14	25415.88
501.32	25715.47
501.49	25432.26
501.67	25523.54
501.84	25776.32
502.02	25532.90
502.20	25781.00
502.37	26120.38
502.55	26178.89
502.72	26232.72
502.90	26080.59
503.07	26132.08
503.25	26356.77
503.43	26150.81
503.60	26632.96
503.78	26824.88
503.95	26462.10
504.13	26768.71
504.30	26806.16
504.48	27182.98
504.65	27077.66
504.83	27192.34
505.01	27222.77
505.18	27281.28
505.36	27716.62
505.53	27250.86
505.71	27798.54
505.88	27751.73
506.06	27522.36
506.23	27831.31
506.41	28402.40
506.58	27915.57
506.76	28023.23
506.93	28456.23
507.11	27960.04
507.28	28264.31
507.46	28692.63
507.63	28524.11
507.81	28755.82
507.98	28795.61
508.16	28957.11
508.33	28477.30
508.50	28938.38
508.68	28971.15
508.85	29668.63
509.03	29221.59
509.20	29434.58
509.38	29390.11
509.55	29743.53
509.73	29352.66
509.90	29745.87
510.08	29825.45
510.25	29757.57
510.42	30003.33
510.60	30019.71
510.77	29972.90
510.95	30562.72
511.12	30160.14
511.30	30249.08
511.47	30448.03
511.64	30162.48
511.82	30490.16
511.99	30422.28
512.17	30705.49
512.34	30876.35
512.51	31304.67
512.69	31290.62
512.86	31182.96
513.04	31498.93
513.21	31126.78
513.38	31407.65
513.56	31330.41
513.73	31103.38
513.90	31269.56
514.08	31545.74
514.25	31824.26
514.43	31676.81
514.60	31941.29
514.77	31924.91
514.95	31899.16
515.12	32020.87
515.29	32383.65
515.47	32533.45
515.64	32744.09
515.81	32151.94
515.99	32561.53
516.16	32664.52
516.33	32425.78
516.51	32655.15
516.68	32533.45
516.85	32769.84
517.03	33053.05
517.20	33163.05
517.37	33216.88
517.54	33472.00
517.72	33638.18
517.89	33460.30
518.06	33326.89
518.24	33261.35
518.41	33284.76
518.58	33104.54
518.75	33212.20
518.93	34134.37
519.10	33689.67
519.27	33677.97
519.45	34057.14
519.62	33886.28
519.79	34192.89
519.96	33984.58
520.14	34251.40
520.31	34094.58
520.48	34277.15
520.65	33993.94
520.83	34440.98
521.00	34471.41
521.17	34862.28
521.34	34731.21
521.52	34866.96
521.69	34885.68
521.86	35253.15
522.03	35063.57
522.20	35201.66
522.38	35416.99
522.55	35683.81
522.72	35250.81
522.89	35276.55
523.07	36154.26
523.24	36140.21
523.41	35302.30
523.58	35641.68
523.75	35625.29
523.92	36030.21
524.10	35882.75
524.27	36091.06
524.44	36009.14
524.61	36034.89
524.78	36151.91
524.96	36495.97
525.13	36388.31
525.30	36559.17
525.47	36507.68
525.64	36849.39
525.81	36481.93
525.98	37038.98
526.16	36439.80
526.33	36741.73
526.50	37350.27
526.67	36451.50
526.84	36655.13
527.01	36804.92
527.18	36769.82
527.36	37024.93
527.53	37254.31
527.70	37368.99
527.87	37699.01
528.04	37207.50
528.21	37663.90
528.38	37134.94
528.55	37689.65
528.72	37546.87
528.89	37825.40
529.07	37504.74
529.24	37940.08
529.41	38017.32
529.58	38242.01
529.75	37731.78
529.92	37883.91
530.09	38557.99
530.26	38052.43
530.43	38508.83
530.60	37853.48
530.77	37883.91
530.94	38429.26
531.11	38082.86
531.28	38066.47
531.46	38244.35
531.63	38878.64
531.80	38436.28
531.97	38813.10
532.14	38663.31
532.31	38480.75
532.48	39138.44
532.65	39253.12
532.82	39035.45
532.99	39033.11
533.16	39000.35
533.33	39082.27
533.50	39173.55
533.67	39555.05
533.84	39077.58
534.01	39360.79
534.18	39393.56
534.35	39533.99
534.52	39768.04
534.69	39608.89
534.86	39594.84
535.03	39828.90
535.20	39936.56
535.37	39669.74
535.54	39969.33
535.71	39772.72
535.88	40172.96
536.05	39878.05
536.22	40472.54
536.38	39697.83
536.55	40034.86
536.72	40289.98
536.89	39868.69
537.06	40135.51
537.23	40219.77
537.40	40336.79
537.57	40364.88
537.74	40046.57
537.91	40311.05
538.08	40151.89
538.25	40123.80
538.42	40797.88
538.59	40811.92
538.75	40692.55
538.92	40938.31
539.09	41092.79
539.26	40594.25
539.43	40605.95
539.60	41237.90
539.77	40896.18
539.94	41413.44
540.11	41205.13
540.28	41097.47
540.44	40959.38
540.61	41179.39
540.78	41027.25
540.95	41387.69
541.12	41343.22
541.29	41144.28
541.46	41523.44
541.62	41345.56
541.79	41745.80
541.96	41280.03
542.13	41256.62
542.30	41588.98
542.47	41703.67
542.63	42225.60
542.80	41869.84
542.97	42366.04
543.14	42270.08
543.31	42307.52
543.48	42258.37
543.64	43269.48
543.81	42564.98
543.98	42445.62
544.15	42150.71
544.32	42279.44
544.48	43058.84
544.65	42796.70
544.82	42607.11
544.99	42632.86
545.16	43122.03
545.32	42550.94
545.49	43129.05
545.66	43346.72
545.83	43145.44
546.00	42822.44
546.16	43117.35
546.33	42969.90
546.50	42689.03
546.67	43316.29
546.83	42747.54
547.00	43309.27
547.17	43257.78
547.34	43398.21
547.50	43540.99
547.67	44128.46
547.84	43110.33
548.00	43604.18
548.17	43716.53
548.34	43552.69
548.51	43501.20
548.67	43316.29
548.84	43543.33
549.01	43707.16
549.18	43269.48
549.34	43866.32
549.51	43882.70
549.68	44140.16
549.84	44205.70
550.01	44240.81
550.18	43959.94
550.34	43861.64
550.51	44175.27
550.68	44107.40
550.84	44404.64
551.01	44311.02
551.18	43973.98
551.34	43711.84
551.51	43957.60
551.68	44058.24
551.84	44587.21
552.01	44041.86
552.18	44385.92
552.34	44357.83
552.51	44755.72
552.68	44329.75
552.84	44477.20
553.01	44397.62
553.18	44914.88
553.34	44594.23
553.51	44477.20
553.67	44634.02
553.84	44851.69
554.01	45088.08
554.17	44790.83
554.34	44987.44
554.51	44933.60
554.67	45495.33
554.84	45364.26
555.00	45277.66
555.17	45120.85
555.33	45572.57
555.50	45074.04
555.67	45467.25
555.83	45116.17
556.00	45347.88
556.16	45485.97
556.33	45357.24
556.50	45202.77
556.66	45420.44
556.83	45106.80
556.99	45413.41
557.16	45249.58
557.32	45427.46
557.49	45738.75
557.65	45038.93
557.82	45261.28
557.98	45577.25
558.15	45249.58
558.32	45504.70
558.48	45530.44
558.65	45453.20
558.81	45907.27
558.98	45574.91
559.14	45745.77
559.31	45467.25
559.47	45834.71
559.64	45834.71
559.80	45476.61
559.97	45804.28
560.13	45462.57
560.30	46237.28
560.46	46038.34
560.63	45815.99
560.79	45998.55
560.96	46316.86
561.12	46096.85
561.29	46244.30
561.45	45944.72
561.61	46101.53
561.78	46167.07
561.94	46115.58
562.11	46136.64
562.27	46335.59
562.44	46036.00
562.60	46452.61
562.77	46092.17
562.93	46080.47
563.10	46202.18
563.26	46141.32
563.42	46457.29
563.59	46394.10
563.75	46548.57
563.92	46693.69
564.08	46426.87
564.24	46658.58
564.41	46408.14
564.57	46653.90
564.74	46270.05
564.90	46426.87
565.07	45991.53
565.23	46405.80
565.39	46698.37
565.56	46422.19
565.72	46330.90
565.88	46761.56
566.05	46424.53
566.21	46726.46
566.38	46230.26
566.54	46583.68
566.70	46295.80
566.87	46562.62
567.03	46953.49
567.19	46637.51
567.36	46593.04
567.52	46497.08
567.68	46953.49
567.85	46841.14
568.01	46813.05
568.17	46897.31
568.34	47009.66
568.50	46967.53
568.66	46532.19
568.83	46925.40
568.99	47372.44
569.15	46749.86
569.32	46925.40
569.48	46710.07
569.64	46803.69
569.81	47140.73
569.97	47194.56
570.13	47026.04
570.30	46363.67
570.46	46742.84
570.62	47728.20
570.78	46932.42
570.95	47131.37
571.11	47117.32
571.27	47129.03
571.43	46665.60
571.60	46754.54
571.76	47114.98
571.92	47262.44
572.09	46967.53
572.25	47154.77
572.41	47152.43
572.57	47079.88
572.74	47489.47
572.90	47168.82
573.06	47199.24
573.22	47054.13
573.38	47398.19
573.55	47213.29
573.71	47461.38
573.87	47742.25
574.03	47201.58
574.20	47517.56
574.36	47576.07
574.52	47461.38
574.68	47400.53
574.84	47447.34
575.01	47690.76
575.17	47636.92
575.33	47334.99
575.49	47189.88
575.65	47168.82
575.82	47445.00
575.98	47498.83
576.14	48098.01
576.30	47615.86
576.46	47674.37
576.62	47239.03
576.79	47264.78
576.95	46948.81
577.11	47334.99
577.27	47201.58
577.43	47571.39
577.59	47232.01
577.75	47643.94
577.92	47430.96
578.08	47540.96
578.24	47503.51
578.40	47388.83
578.56	47435.64
578.72	47697.78
578.88	47728.20
579.04	47405.21
579.21	47753.95
579.37	47746.93
579.53	47611.18
579.69	47430.96
579.85	47346.70
580.01	47718.84
580.17	47515.22
580.33	47964.60
580.49	47702.46
580.65	47529.26
580.82	47526.92
580.98	47814.80
581.14	47112.64
581.30	47622.88
581.46	47866.30
581.62	47604.16
581.78	47648.63
581.94	47777.36
582.10	47564.37
582.26	48177.59
582.42	47456.70
582.58	47805.44
582.74	47648.63
582.90	47508.19
583.06	47969.28
583.22	47505.85
583.38	47758.63
583.54	48048.86
583.70	47775.02
583.86	48289.93
584.02	47721.18
584.18	47693.10
584.34	47725.86
584.50	47648.63
584.66	47906.08
584.82	47999.71
584.98	48048.86
585.14	48053.54
585.30	47463.72
585.46	47980.98
585.62	47739.91
585.78	48163.54
585.94	47260.10
586.10	47831.19
586.26	47412.23
586.42	47737.57
586.58	47777.36
586.74	47913.11
586.90	47545.64
587.06	47655.65
587.22	48023.11
587.38	47573.73
587.54	47952.90
587.70	48308.66
587.86	48200.99
588.02	47650.97
588.18	47536.28
588.34	47959.92
588.49	47908.43
588.65	48011.41
588.81	47943.53
588.97	47985.66
589.13	47529.26
589.29	47978.64
589.45	47735.23
589.61	48226.74
589.77	48119.07
589.93	47878.00
590.08	48435.05
590.24	48217.38
590.40	48313.34
590.56	48308.66
590.72	48062.90
590.88	47875.66
591.04	48142.48
591.20	48320.36
591.35	48353.13
591.51	48608.25
591.67	48381.21
591.83	48690.16
591.99	48329.72
592.15	48306.32
592.31	48437.39
592.46	48196.31
592.62	48116.73
592.78	48444.41
592.94	48666.76
593.10	48472.49
593.26	48751.02
593.41	48519.31
593.57	48346.11
593.73	48570.80
593.89	49151.25
594.05	48624.63
594.20	48744.00
594.36	48849.32
594.52	48458.45
594.68	48435.05
594.84	47980.98
594.99	48708.89
595.15	48126.10
595.31	48456.11
595.47	48133.12
595.62	48509.94
595.78	48374.19
595.94	48526.33
596.10	48376.53
596.25	48687.82
596.41	48575.48
596.57	48519.31
596.73	48416.32
596.88	48502.92
597.04	48884.43
597.20	48437.39
597.36	48404.62
597.51	48502.92
597.67	48416.32
597.83	48577.82
597.99	48692.50
598.14	48149.50
598.30	48736.98
598.46	48942.94
598.61	48952.30
598.77	48355.47
598.93	48594.20
599.09	48563.78
599.24	48933.58
599.40	49008.48
599.56	48739.32
599.71	48987.41
599.87	48832.94
600.03	49272.96
600.18	48629.31
600.34	48474.84
600.50	48453.77
600.65	48470.15
600.81	48779.10
600.97	48690.16
601.12	49130.19
601.28	48598.88
601.44	48397.60
601.59	48594.20
601.75	48598.88
601.91	48797.83
602.06	48861.02
602.22	49043.59
602.37	48947.62
602.53	48701.87
602.69	48837.62
602.84	48680.80
603.00	48580.16
603.16	48959.33
603.31	48973.37
603.47	49057.63
603.62	48641.01
603.78	48645.69
603.94	48402.28
604.09	48968.69
604.25	48474.84
604.40	48545.05
604.56	49048.27
604.71	48884.43
604.87	48596.54
605.03	48390.58
605.18	48498.24
605.34	48835.28
605.49	48549.73
605.65	48872.73
605.80	48711.23
605.96	48641.01
606.12	48655.06
606.27	48758.04
606.43	48722.93
606.58	48516.96
606.74	48481.86
606.89	48411.64
607.05	48788.47
607.20	48523.99
607.36	48697.19
607.51	48261.85
607.67	48406.96
607.82	48423.34
607.98	48505.26
608.13	48411.64
608.29	48198.65
608.44	48561.44
608.60	48114.39
608.75	48381.21
608.91	48512.28
609.06	47938.85
609.22	48767.40
609.37	48325.04
609.53	48751.02
609.68	48575.48
609.84	48453.77
609.99	48119.07
610.15	48638.67
610.30	48818.89
610.46	48486.54
610.61	47915.45
610.76	48788.47
610.92	48198.65
611.07	48163.54
611.23	48423.34
611.38	48215.04
611.54	48376.53
611.69	48626.97
611.84	47931.83
612.00	48184.61
612.15	48186.95
612.31	48184.61
612.46	47693.10
612.62	47786.72
612.77	47973.96
612.92	48292.27
613.08	47660.33
613.23	48411.64
613.39	48011.41
613.54	47824.17
613.69	48261.85
613.85	48287.59
614.00	48076.94
614.15	48343.77
614.31	47690.76
614.46	47356.06
614.62	48100.35
614.77	48437.39
614.92	47985.66
615.08	48076.94
615.23	47810.12
615.38	48048.86
615.54	47868.64
615.69	47812.46
615.84	48006.73
616.00	48123.75
616.15	47980.98
616.30	48222.06
616.46	47945.87
616.61	47828.85
616.76	48163.54
616.92	47798.42
617.07	47782.04
617.22	47597.13
617.37	47552.66
617.53	47580.75
617.68	47510.53
617.83	47636.92
617.99	48025.45
618.14	47885.02
618.29	47430.96
618.45	47887.36
618.60	47187.54
618.75	47129.03
618.90	47868.64
619.06	47384.15
619.21	47093.92
619.36	47477.77
619.51	47122.01
619.67	47332.65
619.82	47398.19
619.97	47796.08
620.12	47650.97
620.28	47337.33
620.43	47625.22
620.58	47393.51
620.73	47426.28
620.89	47700.12
621.04	47311.59
621.19	47683.73
621.34	47377.12
621.49	47075.19
621.65	46923.06
621.80	47571.39
621.95	47562.03
622.10	47185.20
622.25	47175.84
622.41	46831.78
622.56	46913.70
622.71	47161.79
622.86	47196.90
623.01	47622.88
623.16	47061.15
623.32	47206.26
623.47	47187.54
623.62	46777.95
623.77	47402.87
623.92	47203.92
624.07	47049.45
624.23	47021.36
624.38	46855.18
624.53	46719.43
624.68	46660.92
624.83	46651.56
624.98	46859.87
625.13	46405.80
625.29	46433.89
625.44	46866.89
625.59	46724.11
625.74	46239.62
625.89	46169.41
626.04	46707.73
626.19	46632.83
626.34	46590.70
626.49	45982.16
626.65	45998.55
626.80	46705.39
626.95	46263.03
627.10	45897.91
627.25	46344.95
627.40	46220.90
627.55	46564.96
627.70	45970.46
627.85	46270.05
628.00	46960.51
628.15	46515.81
628.30	46108.55
628.45	46087.49
628.60	45762.15
628.76	45778.54
628.91	46265.37
629.06	45647.47
629.21	46038.34
629.36	46113.23
629.51	45956.42
629.66	46288.77
629.81	46225.58
629.96	45930.67
630.11	46068.76
630.26	45628.74
630.41	46040.68
630.56	45460.23
630.71	45404.05
630.86	46092.17
631.01	45418.10
631.16	45851.09
631.31	46026.63
631.46	45532.78
631.61	45830.03
631.76	45684.92
631.91	45837.05
632.06	45921.31
632.21	45923.65
632.36	45476.61
632.51	45422.78
632.66	45649.81
632.81	45619.38
632.96	45329.16
633.10	45467.25
633.25	45378.31
633.40	45450.86
633.55	45296.39
633.70	45682.58
633.85	45497.67
634.00	45193.40
634.15	45167.66
634.30	45340.86
634.45	45188.72
634.60	45207.45
634.75	45312.77
634.90	45144.25
635.05	45354.90
635.19	45221.49
635.34	45043.61
635.49	44849.35
635.64	45228.51
635.79	45326.81
635.94	45113.83
636.09	45420.44
636.24	44631.68
636.39	44524.01
636.53	45221.49
636.68	44935.95
636.83	44477.20
636.98	44809.56
637.13	44423.37
637.28	45059.99
637.43	44725.30
637.57	44701.89
637.72	44680.83
637.87	44877.43
638.02	44690.19
638.17	44779.13
638.32	44938.29
638.46	44409.32
638.61	44137.82
638.76	44673.81
638.91	44748.70
639.06	44009.09
639.20	44271.23
639.35	44456.14
639.50	44144.84
639.65	44474.86
639.80	44493.58
639.94	44498.26
640.09	44076.97
640.24	44329.75
640.39	43990.37
640.54	44102.71
640.68	43777.38
640.83	44226.76
640.98	43758.66
641.13	43882.70
641.27	44421.03
641.42	43922.49
641.57	43768.02
641.72	44055.90
641.86	43875.68
642.01	43629.93
642.16	43976.33
642.31	43407.58
642.45	44102.71
642.60	43761.00
642.75	43477.79
642.90	44119.10
643.04	43665.03
643.19	43964.62
643.34	43672.06
643.48	43569.07
643.63	43220.33
643.78	44119.10
643.93	43990.37
644.07	43817.17
644.22	43587.80
644.37	43627.59
644.51	43519.92
644.66	43643.97
644.81	43679.08
644.95	43487.15
645.10	43789.08
645.25	43353.74
645.39	43283.53
645.54	42969.90
645.69	43056.50
645.83	43239.06
645.98	43250.76
646.13	43407.58
646.27	43152.46
646.42	42693.71
646.57	43023.73
646.71	43409.92
646.86	43255.44
647.00	43381.83
647.15	43185.22
647.30	43283.53
647.44	42925.42
647.59	42841.17
647.74	43253.10
647.88	43037.77
648.03	43440.34
648.17	43669.72
648.32	43292.89
648.47	43498.86
648.61	43112.67
648.76	42988.62
648.90	42955.85
649.05	42754.57
649.20	43173.52
649.34	43000.32
649.49	43035.43
649.63	43262.46
649.78	42726.48
649.92	43112.67
650.07	43229.69
650.21	43203.95
650.36	43332.68
650.51	42768.61
650.65	42801.38
650.80	42686.69
650.94	42586.05
651.09	42735.84
651.23	42164.75
651.38	42511.15
651.52	42209.22
651.67	42639.88
651.81	42169.43
651.96	41897.93
652.10	41926.02
652.25	42499.45
652.39	42426.89
652.54	42410.51
652.68	42220.92
652.83	42478.38
652.97	42738.18
653.12	42136.66
653.26	42047.72
653.41	42066.45
653.55	42314.55
653.70	42078.15
653.84	42609.45
653.99	42071.13
654.13	41715.37
654.27	42522.85
654.42	42223.26
654.56	41422.80
654.71	42211.56
654.85	41907.29
655.00	41565.57
655.14	41860.48
655.29	42047.72
655.43	42033.68
655.57	41900.27
655.72	41675.58
655.86	41586.64
656.01	41715.37
656.15	41619.41
656.30	41291.73
656.44	41904.95
656.58	41553.87
656.73	41670.90
656.87	41464.93
657.01	41010.87
657.16	41326.84
657.30	41509.40
657.45	41057.68
657.59	41090.44
657.73	41490.68
657.88	41191.09
658.02	41163.00
658.16	41888.57
658.31	41303.43
658.45	41600.68
658.60	41104.49
658.74	41277.69
658.88	40968.74
659.03	41050.66
659.17	40690.21
659.31	40528.72
659.46	40891.50
659.60	40755.75
659.74	40982.78
659.89	40308.71
660.03	40444.46
660.17	40762.77
660.32	40865.75
660.46	40568.51
660.60	40254.87
660.74	40861.07
660.89	40273.60
661.03	40093.38
661.17	39693.15
661.32	39903.79
661.46	40456.16
661.60	40074.65
661.74	40208.06
661.89	39669.74
662.03	39754.00
662.17	39892.09
662.31	39791.45
662.46	39962.31
662.60	39627.61
662.74	39665.06
662.88	39332.70
663.03	39440.37
663.17	39412.28
663.31	39470.79
663.45	39585.48
663.60	39435.69
663.74	39548.03
663.88	39318.66
664.02	39297.59
664.17	39807.83
664.31	39269.51
664.45	38625.86
664.59	39150.14
664.73	39218.02
664.88	39407.60
665.02	38845.87
665.16	38440.96
665.30	38852.89
665.44	38698.42
665.59	38471.39
665.73	38588.41
665.87	38672.67
666.01	38565.01
666.15	38719.48
666.29	38281.80
666.44	38447.98
666.58	38284.14
666.72	38010.30
666.86	37977.53
667.00	38305.21
667.14	37977.53
667.28	38174.14
667.43	38108.60
667.57	38602.46
667.71	37699.01
667.85	38171.80
667.99	37696.67
668.13	37710.71
668.27	37242.60
668.41	37521.13
668.56	36769.82
668.70	37322.18
668.84	37069.40
668.98	37034.30
669.12	37139.62
669.26	37017.91
669.40	37242.60
669.54	37001.53
669.68	37532.83
669.82	36800.24
669.96	36992.17
670.10	36194.04
670.25	36631.72
670.39	36261.92
670.53	36804.92
670.67	36570.87
670.81	36858.76
670.95	36444.48
671.09	36332.14
671.23	35803.17
671.37	36098.08
671.51	35969.35
671.65	35913.18
671.79	36020.84
671.93	35887.43
672.07	36318.09
672.21	35861.69
672.35	35927.22
672.49	35908.50
672.63	35725.94
672.77	35484.86
672.91	35679.13
673.05	35552.74
673.19	34806.11
673.33	34581.42
673.47	35255.49
673.61	35063.57
673.75	34998.03
673.89	34983.99
674.03	34799.08
674.17	34597.80
674.31	34330.98
674.45	34183.52
674.59	34707.80
674.73	34550.99
674.87	33926.07
675.01	33809.04
675.15	33897.98
675.29	33989.26
675.43	33804.36
675.56	34015.01
675.70	33640.52
675.84	33256.67
675.98	32477.27
676.12	33869.89
676.26	33743.50
676.40	33525.83
676.54	32830.69
676.68	33006.23
676.82	32418.76
676.96	33097.52
677.10	33043.68
677.23	32268.97
677.37	33055.39
677.51	32863.46
677.65	32840.06
677.79	32706.65
677.93	32460.89
678.07	32442.17
678.21	32020.87
678.34	31941.29
678.48	31833.63
678.62	31672.13
678.76	32163.64
678.90	31527.02
679.04	31587.87
679.18	31770.43
679.31	31103.38
679.45	31187.64
679.59	30979.33
679.73	31264.88
679.87	30864.64
680.00	30593.14
680.14	30677.40
680.28	30579.10
680.42	30478.46
680.56	30476.12
680.70	30026.73
680.83	30199.93
680.97	30043.12
681.11	30270.15
681.25	29860.55
681.39	29624.16
681.52	29537.56
681.66	29570.33
681.80	28959.45
681.94	29130.31
682.07	29352.66
682.21	29071.79
682.35	29085.84
682.49	29282.44
682.62	29200.52
682.76	29228.61
682.90	29083.50
683.04	28613.05
683.17	28533.47
683.31	28046.64
683.45	28732.42
683.59	28210.48
683.72	28128.56
683.86	27946.00
684.00	28283.03
684.13	27922.59
684.27	27510.66
684.41	27487.25
684.55	27749.39
684.68	27494.27
684.82	26878.71
684.96	27388.95
685.09	27447.46
685.23	27410.01
685.37	27601.94
685.50	27447.46
685.64	26775.73
685.78	26721.90
685.91	26822.54
686.05	26206.98
686.19	26155.49
686.32	26511.25
686.46	26101.65
686.60	25977.61
686.73	26148.46
686.87	25661.63
687.01	26017.40
687.14	25991.65
687.28	25563.33
687.42	25673.34
687.55	25572.69
687.69	25738.87
687.82	24919.68
687.96	25071.82
688.10	25181.82
688.23	25259.06
688.37	25179.48
688.50	25673.34
688.64	24809.68
688.78	24718.40
688.91	24519.45
689.05	24533.50
689.18	24332.21
689.32	23761.12
689.46	23688.56
689.59	24041.98
689.73	24362.64
689.86	24159.01
690.00	24060.71
690.13	23908.57
690.27	23740.05
690.41	23447.49
690.54	23332.80
690.68	23374.93
690.81	23225.14
690.95	23403.02
691.08	22789.80
691.22	22918.53
691.35	22843.63
691.49	23180.67
691.62	22864.69
691.76	22593.19
691.89	22398.93
692.03	22003.38
692.16	22228.07
692.30	21912.10
692.43	21968.27
692.57	21675.70
692.70	21982.31
692.84	21811.45
692.97	21528.25
693.11	21593.78
693.24	21249.72
693.38	21448.67
693.51	21081.21
693.65	21769.32
693.78	20959.50
693.92	20758.21
694.05	20865.88
694.19	20837.79
694.32	20727.78
694.45	21041.42
694.59	20879.92
694.72	20802.68
694.86	20451.60
694.99	20376.70
695.13	20318.19
695.26	20072.43
695.39	20004.56
695.53	20009.24
695.66	19889.87
695.80	19763.48
695.93	19843.06
696.07	19833.70
696.20	19625.39
696.33	19316.44
696.47	18689.18
696.60	19466.24
696.73	19164.31
696.87	19328.14
697.00	18998.13
697.14	19098.77
697.27	18534.70
697.40	18640.03
697.54	18869.40
697.67	18422.36
697.80	18160.22
697.94	18459.81
698.07	18438.74
698.21	18036.17
698.34	18141.49
698.47	18174.26
698.61	17675.73
698.74	17862.97
698.87	17722.54
699.01	17633.60
699.14	17589.13
699.27	17638.28
699.40	17839.56
699.54	17493.16
699.67	17359.75
699.80	17476.78
699.94	17165.49
700.07	17425.29
700.20	17263.79
700.34	16730.15
700.47	16877.60
700.60	16943.14
700.73	16865.90
700.87	16659.93
701.00	16456.31
701.13	16580.36
701.26	16542.91
701.40	16091.18
701.53	16255.02
701.66	16414.18
701.79	16301.83
701.93	15838.41
702.06	15789.25
702.19	15627.76
702.32	16077.14
702.46	15798.62
702.59	15826.70
702.72	15920.32
702.85	15585.63
702.99	15487.32
703.12	15239.23
703.25	15005.17
703.38	15082.41
703.51	15192.42
703.65	14897.51
703.78	14782.82
703.91	14642.39
704.04	14822.61
704.17	14815.59
704.31	14771.12
704.44	14527.71
704.57	14565.15
704.70	14228.12
704.83	14429.40
704.96	14391.95
705.10	14003.43
705.23	14115.77
>>>>>End Processed Spectral Data<<<<<
