SpectraSuite Data File
++++++++++++++++++++++++++++++++++++
Date: Fri Oct 25 10:44:18 EDT 2013
User: price-jones
Dark Spectrum Present: No
Reference Spectrum Present: No
Number of Sampled Component Spectra: 1
Spectrometers: USB2+H05261
Integration Time (usec): 100000 (USB2+H05261)
Spectra Averaged: 1 (USB2+H05261)
Boxcar Smoothing: 0 (USB2+H05261)
Correct for Electrical Dark: No (USB2+H05261)
Strobe/Lamp Enabled: No (USB2+H05261)
Correct for Detector Non-linearity: No (USB2+H05261)
Correct for Stray Light: No (USB2+H05261)
Number of Pixels in Processed Spectrum: 2048
>>>>>Begin Processed Spectral Data<<<<<
365.73	110.01
365.92	110.01
366.12	110.01
366.32	2.34
366.52	46.81
366.72	98.30
366.91	9.36
367.11	39.79
367.31	51.49
367.51	114.69
367.70	32.77
367.90	11.70
368.10	35.11
368.30	7.02
368.49	0.00
368.69	72.56
368.89	79.58
369.09	21.06
369.28	56.17
369.48	25.75
369.68	42.13
369.87	77.24
370.07	42.13
370.27	102.98
370.47	168.52
370.66	395.55
370.86	409.59
371.06	498.53
371.25	491.51
371.45	470.45
371.65	503.22
371.84	442.36
372.04	510.24
372.24	500.87
372.44	397.89
372.63	575.77
372.83	585.13
373.03	550.03
373.22	528.96
373.42	578.11
373.62	421.30
373.81	552.37
374.01	561.73
374.21	568.75
374.40	564.07
374.60	603.86
374.79	540.66
374.99	629.60
375.19	636.63
375.38	615.56
375.58	594.50
375.78	571.09
375.97	617.90
376.17	648.33
376.37	557.05
376.56	660.03
376.76	589.82
376.95	582.79
377.15	620.24
377.35	667.05
377.54	643.65
377.74	624.92
377.93	638.97
378.13	737.27
378.33	660.03
378.52	634.29
378.72	704.50
378.91	648.33
379.11	629.60
379.31	582.79
379.50	641.31
379.70	741.95
379.89	730.25
380.09	727.91
380.28	678.76
380.48	641.31
380.68	599.18
380.87	638.97
381.07	657.69
381.26	702.16
381.46	767.70
381.65	751.31
381.85	779.40
382.04	711.52
382.24	713.86
382.43	657.69
382.63	676.41
382.83	774.72
383.02	727.91
383.22	786.42
383.41	734.93
383.61	711.52
383.80	770.04
384.00	671.73
384.19	711.52
384.39	805.14
384.58	812.17
384.78	791.10
384.97	873.02
385.17	791.10
385.36	854.30
385.56	741.95
385.75	767.70
385.95	880.04
386.14	849.61
386.34	847.27
386.53	910.47
386.72	809.83
386.92	983.02
387.11	835.57
387.31	823.87
387.50	870.68
387.70	894.08
387.89	894.08
388.09	912.81
388.28	910.47
388.48	854.30
388.67	922.17
388.86	924.51
389.06	945.58
389.25	1006.43
389.45	997.07
389.64	1001.75
389.84	992.39
390.03	1083.67
390.22	1001.75
390.42	1043.88
390.61	1008.77
390.81	1067.28
391.00	1069.62
391.19	1069.62
391.39	1111.75
391.58	1071.97
391.78	1135.16
391.97	1013.45
392.16	1001.75
392.36	1144.52
392.55	1071.97
392.75	1018.13
392.94	985.37
393.13	983.02
393.33	971.32
393.52	1107.07
393.71	1198.35
393.91	1132.82
394.10	1193.67
394.29	1128.14
394.49	1184.31
394.68	1247.51
394.88	1228.78
395.07	1214.74
395.26	1212.40
395.46	1324.74
395.65	1301.34
395.84	1245.16
396.04	1188.99
396.23	1104.73
396.42	1109.41
396.62	1273.25
396.81	1151.54
397.00	1261.55
397.19	1247.51
397.39	1306.02
397.58	1486.24
397.77	1385.60
397.97	1451.13
398.16	1453.47
398.35	1570.50
398.55	1453.47
398.74	1467.52
398.93	1521.35
399.12	1507.30
399.32	1420.71
399.51	1528.37
399.70	1657.10
399.90	1575.18
400.09	1579.86
400.28	1619.65
400.47	1659.44
400.67	1680.50
400.86	1659.44
401.05	1720.29
401.24	1753.06
401.44	1729.66
401.63	1760.08
401.82	1736.68
402.01	1741.36
402.21	1776.47
402.40	1778.81
402.59	1750.72
402.78	1788.17
402.97	1893.49
403.17	1839.66
403.36	1888.81
403.55	1963.71
403.74	1947.33
403.93	1874.77
404.13	1849.02
404.32	1881.79
404.51	1940.30
404.70	1909.88
404.89	2012.86
405.09	1944.99
405.28	2029.24
405.47	2017.54
405.66	1970.73
405.85	2066.69
406.05	1933.28
406.24	1970.73
406.43	1987.11
406.62	2069.03
406.81	2019.88
407.00	2157.97
407.20	2157.97
407.39	2132.23
407.58	2253.94
407.77	2167.34
407.96	2230.53
408.15	2251.60
408.34	2267.98
408.54	2352.24
408.73	2331.17
408.92	2413.09
409.11	2403.73
409.30	2370.96
409.49	2321.81
409.68	2354.58
409.87	2410.75
410.07	2263.30
410.26	2399.05
410.45	2347.56
410.64	2473.95
410.83	2612.04
411.02	2438.84
411.21	2548.84
411.40	2518.42
411.59	2708.00
411.78	2654.17
411.98	2747.79
412.17	2675.23
412.36	2724.38
412.55	2782.90
412.74	2759.49
412.93	2698.64
413.12	2656.51
413.31	2895.24
413.50	2850.77
413.69	2853.11
413.88	3019.29
414.07	2888.22
414.26	3007.59
414.45	3016.95
414.64	2937.37
414.83	3054.40
415.02	3061.42
415.22	3157.38
415.41	3234.62
415.60	3246.32
415.79	3108.23
415.98	3300.16
416.17	3342.28
416.36	3346.97
416.55	3328.24
416.74	3197.17
416.93	3382.07
417.12	3353.99
417.31	3421.86
417.50	3339.94
417.69	3466.33
417.88	3335.26
418.07	3433.57
418.26	3585.70
418.45	3449.95
418.64	3581.02
418.83	3644.21
419.02	3574.00
419.21	3653.58
419.39	3667.62
419.58	3599.74
419.77	3632.51
419.96	3599.74
420.15	3716.77
420.34	3786.99
420.53	3726.13
420.72	3798.69
420.91	3892.31
421.10	3857.20
421.29	3950.82
421.48	3784.65
421.67	3913.38
421.86	3810.39
422.05	3770.60
422.24	3744.86
422.43	3803.37
422.61	3904.01
422.80	4079.55
422.99	4070.19
423.18	3971.89
423.37	3943.80
423.56	3969.55
423.75	4051.47
423.94	3955.51
424.13	3754.22
424.32	3866.56
424.50	3999.98
424.69	3936.78
424.88	4025.72
425.07	4124.02
425.26	3929.76
425.45	3960.19
425.64	4042.11
425.83	3899.33
426.01	4009.34
426.20	4100.62
426.39	3934.44
426.58	3985.93
426.77	3922.74
426.96	4023.38
427.15	4007.00
427.33	4058.49
427.52	4126.36
427.71	4222.33
427.90	4154.45
428.09	4205.94
428.28	4147.43
428.46	4086.58
428.65	4203.60
428.84	4395.53
429.03	4521.92
429.22	4187.22
429.40	4152.11
429.59	4163.81
429.78	4039.76
429.97	4053.81
430.16	4023.38
430.34	4119.34
430.53	4224.67
430.72	4224.67
430.91	4234.03
431.10	4449.36
431.28	4692.77
431.47	4695.11
431.66	4730.22
431.85	4650.64
432.03	4533.62
432.22	4734.90
432.41	4791.08
432.60	4760.65
432.79	4809.80
432.97	4842.57
433.16	4802.78
433.35	4802.78
433.54	4634.26
433.72	4692.77
433.91	4723.20
434.10	4828.53
434.28	4812.14
434.47	4833.21
434.66	5060.24
434.85	5064.92
435.03	4959.60
435.22	4945.55
435.41	5043.85
435.59	5139.82
435.78	5048.54
435.97	5137.48
436.16	5277.91
436.34	5139.82
436.53	5249.82
436.72	5268.55
436.90	5107.05
437.09	5280.25
437.28	5137.48
437.46	5135.14
437.65	5167.90
437.84	5334.08
438.02	5088.32
438.21	5301.31
438.40	5228.76
438.58	5502.60
438.77	5511.96
438.96	5497.92
439.14	5589.20
439.33	5584.52
439.52	5636.01
439.70	5703.89
439.89	5628.99
440.08	5851.34
440.26	5795.17
440.45	5774.10
440.63	5949.64
440.82	6104.12
441.01	5907.51
441.19	5987.09
441.38	6052.63
441.57	6113.48
441.75	6183.70
441.94	6389.66
442.12	6193.06
442.31	6310.08
442.50	6558.18
442.68	6525.41
442.87	6375.62
443.05	6600.31
443.24	6590.95
443.43	6366.26
443.61	6670.53
443.80	6689.25
443.98	6361.58
444.17	6349.87
444.35	6607.33
444.54	6700.95
444.73	6658.82
444.91	6483.28
445.10	6455.20
445.28	6375.62
445.47	6396.68
445.65	6516.05
445.84	6546.48
446.02	6693.93
446.21	6686.91
446.39	6745.42
446.58	6593.29
446.77	6803.94
446.95	6630.74
447.14	6513.71
447.32	6796.92
447.51	6724.36
447.69	6729.04
447.88	6686.91
448.06	6747.76
448.25	6759.47
448.43	6743.08
448.62	6878.83
448.80	6726.70
448.99	6916.28
449.17	6913.94
449.36	6836.70
449.54	7073.10
449.73	7246.30
449.91	7176.08
450.10	7220.55
450.28	7466.31
450.46	7157.36
450.65	7318.86
450.83	7342.26
451.02	7269.70
451.20	7155.02
451.39	7501.42
451.57	7337.58
451.76	7269.70
451.94	7363.33
452.13	7232.26
452.31	7307.15
452.49	7382.05
452.68	7339.92
452.86	7344.60
453.05	7478.01
453.23	7463.97
453.42	7332.90
453.60	7492.05
453.78	7513.12
453.97	7447.58
454.15	7583.34
454.34	7250.98
454.52	7662.91
454.70	7737.81
454.89	7728.45
455.07	7772.92
455.26	7859.52
455.44	7866.54
455.62	7740.15
455.81	7922.71
455.99	7871.22
456.17	7995.27
456.36	7939.10
456.54	8109.96
456.73	7934.42
456.91	8147.40
457.09	8285.50
457.28	8365.07
457.46	8131.02
457.64	8116.98
457.83	8154.43
458.01	8116.98
458.19	8409.54
458.38	8093.57
458.56	8329.97
458.74	8465.72
458.93	8271.45
459.11	8386.14
459.29	8383.80
459.48	8376.78
459.66	8510.19
459.84	8414.23
460.03	8704.45
460.21	8645.94
460.39	8580.40
460.57	8493.80
460.76	8695.09
460.94	8688.07
461.12	8814.46
461.31	8774.67
461.49	8711.47
461.67	8868.29
461.85	9043.83
462.04	9025.11
462.22	9008.72
462.40	9036.81
462.59	9034.47
462.77	8961.91
462.95	9116.39
463.13	8999.36
463.32	8952.55
463.50	9146.81
463.68	9029.79
463.86	9146.81
464.05	9069.58
464.23	8842.54
464.41	9423.00
464.59	8959.57
464.78	9287.25
464.96	9069.58
465.14	9020.42
465.32	9188.94
465.50	9263.84
465.69	9430.02
465.87	9263.84
466.05	9238.09
466.23	9287.25
466.41	9259.16
466.60	9535.34
466.78	9053.19
466.96	9268.52
467.14	9481.51
467.32	9263.84
467.51	9598.54
467.69	9317.67
467.87	9617.26
468.05	9556.41
468.23	9610.24
468.41	9619.60
468.60	9654.71
468.78	9659.39
468.96	9650.03
469.14	9982.38
469.32	9877.06
469.50	9650.03
469.69	9790.46
469.87	9886.42
470.05	9895.78
470.23	9914.51
470.41	10059.62
470.59	10150.90
470.77	10167.29
470.95	10139.20
471.14	10417.72
471.32	10061.96
471.50	10181.33
471.68	10263.25
471.86	10289.00
472.04	10619.01
472.22	10801.57
472.40	10396.66
472.58	10579.22
472.77	10525.39
472.95	10736.04
473.13	11005.20
473.31	10476.24
473.49	10675.18
473.67	10738.38
473.85	10555.82
474.03	11105.84
474.21	11267.34
474.39	11178.40
474.57	11176.06
474.75	11344.58
474.93	11325.85
475.12	11178.40
475.30	11545.86
475.48	11239.25
475.66	11466.28
475.84	11300.11
476.02	11485.01
476.20	11564.59
476.38	11559.91
476.56	12121.63
476.74	12229.30
476.92	11929.71
477.10	12093.55
477.28	12095.89
477.46	12327.60
477.64	12210.57
477.82	12402.50
478.00	12898.69
478.18	12695.07
478.36	12683.36
478.54	13034.44
478.72	12732.51
478.90	13039.12
479.08	13130.41
479.26	13317.65
479.44	13577.45
479.62	13348.08
479.80	13104.66
479.98	13474.46
480.16	13689.79
480.34	13954.27
480.52	13965.98
480.70	14008.11
480.88	13589.15
481.06	14200.03
481.24	14139.18
481.41	14541.75
481.59	14616.65
481.77	14370.89
481.95	14560.47
482.13	14813.25
482.31	14759.42
482.49	15157.31
482.67	15257.95
482.85	15239.23
483.03	15311.78
483.21	15496.69
483.39	15613.71
483.57	15400.72
483.74	15672.23
483.92	15779.89
484.10	16072.46
484.28	16166.08
484.46	16479.71
484.64	16748.87
484.82	16283.11
485.00	16219.91
485.18	16498.44
485.35	16596.74
485.53	16372.05
485.71	16173.10
485.89	16681.00
486.07	16652.91
486.25	16823.77
486.43	17209.96
486.61	17209.96
486.78	17334.01
486.96	17525.93
487.14	17848.93
487.32	17991.70
487.50	18228.09
487.68	18441.08
487.85	18602.58
488.03	18752.37
488.21	18675.13
488.39	19033.24
488.57	18923.23
488.75	18857.70
488.92	19264.95
489.10	19690.93
489.28	19686.25
489.46	19999.88
489.64	19770.51
489.81	20198.82
489.99	20514.80
490.17	20538.20
490.35	20470.33
490.53	20470.33
490.70	20805.02
490.88	20884.60
491.06	21355.05
491.24	20863.54
491.41	21109.29
491.59	21135.04
491.77	21095.25
491.95	21219.30
492.13	21619.53
492.30	21881.67
492.48	21968.27
492.66	21841.88
492.84	22169.55
493.01	22525.32
493.19	21916.78
493.37	22361.48
493.54	22551.06
493.72	22534.68
493.90	23030.87
494.08	23374.93
494.25	23527.06
494.43	23543.45
494.61	23648.77
494.79	23988.15
494.96	23686.22
495.14	23702.61
495.32	23939.00
495.49	23814.95
495.67	24114.54
495.85	24336.89
496.02	24568.60
496.20	24624.78
496.38	24615.41
496.55	24886.92
496.73	25556.31
496.91	25350.34
497.09	25259.06
497.26	25333.96
497.44	25261.40
497.62	25399.49
497.79	25795.04
497.97	25769.30
498.14	25724.83
498.32	26005.69
498.50	26295.92
498.67	25855.90
498.85	26443.37
499.03	26595.51
499.20	26520.61
499.38	26696.15
499.56	26728.92
499.73	26852.97
499.91	26628.27
500.08	27009.78
500.26	26562.74
500.44	26799.13
500.61	26609.55
500.79	26864.67
500.97	26874.03
501.14	27339.80
501.32	27424.06
501.49	27281.28
501.67	27248.52
501.84	28119.20
502.02	27772.80
502.20	27981.10
502.37	28034.94
502.55	28154.30
502.72	27981.10
502.90	28208.14
503.07	28353.25
503.25	28467.94
503.43	28512.41
503.60	28290.06
503.78	28369.63
503.95	28704.33
504.13	28973.49
504.30	28528.79
504.48	29024.98
504.65	29092.86
504.83	29589.05
505.01	29345.64
505.18	29420.53
505.36	29759.91
505.53	29837.15
505.71	30031.41
505.88	30125.04
506.06	29263.72
506.23	29834.81
506.41	30075.88
506.58	30033.75
506.76	30036.09
506.93	30129.72
507.11	30457.39
507.28	30368.45
507.46	30132.06
507.63	30546.33
507.81	30700.81
507.98	30691.44
508.16	30714.85
508.33	30958.27
508.50	31381.90
508.68	31044.87
508.85	31658.09
509.03	31508.29
509.20	31512.97
509.38	31784.48
509.55	31625.32
509.73	31899.16
509.90	31655.75
510.08	31653.40
510.25	31087.00
510.42	31477.86
510.60	31936.61
510.77	32250.24
510.95	32219.81
511.12	32360.25
511.30	32275.99
511.47	32858.78
511.64	32662.18
511.82	32603.66
511.99	32882.19
512.17	32697.28
512.34	32428.12
512.51	32865.80
512.69	33053.05
512.86	33104.54
513.04	33242.63
513.21	33228.59
513.38	33113.90
513.56	33022.62
513.73	32936.02
513.90	32837.72
514.08	33340.93
514.25	33378.38
514.43	33350.29
514.60	33422.85
514.77	33778.61
514.95	34026.71
515.12	34007.98
515.29	33741.16
515.47	34543.97
515.64	34213.95
515.81	34197.57
515.99	34295.87
516.16	34223.31
516.33	33350.29
516.51	33855.85
516.68	33708.40
516.85	33605.41
517.03	34185.86
517.20	33949.47
517.37	34361.40
517.54	34632.91
517.72	34513.54
517.89	34354.38
518.06	34066.50
518.24	34625.89
518.41	34649.29
518.58	34923.13
518.75	34869.30
518.93	35550.40
519.10	35306.98
519.27	35424.01
519.45	35515.29
519.62	35732.96
519.79	35278.89
519.96	35503.59
520.14	35959.99
520.31	35316.34
520.48	36130.85
520.65	35868.71
520.83	36397.67
521.00	36474.91
521.17	36271.28
521.34	36219.79
521.52	36360.22
521.69	36720.66
521.86	36439.80
522.03	36776.84
522.20	36271.28
522.38	36566.19
522.55	36793.22
522.72	36697.26
522.89	36376.61
523.07	37097.49
523.24	37373.67
523.41	36755.77
523.58	37546.87
523.75	37406.44
523.92	38057.11
524.10	37797.31
524.27	37699.01
524.44	37617.09
524.61	37581.98
524.78	37769.22
524.96	37890.93
525.13	37937.74
525.30	38213.93
525.47	38405.85
525.64	38522.88
525.81	38312.23
525.98	37773.91
526.16	37933.06
526.33	37490.70
526.50	37956.47
526.67	37715.39
526.84	37970.51
527.01	37677.94
527.18	37926.04
527.36	38707.78
527.53	38363.72
527.70	38883.32
527.87	38878.64
528.04	38211.59
528.21	39421.64
528.38	38501.81
528.55	38895.02
528.72	39337.38
528.89	39576.12
529.07	39079.92
529.24	39061.20
529.41	39309.30
529.58	39393.56
529.75	39367.81
529.92	39402.92
530.09	39145.46
530.26	39620.59
530.43	39770.38
530.60	39674.42
530.77	39416.96
530.94	39515.26
531.11	39606.55
531.28	39756.34
531.46	40165.93
531.63	40013.80
531.80	39786.77
531.97	40039.54
532.14	39765.70
532.31	39274.19
532.48	39512.92
532.65	40109.76
532.82	39707.19
532.99	40411.69
533.16	39995.07
533.33	40135.51
533.50	40591.91
533.67	40559.14
533.84	40519.35
534.01	41029.59
534.18	40170.61
534.35	41057.68
534.52	40575.53
534.69	40912.56
534.86	40582.55
535.03	40957.03
535.20	41294.07
535.37	41413.44
535.54	41247.26
535.71	40788.52
535.88	41170.02
536.05	40519.35
536.22	41074.06
536.38	41308.11
536.55	40889.16
536.72	41081.08
536.89	41163.00
537.06	41282.37
537.23	41729.41
537.40	41394.71
537.57	41500.04
537.74	41303.43
537.91	41645.15
538.08	41715.37
538.25	41237.90
538.42	41572.60
538.59	41750.48
538.75	41488.34
538.92	41436.84
539.09	42047.72
539.26	41731.75
539.43	41935.38
539.60	41799.63
539.77	41741.11
539.94	41722.39
540.11	41787.92
540.28	41874.52
540.44	41904.95
540.61	41628.77
540.78	42064.11
540.95	41832.39
541.12	42089.85
541.29	42064.11
541.46	41897.93
541.62	42527.53
541.79	42536.90
541.96	42202.20
542.13	42462.00
542.30	41996.23
542.47	42253.69
542.63	42410.51
542.80	42466.68
542.97	43115.01
543.14	43384.17
543.31	42986.28
543.48	43171.18
543.64	43503.54
543.81	43505.88
543.98	43447.36
544.15	43243.74
544.32	43115.01
544.48	43732.91
544.65	43590.14
544.82	43510.56
544.99	42967.55
545.16	43676.74
545.32	43533.96
545.49	43875.68
545.66	43583.12
545.83	44020.80
546.00	43737.59
546.16	43405.23
546.33	43234.38
546.50	42817.76
546.67	43225.01
546.83	43358.42
547.00	43735.25
547.17	43681.42
547.34	43770.36
547.50	43700.14
547.67	43873.34
547.84	43695.46
548.00	44170.59
548.17	44191.65
548.34	44156.55
548.51	44219.74
548.67	44402.30
548.84	44121.44
549.01	43817.17
549.18	43866.32
549.34	44322.72
549.51	44945.31
549.68	44479.54
549.84	44135.48
550.01	44776.79
550.18	44320.38
550.34	44493.58
550.51	44676.15
550.68	44704.23
550.84	44058.24
551.01	44638.70
551.18	44547.42
551.34	44666.78
551.51	44673.81
551.68	44577.84
551.84	45052.97
552.01	44484.22
552.18	44945.31
552.34	44570.82
552.51	44741.68
552.68	44467.84
552.84	45085.74
553.01	45148.93
553.18	44926.58
553.34	44996.80
553.51	44278.25
553.67	44713.59
553.84	45193.40
554.01	45186.38
554.17	44844.66
554.34	45294.05
554.51	45240.21
554.67	45394.69
554.84	45029.57
555.00	45230.85
555.17	45317.45
555.33	44877.43
555.50	44931.26
555.67	45247.24
555.83	45031.91
556.00	45516.40
556.16	45481.29
556.33	45425.12
556.50	45256.60
556.66	45815.99
556.83	44945.31
556.99	45778.54
557.16	45701.30
557.32	45492.99
557.49	45717.68
557.65	45170.00
557.82	45109.14
557.98	45705.98
558.15	45336.18
558.32	45794.92
558.48	45382.99
558.65	45593.64
558.81	45427.46
558.98	45628.74
559.14	45347.88
559.31	45141.91
559.47	45280.00
559.64	45673.21
559.80	45897.91
559.97	45553.85
560.13	45961.10
560.30	45631.08
560.46	45762.15
560.63	45986.85
560.79	46143.66
560.96	45918.97
561.12	45684.92
561.29	45827.69
561.45	45867.48
561.61	45717.68
561.78	45574.91
561.94	45675.55
562.11	45745.77
562.27	45930.67
562.44	45722.37
562.60	45539.80
562.77	46059.40
562.93	45797.26
563.10	45951.74
563.26	45858.12
563.42	46148.34
563.59	45390.01
563.75	46330.90
563.92	46021.95
564.08	46237.28
564.24	46410.48
564.41	45717.68
564.57	46450.27
564.74	45904.93
564.90	46087.49
565.07	46150.68
565.23	46167.07
565.39	46003.23
565.56	45862.80
565.72	45876.84
565.88	45975.14
566.05	46066.42
566.21	45766.84
566.38	45970.46
566.54	46363.67
566.70	46471.34
566.87	46602.41
567.03	46408.14
567.19	46656.24
567.36	46410.48
567.52	45844.07
567.68	46213.88
567.85	46621.13
568.01	46300.48
568.17	46155.36
568.34	46522.83
568.50	46351.97
568.66	45944.72
568.83	46199.83
568.99	45972.80
569.15	46256.01
569.32	46513.47
569.48	46265.37
569.64	46667.94
569.81	46445.59
569.97	46485.38
570.13	46183.45
570.30	45933.01
570.46	46171.75
570.62	45846.41
570.78	46244.30
570.95	46321.54
571.11	46150.68
571.27	46005.57
571.43	46106.21
571.60	46291.12
571.76	46337.93
571.92	46195.15
572.09	46326.22
572.25	46291.12
572.41	46141.32
572.57	46394.10
572.74	46841.14
572.90	46431.55
573.06	46181.11
573.22	46183.45
573.38	46298.14
573.55	46431.55
573.71	46525.17
573.87	46850.50
574.03	46047.70
574.20	46328.56
574.36	46398.78
574.52	46466.66
574.68	46211.54
574.84	46328.56
575.01	46120.26
575.17	46319.20
575.33	46307.50
575.49	46260.69
575.65	46604.75
575.82	46244.30
575.98	46735.82
576.14	46438.57
576.30	46672.62
576.46	46560.28
576.62	46440.91
576.79	46607.09
576.95	46305.16
577.11	46328.56
577.27	46234.94
577.43	46277.07
577.59	46756.88
577.75	46220.90
577.92	45500.01
578.08	45900.25
578.24	46241.96
578.40	46248.99
578.56	46464.32
578.72	46075.79
578.88	46710.07
579.04	46887.95
579.21	46768.58
579.37	46497.08
579.53	46548.57
579.69	46146.00
579.85	46492.40
580.01	46213.88
580.17	46340.27
580.33	46658.58
580.49	46487.72
580.65	46656.24
580.82	46518.15
580.98	46251.33
581.14	46241.96
581.30	46651.56
581.46	46576.66
581.62	46316.86
581.78	46646.88
581.94	46581.34
582.10	46616.45
582.26	46508.79
582.42	46897.31
582.58	46389.42
582.74	46941.78
582.90	46742.84
583.06	46820.08
583.22	46855.18
583.38	46923.06
583.54	46429.21
583.70	46986.25
583.86	46930.08
584.02	46265.37
584.18	46588.36
584.34	46366.01
584.50	46681.98
584.66	46342.61
584.82	46506.44
584.98	46653.90
585.14	46373.03
585.30	46354.31
585.46	46513.47
585.62	46373.03
585.78	46487.72
585.94	46192.81
586.10	46436.23
586.26	46370.69
586.42	46918.38
586.58	46988.60
586.74	46703.05
586.90	46550.91
587.06	46480.70
587.22	46380.06
587.38	46494.74
587.54	46696.03
587.70	46588.36
587.86	46639.86
588.02	46305.16
588.18	47147.75
588.34	46129.62
588.49	45907.27
588.65	45801.94
588.81	46082.81
588.97	46195.15
589.13	46492.40
589.29	46333.24
589.45	46312.18
589.61	46384.74
589.77	46024.29
589.93	46597.73
590.08	46831.78
590.24	46595.38
590.40	46735.82
590.56	47131.37
590.72	47281.16
590.88	46635.17
591.04	46469.00
591.20	46822.42
591.35	47014.34
591.51	47070.51
591.67	46461.97
591.83	46658.58
591.99	46646.88
592.15	46841.14
592.31	46759.22
592.46	46651.56
592.62	46806.03
592.78	47117.32
592.94	47126.69
593.10	46410.48
593.26	47192.22
593.41	46607.09
593.57	46974.55
593.73	46550.91
593.89	46920.72
594.05	46590.70
594.20	46761.56
594.36	46806.03
594.52	46131.96
594.68	46920.72
594.84	46323.88
594.99	47276.48
595.15	46141.32
595.31	46801.35
595.47	46497.08
595.62	46710.07
595.78	46541.55
595.94	47030.72
596.10	46890.29
596.25	47093.92
596.41	47047.11
596.57	46614.11
596.73	47009.66
596.88	46478.36
597.04	46967.53
597.20	46815.40
597.36	46913.70
597.51	46806.03
597.67	46958.17
597.83	46993.28
597.99	47075.19
598.14	46784.97
598.30	46766.24
598.46	46476.02
598.61	46955.83
598.77	46873.91
598.93	46616.45
599.09	46471.34
599.24	47133.71
599.40	46831.78
599.56	46646.88
599.71	46319.20
599.87	46838.80
600.03	46962.85
600.18	46452.61
600.34	46649.22
600.50	46880.93
600.65	46436.23
600.81	46761.56
600.97	47334.99
601.12	46660.92
601.28	46801.35
601.44	46644.54
601.59	46515.81
601.75	46443.25
601.91	46623.47
602.06	46305.16
602.22	46834.12
602.37	46614.11
602.53	46897.31
602.69	46550.91
602.84	46646.88
603.00	46707.73
603.16	46780.29
603.31	46646.88
603.47	46735.82
603.62	46841.14
603.78	46738.16
603.94	46515.81
604.09	46644.54
604.25	46948.81
604.40	46848.16
604.56	46799.01
604.71	46848.16
604.87	46047.70
605.03	46476.02
605.18	46665.60
605.34	46361.33
605.49	46522.83
605.65	46672.62
605.80	46162.39
605.96	46759.22
606.12	46796.67
606.27	46902.00
606.43	46169.41
606.58	46768.58
606.74	46579.00
606.89	46752.20
607.05	46628.15
607.20	46894.97
607.36	46663.26
607.51	46417.50
607.67	46295.80
607.82	46314.52
607.98	46504.10
608.13	46220.90
608.29	46284.09
608.44	45750.45
608.60	46174.09
608.75	45759.81
608.91	46150.68
609.06	46089.83
609.22	46277.07
609.37	46391.76
609.53	46277.07
609.68	46160.05
609.84	45970.46
609.99	46579.00
610.15	45799.60
610.30	45991.53
610.46	46028.98
610.61	46412.82
610.76	46036.00
610.92	45542.14
611.07	45881.52
611.23	45951.74
611.38	46038.34
611.54	46101.53
611.69	45839.39
611.84	45900.25
612.00	45839.39
612.15	45624.06
612.31	45815.99
612.46	45485.97
612.62	45764.49
612.77	46045.36
612.92	46178.77
613.08	45315.11
613.23	45834.71
613.39	45759.81
613.54	45680.24
613.69	45708.32
613.85	45455.54
614.00	45481.29
614.15	45846.41
614.31	45497.67
614.46	45734.07
614.62	45769.18
614.77	45457.88
614.92	45471.93
615.08	45357.24
615.23	45160.64
615.38	45031.91
615.54	44837.64
615.69	45640.45
615.84	44957.01
616.00	45263.62
616.15	44893.82
616.30	45191.06
616.46	45015.52
616.61	45017.86
616.76	45158.30
616.92	44589.55
617.07	44797.85
617.22	44470.18
617.37	45062.33
617.53	45097.44
617.68	45434.48
617.83	45155.96
617.99	45436.82
618.14	44982.76
618.29	44884.45
618.45	44924.24
618.60	44933.60
618.75	44811.90
618.90	45083.40
619.06	45090.42
619.21	45237.87
619.36	45322.13
619.51	45118.51
619.67	44828.28
619.82	44931.26
619.97	44856.37
620.12	44804.88
620.28	44509.97
620.43	44582.52
620.58	45123.19
620.73	44755.72
620.89	44222.08
621.04	44720.62
621.19	44357.83
621.34	44938.29
621.49	44760.40
621.65	44165.91
621.80	44545.08
621.95	44390.60
622.10	44182.29
622.25	44142.50
622.41	44142.50
622.56	44058.24
622.71	44016.11
622.86	44289.96
623.01	44116.76
623.16	44325.07
623.32	43838.23
623.47	44470.18
623.62	43704.82
623.77	43976.33
623.92	44341.45
624.07	44144.84
624.23	44006.75
624.38	44170.59
624.53	43756.32
624.68	43931.86
624.83	43796.10
624.98	43548.01
625.13	43569.07
625.29	43859.30
625.44	43641.63
625.59	43320.98
625.74	43140.75
625.89	43459.07
626.04	43246.08
626.19	43433.32
626.34	43409.92
626.49	43597.16
626.65	43964.62
626.80	43421.62
626.95	43566.73
627.10	43215.65
627.25	43152.46
627.40	43007.34
627.55	43164.16
627.70	42562.64
627.85	43098.62
628.00	43271.82
628.15	43091.60
628.30	42981.60
628.45	43075.22
628.60	43253.10
628.76	43115.01
628.91	43178.20
629.06	42939.47
629.21	43033.09
629.36	42948.83
629.51	43021.39
629.66	42724.14
629.81	42412.85
629.96	42773.29
630.11	42962.87
630.26	43061.18
630.41	42855.21
630.56	42721.80
630.71	42883.30
630.86	42462.00
631.01	42141.35
631.16	42649.24
631.31	42066.45
631.46	41904.95
631.61	42384.76
631.76	42302.84
631.91	42850.53
632.06	42492.43
632.21	42852.87
632.36	42674.99
632.51	42293.48
632.66	42459.66
632.81	42129.64
632.96	41940.06
633.10	42454.98
633.25	42148.37
633.40	42029.00
633.55	42085.17
633.70	42026.66
633.85	42033.68
634.00	42061.77
634.15	42351.99
634.30	42134.32
634.45	42014.96
634.60	41614.72
634.75	42131.98
634.90	41668.56
635.05	41642.81
635.19	42150.71
635.34	41869.84
635.49	42164.75
635.64	41310.46
635.79	41500.04
635.94	41937.72
636.09	41706.01
636.24	41698.98
636.39	41242.58
636.53	41687.28
636.68	41123.21
636.83	41462.59
636.98	41516.42
637.13	41830.05
637.28	41600.68
637.43	41745.80
637.57	42050.06
637.72	41624.09
637.87	41319.82
638.02	41474.29
638.17	41797.29
638.32	41366.63
638.46	41282.37
638.61	41132.57
638.76	41216.83
638.91	41371.31
639.06	41457.91
639.20	41514.08
639.35	41195.77
639.50	41411.10
639.65	41411.10
639.80	41200.45
639.94	41214.49
640.09	40430.41
640.24	40753.41
640.39	40825.96
640.54	40704.26
640.68	40975.76
640.83	40875.12
640.98	40730.00
641.13	40636.38
641.27	40594.25
641.42	41081.08
641.57	40760.43
641.72	40612.98
641.86	40250.19
642.01	40437.44
642.16	40603.61
642.31	40140.19
642.45	40697.24
642.60	40376.58
642.75	40549.78
642.90	40301.68
643.04	40779.15
643.19	40112.10
643.34	40376.58
643.48	40549.78
643.63	40245.51
643.78	40105.08
643.93	40112.10
644.07	39978.69
644.22	39974.01
644.37	40191.68
644.51	40463.18
644.66	40123.80
644.81	40297.00
644.95	40315.73
645.10	40137.85
645.25	40128.48
645.39	39990.39
645.54	39849.96
645.69	40069.97
645.83	40119.12
645.98	40053.59
646.13	39831.24
646.27	39821.87
646.42	39887.41
646.57	39533.99
646.71	39856.98
646.86	39784.43
647.00	39761.02
647.15	40187.00
647.30	39725.91
647.44	39618.25
647.59	39847.62
647.74	39445.05
647.88	39290.57
648.03	39552.71
648.17	39634.63
648.32	39484.84
648.47	39093.97
648.61	39306.96
648.76	39751.66
648.90	39632.29
649.05	39503.56
649.20	39239.08
649.34	39194.61
649.49	38955.88
649.63	38672.67
649.78	38958.22
649.92	39346.75
650.07	39643.99
650.21	38960.56
650.36	39079.92
650.51	39257.81
650.65	39480.16
650.80	39569.10
650.94	39452.07
651.09	39126.74
651.23	38911.41
651.38	38953.54
651.52	39182.91
651.67	39253.12
651.81	38625.86
651.96	38731.18
652.10	38405.85
652.25	38464.36
652.39	38778.00
652.54	38649.27
652.68	39108.01
652.83	38705.44
652.97	38906.73
653.12	39021.41
653.26	38979.28
653.41	38586.07
653.55	38443.30
653.70	38483.09
653.84	38740.55
653.99	38328.61
654.13	38185.84
654.27	38319.25
654.42	38124.99
654.56	38038.39
654.71	38436.28
654.85	38726.50
655.00	38602.46
655.14	38515.86
655.29	37991.58
655.43	38129.67
655.57	37593.68
655.72	37638.15
655.86	37467.30
656.01	37371.33
656.15	37198.13
656.30	37392.40
656.44	37610.07
656.58	37495.38
656.73	37425.17
656.87	37364.31
657.01	37523.47
657.16	37708.37
657.30	37914.34
657.45	37549.21
657.59	37780.93
657.73	37586.66
657.88	37993.92
658.02	38206.90
658.16	38073.49
658.31	38157.75
658.45	37750.50
658.60	37715.39
658.74	37942.42
658.88	37558.58
659.03	37242.60
659.17	37205.16
659.31	37392.40
659.46	37624.11
659.60	37481.34
659.74	37205.16
659.89	36907.91
660.03	36858.76
660.17	36992.17
660.32	37015.57
660.46	36989.83
660.60	37099.83
660.74	37120.90
660.89	36898.55
661.03	36863.44
661.17	36479.59
661.32	36254.90
661.46	36521.72
661.60	36868.12
661.74	36538.10
661.89	36477.25
662.03	36615.34
662.17	36341.50
662.31	36259.58
662.46	36250.22
662.60	36828.33
662.74	36371.92
662.88	36062.97
663.03	36184.68
663.17	36182.34
663.31	35964.67
663.45	35847.64
663.60	36177.66
663.74	35964.67
663.88	35807.86
664.02	35562.10
664.17	36208.09
664.31	35569.12
664.45	35648.70
664.59	35559.76
664.73	35323.36
664.88	35311.66
665.02	35435.71
665.16	35367.84
665.30	35386.56
665.44	35129.10
665.59	35084.63
665.73	35047.18
665.87	35035.48
666.01	35164.21
666.15	34953.56
666.29	35147.82
666.44	35243.79
666.58	34775.68
666.72	34775.68
666.86	34558.01
667.00	35005.05
667.14	34611.84
667.28	34581.42
667.43	34525.24
667.57	34513.54
667.71	34209.27
667.85	34955.90
667.99	34333.32
668.13	34330.98
668.27	34494.82
668.41	34998.03
668.56	34298.21
668.70	34099.26
668.84	33923.72
668.98	34125.01
669.12	33504.77
669.26	33287.10
669.40	33640.52
669.54	33680.31
669.68	33642.86
669.82	33511.79
669.96	33387.74
670.10	33464.98
670.25	33830.10
670.39	33532.86
670.53	32924.32
670.67	32868.14
670.81	33324.55
670.95	33263.69
671.09	33127.94
671.23	33490.73
671.37	33383.06
671.51	32910.27
671.65	32526.42
671.79	32479.61
671.93	32545.15
672.07	32907.93
672.21	32751.12
672.35	32821.33
672.49	32772.18
672.63	32601.32
672.77	32568.55
672.91	32329.82
673.05	32126.19
673.19	32065.34
673.33	31679.15
673.47	31901.50
673.61	31814.90
673.75	31655.75
673.89	31431.05
674.03	31681.49
674.17	32034.91
674.31	31683.83
674.45	31498.93
674.59	31615.96
674.73	31772.77
674.87	31337.43
675.01	31339.77
675.15	31337.43
675.29	31426.37
675.43	30796.77
675.56	31215.72
675.70	30899.75
675.84	30548.67
675.98	29790.34
676.12	30707.83
676.26	31026.14
676.40	30511.22
676.54	30611.87
676.68	30747.62
676.82	30075.88
676.96	30494.84
677.10	30469.09
677.23	30249.08
677.37	29816.08
677.51	29677.99
677.65	29783.32
677.79	29359.68
677.93	29610.12
678.07	29235.63
678.21	28830.72
678.34	29230.95
678.48	28769.86
678.62	28844.76
678.76	28814.34
678.90	28657.52
679.04	28594.32
679.18	28767.52
679.31	28276.01
679.45	28322.82
679.59	28350.91
679.73	28390.70
679.87	28002.17
680.00	28158.99
680.14	28065.36
680.28	28346.23
680.42	28130.90
680.56	28051.32
680.70	27899.19
680.83	27641.73
680.97	27707.26
681.11	27723.65
681.25	27398.31
681.39	27370.22
681.52	27725.99
681.66	27250.86
681.80	27012.12
681.94	27110.43
682.07	27014.46
682.21	26749.98
682.35	26583.80
682.49	26960.63
682.62	26593.17
682.76	26670.40
682.90	26232.72
683.04	26302.94
683.17	26169.53
683.31	25902.71
683.45	26061.87
683.59	26071.23
683.72	25802.07
683.86	25961.22
684.00	25795.04
684.13	25949.52
684.27	25429.92
684.41	25490.77
684.55	25041.39
684.68	25376.09
684.82	25455.67
684.96	25221.61
685.09	24973.52
685.23	25177.14
685.37	25043.73
685.50	24947.77
685.64	24835.42
685.78	24877.55
685.91	24711.38
686.05	24142.63
686.19	24294.76
686.32	23985.81
686.46	23789.20
686.60	23779.84
686.73	23632.39
686.87	23461.53
687.01	23400.68
687.14	23585.58
687.28	23166.62
687.42	23178.33
687.55	23220.45
687.69	22998.10
687.82	23236.84
687.96	23396.00
688.10	23098.75
688.23	22864.69
688.37	22834.27
688.50	22314.67
688.64	22422.33
688.78	22530.00
688.91	22537.02
689.05	22429.35
689.18	22464.46
689.32	21776.34
689.46	22064.23
689.59	22127.42
689.73	22024.44
689.86	22312.33
690.00	21722.51
690.13	21869.97
690.27	21965.93
690.41	21593.78
690.54	21317.60
690.68	21558.67
690.81	21462.71
690.95	21495.48
691.08	21202.91
691.22	21359.73
691.35	21198.23
691.49	21113.97
691.62	21165.46
691.76	21076.52
691.89	21032.05
692.03	20929.07
692.16	20734.81
692.30	20362.66
692.43	20596.71
692.57	20554.58
692.70	20322.87
692.84	20456.28
692.97	19969.45
693.11	20023.28
693.24	20102.86
693.38	19697.95
693.51	19798.59
693.65	20421.17
693.78	19939.02
693.92	19882.85
694.05	19920.30
694.19	19953.07
694.32	19566.88
694.45	19206.44
694.59	18979.40
694.72	19346.87
694.86	19021.53
694.99	18759.39
695.13	19073.03
695.26	18958.34
695.39	18775.78
695.53	18937.27
695.66	19035.58
695.80	18796.84
695.93	18347.46
696.07	18359.16
696.20	18604.92
696.33	18415.34
696.47	18539.38
696.60	18134.47
696.73	17975.31
696.87	18078.30
697.00	17853.61
697.14	17898.08
697.27	17755.30
697.40	17926.16
697.54	17366.78
697.67	17502.53
697.80	17738.92
697.94	17537.63
698.07	16971.22
698.21	17200.60
698.34	17329.33
698.47	16980.59
698.61	16936.12
698.74	16751.21
698.87	16758.24
699.01	16374.39
699.14	16552.27
699.27	16360.34
699.40	16437.58
699.54	16318.22
699.67	16259.70
699.80	16285.45
699.94	16191.83
700.07	16226.93
700.20	15805.64
700.34	15779.89
700.47	16102.89
700.60	16156.72
700.73	16133.31
700.87	16006.92
701.00	15887.56
701.13	15852.45
701.26	15517.75
701.40	15679.25
701.53	15412.43
701.66	15447.54
701.79	15117.52
701.93	15536.48
702.06	15213.48
702.19	14932.62
702.32	15014.54
702.46	14909.21
702.59	15019.22
702.72	14843.68
702.85	15007.52
702.99	14885.81
703.12	14677.50
703.25	14541.75
703.38	14562.81
703.51	14321.74
703.65	14406.00
703.78	14338.12
703.91	14305.35
704.04	14136.84
704.17	14033.85
704.31	14277.27
704.44	14080.66
704.57	14223.44
704.70	14003.43
704.83	13984.70
704.96	13837.25
705.10	13760.01
705.23	13799.80
>>>>>End Processed Spectral Data<<<<<
