SpectraSuite Data File
++++++++++++++++++++++++++++++++++++
Date: Fri Oct 25 10:48:22 EDT 2013
User: price-jones
Dark Spectrum Present: No
Reference Spectrum Present: No
Number of Sampled Component Spectra: 1
Spectrometers: USB2+H05261
Integration Time (usec): 100000 (USB2+H05261)
Spectra Averaged: 1 (USB2+H05261)
Boxcar Smoothing: 0 (USB2+H05261)
Correct for Electrical Dark: No (USB2+H05261)
Strobe/Lamp Enabled: No (USB2+H05261)
Correct for Detector Non-linearity: No (USB2+H05261)
Correct for Stray Light: No (USB2+H05261)
Number of Pixels in Processed Spectrum: 2048
>>>>>Begin Processed Spectral Data<<<<<
365.73	145.11
365.92	145.11
366.12	145.11
366.32	35.11
366.52	37.45
366.72	88.94
366.91	0.00
367.11	51.49
367.31	4.68
367.51	0.00
367.70	32.77
367.90	95.96
368.10	0.00
368.30	25.75
368.49	81.92
368.69	53.83
368.89	44.47
369.09	42.13
369.28	63.19
369.48	119.37
369.68	100.64
369.87	44.47
370.07	81.92
370.27	138.09
370.47	236.39
370.66	447.04
370.86	395.55
371.06	449.38
371.25	472.79
371.45	430.66
371.65	505.56
371.84	521.94
372.04	514.92
372.24	512.58
372.44	507.90
372.63	554.71
372.83	566.41
373.03	465.77
373.22	582.79
373.42	526.62
373.62	575.77
373.81	535.98
374.01	610.88
374.21	592.16
374.40	568.75
374.60	587.47
374.79	606.20
374.99	631.94
375.19	704.50
375.38	667.05
375.58	596.84
375.78	594.50
375.97	648.33
376.17	699.82
376.37	653.01
376.56	669.39
376.76	594.50
376.95	606.20
377.15	617.90
377.35	601.52
377.54	683.44
377.74	664.71
377.93	643.65
378.13	554.71
378.33	716.20
378.52	732.59
378.72	713.86
378.91	718.54
379.11	674.07
379.31	683.44
379.50	634.29
379.70	739.61
379.89	760.67
380.09	655.35
380.28	660.03
380.48	678.76
380.68	706.84
380.87	758.33
381.07	751.31
381.26	737.27
381.46	795.78
381.65	741.95
381.85	676.41
382.04	744.29
382.24	683.44
382.43	631.94
382.63	751.31
382.83	793.44
383.02	770.04
383.22	730.25
383.41	739.61
383.61	763.01
383.80	877.70
384.00	739.61
384.19	765.36
384.39	835.57
384.58	814.51
384.78	746.63
384.97	819.19
385.17	774.72
385.36	791.10
385.56	837.91
385.75	856.64
385.95	957.28
386.14	926.85
386.34	873.02
386.53	873.02
386.72	938.55
386.92	947.92
387.11	919.83
387.31	961.96
387.50	903.45
387.70	849.61
387.89	891.74
388.09	919.83
388.28	903.45
388.48	901.11
388.67	880.04
388.86	922.17
389.06	866.00
389.25	943.24
389.45	983.02
389.64	929.19
389.84	992.39
390.03	1004.09
390.22	1102.39
390.42	1104.73
390.61	978.34
390.81	987.71
391.00	1025.15
391.19	1123.46
391.39	1121.12
391.58	1109.41
391.78	1018.13
391.97	1123.46
392.16	1151.54
392.36	1116.44
392.55	1032.18
392.75	1043.88
392.94	1025.15
393.13	1088.35
393.33	1074.31
393.52	1135.16
393.71	1097.71
393.91	1198.35
394.10	1123.46
394.29	1151.54
394.49	1268.57
394.68	1156.22
394.88	1252.19
395.07	1327.08
395.26	1249.85
395.46	1179.63
395.65	1245.16
395.84	1214.74
396.04	1280.27
396.23	1184.31
396.42	1163.25
396.62	1188.99
396.81	1306.02
397.00	1247.51
397.19	1284.95
397.39	1376.24
397.58	1362.19
397.77	1460.49
397.97	1446.45
398.16	1427.73
398.35	1460.49
398.55	1399.64
398.74	1516.67
398.93	1476.88
399.12	1504.96
399.32	1497.94
399.51	1582.20
399.70	1511.99
399.90	1497.94
400.09	1572.84
400.28	1675.82
400.47	1530.71
400.67	1692.21
400.86	1636.03
401.05	1687.53
401.24	1694.55
401.44	1788.17
401.63	1713.27
401.82	1743.70
402.01	1645.40
402.21	1769.44
402.40	1753.06
402.59	1685.19
402.78	1729.66
402.97	1771.79
403.17	1802.21
403.36	1853.70
403.55	1809.23
403.74	1966.05
403.93	1853.70
404.13	1900.52
404.32	1940.30
404.51	1898.17
404.70	1909.88
404.89	1844.34
405.09	2012.86
405.28	1989.46
405.47	1959.03
405.66	1839.66
405.85	1944.99
406.05	2010.52
406.24	2026.90
406.43	2008.18
406.62	2015.20
406.81	2129.89
407.00	1996.48
407.20	2038.61
407.39	2003.50
407.58	2132.23
407.77	2136.91
407.96	2289.04
408.15	2225.85
408.34	2230.53
408.54	2207.13
408.73	2347.56
408.92	2190.74
409.11	2328.83
409.30	2352.24
409.49	2237.55
409.68	2282.02
409.87	2298.41
410.07	2417.77
410.26	2410.75
410.45	2314.79
410.64	2455.22
410.83	2480.97
411.02	2602.68
411.21	2532.46
411.40	2511.39
411.59	2614.38
411.78	2654.17
411.98	2509.05
412.17	2736.09
412.36	2693.96
412.55	2658.85
412.74	2787.58
412.93	2733.75
413.12	2796.94
413.31	2981.84
413.50	2775.88
413.69	2892.90
413.88	2925.67
414.07	3005.25
414.26	2993.55
414.45	2911.63
414.64	3049.72
414.83	2862.48
415.02	3014.61
415.22	2967.80
415.41	3265.05
415.60	3073.12
415.79	3213.56
415.98	3279.09
416.17	3199.51
416.36	3344.63
416.55	3201.85
416.74	3229.94
416.93	3288.45
417.12	3344.63
417.31	3318.88
417.50	3206.53
417.69	3459.31
417.88	3445.27
418.07	3466.33
418.26	3349.31
418.45	3473.36
418.64	3566.98
418.83	3548.25
419.02	3503.78
419.21	3545.91
419.39	3618.47
419.58	3566.98
419.77	3550.59
419.96	3545.91
420.15	3754.22
420.34	3744.86
420.53	3676.98
420.72	3754.22
420.91	3866.56
421.10	3864.22
421.29	3878.27
421.48	3658.26
421.67	3772.94
421.86	3845.50
422.05	3803.37
422.24	3742.52
422.43	3845.50
422.61	3913.38
422.80	3915.72
422.99	3941.46
423.18	3911.04
423.37	4205.94
423.56	3934.44
423.75	3873.59
423.94	3960.19
424.13	3623.15
424.32	3871.25
424.50	4014.02
424.69	3964.87
424.88	4039.76
425.07	3983.59
425.26	3871.25
425.45	3941.46
425.64	4060.83
425.83	4049.13
426.01	4014.02
426.20	4079.55
426.39	4009.34
426.58	4037.42
426.77	4084.23
426.96	4007.00
427.15	3936.78
427.33	4035.08
427.52	4014.02
427.71	4091.26
427.90	4084.23
428.09	4170.83
428.28	4109.98
428.46	4156.79
428.65	4060.83
428.84	4287.86
429.03	4219.99
429.22	4135.73
429.40	4170.83
429.59	4264.46
429.78	4030.40
429.97	3992.95
430.16	4058.49
430.34	4161.47
430.53	4217.65
430.72	4250.41
430.91	4145.09
431.10	4250.41
431.28	4486.81
431.47	4479.79
431.66	4746.61
431.85	4542.98
432.03	4582.77
432.22	4690.43
432.41	4601.49
432.60	4851.93
432.79	4580.43
432.97	4741.93
433.16	4760.65
433.35	4568.73
433.54	4674.05
433.72	4561.70
433.91	4650.64
434.10	4765.33
434.28	4739.58
434.47	4901.08
434.66	4985.34
434.85	4961.94
435.03	5083.64
435.22	4952.57
435.41	5043.85
435.59	4936.19
435.78	5123.43
435.97	5163.22
436.16	5273.23
436.34	5088.32
436.53	5027.47
436.72	5193.65
436.90	5029.81
437.09	5116.41
437.28	5093.01
437.46	5200.67
437.65	5118.75
437.84	5095.35
438.02	5301.31
438.21	5198.33
438.40	5116.41
438.58	5397.28
438.77	5481.53
438.96	5558.77
439.14	5577.50
439.33	5692.18
439.52	5636.01
439.70	5551.75
439.89	5593.88
440.08	5717.93
440.26	5682.82
440.45	5753.04
440.63	5853.68
440.82	5919.21
441.01	5650.05
441.19	5956.66
441.38	6141.57
441.57	6200.08
441.75	6019.86
441.94	6263.27
442.12	6253.91
442.31	6422.43
442.50	6228.17
442.68	6333.49
442.87	6263.27
443.05	6321.79
443.24	6464.56
443.43	6359.24
443.61	6387.32
443.80	6698.61
443.98	6263.27
444.17	6326.47
444.35	6581.59
444.54	6607.33
444.73	6506.69
444.91	6544.14
445.10	6565.20
445.28	6459.88
445.47	6265.61
445.65	6333.49
445.84	6424.77
446.02	6579.25
446.21	6513.71
446.39	6431.79
446.58	6703.29
446.77	6525.41
446.95	6513.71
447.14	6630.74
447.32	6757.13
447.51	6729.04
447.69	6719.68
447.88	6773.51
448.06	6913.94
448.25	6661.16
448.43	6761.81
448.62	6520.73
448.80	6736.06
448.99	6836.70
449.17	6787.55
449.36	6881.18
449.54	6839.05
449.73	6944.37
449.91	7016.93
450.10	7332.90
450.28	7262.68
450.46	7321.20
450.65	7283.75
450.83	7129.27
451.02	7030.97
451.20	7112.89
451.39	7040.33
451.57	7169.06
451.76	7019.27
451.94	7185.44
452.13	7208.85
452.31	7426.52
452.49	6981.82
452.68	7140.97
452.86	7115.23
453.05	7250.98
453.23	7513.12
453.42	7365.67
453.60	7124.59
453.78	7499.08
453.97	7183.10
454.15	7503.76
454.34	7478.01
454.52	7478.01
454.70	7239.28
454.89	7527.16
455.07	7573.97
455.26	7442.90
455.44	7784.62
455.62	7611.42
455.81	7742.49
455.99	7779.94
456.17	7819.73
456.36	7882.92
456.54	8091.23
456.73	7950.80
456.91	8336.99
457.09	8067.83
457.28	8344.01
457.46	7934.42
457.64	8109.96
457.83	8131.02
458.01	7974.21
458.19	8367.42
458.38	8149.75
458.56	8159.11
458.74	8358.05
458.93	8187.19
459.11	8351.03
459.29	8102.93
459.48	8276.13
459.66	8184.85
459.84	8290.18
460.03	8479.76
460.21	8521.89
460.39	8259.75
460.57	8435.29
460.76	8531.25
460.94	8524.23
461.12	8634.24
461.31	8858.93
461.49	8713.81
461.67	8671.68
461.85	8833.18
462.04	8772.33
462.22	9231.07
462.40	9081.28
462.59	8767.65
462.77	8922.12
462.95	8964.25
463.13	8961.91
463.32	8912.76
463.50	9095.32
463.68	9095.32
463.86	9013.40
464.05	8863.61
464.23	8854.25
464.41	9092.98
464.59	8961.91
464.78	9315.33
464.96	9188.94
465.14	8966.59
465.32	9327.03
465.50	9406.61
465.69	9083.62
465.87	9242.78
466.05	9273.20
466.23	9078.94
466.41	9301.29
466.60	9444.06
466.78	9275.54
466.96	9465.13
467.14	9394.91
467.32	9486.19
467.51	9781.10
467.69	9350.44
467.87	9437.04
468.05	9413.63
468.23	9535.34
468.41	9376.19
468.60	9509.60
468.78	9518.96
468.96	9493.21
469.14	9650.03
469.32	9734.29
469.50	9434.70
469.69	9825.57
469.87	9757.69
470.05	9844.29
470.23	9933.23
470.41	10162.61
470.59	9902.81
470.77	9984.73
470.95	9884.08
471.14	10366.23
471.32	10085.37
471.50	10258.57
471.68	10256.23
471.86	10300.70
472.04	10331.12
472.22	10647.10
472.40	10335.81
472.58	10305.38
472.77	10583.90
472.95	10424.75
473.13	10656.46
473.31	10541.77
473.49	10448.15
473.67	10724.33
473.85	10808.59
474.03	10918.60
474.21	10930.30
474.39	11047.33
474.57	10991.16
474.75	11028.60
474.93	11342.24
475.12	10930.30
475.30	11220.53
475.48	11084.78
475.66	11330.53
475.84	11115.20
476.02	11566.93
476.20	11569.27
476.38	11728.42
476.56	12004.61
476.74	12065.46
476.92	11831.41
477.10	12147.38
477.28	12217.60
477.46	12035.03
477.64	12198.87
477.82	12194.19
478.00	12631.87
478.18	12306.54
478.36	12589.74
478.54	12706.77
478.72	12957.21
478.90	13050.83
479.08	13053.17
479.26	13217.01
479.44	13240.41
479.62	13191.26
479.80	13303.60
479.98	13380.84
480.16	13549.36
480.34	13708.52
480.52	13771.71
480.70	13886.40
480.88	13645.32
481.06	13900.44
481.24	14010.45
481.41	14270.25
481.59	14263.22
481.77	14518.34
481.95	14487.92
482.13	14668.14
482.31	14466.85
482.49	14796.87
482.67	14738.35
482.85	14668.14
483.03	15318.81
483.21	15524.77
483.39	15414.77
483.57	15365.62
483.74	15419.45
483.92	15882.88
484.10	15398.38
484.28	15805.64
484.46	15920.32
484.64	16514.82
484.82	16187.14
485.00	16116.93
485.18	16393.11
485.35	16507.80
485.53	16365.03
485.71	16140.33
485.89	16374.39
486.07	16475.03
486.25	16669.30
486.43	16723.13
486.61	17315.28
486.78	17394.86
486.96	17294.22
487.14	17762.33
487.32	17631.26
487.50	17914.46
487.68	18054.89
487.85	18448.10
488.03	18457.46
488.21	18403.63
488.39	18710.24
488.57	18876.42
488.75	18883.44
488.92	19016.85
489.10	19421.77
489.28	19534.11
489.46	19674.54
489.64	19711.99
489.81	20119.24
489.99	20163.72
490.17	20133.29
490.35	20161.37
490.53	20294.79
490.70	20540.54
490.88	20521.82
491.06	20514.80
491.24	20823.75
491.41	20896.30
491.59	21188.87
491.77	20603.74
491.95	21689.74
492.13	21628.89
492.30	21710.81
492.48	21855.92
492.66	21722.51
492.84	21766.98
493.01	22225.73
493.19	22068.91
493.37	22333.39
493.54	22401.27
493.72	22525.32
493.90	22520.63
494.08	22705.54
494.25	23147.90
494.43	23171.30
494.61	23461.53
494.79	23527.06
494.96	23513.02
495.14	23541.11
495.32	23751.76
495.49	23878.15
495.67	23885.17
495.85	24287.74
496.02	24711.38
496.20	24360.30
496.38	24538.18
496.55	24547.54
496.73	25160.76
496.91	24566.26
497.09	24680.95
497.26	25149.06
497.44	24833.08
497.62	25205.23
497.79	25280.13
497.97	25563.33
498.14	25649.93
498.32	25738.87
498.50	25593.76
498.67	26335.71
498.85	26235.06
499.03	26204.64
499.20	26354.43
499.38	26469.12
499.56	26511.25
499.73	26661.04
499.91	26515.93
500.08	26485.50
500.26	26867.01
500.44	26476.14
500.61	26827.22
500.79	26888.07
500.97	27077.66
501.14	27653.43
501.32	26986.38
501.49	27510.66
501.67	27030.85
501.84	27316.39
502.02	27594.92
502.20	27962.38
502.37	27847.69
502.55	27744.71
502.72	28133.24
502.90	28208.14
503.07	28030.26
503.25	28098.13
503.43	28306.44
503.60	28336.87
503.78	28517.09
503.95	28446.87
504.13	28519.43
504.30	28788.59
504.48	28854.12
504.65	28814.34
504.83	28624.75
505.01	29336.27
505.18	29024.98
505.36	29535.22
505.53	29567.99
505.71	29933.11
505.88	29729.48
506.06	29376.06
506.23	29500.11
506.41	29575.01
506.58	29912.05
506.76	29874.60
506.93	30136.74
507.11	30389.52
507.28	30529.95
507.46	30445.69
507.63	30008.01
507.81	30384.83
507.98	30567.40
508.16	30504.20
508.33	30646.97
508.50	30984.01
508.68	30806.13
508.85	31140.83
509.03	30897.41
509.20	31089.34
509.38	31482.55
509.55	31187.64
509.73	31363.18
509.90	31522.34
510.08	31510.63
510.25	31473.18
510.42	31789.16
510.60	31775.11
510.77	31620.64
510.95	32009.17
511.12	31927.25
511.30	32505.36
511.47	32430.46
511.64	32346.20
511.82	32503.02
511.99	32376.63
512.17	32496.00
512.34	32479.61
512.51	32999.21
512.69	32921.98
512.86	32961.76
513.04	33441.57
513.21	32498.34
513.38	32971.13
513.56	32903.25
513.73	33205.18
513.90	33273.06
514.08	32746.44
514.25	33067.09
514.43	32938.36
514.60	33226.24
514.77	33237.95
514.95	33677.97
515.12	33692.01
515.29	33802.02
515.47	34110.97
515.64	34426.94
515.81	33972.88
515.99	33956.49
516.16	33673.29
516.33	33867.55
516.51	33975.22
516.68	33549.24
516.85	33916.70
517.03	33963.51
517.20	33799.68
517.37	34103.95
517.54	34590.78
517.72	34988.67
517.89	33963.51
518.06	34192.89
518.24	34183.52
518.41	34136.71
518.58	34345.02
518.75	34852.92
518.93	35182.93
519.10	34822.49
519.27	35367.84
519.45	35419.33
519.62	35201.66
519.79	35644.02
519.96	35871.05
520.14	35878.07
520.31	35945.95
520.48	35667.42
520.65	35903.82
520.83	35868.71
521.00	36315.75
521.17	36147.23
521.34	35880.41
521.52	36699.60
521.69	35962.33
521.86	36446.82
522.03	36535.76
522.20	36353.20
522.38	36418.74
522.55	36825.99
522.72	36748.75
522.89	36254.90
523.07	36655.13
523.24	36847.05
523.41	37258.99
523.58	36657.47
523.75	37244.94
523.92	37495.38
524.10	37521.13
524.27	37418.14
524.44	37509.43
524.61	37638.15
524.78	37717.73
524.96	37881.57
525.13	38136.69
525.30	37904.98
525.47	38146.05
525.64	37691.99
525.81	37954.13
525.98	37652.20
526.16	37446.23
526.33	37579.64
526.50	37916.68
526.67	37780.93
526.84	37474.32
527.01	37832.42
527.18	38155.41
527.36	38431.60
527.53	38155.41
527.70	38658.63
527.87	38550.96
528.04	38422.23
528.21	38766.29
528.38	38717.14
528.55	39321.00
528.72	38944.17
528.89	39459.09
529.07	38906.73
529.24	38888.00
529.41	39313.98
529.58	39248.44
529.75	38869.28
529.92	39428.66
530.09	39208.65
530.26	39676.76
530.43	39599.52
530.60	39077.58
530.77	39583.14
530.94	39849.96
531.11	39548.03
531.28	39543.35
531.46	39978.69
531.63	39934.22
531.80	39643.99
531.97	39611.23
532.14	39901.45
532.31	40151.89
532.48	39592.50
532.65	40109.76
532.82	39952.94
532.99	40390.62
533.16	40304.02
533.33	40130.83
533.50	40659.79
533.67	40435.10
533.84	39988.05
534.01	40397.65
534.18	40355.52
534.35	40477.22
534.52	40381.26
534.69	40378.92
534.86	40552.12
535.03	40336.79
535.20	40512.33
535.37	41064.70
535.54	41050.66
535.71	40430.41
535.88	40783.83
536.05	40664.47
536.22	41060.02
536.38	41268.33
536.55	41181.73
536.72	41053.00
536.89	40985.12
537.06	40776.81
537.23	41375.99
537.40	40884.48
537.57	41336.20
537.74	41193.43
537.91	41661.54
538.08	41610.04
538.25	40938.31
538.42	41336.20
538.59	41624.09
538.75	41219.17
538.92	41745.80
539.09	42120.28
539.26	41743.45
539.43	41649.83
539.60	41787.92
539.77	41834.74
539.94	41120.87
540.11	41237.90
540.28	41738.77
540.44	41317.48
540.61	42014.96
540.78	41432.16
540.95	42103.90
541.12	41464.93
541.29	42197.52
541.46	42134.32
541.62	41837.08
541.79	42349.65
541.96	41818.35
542.13	42356.67
542.30	42279.44
542.47	42696.05
542.63	42429.23
542.80	42382.42
542.97	43056.50
543.14	43299.91
543.31	42897.34
543.48	43028.41
543.64	43571.41
543.81	43351.40
543.98	42707.76
544.15	42937.13
544.32	43171.18
544.48	43384.17
544.65	43379.49
544.82	42887.98
544.99	42827.12
545.16	42892.66
545.32	42974.58
545.49	43407.58
545.66	43718.87
545.83	43473.11
546.00	43938.88
546.16	43311.61
546.33	43892.07
546.50	43213.31
546.67	43475.45
546.83	43044.79
547.00	43512.90
547.17	43601.84
547.34	43667.37
547.50	43899.09
547.67	44091.01
547.84	43878.02
548.00	43681.42
548.17	44112.08
548.34	43669.72
548.51	44259.53
548.67	44009.09
548.84	44233.78
549.01	44128.46
549.18	44215.06
549.34	44208.04
549.51	44294.64
549.68	44903.18
549.84	44140.16
550.01	44374.22
550.18	44165.91
550.34	44271.23
550.51	44411.67
550.68	44374.22
550.84	44481.88
551.01	44076.97
551.18	44243.15
551.34	44535.71
551.51	44519.33
551.68	44818.92
551.84	44671.46
552.01	44488.90
552.18	44795.51
552.34	44381.24
552.51	44575.50
552.68	44009.09
552.84	44933.60
553.01	45310.43
553.18	44662.10
553.34	44928.92
553.51	44786.15
553.67	44917.22
553.84	45202.77
554.01	45219.15
554.17	45247.24
554.34	45509.38
554.51	45067.02
554.67	45387.67
554.84	45287.03
555.00	45268.30
555.17	45256.60
555.33	45373.63
555.50	44856.37
555.67	45013.18
555.83	45193.40
556.00	45560.87
556.16	45563.21
556.33	45528.10
556.50	45296.39
556.66	45289.37
556.83	45052.97
556.99	45666.19
557.16	45298.73
557.32	45359.58
557.49	45738.75
557.65	45095.10
557.82	45670.87
557.98	45361.92
558.15	45401.71
558.32	45125.53
558.48	45172.34
558.65	45230.85
558.81	45748.11
558.98	45617.04
559.14	45127.87
559.31	45350.22
559.47	45354.90
559.64	45909.61
559.80	45895.56
559.97	45539.80
560.13	45750.45
560.30	45713.00
560.46	45661.51
560.63	45883.86
560.79	45841.73
560.96	45977.48
561.12	45830.03
561.29	45617.04
561.45	45661.51
561.61	45815.99
561.78	45808.96
561.94	45815.99
562.11	45780.88
562.27	46014.93
562.44	45907.27
562.60	45972.80
562.77	45759.81
562.93	45811.31
563.10	46258.35
563.26	46106.21
563.42	46136.64
563.59	45610.02
563.75	45811.31
563.92	45778.54
564.08	46094.51
564.24	46330.90
564.41	45907.27
564.57	45727.05
564.74	46000.89
564.90	46178.77
565.07	46546.23
565.23	46600.07
565.39	46162.39
565.56	46157.70
565.72	46375.37
565.88	46595.38
566.05	46267.71
566.21	45982.16
566.38	46160.05
566.54	46066.42
566.70	46569.64
566.87	46759.22
567.03	46153.02
567.19	46721.77
567.36	46614.11
567.52	46050.04
567.68	46232.60
567.85	46246.65
568.01	46010.25
568.17	46169.41
568.34	46368.35
568.50	46267.71
568.66	46295.80
568.83	46419.84
568.99	46066.42
569.15	46459.63
569.32	46466.66
569.48	46092.17
569.64	46506.44
569.81	46417.50
569.97	46429.21
570.13	46747.52
570.30	46232.60
570.46	46106.21
570.62	45815.99
570.78	46232.60
570.95	46043.02
571.11	46298.14
571.27	46202.18
571.43	46279.41
571.60	46637.51
571.76	46527.51
571.92	46581.34
572.09	46454.95
572.25	46316.86
572.41	46576.66
572.57	46476.02
572.74	46679.64
572.90	46344.95
573.06	46471.34
573.22	46581.34
573.38	46241.96
573.55	45823.01
573.71	46946.47
573.87	46586.02
574.03	45940.04
574.20	46452.61
574.36	46689.01
574.52	46625.81
574.68	46401.12
574.84	46391.76
575.01	46469.00
575.17	46277.07
575.33	46487.72
575.49	46520.49
575.65	47028.38
575.82	46543.89
575.98	46590.70
576.14	47002.64
576.30	46349.63
576.46	46447.93
576.62	46504.10
576.79	46560.28
576.95	46204.52
577.11	46480.70
577.27	46653.90
577.43	46904.34
577.59	46277.07
577.75	46131.96
577.92	46473.68
578.08	45869.82
578.24	46232.60
578.40	46277.07
578.56	46178.77
578.72	46646.88
578.88	46471.34
579.04	46382.40
579.21	46003.23
579.37	46506.44
579.53	46618.79
579.69	46557.94
579.85	46635.17
580.01	46990.94
580.17	46555.60
580.33	46822.42
580.49	46667.94
580.65	46417.50
580.82	46939.44
580.98	46227.92
581.14	46534.53
581.30	46710.07
581.46	46571.98
581.62	46543.89
581.78	46536.87
581.94	46763.90
582.10	46253.67
582.26	47012.00
582.42	46508.79
582.58	46782.63
582.74	46295.80
582.90	46672.62
583.06	46848.16
583.22	46920.72
583.38	47037.75
583.54	46569.64
583.70	46571.98
583.86	46768.58
584.02	46513.47
584.18	46344.95
584.34	46560.28
584.50	46761.56
584.66	46871.57
584.82	46469.00
584.98	47056.47
585.14	46951.15
585.30	46649.22
585.46	46796.67
585.62	46328.56
585.78	46410.48
585.94	46813.05
586.10	46534.53
586.26	46358.99
586.42	46897.31
586.58	46700.71
586.74	46368.35
586.90	46571.98
587.06	46642.20
587.22	47030.72
587.38	46256.01
587.54	46637.51
587.70	46902.00
587.86	47068.17
588.02	46754.54
588.18	47084.56
588.34	46490.06
588.49	45872.16
588.65	46073.45
588.81	46122.60
588.97	46127.28
589.13	46176.43
589.29	46298.14
589.45	46316.86
589.61	46286.43
589.77	46871.57
589.93	46838.80
590.08	46614.11
590.24	46937.10
590.40	46791.99
590.56	47114.98
590.72	47173.50
590.88	46401.12
591.04	46689.01
591.20	46974.55
591.35	47154.77
591.51	47122.01
591.67	47168.82
591.83	46689.01
591.99	46539.21
592.15	46677.30
592.31	46983.91
592.46	46754.54
592.62	46857.52
592.78	46883.27
592.94	47033.07
593.10	46766.24
593.26	46871.57
593.41	46454.95
593.57	46588.36
593.73	46724.11
593.89	46557.94
594.05	46899.65
594.20	46623.47
594.36	47194.56
594.52	47007.32
594.68	47283.50
594.84	46974.55
594.99	47292.86
595.15	46855.18
595.31	47037.75
595.47	46965.19
595.62	46628.15
595.78	47021.36
595.94	47040.09
596.10	47079.88
596.25	47346.70
596.41	47246.05
596.57	47089.24
596.73	47114.98
596.88	46733.48
597.04	47145.41
597.20	46892.63
597.36	46712.41
597.51	47363.08
597.67	47033.07
597.83	46951.15
597.99	47145.41
598.14	46670.28
598.30	46492.40
598.46	46609.43
598.61	46965.19
598.77	46506.44
598.93	46768.58
599.09	46974.55
599.24	47157.11
599.40	47061.15
599.56	47309.25
599.71	46696.03
599.87	47622.88
600.03	46869.23
600.18	46953.49
600.34	47056.47
600.50	46831.78
600.65	47154.77
600.81	47531.60
600.97	46857.52
601.12	47398.19
601.28	47334.99
601.44	47164.14
601.59	46707.73
601.75	46337.93
601.91	46997.96
602.06	46995.62
602.22	47105.62
602.37	46834.12
602.53	47000.30
602.69	47217.97
602.84	46979.23
603.00	46859.87
603.16	47217.97
603.31	46815.40
603.47	46494.74
603.62	46878.59
603.78	47007.32
603.94	46993.28
604.09	47105.62
604.25	46653.90
604.40	47255.42
604.56	46625.81
604.71	46686.67
604.87	46806.03
605.03	46990.94
605.18	46934.76
605.34	47337.33
605.49	46628.15
605.65	46635.17
605.80	46958.17
605.96	47168.82
606.12	46660.92
606.27	47271.80
606.43	46672.62
606.58	46813.05
606.74	46553.26
606.89	46749.86
607.05	46665.60
607.20	46747.52
607.36	46300.48
607.51	47082.22
607.67	46653.90
607.82	46913.70
607.98	46796.67
608.13	46356.65
608.29	46829.44
608.44	46337.93
608.60	45993.87
608.75	46300.48
608.91	46628.15
609.06	46026.63
609.22	46513.47
609.37	46066.42
609.53	46735.82
609.68	46773.27
609.84	46616.45
609.99	46476.02
610.15	46284.09
610.30	46284.09
610.46	45907.27
610.61	46286.43
610.76	46274.73
610.92	46445.59
611.07	46323.88
611.23	45860.46
611.38	46539.21
611.54	46101.53
611.69	46103.87
611.84	46057.06
612.00	45902.59
612.15	45923.65
612.31	46061.74
612.46	45940.04
612.62	46330.90
612.77	46216.22
612.92	46506.44
613.08	45736.41
613.23	46047.70
613.39	45872.16
613.54	45635.77
613.69	45720.02
613.85	46108.55
614.00	45996.21
614.15	46110.89
614.31	46113.23
614.46	46005.57
614.62	45963.44
614.77	46071.10
614.92	46050.04
615.08	45649.81
615.23	45935.35
615.38	45881.52
615.54	45448.52
615.69	45572.57
615.84	45254.26
616.00	45474.27
616.15	45633.42
616.30	45834.71
616.46	45446.18
616.61	45078.72
616.76	45385.33
616.92	45350.22
617.07	45654.49
617.22	45059.99
617.37	45258.94
617.53	45612.36
617.68	45769.18
617.83	45418.10
617.99	45528.10
618.14	45750.45
618.29	45148.93
618.45	45162.98
618.60	45233.19
618.75	45345.54
618.90	45563.21
619.06	45141.91
619.21	45441.50
619.36	45378.31
619.51	44999.14
619.67	44882.11
619.82	45069.36
619.97	45401.71
620.12	44839.98
620.28	44952.33
620.43	45153.62
620.58	45074.04
620.73	44748.70
620.89	44938.29
621.04	44935.95
621.19	44854.03
621.34	44870.41
621.49	44470.18
621.65	44617.63
621.80	44865.73
621.95	44584.86
622.10	44601.25
622.25	44940.63
622.41	44828.28
622.56	44294.64
622.71	44514.65
622.86	44428.05
623.01	44519.33
623.16	44643.38
623.32	44587.21
623.47	44488.90
623.62	44858.71
623.77	44573.16
623.92	44201.02
624.07	43903.77
624.23	44205.70
624.38	43868.66
624.53	44046.54
624.68	44353.15
624.83	44451.45
624.98	44360.17
625.13	44006.75
625.29	44439.75
625.44	44325.07
625.59	44205.70
625.74	44023.14
625.89	43325.66
626.04	43445.02
626.19	43871.00
626.34	43674.40
626.49	43739.93
626.65	43529.28
626.80	43892.07
626.95	43728.23
627.10	43915.47
627.25	43248.42
627.40	42864.57
627.55	43793.76
627.70	43019.05
627.85	43295.23
628.00	43278.85
628.15	43700.14
628.30	43058.84
628.45	43732.91
628.60	43552.69
628.76	43173.52
628.91	43536.30
629.06	43306.93
629.21	43260.12
629.36	42955.85
629.51	42925.42
629.66	43304.59
629.81	42712.44
629.96	42890.32
630.11	43152.46
630.26	43182.88
630.41	42806.06
630.56	42904.36
630.71	42724.14
630.86	43047.13
631.01	42672.65
631.16	42682.01
631.31	42630.52
631.46	42286.46
631.61	42607.11
631.76	42742.86
631.91	42796.70
632.06	43105.65
632.21	42972.24
632.36	42944.15
632.51	42780.31
632.66	42689.03
632.81	42469.02
632.96	42485.40
633.10	42499.45
633.25	42087.51
633.40	42363.70
633.55	42124.96
633.70	42452.64
633.85	42473.70
634.00	42384.76
634.15	42256.03
634.30	42440.93
634.45	42464.34
634.60	42607.11
634.75	42403.49
634.90	42457.32
635.05	42770.95
635.19	42223.26
635.34	42469.02
635.49	42249.01
635.64	42246.67
635.79	41975.17
635.94	42218.58
636.09	42164.75
636.24	41982.19
636.39	41771.54
636.53	42220.92
636.68	41284.71
636.83	41731.75
636.98	41954.10
637.13	41675.58
637.28	42363.70
637.43	42340.29
637.57	41787.92
637.72	41979.85
637.87	41860.48
638.02	41883.89
638.17	41628.77
638.32	42092.19
638.46	41940.06
638.61	41638.13
638.76	41769.20
638.91	41588.98
639.06	41326.84
639.20	41626.43
639.35	41638.13
639.50	41560.89
639.65	41603.02
639.80	41488.34
639.94	41249.60
640.09	41385.35
640.24	41177.04
640.39	41074.06
640.54	41085.76
640.68	41116.19
640.83	41612.38
640.98	41120.87
641.13	40910.22
641.27	41734.09
641.42	40521.69
641.57	41125.55
641.72	41031.93
641.86	40790.86
642.01	40418.71
642.16	40968.74
642.31	40402.33
642.45	41258.96
642.60	41034.27
642.75	40198.70
642.90	40868.09
643.04	40514.67
643.19	40519.35
643.34	40837.67
643.48	40236.15
643.63	40928.95
643.78	40704.26
643.93	40460.84
644.07	40062.95
644.22	40577.87
644.37	40156.57
644.51	40201.04
644.66	40854.05
644.81	40648.08
644.95	40449.14
645.10	40624.68
645.25	40774.47
645.39	40517.01
645.54	40669.15
645.69	40130.83
645.83	40622.34
645.98	40509.99
646.13	40495.95
646.27	40360.20
646.42	40320.41
646.57	40715.96
646.71	40130.83
646.86	40163.59
647.00	40109.76
647.15	39910.82
647.30	40240.83
647.44	40048.91
647.59	40163.59
647.74	39695.49
647.88	39803.15
648.03	39557.39
648.17	39803.15
648.32	39533.99
648.47	39709.53
648.61	39688.46
648.76	40243.17
648.90	39796.13
649.05	39704.85
649.20	39449.73
649.34	39648.68
649.49	39342.06
649.63	39580.80
649.78	39318.66
649.92	39409.94
650.07	39997.41
650.21	39482.50
650.36	39548.03
650.51	39578.46
650.65	39770.38
650.80	40128.48
650.94	39810.17
651.09	39503.56
651.23	39655.70
651.38	39253.12
651.52	38946.51
651.67	39075.24
651.81	39363.13
651.96	39679.10
652.10	39145.46
652.25	38717.14
652.39	38803.74
652.54	39402.92
652.68	39480.16
652.83	39342.06
652.97	39173.55
653.12	39000.35
653.26	39119.71
653.41	38836.51
653.55	38761.61
653.70	39267.17
653.84	38923.11
653.99	39063.54
654.13	39030.77
654.27	38513.52
654.42	38775.66
654.56	38555.64
654.71	38890.34
654.85	38726.50
655.00	39065.88
655.14	38492.45
655.29	38316.91
655.43	38675.01
655.57	38022.00
655.72	38237.33
655.86	38000.94
656.01	38010.30
656.15	37834.76
656.30	38181.16
656.44	38213.93
656.58	38438.62
656.73	37897.95
656.87	38007.96
657.01	37876.89
657.16	37958.81
657.30	37481.34
657.45	37446.23
657.59	37897.95
657.73	37926.04
657.88	37797.31
658.02	37848.80
658.16	38239.67
658.31	37947.11
658.45	38127.33
658.60	38080.52
658.74	37998.60
658.88	37734.12
659.03	37846.46
659.17	37474.32
659.31	37750.50
659.46	37408.78
659.60	37745.82
659.74	37497.72
659.89	37160.69
660.03	37294.10
660.17	37340.91
660.32	37516.45
660.46	37670.92
660.60	37441.55
660.74	37504.74
660.89	37212.18
661.03	36669.17
661.17	36886.84
661.32	36779.18
661.46	36982.80
661.60	37139.62
661.74	36928.97
661.89	36980.46
662.03	36980.46
662.17	36926.63
662.31	36662.15
662.46	36683.22
662.60	36786.20
662.74	36456.18
662.88	36371.92
663.03	36652.79
663.17	36252.56
663.31	36582.57
663.45	36727.69
663.60	36650.45
663.74	36495.97
663.88	36259.58
664.02	35945.95
664.17	36254.90
664.31	35901.48
664.45	35496.56
664.59	36561.51
664.73	35927.22
664.88	36460.87
665.02	35838.28
665.16	35648.70
665.30	35777.43
665.44	35985.74
665.59	35201.66
665.73	35239.11
665.87	34960.58
666.01	35611.25
666.15	35239.11
666.29	35161.87
666.44	35536.35
666.58	35126.76
666.72	35229.74
666.86	35618.27
667.00	35489.54
667.14	35007.39
667.28	35091.65
667.43	35023.78
667.57	35026.12
667.71	34644.61
667.85	34979.31
667.99	34410.56
668.13	34569.71
668.27	34370.77
668.41	34333.32
668.56	34560.35
668.70	34735.89
668.84	34373.11
668.98	33933.09
669.12	34302.89
669.26	34433.96
669.40	33876.91
669.54	33970.54
669.68	34045.43
669.82	33762.23
669.96	33897.98
670.10	34043.09
670.25	34127.35
670.39	34150.76
670.53	33600.73
670.67	33055.39
670.81	33776.27
670.95	33734.14
671.09	33668.61
671.23	33624.14
671.37	33816.06
671.51	33605.41
671.65	33099.86
671.79	33481.36
671.93	32687.92
672.07	33046.02
672.21	32933.68
672.35	32608.34
672.49	33001.55
672.63	33139.65
672.77	32966.45
672.91	32938.36
673.05	32442.17
673.19	32418.76
673.33	32559.19
673.47	32290.03
673.61	32163.64
673.75	31707.24
673.89	31854.69
674.03	31957.67
674.17	32023.21
674.31	31627.66
674.45	31901.50
674.59	31482.55
674.73	32020.87
674.87	31321.05
675.01	31625.32
675.15	31763.41
675.29	31555.10
675.43	31512.97
675.56	31590.21
675.70	31175.94
675.84	31285.94
675.98	30232.70
676.12	31297.64
676.26	30756.98
676.40	30745.28
676.54	30569.74
676.68	30639.95
676.82	30211.64
676.96	30471.43
677.10	30073.54
677.23	30356.75
677.37	30480.80
677.51	30642.29
677.65	29935.45
677.79	29930.77
677.93	30003.33
678.07	29890.98
678.21	29649.91
678.34	29649.91
678.48	29209.89
678.62	29214.57
678.76	29816.08
678.90	29230.95
679.04	29261.38
679.18	29106.90
679.31	29413.51
679.45	28669.22
679.59	28442.19
679.73	28854.12
679.87	28929.02
680.00	28680.92
680.14	28641.14
680.28	28451.55
680.42	28149.62
680.56	28397.72
680.70	28212.82
680.83	27948.34
680.97	28002.17
681.11	28044.30
681.25	27814.93
681.39	27927.27
681.52	27962.38
681.66	27604.28
681.80	27452.14
681.94	27365.54
682.07	27016.80
682.21	27129.15
682.35	27040.21
682.49	27243.84
682.62	27049.57
682.76	26583.80
682.90	26979.36
683.04	26796.79
683.17	26693.81
683.31	26529.97
683.45	26593.17
683.59	26525.29
683.72	26490.18
683.86	25860.58
684.00	25963.56
684.13	26134.42
684.27	25998.67
684.41	26033.78
684.55	25446.30
684.68	25488.43
684.82	25528.22
684.96	25392.47
685.09	25556.31
685.23	25490.77
685.37	24912.66
685.50	24926.71
685.64	24950.11
685.78	25048.41
685.91	25057.78
686.05	25331.62
686.19	24596.69
686.32	24458.60
686.46	24245.61
686.60	24140.29
686.73	24086.45
686.87	23716.65
687.01	23709.63
687.14	23466.21
687.28	23601.96
687.42	23737.71
687.55	23461.53
687.69	23363.23
687.82	23641.75
687.96	23433.44
688.10	23255.56
688.23	23297.69
688.37	23161.94
688.50	23140.88
688.64	22953.63
688.78	22724.26
688.91	22993.42
689.05	22955.97
689.18	22431.69
689.32	22534.68
689.46	22625.96
689.59	22792.14
689.73	22487.87
689.86	22579.15
690.00	22368.50
690.13	22160.19
690.27	22101.68
690.41	22312.33
690.54	21830.18
690.68	22122.74
690.81	21570.38
690.95	21172.49
691.08	21633.57
691.22	21556.33
691.35	21333.98
691.49	21448.67
691.62	21296.53
691.76	21020.35
691.89	21305.90
692.03	20875.24
692.16	20807.36
692.30	20709.06
692.43	20678.63
692.57	20751.19
692.70	20702.04
692.84	20486.71
692.97	20453.94
693.11	20322.87
693.24	20147.33
693.38	20259.68
693.51	20009.24
693.65	20240.95
693.78	19950.73
693.92	20166.06
694.05	20130.95
694.19	19763.48
694.32	19728.38
694.45	19662.84
694.59	19634.75
694.72	19321.12
694.86	19389.00
694.99	19232.18
695.13	18860.04
695.26	19058.98
695.39	18724.29
695.53	18897.49
695.66	18864.72
695.80	18895.14
695.93	18717.26
696.07	18625.98
696.20	18775.78
696.33	18642.37
696.47	18405.97
696.60	18757.05
696.73	18328.74
696.87	18263.20
697.00	18375.55
697.14	18263.20
697.27	18221.07
697.40	17921.48
697.54	18017.44
697.67	17792.75
697.80	17867.65
697.94	17687.43
698.07	17387.84
698.21	17404.22
698.34	17664.02
698.47	17406.56
698.61	16919.73
698.74	16985.27
698.87	16938.46
699.01	16599.08
699.14	16798.02
699.27	17048.46
699.40	16929.09
699.54	16636.53
699.67	16697.38
699.80	16711.42
699.94	16369.71
700.07	16514.82
700.20	16231.62
700.34	16053.73
700.47	16145.02
700.60	15908.62
700.73	16486.73
700.87	16107.57
701.00	15852.45
701.13	15957.77
701.26	15761.17
701.40	15845.43
701.53	15716.70
701.66	15735.42
701.79	15449.88
701.93	15480.30
702.06	15426.47
702.19	15073.05
702.32	15302.42
702.46	15002.83
702.59	15005.17
702.72	14944.32
702.85	15145.61
702.99	15077.73
703.12	15178.37
703.25	15002.83
703.38	14977.09
703.51	14483.24
703.65	14693.88
703.78	14754.74
703.91	14569.83
704.04	14635.37
704.17	14595.58
704.31	14075.98
704.44	14106.41
704.57	14260.88
704.70	14127.47
704.83	14113.43
704.96	14314.72
705.10	14155.56
705.23	14054.92
>>>>>End Processed Spectral Data<<<<<
