SpectraSuite Data File
++++++++++++++++++++++++++++++++++++
Date: Fri Oct 25 10:47:04 EDT 2013
User: price-jones
Dark Spectrum Present: No
Reference Spectrum Present: No
Number of Sampled Component Spectra: 1
Spectrometers: USB2+H05261
Integration Time (usec): 100000 (USB2+H05261)
Spectra Averaged: 1 (USB2+H05261)
Boxcar Smoothing: 0 (USB2+H05261)
Correct for Electrical Dark: No (USB2+H05261)
Strobe/Lamp Enabled: No (USB2+H05261)
Correct for Detector Non-linearity: No (USB2+H05261)
Correct for Stray Light: No (USB2+H05261)
Number of Pixels in Processed Spectrum: 2048
>>>>>Begin Processed Spectral Data<<<<<
365.73	152.13
365.92	152.13
366.12	152.13
366.32	67.88
366.52	124.05
366.72	81.92
366.91	46.81
367.11	81.92
367.31	44.47
367.51	74.90
367.70	0.00
367.90	74.90
368.10	60.85
368.30	46.81
368.49	16.38
368.69	93.62
368.89	63.19
369.09	51.49
369.28	74.90
369.48	56.17
369.68	0.00
369.87	91.28
370.07	91.28
370.27	163.84
370.47	208.31
370.66	397.89
370.86	337.04
371.06	454.06
371.25	449.38
371.45	423.64
371.65	423.64
371.84	484.49
372.04	496.19
372.24	498.53
372.44	435.34
372.63	491.51
372.83	601.52
373.03	416.62
373.22	449.38
373.42	531.30
373.62	552.37
373.81	568.75
374.01	578.11
374.21	580.45
374.40	482.15
374.60	517.26
374.79	540.66
374.99	599.18
375.19	538.32
375.38	519.60
375.58	547.69
375.78	610.88
375.97	531.30
376.17	561.73
376.37	575.77
376.56	587.47
376.76	589.82
376.95	704.50
377.15	620.24
377.35	727.91
377.54	641.31
377.74	571.09
377.93	594.50
378.13	606.20
378.33	571.09
378.52	554.71
378.72	620.24
378.91	594.50
379.11	615.56
379.31	655.35
379.50	622.58
379.70	678.76
379.89	660.03
380.09	664.71
380.28	629.60
380.48	636.63
380.68	720.88
380.87	648.33
381.07	631.94
381.26	606.20
381.46	580.45
381.65	627.26
381.85	627.26
382.04	667.05
382.24	643.65
382.43	627.26
382.63	723.23
382.83	692.80
383.02	730.25
383.22	774.72
383.41	704.50
383.61	739.61
383.80	744.29
384.00	720.88
384.19	688.12
384.39	767.70
384.58	739.61
384.78	772.38
384.97	800.46
385.17	791.10
385.36	777.06
385.56	702.16
385.75	711.52
385.95	821.53
386.14	774.72
386.34	828.55
386.53	828.55
386.72	800.46
386.92	788.76
387.11	730.25
387.31	823.87
387.50	781.74
387.70	760.67
387.89	760.67
388.09	758.33
388.28	830.89
388.48	858.98
388.67	781.74
388.86	814.51
389.06	971.32
389.25	880.04
389.45	936.21
389.64	954.94
389.84	873.02
390.03	903.45
390.22	894.08
390.42	926.85
390.61	915.15
390.81	957.28
391.00	1011.11
391.19	968.98
391.39	950.26
391.58	884.72
391.78	973.66
391.97	947.92
392.16	1006.43
392.36	1025.15
392.55	1008.77
392.75	849.61
392.94	952.60
393.13	938.55
393.33	931.53
393.52	926.85
393.71	1102.39
393.91	1083.67
394.10	1020.47
394.29	1203.04
394.49	1034.52
394.68	1142.18
394.88	1149.20
395.07	1071.97
395.26	1097.71
395.46	1130.48
395.65	1170.27
395.84	1128.14
396.04	1196.01
396.23	1095.37
396.42	1214.74
396.62	1057.92
396.81	1086.01
397.00	1132.82
397.19	1207.72
397.39	1235.80
397.58	1238.14
397.77	1242.82
397.97	1259.21
398.16	1200.69
398.35	1156.22
398.55	1301.34
398.74	1343.47
398.93	1355.17
399.12	1327.08
399.32	1348.15
399.51	1284.95
399.70	1378.58
399.90	1322.40
400.09	1479.22
400.28	1376.24
400.47	1500.28
400.67	1565.82
400.86	1540.07
401.05	1500.28
401.24	1483.90
401.44	1495.60
401.63	1511.99
401.82	1542.41
402.01	1495.60
402.21	1411.34
402.40	1540.07
402.59	1509.65
402.78	1565.82
402.97	1570.50
403.17	1633.69
403.36	1579.86
403.55	1680.50
403.74	1743.70
403.93	1750.72
404.13	1734.34
404.32	1715.61
404.51	1603.27
404.70	1673.48
404.89	1629.01
405.09	1891.15
405.28	1743.70
405.47	1753.06
405.66	1680.50
405.85	1715.61
406.05	1804.55
406.24	1792.85
406.43	1926.26
406.62	1762.42
406.81	1919.24
407.00	1895.83
407.20	1764.76
407.39	1837.32
407.58	1834.98
407.77	1998.82
407.96	1996.48
408.15	1994.14
408.34	2026.90
408.54	2092.44
408.73	2073.71
408.92	2179.04
409.11	2101.80
409.30	2064.35
409.49	1952.01
409.68	2101.80
409.87	2066.69
410.07	2085.42
410.26	2169.68
410.45	2148.61
410.64	2111.16
410.83	2275.00
411.02	2272.66
411.21	2331.17
411.40	2246.91
411.59	2321.81
411.78	2228.19
411.98	2387.35
412.17	2417.77
412.36	2462.24
412.55	2478.63
412.74	2443.52
412.93	2541.82
413.12	2389.69
413.31	2553.52
413.50	2567.57
413.69	2607.36
413.88	2537.14
414.07	2595.65
414.26	2621.40
414.45	2726.72
414.64	2567.57
414.83	2799.28
415.02	2743.11
415.22	2754.81
415.41	2916.31
415.60	2848.43
415.79	2876.52
415.98	2935.03
416.17	2995.89
416.36	3007.59
416.55	2911.63
416.74	2951.42
416.93	2928.01
417.12	2986.52
417.31	3035.67
417.50	3030.99
417.69	3061.42
417.88	3061.42
418.07	3068.44
418.26	3115.25
418.45	3033.33
418.64	3325.90
418.83	3290.79
419.02	3112.91
419.21	3265.05
419.39	3281.43
419.58	3222.92
419.77	3119.93
419.96	3318.88
420.15	3424.20
420.34	3213.56
420.53	3400.80
420.72	3379.73
420.91	3400.80
421.10	3417.18
421.29	3576.34
421.48	3428.88
421.67	3536.55
421.86	3414.84
422.05	3524.85
422.24	3412.50
422.43	3473.36
422.61	3592.72
422.80	3517.83
422.99	3550.59
423.18	3576.34
423.37	3569.32
423.56	3679.32
423.75	3557.61
423.94	3494.42
424.13	3288.45
424.32	3515.48
424.50	3496.76
424.69	3655.92
424.88	3634.85
425.07	3531.87
425.26	3485.06
425.45	3515.48
425.64	3627.83
425.83	3571.66
426.01	3726.13
426.20	3662.94
426.39	3803.37
426.58	3574.00
426.77	3578.68
426.96	3714.43
427.15	3613.79
427.33	3801.03
427.52	3742.52
427.71	3808.05
427.90	3920.40
428.09	3789.33
428.28	3819.75
428.46	3843.16
428.65	3817.41
428.84	3969.55
429.03	3999.98
429.22	3737.84
429.40	3861.88
429.59	3845.50
429.78	3716.77
429.97	3707.41
430.16	3866.56
430.34	3845.50
430.53	3908.69
430.72	4044.45
430.91	3868.91
431.10	3908.69
431.28	4152.11
431.47	4227.01
431.66	4257.43
431.85	4109.98
432.03	4191.90
432.22	4292.54
432.41	4259.78
432.60	4219.99
432.79	4397.87
432.97	4435.32
433.16	4360.42
433.35	4142.75
433.54	4353.40
433.72	4337.01
433.91	4292.54
434.10	4257.43
434.28	4491.49
434.47	4575.75
434.66	4519.57
434.85	4512.55
435.03	4568.73
435.22	4493.83
435.41	4641.28
435.59	4704.48
435.78	4631.92
435.97	4798.10
436.16	4638.94
436.34	4596.81
436.53	4741.93
436.72	4739.58
436.90	4610.86
437.09	4755.97
437.28	4746.61
437.46	4648.30
437.65	4699.80
437.84	4882.36
438.02	4793.42
438.21	4840.23
438.40	4638.94
438.58	4896.40
438.77	5029.81
438.96	4828.53
439.14	5064.92
439.33	5142.16
439.52	5261.52
439.70	5043.85
439.89	5069.60
440.08	5210.03
440.26	5219.39
440.45	5114.07
440.63	5399.62
440.82	5406.64
441.01	5518.98
441.19	5507.28
441.38	5329.40
441.57	5549.41
441.75	5577.50
441.94	5849.00
442.12	5755.38
442.31	5701.54
442.50	5633.67
442.68	5680.48
442.87	5797.51
443.05	5673.46
443.24	5961.34
443.43	5858.36
443.61	5905.17
443.80	5970.71
443.98	5760.06
444.17	5713.25
444.35	5874.74
444.54	5926.24
444.73	5825.59
444.91	6099.44
445.10	5996.45
445.28	5874.74
445.47	5638.35
445.65	5788.14
445.84	6026.88
446.02	6113.48
446.21	6036.24
446.39	5966.03
446.58	6015.18
446.77	6064.33
446.95	5959.00
447.14	5933.26
447.32	6059.65
447.51	6026.88
447.69	5961.34
447.88	6127.52
448.06	5937.94
448.25	5987.09
448.43	6146.25
448.62	6237.53
448.80	6052.63
448.99	6129.86
449.17	6197.74
449.36	6239.87
449.54	6380.30
449.73	6246.89
449.91	6492.65
450.10	6471.58
450.28	6562.86
450.46	6558.18
450.65	6483.28
450.83	6621.38
451.02	6712.66
451.20	6464.56
451.39	6607.33
451.57	6581.59
451.76	6609.67
451.94	6548.82
452.13	6490.31
452.31	6682.23
452.49	6544.14
452.68	6609.67
452.86	6717.34
453.05	6693.93
453.23	6600.31
453.42	6703.29
453.60	6817.98
453.78	6853.09
453.97	6593.29
454.15	6836.70
454.34	6649.46
454.52	6848.41
454.70	6963.09
454.89	6848.41
455.07	6832.02
455.26	6897.56
455.44	7133.95
455.62	7126.93
455.81	7211.19
455.99	7000.54
456.17	7096.50
456.36	7028.63
456.54	7316.51
456.73	7236.94
456.91	7431.20
457.09	7478.01
457.28	7459.29
457.46	7234.60
457.64	7398.43
457.83	7391.41
458.01	7508.44
458.19	7576.31
458.38	7566.95
458.56	7494.40
458.74	7447.58
458.93	7536.52
459.11	7623.12
459.29	7541.21
459.48	7548.23
459.66	7506.10
459.84	7653.55
460.03	7822.07
460.21	7681.64
460.39	7875.90
460.57	7691.00
460.76	7812.71
460.94	7826.75
461.12	7861.86
461.31	7967.18
461.49	7775.26
461.67	7896.97
461.85	8058.46
462.04	7950.80
462.22	8439.97
462.40	8290.18
462.59	8198.90
462.77	8252.73
462.95	8397.84
463.13	8280.82
463.32	8238.69
463.50	8131.02
463.68	8217.62
463.86	8124.00
464.05	8091.23
464.23	8454.02
464.41	8430.61
464.59	8177.83
464.78	8327.63
464.96	8259.75
465.14	8304.22
465.32	8493.80
465.50	8365.07
465.69	8461.04
465.87	8601.47
466.05	8461.04
466.23	8322.94
466.41	8418.91
466.60	8702.11
466.78	8203.58
466.96	8557.00
467.14	8566.36
467.32	8688.07
467.51	8592.11
467.69	8388.48
467.87	8657.64
468.05	8734.88
468.23	8456.36
468.41	8617.85
468.60	8791.05
468.78	8826.16
468.96	8507.85
469.14	8894.04
469.32	8959.57
469.50	8704.45
469.69	8863.61
469.87	9123.41
470.05	9011.06
470.23	9034.47
470.41	9001.70
470.59	9071.92
470.77	8952.55
470.95	9221.71
471.14	9390.23
471.32	9174.90
471.50	9584.49
471.68	9635.99
471.86	9495.55
472.04	9366.82
472.22	9844.29
472.40	9558.75
472.58	9488.53
472.77	9809.19
472.95	9898.13
473.13	10064.30
473.31	9687.48
473.49	9516.62
473.67	9867.70
473.85	9727.27
474.03	10132.18
474.21	10101.75
474.39	10274.95
474.57	10106.43
474.75	10242.18
474.93	10600.29
475.12	10274.95
475.30	10235.16
475.48	10384.96
475.66	10462.19
475.84	10382.62
476.02	10567.52
476.20	10429.43
476.38	10719.65
476.56	11126.91
476.74	10808.59
476.92	10892.85
477.10	10824.98
477.28	11143.29
477.46	10892.85
477.64	11225.21
477.82	11442.88
478.00	11454.58
478.18	11676.93
478.36	11506.07
478.54	11590.33
478.72	11953.12
478.90	11941.41
479.08	11950.78
479.26	12135.68
479.44	12002.27
479.62	12023.33
479.80	12351.01
479.98	12250.36
480.16	12554.63
480.34	12606.13
480.52	12739.54
480.70	12606.13
480.88	12585.06
481.06	12835.50
481.24	12704.43
481.41	13315.31
481.59	13392.55
481.77	13397.23
481.95	13207.64
482.13	13429.99
482.31	13657.03
482.49	13858.31
482.67	13558.72
482.85	13965.98
483.03	14097.05
483.21	14120.45
483.39	14476.21
483.57	14221.10
483.74	14490.26
483.92	14452.81
484.10	14401.32
484.28	14691.54
484.46	15042.62
484.64	15384.34
484.82	14757.08
485.00	15059.01
485.18	15215.82
485.35	15218.16
485.53	15396.04
485.71	15337.53
485.89	15538.82
486.07	15377.32
486.25	15126.88
486.43	15789.25
486.61	15927.35
486.78	16152.04
486.96	16278.43
487.14	16255.02
487.32	16655.25
487.50	16758.24
487.68	16933.78
487.85	17245.07
488.03	17214.64
488.21	17270.81
488.39	17081.23
488.57	17310.60
488.75	17324.65
488.92	17715.51
489.10	18078.30
489.28	17965.95
489.46	18246.82
489.64	17912.12
489.81	18340.44
489.99	18679.82
490.17	18794.50
490.35	19058.98
490.53	18675.13
490.70	19019.19
490.88	18906.85
491.06	19440.49
491.24	19152.60
491.41	19187.71
491.59	19515.39
491.77	19330.48
491.95	19660.50
492.13	20065.41
492.30	20070.09
492.48	20301.81
492.66	20444.58
492.84	20170.74
493.01	20938.43
493.19	20599.05
493.37	20580.33
493.54	20872.90
493.72	20959.50
493.90	21062.48
494.08	21179.51
494.25	21411.22
494.43	21413.56
494.61	21785.71
494.79	21762.30
494.96	21778.68
495.14	21738.90
495.32	21921.46
495.49	22321.69
495.67	22237.43
495.85	22565.10
496.02	22342.75
496.20	22398.93
496.38	22731.28
496.55	22745.33
496.73	23255.56
496.91	23012.15
497.09	23281.31
497.26	23339.82
497.44	23445.15
497.62	23253.22
497.79	23508.34
497.97	23473.23
498.14	23943.68
498.32	23564.51
498.50	24320.51
498.67	24137.94
498.85	24081.77
499.03	24903.30
499.20	24573.28
499.38	24563.92
499.56	24828.40
499.73	24662.22
499.91	25113.95
500.08	24814.36
500.26	24765.21
500.44	24809.68
500.61	25167.78
500.79	24872.87
500.97	25200.55
501.14	25326.94
501.32	25720.15
501.49	25486.09
501.67	25504.82
501.84	25928.45
502.02	25919.09
502.20	26232.72
502.37	26195.28
502.55	26408.26
502.72	26171.87
502.90	26347.41
503.07	26445.71
503.25	26199.96
503.43	26209.32
503.60	26850.63
503.78	26387.20
503.95	26827.22
504.13	26604.87
504.30	26890.41
504.48	26785.09
504.65	27330.44
504.83	27005.10
505.01	27138.51
505.18	27133.83
505.36	27882.80
505.53	27571.51
505.71	27927.27
505.88	27857.06
506.06	27491.93
506.23	27758.75
506.41	27931.95
506.58	28189.41
506.76	27803.22
506.93	28196.43
507.11	28376.66
507.28	28276.01
507.46	28093.45
507.63	28449.21
507.81	28374.31
507.98	28219.84
508.16	28875.19
508.33	28416.44
508.50	28884.55
508.68	29099.88
508.85	29654.59
509.03	29366.70
509.20	29326.91
509.38	29338.62
509.55	29390.11
509.73	29230.95
509.90	29575.01
510.08	29788.00
510.25	29422.87
510.42	29806.72
510.60	29734.17
510.77	29890.98
510.95	30136.74
511.12	29956.52
511.30	30118.01
511.47	30410.58
511.64	30401.22
511.82	30534.63
511.99	30190.57
512.17	30562.72
512.34	30508.88
512.51	30651.66
512.69	31239.13
512.86	30824.86
513.04	30920.82
513.21	30829.54
513.38	31157.21
513.56	31129.12
513.73	30906.77
513.90	31143.17
514.08	31330.41
514.25	31110.40
514.43	31391.26
514.60	31365.52
514.77	31213.38
514.95	31707.24
515.12	31580.85
515.29	32084.06
515.47	31854.69
515.64	32254.92
515.81	32055.98
515.99	31681.49
516.16	31763.41
516.33	32355.57
516.51	32297.05
516.68	31796.18
516.85	31777.45
517.03	32280.67
517.20	32098.11
517.37	32545.15
517.54	32547.49
517.72	32666.86
517.89	32510.04
518.06	32641.11
518.24	32765.16
518.41	32348.54
518.58	32680.90
518.75	32800.27
518.93	33106.88
519.10	32985.17
519.27	33329.23
519.45	33457.96
519.62	33518.81
519.79	33713.08
519.96	33500.09
520.14	33752.87
520.31	33251.99
520.48	33731.80
520.65	33764.57
520.83	34153.10
521.00	33811.38
521.17	33544.56
521.34	34223.31
521.52	34155.44
521.69	34270.12
521.86	34478.43
522.03	34607.16
522.20	34298.21
522.38	34649.29
522.55	34724.19
522.72	34637.59
522.89	34712.49
523.07	34670.36
523.24	34693.76
523.41	34965.26
523.58	34967.60
523.75	35131.44
523.92	34983.99
524.10	35211.02
524.27	34948.88
524.44	35555.08
524.61	35468.48
524.78	35402.94
524.96	35618.27
525.13	35737.64
525.30	35639.34
525.47	36147.23
525.64	35908.50
525.81	35807.86
525.98	36060.63
526.16	35854.67
526.33	35412.31
526.50	35899.14
526.67	35819.56
526.84	35367.84
527.01	35599.55
527.18	36367.24
527.36	36582.57
527.53	35899.14
527.70	36725.35
527.87	36510.02
528.04	36282.98
528.21	36460.87
528.38	36713.64
528.55	36608.32
528.72	36840.03
528.89	37535.17
529.07	37181.75
529.24	36542.78
529.41	36519.38
529.58	36837.69
529.75	36954.72
529.92	37448.57
530.09	37570.28
530.26	37408.78
530.43	37240.26
530.60	36898.55
530.77	37282.39
530.94	37268.35
531.11	37298.78
531.28	37642.84
531.46	37521.13
531.63	37619.43
531.80	37565.60
531.97	37617.09
532.14	37811.35
532.31	37570.28
532.48	37708.37
532.65	37841.78
532.82	37804.33
532.99	38202.22
533.16	37755.18
533.33	37827.74
533.50	38162.43
533.67	38340.32
533.84	37984.55
534.01	37860.51
534.18	38382.45
534.35	38401.17
534.52	38361.38
534.69	38602.46
534.86	38478.41
535.03	38192.86
535.20	38696.08
535.37	39182.91
535.54	38869.28
535.71	38845.87
535.88	38665.65
536.05	38440.96
536.22	38899.70
536.38	39035.45
536.55	38953.54
536.72	38560.33
536.89	38925.45
537.06	39023.75
537.23	39009.71
537.40	38890.34
537.57	39498.88
537.74	38838.85
537.91	39407.60
538.08	39690.80
538.25	39171.21
538.42	39276.53
538.59	39562.08
538.75	39000.35
538.92	39447.39
539.09	39335.04
539.26	39468.45
539.43	39665.06
539.60	39892.09
539.77	39627.61
539.94	40250.19
540.11	39423.98
540.28	39941.24
540.44	39655.70
540.61	39931.88
540.78	39849.96
540.95	39440.37
541.12	40039.54
541.29	39746.98
541.46	40357.86
541.62	39812.51
541.79	40109.76
541.96	39770.38
542.13	40292.32
542.30	40144.87
542.47	40346.15
542.63	39835.92
542.80	40320.41
542.97	40987.46
543.14	40669.15
543.31	41109.17
543.48	40957.03
543.64	41123.21
543.81	41588.98
543.98	41277.69
544.15	40957.03
544.32	41378.33
544.48	41404.08
544.65	40938.31
544.82	41397.06
544.99	40971.08
545.16	41031.93
545.32	41055.34
545.49	41373.65
545.66	41373.65
545.83	41404.08
546.00	41748.14
546.16	41439.18
546.33	41432.16
546.50	40980.44
546.67	41446.21
546.83	41275.35
547.00	41820.69
547.17	41184.07
547.34	41280.03
547.50	41785.58
547.67	41486.00
547.84	42190.50
548.00	42021.98
548.17	42136.66
548.34	42064.11
548.51	42075.81
548.67	42447.96
548.84	42019.64
549.01	42216.24
549.18	41560.89
549.34	42218.58
549.51	42267.73
549.68	42417.53
549.84	42653.92
550.01	42279.44
550.18	41986.87
550.34	42195.18
550.51	42089.85
550.68	42462.00
550.84	41832.39
551.01	42342.63
551.18	42401.14
551.34	42466.68
551.51	42234.97
551.68	42263.05
551.84	42440.93
552.01	42394.12
552.18	42866.91
552.34	42122.62
552.51	42630.52
552.68	43143.09
552.84	42871.59
553.01	43115.01
553.18	42749.88
553.34	43033.09
553.51	42766.27
553.67	42824.78
553.84	43344.38
554.01	43515.24
554.17	43349.06
554.34	43070.54
554.51	43232.04
554.67	43440.34
554.84	43047.13
555.00	43215.65
555.17	42927.77
555.33	43250.76
555.50	42958.19
555.67	43643.97
555.83	43508.22
556.00	43021.39
556.16	43688.44
556.33	43604.18
556.50	43276.51
556.66	43636.95
556.83	43615.88
556.99	43599.50
557.16	43981.01
557.32	43430.98
557.49	43606.52
557.65	43201.61
557.82	43243.74
557.98	43526.94
558.15	43540.99
558.32	43768.02
558.48	43775.04
558.65	43604.18
558.81	43597.16
558.98	43798.44
559.14	43765.68
559.31	43501.20
559.47	43555.03
559.64	43959.94
559.80	43983.35
559.97	44011.43
560.13	43454.39
560.30	43803.13
560.46	43604.18
560.63	43856.96
560.79	43861.64
560.96	44563.80
561.12	43669.72
561.29	44100.37
561.45	43927.17
561.61	44027.82
561.78	43871.00
561.94	43648.65
562.11	43894.41
562.27	43997.39
562.44	43929.51
562.60	44465.50
562.77	44472.52
562.93	44186.97
563.10	44306.34
563.26	43784.40
563.42	44521.67
563.59	43833.55
563.75	43971.64
563.92	44243.15
564.08	44196.34
564.24	44788.49
564.41	44608.27
564.57	44722.96
564.74	44545.08
564.90	44381.24
565.07	44201.02
565.23	44421.03
565.39	43969.30
565.56	44456.14
565.72	44194.00
565.88	44271.23
566.05	44521.67
566.21	44404.64
566.38	44076.97
566.54	44388.26
566.70	44119.10
566.87	44987.44
567.03	44568.48
567.19	44917.22
567.36	44741.68
567.52	44467.84
567.68	44678.49
567.85	44264.21
568.01	44727.64
568.17	44479.54
568.34	44870.41
568.50	44767.43
568.66	44664.44
568.83	45052.97
568.99	44423.37
569.15	44425.71
569.32	44329.75
569.48	44217.40
569.64	44692.53
569.81	44409.32
569.97	44378.90
570.13	44624.65
570.30	44414.01
570.46	44002.07
570.62	44257.19
570.78	44093.35
570.95	44531.03
571.11	44704.23
571.27	44327.41
571.43	44336.77
571.60	44732.32
571.76	44811.90
571.92	44453.79
572.09	44610.61
572.25	44811.90
572.41	44746.36
572.57	44856.37
572.74	44996.80
572.90	45062.33
573.06	44715.93
573.22	44566.14
573.38	44861.05
573.55	44781.47
573.71	44996.80
573.87	44626.99
574.03	44259.53
574.20	44765.09
574.36	44463.16
574.52	45038.93
574.68	44573.16
574.84	44769.77
575.01	44847.00
575.17	44416.35
575.33	44521.67
575.49	44844.66
575.65	45287.03
575.82	44835.30
575.98	44858.71
576.14	45301.07
576.30	44720.62
576.46	44708.91
576.62	44921.90
576.79	44383.58
576.95	44760.40
577.11	44781.47
577.27	45162.98
577.43	45052.97
577.59	44978.07
577.75	45001.48
577.92	44605.93
578.08	44720.62
578.24	44636.36
578.40	45186.38
578.56	45233.19
578.72	44882.11
578.88	44741.68
579.04	44973.39
579.21	44849.35
579.37	44516.99
579.53	44961.69
579.69	44980.42
579.85	44809.56
580.01	44800.19
580.17	44884.45
580.33	45359.58
580.49	45116.17
580.65	44772.11
580.82	45319.79
580.98	45078.72
581.14	44816.58
581.30	44762.75
581.46	45207.45
581.62	44783.81
581.78	44917.22
581.94	45268.30
582.10	45074.04
582.26	45244.90
582.42	45045.95
582.58	44992.12
582.74	44774.45
582.90	44634.02
583.06	44957.01
583.22	44978.07
583.38	44907.86
583.54	44891.48
583.70	44800.19
583.86	45158.30
584.02	44535.71
584.18	44940.63
584.34	45275.32
584.50	45186.38
584.66	45371.28
584.82	44900.84
584.98	45427.46
585.14	45368.94
585.30	44659.76
585.46	45071.70
585.62	44882.11
585.78	45074.04
585.94	44472.52
586.10	45214.47
586.26	45228.51
586.42	45209.79
586.58	45340.86
586.74	44891.48
586.90	45031.91
587.06	45247.24
587.22	45106.80
587.38	44870.41
587.54	45600.66
587.70	45258.94
587.86	45177.02
588.02	44715.93
588.18	45593.64
588.34	45097.44
588.49	44278.25
588.65	44842.32
588.81	44460.82
588.97	44744.02
589.13	44985.10
589.29	44800.19
589.45	45074.04
589.61	44835.30
589.77	45289.37
589.93	45684.92
590.08	45525.76
590.24	45230.85
590.40	45343.20
590.56	45483.63
590.72	45265.96
590.88	45062.33
591.04	45111.49
591.20	45677.90
591.35	45399.37
591.51	45485.97
591.67	45420.44
591.83	45083.40
591.99	45006.16
592.15	45120.85
592.31	44914.88
592.46	44968.71
592.62	45165.32
592.78	45294.05
592.94	45921.31
593.10	45333.84
593.26	45476.61
593.41	45155.96
593.57	44980.42
593.73	45223.83
593.89	45331.50
594.05	45228.51
594.20	45546.82
594.36	45427.46
594.52	45535.12
594.68	45151.27
594.84	44945.31
594.99	45677.90
595.15	45303.41
595.31	45633.42
595.47	45373.63
595.62	45705.98
595.78	45736.41
595.94	45272.98
596.10	45406.39
596.25	45523.42
596.41	45366.60
596.57	45172.34
596.73	44938.29
596.88	45111.49
597.04	45191.06
597.20	45406.39
597.36	45502.35
597.51	45600.66
597.67	45450.86
597.83	45366.60
597.99	45603.00
598.14	45212.13
598.30	45797.26
598.46	44924.24
598.61	45354.90
598.77	45162.98
598.93	45347.88
599.09	45492.99
599.24	45865.14
599.40	45462.57
599.56	45584.27
599.71	45502.35
599.87	45797.26
600.03	45553.85
600.18	45509.38
600.34	45523.42
600.50	45497.67
600.65	45542.14
600.81	45366.60
600.97	45928.33
601.12	46050.04
601.28	45764.49
601.44	45223.83
601.59	45331.50
601.75	45298.73
601.91	45581.93
602.06	45242.56
602.22	45303.41
602.37	45275.32
602.53	45581.93
602.69	45471.93
602.84	45282.34
603.00	45392.35
603.16	45340.86
603.31	45544.48
603.47	45675.55
603.62	44978.07
603.78	45481.29
603.94	45839.39
604.09	45591.30
604.25	45375.97
604.40	45336.18
604.56	45586.61
604.71	45443.84
604.87	44865.73
605.03	45401.71
605.18	45069.36
605.34	45366.60
605.49	45024.89
605.65	45385.33
605.80	45179.36
605.96	45200.43
606.12	45317.45
606.27	45631.08
606.43	45233.19
606.58	45361.92
606.74	44701.89
606.89	45081.06
607.05	45357.24
607.20	44947.65
607.36	45048.29
607.51	45397.03
607.67	45282.34
607.82	45368.94
607.98	45059.99
608.13	45146.59
608.29	44996.80
608.44	44947.65
608.60	45090.42
608.75	44540.39
608.91	44575.50
609.06	44566.14
609.22	45476.61
609.37	45048.29
609.53	45247.24
609.68	44776.79
609.84	45102.12
609.99	44891.48
610.15	44870.41
610.30	44535.71
610.46	44552.10
610.61	44783.81
610.76	45170.00
610.92	44729.98
611.07	44891.48
611.23	44863.39
611.38	44793.17
611.54	44650.40
611.69	44399.96
611.84	44673.81
612.00	44252.51
612.15	44446.77
612.31	45067.02
612.46	44383.58
612.62	45062.33
612.77	44624.65
612.92	44591.89
613.08	44224.42
613.23	44788.49
613.39	44409.32
613.54	44245.49
613.69	44718.28
613.85	44215.06
614.00	44893.82
614.15	45329.16
614.31	44856.37
614.46	44811.90
614.62	44814.24
614.77	44758.06
614.92	44945.31
615.08	44584.86
615.23	44353.15
615.38	44264.21
615.54	43908.45
615.69	44231.44
615.84	44327.41
616.00	43959.94
616.15	44215.06
616.30	44257.19
616.46	44196.34
616.61	43887.39
616.76	44088.67
616.92	43931.86
617.07	43849.94
617.22	44027.82
617.37	43690.78
617.53	44158.89
617.68	44177.61
617.83	44123.78
617.99	44137.82
618.14	44467.84
618.29	43768.02
618.45	43938.88
618.60	43594.82
618.75	43803.13
618.90	43831.21
619.06	44196.34
619.21	43751.63
619.36	43847.60
619.51	43613.54
619.67	43990.37
619.82	43840.57
619.97	43655.67
620.12	43763.34
620.28	43241.40
620.43	43358.42
620.58	43627.59
620.73	43264.80
620.89	43545.67
621.04	43580.78
621.19	43262.46
621.34	43356.08
621.49	43250.76
621.65	43241.40
621.80	43512.90
621.95	43281.19
622.10	43377.15
622.25	43203.95
622.41	43210.97
622.56	43047.13
622.71	43241.40
622.86	43299.91
623.01	43571.41
623.16	43440.34
623.32	43054.15
623.47	43409.92
623.62	43014.37
623.77	43000.32
623.92	42967.55
624.07	43012.02
624.23	42689.03
624.38	42822.44
624.53	42768.61
624.68	42892.66
624.83	43100.97
624.98	42714.78
625.13	42438.59
625.29	42944.15
625.44	42646.90
625.59	42092.19
625.74	42204.54
625.89	42656.26
626.04	42286.46
626.19	42462.00
626.34	42326.25
626.49	43002.66
626.65	42717.12
626.80	42239.65
626.95	42808.40
627.10	42291.14
627.25	42101.56
627.40	42021.98
627.55	42146.03
627.70	41724.73
627.85	42162.41
628.00	41996.23
628.15	42506.47
628.30	42604.77
628.45	42094.53
628.60	42199.86
628.76	42433.91
628.91	42267.73
629.06	41954.10
629.21	42171.77
629.36	41680.26
629.51	41865.16
629.66	41914.31
629.81	41743.45
629.96	41677.92
630.11	41469.61
630.26	41717.71
630.41	41727.07
630.56	41670.90
630.71	41872.18
630.86	41984.53
631.01	41581.96
631.16	42087.51
631.31	41937.72
631.46	41588.98
631.61	41507.06
631.76	41677.92
631.91	41811.33
632.06	41392.37
632.21	41530.47
632.36	41663.88
632.51	41015.55
632.66	41600.68
632.81	40912.56
632.96	41371.31
633.10	40741.71
633.25	41071.72
633.40	41090.44
633.55	41621.75
633.70	41385.35
633.85	41092.79
634.00	41137.26
634.15	41148.96
634.30	40926.61
634.45	41436.84
634.60	40954.69
634.75	41102.15
634.90	41102.15
635.05	40898.52
635.19	41001.50
635.34	41165.34
635.49	41076.40
635.64	40800.22
635.79	40421.05
635.94	40996.82
636.09	40687.87
636.24	40694.89
636.39	40409.35
636.53	40353.18
636.68	40402.33
636.83	40376.58
636.98	40676.17
637.13	40079.33
637.28	40783.83
637.43	40722.98
637.57	40781.49
637.72	40655.11
637.87	40957.03
638.02	40636.38
638.17	40734.68
638.32	40414.03
638.46	40392.97
638.61	40442.12
638.76	40308.71
638.91	40472.54
639.06	40187.00
639.20	40093.38
639.35	40318.07
639.50	40552.12
639.65	40722.98
639.80	40545.10
639.94	39854.64
640.09	40055.93
640.24	39564.42
640.39	40243.17
640.54	39983.37
640.68	40055.93
640.83	40182.32
640.98	39573.78
641.13	40013.80
641.27	40119.12
641.42	40034.86
641.57	40360.20
641.72	40009.12
641.86	39861.66
642.01	39679.10
642.16	39569.10
642.31	39363.13
642.45	39791.45
642.60	39243.76
642.75	38892.68
642.90	39892.09
643.04	39356.11
643.19	39510.58
643.34	39959.97
643.48	39838.26
643.63	39796.13
643.78	39704.85
643.93	39206.31
644.07	38859.91
644.22	39721.23
644.37	39203.97
644.51	38883.32
644.66	39688.46
644.81	39161.84
644.95	39473.13
645.10	39398.24
645.25	39634.63
645.39	39117.37
645.54	39321.00
645.69	39503.56
645.83	39044.82
645.98	39512.92
646.13	39466.11
646.27	39342.06
646.42	39138.44
646.57	39402.92
646.71	38904.38
646.86	39386.54
647.00	38974.60
647.15	39512.92
647.30	39112.69
647.44	39229.72
647.59	38644.59
647.74	38815.44
647.88	38885.66
648.03	38958.22
648.17	39063.54
648.32	38347.34
648.47	38618.84
648.61	38387.13
648.76	38543.94
648.90	38726.50
649.05	38499.47
649.20	38866.94
649.34	38895.02
649.49	38810.76
649.63	38300.53
649.78	38391.81
649.92	38234.99
650.07	38962.90
650.21	38583.73
650.36	38469.04
650.51	38232.65
650.65	38625.86
650.80	38749.91
650.94	38541.60
651.09	38457.34
651.23	38476.07
651.38	38246.69
651.52	38059.45
651.67	38525.22
651.81	37813.70
651.96	38139.03
652.10	38087.54
652.25	37888.59
652.39	38068.81
652.54	38216.27
652.68	38251.38
652.83	38249.03
652.97	38164.78
653.12	38440.96
653.26	38359.04
653.41	38192.86
653.55	38096.90
653.70	37780.93
653.84	38218.61
653.99	38220.95
654.13	37790.29
654.27	38122.65
654.42	37982.21
654.56	37883.91
654.71	37502.40
654.85	37982.21
655.00	37308.14
655.14	37668.58
655.29	37298.78
655.43	37441.55
655.57	37317.50
655.72	37401.76
655.86	37373.67
656.01	37233.24
656.15	37006.21
656.30	37188.77
656.44	36968.76
656.58	37378.36
656.73	37139.62
656.87	36825.99
657.01	36872.80
657.16	37022.59
657.30	36760.45
657.45	36732.37
657.59	36840.03
657.73	37102.17
657.88	37034.30
658.02	36905.57
658.16	37008.55
658.31	37020.25
658.45	37024.93
658.60	36767.48
658.74	36847.05
658.88	36882.16
659.03	36605.98
659.17	36360.22
659.31	36392.99
659.46	36350.86
659.60	36456.18
659.74	36252.56
659.89	35889.77
660.03	36510.02
660.17	36411.71
660.32	36163.62
660.46	36825.99
660.60	36437.46
660.74	36084.04
660.89	36605.98
661.03	36011.48
661.17	36584.91
661.32	35789.13
661.46	35742.32
661.60	36030.21
661.74	35995.10
661.89	35871.05
662.03	36055.95
662.17	36058.29
662.31	35531.67
662.46	36058.29
662.60	35859.35
662.74	35491.88
662.88	35538.69
663.03	35653.38
663.17	35622.95
663.31	35211.02
663.45	35456.78
663.60	35428.69
663.74	35047.18
663.88	35398.26
664.02	34920.79
664.17	35267.19
664.31	34976.97
664.45	34803.77
664.59	35021.44
664.73	35056.54
664.88	35150.17
665.02	34576.73
665.16	34754.61
665.30	34792.06
665.44	34602.48
665.59	34799.08
665.73	34471.41
665.87	34251.40
666.01	34506.52
666.15	34087.56
666.29	34330.98
666.44	34534.60
666.58	34309.91
666.72	33963.51
666.86	34560.35
667.00	34782.70
667.14	34181.18
667.28	34000.96
667.43	33591.37
667.57	33589.03
667.71	34026.71
667.85	33958.83
667.99	34029.05
668.13	33687.33
668.27	33635.84
668.41	33736.48
668.56	32973.47
668.70	33867.55
668.84	33097.52
668.98	33109.22
669.12	33481.36
669.26	33769.25
669.40	33153.69
669.54	33198.16
669.68	33043.68
669.82	33027.30
669.96	33376.04
670.10	32830.69
670.25	32921.98
670.39	33106.88
670.53	32767.50
670.67	32566.21
670.81	32765.16
670.95	33188.80
671.09	32783.88
671.23	33205.18
671.37	32414.08
671.51	32779.20
671.65	32304.07
671.79	32446.85
671.93	32261.94
672.07	32432.80
672.21	32400.04
672.35	32091.09
672.49	32168.32
672.63	32393.01
672.77	31662.77
672.91	31899.16
673.05	31428.71
673.19	31365.52
673.33	31714.26
673.47	31594.89
673.61	31154.87
673.75	31431.05
673.89	31168.91
674.03	31122.10
674.17	31185.30
674.31	31344.45
674.45	31360.84
674.59	31409.99
674.73	31456.80
674.87	30944.22
675.01	30623.57
675.15	31267.22
675.29	30897.41
675.43	31005.08
675.56	30862.30
675.70	30359.09
675.84	30178.87
675.98	29734.17
676.12	30726.55
676.26	30118.01
676.40	29846.51
676.54	29869.92
676.68	29776.30
676.82	29514.16
676.96	29612.46
677.10	30082.91
677.23	29240.31
677.37	29741.19
677.51	29687.36
677.65	29476.71
677.79	29111.58
677.93	29247.33
678.07	29062.43
678.21	28446.87
678.34	28968.81
678.48	28184.73
678.62	28739.44
678.76	28613.05
678.90	28713.69
679.04	28599.01
679.18	28638.80
679.31	28039.62
679.45	28056.00
679.59	27920.25
679.73	27587.89
679.87	27744.71
680.00	27821.95
680.14	27749.39
680.28	27704.92
680.42	27730.67
680.56	27515.34
680.70	27428.74
680.83	27131.49
680.97	26932.54
681.11	27374.91
681.25	26881.05
681.39	26986.38
681.52	27133.83
681.66	26923.18
681.80	26508.91
681.94	26757.00
682.07	26867.01
682.21	26810.84
682.35	26539.33
682.49	26586.15
682.62	26394.22
682.76	26305.28
682.90	26373.16
683.04	26239.75
683.17	26370.82
683.31	26277.19
683.45	26244.43
683.59	25947.18
683.72	25895.69
683.86	25179.48
684.00	24907.98
684.13	25406.52
684.27	25193.53
684.41	25242.68
684.55	25013.31
684.68	25025.01
684.82	24725.42
684.96	24889.26
685.09	24662.22
685.23	24467.96
685.37	24540.52
685.50	24751.17
685.64	24376.68
685.78	24355.61
685.91	24280.72
686.05	24535.84
686.19	23714.31
686.32	24004.53
686.46	23735.37
686.60	23548.13
686.73	23545.79
686.87	23426.42
687.01	23246.20
687.14	23557.49
687.28	23290.67
687.42	22874.06
687.55	22995.76
687.69	23246.20
687.82	23213.43
687.96	23016.83
688.10	22974.70
688.23	22642.34
688.37	22991.08
688.50	22249.13
688.64	22309.99
688.78	22317.01
688.91	22082.95
689.05	22260.84
689.18	22223.39
689.32	21795.07
689.46	22333.39
689.59	22132.11
689.73	21844.22
689.86	21935.50
690.00	21905.07
690.13	21546.97
690.27	21205.25
690.41	21633.57
690.54	21191.21
690.68	21186.53
690.81	21078.86
690.95	21252.06
691.08	21113.97
691.22	20872.90
691.35	20982.90
691.49	20943.11
691.62	20772.25
691.76	20772.25
691.89	20767.57
692.03	20718.42
692.16	20252.66
692.30	20526.50
692.43	20152.01
692.57	19990.52
692.70	20070.09
692.84	20252.66
692.97	20112.22
693.11	19836.04
693.24	19723.69
693.38	19679.22
693.51	19398.36
693.65	19609.01
693.78	19604.33
693.92	19665.18
694.05	19410.06
694.19	19257.93
694.32	19220.48
694.45	19044.94
694.59	19220.48
694.72	19349.21
694.86	19098.77
694.99	18834.29
695.13	18944.30
695.26	18689.18
695.39	18443.42
695.53	18668.11
695.66	18412.99
695.80	18293.63
695.93	18272.56
696.07	18216.39
696.20	18008.08
696.33	17874.67
696.47	17907.44
696.60	18040.85
696.73	17972.97
696.87	17907.44
697.00	17455.72
697.14	17830.20
697.27	17715.51
697.40	17511.89
697.54	17586.79
697.67	17137.40
697.80	17151.45
697.94	17451.03
698.07	17259.11
698.21	17142.08
698.34	17226.34
698.47	17060.16
698.61	16570.99
698.74	16940.80
698.87	16741.85
699.01	16339.28
699.14	16187.14
699.27	16659.93
699.40	16709.08
699.54	15988.20
699.67	15929.69
699.80	16369.71
699.94	16367.37
700.07	16053.73
700.20	15885.22
700.34	15922.66
700.47	15892.24
700.60	16187.14
700.73	16243.32
700.87	15859.47
701.00	15449.88
701.13	15751.81
701.26	15662.86
701.40	15372.64
701.53	15449.88
701.66	15349.23
701.79	15173.69
701.93	15091.77
702.06	14946.66
702.19	15049.64
702.32	15164.33
702.46	14775.80
702.59	14366.21
702.72	14817.93
702.85	14771.12
702.99	14876.44
703.12	14635.37
703.25	14511.32
703.38	14520.68
703.51	14548.77
703.65	14464.51
703.78	14171.94
703.91	13891.08
704.04	14202.37
704.17	14141.52
704.31	14148.54
704.44	13781.07
704.57	13619.58
704.70	13657.03
704.83	13530.64
704.96	13781.07
705.10	13935.55
705.23	13624.26
>>>>>End Processed Spectral Data<<<<<
