SpectraSuite Data File
++++++++++++++++++++++++++++++++++++
Date: Fri Oct 25 11:34:39 EDT 2013
User: price-jones
Dark Spectrum Present: No
Reference Spectrum Present: No
Number of Sampled Component Spectra: 1
Spectrometers: USB2+H05261
Integration Time (usec): 100000 (USB2+H05261)
Spectra Averaged: 1 (USB2+H05261)
Boxcar Smoothing: 0 (USB2+H05261)
Correct for Electrical Dark: No (USB2+H05261)
Strobe/Lamp Enabled: No (USB2+H05261)
Correct for Detector Non-linearity: No (USB2+H05261)
Correct for Stray Light: No (USB2+H05261)
Number of Pixels in Processed Spectrum: 2048
>>>>>Begin Processed Spectral Data<<<<<
365.73	283.20
365.92	283.20
366.12	283.20
366.32	224.69
366.52	168.52
366.72	201.29
366.91	182.56
367.11	135.75
367.31	161.50
367.51	203.63
367.70	170.86
367.90	145.11
368.10	175.54
368.30	231.71
368.49	131.07
368.69	163.84
368.89	229.37
369.09	229.37
369.28	163.84
369.48	252.78
369.68	250.44
369.87	297.25
370.07	264.48
370.27	238.73
370.47	250.44
370.66	461.09
370.86	468.11
371.06	521.94
371.25	554.71
371.45	550.03
371.65	538.32
371.84	503.22
372.04	465.77
372.24	498.53
372.44	587.47
372.63	615.56
372.83	617.90
373.03	599.18
373.22	610.88
373.42	585.13
373.62	615.56
373.81	620.24
374.01	571.09
374.21	610.88
374.40	573.43
374.60	624.92
374.79	564.07
374.99	664.71
375.19	641.31
375.38	676.41
375.58	641.31
375.78	617.90
375.97	676.41
376.17	636.63
376.37	667.05
376.56	571.09
376.76	634.29
376.95	650.67
377.15	617.90
377.35	627.26
377.54	751.31
377.74	711.52
377.93	669.39
378.13	702.16
378.33	685.78
378.52	664.71
378.72	662.37
378.91	674.07
379.11	720.88
379.31	734.93
379.50	690.46
379.70	718.54
379.89	755.99
380.09	723.23
380.28	734.93
380.48	739.61
380.68	695.14
380.87	702.16
381.07	739.61
381.26	786.42
381.46	744.29
381.65	784.08
381.85	716.20
382.04	744.29
382.24	706.84
382.43	676.41
382.63	770.04
382.83	781.74
383.02	800.46
383.22	833.23
383.41	741.95
383.61	760.67
383.80	793.44
384.00	697.48
384.19	795.78
384.39	868.34
384.58	765.36
384.78	807.48
384.97	788.76
385.17	770.04
385.36	763.01
385.56	863.66
385.75	781.74
385.95	779.40
386.14	875.36
386.34	828.55
386.53	840.25
386.72	833.23
386.92	858.98
387.11	847.27
387.31	805.14
387.50	842.59
387.70	896.43
387.89	760.67
388.09	802.80
388.28	835.57
388.48	856.64
388.67	952.60
388.86	826.21
389.06	931.53
389.25	905.79
389.45	943.24
389.64	894.08
389.84	1041.54
390.03	964.30
390.22	950.26
390.42	882.38
390.61	987.71
390.81	943.24
391.00	1029.84
391.19	990.05
391.39	992.39
391.58	968.98
391.78	957.28
391.97	1057.92
392.16	985.37
392.36	950.26
392.55	978.34
392.75	978.34
392.94	1032.18
393.13	990.05
393.33	1039.20
393.52	1022.81
393.71	1027.50
393.91	1090.69
394.10	1156.22
394.29	1107.07
394.49	1015.79
394.68	1064.94
394.88	1076.65
395.07	1114.10
395.26	1074.31
395.46	1057.92
395.65	1130.48
395.84	1121.12
396.04	1186.65
396.23	1151.54
396.42	1074.31
396.62	1160.91
396.81	1210.06
397.00	1144.52
397.19	1198.35
397.39	1210.06
397.58	1261.55
397.77	1022.81
397.97	1181.97
398.16	1226.44
398.35	1245.16
398.55	1170.27
398.74	1193.67
398.93	1331.76
399.12	1212.40
399.32	1172.61
399.51	1221.76
399.70	1310.70
399.90	1289.64
400.09	1291.98
400.28	1263.89
400.47	1275.59
400.67	1345.81
400.86	1352.83
401.05	1366.87
401.24	1357.51
401.44	1380.92
401.63	1439.43
401.82	1404.32
402.01	1392.62
402.21	1416.02
402.40	1416.02
402.59	1376.24
402.78	1502.62
402.97	1401.98
403.17	1476.88
403.36	1500.28
403.55	1392.62
403.74	1483.90
403.93	1542.41
404.13	1537.73
404.32	1469.86
404.51	1542.41
404.70	1575.18
404.89	1575.18
405.09	1589.22
405.28	1636.03
405.47	1547.09
405.66	1593.90
405.85	1636.03
406.05	1605.61
406.24	1668.80
406.43	1629.01
406.62	1636.03
406.81	1710.93
407.00	1694.55
407.20	1612.63
407.39	1713.27
407.58	1696.89
407.77	1715.61
407.96	1736.68
408.15	1842.00
408.34	1809.23
408.54	1942.64
408.73	1830.30
408.92	1818.60
409.11	1921.58
409.30	1853.70
409.49	1837.32
409.68	1879.45
409.87	1844.34
410.07	1947.33
410.26	2005.84
410.45	1977.75
410.64	2069.03
410.83	2052.65
411.02	2057.33
411.21	2073.71
411.40	2083.08
411.59	2162.66
411.78	1994.14
411.98	1987.11
412.17	2059.67
412.36	2071.37
412.55	2188.40
412.74	2115.84
412.93	2153.29
413.12	2207.13
413.31	2321.81
413.50	2361.60
413.69	2207.13
413.88	2260.96
414.07	2291.38
414.26	2410.75
414.45	2403.73
414.64	2373.30
414.83	2539.48
415.02	2427.14
415.22	2492.67
415.41	2502.03
415.60	2602.68
415.79	2509.05
415.98	2600.34
416.17	2583.95
416.36	2546.50
416.55	2590.97
416.74	2602.68
416.93	2780.56
417.12	2654.17
417.31	2682.25
417.50	2862.48
417.69	2808.64
417.88	2818.00
418.07	2829.71
418.26	2822.69
418.45	2813.32
418.64	2834.39
418.83	2883.54
419.02	2815.66
419.21	2977.16
419.39	2988.86
419.58	3026.31
419.77	2855.45
419.96	2984.18
420.15	3066.10
420.34	3007.59
420.53	3023.97
420.72	3028.65
420.91	3091.85
421.10	3070.78
421.29	3143.34
421.48	3021.63
421.67	3091.85
421.86	3155.04
422.05	3063.76
422.24	3117.59
422.43	3265.05
422.61	3234.62
422.80	3290.79
422.99	3332.92
423.18	3218.24
423.37	3351.65
423.56	3297.81
423.75	3199.51
423.94	3152.70
424.13	3012.27
424.32	3124.62
424.50	3162.06
424.69	3342.28
424.88	3342.28
425.07	3368.03
425.26	3351.65
425.45	3344.63
425.64	3229.94
425.83	3246.32
426.01	3365.69
426.20	3309.52
426.39	3368.03
426.58	3307.18
426.77	3384.41
426.96	3449.95
427.15	3372.71
427.33	3433.57
427.52	3461.65
427.71	3382.07
427.90	3459.31
428.09	3501.44
428.28	3435.91
428.46	3527.19
428.65	3545.91
428.84	3440.59
429.03	3501.44
429.22	3555.27
429.40	3562.30
429.59	3660.60
429.78	3445.27
429.97	3456.97
430.16	3672.30
430.34	3744.86
430.53	3641.87
430.72	3791.67
430.91	3625.49
431.10	3665.28
431.28	3803.37
431.47	3908.69
431.66	3847.84
431.85	3763.58
432.03	3779.97
432.22	3946.14
432.41	3838.48
432.60	3772.94
432.79	3740.18
432.97	3997.64
433.16	4018.70
433.35	3976.57
433.54	3819.75
433.72	3932.10
433.91	4002.32
434.10	4053.81
434.28	3918.06
434.47	4114.66
434.66	4109.98
434.85	4142.75
435.03	4060.83
435.22	4058.49
435.41	4252.75
435.59	4187.22
435.78	4236.37
435.97	4285.52
436.16	4189.56
436.34	4180.20
436.53	4358.08
436.72	4341.69
436.90	4163.81
437.09	4269.14
437.28	4147.43
437.46	4231.69
437.65	4332.33
437.84	4411.91
438.02	4381.48
438.21	4334.67
438.40	4285.52
438.58	4423.61
438.77	4496.17
438.96	4545.32
439.14	4683.41
439.33	4601.49
439.52	4587.45
439.70	4669.37
439.89	4545.32
440.08	4531.28
440.26	4772.35
440.45	4882.36
440.63	4662.35
440.82	4910.44
441.01	4847.25
441.19	4978.32
441.38	5097.69
441.57	4809.80
441.75	5074.28
441.94	5036.83
442.12	5210.03
442.31	5235.78
442.50	5181.95
442.68	5177.26
442.87	5088.32
443.05	5132.79
443.24	5270.89
443.43	5263.86
443.61	5383.23
443.80	5521.32
443.98	5163.22
444.17	5071.94
444.35	5252.16
444.54	5352.81
444.73	5394.93
444.91	5310.68
445.10	5430.04
445.28	5210.03
445.47	5376.21
445.65	5416.00
445.84	5544.73
446.02	5357.49
446.21	5301.31
446.39	5439.40
446.58	5540.05
446.77	5495.58
446.95	5158.54
447.14	5350.46
447.32	5451.11
447.51	5469.83
447.69	5359.83
447.88	5451.11
448.06	5469.83
448.25	5418.34
448.43	5554.09
448.62	5287.27
448.80	5523.66
448.99	5685.16
449.17	5804.53
449.36	5537.71
449.54	5685.16
449.73	5748.36
449.91	5750.70
450.10	5799.85
450.28	5694.52
450.46	5802.19
450.65	5893.47
450.83	5886.45
451.02	5980.07
451.20	5951.98
451.39	5858.36
451.57	5877.09
451.76	5795.17
451.94	5860.70
452.13	5984.75
452.31	5989.43
452.49	5937.94
452.68	6087.73
452.86	6015.18
453.05	6141.57
453.23	6071.35
453.42	6122.84
453.60	6193.06
453.78	6099.44
453.97	5937.94
454.15	6101.78
454.34	6164.97
454.52	6136.88
454.70	6242.21
454.89	6202.42
455.07	6406.05
455.26	6277.32
455.44	6382.64
455.62	6265.61
455.81	6183.70
455.99	6300.72
456.17	6485.62
456.36	6455.20
456.54	6403.71
456.73	6616.69
456.91	6590.95
457.09	6726.70
457.28	6597.97
457.46	6672.87
457.64	6733.72
457.83	6637.76
458.01	6726.70
458.19	6745.42
458.38	6633.08
458.56	6848.41
458.74	6705.63
458.93	6747.76
459.11	6869.47
459.29	6803.94
459.48	6920.96
459.66	6768.83
459.84	6930.33
460.03	7136.29
460.21	6951.39
460.39	6806.28
460.57	6998.20
460.76	7000.54
460.94	7136.29
461.12	7159.70
461.31	7176.08
461.49	7133.95
461.67	7068.42
461.85	7267.36
462.04	7129.27
462.22	7627.81
462.40	7248.64
462.59	7325.88
462.77	7190.13
462.95	7220.55
463.13	7194.81
463.32	7335.24
463.50	7321.20
463.68	7506.10
463.86	7583.34
464.05	7400.77
464.23	7641.85
464.41	7470.99
464.59	7372.69
464.78	7868.88
464.96	7562.27
465.14	7447.58
465.32	7674.62
465.50	7688.66
465.69	7648.87
465.87	7698.02
466.05	7597.38
466.23	7691.00
466.41	7719.09
466.60	7995.27
466.78	7747.17
466.96	7749.51
467.14	7779.94
467.32	7885.26
467.51	7854.84
467.69	7854.84
467.87	7728.45
468.05	7899.31
468.23	7927.39
468.41	7777.60
468.60	7836.11
468.78	7953.14
468.96	7971.86
469.14	8222.30
469.32	8102.93
469.50	8053.78
469.69	8264.43
469.87	8486.78
470.05	8182.51
470.23	8318.26
470.41	8250.39
470.59	8262.09
470.77	8444.65
470.95	8393.16
471.14	8575.72
471.32	8397.84
471.50	8559.34
471.68	8629.56
471.86	8559.34
472.04	8664.66
472.22	8828.50
472.40	8657.64
472.58	8592.11
472.77	8793.39
472.95	8952.55
473.13	9097.66
473.31	8894.04
473.49	8992.34
473.67	8879.99
473.85	8994.68
474.03	9247.46
474.21	9116.39
474.39	9350.44
474.57	9179.58
474.75	9179.58
474.93	9446.40
475.12	9369.16
475.30	9427.68
475.48	9547.05
475.66	9741.31
475.84	9554.07
476.02	9694.50
476.20	9542.36
476.38	9848.97
476.56	9991.75
476.74	10108.77
476.92	9923.87
477.10	9830.25
477.28	10092.39
477.46	10209.42
477.64	10200.05
477.82	10370.91
478.00	10523.05
478.18	10406.02
478.36	10548.79
478.54	10738.38
478.72	10839.02
478.90	10729.02
479.08	11112.86
479.26	11063.71
479.44	10913.92
479.62	10932.64
479.80	11302.45
479.98	11180.74
480.16	11583.31
480.34	11382.03
480.52	11573.95
480.70	11520.12
480.88	11449.90
481.06	11772.89
481.24	11775.24
481.41	11871.20
481.59	11875.88
481.77	12116.95
481.95	12173.13
482.13	12175.47
482.31	12152.06
482.49	12582.72
482.67	12594.42
482.85	12837.84
483.03	12812.09
483.21	12865.92
483.39	13153.81
483.57	12957.21
483.74	13029.76
483.92	13343.39
484.10	13179.56
484.28	13469.78
484.46	13626.60
484.64	13841.93
484.82	13511.91
485.00	13905.12
485.18	14204.71
485.35	14328.76
485.53	14045.55
485.71	14616.65
485.89	14675.16
486.07	14520.68
486.25	14614.30
486.43	14712.61
486.61	14630.69
486.78	14979.43
486.96	15040.28
487.14	15232.21
487.32	15166.67
487.50	15419.45
487.68	15250.93
487.85	15550.52
488.03	15777.55
488.21	15831.38
488.39	15882.88
488.57	15946.07
488.75	16100.55
488.92	16503.12
489.10	16552.27
489.28	16570.99
489.46	16886.97
489.64	16594.40
489.81	17191.23
489.99	17090.59
490.17	17114.00
490.35	17467.42
490.53	17565.72
490.70	17619.55
490.88	17715.51
491.06	17736.58
491.24	18085.32
491.41	18101.70
491.59	18146.17
491.77	18120.43
491.95	18277.24
492.13	18408.31
492.30	18787.48
492.48	18764.07
492.66	18890.46
492.84	18845.99
493.01	18848.33
493.19	18916.21
493.37	18867.06
493.54	19227.50
493.72	19569.22
493.90	19372.61
494.08	19651.14
494.25	19447.51
494.43	19660.50
494.61	19995.20
494.79	19903.92
494.96	20049.03
495.14	20334.57
495.32	20339.26
495.49	20369.68
495.67	20491.39
495.85	20849.49
496.02	20781.62
496.20	21034.39
496.38	21343.35
496.55	21167.80
496.73	21474.42
496.91	21495.48
497.09	21696.77
497.26	21467.39
497.44	21804.43
497.62	21759.96
497.79	22356.80
497.97	21720.17
498.14	22270.20
498.32	21994.01
498.50	22305.31
498.67	22750.01
498.85	22668.09
499.03	22567.45
499.20	22728.94
499.38	22642.34
499.56	22857.67
499.73	23108.11
499.91	23522.38
500.08	23276.63
500.26	23150.24
500.44	23225.14
500.61	23463.87
500.79	23154.92
500.97	23651.11
501.14	24056.03
501.32	23653.45
501.49	23606.64
501.67	24121.56
501.84	24278.38
502.02	24093.47
502.20	24334.55
502.37	24339.23
502.55	24254.97
502.72	24613.07
502.90	24556.90
503.07	24533.50
503.25	24404.77
503.43	24416.47
503.60	24882.24
503.78	24994.58
503.95	24938.41
504.13	24898.62
504.30	25043.73
504.48	24915.00
504.65	25336.30
504.83	25467.37
505.01	25612.48
505.18	25589.08
505.36	25914.41
505.53	25514.18
505.71	25951.86
505.88	25993.99
506.06	25879.30
506.23	26581.46
506.41	26157.83
506.58	26441.03
506.76	26326.35
506.93	26494.86
507.11	26658.70
507.28	26574.44
507.46	26693.81
507.63	26859.99
507.81	26909.14
507.98	26691.47
508.16	26518.27
508.33	26780.41
508.50	27040.21
508.68	26958.29
508.85	27440.44
509.03	27321.07
509.20	27470.87
509.38	27655.77
509.55	27730.67
509.73	27461.51
509.90	27452.14
510.08	27861.74
510.25	27854.72
510.42	27473.21
510.60	28231.54
510.77	28245.58
510.95	28739.44
511.12	28203.46
511.30	28308.78
511.47	28079.41
511.64	28463.25
511.82	28531.13
511.99	28451.55
512.17	28346.23
512.34	28182.39
512.51	28957.11
512.69	28954.77
512.86	29060.09
513.04	29106.90
513.21	29076.48
513.38	29305.85
513.56	29649.91
513.73	29165.42
513.90	29720.12
514.08	29034.35
514.25	29397.13
514.43	29694.38
514.60	29928.43
514.77	29670.97
514.95	29757.57
515.12	29556.28
515.29	29523.52
515.47	30169.51
515.64	30054.82
515.81	29947.15
515.99	30309.94
516.16	30597.82
516.33	30284.19
516.51	30717.19
516.68	30862.30
516.85	30508.88
517.03	30703.15
517.20	30785.07
517.37	31058.91
517.54	31122.10
517.72	30745.28
517.89	31000.40
518.06	31108.06
518.24	31143.17
518.41	30995.71
518.58	31157.21
518.75	31152.53
518.93	31295.30
519.10	31571.49
519.27	31763.41
519.45	31693.19
519.62	31924.91
519.79	31585.53
519.96	31522.34
520.14	31903.84
520.31	31861.71
520.48	32016.19
520.65	31969.38
520.83	32673.88
521.00	32409.40
521.17	32362.59
521.34	32259.60
521.52	32617.71
521.69	32711.33
521.86	32704.31
522.03	32697.28
522.20	32575.58
522.38	33511.79
522.55	33081.13
522.72	32868.14
522.89	33202.84
523.07	33244.97
523.24	33230.93
523.41	33254.33
523.58	32905.59
523.75	33436.89
523.92	33495.41
524.10	33518.81
524.27	34085.22
524.44	33982.24
524.61	33743.50
524.78	33708.40
524.96	33860.53
525.13	33942.45
525.30	33968.19
525.47	34330.98
525.64	34204.59
525.81	34103.95
525.98	34558.01
526.16	34326.30
526.33	33926.07
526.50	34199.91
526.67	34471.41
526.84	34342.68
527.01	34274.80
527.18	34513.54
527.36	34834.19
527.53	34705.46
527.70	34810.79
527.87	35002.71
528.04	35063.57
528.21	34558.01
528.38	35196.98
528.55	34801.43
528.72	34742.91
528.89	35196.98
529.07	34918.45
529.24	35255.49
529.41	35412.31
529.58	35372.52
529.75	35587.85
529.92	35131.44
530.09	35648.70
530.26	35482.52
530.43	35330.39
530.60	35370.18
530.77	35819.56
530.94	35702.53
531.11	35611.25
531.28	36004.46
531.46	35784.45
531.63	35969.35
531.80	35747.00
531.97	36032.55
532.14	36034.89
532.31	36027.87
532.48	36685.56
532.65	36594.28
532.82	36091.06
532.99	36561.51
533.16	36100.42
533.33	36926.63
533.50	36486.61
533.67	36563.85
533.84	36439.80
534.01	36823.65
534.18	36573.21
534.35	37230.90
534.52	37123.24
534.69	37095.15
534.86	37057.70
535.03	37027.28
535.20	37266.01
535.37	36893.86
535.54	37427.51
535.71	37336.23
535.88	36966.42
536.05	37539.85
536.22	37174.73
536.38	37773.91
536.55	37340.91
536.72	37148.98
536.89	37593.68
537.06	37797.31
537.23	37673.26
537.40	37446.23
537.57	37827.74
537.74	37188.77
537.91	37956.47
538.08	37567.94
538.25	37205.16
538.42	37919.02
538.59	38375.42
538.75	38263.08
538.92	37928.38
539.09	38464.36
539.26	38319.25
539.43	38012.64
539.60	38260.74
539.77	37949.45
539.94	38815.44
540.11	38684.37
540.28	38373.08
540.44	38471.39
540.61	38651.61
540.78	38244.35
540.95	38602.46
541.12	38478.41
541.29	38515.86
541.46	38679.69
541.62	38642.24
541.79	39051.84
541.96	38639.90
542.13	38447.98
542.30	39054.18
542.47	38852.89
542.63	38974.60
542.80	39323.34
542.97	39459.09
543.14	39641.65
543.31	39339.72
543.48	39407.60
543.64	39828.90
543.81	39428.66
543.98	39562.08
544.15	39393.56
544.32	40294.66
544.48	40065.29
544.65	40076.99
544.82	39875.71
544.99	39695.49
545.16	39798.47
545.32	40091.04
545.49	40357.86
545.66	40168.27
545.83	40212.74
546.00	40088.70
546.16	40442.12
546.33	39842.94
546.50	39693.15
546.67	40517.01
546.83	40325.09
547.00	40524.04
547.17	40133.17
547.34	40388.28
547.50	40744.05
547.67	40917.25
547.84	40308.71
548.00	40397.65
548.17	41354.93
548.34	40669.15
548.51	40432.75
548.67	40809.58
548.84	40882.14
549.01	40856.39
549.18	40704.26
549.34	40678.51
549.51	41324.50
549.68	41153.64
549.84	40861.07
550.01	40942.99
550.18	41268.33
550.34	41102.15
550.51	41404.08
550.68	40900.86
550.84	40849.37
551.01	41228.54
551.18	41619.41
551.34	41193.43
551.51	41329.18
551.68	41387.69
551.84	41275.35
552.01	41387.69
552.18	41556.21
552.34	41219.17
552.51	41408.76
552.68	41570.25
552.84	41652.17
553.01	41759.84
553.18	41844.10
553.34	41717.71
553.51	41532.81
553.67	41970.49
553.84	42029.00
554.01	42366.04
554.17	41471.95
554.34	42373.06
554.51	42164.75
554.67	42658.60
554.84	42223.26
555.00	42164.75
555.17	41769.20
555.33	42553.28
555.50	42281.78
555.67	42150.71
555.83	42202.20
556.00	42267.73
556.16	43058.84
556.33	42497.11
556.50	42384.76
556.66	42415.19
556.83	42183.48
556.99	42752.23
557.16	42836.48
557.32	42628.18
557.49	42906.70
557.65	42447.96
557.82	42696.05
557.98	42295.82
558.15	42541.58
558.32	42703.07
558.48	42738.18
558.65	42918.40
558.81	42756.91
558.98	43033.09
559.14	43091.60
559.31	43129.05
559.47	42667.97
559.64	43068.20
559.80	42646.90
559.97	43129.05
560.13	42958.19
560.30	43093.94
560.46	42855.21
560.63	43089.26
560.79	43285.87
560.96	43255.44
561.12	43487.15
561.29	43353.74
561.45	43021.39
561.61	43250.76
561.78	43297.57
561.94	43091.60
562.11	43328.00
562.27	43653.33
562.44	43386.51
562.60	43477.79
562.77	43428.64
562.93	43524.60
563.10	43367.79
563.26	43512.90
563.42	43442.68
563.59	43592.48
563.75	43433.32
563.92	43665.03
564.08	43456.73
564.24	43789.08
564.41	43388.85
564.57	43913.13
564.74	43901.43
564.90	43522.26
565.07	43491.83
565.23	43505.88
565.39	43423.96
565.56	43732.91
565.72	43475.45
565.88	43784.40
566.05	43861.64
566.21	43903.77
566.38	43672.06
566.54	43601.84
566.70	43875.68
566.87	44013.77
567.03	43959.94
567.19	44126.12
567.36	43718.87
567.52	43990.37
567.68	44142.50
567.85	43887.39
568.01	44058.24
568.17	43800.79
568.34	44336.77
568.50	44062.93
568.66	44009.09
568.83	44119.10
568.99	43885.04
569.15	43894.41
569.32	44039.52
569.48	43990.37
569.64	44339.11
569.81	44112.08
569.97	44048.88
570.13	44081.65
570.30	44016.11
570.46	44271.23
570.62	43887.39
570.78	44074.63
570.95	44112.08
571.11	44161.23
571.27	43957.60
571.43	44053.56
571.60	44381.24
571.76	44161.23
571.92	44154.21
572.09	44191.65
572.25	44165.91
572.41	44516.99
572.57	44128.46
572.74	44933.60
572.90	44498.26
573.06	44273.57
573.22	44603.59
573.38	44311.02
573.55	44470.18
573.71	44617.63
573.87	44629.34
574.03	44442.09
574.20	44849.35
574.36	44664.44
574.52	44673.81
574.68	44526.35
574.84	44563.80
575.01	44758.06
575.17	44835.30
575.33	44493.58
575.49	44657.42
575.65	44376.56
575.82	44830.62
575.98	44442.09
576.14	44732.32
576.30	44865.73
576.46	44678.49
576.62	44278.25
576.79	44535.71
576.95	44144.84
577.11	44402.30
577.27	44449.11
577.43	44299.32
577.59	44172.93
577.75	44498.26
577.92	44439.75
578.08	44741.68
578.24	44802.53
578.40	44692.53
578.56	44797.85
578.72	44680.83
578.88	45130.21
579.04	44177.61
579.21	44671.46
579.37	44634.02
579.53	45090.42
579.69	44804.88
579.85	44545.08
580.01	44676.15
580.17	44641.04
580.33	44971.05
580.49	44638.70
580.65	44926.58
580.82	44460.82
580.98	44175.27
581.14	44636.36
581.30	44903.18
581.46	44659.76
581.62	44879.77
581.78	44788.49
581.94	44519.33
582.10	44608.27
582.26	44987.44
582.42	44580.18
582.58	44790.83
582.74	44825.94
582.90	44807.22
583.06	44893.82
583.22	44982.76
583.38	44863.39
583.54	44704.23
583.70	45038.93
583.86	44959.35
584.02	45027.23
584.18	45373.63
584.34	44917.22
584.50	45347.88
584.66	45041.27
584.82	45024.89
584.98	45221.49
585.14	44938.29
585.30	44556.78
585.46	44619.97
585.62	44568.48
585.78	44865.73
585.94	44774.45
586.10	45092.76
586.26	44715.93
586.42	45010.84
586.58	45010.84
586.74	44751.04
586.90	44641.04
587.06	44566.14
587.22	45045.95
587.38	44823.60
587.54	45095.10
587.70	45071.70
587.86	44875.09
588.02	44893.82
588.18	45165.32
588.34	45455.54
588.49	44800.19
588.65	44889.13
588.81	44809.56
588.97	44964.03
589.13	45064.67
589.29	45277.66
589.45	45464.91
589.61	45214.47
589.77	44783.81
589.93	45375.97
590.08	45359.58
590.24	45392.35
590.40	45380.65
590.56	45088.08
590.72	45345.54
590.88	44898.50
591.04	45301.07
591.20	45294.05
591.35	45474.27
591.51	45560.87
591.67	45689.60
591.83	46075.79
591.99	45504.70
592.15	45240.21
592.31	45191.06
592.46	45111.49
592.62	45287.03
592.78	45441.50
592.94	45387.67
593.10	45528.10
593.26	45780.88
593.41	45682.58
593.57	45607.68
593.73	45654.49
593.89	46059.40
594.05	45682.58
594.20	45727.05
594.36	45797.26
594.52	45815.99
594.68	45415.76
594.84	45893.22
594.99	45474.27
595.15	45813.65
595.31	45577.25
595.47	45612.36
595.62	45785.56
595.78	45387.67
595.94	45544.48
596.10	45390.01
596.25	45769.18
596.41	45478.95
596.57	45654.49
596.73	46071.10
596.88	45567.89
597.04	45563.21
597.20	45640.45
597.36	45736.41
597.51	45722.37
597.67	45797.26
597.83	45624.06
597.99	45738.75
598.14	45563.21
598.30	45858.12
598.46	45659.17
598.61	45907.27
598.77	45787.90
598.93	46047.70
599.09	45329.16
599.24	46209.20
599.40	45841.73
599.56	45738.75
599.71	45701.30
599.87	46167.07
600.03	46248.99
600.18	46066.42
600.34	45441.50
600.50	46033.66
600.65	45710.66
600.81	46265.37
600.97	45851.09
601.12	46146.00
601.28	45757.47
601.44	45455.54
601.59	45794.92
601.75	45748.11
601.91	46227.92
602.06	45331.50
602.22	45626.40
602.37	45986.85
602.53	45715.34
602.69	45677.90
602.84	46014.93
603.00	45757.47
603.16	45949.40
603.31	45874.50
603.47	45713.00
603.62	46167.07
603.78	45801.94
603.94	46050.04
604.09	46298.14
604.25	45673.21
604.40	46014.93
604.56	45734.07
604.71	46176.43
604.87	45532.78
605.03	45406.39
605.18	45909.61
605.34	46005.57
605.49	45851.09
605.65	45902.59
605.80	45682.58
605.96	45647.47
606.12	45776.20
606.27	45933.01
606.43	45684.92
606.58	45734.07
606.74	45801.94
606.89	45649.81
607.05	46003.23
607.20	45717.68
607.36	45354.90
607.51	45308.09
607.67	45247.24
607.82	45600.66
607.98	45902.59
608.13	45471.93
608.29	45151.27
608.44	46031.32
608.60	45516.40
608.75	45401.71
608.91	45291.71
609.06	45373.63
609.22	45563.21
609.37	45549.17
609.53	45794.92
609.68	45546.82
609.84	44949.99
609.99	45319.79
610.15	45837.05
610.30	45586.61
610.46	45144.25
610.61	45773.86
610.76	45350.22
610.92	45214.47
611.07	45308.09
611.23	44914.88
611.38	45354.90
611.54	45523.42
611.69	45104.46
611.84	45240.21
612.00	45074.04
612.15	44938.29
612.31	45134.89
612.46	44755.72
612.62	45406.39
612.77	45282.34
612.92	45666.19
613.08	45284.68
613.23	45481.29
613.39	44975.73
613.54	45031.91
613.69	45387.67
613.85	45310.43
614.00	45322.13
614.15	45031.91
614.31	44921.90
614.46	44552.10
614.62	44781.47
614.77	45050.63
614.92	44779.13
615.08	45048.29
615.23	44966.37
615.38	45324.47
615.54	45158.30
615.69	45031.91
615.84	44870.41
616.00	45027.23
616.15	45067.02
616.30	44744.02
616.46	44849.35
616.61	44811.90
616.76	44921.90
616.92	44779.13
617.07	44748.70
617.22	44844.66
617.37	44631.68
617.53	44704.23
617.68	44701.89
617.83	44332.09
617.99	45350.22
618.14	45120.85
618.29	44477.20
618.45	44292.30
618.60	44767.43
618.75	44701.89
618.90	44863.39
619.06	44568.48
619.21	44718.28
619.36	44566.14
619.51	44404.64
619.67	44341.45
619.82	44685.51
619.97	44404.64
620.12	44495.92
620.28	44161.23
620.43	44376.56
620.58	44690.19
620.73	44163.57
620.89	44378.90
621.04	44577.84
621.19	44261.87
621.34	44299.32
621.49	44107.40
621.65	44301.66
621.80	44435.07
621.95	44325.07
622.10	44381.24
622.25	43845.26
622.41	44011.43
622.56	44163.57
622.71	44170.59
622.86	44147.18
623.01	44446.77
623.16	44058.24
623.32	44034.84
623.47	43875.68
623.62	44184.63
623.77	44011.43
623.92	44299.32
624.07	44079.31
624.23	43896.75
624.38	44278.25
624.53	43908.45
624.68	43723.55
624.83	43461.41
624.98	44081.65
625.13	43611.20
625.29	43702.48
625.44	43814.83
625.59	44098.03
625.74	43723.55
625.89	43302.25
626.04	43847.60
626.19	43473.11
626.34	43454.39
626.49	43250.76
626.65	43061.18
626.80	43335.02
626.95	43711.84
627.10	42885.64
627.25	43201.61
627.40	43622.90
627.55	43552.69
627.70	43103.31
627.85	43372.47
628.00	43868.66
628.15	43346.72
628.30	42469.02
628.45	42754.57
628.60	43171.18
628.76	42770.95
628.91	43138.41
629.06	42628.18
629.21	43054.15
629.36	42696.05
629.51	42815.42
629.66	43089.26
629.81	42799.04
629.96	43234.38
630.11	43199.27
630.26	43068.20
630.41	42887.98
630.56	43107.99
630.71	42546.26
630.86	42887.98
631.01	42660.94
631.16	42646.90
631.31	42508.81
631.46	43065.86
631.61	42768.61
631.76	42810.74
631.91	43026.07
632.06	42883.30
632.21	43086.92
632.36	42969.90
632.51	42129.64
632.66	42810.74
632.81	42588.39
632.96	42644.56
633.10	42057.09
633.25	42649.24
633.40	42436.25
633.55	42698.39
633.70	42541.58
633.85	42146.03
634.00	42525.19
634.15	41979.85
634.30	42323.91
634.45	42307.52
634.60	42218.58
634.75	42841.17
634.90	42417.53
635.05	42061.77
635.19	42075.81
635.34	42092.19
635.49	42050.06
635.64	42029.00
635.79	42211.56
635.94	42169.43
636.09	42335.61
636.24	41977.51
636.39	41958.78
636.53	42349.65
636.68	41834.74
636.83	41858.14
636.98	41804.31
637.13	41755.16
637.28	41794.95
637.43	41689.62
637.57	41940.06
637.72	41553.87
637.87	41785.58
638.02	41736.43
638.17	41631.11
638.32	41528.13
638.46	41394.71
638.61	41441.53
638.76	41294.07
638.91	41383.01
639.06	41230.88
639.20	41069.38
639.35	41268.33
639.50	41258.96
639.65	41303.43
639.80	41713.03
639.94	41294.07
640.09	41277.69
640.24	41352.58
640.39	41127.89
640.54	40739.36
640.68	40985.12
640.83	41500.04
640.98	41315.14
641.13	40594.25
641.27	41427.48
641.42	41223.86
641.57	40610.64
641.72	41038.95
641.86	40678.51
642.01	40737.02
642.16	40428.07
642.31	40706.60
642.45	40933.63
642.60	40605.95
642.75	40790.86
642.90	41205.13
643.04	41027.25
643.19	41130.23
643.34	40720.64
643.48	40439.78
643.63	40535.74
643.78	40821.28
643.93	40957.03
644.07	40797.88
644.22	40643.40
644.37	40559.14
644.51	40680.85
644.66	40437.44
644.81	40137.85
644.95	40772.13
645.10	40554.46
645.25	40346.15
645.39	40084.01
645.54	40418.71
645.69	40259.55
645.83	40297.00
645.98	40034.86
646.13	39786.77
646.27	39915.50
646.42	39985.71
646.57	40322.75
646.71	40666.81
646.86	40538.08
647.00	40449.14
647.15	40219.77
647.30	40339.13
647.44	40151.89
647.59	40067.63
647.74	40226.79
647.88	40570.85
648.03	40322.75
648.17	40552.12
648.32	40521.69
648.47	40339.13
648.61	39714.21
648.76	39966.99
648.90	39683.78
649.05	39803.15
649.20	39667.40
649.34	40210.40
649.49	40018.48
649.63	39915.50
649.78	39669.74
649.92	40041.88
650.07	40655.11
650.21	39936.56
650.36	40147.21
650.51	39641.65
650.65	39957.63
650.80	39840.60
650.94	39587.82
651.09	39573.78
651.23	39438.03
651.38	39643.99
651.52	39402.92
651.67	39470.79
651.81	39318.66
651.96	39225.04
652.10	39400.58
652.25	39257.81
652.39	39381.85
652.54	39454.41
652.68	39196.95
652.83	39257.81
652.97	39763.36
653.12	39178.23
653.26	39213.34
653.41	39077.58
653.55	39241.42
653.70	39122.05
653.84	39447.39
653.99	39241.42
654.13	39370.15
654.27	38979.28
654.42	39129.08
654.56	38562.67
654.71	39161.84
654.85	38572.03
655.00	38883.32
655.14	38930.13
655.29	39185.25
655.43	39143.12
655.57	38990.98
655.72	38897.36
655.86	38546.28
656.01	38419.89
656.15	38370.74
656.30	39227.38
656.44	38658.63
656.58	38658.63
656.73	38937.15
656.87	38759.27
657.01	38363.72
657.16	38801.40
657.30	38527.56
657.45	38139.03
657.59	38443.30
657.73	37806.67
657.88	38363.72
658.02	38471.39
658.16	38539.26
658.31	38417.55
658.45	38363.72
658.60	38220.95
658.74	38602.46
658.88	38256.06
659.03	38335.63
659.17	37935.40
659.31	38251.38
659.46	38223.29
659.60	38148.39
659.74	37778.59
659.89	37504.74
660.03	37605.39
660.17	38162.43
660.32	37811.35
660.46	37837.10
660.60	37174.73
660.74	37837.10
660.89	37544.53
661.03	37188.77
661.17	37179.41
661.32	37258.99
661.46	37298.78
661.60	37434.53
661.74	37160.69
661.89	37240.26
662.03	37322.18
662.17	36959.40
662.31	36666.83
662.46	37326.86
662.60	36538.10
662.74	36718.32
662.88	36584.91
663.03	36556.83
663.17	36409.37
663.31	36231.49
663.45	36753.43
663.60	36856.42
663.74	36833.01
663.88	36481.93
664.02	36559.17
664.17	36833.01
664.31	35931.90
664.45	36292.35
664.59	36266.60
664.73	36385.97
664.88	36023.19
665.02	35943.61
665.16	36231.49
665.30	35587.85
665.44	36636.41
665.59	35342.09
665.73	35672.10
665.87	35615.93
666.01	35660.40
666.15	35768.07
666.29	35697.85
666.44	36341.50
666.58	34902.07
666.72	35512.95
666.86	35323.36
667.00	35409.96
667.14	35424.01
667.28	35463.80
667.43	35295.28
667.57	35578.48
667.71	35246.13
667.85	35108.04
667.99	35196.98
668.13	34953.56
668.27	34965.26
668.41	35161.87
668.56	34401.19
668.70	34724.19
668.84	34040.75
668.98	34225.65
669.12	34712.49
669.26	34529.92
669.40	34586.10
669.54	34419.92
669.68	34197.57
669.82	34092.24
669.96	34136.71
670.10	33813.72
670.25	33961.17
670.39	33787.97
670.53	33890.96
670.67	33928.41
670.81	34029.05
670.95	33926.07
671.09	33785.63
671.23	33839.47
671.37	33516.47
671.51	34113.31
671.65	33532.86
671.79	33322.21
671.93	33928.41
672.07	33521.15
672.21	33439.23
672.35	32994.53
672.49	33284.76
672.63	33141.99
672.77	32786.22
672.91	33048.36
673.05	33113.90
673.19	32472.59
673.33	32629.41
673.47	32669.20
673.61	32601.32
673.75	32170.66
673.89	32238.54
674.03	32191.73
674.17	31775.11
674.31	32198.75
674.45	31611.28
674.59	32053.64
674.73	32044.27
674.87	31489.57
675.01	31749.37
675.15	31800.86
675.29	31089.34
675.43	31267.22
675.56	31159.55
675.70	31473.18
675.84	31470.84
675.98	30249.08
676.12	31409.99
676.26	31463.82
676.40	31276.58
676.54	30892.73
676.68	30799.11
676.82	30171.85
676.96	30431.65
677.10	30993.37
677.23	30527.61
677.37	30728.89
677.51	30099.29
677.65	30127.38
677.79	29876.94
677.93	29872.26
678.07	29853.53
678.21	29689.70
678.34	29724.80
678.48	29434.58
678.62	29495.43
678.76	29343.30
678.90	29453.30
679.04	29212.23
679.18	29144.35
679.31	28692.63
679.45	28776.89
679.59	28837.74
679.73	28952.43
679.87	28978.17
680.00	28833.06
680.14	28404.74
680.28	28531.13
680.42	28133.24
680.56	27990.47
680.70	28299.42
680.83	27819.61
680.97	28009.19
681.11	27861.74
681.25	27377.25
681.39	27480.23
681.52	27461.51
681.66	27339.80
681.80	26668.06
681.94	26733.60
682.07	27117.45
682.21	26874.03
682.35	26785.09
682.49	27129.15
682.62	26888.07
682.76	26712.53
682.90	26672.74
683.04	26300.60
683.17	26941.91
683.31	26246.77
683.45	26579.12
683.59	25816.11
683.72	25792.70
683.86	26204.64
684.00	25872.28
684.13	25628.87
684.27	25476.73
684.41	25617.16
684.55	25591.42
684.68	25296.51
684.82	25209.91
684.96	25322.26
685.09	25460.35
685.23	25355.02
685.37	25729.51
685.50	25406.52
685.64	25282.47
685.78	24917.34
685.91	24463.28
686.05	24360.30
686.19	24212.84
686.32	24287.74
686.46	23784.52
686.60	24086.45
686.73	24233.91
686.87	24173.05
687.01	24278.38
687.14	23964.75
687.28	23810.27
687.42	23913.25
687.55	23431.10
687.69	23606.64
687.82	23330.46
687.96	23641.75
688.10	23386.63
688.23	23278.97
688.37	23194.71
688.50	23290.67
688.64	23023.85
688.78	22759.37
688.91	22609.58
689.05	22663.41
689.18	22675.11
689.32	22361.48
689.46	22579.15
689.59	22167.21
689.73	22572.13
689.86	22104.02
690.00	22089.98
690.13	22384.88
690.27	21930.82
690.41	22192.96
690.54	21947.20
690.68	21165.46
690.81	21530.59
690.95	21329.30
691.08	21326.96
691.22	21193.55
691.35	21071.84
691.49	21102.27
691.62	21142.06
691.76	20613.10
691.89	20823.75
692.03	20484.37
692.16	20285.42
692.30	20554.58
692.43	20517.14
692.57	20126.27
692.70	20283.08
692.84	19964.77
692.97	19978.81
693.11	20013.92
693.24	19594.96
693.38	19990.52
693.51	19620.71
693.65	19604.33
693.78	19426.45
693.92	19255.59
694.05	19522.41
694.19	19236.86
694.32	19477.94
694.45	19679.22
694.59	19592.62
694.72	19353.89
694.86	19077.71
694.99	18956.00
695.13	18548.75
695.26	18473.85
695.39	18281.92
695.53	18349.80
695.66	18705.56
695.80	18523.00
695.93	18342.78
696.07	17998.72
696.20	18017.44
696.33	17844.24
696.47	17771.69
696.60	17701.47
696.73	17914.46
696.87	17598.49
697.00	17795.09
697.14	17778.71
697.27	17549.34
697.40	17451.03
697.54	17453.37
697.67	17488.48
697.80	17355.07
697.94	17118.68
698.07	16669.30
698.21	16816.75
698.34	17067.19
698.47	16996.97
698.61	16325.24
698.74	16446.94
698.87	16294.81
699.01	16217.57
699.14	16348.64
699.27	16397.79
699.40	16549.93
699.54	16229.27
699.67	16058.42
699.80	15943.73
699.94	15950.75
700.07	15822.02
700.20	15864.15
700.34	15761.17
700.47	15585.63
700.60	15688.61
700.73	15421.79
700.87	15442.85
701.00	14918.57
701.13	15101.14
701.26	14970.07
701.40	15096.46
701.53	14923.26
701.66	14881.13
701.79	15084.75
701.93	14523.02
702.06	14714.95
702.19	14862.40
702.32	14459.83
702.46	14799.21
702.59	14565.15
702.72	14356.85
702.85	14520.68
702.99	14633.03
703.12	14216.41
703.25	14242.16
703.38	14246.84
703.51	14185.99
703.65	13802.14
703.78	13881.72
703.91	13795.12
704.04	13568.09
704.17	13624.26
704.31	13628.94
704.44	13614.90
704.57	13345.73
704.70	13373.82
704.83	13415.95
704.96	13202.96
705.10	13142.11
705.23	12915.08
>>>>>End Processed Spectral Data<<<<<
