SpectraSuite Data File
++++++++++++++++++++++++++++++++++++
Date: Fri Oct 25 10:47:21 EDT 2013
User: price-jones
Dark Spectrum Present: No
Reference Spectrum Present: No
Number of Sampled Component Spectra: 1
Spectrometers: USB2+H05261
Integration Time (usec): 100000 (USB2+H05261)
Spectra Averaged: 1 (USB2+H05261)
Boxcar Smoothing: 0 (USB2+H05261)
Correct for Electrical Dark: No (USB2+H05261)
Strobe/Lamp Enabled: No (USB2+H05261)
Correct for Detector Non-linearity: No (USB2+H05261)
Correct for Stray Light: No (USB2+H05261)
Number of Pixels in Processed Spectrum: 2048
>>>>>Begin Processed Spectral Data<<<<<
365.73	175.54
365.92	175.54
366.12	175.54
366.32	65.54
366.52	51.49
366.72	128.73
366.91	60.85
367.11	77.24
367.31	0.00
367.51	58.51
367.70	21.06
367.90	0.00
368.10	0.00
368.30	163.84
368.49	9.36
368.69	32.77
368.89	53.83
369.09	0.00
369.28	79.58
369.48	77.24
369.68	100.64
369.87	154.48
370.07	98.30
370.27	131.07
370.47	159.16
370.66	390.87
370.86	348.74
371.06	367.46
371.25	514.92
371.45	472.79
371.65	454.06
371.84	404.91
372.04	489.17
372.24	503.22
372.44	484.49
372.63	484.49
372.83	526.62
373.03	512.58
373.22	418.96
373.42	519.60
373.62	486.83
373.81	484.49
374.01	531.30
374.21	615.56
374.40	528.96
374.60	653.01
374.79	535.98
374.99	528.96
375.19	514.92
375.38	538.32
375.58	528.96
375.78	664.71
375.97	571.09
376.17	620.24
376.37	519.60
376.56	547.69
376.76	482.15
376.95	606.20
377.15	760.67
377.35	662.37
377.54	566.41
377.74	566.41
377.93	566.41
378.13	601.52
378.33	622.58
378.52	540.66
378.72	608.54
378.91	575.77
379.11	641.31
379.31	601.52
379.50	664.71
379.70	653.01
379.89	716.20
380.09	627.26
380.28	664.71
380.48	599.18
380.68	667.05
380.87	643.65
381.07	643.65
381.26	660.03
381.46	603.86
381.65	660.03
381.85	667.05
382.04	674.07
382.24	690.46
382.43	613.22
382.63	683.44
382.83	610.88
383.02	718.54
383.22	692.80
383.41	695.14
383.61	716.20
383.80	645.99
384.00	720.88
384.19	755.99
384.39	753.65
384.58	734.93
384.78	737.27
384.97	753.65
385.17	704.50
385.36	746.63
385.56	847.27
385.75	739.61
385.95	727.91
386.14	849.61
386.34	732.59
386.53	788.76
386.72	784.08
386.92	819.19
387.11	744.29
387.31	877.70
387.50	819.19
387.70	767.70
387.89	833.23
388.09	814.51
388.28	758.33
388.48	898.77
388.67	856.64
388.86	751.31
389.06	807.48
389.25	882.38
389.45	868.34
389.64	851.96
389.84	931.53
390.03	908.13
390.22	847.27
390.42	809.83
390.61	877.70
390.81	961.96
391.00	954.94
391.19	985.37
391.39	964.30
391.58	861.32
391.78	877.70
391.97	961.96
392.16	875.36
392.36	987.71
392.55	919.83
392.75	1015.79
392.94	999.41
393.13	919.83
393.33	931.53
393.52	1048.56
393.71	990.05
393.91	1011.11
394.10	1020.47
394.29	1015.79
394.49	1060.26
394.68	1074.31
394.88	1104.73
395.07	1132.82
395.26	1132.82
395.46	1067.28
395.65	1196.01
395.84	1172.61
396.04	1188.99
396.23	1170.27
396.42	1137.50
396.62	1146.86
396.81	1146.86
397.00	1093.03
397.19	1212.40
397.39	1149.20
397.58	1313.04
397.77	1188.99
397.97	1188.99
398.16	1289.64
398.35	1221.76
398.55	1179.63
398.74	1231.12
398.93	1303.68
399.12	1303.68
399.32	1310.70
399.51	1371.55
399.70	1350.49
399.90	1277.93
400.09	1357.51
400.28	1352.83
400.47	1301.34
400.67	1439.43
400.86	1439.43
401.05	1497.94
401.24	1437.09
401.44	1528.37
401.63	1507.30
401.82	1563.48
402.01	1451.13
402.21	1514.33
402.40	1537.73
402.59	1507.30
402.78	1519.01
402.97	1596.25
403.17	1509.65
403.36	1563.48
403.55	1584.54
403.74	1732.00
403.93	1619.65
404.13	1610.29
404.32	1636.03
404.51	1654.76
404.70	1729.66
404.89	1633.69
405.09	1661.78
405.28	1685.19
405.47	1645.40
405.66	1788.17
405.85	1785.83
406.05	1729.66
406.24	1755.40
406.43	1802.21
406.62	1750.72
406.81	1741.36
407.00	1806.89
407.20	1849.02
407.39	1806.89
407.58	1937.96
407.77	1907.54
407.96	1891.15
408.15	1900.52
408.34	1888.81
408.54	1851.36
408.73	1891.15
408.92	1998.82
409.11	1984.77
409.30	2003.50
409.49	2090.10
409.68	2003.50
409.87	1975.41
410.07	2066.69
410.26	2073.71
410.45	2071.37
410.64	2099.46
410.83	2118.18
411.02	2104.14
411.21	2108.82
411.40	2298.41
411.59	2146.27
411.78	2244.57
411.98	2244.57
412.17	2277.34
412.36	2317.13
412.55	2282.02
412.74	2443.52
412.93	2464.58
413.12	2356.92
413.31	2483.31
413.50	2480.97
413.69	2492.67
413.88	2553.52
414.07	2499.69
414.26	2523.10
414.45	2621.40
414.64	2567.57
414.83	2597.99
415.02	2605.02
415.22	2771.19
415.41	2832.05
415.60	2789.92
415.79	2818.00
415.98	2864.82
416.17	2834.39
416.36	2794.60
416.55	2834.39
416.74	2928.01
416.93	2843.75
417.12	2832.05
417.31	2963.12
417.50	2930.35
417.69	3016.95
417.88	2991.20
418.07	3096.53
418.26	3075.46
418.45	2937.37
418.64	3173.77
418.83	3145.68
419.02	3103.55
419.21	3281.43
419.39	3211.22
419.58	3103.55
419.77	3105.89
419.96	3152.70
420.15	3281.43
420.34	3197.17
420.53	3178.45
420.72	3396.12
420.91	3286.11
421.10	3342.28
421.29	3361.01
421.48	3307.18
421.67	3419.52
421.86	3288.45
422.05	3396.12
422.24	3304.84
422.43	3300.16
422.61	3290.79
422.80	3407.82
422.99	3396.12
423.18	3489.74
423.37	3445.27
423.56	3452.29
423.75	3492.08
423.94	3307.18
424.13	3199.51
424.32	3438.25
424.50	3522.51
424.69	3513.14
424.88	3592.72
425.07	3431.23
425.26	3377.39
425.45	3494.42
425.64	3508.46
425.83	3435.91
426.01	3536.55
426.20	3545.91
426.39	3466.33
426.58	3421.86
426.77	3433.57
426.96	3475.70
427.15	3588.04
427.33	3508.46
427.52	3625.49
427.71	3632.51
427.90	3630.17
428.09	3779.97
428.28	3716.77
428.46	3798.69
428.65	3641.87
428.84	3838.48
429.03	3810.39
429.22	3632.51
429.40	3707.41
429.59	3833.80
429.78	3674.64
429.97	3517.83
430.16	3634.85
430.34	3850.18
430.53	3899.33
430.72	3845.50
430.91	3751.88
431.10	3892.31
431.28	3904.01
431.47	4007.00
431.66	4109.98
431.85	4016.36
432.03	4187.22
432.22	4339.35
432.41	4072.53
432.60	4049.13
432.79	4128.70
432.97	4161.47
433.16	4231.69
433.35	4227.01
433.54	4163.81
433.72	4266.80
433.91	4283.18
434.10	4245.73
434.28	4182.54
434.47	4262.12
434.66	4404.89
434.85	4337.01
435.03	4369.78
435.22	4325.31
435.41	4615.54
435.59	4568.73
435.78	4531.28
435.97	4514.89
436.16	4554.68
436.34	4435.32
436.53	4489.15
436.72	4634.26
436.90	4554.68
437.09	4578.09
437.28	4533.62
437.46	4643.62
437.65	4606.17
437.84	4571.07
438.02	4528.94
438.21	4720.86
438.40	4594.47
438.58	4713.84
438.77	4788.74
438.96	4774.69
439.14	4894.06
439.33	5022.79
439.52	5074.28
439.70	4978.32
439.89	5006.41
440.08	5158.54
440.26	5095.35
440.45	4954.91
440.63	5174.92
440.82	5226.42
441.01	5146.84
441.19	5479.19
441.38	5413.66
441.57	5537.71
441.75	5465.15
441.94	5416.00
442.12	5390.25
442.31	5593.88
442.50	5523.66
442.68	5664.10
442.87	5521.32
443.05	5680.48
443.24	5692.18
443.43	5778.78
443.61	5949.64
443.80	5865.38
443.98	5682.82
444.17	5439.40
444.35	5802.19
444.54	5746.02
444.73	5659.42
444.91	5837.30
445.10	5760.06
445.28	5741.33
445.47	5743.67
445.65	5729.63
445.84	5870.06
446.02	6033.90
446.21	5893.47
446.39	5849.00
446.58	5942.62
446.77	5975.39
446.95	5778.78
447.14	5923.90
447.32	5937.94
447.51	5795.17
447.69	5680.48
447.88	5886.45
448.06	5991.77
448.25	5916.87
448.43	6139.23
448.62	5914.53
448.80	5849.00
448.99	6059.65
449.17	5846.66
449.36	6069.01
449.54	6085.39
449.73	6342.85
449.91	6256.25
450.10	6216.46
450.28	6408.39
450.46	6286.68
450.65	6111.14
450.83	6221.14
451.02	6214.12
451.20	6291.36
451.39	6176.67
451.57	6331.15
451.76	6438.81
451.94	6417.75
452.13	6382.64
452.31	6502.01
452.49	6356.90
452.68	6349.87
452.86	6408.39
453.05	6436.47
453.23	6703.29
453.42	6396.68
453.60	6410.73
453.78	6703.29
453.97	6347.53
454.15	6712.66
454.34	6710.32
454.52	6832.02
454.70	6815.64
454.89	6621.38
455.07	6715.00
455.26	6733.72
455.44	6738.40
455.62	6771.17
455.81	6846.07
455.99	6827.34
456.17	6817.98
456.36	6946.71
456.54	6986.50
456.73	7023.95
456.91	7140.97
457.09	7164.38
457.28	7386.73
457.46	6998.20
457.64	7412.48
457.83	7316.51
458.01	7042.67
458.19	7250.98
458.38	7269.70
458.56	7279.07
458.74	7283.75
458.93	7288.43
459.11	7396.09
459.29	7288.43
459.48	7433.54
459.66	7487.37
459.84	7501.42
460.03	7599.72
460.21	7716.75
460.39	7634.83
460.57	7522.48
460.76	7543.55
460.94	7590.36
461.12	7639.51
461.31	7648.87
461.49	7728.45
461.67	7440.56
461.85	7845.48
462.04	7693.34
462.22	8105.28
462.40	7988.25
462.59	7868.88
462.77	7604.40
462.95	7939.10
463.13	7929.74
463.32	8189.53
463.50	7775.26
463.68	8023.36
463.86	7936.76
464.05	7941.44
464.23	8016.33
464.41	7850.16
464.59	7918.03
464.78	8114.64
464.96	8360.39
465.14	8168.47
465.32	8002.29
465.50	8252.73
465.69	8454.02
465.87	8226.98
466.05	8271.45
466.23	8194.22
466.41	8278.47
466.60	8280.82
466.78	8327.63
466.96	8196.56
467.14	8329.97
467.32	8243.37
467.51	8601.47
467.69	8372.10
467.87	8400.18
468.05	8369.76
468.23	8489.12
468.41	8442.31
468.60	8336.99
468.78	8688.07
468.96	8657.64
469.14	8760.63
469.32	8505.51
469.50	8503.17
469.69	8870.63
469.87	8727.86
470.05	8737.22
470.23	8896.38
470.41	8795.73
470.59	9027.45
470.77	8805.10
470.95	9022.77
471.14	9184.26
471.32	8861.27
471.50	9074.26
471.68	9303.63
471.86	9163.20
472.04	9383.21
472.22	9516.62
472.40	9027.45
472.58	9163.20
472.77	9364.48
472.95	9518.96
473.13	9736.63
473.31	9378.53
473.49	9453.42
473.67	9312.99
473.85	9476.83
474.03	9809.19
474.21	9682.80
474.39	9853.66
474.57	9895.78
474.75	9912.17
474.93	10101.75
475.12	10178.99
475.30	9928.55
475.48	9968.34
475.66	10031.54
475.84	10246.87
476.02	10078.35
476.20	10186.01
476.38	10368.57
476.56	10597.95
476.74	10602.63
476.92	10462.19
477.10	10492.62
477.28	10630.71
477.46	10579.22
477.64	10998.18
477.82	11082.44
478.00	11346.92
478.18	10913.92
478.36	11218.19
478.54	11468.62
478.72	11452.24
478.90	11438.20
479.08	11660.55
479.26	11714.38
479.44	11786.94
479.62	11978.86
479.80	11939.07
479.98	11962.48
480.16	12402.50
480.34	12233.98
480.52	12187.17
480.70	12098.23
480.88	12290.15
481.06	12465.69
481.24	12425.90
481.41	12552.29
481.59	12753.58
481.77	13048.49
481.95	13076.57
482.13	12971.25
482.31	13095.30
482.49	13561.06
482.67	13572.77
482.85	13479.15
483.03	13551.70
483.21	14001.08
483.39	13790.44
483.57	13783.41
483.74	13970.66
483.92	14223.44
484.10	14115.77
484.28	14281.95
484.46	14483.24
484.64	14733.67
484.82	14508.98
485.00	14663.46
485.18	14836.66
485.35	15143.27
485.53	14916.23
485.71	15000.49
485.89	15042.62
486.07	15152.63
486.25	15180.71
486.43	15602.01
486.61	15506.05
486.78	15866.49
486.96	15866.49
487.14	16098.20
487.32	15929.69
487.50	16287.79
487.68	16266.72
487.85	16833.13
488.03	17153.79
488.21	16917.39
488.39	16837.81
488.57	16992.29
488.75	17209.96
488.92	17355.07
489.10	17502.53
489.28	17572.74
489.46	17701.47
489.64	17607.85
489.81	18106.38
489.99	18111.07
490.17	18279.58
490.35	18508.96
490.53	18361.50
490.70	18541.72
490.88	18478.53
491.06	18822.59
491.24	18792.16
491.41	18953.66
491.59	19117.50
491.77	18932.59
491.95	19290.70
492.13	19503.68
492.30	19309.42
492.48	19585.60
492.66	19885.19
492.84	20203.50
493.01	20173.08
493.19	19866.47
493.37	20182.44
493.54	20458.62
493.72	20568.63
493.90	20695.02
494.08	20603.74
494.25	20982.90
494.43	20943.11
494.61	21219.30
494.79	21212.28
494.96	21130.36
495.14	21132.70
495.32	21694.43
495.49	21394.84
495.67	21986.99
495.85	22054.87
496.02	22071.25
496.20	22235.09
496.38	22459.78
496.55	22237.43
496.73	22427.01
496.91	22661.07
497.09	22499.57
497.26	22871.72
497.44	23019.17
497.62	22705.54
497.79	22672.77
497.97	23262.58
498.14	23405.36
498.32	23452.17
498.50	23222.80
498.67	23480.25
498.85	23637.07
499.03	23934.32
499.20	24002.19
499.38	24037.30
499.56	24072.41
499.73	24051.34
499.91	24573.28
500.08	24507.75
500.26	23985.81
500.44	24460.94
500.61	24613.07
500.79	24409.45
500.97	24540.52
501.14	25006.28
501.32	24489.03
501.49	24893.94
501.67	24793.29
501.84	25158.42
502.02	25188.85
502.20	25165.44
502.37	25504.82
502.55	25687.38
502.72	25675.68
502.90	25886.32
503.07	25525.88
503.25	25839.51
503.43	25846.54
503.60	25869.94
503.78	26001.01
503.95	25993.99
504.13	26092.29
504.30	26118.04
504.48	26120.38
504.65	26382.52
504.83	26632.96
505.01	26721.90
505.18	26771.05
505.36	26874.03
505.53	26604.87
505.71	27241.50
505.88	26749.98
506.06	27213.41
506.23	26969.99
506.41	26953.61
506.58	27192.34
506.76	27838.33
506.93	27606.62
507.11	27566.83
507.28	27522.36
507.46	27639.39
507.63	27864.08
507.81	28039.62
507.98	27859.40
508.16	28219.84
508.33	28046.64
508.50	28126.22
508.68	28126.22
508.85	28421.13
509.03	28458.57
509.20	28226.86
509.38	28910.30
509.55	28460.91
509.73	28837.74
509.90	29130.31
510.08	28786.25
510.25	28685.61
510.42	29104.56
510.60	29567.99
510.77	29495.43
510.95	29486.07
511.12	29413.51
511.30	29766.93
511.47	29923.75
511.64	29727.14
511.82	29926.09
511.99	29795.02
512.17	29930.77
512.34	29809.06
512.51	30064.18
512.69	30019.71
512.86	30260.79
513.04	30288.87
513.21	30066.52
513.38	30134.40
513.56	30064.18
513.73	30471.43
513.90	30623.57
514.08	30576.76
514.25	30593.14
514.43	30520.59
514.60	30944.22
514.77	30733.57
514.95	30948.90
515.12	31447.44
515.29	31122.10
515.47	31597.23
515.64	31480.21
515.81	31192.32
515.99	31477.86
516.16	31503.61
516.33	31449.78
516.51	31889.80
516.68	31264.88
516.85	31503.61
517.03	31756.39
517.20	31974.06
517.37	31814.90
517.54	32198.75
517.72	32163.64
517.89	31564.46
518.06	31882.78
518.24	31786.82
518.41	31803.20
518.58	32369.61
518.75	32084.06
518.93	32889.21
519.10	32301.73
519.27	32694.94
519.45	32425.78
519.62	32840.06
519.79	32526.42
519.96	33130.28
520.14	33373.70
520.31	32659.84
520.48	33177.09
520.65	32971.13
520.83	33251.99
521.00	33050.70
521.17	33411.15
521.34	33331.57
521.52	33432.21
521.69	33675.63
521.86	33670.95
522.03	33792.65
522.20	34209.27
522.38	33525.83
522.55	34103.95
522.72	33879.25
522.89	34036.07
523.07	34029.05
523.24	34000.96
523.41	34279.49
523.58	34010.32
523.75	34576.73
523.92	34506.52
524.10	34646.95
524.27	34330.98
524.44	34391.83
524.61	34967.60
524.78	34771.00
524.96	34878.66
525.13	34272.46
525.30	35101.01
525.47	35257.83
525.64	35468.48
525.81	35168.89
525.98	34944.20
526.16	34813.13
526.33	34850.58
526.50	35491.88
526.67	35496.56
526.84	35288.26
527.01	34972.28
527.18	35543.38
527.36	35700.19
527.53	35990.42
527.70	36360.22
527.87	35826.58
528.04	35826.58
528.21	36170.64
528.38	35587.85
528.55	36044.25
528.72	36004.46
528.89	36297.03
529.07	36128.51
529.24	36072.34
529.41	36119.15
529.58	35957.65
529.75	36032.55
529.92	36495.97
530.09	36680.88
530.26	36460.87
530.43	36360.22
530.60	36549.81
530.77	36397.67
530.94	36978.12
531.11	36510.02
531.28	36856.42
531.46	36851.73
531.63	37266.01
531.80	36708.96
531.97	36980.46
532.14	36952.38
532.31	36964.08
532.48	37139.62
532.65	37670.92
532.82	36900.89
532.99	37338.57
533.16	37354.95
533.33	37354.95
533.50	37539.85
533.67	37432.19
533.84	37357.29
534.01	37422.83
534.18	37280.05
534.35	37682.62
534.52	37809.01
534.69	37804.33
534.86	37689.65
535.03	38471.39
535.20	37954.13
535.37	38279.46
535.54	38129.67
535.71	38216.27
535.88	38178.82
536.05	38576.71
536.22	38132.01
536.38	38162.43
536.55	38359.04
536.72	38024.34
536.89	38457.34
537.06	38373.08
537.23	38831.83
537.40	38447.98
537.57	38761.61
537.74	38548.62
537.91	38770.97
538.08	38864.60
538.25	38682.03
538.42	38754.59
538.59	39253.12
538.75	38476.07
538.92	38382.45
539.09	39063.54
539.26	38789.70
539.43	39051.84
539.60	39288.23
539.77	39452.07
539.94	39161.84
540.11	39236.74
540.28	39100.99
540.44	39100.99
540.61	39386.54
540.78	39077.58
540.95	39318.66
541.12	39096.31
541.29	39103.33
541.46	39349.09
541.62	39452.07
541.79	39545.69
541.96	39185.25
542.13	39725.91
542.30	39833.58
542.47	39725.91
542.63	39676.76
542.80	40086.36
542.97	40378.92
543.14	40280.62
543.31	40526.38
543.48	40179.98
543.64	41277.69
543.81	40533.40
543.98	40264.24
544.15	39847.62
544.32	40399.99
544.48	40657.45
544.65	40545.10
544.82	40631.70
544.99	40254.87
545.16	40357.86
545.32	40367.22
545.49	40811.92
545.66	40912.56
545.83	40886.82
546.00	40842.35
546.16	40737.02
546.33	40704.26
546.50	40327.43
546.67	41020.23
546.83	40671.49
547.00	40985.12
547.17	40788.52
547.34	40711.28
547.50	41174.70
547.67	41486.00
547.84	41500.04
548.00	41251.94
548.17	41434.50
548.34	41099.81
548.51	41432.16
548.67	41757.50
548.84	41469.61
549.01	41696.64
549.18	41141.94
549.34	41486.00
549.51	41603.02
549.68	41411.10
549.84	41483.66
550.01	41708.35
550.18	41223.86
550.34	41565.57
550.51	41439.18
550.68	41656.85
550.84	41151.30
551.01	42054.75
551.18	41811.33
551.34	41422.80
551.51	41942.40
551.68	42047.72
551.84	41579.62
552.01	41832.39
552.18	42178.79
552.34	41556.21
552.51	42087.51
552.68	42108.58
552.84	41914.31
553.01	42525.19
553.18	42480.72
553.34	41935.38
553.51	41841.76
553.67	42157.73
553.84	42625.84
554.01	42351.99
554.17	42749.88
554.34	42979.26
554.51	42801.38
554.67	42658.60
554.84	42586.05
555.00	42436.25
555.17	42237.31
555.33	42864.57
555.50	42024.32
555.67	42618.81
555.83	42674.99
556.00	42738.18
556.16	42796.70
556.33	42873.93
556.50	42417.53
556.66	43480.13
556.83	42686.69
556.99	42632.86
557.16	42813.08
557.32	42916.06
557.49	42962.87
557.65	42721.80
557.82	42672.65
557.98	42464.34
558.15	43194.59
558.32	43030.75
558.48	43023.73
558.65	43232.04
558.81	42611.79
558.98	43182.88
559.14	42916.06
559.31	42770.95
559.47	43182.88
559.64	43852.28
559.80	43086.92
559.97	43524.60
560.13	43124.37
560.30	43524.60
560.46	43306.93
560.63	43356.08
560.79	43033.09
560.96	43519.92
561.12	43182.88
561.29	43325.66
561.45	43175.86
561.61	42993.30
561.78	43463.75
561.94	43660.35
562.11	43014.37
562.27	43260.12
562.44	43178.20
562.60	43611.20
562.77	43669.72
562.93	43374.81
563.10	43620.56
563.26	43686.10
563.42	43746.95
563.59	43384.17
563.75	43835.89
563.92	43475.45
564.08	43416.94
564.24	43466.09
564.41	44060.58
564.57	43700.14
564.74	43913.13
564.90	43786.74
565.07	43473.11
565.23	43723.55
565.39	43435.66
565.56	43711.84
565.72	43498.86
565.88	43922.49
566.05	43379.49
566.21	43290.55
566.38	43838.23
566.54	43405.23
566.70	44088.67
566.87	43856.96
567.03	43978.67
567.19	44163.57
567.36	44362.51
567.52	43779.72
567.68	44044.20
567.85	43601.84
568.01	44109.74
568.17	43646.31
568.34	44161.23
568.50	43840.57
568.66	43950.58
568.83	44025.48
568.99	43924.83
569.15	43526.94
569.32	43739.93
569.48	43765.68
569.64	44109.74
569.81	44273.57
569.97	44086.33
570.13	44395.28
570.30	43814.83
570.46	43756.32
570.62	43634.61
570.78	43845.26
570.95	43744.61
571.11	44184.63
571.27	43735.25
571.43	44289.96
571.60	44151.87
571.76	44112.08
571.92	44381.24
572.09	44222.08
572.25	43983.35
572.41	44105.06
572.57	44189.31
572.74	44875.09
572.90	44566.14
573.06	44016.11
573.22	43882.70
573.38	44130.80
573.55	43950.58
573.71	43924.83
573.87	44154.21
574.03	44470.18
574.20	44137.82
574.36	44194.00
574.52	44339.11
574.68	44329.75
574.84	44524.01
575.01	44116.76
575.17	44428.05
575.33	44095.69
575.49	44041.86
575.65	44823.60
575.82	44779.13
575.98	44512.31
576.14	44399.96
576.30	44233.78
576.46	44172.93
576.62	44165.91
576.79	44046.54
576.95	43739.93
577.11	44282.94
577.27	44772.11
577.43	44346.13
577.59	44182.29
577.75	44470.18
577.92	44374.22
578.08	43828.87
578.24	44273.57
578.40	44208.04
578.56	44156.55
578.72	44446.77
578.88	44449.11
579.04	44243.15
579.21	44116.76
579.37	44060.58
579.53	44388.26
579.69	44226.76
579.85	44626.99
580.01	44680.83
580.17	44299.32
580.33	44676.15
580.49	44652.74
580.65	44100.37
580.82	44493.58
580.98	44655.08
581.14	44334.43
581.30	44753.38
581.46	44568.48
581.62	44605.93
581.78	44105.06
581.94	44687.85
582.10	44821.26
582.26	44692.53
582.42	44952.33
582.58	44299.32
582.74	44240.81
582.90	44612.95
583.06	44786.15
583.22	44435.07
583.38	44973.39
583.54	44224.42
583.70	44502.95
583.86	44205.70
584.02	44657.42
584.18	44507.63
584.34	44697.21
584.50	44610.61
584.66	44673.81
584.82	44414.01
584.98	44879.77
585.14	44428.05
585.30	44252.51
585.46	43999.73
585.62	44311.02
585.78	44683.17
585.94	43983.35
586.10	44577.84
586.26	44191.65
586.42	44198.68
586.58	44453.79
586.74	44339.11
586.90	44706.57
587.06	44708.91
587.22	44465.50
587.38	44376.56
587.54	44706.57
587.70	44788.49
587.86	44598.91
588.02	44746.36
588.18	44720.62
588.34	44364.85
588.49	44535.71
588.65	44404.64
588.81	44444.43
588.97	44385.92
589.13	44512.31
589.29	44271.23
589.45	44245.49
589.61	44519.33
589.77	44744.02
589.93	44430.39
590.08	44872.75
590.24	44933.60
590.40	44692.53
590.56	45160.64
590.72	44645.72
590.88	44666.78
591.04	44762.75
591.20	44919.56
591.35	44835.30
591.51	45069.36
591.67	44753.38
591.83	44917.22
591.99	44610.61
592.15	44978.07
592.31	44748.70
592.46	44919.56
592.62	44587.21
592.78	44694.87
592.94	44889.13
593.10	44971.05
593.26	45118.51
593.41	44877.43
593.57	44669.12
593.73	44643.38
593.89	44823.60
594.05	44634.02
594.20	44987.44
594.36	45312.77
594.52	44987.44
594.68	45118.51
594.84	44910.20
594.99	45116.17
595.15	44875.09
595.31	44619.97
595.47	45076.38
595.62	44734.66
595.78	44992.12
595.94	44994.46
596.10	45010.84
596.25	44858.71
596.41	44802.53
596.57	44666.78
596.73	45001.48
596.88	44868.07
597.04	44697.21
597.20	45165.32
597.36	45408.73
597.51	45305.75
597.67	45088.08
597.83	44947.65
597.99	45530.44
598.14	45144.25
598.30	45064.67
598.46	44919.56
598.61	45247.24
598.77	44648.06
598.93	44786.15
599.09	44896.16
599.24	45642.79
599.40	45095.10
599.56	45509.38
599.71	44938.29
599.87	45305.75
600.03	44783.81
600.18	45460.23
600.34	45020.20
600.50	45116.17
600.65	44975.73
600.81	45427.46
600.97	45303.41
601.12	45085.74
601.28	45069.36
601.44	44645.72
601.59	44968.71
601.75	44875.09
601.91	45177.02
602.06	45198.09
602.22	45045.95
602.37	45537.46
602.53	45247.24
602.69	45401.71
602.84	44739.34
603.00	45088.08
603.16	45062.33
603.31	44809.56
603.47	44905.52
603.62	44942.97
603.78	45287.03
603.94	44811.90
604.09	45256.60
604.25	45162.98
604.40	44898.50
604.56	44601.25
604.71	45027.23
604.87	44900.84
605.03	44968.71
605.18	44753.38
605.34	44713.59
605.49	44507.63
605.65	45202.77
605.80	44769.77
605.96	44762.75
606.12	44900.84
606.27	45446.18
606.43	44582.52
606.58	44921.90
606.74	44556.78
606.89	44839.98
607.05	44910.20
607.20	44790.83
607.36	44762.75
607.51	45315.11
607.67	45022.54
607.82	44608.27
607.98	44989.78
608.13	44722.96
608.29	44378.90
608.44	44369.54
608.60	44453.79
608.75	44217.40
608.91	44568.48
609.06	44112.08
609.22	44669.12
609.37	44816.58
609.53	44612.95
609.68	44390.60
609.84	44634.02
609.99	44959.35
610.15	44718.28
610.30	44395.28
610.46	44521.67
610.61	44191.65
610.76	44547.42
610.92	44619.97
611.07	44594.23
611.23	44123.78
611.38	44535.71
611.54	44414.01
611.69	44018.46
611.84	44362.51
612.00	44399.96
612.15	43882.70
612.31	43929.51
612.46	44498.26
612.62	44453.79
612.77	44273.57
612.92	44264.21
613.08	44203.36
613.23	44102.71
613.39	44184.63
613.54	43536.30
613.69	44266.55
613.85	44598.91
614.00	44198.68
614.15	44467.84
614.31	44135.48
614.46	44247.83
614.62	43952.92
614.77	43938.88
614.92	43838.23
615.08	43749.29
615.23	43620.56
615.38	43646.31
615.54	43536.30
615.69	43473.11
615.84	43639.29
616.00	43636.95
616.15	44112.08
616.30	44105.06
616.46	43438.00
616.61	43477.79
616.76	43985.69
616.92	43487.15
617.07	43859.30
617.22	43622.90
617.37	43655.67
617.53	43990.37
617.68	43786.74
617.83	43812.49
617.99	43636.95
618.14	43473.11
618.29	43903.77
618.45	43484.81
618.60	43707.16
618.75	43564.39
618.90	43129.05
619.06	43466.09
619.21	43566.73
619.36	43545.67
619.51	43227.35
619.67	43405.23
619.82	43501.20
619.97	43627.59
620.12	42965.21
620.28	42773.29
620.43	43292.89
620.58	42845.85
620.73	43519.92
620.89	42810.74
621.04	43414.60
621.19	42920.74
621.34	42707.76
621.49	43070.54
621.65	42749.88
621.80	43393.53
621.95	42684.35
622.10	42932.45
622.25	42906.70
622.41	42548.60
622.56	43075.22
622.71	43201.61
622.86	42873.93
623.01	42604.77
623.16	42492.43
623.32	42548.60
623.47	42848.19
623.62	42843.51
623.77	42457.32
623.92	42536.90
624.07	42499.45
624.23	41979.85
624.38	42564.98
624.53	42321.57
624.68	42864.57
624.83	42607.11
624.98	42543.92
625.13	42080.49
625.29	42249.01
625.44	42810.74
625.59	42206.88
625.74	42054.75
625.89	41722.39
626.04	42197.52
626.19	41989.21
626.34	42199.86
626.49	42457.32
626.65	41977.51
626.80	41958.78
626.95	42171.77
627.10	42216.24
627.25	41816.01
627.40	41926.02
627.55	41771.54
627.70	41453.23
627.85	41706.01
628.00	42073.47
628.15	42085.17
628.30	41741.11
628.45	41975.17
628.60	42216.24
628.76	41792.61
628.91	42190.50
629.06	41918.99
629.21	41680.26
629.36	41509.40
629.51	41303.43
629.66	41518.76
629.81	41331.52
629.96	41596.00
630.11	41628.77
630.26	41392.37
630.41	41914.31
630.56	41717.71
630.71	41621.75
630.86	41181.73
631.01	41495.36
631.16	41691.96
631.31	40900.86
631.46	40809.58
631.61	41816.01
631.76	41394.71
631.91	41139.60
632.06	41235.56
632.21	41167.68
632.36	41242.58
632.51	41148.96
632.66	41464.93
632.81	40453.82
632.96	40973.42
633.10	40409.35
633.25	40390.62
633.40	40418.71
633.55	41268.33
633.70	41111.51
633.85	40378.92
634.00	40704.26
634.15	41045.97
634.30	40521.69
634.45	40837.67
634.60	40399.99
634.75	40620.00
634.90	40840.01
635.05	40673.83
635.19	40868.09
635.34	41074.06
635.49	40435.10
635.64	40624.68
635.79	40327.43
635.94	40395.31
636.09	40528.72
636.24	40107.42
636.39	40364.88
636.53	40189.34
636.68	40046.57
636.83	39864.00
636.98	40399.99
637.13	39903.79
637.28	40378.92
637.43	40364.88
637.57	40458.50
637.72	40158.91
637.87	40381.26
638.02	40545.10
638.17	40114.44
638.32	39964.65
638.46	39969.33
638.61	39864.00
638.76	39981.03
638.91	40236.15
639.06	39704.85
639.20	39908.47
639.35	40341.47
639.50	40332.11
639.65	39875.71
639.80	39974.01
639.94	39576.12
640.09	39578.46
640.24	39578.46
640.39	39426.32
640.54	39323.34
640.68	39665.06
640.83	39688.46
640.98	39594.84
641.13	39929.54
641.27	39859.32
641.42	39971.67
641.57	39519.95
641.72	39742.30
641.86	39409.94
642.01	39459.09
642.16	39248.44
642.31	39311.64
642.45	39358.45
642.60	38817.78
642.75	39285.89
642.90	39232.06
643.04	39119.71
643.19	39213.34
643.34	39318.66
643.48	39281.21
643.63	39309.30
643.78	38990.98
643.93	38885.66
644.07	39068.22
644.22	38770.97
644.37	38916.09
644.51	38827.15
644.66	38937.15
644.81	38731.18
644.95	38916.09
645.10	38998.01
645.25	39351.43
645.39	39271.85
645.54	39147.80
645.69	38721.82
645.83	38787.36
645.98	38878.64
646.13	38878.64
646.27	39171.21
646.42	38614.16
646.57	38899.70
646.71	38670.33
646.86	38836.51
647.00	38780.34
647.15	38972.26
647.30	38810.76
647.44	38920.77
647.59	38691.40
647.74	38281.80
647.88	38728.84
648.03	38555.64
648.17	38328.61
648.32	37923.70
648.47	38426.92
648.61	38291.16
648.76	38859.91
648.90	38024.34
649.05	38508.83
649.20	38394.15
649.34	38232.65
649.49	38328.61
649.63	38410.53
649.78	38333.29
649.92	38316.91
650.07	38450.32
650.21	37544.53
650.36	38459.68
650.51	38272.44
650.65	38206.90
650.80	38288.82
650.94	38656.29
651.09	38120.31
651.23	38052.43
651.38	37956.47
651.52	37589.00
651.67	38302.87
651.81	38260.74
651.96	37783.27
652.10	37284.73
652.25	37993.92
652.39	37827.74
652.54	37654.54
652.68	37713.05
652.83	38038.39
652.97	37893.27
653.12	37717.73
653.26	37624.11
653.41	37951.79
653.55	37706.03
653.70	37612.41
653.84	37371.33
653.99	37376.01
654.13	37743.48
654.27	37638.15
654.42	37825.40
654.56	37511.77
654.71	37446.23
654.85	37031.96
655.00	37319.84
655.14	37287.07
655.29	37273.03
655.43	36584.91
655.57	37158.34
655.72	36889.18
655.86	36893.86
656.01	36734.71
656.15	36893.86
656.30	36797.90
656.44	36851.73
656.58	36596.62
656.73	36208.09
656.87	36533.42
657.01	36788.54
657.16	36692.58
657.30	36662.15
657.45	36692.58
657.59	36769.82
657.73	36275.96
657.88	36968.76
658.02	36479.59
658.16	36465.55
658.31	36666.83
658.45	36725.35
658.60	36657.47
658.74	36631.72
658.88	36549.81
659.03	36790.88
659.17	36264.26
659.31	35929.56
659.46	36407.03
659.60	36273.62
659.74	36416.40
659.89	35765.73
660.03	36163.62
660.17	35711.89
660.32	36123.83
660.46	36587.25
660.60	35999.78
660.74	35597.21
660.89	35519.97
661.03	35892.12
661.17	35541.03
661.32	35416.99
661.46	35714.23
661.60	35384.22
661.74	35395.92
661.89	35536.35
662.03	35828.92
662.17	35431.03
662.31	35033.14
662.46	35211.02
662.60	35548.06
662.74	35215.70
662.88	35168.89
663.03	35117.40
663.17	35110.38
663.31	35234.42
663.45	35117.40
663.60	34731.21
663.74	34761.64
663.88	34759.30
664.02	34525.24
664.17	35255.49
664.31	34632.91
664.45	34672.70
664.59	34899.73
664.73	34391.83
664.88	34370.77
665.02	34167.14
665.16	34518.22
665.30	34398.85
665.44	34527.58
665.59	34178.84
665.73	34038.41
665.87	33881.60
666.01	34242.04
666.15	34007.98
666.29	33881.60
666.44	34328.64
666.58	33991.60
666.72	34045.43
666.86	34003.30
667.00	34316.93
667.14	34162.46
667.28	33511.79
667.43	33275.40
667.57	33406.47
667.71	33369.02
667.85	33362.00
667.99	33652.22
668.13	33738.82
668.27	33401.79
668.41	33460.30
668.56	33006.23
668.70	33642.86
668.84	33041.34
668.98	32788.56
669.12	32826.01
669.26	33099.86
669.40	32961.76
669.54	33219.22
669.68	33060.07
669.82	32968.79
669.96	32697.28
670.10	32488.98
670.25	32980.49
670.39	32800.27
670.53	33057.73
670.67	32549.83
670.81	32620.05
670.95	32470.25
671.09	32521.74
671.23	32336.84
671.37	32561.53
671.51	32254.92
671.65	32348.54
671.79	31924.91
671.93	31882.78
672.07	32355.57
672.21	32006.83
672.35	31782.13
672.49	32093.43
672.63	31885.12
672.77	31314.03
672.91	31665.11
673.05	31630.00
673.19	31365.52
673.33	31281.26
673.47	31255.51
673.61	31171.25
673.75	30960.61
673.89	30937.20
674.03	31166.57
674.17	30794.43
674.31	30756.98
674.45	30693.79
674.59	30892.73
674.73	31124.44
674.87	30881.03
675.01	30710.17
675.15	30721.87
675.29	30663.36
675.43	30363.77
675.56	30628.25
675.70	30412.92
675.84	30141.42
675.98	29340.96
676.12	30017.37
676.26	29729.48
676.40	29666.29
676.54	29413.51
676.68	30080.56
676.82	29046.05
676.96	29439.26
677.10	29242.65
677.23	29460.32
677.37	29268.40
677.51	29188.82
677.65	29340.96
677.79	28739.44
677.93	28692.63
678.07	28645.82
678.21	28662.20
678.34	28840.08
678.48	28737.10
678.62	28891.57
678.76	28418.78
678.90	28301.76
679.04	28264.31
679.18	28219.84
679.31	27950.68
679.45	27981.10
679.59	27821.95
679.73	27922.59
679.87	27824.29
680.00	27594.92
680.14	27946.00
680.28	27632.36
680.42	27204.05
680.56	27498.95
680.70	27253.20
680.83	27129.15
680.97	26888.07
681.11	26782.75
681.25	26532.31
681.39	26649.34
681.52	26948.93
681.66	26848.29
681.80	26574.44
681.94	26871.69
682.07	26508.91
682.21	26398.90
682.35	26038.46
682.49	26242.09
682.62	26005.69
682.76	26153.15
682.90	25685.04
683.04	25930.80
683.17	25986.97
683.31	25479.07
683.45	25993.99
683.59	25839.51
683.72	25385.45
683.86	25050.75
684.00	25017.99
684.13	24975.86
684.27	24893.94
684.41	24739.46
684.55	25067.14
684.68	24994.58
684.82	24458.60
684.96	24753.51
685.09	24910.32
685.23	24463.28
685.37	24460.94
685.50	24430.51
685.64	24177.73
685.78	24350.93
685.91	23936.66
686.05	23971.77
686.19	23679.20
686.32	24084.11
686.46	23566.85
686.60	23225.14
686.73	23477.91
686.87	23548.13
687.01	23239.18
687.14	23255.56
687.28	23033.21
687.42	22909.16
687.55	22813.20
687.69	22836.61
687.82	22857.67
687.96	22747.67
688.10	22712.56
688.23	22836.61
688.37	22141.47
688.50	22356.80
688.64	22457.44
688.78	22312.33
688.91	21865.28
689.05	21921.46
689.18	22160.19
689.32	21785.71
689.46	21996.35
689.59	22017.42
689.73	21600.80
689.86	21809.11
690.00	21589.10
690.13	21834.86
690.27	21532.93
690.41	21373.77
690.54	20975.88
690.68	20975.88
690.81	21010.99
690.95	20898.64
691.08	20774.60
691.22	20669.27
691.35	20931.41
691.49	20699.70
691.62	21034.39
691.76	20788.64
691.89	20301.81
692.03	20418.83
692.16	20133.29
692.30	20528.84
692.43	20119.24
692.57	19978.81
692.70	20081.80
692.84	19578.58
692.97	20191.80
693.11	19751.78
693.24	19529.43
693.38	19501.34
693.51	19335.17
693.65	19475.60
693.78	19278.99
693.92	19520.07
694.05	19220.48
694.19	19166.65
694.32	19091.75
694.45	19243.88
694.59	18726.63
694.72	18710.24
694.86	19056.64
694.99	18530.02
695.13	18956.00
695.26	18284.26
695.39	18317.03
695.53	18513.64
695.66	18394.27
695.80	18139.15
695.93	18412.99
696.07	17991.70
696.20	17806.80
696.33	18354.48
696.47	17891.06
696.60	17586.79
696.73	17884.03
696.87	17909.78
697.00	17570.40
697.14	17521.25
697.27	17649.98
697.40	17727.22
697.54	17518.91
697.67	17479.12
697.80	17310.60
697.94	17181.87
698.07	16793.34
698.21	16781.64
698.34	17055.48
698.47	16709.08
698.61	16673.98
698.74	16322.90
698.87	16671.64
699.01	16327.58
699.14	16109.91
699.27	16327.58
699.40	16486.73
699.54	16053.73
699.67	15955.43
699.80	15864.15
699.94	15812.66
700.07	15974.16
700.20	15709.68
700.34	15667.55
700.47	15714.36
700.60	15695.63
700.73	15868.83
700.87	15559.88
701.00	15246.25
701.13	15236.89
701.26	15035.60
701.40	15091.77
701.53	15367.96
701.66	15087.09
701.79	15042.62
701.93	14998.15
702.06	14794.53
702.19	14820.27
702.32	14883.47
702.46	14747.72
702.59	14609.62
702.72	14600.26
702.85	14719.63
702.99	14813.25
703.12	14640.05
703.25	14342.80
703.38	14324.08
703.51	14420.04
703.65	14164.92
703.78	14033.85
703.91	14024.49
704.04	14024.49
704.17	13888.74
704.31	13963.64
704.44	13586.81
704.57	13722.56
704.70	13642.98
704.83	13671.07
704.96	13696.82
705.10	13825.54
705.23	13460.42
>>>>>End Processed Spectral Data<<<<<
