SpectraSuite Data File
++++++++++++++++++++++++++++++++++++
Date: Fri Oct 25 10:47:41 EDT 2013
User: price-jones
Dark Spectrum Present: No
Reference Spectrum Present: No
Number of Sampled Component Spectra: 1
Spectrometers: USB2+H05261
Integration Time (usec): 100000 (USB2+H05261)
Spectra Averaged: 1 (USB2+H05261)
Boxcar Smoothing: 0 (USB2+H05261)
Correct for Electrical Dark: No (USB2+H05261)
Strobe/Lamp Enabled: No (USB2+H05261)
Correct for Detector Non-linearity: No (USB2+H05261)
Correct for Stray Light: No (USB2+H05261)
Number of Pixels in Processed Spectrum: 2048
>>>>>Begin Processed Spectral Data<<<<<
365.73	149.79
365.92	149.79
366.12	149.79
366.32	107.66
366.52	77.24
366.72	102.98
366.91	0.00
367.11	30.43
367.31	0.00
367.51	0.00
367.70	51.49
367.90	112.35
368.10	0.00
368.30	49.15
368.49	0.00
368.69	72.56
368.89	67.88
369.09	65.54
369.28	51.49
369.48	49.15
369.68	65.54
369.87	72.56
370.07	145.11
370.27	168.52
370.47	234.05
370.66	339.38
370.86	416.62
371.06	402.57
371.25	442.36
371.45	428.32
371.65	526.62
371.84	442.36
372.04	423.64
372.24	393.21
372.44	505.56
372.63	507.90
372.83	540.66
373.03	521.94
373.22	477.47
373.42	454.06
373.62	535.98
373.81	491.51
374.01	566.41
374.21	482.15
374.40	557.05
374.60	503.22
374.79	594.50
374.99	596.84
375.19	594.50
375.38	531.30
375.58	545.34
375.78	606.20
375.97	596.84
376.17	533.64
376.37	585.13
376.56	624.92
376.76	608.54
376.95	624.92
377.15	615.56
377.35	582.79
377.54	650.67
377.74	603.86
377.93	624.92
378.13	606.20
378.33	685.78
378.52	566.41
378.72	671.73
378.91	650.67
379.11	655.35
379.31	594.50
379.50	638.97
379.70	631.94
379.89	573.43
380.09	648.33
380.28	554.71
380.48	617.90
380.68	690.46
380.87	702.16
381.07	685.78
381.26	645.99
381.46	690.46
381.65	667.05
381.85	596.84
382.04	664.71
382.24	685.78
382.43	667.05
382.63	737.27
382.83	692.80
383.02	667.05
383.22	720.88
383.41	678.76
383.61	622.58
383.80	772.38
384.00	765.36
384.19	734.93
384.39	697.48
384.58	739.61
384.78	777.06
384.97	755.99
385.17	770.04
385.36	748.97
385.56	763.01
385.75	767.70
385.95	770.04
386.14	765.36
386.34	791.10
386.53	849.61
386.72	814.51
386.92	875.36
387.11	793.44
387.31	856.64
387.50	849.61
387.70	779.40
387.89	880.04
388.09	807.48
388.28	844.93
388.48	861.32
388.67	837.91
388.86	877.70
389.06	882.38
389.25	926.85
389.45	889.40
389.64	898.77
389.84	896.43
390.03	980.68
390.22	950.26
390.42	924.51
390.61	898.77
390.81	931.53
391.00	931.53
391.19	887.06
391.39	903.45
391.58	882.38
391.78	971.32
391.97	966.64
392.16	1011.11
392.36	1006.43
392.55	971.32
392.75	882.38
392.94	875.36
393.13	994.73
393.33	980.68
393.52	1013.45
393.71	978.34
393.91	1015.79
394.10	1046.22
394.29	1081.33
394.49	1149.20
394.68	1011.11
394.88	1132.82
395.07	1181.97
395.26	1121.12
395.46	1081.33
395.65	1130.48
395.84	1146.86
396.04	1090.69
396.23	1071.97
396.42	1151.54
396.62	1111.75
396.81	1097.71
397.00	1184.31
397.19	1219.42
397.39	1226.44
397.58	1252.19
397.77	1221.76
397.97	1214.74
398.16	1219.42
398.35	1345.81
398.55	1273.25
398.74	1357.51
398.93	1263.89
399.12	1444.11
399.32	1341.13
399.51	1362.19
399.70	1343.47
399.90	1317.72
400.09	1390.28
400.28	1380.92
400.47	1366.87
400.67	1437.09
400.86	1444.11
401.05	1357.51
401.24	1453.47
401.44	1526.03
401.63	1521.35
401.82	1418.36
402.01	1469.86
402.21	1514.33
402.40	1645.40
402.59	1444.11
402.78	1497.94
402.97	1528.37
403.17	1551.78
403.36	1600.93
403.55	1675.82
403.74	1645.40
403.93	1540.07
404.13	1631.35
404.32	1680.50
404.51	1687.53
404.70	1666.46
404.89	1586.88
405.09	1778.81
405.28	1750.72
405.47	1727.32
405.66	1732.00
405.85	1727.32
406.05	1767.10
406.24	1769.44
406.43	1746.04
406.62	1851.36
406.81	1891.15
407.00	1809.23
407.20	1884.13
407.39	1928.60
407.58	1902.86
407.77	1863.07
407.96	1933.28
408.15	1856.04
408.34	1886.47
408.54	1970.73
408.73	2012.86
408.92	2017.54
409.11	2118.18
409.30	2083.08
409.49	2040.95
409.68	2003.50
409.87	2012.86
410.07	2209.47
410.26	2132.23
410.45	2188.40
410.64	2111.16
410.83	2141.59
411.02	2167.34
411.21	2415.43
411.40	2267.98
411.59	2228.19
411.78	2176.70
411.98	2289.04
412.17	2307.77
412.36	2394.37
412.55	2441.18
412.74	2356.92
412.93	2539.48
413.12	2450.54
413.31	2478.63
413.50	2588.63
413.69	2520.76
413.88	2541.82
414.07	2480.97
414.26	2581.61
414.45	2612.04
414.64	2464.58
414.83	2654.17
415.02	2684.59
415.22	2794.60
415.41	2832.05
415.60	2808.64
415.79	2792.26
415.98	2778.22
416.17	2869.50
416.36	2920.99
416.55	2937.37
416.74	2906.95
416.93	2925.67
417.12	2963.12
417.31	2881.20
417.50	3112.91
417.69	3082.49
417.88	3014.61
418.07	3087.17
418.26	3070.78
418.45	3141.00
418.64	3171.43
418.83	3211.22
419.02	3222.92
419.21	3129.30
419.39	3283.77
419.58	3222.92
419.77	3187.81
419.96	3337.60
420.15	3473.36
420.34	3187.81
420.53	3169.09
420.72	3398.46
420.91	3438.25
421.10	3368.03
421.29	3489.74
421.48	3377.39
421.67	3520.17
421.86	3431.23
422.05	3407.82
422.24	3440.59
422.43	3346.97
422.61	3403.14
422.80	3496.76
422.99	3627.83
423.18	3494.42
423.37	3536.55
423.56	3545.91
423.75	3433.57
423.94	3468.67
424.13	3288.45
424.32	3337.60
424.50	3590.38
424.69	3529.53
424.88	3662.94
425.07	3541.23
425.26	3616.13
425.45	3524.85
425.64	3581.02
425.83	3641.87
426.01	3597.40
426.20	3679.32
426.39	3674.64
426.58	3552.93
426.77	3536.55
426.96	3578.68
427.15	3566.98
427.33	3662.94
427.52	3698.05
427.71	3693.37
427.90	3756.56
428.09	3705.07
428.28	3723.79
428.46	3630.17
428.65	3744.86
428.84	3850.18
429.03	3836.14
429.22	3712.09
429.40	3707.41
429.59	3763.58
429.78	3733.15
429.97	3625.49
430.16	3702.73
430.34	3913.38
430.53	3918.06
430.72	3887.63
430.91	3779.97
431.10	3712.09
431.28	3941.46
431.47	4074.87
431.66	4166.15
431.85	3976.57
432.03	4114.66
432.22	4194.24
432.41	4297.22
432.60	4201.26
432.79	4177.86
432.97	4325.31
433.16	4229.35
433.35	4168.49
433.54	4264.46
433.72	4219.99
433.91	4203.60
434.10	4355.74
434.28	4219.99
434.47	4311.27
434.66	4360.42
434.85	4287.86
435.03	4423.61
435.22	4489.15
435.41	4568.73
435.59	4428.29
435.78	4571.07
435.97	4461.06
436.16	4622.56
436.34	4685.75
436.53	4678.73
436.72	4681.07
436.90	4472.76
437.09	4552.34
437.28	4674.05
437.46	4746.61
437.65	4678.73
437.84	4545.32
438.02	4798.10
438.21	4601.49
438.40	4690.43
438.58	4798.10
438.77	4973.64
438.96	4990.02
439.14	5006.41
439.33	5057.90
439.52	5015.77
439.70	5032.15
439.89	4961.94
440.08	5144.50
440.26	5210.03
440.45	5149.18
440.63	5170.24
440.82	5298.97
441.01	5313.02
441.19	5378.55
441.38	5408.98
441.57	5432.38
441.75	5603.24
441.94	5549.41
442.12	5451.11
442.31	5755.38
442.50	5497.92
442.68	5612.60
442.87	5507.28
443.05	5760.06
443.24	5741.33
443.43	5713.25
443.61	5809.21
443.80	5853.68
443.98	5811.55
444.17	5631.33
444.35	5813.89
444.54	5837.30
444.73	5598.56
444.91	5837.30
445.10	6029.22
445.28	5811.55
445.47	5636.01
445.65	5778.78
445.84	5881.77
446.02	5902.83
446.21	5837.30
446.39	5923.90
446.58	5928.58
446.77	5937.94
446.95	5940.28
447.14	6179.01
447.32	5975.39
447.51	5909.85
447.69	5949.64
447.88	5867.72
448.06	5942.62
448.25	5933.26
448.43	5916.87
448.62	6083.05
448.80	6104.12
448.99	6195.40
449.17	6251.57
449.36	5980.07
449.54	6207.10
449.73	6277.32
449.91	6312.42
450.10	6272.64
450.28	6317.11
450.46	6300.72
450.65	6239.87
450.83	6282.00
451.02	6277.32
451.20	6469.24
451.39	6291.36
451.57	6384.98
451.76	6452.86
451.94	6525.41
452.13	6551.16
452.31	6572.22
452.49	6300.72
452.68	6558.18
452.86	6469.24
453.05	6635.42
453.23	6574.56
453.42	6649.46
453.60	6523.07
453.78	6750.10
453.97	6583.93
454.15	6602.65
454.34	6607.33
454.52	6712.66
454.70	6658.82
454.89	6871.81
455.07	6764.15
455.26	6778.19
455.44	6937.35
455.62	7035.65
455.81	6850.75
455.99	6998.20
456.17	7101.19
456.36	7049.69
456.54	7016.93
456.73	7122.25
456.91	7290.77
457.09	7178.42
457.28	7520.14
457.46	7204.17
457.64	7204.17
457.83	7309.49
458.01	7220.55
458.19	7438.22
458.38	7375.03
458.56	7403.11
458.74	7353.96
458.93	7386.73
459.11	7379.71
459.29	7265.02
459.48	7489.71
459.66	7499.08
459.84	7665.25
460.03	7585.68
460.21	7651.21
460.39	7602.06
460.57	7541.21
460.76	7730.79
460.94	7812.71
461.12	7749.51
461.31	7798.66
461.49	7873.56
461.67	7829.09
461.85	7779.94
462.04	7934.42
462.22	8383.80
462.40	8231.66
462.59	7988.25
462.77	7829.09
462.95	7971.86
463.13	7962.50
463.32	8154.43
463.50	8257.41
463.68	8180.17
463.86	8156.77
464.05	7953.14
464.23	8128.68
464.41	8224.64
464.59	7988.25
464.78	8360.39
464.96	8376.78
465.14	8252.73
465.32	8252.73
465.50	8315.92
465.69	8344.01
465.87	8262.09
466.05	8203.58
466.23	8215.28
466.41	8278.47
466.60	8243.37
466.78	8226.98
466.96	8409.54
467.14	8472.74
467.32	8631.90
467.51	8674.03
467.69	8360.39
467.87	8456.36
468.05	8561.68
468.23	8641.26
468.41	8456.36
468.60	8484.44
468.78	8594.45
468.96	8564.02
469.14	8657.64
469.32	8828.50
469.50	8456.36
469.69	8681.05
469.87	8879.99
470.05	8865.95
470.23	8676.37
470.41	9008.72
470.59	8898.72
470.77	8950.21
470.95	8812.12
471.14	9151.49
471.32	9069.58
471.50	9195.96
471.68	9238.09
471.86	9331.72
472.04	9338.74
472.22	9420.66
472.40	9212.35
472.58	9275.54
472.77	9465.13
472.95	9380.87
473.13	9795.14
473.31	9357.46
473.49	9495.55
473.67	9621.94
473.85	9600.88
474.03	9914.51
474.21	9909.83
474.39	9975.36
474.57	10099.41
474.75	10214.10
474.93	10164.95
475.12	10066.64
475.30	10076.01
475.48	10108.77
475.66	10310.06
475.84	10267.93
476.02	10422.41
476.20	10478.58
476.38	10448.15
476.56	10970.09
476.74	10684.55
476.92	10689.23
477.10	10733.70
477.28	10738.38
477.46	10827.32
477.64	11059.03
477.82	11290.74
478.00	11459.26
478.18	11325.85
478.36	11265.00
478.54	11447.56
478.72	11442.88
478.90	11552.88
479.08	11957.80
479.26	11796.30
479.44	11831.41
479.62	11854.81
479.80	12133.34
479.98	12109.93
480.16	12519.53
480.34	12351.01
480.52	12556.97
480.70	12666.98
480.88	12306.54
481.06	12507.82
481.24	12725.49
481.41	13043.81
481.59	12996.99
481.77	13097.64
481.95	12985.29
482.13	13132.75
482.31	12917.42
482.49	13268.50
482.67	13453.40
482.85	13565.74
483.03	13661.71
483.21	13937.89
483.39	13956.61
483.57	13926.19
483.74	14068.96
483.92	14373.23
484.10	14122.79
484.28	14230.46
484.46	14780.48
484.64	14698.56
484.82	14546.43
485.00	14773.46
485.18	15068.37
485.35	15021.56
485.53	15089.43
485.71	15098.80
485.89	15360.94
486.07	15463.92
486.25	15253.27
486.43	15325.83
486.61	15805.64
486.78	15833.72
486.96	16084.16
487.14	16163.74
487.32	16149.70
487.50	16255.02
487.68	16549.93
487.85	16781.64
488.03	16971.22
488.21	17116.34
488.39	16989.95
488.57	17216.98
488.75	17348.05
488.92	17397.20
489.10	17638.28
489.28	17738.92
489.46	17947.23
489.64	17881.69
489.81	18368.52
489.99	18466.83
490.17	18267.88
490.35	18745.35
490.53	18803.86
490.70	18686.84
490.88	18923.23
491.06	18902.17
491.24	18963.02
491.41	18946.64
491.59	19168.99
491.77	19262.61
491.95	19204.10
492.13	19740.08
492.30	19660.50
492.48	19873.49
492.66	19833.70
492.84	19662.84
493.01	19976.47
493.19	20336.91
493.37	20439.90
493.54	20404.79
493.72	20863.54
493.90	21039.08
494.08	21273.13
494.25	21294.19
494.43	21451.01
494.61	21771.66
494.79	21481.44
494.96	21439.31
495.14	21298.88
495.32	21816.13
495.49	21942.52
495.67	21970.61
495.85	21846.56
496.02	22003.38
496.20	22272.54
496.38	22317.01
496.55	22546.38
496.73	22843.63
496.91	22471.48
497.09	22712.56
497.26	23002.78
497.44	23239.18
497.62	23180.67
497.79	23316.42
497.97	23304.71
498.14	23625.37
498.32	23676.86
498.50	23758.78
498.67	23901.55
498.85	23742.39
499.03	24100.50
499.20	24154.33
499.38	24245.61
499.56	24271.36
499.73	24182.42
499.91	24404.77
500.08	24257.31
500.26	24074.75
500.44	24680.95
500.61	24870.53
500.79	24711.38
500.97	25317.57
501.14	25043.73
501.32	25259.06
501.49	25125.65
501.67	25174.80
501.84	25558.65
502.02	25095.22
502.20	25160.76
502.37	25832.49
502.55	25572.69
502.72	26005.69
502.90	26031.44
503.07	26167.19
503.25	26127.40
503.43	25858.24
503.60	26206.98
503.78	26033.78
503.95	26218.68
504.13	26157.83
504.30	26501.89
504.48	26270.17
504.65	26731.26
504.83	26937.23
505.01	27108.08
505.18	26845.94
505.36	27356.18
505.53	27147.87
505.71	27166.60
505.88	27363.20
506.06	27725.99
506.23	27587.89
506.41	27370.22
506.58	27601.94
506.76	27768.12
506.93	27835.99
507.11	28205.80
507.28	27810.25
507.46	27887.48
507.63	27704.92
507.81	27854.72
507.98	28102.81
508.16	28051.32
508.33	28243.24
508.50	28456.23
508.68	28697.31
508.85	28692.63
509.03	28503.04
509.20	28446.87
509.38	28891.57
509.55	29125.63
509.73	29219.25
509.90	29193.50
510.08	28971.15
510.25	29413.51
510.42	29064.77
510.60	29507.13
510.77	29523.52
510.95	29476.71
511.12	29205.20
511.30	29717.78
511.47	29949.50
511.64	29757.57
511.82	30026.73
511.99	29642.88
512.17	30167.16
512.34	29900.34
512.51	30127.38
512.69	30405.90
512.86	30429.30
513.04	30543.99
513.21	30417.60
513.38	30642.29
513.56	30632.93
513.73	30246.74
513.90	30855.28
514.08	30726.55
514.25	30888.05
514.43	30995.71
514.60	30712.51
514.77	30677.40
514.95	31363.18
515.12	31070.61
515.29	31323.39
515.47	31723.62
515.64	31491.91
515.81	31236.79
515.99	31548.08
516.16	31660.43
516.33	31791.50
516.51	31924.91
516.68	31910.86
516.85	31452.12
517.03	31674.47
517.20	32275.99
517.37	32329.82
517.54	32086.40
517.72	31981.08
517.89	32301.73
518.06	32137.90
518.24	32353.23
518.41	31927.25
518.58	32278.33
518.75	32325.14
518.93	32594.30
519.10	32566.21
519.27	32694.94
519.45	32893.89
519.62	33329.23
519.79	33284.76
519.96	32898.57
520.14	33326.89
520.31	33111.56
520.48	33443.91
520.65	33305.82
520.83	33532.86
521.00	33261.35
521.17	33303.48
521.34	33890.96
521.52	33399.44
521.69	33666.27
521.86	34089.90
522.03	34007.98
522.20	34024.37
522.38	34087.56
522.55	34359.06
522.72	34628.23
522.89	34036.07
523.07	34209.27
523.24	34300.55
523.41	34312.25
523.58	34553.33
523.75	34794.40
523.92	34906.75
524.10	34981.65
524.27	34930.16
524.44	35040.16
524.61	35178.25
524.78	34801.43
524.96	35119.74
525.13	35192.30
525.30	34855.26
525.47	35784.45
525.64	35440.39
525.81	35103.35
525.98	35295.28
526.16	35393.58
526.33	34827.17
526.50	35145.48
526.67	35145.48
526.84	35405.28
527.01	35508.27
527.18	35590.19
527.36	35744.66
527.53	36062.97
527.70	36486.61
527.87	36226.81
528.04	36156.60
528.21	35873.39
528.38	35995.10
528.55	36577.89
528.72	36699.60
528.89	36811.95
529.07	36421.08
529.24	36697.26
529.41	36271.28
529.58	36517.04
529.75	36343.84
529.92	36671.51
530.09	36484.27
530.26	36814.29
530.43	36868.12
530.60	36608.32
530.77	36931.31
530.94	37205.16
531.11	37095.15
531.28	37134.94
531.46	37333.89
531.63	37118.56
531.80	37226.22
531.97	37111.53
532.14	37481.34
532.31	37235.58
532.48	37057.70
532.65	37511.77
532.82	37216.86
532.99	37244.94
533.16	37338.57
533.33	37507.08
533.50	38326.27
533.67	37565.60
533.84	37467.30
534.01	37354.95
534.18	37584.32
534.35	37928.38
534.52	37839.44
534.69	38345.00
534.86	38155.41
535.03	38218.61
535.20	38176.48
535.37	38490.11
535.54	38473.73
535.71	38031.36
535.88	38078.18
536.05	38309.89
536.22	38883.32
536.38	38302.87
536.55	38199.88
536.72	38471.39
536.89	38256.06
537.06	38375.42
537.23	39012.05
537.40	38410.53
537.57	38595.43
537.74	39044.82
537.91	39304.62
538.08	39313.98
538.25	38700.76
538.42	39033.11
538.59	39086.95
538.75	38653.95
538.92	39065.88
539.09	39056.52
539.26	39229.72
539.43	38918.43
539.60	39236.74
539.77	39033.11
539.94	39290.57
540.11	38958.22
540.28	39344.41
540.44	39353.77
540.61	39423.98
540.78	39164.18
540.95	39407.60
541.12	39723.57
541.29	39491.86
541.46	39526.97
541.62	39688.46
541.79	39775.06
541.96	39395.90
542.13	39835.92
542.30	39739.96
542.47	40009.12
542.63	39985.71
542.80	40002.10
542.97	40395.31
543.14	40437.44
543.31	40325.09
543.48	40547.44
543.64	40978.10
543.81	40847.03
543.98	40549.78
544.15	40306.37
544.32	40573.19
544.48	41361.95
544.65	40610.64
544.82	40783.83
544.99	40161.25
545.16	40559.14
545.32	40456.16
545.49	40748.73
545.66	41167.68
545.83	40954.69
546.00	41256.62
546.16	41109.17
546.33	40767.45
546.50	41226.20
546.67	40666.81
546.83	41249.60
547.00	41102.15
547.17	41284.71
547.34	41352.58
547.50	41858.14
547.67	41167.68
547.84	41350.24
548.00	41350.24
548.17	41584.30
548.34	41668.56
548.51	41689.62
548.67	41773.88
548.84	41778.56
549.01	41640.47
549.18	41284.71
549.34	41528.13
549.51	41818.35
549.68	42139.00
549.84	41933.04
550.01	41902.61
550.18	41373.65
550.34	41907.29
550.51	41745.80
550.68	41881.55
550.84	41429.82
551.01	41743.45
551.18	41689.62
551.34	41677.92
551.51	41993.89
551.68	42408.17
551.84	42632.86
552.01	42232.63
552.18	42211.56
552.34	42075.81
552.51	42546.26
552.68	42075.81
552.84	42373.06
553.01	42967.55
553.18	42286.46
553.34	42370.72
553.51	42265.39
553.67	42368.38
553.84	42801.38
554.01	43014.37
554.17	43168.84
554.34	42546.26
554.51	43033.09
554.67	42873.93
554.84	42712.44
555.00	42532.22
555.17	42862.23
555.33	42782.65
555.50	42665.63
555.67	42665.63
555.83	42887.98
556.00	42834.14
556.16	43098.62
556.33	43040.11
556.50	43117.35
556.66	42763.93
556.83	42859.89
556.99	43241.40
557.16	43115.01
557.32	42969.90
557.49	43543.33
557.65	42897.34
557.82	42775.63
557.98	42628.18
558.15	43143.09
558.32	43641.63
558.48	42962.87
558.65	43189.91
558.81	43119.69
558.98	43260.12
559.14	42953.51
559.31	43250.76
559.47	43517.58
559.64	43641.63
559.80	43494.18
559.97	43590.14
560.13	43491.83
560.30	43234.38
560.46	43379.49
560.63	43477.79
560.79	43402.89
560.96	43758.66
561.12	43056.50
561.29	43585.46
561.45	43695.46
561.61	43702.48
561.78	43648.65
561.94	43590.14
562.11	43847.60
562.27	43332.68
562.44	43742.27
562.60	43920.15
562.77	43878.02
562.93	43627.59
563.10	43910.79
563.26	43578.43
563.42	43819.51
563.59	43903.77
563.75	43859.30
563.92	43629.93
564.08	43732.91
564.24	43859.30
564.41	43681.42
564.57	43976.33
564.74	43997.39
564.90	44156.55
565.07	43765.68
565.23	43812.49
565.39	43833.55
565.56	44037.18
565.72	43761.00
565.88	44112.08
566.05	43931.86
566.21	43906.11
566.38	43650.99
566.54	43990.37
566.70	44102.71
566.87	44505.29
567.03	43978.67
567.19	44163.57
567.36	43887.39
567.52	44030.16
567.68	44378.90
567.85	44044.20
568.01	44261.87
568.17	44023.14
568.34	44385.92
568.50	44282.94
568.66	44128.46
568.83	44217.40
568.99	43983.35
569.15	43999.73
569.32	43725.89
569.48	44020.80
569.64	44023.14
569.81	44325.07
569.97	44149.53
570.13	44149.53
570.30	44502.95
570.46	44254.85
570.62	44236.12
570.78	44163.57
570.95	44109.74
571.11	44411.67
571.27	44226.76
571.43	43966.96
571.60	44540.39
571.76	44655.08
571.92	44378.90
572.09	44467.84
572.25	44247.83
572.41	44189.31
572.57	44163.57
572.74	44989.78
572.90	44437.41
573.06	44507.63
573.22	44460.82
573.38	44299.32
573.55	44411.67
573.71	44362.51
573.87	44329.75
574.03	44144.84
574.20	44406.98
574.36	44659.76
574.52	44231.44
574.68	44477.20
574.84	44788.49
575.01	44713.59
575.17	44322.72
575.33	44098.03
575.49	44591.89
575.65	44774.45
575.82	44437.41
575.98	44629.34
576.14	44542.74
576.30	44275.91
576.46	44196.34
576.62	44512.31
576.79	44465.50
576.95	44121.44
577.11	44360.17
577.27	44439.75
577.43	44612.95
577.59	44662.10
577.75	44292.30
577.92	44212.72
578.08	44172.93
578.24	44051.22
578.40	44083.99
578.56	44500.61
578.72	44280.60
578.88	44547.42
579.04	44622.31
579.21	44402.30
579.37	44528.69
579.53	44612.95
579.69	44435.07
579.85	44652.74
580.01	44811.90
580.17	44800.19
580.33	44765.09
580.49	44406.98
580.65	44830.62
580.82	44858.71
580.98	44758.06
581.14	44608.27
581.30	44772.11
581.46	44933.60
581.62	44772.11
581.78	44800.19
581.94	44912.54
582.10	44729.98
582.26	45153.62
582.42	44315.70
582.58	45076.38
582.74	44619.97
582.90	44477.20
583.06	44325.07
583.22	44566.14
583.38	44907.86
583.54	44861.05
583.70	44495.92
583.86	44245.49
584.02	44404.64
584.18	44442.09
584.34	44439.75
584.50	44467.84
584.66	44605.93
584.82	44680.83
584.98	44800.19
585.14	44690.19
585.30	44739.34
585.46	44507.63
585.62	44355.49
585.78	44844.66
585.94	44273.57
586.10	44601.25
586.26	44252.51
586.42	44390.60
586.58	45165.32
586.74	44552.10
586.90	44741.68
587.06	44631.68
587.22	44732.32
587.38	44748.70
587.54	45109.14
587.70	44954.67
587.86	45048.29
588.02	44563.80
588.18	44865.73
588.34	44832.96
588.49	44444.43
588.65	44713.59
588.81	44481.88
588.97	44374.22
589.13	44933.60
589.29	44545.08
589.45	44659.76
589.61	44596.57
589.77	44341.45
589.93	44662.10
590.08	44828.28
590.24	45303.41
590.40	45240.21
590.56	44870.41
590.72	45111.49
590.88	44388.26
591.04	45069.36
591.20	45195.74
591.35	44898.50
591.51	45408.73
591.67	44900.84
591.83	44711.25
591.99	44500.61
592.15	45024.89
592.31	45418.10
592.46	44690.19
592.62	44804.88
592.78	44898.50
592.94	45038.93
593.10	44722.96
593.26	44729.98
593.41	45347.88
593.57	45116.17
593.73	44533.37
593.89	45287.03
594.05	45144.25
594.20	45317.45
594.36	45153.62
594.52	45495.33
594.68	44893.82
594.84	44673.81
594.99	45141.91
595.15	44849.35
595.31	45345.54
595.47	45184.04
595.62	45310.43
595.78	45521.08
595.94	45284.68
596.10	45282.34
596.25	45715.34
596.41	45226.17
596.57	45132.55
596.73	44996.80
596.88	45001.48
597.04	45165.32
597.20	45329.16
597.36	44949.99
597.51	45394.69
597.67	45125.53
597.83	45464.91
597.99	45422.78
598.14	45375.97
598.30	45144.25
598.46	45338.52
598.61	44917.22
598.77	44776.79
598.93	45111.49
599.09	44912.54
599.24	45528.10
599.40	45097.44
599.56	45375.97
599.71	45411.07
599.87	45542.14
600.03	45167.66
600.18	44842.32
600.34	44999.14
600.50	45294.05
600.65	45017.86
600.81	45441.50
600.97	45368.94
601.12	45640.45
601.28	45127.87
601.44	45109.14
601.59	45125.53
601.75	44856.37
601.91	44847.00
602.06	44891.48
602.22	45546.82
602.37	45193.40
602.53	45378.31
602.69	45551.51
602.84	45034.25
603.00	45317.45
603.16	44985.10
603.31	45020.20
603.47	45069.36
603.62	44907.86
603.78	45429.80
603.94	45694.28
604.09	45067.02
604.25	45317.45
604.40	45116.17
604.56	44942.97
604.71	45027.23
604.87	45059.99
605.03	45230.85
605.18	45092.76
605.34	45226.17
605.49	44741.68
605.65	45195.74
605.80	44737.00
605.96	45137.23
606.12	44940.63
606.27	45586.61
606.43	44708.91
606.58	44992.12
606.74	44975.73
606.89	44758.06
607.05	45050.63
607.20	44725.30
607.36	45462.57
607.51	44928.92
607.67	45268.30
607.82	45022.54
607.98	44882.11
608.13	44587.21
608.29	44514.65
608.44	44587.21
608.60	44505.29
608.75	44669.12
608.91	44994.46
609.06	44423.37
609.22	45146.59
609.37	44254.85
609.53	44648.06
609.68	44856.37
609.84	44612.95
609.99	44875.09
610.15	44589.55
610.30	44406.98
610.46	44245.49
610.61	44299.32
610.76	44694.87
610.92	44203.36
611.07	44392.94
611.23	44641.04
611.38	44659.76
611.54	44212.72
611.69	44694.87
611.84	44793.17
612.00	44737.00
612.15	44313.36
612.31	44325.07
612.46	44715.93
612.62	44472.52
612.77	44224.42
612.92	44645.72
613.08	44320.38
613.23	44011.43
613.39	44135.48
613.54	43978.67
613.69	44055.90
613.85	44189.31
614.00	44374.22
614.15	44552.10
614.31	44196.34
614.46	44367.20
614.62	43906.11
614.77	44273.57
614.92	44266.55
615.08	44135.48
615.23	44137.82
615.38	44095.69
615.54	43995.05
615.69	43421.62
615.84	43683.76
616.00	43648.65
616.15	43484.81
616.30	44467.84
616.46	43548.01
616.61	43515.24
616.76	43831.21
616.92	43384.17
617.07	43782.06
617.22	43648.65
617.37	43821.85
617.53	43650.99
617.68	43718.87
617.83	43859.30
617.99	44067.61
618.14	43536.30
618.29	44006.75
618.45	43517.58
618.60	43285.87
618.75	43866.32
618.90	43604.18
619.06	43597.16
619.21	43742.27
619.36	43370.13
619.51	43342.04
619.67	43384.17
619.82	43550.35
619.97	43985.69
620.12	43428.64
620.28	43229.69
620.43	43290.55
620.58	43543.33
620.73	43419.28
620.89	43466.09
621.04	43498.86
621.19	43103.31
621.34	42934.79
621.49	42974.58
621.65	42813.08
621.80	43072.88
621.95	42939.47
622.10	43206.29
622.25	43274.16
622.41	42462.00
622.56	42719.46
622.71	43051.81
622.86	42721.80
623.01	43035.43
623.16	43056.50
623.32	43138.41
623.47	42780.31
623.62	42972.24
623.77	42445.62
623.92	42864.57
624.07	42419.87
624.23	42890.32
624.38	42618.81
624.53	42064.11
624.68	42674.99
624.83	42698.39
624.98	42749.88
625.13	42312.20
625.29	42777.97
625.44	42508.81
625.59	42426.89
625.74	42237.31
625.89	42033.68
626.04	41970.49
626.19	42403.49
626.34	42550.94
626.49	42398.80
626.65	42670.31
626.80	41914.31
626.95	42171.77
627.10	41820.69
627.25	42103.90
627.40	41757.50
627.55	41600.68
627.70	41773.88
627.85	42218.58
628.00	41895.59
628.15	42319.23
628.30	42213.90
628.45	42026.66
628.60	42127.30
628.76	41628.77
628.91	41991.55
629.06	41851.12
629.21	41928.36
629.36	41361.95
629.51	41502.38
629.66	41235.56
629.81	41296.41
629.96	41591.32
630.11	41734.09
630.26	41806.65
630.41	41640.47
630.56	41944.74
630.71	41911.97
630.86	41574.94
631.01	41179.39
631.16	41366.63
631.31	41216.83
631.46	41275.35
631.61	41242.58
631.76	41656.85
631.91	41450.89
632.06	41261.30
632.21	40912.56
632.36	41301.09
632.51	41275.35
632.66	40807.24
632.81	40809.58
632.96	41015.55
633.10	40601.27
633.25	40891.50
633.40	40879.80
633.55	41425.14
633.70	41083.42
633.85	41151.30
634.00	41020.23
634.15	40769.79
634.30	41106.83
634.45	41095.13
634.60	40945.33
634.75	40765.11
634.90	40912.56
635.05	40910.22
635.19	41130.23
635.34	40910.22
635.49	41256.62
635.64	40730.00
635.79	40484.25
635.94	40114.44
636.09	40322.75
636.24	40933.63
636.39	40247.85
636.53	40657.45
636.68	39915.50
636.83	40341.47
636.98	40533.40
637.13	40086.36
637.28	40465.52
637.43	40875.12
637.57	40825.96
637.72	40753.41
637.87	40669.15
638.02	40514.67
638.17	40495.95
638.32	40243.17
638.46	40367.22
638.61	40065.29
638.76	40084.01
638.91	40013.80
639.06	40025.50
639.20	39974.01
639.35	40526.38
639.50	39962.31
639.65	40320.41
639.80	40112.10
639.94	39906.13
640.09	40168.27
640.24	39917.84
640.39	39636.97
640.54	39784.43
640.68	39859.32
640.83	39798.47
640.98	40046.57
641.13	39459.09
641.27	40100.40
641.42	39700.17
641.57	40109.76
641.72	39718.89
641.86	39655.70
642.01	39344.41
642.16	39679.10
642.31	38930.13
642.45	39253.12
642.60	39866.34
642.75	39218.02
642.90	39044.82
643.04	39487.18
643.19	39049.50
643.34	39484.84
643.48	39372.49
643.63	38632.88
643.78	39192.27
643.93	38995.67
644.07	39103.33
644.22	38857.57
644.37	39124.40
644.51	39023.75
644.66	39161.84
644.81	39423.98
644.95	39440.37
645.10	39129.08
645.25	39524.63
645.39	39269.51
645.54	39405.26
645.69	39250.78
645.83	38820.13
645.98	38721.82
646.13	38998.01
646.27	39267.17
646.42	38838.85
646.57	38974.60
646.71	38827.15
646.86	38686.71
647.00	39014.39
647.15	38988.64
647.30	39250.78
647.44	38609.48
647.59	38464.36
647.74	38061.79
647.88	38415.21
648.03	38359.04
648.17	38506.49
648.32	38382.45
648.47	38363.72
648.61	38246.69
648.76	38438.62
648.90	37986.89
649.05	38455.00
649.20	38539.26
649.34	38593.09
649.49	38419.89
649.63	38225.63
649.78	38455.00
649.92	38340.32
650.07	38433.94
650.21	38237.33
650.36	38457.34
650.51	38050.09
650.65	38845.87
650.80	38609.48
650.94	38705.44
651.09	38604.80
651.23	38321.59
651.38	38323.93
651.52	37954.13
651.67	38080.52
651.81	38117.96
651.96	38000.94
652.10	38085.20
652.25	37418.14
652.39	37680.28
652.54	37659.22
652.68	38181.16
652.83	37764.54
652.97	37661.56
653.12	37996.26
653.26	37329.20
653.41	38000.94
653.55	37443.89
653.70	37488.36
653.84	37663.90
653.99	37614.75
654.13	37855.82
654.27	37469.64
654.42	37628.79
654.56	37090.47
654.71	37645.18
654.85	37139.62
655.00	37109.19
655.14	37057.70
655.29	37214.52
655.43	37263.67
655.57	37041.32
655.72	36905.57
655.86	36821.31
656.01	37141.96
656.15	36898.55
656.30	37104.51
656.44	37380.70
656.58	37102.17
656.73	36835.35
656.87	37008.55
657.01	36900.89
657.16	36669.17
657.30	36727.69
657.45	36275.96
657.59	36561.51
657.73	36879.82
657.88	37090.47
658.02	36498.31
658.16	36678.54
658.31	36730.03
658.45	37214.52
658.60	36470.23
658.74	36732.37
658.88	36645.77
659.03	36493.63
659.17	36006.80
659.31	36091.06
659.46	36587.25
659.60	36266.60
659.74	36222.13
659.89	35962.33
660.03	36306.39
660.17	36170.64
660.32	36081.70
660.46	36535.76
660.60	36498.31
660.74	36123.83
660.89	36437.46
661.03	35761.05
661.17	36041.91
661.32	35648.70
661.46	35770.41
661.60	35718.92
661.74	35625.29
661.89	35875.73
662.03	35732.96
662.17	35800.83
662.31	35409.96
662.46	35789.13
662.60	35487.20
662.74	35316.34
662.88	35672.10
663.03	35201.66
663.17	35601.89
663.31	35222.72
663.45	35056.54
663.60	34969.94
663.74	35035.48
663.88	34749.93
664.02	34913.77
664.17	34878.66
664.31	34319.28
664.45	34630.57
664.59	35023.78
664.73	35129.10
664.88	35040.16
665.02	34246.72
665.16	34340.34
665.30	34820.15
665.44	34930.16
665.59	34323.96
665.73	34204.59
665.87	34396.51
666.01	34087.56
666.15	34040.75
666.29	34494.82
666.44	34597.80
666.58	33970.54
666.72	34373.11
666.86	34132.03
667.00	34220.97
667.14	33921.38
667.28	33750.52
667.43	33677.97
667.57	33610.09
667.71	33399.44
667.85	33738.82
667.99	33628.82
668.13	33792.65
668.27	33219.22
668.41	33783.29
668.56	33221.56
668.70	33605.41
668.84	33165.39
668.98	33539.88
669.12	32868.14
669.26	33362.00
669.40	33301.14
669.54	33074.11
669.68	33017.94
669.82	32870.48
669.96	32830.69
670.10	32280.67
670.25	33216.88
670.39	32833.04
670.53	32697.28
670.67	32423.44
670.81	32680.90
670.95	32481.95
671.09	32254.92
671.23	32577.92
671.37	32524.08
671.51	32156.62
671.65	32240.88
671.79	31952.99
671.93	32334.50
672.07	32325.14
672.21	32252.58
672.35	32002.14
672.49	31922.57
672.63	31995.12
672.77	31618.30
672.91	31945.97
673.05	31669.79
673.19	31634.68
673.33	31578.51
673.47	31213.38
673.61	31129.12
673.75	31063.59
673.89	30862.30
674.03	30668.04
674.17	30801.45
674.31	31068.27
674.45	31094.02
674.59	31147.85
674.73	30852.94
674.87	30789.75
675.01	30806.13
675.15	30464.41
675.29	30726.55
675.43	30478.46
675.56	30534.63
675.70	30078.22
675.84	30162.48
675.98	29425.22
676.12	29876.94
676.26	29869.92
676.40	30008.01
676.54	29848.85
676.68	29542.24
676.82	29163.08
676.96	29734.17
677.10	29462.66
677.23	29069.45
677.37	29345.64
677.51	29237.97
677.65	29263.72
677.79	28978.17
677.93	29226.27
678.07	28861.15
678.21	28837.74
678.34	28819.02
678.48	28650.50
678.62	28393.04
678.76	28353.25
678.90	28404.74
679.04	28332.18
679.18	28442.19
679.31	27934.29
679.45	27936.63
679.59	28039.62
679.73	27997.49
679.87	27751.73
680.00	27660.45
680.14	27548.11
680.28	27520.02
680.42	27208.73
680.56	27487.25
680.70	27307.03
680.83	27344.48
680.97	27033.19
681.11	26759.34
681.25	26852.97
681.39	26747.64
681.52	27089.36
681.66	26848.29
681.80	26890.41
681.94	26338.05
682.07	26473.80
682.21	26291.24
682.35	26476.14
682.49	26485.50
682.62	25954.20
682.76	25834.83
682.90	25986.97
683.04	25872.28
683.17	26143.78
683.31	25724.83
683.45	25968.24
683.59	25439.28
683.72	25291.83
683.86	25280.13
684.00	24833.08
684.13	25331.62
684.27	25418.22
684.41	25050.75
684.55	24989.90
684.68	25142.03
684.82	24805.00
684.96	24552.22
685.09	24634.14
685.23	24580.31
685.37	24425.83
685.50	24390.72
685.64	24243.27
685.78	24184.76
685.91	24240.93
686.05	24041.98
686.19	23737.71
686.32	23761.12
686.46	23894.53
686.60	23487.28
686.73	23302.37
686.87	23147.90
687.01	23527.06
687.14	22855.33
687.28	23285.99
687.42	23084.70
687.55	22885.76
687.69	23012.15
687.82	22967.68
687.96	22960.66
688.10	22845.97
688.23	22831.93
688.37	22625.96
688.50	22209.34
688.64	22408.29
688.78	22342.75
688.91	22195.30
689.05	22146.15
689.18	21874.65
689.32	21811.45
689.46	22052.53
689.59	22181.26
689.73	22204.66
689.86	21813.79
690.00	21675.70
690.13	21715.49
690.27	21530.59
690.41	21734.21
690.54	21116.31
690.68	20755.87
690.81	21036.74
690.95	21228.66
691.08	21097.59
691.22	21041.42
691.35	20723.10
691.49	21146.74
691.62	20624.80
691.76	20706.72
691.89	20875.24
692.03	20559.27
692.16	20313.51
692.30	20044.35
692.43	20177.76
692.57	20109.88
692.70	19927.32
692.84	20060.73
692.97	19754.12
693.11	19599.65
693.24	19555.18
693.38	19583.26
693.51	19316.44
693.65	19665.18
693.78	19580.92
693.92	19154.94
694.05	19562.20
694.19	19040.26
694.32	19016.85
694.45	19033.24
694.59	19119.84
694.72	18726.63
694.86	18773.44
694.99	18923.23
695.13	18525.34
695.26	18649.39
695.39	18307.67
695.53	18555.77
695.66	18408.31
695.80	18328.74
695.93	17963.61
696.07	17982.34
696.20	18394.27
696.33	18066.60
696.47	17818.50
696.60	17855.95
696.73	17689.77
696.87	18008.08
697.00	17666.36
697.14	17757.64
697.27	17575.08
697.40	17476.78
697.54	17451.03
697.67	17273.15
697.80	17305.92
697.94	17097.61
698.07	17125.70
698.21	16851.86
698.34	16828.45
698.47	16910.37
698.61	16526.52
698.74	16430.56
698.87	16423.54
699.01	16332.26
699.14	16456.31
699.27	16276.09
699.40	16367.37
699.54	16170.76
699.67	16152.04
699.80	16369.71
699.94	16074.80
700.07	16189.49
700.20	16018.63
700.34	15630.10
700.47	15555.20
700.60	15810.32
700.73	15812.66
700.87	15775.21
701.00	15440.51
701.13	15468.60
701.26	15253.27
701.40	15218.16
701.53	15438.17
701.66	15117.52
701.79	15070.71
701.93	14911.55
702.06	14939.64
702.19	14633.03
702.32	14925.60
702.46	14768.78
702.59	14630.69
702.72	14932.62
702.85	14567.49
702.99	14815.59
703.12	14677.50
703.25	14930.28
703.38	14672.82
703.51	14473.87
703.65	14134.50
703.78	14317.06
703.91	14174.28
704.04	14085.34
704.17	13797.46
704.31	13731.92
704.44	13439.36
704.57	13839.59
704.70	13724.90
704.83	13579.79
704.96	13713.20
705.10	13675.75
705.23	13750.65
>>>>>End Processed Spectral Data<<<<<
