SpectraSuite Data File
++++++++++++++++++++++++++++++++++++
Date: Fri Oct 25 10:43:22 EDT 2013
User: price-jones
Dark Spectrum Present: No
Reference Spectrum Present: No
Number of Sampled Component Spectra: 1
Spectrometers: USB2+H05261
Integration Time (usec): 100000 (USB2+H05261)
Spectra Averaged: 1 (USB2+H05261)
Boxcar Smoothing: 0 (USB2+H05261)
Correct for Electrical Dark: No (USB2+H05261)
Strobe/Lamp Enabled: No (USB2+H05261)
Correct for Detector Non-linearity: No (USB2+H05261)
Correct for Stray Light: No (USB2+H05261)
Number of Pixels in Processed Spectrum: 2048
>>>>>Begin Processed Spectral Data<<<<<
365.73	105.32
365.92	105.32
366.12	105.32
366.32	21.06
366.52	32.77
366.72	112.35
366.91	25.75
367.11	0.00
367.31	0.00
367.51	0.00
367.70	21.06
367.90	100.64
368.10	98.30
368.30	4.68
368.49	14.04
368.69	51.49
368.89	21.06
369.09	25.75
369.28	105.32
369.48	56.17
369.68	23.41
369.87	56.17
370.07	84.26
370.27	161.50
370.47	152.13
370.66	355.76
370.86	355.76
371.06	437.68
371.25	472.79
371.45	444.70
371.65	482.15
371.84	437.68
372.04	500.87
372.24	470.45
372.44	468.11
372.63	533.64
372.83	507.90
373.03	528.96
373.22	477.47
373.42	500.87
373.62	575.77
373.81	505.56
374.01	580.45
374.21	528.96
374.40	599.18
374.60	564.07
374.79	526.62
374.99	631.94
375.19	554.71
375.38	566.41
375.58	606.20
375.78	620.24
375.97	617.90
376.17	571.09
376.37	578.11
376.56	524.28
376.76	592.16
376.95	660.03
377.15	627.26
377.35	669.39
377.54	711.52
377.74	552.37
377.93	594.50
378.13	702.16
378.33	667.05
378.52	627.26
378.72	664.71
378.91	669.39
379.11	667.05
379.31	622.58
379.50	627.26
379.70	716.20
379.89	685.78
380.09	634.29
380.28	685.78
380.48	662.37
380.68	622.58
380.87	599.18
381.07	624.92
381.26	641.31
381.46	814.51
381.65	718.54
381.85	685.78
382.04	699.82
382.24	704.50
382.43	603.86
382.63	678.76
382.83	622.58
383.02	662.37
383.22	746.63
383.41	741.95
383.61	667.05
383.80	833.23
384.00	760.67
384.19	739.61
384.39	753.65
384.58	875.36
384.78	858.98
384.97	851.96
385.17	774.72
385.36	812.17
385.56	788.76
385.75	830.89
385.95	866.00
386.14	847.27
386.34	858.98
386.53	866.00
386.72	809.83
386.92	854.30
387.11	788.76
387.31	777.06
387.50	889.40
387.70	842.59
387.89	880.04
388.09	936.21
388.28	763.01
388.48	952.60
388.67	952.60
388.86	985.37
389.06	1011.11
389.25	983.02
389.45	1004.09
389.64	851.96
389.84	887.06
390.03	992.39
390.22	903.45
390.42	1034.52
390.61	1008.77
390.81	978.34
391.00	1158.57
391.19	1132.82
391.39	973.66
391.58	1036.86
391.78	1142.18
391.97	1081.33
392.16	882.38
392.36	1039.20
392.55	952.60
392.75	950.26
392.94	931.53
393.13	961.96
393.33	1015.79
393.52	1064.94
393.71	1081.33
393.91	1184.31
394.10	1081.33
394.29	1109.41
394.49	1203.04
394.68	1317.72
394.88	1151.54
395.07	1193.67
395.26	1270.91
395.46	1259.21
395.65	1210.06
395.84	1228.78
396.04	1263.89
396.23	1196.01
396.42	1165.59
396.62	1172.61
396.81	1163.25
397.00	1259.21
397.19	1303.68
397.39	1277.93
397.58	1280.27
397.77	1385.60
397.97	1476.88
398.16	1462.83
398.35	1394.96
398.55	1500.28
398.74	1514.33
398.93	1547.09
399.12	1528.37
399.32	1537.73
399.51	1535.39
399.70	1547.09
399.90	1617.31
400.09	1621.99
400.28	1614.97
400.47	1577.52
400.67	1626.67
400.86	1657.10
401.05	1640.72
401.24	1647.74
401.44	1788.17
401.63	1743.70
401.82	1713.27
402.01	1746.04
402.21	1846.68
402.40	1760.08
402.59	1729.66
402.78	1771.79
402.97	1741.36
403.17	1818.60
403.36	1832.64
403.55	1727.32
403.74	1851.36
403.93	1856.04
404.13	1898.17
404.32	1912.22
404.51	1900.52
404.70	1872.43
404.89	1940.30
405.09	1956.69
405.28	1881.79
405.47	1966.05
405.66	1998.82
405.85	1952.01
406.05	1968.39
406.24	1994.14
406.43	2017.54
406.62	2022.22
406.81	2069.03
407.00	2076.06
407.20	1989.46
407.39	2115.84
407.58	2174.36
407.77	2160.31
407.96	2155.63
408.15	2263.30
408.34	2165.00
408.54	2270.32
408.73	2289.04
408.92	2356.92
409.11	2303.09
409.30	2394.37
409.49	2244.57
409.68	2214.15
409.87	2293.72
410.07	2298.41
410.26	2485.65
410.45	2476.29
410.64	2443.52
410.83	2356.92
411.02	2555.86
411.21	2595.65
411.40	2567.57
411.59	2658.85
411.78	2684.59
411.98	2633.10
412.17	2633.10
412.36	2637.78
412.55	2691.62
412.74	2736.09
412.93	2825.03
413.12	2757.15
413.31	2808.64
413.50	2855.45
413.69	2953.76
413.88	2923.33
414.07	2841.41
414.26	3002.91
414.45	2902.26
414.64	2963.12
414.83	3068.44
415.02	3077.80
415.22	3105.89
415.41	3070.78
415.60	3138.66
415.79	3290.79
415.98	3279.09
416.17	3346.97
416.36	3377.39
416.55	3192.49
416.74	3295.47
416.93	3293.13
417.12	3234.62
417.31	3356.33
417.50	3269.73
417.69	3445.27
417.88	3403.14
418.07	3574.00
418.26	3375.05
418.45	3590.38
418.64	3637.19
418.83	3538.89
419.02	3559.95
419.21	3667.62
419.39	3679.32
419.58	3536.55
419.77	3538.89
419.96	3662.94
420.15	3765.92
420.34	3674.64
420.53	3754.22
420.72	3929.76
420.91	3896.99
421.10	3779.97
421.29	3822.09
421.48	3857.20
421.67	3873.59
421.86	3777.62
422.05	3679.32
422.24	3751.88
422.43	3751.88
422.61	3896.99
422.80	3978.91
422.99	3772.94
423.18	4070.19
423.37	3918.06
423.56	4023.38
423.75	3939.12
423.94	3843.16
424.13	3735.50
424.32	3798.69
424.50	4065.51
424.69	4098.28
424.88	4053.81
425.07	3920.40
425.26	4002.32
425.45	3882.95
425.64	3873.59
425.83	3904.01
426.01	4173.18
426.20	4060.83
426.39	4161.47
426.58	3988.27
426.77	4051.47
426.96	4025.72
427.15	4095.94
427.33	4025.72
427.52	4095.94
427.71	4053.81
427.90	4121.68
428.09	4166.15
428.28	4147.43
428.46	4250.41
428.65	4102.96
428.84	4222.33
429.03	4283.18
429.22	4046.79
429.40	4133.39
429.59	4166.15
429.78	3885.29
429.97	3906.35
430.16	4032.74
430.34	4117.00
430.53	4145.09
430.72	4203.60
430.91	4222.33
431.10	4355.74
431.28	4594.47
431.47	4608.51
431.66	4737.24
431.85	4444.68
432.03	4620.22
432.22	4760.65
432.41	4697.46
432.60	4575.75
432.79	4685.75
432.97	4830.87
433.16	4889.38
433.35	4704.48
433.54	4652.98
433.72	4699.80
433.91	4781.71
434.10	4741.93
434.28	4779.37
434.47	4858.95
434.66	4880.02
434.85	5128.11
435.03	4924.49
435.22	4863.63
435.41	5205.35
435.59	4931.51
435.78	5109.39
435.97	5069.60
436.16	5123.43
436.34	5212.37
436.53	5181.95
436.72	5238.12
436.90	5205.35
437.09	5212.37
437.28	5181.95
437.46	5188.97
437.65	5153.86
437.84	5231.10
438.02	5193.65
438.21	5284.93
438.40	5146.84
438.58	5205.35
438.77	5423.02
438.96	5563.45
439.14	5607.92
439.33	5570.48
439.52	5699.20
439.70	5701.54
439.89	5708.57
440.08	5713.25
440.26	5715.59
440.45	5696.86
440.63	5959.00
440.82	6136.88
441.01	6085.39
441.19	5987.09
441.38	6195.40
441.57	6099.44
441.75	6122.84
441.94	6448.18
442.12	6167.31
442.31	6436.47
442.50	6473.92
442.68	6235.19
442.87	6253.91
443.05	6272.64
443.24	6417.75
443.43	6394.34
443.61	6604.99
443.80	6623.72
443.98	6324.13
444.17	6186.04
444.35	6525.41
444.54	6759.47
444.73	6555.84
444.91	6572.22
445.10	6595.63
445.28	6562.86
445.47	6539.46
445.65	6333.49
445.84	6658.82
446.02	6640.10
446.21	6581.59
446.39	6497.33
446.58	6710.32
446.77	6602.65
446.95	6546.48
447.14	6649.46
447.32	6722.02
447.51	6579.25
447.69	6707.98
447.88	6691.59
448.06	6640.10
448.25	6668.19
448.43	6918.62
448.62	6878.83
448.80	6792.23
448.99	7007.56
449.17	6808.62
449.36	6825.00
449.54	7037.99
449.73	7054.37
449.91	7332.90
450.10	7166.72
450.28	7332.90
450.46	7426.52
450.65	7365.67
450.83	7225.23
451.02	7138.63
451.20	7433.54
451.39	7248.64
451.57	7173.74
451.76	7070.76
451.94	7281.41
452.13	7283.75
452.31	7166.72
452.49	7201.83
452.68	7171.40
452.86	7241.62
453.05	7442.90
453.23	7281.41
453.42	7391.41
453.60	7311.83
453.78	7452.27
453.97	7281.41
454.15	7487.37
454.34	7372.69
454.52	7566.95
454.70	7508.44
454.89	7515.46
455.07	7470.99
455.26	7454.61
455.44	7723.77
455.62	7775.26
455.81	7719.09
455.99	7765.90
456.17	7873.56
456.36	7889.95
456.54	8025.70
456.73	8009.31
456.91	8259.75
457.09	8238.69
457.28	8180.17
457.46	8018.68
457.64	7962.50
457.83	8119.32
458.01	8194.22
458.19	8163.79
458.38	8386.14
458.56	8367.42
458.74	8116.98
458.93	8355.71
459.11	8219.96
459.29	8231.66
459.48	8615.51
459.66	8290.18
459.84	8402.52
460.03	8491.46
460.21	8423.59
460.39	8475.08
460.57	8692.75
460.76	8519.55
460.94	8739.56
461.12	8667.00
461.31	8552.32
461.49	8753.60
461.67	8613.17
461.85	8800.41
462.04	8699.77
462.22	9378.53
462.40	9128.09
462.59	8865.95
462.77	8912.76
462.95	8987.66
463.13	8784.03
463.32	8915.10
463.50	8875.31
463.68	9006.38
463.86	9018.08
464.05	8863.61
464.23	8784.03
464.41	9025.11
464.59	9085.96
464.78	9202.99
464.96	9149.15
465.14	9085.96
465.32	9214.69
465.50	9245.12
465.69	9240.44
465.87	9273.20
466.05	9383.21
466.23	9231.07
466.41	9092.98
466.60	9366.82
466.78	9170.22
466.96	9156.18
467.14	9247.46
467.32	9284.91
467.51	9404.27
467.69	9366.82
467.87	9476.83
468.05	9554.07
468.23	9521.30
468.41	9488.53
468.60	9748.33
468.78	9479.17
468.96	9430.02
469.14	9795.14
469.32	9638.33
469.50	9362.14
469.69	9769.40
469.87	9614.92
470.05	9998.77
470.23	9921.53
470.41	9966.00
470.59	9944.94
470.77	10015.15
470.95	9989.41
471.14	10394.32
471.32	9916.85
471.50	10202.40
471.68	10527.73
471.86	10207.08
472.04	10347.51
472.22	10588.58
472.40	10265.59
472.58	10249.21
472.77	10410.70
472.95	10553.48
473.13	10871.79
473.31	10480.92
473.49	10525.39
473.67	10626.03
473.85	10600.29
474.03	11084.78
474.21	10920.94
474.39	11040.31
474.57	10958.39
474.75	11227.55
474.93	11304.79
475.12	11328.19
475.30	11337.56
475.48	11176.06
475.66	11269.68
475.84	11466.28
476.02	11513.10
476.20	11424.15
476.38	11562.25
476.56	12081.85
476.74	11936.73
476.92	11770.55
477.10	11892.26
477.28	12098.23
477.46	12074.82
477.64	12451.65
477.82	12416.54
478.00	12493.78
478.18	12512.50
478.36	12847.20
478.54	12973.59
478.72	12755.92
478.90	12711.45
479.08	13371.48
479.26	13064.87
479.44	13004.02
479.62	13008.70
479.80	13048.49
479.98	13355.10
480.16	13673.41
480.34	13673.41
480.52	13741.29
480.70	13874.70
480.88	14008.11
481.06	13820.86
481.24	13998.74
481.41	14235.14
481.59	14324.08
481.77	14354.51
481.95	14310.04
482.13	14476.21
482.31	14672.82
482.49	14782.82
482.67	15005.17
482.85	15126.88
483.03	15264.97
483.21	15171.35
483.39	15302.42
483.57	15470.94
483.74	15393.70
483.92	15655.84
484.10	15452.22
484.28	15875.85
484.46	16430.56
484.64	16533.54
484.82	16095.86
485.00	16329.92
485.18	16402.47
485.35	16322.90
485.53	16379.07
485.71	16119.27
485.89	16304.17
486.07	16329.92
486.25	16798.02
486.43	17076.55
486.61	16982.93
486.78	17418.27
486.96	17455.72
487.14	17584.44
487.32	17774.03
487.50	17989.36
487.68	18141.49
487.85	18352.14
488.03	18635.35
488.21	18651.73
488.39	18707.90
488.57	18642.37
488.75	18948.98
488.92	19286.01
489.10	19442.83
489.28	19103.45
489.46	19885.19
489.64	19552.84
489.81	20105.20
489.99	20219.89
490.17	20320.53
490.35	20362.66
490.53	20365.00
490.70	20690.34
490.88	20409.47
491.06	21113.97
491.24	20692.68
491.41	20821.41
491.59	20711.40
491.77	21046.10
491.95	20767.57
492.13	21371.43
492.30	21846.56
492.48	21935.50
492.66	21682.72
492.84	22111.04
493.01	22125.08
493.19	22120.40
493.37	22263.18
493.54	22324.03
493.72	22993.42
493.90	22787.46
494.08	22785.12
494.25	23030.87
494.43	23232.16
494.61	23522.38
494.79	23522.38
494.96	23318.76
495.14	23325.78
495.32	23726.01
495.49	23868.78
495.67	24170.71
495.85	24016.24
496.02	24360.30
496.20	24348.59
496.38	24432.85
496.55	24751.17
496.73	25207.57
496.91	25027.35
497.09	24982.88
497.26	25069.48
497.44	25223.95
497.62	25348.00
497.79	25153.74
497.97	24999.26
498.14	25326.94
498.32	25720.15
498.50	25682.70
498.67	26024.42
498.85	26092.29
499.03	26211.66
499.20	26422.31
499.38	26209.32
499.56	26494.86
499.73	26513.59
499.91	26328.69
500.08	26455.08
500.26	26403.58
500.44	26843.60
500.61	26972.33
500.79	26759.34
500.97	27314.05
501.14	26962.97
501.32	27058.93
501.49	27335.12
501.67	27173.62
501.84	27747.05
502.02	27400.65
502.20	27981.10
502.37	28091.11
502.55	27688.54
502.72	28100.47
502.90	28023.23
503.07	28238.56
503.25	28208.14
503.43	27648.75
503.60	28121.54
503.78	28388.36
503.95	28151.96
504.13	28489.00
504.30	28690.29
504.48	28472.62
504.65	28868.17
504.83	29228.61
505.01	28985.19
505.18	29518.84
505.36	29411.17
505.53	29624.16
505.71	29497.77
505.88	29916.73
506.06	29322.23
506.23	29666.29
506.41	29355.00
506.58	29750.55
506.76	29860.55
506.93	29947.15
507.11	30057.16
507.28	30059.50
507.46	30012.69
507.63	30078.22
507.81	30087.59
507.98	30251.42
508.16	30045.46
508.33	30384.83
508.50	30457.39
508.68	30703.15
508.85	31426.37
509.03	30897.41
509.20	30899.75
509.38	31318.71
509.55	31449.78
509.73	31328.07
509.90	31519.99
510.08	31545.74
510.25	31882.78
510.42	31519.99
510.60	31854.69
510.77	31950.65
510.95	32161.30
511.12	32060.66
511.30	32315.78
511.47	32409.40
511.64	32140.24
511.82	32318.12
511.99	32514.72
512.17	32044.27
512.34	32025.55
512.51	32367.27
512.69	32912.61
512.86	32439.82
513.04	32694.94
513.21	32694.94
513.38	33401.79
513.56	33294.12
513.73	32907.93
513.90	33085.81
514.08	33259.01
514.25	33137.30
514.43	33287.10
514.60	33446.26
514.77	33144.33
514.95	33790.31
515.12	33439.23
515.29	33841.81
515.47	34232.68
515.64	33989.26
515.81	33783.29
515.99	33982.24
516.16	33706.05
516.33	33455.62
516.51	33762.23
516.68	33436.89
516.85	33209.86
517.03	33883.94
517.20	34117.99
517.37	33846.49
517.54	34684.40
517.72	34291.19
517.89	33795.00
518.06	34024.37
518.24	34284.17
518.41	34473.75
518.58	34576.73
518.75	34689.08
518.93	35037.82
519.10	34972.28
519.27	34742.91
519.45	35358.47
519.62	35526.99
519.79	35590.19
519.96	35461.46
520.14	35648.70
520.31	35508.27
520.48	35426.35
520.65	35749.34
520.83	35948.29
521.00	35971.69
521.17	35805.52
521.34	36018.50
521.52	36180.00
521.69	36329.80
521.86	36343.84
522.03	35962.33
522.20	36144.89
522.38	36524.06
522.55	36495.97
522.72	36369.58
522.89	36875.14
523.07	36708.96
523.24	36903.23
523.41	36678.54
523.58	36816.63
523.75	37481.34
523.92	37294.10
524.10	37247.29
524.27	37357.29
524.44	36987.49
524.61	37600.71
524.78	37518.79
524.96	37954.13
525.13	37357.29
525.30	37933.06
525.47	38007.96
525.64	37261.33
525.81	37378.36
525.98	37785.61
526.16	37315.16
526.33	37397.08
526.50	37462.61
526.67	37310.48
526.84	37237.92
527.01	37579.64
527.18	37376.01
527.36	38134.35
527.53	38000.94
527.70	38462.02
527.87	38497.13
528.04	37886.25
528.21	38780.34
528.38	38389.47
528.55	38817.78
528.72	38319.25
528.89	38969.92
529.07	38642.24
529.24	38473.73
529.41	38766.29
529.58	38323.93
529.75	39297.59
529.92	38960.56
530.09	39096.31
530.26	39384.19
530.43	39304.62
530.60	39253.12
530.77	39466.11
530.94	39487.18
531.11	38969.92
531.28	39496.54
531.46	39381.85
531.63	39702.51
531.80	39309.30
531.97	38843.53
532.14	39515.26
532.31	38820.13
532.48	39702.51
532.65	39501.22
532.82	39466.11
532.99	39784.43
533.16	39852.30
533.33	40158.91
533.50	40376.58
533.67	40018.48
533.84	40044.23
534.01	40140.19
534.18	40116.78
534.35	40694.89
534.52	40282.96
534.69	40254.87
534.86	40748.73
535.03	40559.14
535.20	41083.42
535.37	40753.41
535.54	41102.15
535.71	40896.18
535.88	40662.13
536.05	40589.57
536.22	40868.09
536.38	40950.01
536.55	40774.47
536.72	41153.64
536.89	40591.91
537.06	41043.63
537.23	41195.77
537.40	40730.00
537.57	40989.80
537.74	41163.00
537.91	41308.11
538.08	41469.61
538.25	41148.96
538.42	41031.93
538.59	41308.11
538.75	40823.62
538.92	41310.46
539.09	41390.03
539.26	41502.38
539.43	41633.45
539.60	41610.04
539.77	41399.40
539.94	41713.03
540.11	41265.99
540.28	41205.13
540.44	41563.23
540.61	41588.98
540.78	41333.86
540.95	41446.21
541.12	41305.77
541.29	41586.64
541.46	42061.77
541.62	41764.52
541.79	42368.38
541.96	41717.71
542.13	42171.77
542.30	41799.63
542.47	41937.72
542.63	42597.75
542.80	42237.31
542.97	42539.24
543.14	42986.28
543.31	42646.90
543.48	42569.66
543.64	42679.67
543.81	43028.41
543.98	42759.25
544.15	42494.77
544.32	42845.85
544.48	43082.24
544.65	42869.25
544.82	42637.54
544.99	42810.74
545.16	42686.69
545.32	43061.18
545.49	42892.66
545.66	43723.55
545.83	43150.12
546.00	43295.23
546.16	43173.52
546.33	42820.10
546.50	42988.62
546.67	43473.11
546.83	42532.22
547.00	42925.42
547.17	43079.90
547.34	43278.85
547.50	43023.73
547.67	43686.10
547.84	43414.60
548.00	43859.30
548.17	43810.15
548.34	43632.27
548.51	43737.59
548.67	43885.04
548.84	43531.62
549.01	43924.83
549.18	43491.83
549.34	43880.36
549.51	43702.48
549.68	43901.43
549.84	43695.46
550.01	44294.64
550.18	43629.93
550.34	43800.79
550.51	43962.28
550.68	43632.27
550.84	43585.46
551.01	44196.34
551.18	44109.74
551.34	44311.02
551.51	44304.00
551.68	44285.28
551.84	44488.90
552.01	43840.57
552.18	44257.19
552.34	44114.42
552.51	44278.25
552.68	44561.46
552.84	44622.31
553.01	44318.04
553.18	44226.76
553.34	44194.00
553.51	44528.69
553.67	44722.96
553.84	44769.77
554.01	45071.70
554.17	44886.79
554.34	44884.45
554.51	44444.43
554.67	44659.76
554.84	44739.34
555.00	44402.30
555.17	44907.86
555.33	44435.07
555.50	44849.35
555.67	44701.89
555.83	44512.31
556.00	45010.84
556.16	45055.31
556.33	44921.90
556.50	44882.11
556.66	44545.08
556.83	44746.36
556.99	44818.92
557.16	45137.23
557.32	44851.69
557.49	44839.98
557.65	44643.38
557.82	44978.07
557.98	45088.08
558.15	45158.30
558.32	45523.42
558.48	44547.42
558.65	44783.81
558.81	44828.28
558.98	45371.28
559.14	45123.19
559.31	44788.49
559.47	45055.31
559.64	45177.02
559.80	44889.13
559.97	45146.59
560.13	44980.42
560.30	44973.39
560.46	45191.06
560.63	45478.95
560.79	45214.47
560.96	45684.92
561.12	45261.28
561.29	44858.71
561.45	45130.21
561.61	45392.35
561.78	45511.72
561.94	45038.93
562.11	45205.11
562.27	45205.11
562.44	45509.38
562.60	45425.12
562.77	45940.04
562.93	45488.31
563.10	45815.99
563.26	45347.88
563.42	45855.78
563.59	45436.82
563.75	45460.23
563.92	45272.98
564.08	45223.83
564.24	45593.64
564.41	45359.58
564.57	46024.29
564.74	46103.87
564.90	45413.41
565.07	45680.24
565.23	45373.63
565.39	45111.49
565.56	45607.68
565.72	45415.76
565.88	45485.97
566.05	45357.24
566.21	45743.43
566.38	45546.82
566.54	45790.24
566.70	46340.27
566.87	45752.79
567.03	45687.26
567.19	45776.20
567.36	46178.77
567.52	45478.95
567.68	45619.38
567.85	45471.93
568.01	45558.53
568.17	45914.29
568.34	46309.84
568.50	45375.97
568.66	45537.46
568.83	45628.74
568.99	45827.69
569.15	46071.10
569.32	45441.50
569.48	45600.66
569.64	46546.23
569.81	45509.38
569.97	46047.70
570.13	45612.36
570.30	45284.68
570.46	45574.91
570.62	45532.78
570.78	45343.20
570.95	45993.87
571.11	45874.50
571.27	45787.90
571.43	45120.85
571.60	45879.18
571.76	45890.88
571.92	45888.54
572.09	45673.21
572.25	46321.54
572.41	46066.42
572.57	46424.53
572.74	46043.02
572.90	45684.92
573.06	45867.48
573.22	45940.04
573.38	45764.49
573.55	45628.74
573.71	45895.56
573.87	46031.32
574.03	45556.19
574.20	46244.30
574.36	45806.62
574.52	45949.40
574.68	45319.79
574.84	45998.55
575.01	45755.13
575.17	45652.15
575.33	46052.38
575.49	45785.56
575.65	46211.54
575.82	46146.00
575.98	45933.01
576.14	46108.55
576.30	46073.45
576.46	46164.73
576.62	45689.60
576.79	45769.18
576.95	45869.82
577.11	45844.07
577.27	46096.85
577.43	46124.94
577.59	45682.58
577.75	45858.12
577.92	45413.41
578.08	45572.57
578.24	45647.47
578.40	45647.47
578.56	45867.48
578.72	46028.98
578.88	46031.32
579.04	46099.19
579.21	45970.46
579.37	46014.93
579.53	45911.95
579.69	45743.43
579.85	46021.95
580.01	45872.16
580.17	46337.93
580.33	45823.01
580.49	46124.94
580.65	46277.07
580.82	46328.56
580.98	45429.80
581.14	45759.81
581.30	45923.65
581.46	46143.66
581.62	46061.74
581.78	46068.76
581.94	46595.38
582.10	46377.72
582.26	46237.28
582.42	46256.01
582.58	46003.23
582.74	45811.31
582.90	46199.83
583.06	46387.08
583.22	46181.11
583.38	46323.88
583.54	45968.12
583.70	46244.30
583.86	46026.63
584.02	45645.13
584.18	46459.63
584.34	45820.67
584.50	45862.80
584.66	45893.22
584.82	45769.18
584.98	46272.39
585.14	46124.94
585.30	46267.71
585.46	45750.45
585.62	45743.43
585.78	46307.50
585.94	45677.90
586.10	45848.75
586.26	45588.95
586.42	46328.56
586.58	46113.23
586.74	46087.49
586.90	46178.77
587.06	45897.91
587.22	46043.02
587.38	46094.51
587.54	46021.95
587.70	45984.51
587.86	46244.30
588.02	45701.30
588.18	46241.96
588.34	45291.71
588.49	45935.35
588.65	45457.88
588.81	45851.09
588.97	45717.68
589.13	45762.15
589.29	46171.75
589.45	45544.48
589.61	46061.74
589.77	46036.00
589.93	46473.68
590.08	46398.78
590.24	46141.32
590.40	45984.51
590.56	46621.13
590.72	46267.71
590.88	46026.63
591.04	46417.50
591.20	46705.39
591.35	46459.63
591.51	46396.44
591.67	46106.21
591.83	46373.03
591.99	45911.95
592.15	45940.04
592.31	46167.07
592.46	46398.78
592.62	46258.35
592.78	46188.13
592.94	46258.35
593.10	46321.54
593.26	46550.91
593.41	46351.97
593.57	46136.64
593.73	46150.68
593.89	46447.93
594.05	46333.24
594.20	45963.44
594.36	46564.96
594.52	46511.13
594.68	46611.77
594.84	46045.36
594.99	46354.31
595.15	46274.73
595.31	46705.39
595.47	46050.04
595.62	46312.18
595.78	46483.04
595.94	46117.92
596.10	46096.85
596.25	46340.27
596.41	46593.04
596.57	46073.45
596.73	46209.20
596.88	46094.51
597.04	46756.88
597.20	45839.39
597.36	46691.35
597.51	46511.13
597.67	46543.89
597.83	46241.96
597.99	46735.82
598.14	46258.35
598.30	46328.56
598.46	46064.08
598.61	46244.30
598.77	46391.76
598.93	46239.62
599.09	46600.07
599.24	46433.89
599.40	46433.89
599.56	46073.45
599.71	46078.13
599.87	46515.81
600.03	46340.27
600.18	46209.20
600.34	46183.45
600.50	46340.27
600.65	46272.39
600.81	46277.07
600.97	46344.95
601.12	46272.39
601.28	45963.44
601.44	46422.19
601.59	46024.29
601.75	45982.16
601.91	46234.94
602.06	46122.60
602.22	46319.20
602.37	46319.20
602.53	46377.72
602.69	46232.60
602.84	46328.56
603.00	46532.19
603.16	46043.02
603.31	46195.15
603.47	45977.48
603.62	45830.03
603.78	46452.61
603.94	46564.96
604.09	46476.02
604.25	46099.19
604.40	46724.11
604.56	46031.32
604.71	46075.79
604.87	46342.61
605.03	46265.37
605.18	45366.60
605.34	46113.23
605.49	45521.08
605.65	45937.69
605.80	45933.01
605.96	46333.24
606.12	46127.28
606.27	46539.21
606.43	45874.50
606.58	45881.52
606.74	46066.42
606.89	45923.65
607.05	46190.47
607.20	46012.59
607.36	46347.29
607.51	45972.80
607.67	45792.58
607.82	46225.58
607.98	45801.94
608.13	46117.92
608.29	45827.69
608.44	45504.70
608.60	45390.01
608.75	45752.79
608.91	46012.59
609.06	45633.42
609.22	45853.44
609.37	45752.79
609.53	45914.29
609.68	45961.10
609.84	46330.90
609.99	45755.13
610.15	45743.43
610.30	45720.02
610.46	45567.89
610.61	45090.42
610.76	45495.33
610.92	46071.10
611.07	45308.09
611.23	45895.56
611.38	45853.44
611.54	45443.84
611.69	45392.35
611.84	45130.21
612.00	45584.27
612.15	45446.18
612.31	45614.70
612.46	45209.79
612.62	45710.66
612.77	45296.39
612.92	45415.76
613.08	45050.63
613.23	44800.19
613.39	44652.74
613.54	44643.38
613.69	44912.54
613.85	44823.60
614.00	45345.54
614.15	45272.98
614.31	45088.08
614.46	45261.28
614.62	45118.51
614.77	45024.89
614.92	45144.25
615.08	44748.70
615.23	45146.59
615.38	45162.98
615.54	45083.40
615.69	44957.01
615.84	45034.25
616.00	44814.24
616.15	44664.44
616.30	44514.65
616.46	44442.09
616.61	44598.91
616.76	44643.38
616.92	44612.95
617.07	44790.83
617.22	44603.59
617.37	44224.42
617.53	44626.99
617.68	45013.18
617.83	44460.82
617.99	44744.02
618.14	44559.12
618.29	44603.59
618.45	44266.55
618.60	44470.18
618.75	44346.13
618.90	44261.87
619.06	44072.29
619.21	44116.76
619.36	44453.79
619.51	44236.12
619.67	44261.87
619.82	44264.21
619.97	44472.52
620.12	43903.77
620.28	43697.80
620.43	43976.33
620.58	44556.78
620.73	44004.41
620.89	43728.23
621.04	44212.72
621.19	43971.64
621.34	43917.81
621.49	44093.35
621.65	43742.27
621.80	44369.54
621.95	44062.93
622.10	43702.48
622.25	44098.03
622.41	44271.23
622.56	43583.12
622.71	44137.82
622.86	43845.26
623.01	43751.63
623.16	43693.12
623.32	43892.07
623.47	43868.66
623.62	43639.29
623.77	43393.53
623.92	43407.58
624.07	43262.46
624.23	43377.15
624.38	43353.74
624.53	43091.60
624.68	43477.79
624.83	43650.99
624.98	43182.88
625.13	43180.54
625.29	43208.63
625.44	43133.73
625.59	43023.73
625.74	42967.55
625.89	42576.69
626.04	43096.28
626.19	42925.42
626.34	42749.88
626.49	43065.86
626.65	43510.56
626.80	42897.34
626.95	43110.33
627.10	42471.36
627.25	43164.16
627.40	42651.58
627.55	42670.31
627.70	42127.30
627.85	42646.90
628.00	42679.67
628.15	42663.28
628.30	42703.07
628.45	42799.04
628.60	42710.10
628.76	42855.21
628.91	42623.50
629.06	42174.11
629.21	42220.92
629.36	42225.60
629.51	42148.37
629.66	42466.68
629.81	42185.82
629.96	42190.50
630.11	42202.20
630.26	42326.25
630.41	42511.15
630.56	42384.76
630.71	42555.62
630.86	42438.59
631.01	41968.15
631.16	41954.10
631.31	41837.08
631.46	41731.75
631.61	41687.28
631.76	41736.43
631.91	41893.25
632.06	42136.66
632.21	41834.74
632.36	42003.25
632.51	41710.69
632.66	42469.02
632.81	41607.70
632.96	41673.24
633.10	42043.04
633.25	41745.80
633.40	42293.48
633.55	42036.02
633.70	41727.07
633.85	41663.88
634.00	41799.63
634.15	41518.76
634.30	41586.64
634.45	41731.75
634.60	41839.42
634.75	41626.43
634.90	41230.88
635.05	41469.61
635.19	41495.36
635.34	41483.66
635.49	41378.33
635.64	40921.93
635.79	41188.75
635.94	41045.97
636.09	41090.44
636.24	41017.89
636.39	41202.79
636.53	41310.46
636.68	40940.65
636.83	41223.86
636.98	41282.37
637.13	40725.32
637.28	41170.02
637.43	41441.53
637.57	41104.49
637.72	40842.35
637.87	41092.79
638.02	40608.29
638.17	40809.58
638.32	40968.74
638.46	40662.13
638.61	40849.37
638.76	40488.93
638.91	40713.62
639.06	40851.71
639.20	41223.86
639.35	40753.41
639.50	40545.10
639.65	40744.05
639.80	40669.15
639.94	40699.58
640.09	40713.62
640.24	40512.33
640.39	40275.94
640.54	40432.75
640.68	40154.23
640.83	40247.85
640.98	40353.18
641.13	40236.15
641.27	40327.43
641.42	40428.07
641.57	40247.85
641.72	40481.91
641.86	40151.89
642.01	40201.04
642.16	39765.70
642.31	39887.41
642.45	40170.61
642.60	39545.69
642.75	40224.45
642.90	39957.63
643.04	40032.52
643.19	40098.06
643.34	39838.26
643.48	40151.89
643.63	39704.85
643.78	40048.91
643.93	40121.46
644.07	39580.80
644.22	39625.27
644.37	39363.13
644.51	40069.97
644.66	39782.09
644.81	39683.78
644.95	40172.96
645.10	39374.83
645.25	39475.48
645.39	39550.37
645.54	38934.81
645.69	39594.84
645.83	39033.11
645.98	39269.51
646.13	39255.46
646.27	39304.62
646.42	39599.52
646.57	39119.71
646.71	39517.60
646.86	39503.56
647.00	39210.99
647.15	39552.71
647.30	39227.38
647.44	39421.64
647.59	38808.42
647.74	38534.58
647.88	39159.50
648.03	39147.80
648.17	38836.51
648.32	38831.83
648.47	39569.10
648.61	38684.37
648.76	39058.86
648.90	38763.95
649.05	38665.65
649.20	38857.57
649.34	39009.71
649.49	38663.31
649.63	38770.97
649.78	38967.58
649.92	38768.63
650.07	39159.50
650.21	38728.84
650.36	38810.76
650.51	38431.60
650.65	38756.93
650.80	39442.71
650.94	38644.59
651.09	38565.01
651.23	38455.00
651.38	37982.21
651.52	38504.15
651.67	38171.80
651.81	37818.38
651.96	38455.00
652.10	38391.81
652.25	38293.50
652.39	38635.22
652.54	38396.49
652.68	38410.53
652.83	38134.35
652.97	38356.70
653.12	38279.46
653.26	37820.72
653.41	37787.95
653.55	38199.88
653.70	37968.17
653.84	38110.94
653.99	37851.14
654.13	37785.61
654.27	37926.04
654.42	37855.82
654.56	37785.61
654.71	37874.55
654.85	37542.19
655.00	37846.46
655.14	37551.56
655.29	37266.01
655.43	37738.80
655.57	37076.43
655.72	37479.00
655.86	37008.55
656.01	36996.85
656.15	37031.96
656.30	37242.60
656.44	37099.83
656.58	37551.56
656.73	37036.64
656.87	37315.16
657.01	37216.86
657.16	37373.67
657.30	36779.18
657.45	36837.69
657.59	37441.55
657.73	37666.24
657.88	37420.48
658.02	37022.59
658.16	37476.66
658.31	36896.20
658.45	37523.47
658.60	36673.85
658.74	37301.12
658.88	37038.98
659.03	36727.69
659.17	36613.00
659.31	36336.82
659.46	36505.34
659.60	36463.21
659.74	36779.18
659.89	36458.52
660.03	36641.09
660.17	36627.04
660.32	36343.84
660.46	36355.54
660.60	36795.56
660.74	36442.14
660.89	36531.08
661.03	35948.29
661.17	36627.04
661.32	35976.37
661.46	36301.71
661.60	35913.18
661.74	36212.77
661.89	35775.09
662.03	36357.88
662.17	36027.87
662.31	35786.79
662.46	36135.53
662.60	36027.87
662.74	36135.53
662.88	35849.99
663.03	35358.47
663.17	35988.08
663.31	35538.69
663.45	35487.20
663.60	35407.62
663.74	35669.76
663.88	35536.35
664.02	35592.53
664.17	35395.92
664.31	35655.72
664.45	35005.05
664.59	35211.02
664.73	34998.03
664.88	34771.00
665.02	34450.35
665.16	34817.81
665.30	34553.33
665.44	34508.86
665.59	34143.74
665.73	34923.13
665.87	34541.63
666.01	34717.17
666.15	34572.05
666.29	34689.08
666.44	34499.50
666.58	34581.42
666.72	34614.18
666.86	34466.73
667.00	33926.07
667.14	34143.74
667.28	34356.72
667.43	34080.54
667.57	33865.21
667.71	33799.68
667.85	33975.22
667.99	33954.15
668.13	34080.54
668.27	34146.08
668.41	34047.77
668.56	33853.51
668.70	33654.56
668.84	33366.68
668.98	33460.30
669.12	33703.71
669.26	33490.73
669.40	33439.23
669.54	33422.85
669.68	32987.51
669.82	32835.38
669.96	33041.34
670.10	33149.01
670.25	33282.42
670.39	33193.48
670.53	33237.95
670.67	32943.04
670.81	32641.11
670.95	32467.91
671.09	32837.72
671.23	32584.94
671.37	32570.90
671.51	32442.17
671.65	32341.52
671.79	32084.06
671.93	32439.82
672.07	31786.82
672.21	32173.00
672.35	31917.89
672.49	32030.23
672.63	31945.97
672.77	31831.29
672.91	31960.02
673.05	31732.98
673.19	31487.23
673.33	31587.87
673.47	31674.47
673.61	31468.50
673.75	31070.61
673.89	31278.92
674.03	31438.08
674.17	31325.73
674.31	31391.26
674.45	31346.79
674.59	31189.98
674.73	31161.89
674.87	31049.55
675.01	31117.42
675.15	30700.81
675.29	30733.57
675.43	31002.74
675.56	30923.16
675.70	30398.88
675.84	30726.55
675.98	29390.11
676.12	30389.52
676.26	30565.06
676.40	30010.35
676.54	30499.52
676.68	30267.81
676.82	30080.56
676.96	30052.48
677.10	29893.32
677.23	29986.94
677.37	29350.32
677.51	29270.74
677.65	29305.85
677.79	28952.43
677.93	29116.26
678.07	28945.41
678.21	28669.22
678.34	28376.66
678.48	28456.23
678.62	28198.77
678.76	28641.14
678.90	28301.76
679.04	28187.07
679.18	27974.08
679.31	27885.14
679.45	27686.20
679.59	27960.04
679.73	28084.09
679.87	27885.14
680.00	27985.79
680.14	27765.78
680.28	27559.81
680.42	27653.43
680.56	27644.07
680.70	27487.25
680.83	27372.57
680.97	27356.18
681.11	27393.63
681.25	27164.26
681.39	26953.61
681.52	27285.97
681.66	26852.97
681.80	26705.51
681.94	26724.24
682.07	26504.23
682.21	26459.76
682.35	26574.44
682.49	26209.32
682.62	26113.36
682.76	26174.21
682.90	26024.42
683.04	25996.33
683.17	25778.66
683.31	25427.58
683.45	25593.76
683.59	25614.82
683.72	25617.16
683.86	25582.06
684.00	25055.43
684.13	24989.90
684.27	24973.52
684.41	25282.47
684.55	24774.57
684.68	24938.41
684.82	25017.99
684.96	24533.50
685.09	24812.02
685.23	24608.39
685.37	24657.54
685.50	24535.84
685.64	24627.12
685.78	24278.38
685.91	23882.83
686.05	24484.34
686.19	23920.28
686.32	23768.14
686.46	23381.95
686.60	23089.38
686.73	22967.68
686.87	23147.90
687.01	23094.07
687.14	23307.05
687.28	22766.39
687.42	22766.39
687.55	22857.67
687.69	23087.04
687.82	22731.28
687.96	22672.77
688.10	22635.32
688.23	22735.96
688.37	22515.95
688.50	22464.46
688.64	22586.17
688.78	22317.01
688.91	22244.45
689.05	22169.55
689.18	21626.55
689.32	21378.45
689.46	22108.70
689.59	22010.40
689.73	21998.70
689.86	21778.68
690.00	21703.79
690.13	21603.14
690.27	21172.49
690.41	21582.08
690.54	21041.42
690.68	21411.22
690.81	21282.49
690.95	21427.60
691.08	21385.47
691.22	20793.32
691.35	21069.50
691.49	20645.87
691.62	20865.88
691.76	20519.48
691.89	20676.29
692.03	20414.15
692.16	20524.16
692.30	20311.17
692.43	20276.06
692.57	20133.29
692.70	20116.90
692.84	19674.54
692.97	19515.39
693.11	19566.88
693.24	19552.84
693.38	19370.27
693.51	19531.77
693.65	19793.91
693.78	19676.88
693.92	19260.27
694.05	19346.87
694.19	19021.53
694.32	19047.28
694.45	19412.40
694.59	19255.59
694.72	19023.87
694.86	19012.17
694.99	18939.62
695.13	18745.35
695.26	18544.06
695.39	18532.36
695.53	18555.77
695.66	18576.83
695.80	18326.39
695.93	18380.23
696.07	18417.68
696.20	18036.17
696.33	18342.78
696.47	18073.62
696.60	17839.56
696.73	17579.76
696.87	17860.63
697.00	17696.79
697.14	17589.13
697.27	17149.11
697.40	17439.33
697.54	17167.83
697.67	17242.73
697.80	17172.51
697.94	17027.40
698.07	17191.23
698.21	17111.66
698.34	17509.55
698.47	17137.40
698.61	16709.08
698.74	16755.90
698.87	16683.34
699.01	16414.18
699.14	16224.59
699.27	16456.31
699.40	16479.71
699.54	16091.18
699.67	15974.16
699.80	15939.05
699.94	15929.69
700.07	16322.90
700.20	16130.97
700.34	15871.17
700.47	15939.05
700.60	15887.56
700.73	16009.26
700.87	15620.74
701.00	15585.63
701.13	15564.56
701.26	15466.26
701.40	15229.87
701.53	15133.90
701.66	15014.54
701.79	14927.94
701.93	14794.53
702.06	15115.18
702.19	14719.63
702.32	14665.80
702.46	15154.97
702.59	14743.03
702.72	14876.44
702.85	14600.26
702.99	14672.82
703.12	14319.40
703.25	14195.35
703.38	14501.96
703.51	14312.38
703.65	14263.22
703.78	14132.15
703.91	13598.51
704.04	13961.30
704.17	13980.02
704.31	13933.21
704.44	13762.35
704.57	13717.88
704.70	13554.04
704.83	13532.98
704.96	13834.91
705.10	13568.09
705.23	13345.73
>>>>>End Processed Spectral Data<<<<<
