SpectraSuite Data File
++++++++++++++++++++++++++++++++++++
Date: Fri Oct 25 10:48:33 EDT 2013
User: price-jones
Dark Spectrum Present: No
Reference Spectrum Present: No
Number of Sampled Component Spectra: 1
Spectrometers: USB2+H05261
Integration Time (usec): 100000 (USB2+H05261)
Spectra Averaged: 1 (USB2+H05261)
Boxcar Smoothing: 0 (USB2+H05261)
Correct for Electrical Dark: No (USB2+H05261)
Strobe/Lamp Enabled: No (USB2+H05261)
Correct for Detector Non-linearity: No (USB2+H05261)
Correct for Stray Light: No (USB2+H05261)
Number of Pixels in Processed Spectrum: 2048
>>>>>Begin Processed Spectral Data<<<<<
365.73	140.43
365.92	140.43
366.12	140.43
366.32	67.88
366.52	95.96
366.72	77.24
366.91	51.49
367.11	32.77
367.31	46.81
367.51	0.00
367.70	149.79
367.90	35.11
368.10	0.00
368.30	60.85
368.49	0.00
368.69	58.51
368.89	56.17
369.09	2.34
369.28	46.81
369.48	133.41
369.68	135.75
369.87	117.03
370.07	140.43
370.27	170.86
370.47	236.39
370.66	374.49
370.86	463.43
371.06	479.81
371.25	454.06
371.45	416.62
371.65	444.70
371.84	493.85
372.04	489.17
372.24	451.72
372.44	449.38
372.63	573.43
372.83	554.71
373.03	543.00
373.22	552.37
373.42	606.20
373.62	519.60
373.81	531.30
374.01	564.07
374.21	634.29
374.40	599.18
374.60	692.80
374.79	561.73
374.99	624.92
375.19	592.16
375.38	524.28
375.58	657.69
375.78	634.29
375.97	617.90
376.17	737.27
376.37	688.12
376.56	617.90
376.76	620.24
376.95	676.41
377.15	662.37
377.35	678.76
377.54	702.16
377.74	671.73
377.93	674.07
378.13	711.52
378.33	660.03
378.52	725.57
378.72	688.12
378.91	615.56
379.11	671.73
379.31	709.18
379.50	622.58
379.70	683.44
379.89	730.25
380.09	746.63
380.28	772.38
380.48	763.01
380.68	699.82
380.87	734.93
381.07	753.65
381.26	781.74
381.46	812.17
381.65	779.40
381.85	746.63
382.04	807.48
382.24	669.39
382.43	772.38
382.63	739.61
382.83	741.95
383.02	725.57
383.22	744.29
383.41	784.08
383.61	774.72
383.80	875.36
384.00	833.23
384.19	847.27
384.39	858.98
384.58	767.70
384.78	828.55
384.97	842.59
385.17	840.25
385.36	856.64
385.56	851.96
385.75	760.67
385.95	856.64
386.14	821.53
386.34	917.49
386.53	936.21
386.72	875.36
386.92	910.47
387.11	1036.86
387.31	880.04
387.50	870.68
387.70	922.17
387.89	976.00
388.09	898.77
388.28	992.39
388.48	931.53
388.67	1053.24
388.86	947.92
389.06	1057.92
389.25	1048.56
389.45	1039.20
389.64	1020.47
389.84	983.02
390.03	1095.37
390.22	1109.41
390.42	1097.71
390.61	990.05
390.81	1125.80
391.00	994.73
391.19	1095.37
391.39	1186.65
391.58	1116.44
391.78	1109.41
391.97	1093.03
392.16	1050.90
392.36	1137.50
392.55	1076.65
392.75	1067.28
392.94	1050.90
393.13	1041.54
393.33	1050.90
393.52	1184.31
393.71	1104.73
393.91	1088.35
394.10	1163.25
394.29	1128.14
394.49	1240.48
394.68	1217.08
394.88	1200.69
395.07	1308.36
395.26	1282.61
395.46	1235.80
395.65	1355.17
395.84	1214.74
396.04	1299.00
396.23	1203.04
396.42	1268.57
396.62	1224.10
396.81	1259.21
397.00	1315.38
397.19	1364.53
397.39	1437.09
397.58	1345.81
397.77	1448.79
397.97	1455.81
398.16	1476.88
398.35	1500.28
398.55	1626.67
398.74	1526.03
398.93	1540.07
399.12	1558.80
399.32	1544.75
399.51	1589.22
399.70	1593.90
399.90	1654.76
400.09	1621.99
400.28	1596.25
400.47	1682.85
400.67	1795.19
400.86	1680.50
401.05	1739.02
401.24	1778.81
401.44	1729.66
401.63	1771.79
401.82	1820.94
402.01	1739.02
402.21	1769.44
402.40	1820.94
402.59	1778.81
402.78	1799.87
402.97	1865.41
403.17	1877.11
403.36	1858.39
403.55	1930.94
403.74	1982.43
403.93	1977.75
404.13	1842.00
404.32	1886.47
404.51	1849.02
404.70	2029.24
404.89	1923.92
405.09	2066.69
405.28	2012.86
405.47	2022.22
405.66	1975.41
405.85	2005.84
406.05	2057.33
406.24	2132.23
406.43	2148.61
406.62	2134.57
406.81	2186.06
407.00	2101.80
407.20	2071.37
407.39	2167.34
407.58	2232.87
407.77	2221.17
407.96	2326.49
408.15	2340.54
408.34	2251.60
408.54	2434.16
408.73	2300.75
408.92	2335.85
409.11	2410.75
409.30	2319.47
409.49	2370.96
409.68	2338.20
409.87	2359.26
410.07	2403.73
410.26	2410.75
410.45	2504.37
410.64	2530.12
410.83	2581.61
411.02	2588.63
411.21	2696.30
411.40	2672.89
411.59	2649.49
411.78	2623.74
411.98	2623.74
412.17	2761.83
412.36	2745.45
412.55	2750.13
412.74	2867.16
412.93	2860.13
413.12	2799.28
413.31	2991.20
413.50	2909.29
413.69	2944.39
413.88	2869.50
414.07	2988.86
414.26	2977.16
414.45	3080.14
414.64	3040.36
414.83	3150.36
415.02	3108.23
415.22	3178.45
415.41	3183.13
415.60	3234.62
415.79	3318.88
415.98	3332.92
416.17	3332.92
416.36	3260.37
416.55	3260.37
416.74	3302.50
416.93	3370.37
417.12	3482.72
417.31	3363.35
417.50	3361.01
417.69	3583.36
417.88	3585.70
418.07	3522.51
418.26	3548.25
418.45	3499.10
418.64	3604.42
418.83	3611.45
419.02	3634.85
419.21	3779.97
419.39	3641.87
419.58	3712.09
419.77	3695.71
419.96	3772.94
420.15	3861.88
420.34	3777.62
420.53	3948.48
420.72	3941.46
420.91	3976.57
421.10	3904.01
421.29	3932.10
421.48	3843.16
421.67	3985.93
421.86	3964.87
422.05	3873.59
422.24	3950.82
422.43	3922.74
422.61	3875.93
422.80	3957.85
422.99	3941.46
423.18	3997.64
423.37	4154.45
423.56	4060.83
423.75	4046.79
423.94	3920.40
424.13	3878.27
424.32	3948.48
424.50	4112.32
424.69	3983.59
424.88	4252.75
425.07	3950.82
425.26	3941.46
425.45	4086.58
425.64	4168.49
425.83	4056.15
426.01	4243.39
426.20	4088.92
426.39	4212.96
426.58	4086.58
426.77	4079.55
426.96	4145.09
427.15	4219.99
427.33	4175.52
427.52	4028.06
427.71	4266.80
427.90	4252.75
428.09	4124.02
428.28	4187.22
428.46	4365.10
428.65	4219.99
428.84	4437.66
429.03	4365.10
429.22	4138.07
429.40	4243.39
429.59	4093.60
429.78	4049.13
429.97	4044.45
430.16	4133.39
430.34	4210.62
430.53	4184.88
430.72	4285.52
430.91	4189.56
431.10	4418.93
431.28	4812.14
431.47	4751.29
431.66	4732.56
431.85	4629.58
432.03	4610.86
432.22	4877.68
432.41	4905.76
432.60	4802.78
432.79	4985.34
432.97	4748.95
433.16	4868.31
433.35	4800.44
433.54	4849.59
433.72	4929.17
433.91	4753.63
434.10	4882.36
434.28	4945.55
434.47	4952.57
434.66	4950.23
434.85	5064.92
435.03	5181.95
435.22	5008.75
435.41	5371.53
435.59	5144.50
435.78	5331.74
435.97	5324.72
436.16	5336.42
436.34	5387.91
436.53	5240.46
436.72	5446.43
436.90	5210.03
437.09	5296.63
437.28	5373.87
437.46	5348.12
437.65	5441.75
437.84	5458.13
438.02	5177.26
438.21	5453.45
438.40	5334.08
438.58	5488.56
438.77	5572.82
438.96	5523.66
439.14	5638.35
439.33	5626.65
439.52	5783.46
439.70	5799.85
439.89	5682.82
440.08	5888.79
440.26	5980.07
440.45	5776.44
440.63	6064.33
440.82	6104.12
441.01	6033.90
441.19	6225.82
441.38	6164.97
441.57	6181.35
441.75	6289.02
441.94	6471.58
442.12	6511.37
442.31	6609.67
442.50	6525.41
442.68	6504.35
442.87	6502.01
443.05	6406.05
443.24	6715.00
443.43	6602.65
443.61	6686.91
443.80	6775.85
443.98	6417.75
444.17	6340.51
444.35	6612.01
444.54	6654.14
444.73	6679.89
444.91	6656.48
445.10	6665.85
445.28	6356.90
445.47	6523.07
445.65	6537.12
445.84	6836.70
446.02	6815.64
446.21	6782.87
446.39	6860.11
446.58	6970.12
446.77	6981.82
446.95	6813.30
447.14	6927.99
447.32	6888.20
447.51	6935.01
447.69	6750.10
447.88	6925.65
448.06	7005.22
448.25	6967.77
448.43	7030.97
448.62	6796.92
448.80	6986.50
448.99	7023.95
449.17	7133.95
449.36	7096.50
449.54	7014.59
449.73	7129.27
449.91	7279.07
450.10	7531.84
450.28	7360.98
450.46	7447.58
450.65	7569.29
450.83	7527.16
451.02	7325.88
451.20	7592.70
451.39	7393.75
451.57	7506.10
451.76	7527.16
451.94	7382.05
452.13	7438.22
452.31	7461.63
452.49	7405.46
452.68	7393.75
452.86	7337.58
453.05	7522.48
453.23	7517.80
453.42	7496.74
453.60	7372.69
453.78	7693.34
453.97	7543.55
454.15	7620.78
454.34	7597.38
454.52	7705.04
454.70	7765.90
454.89	7723.77
455.07	7864.20
455.26	7775.26
455.44	7857.18
455.62	7889.95
455.81	7971.86
455.99	8049.10
456.17	7971.86
456.36	8035.06
456.54	8215.28
456.73	8283.16
456.91	8355.71
457.09	8175.49
457.28	8465.72
457.46	8297.20
457.64	8348.69
457.83	8271.45
458.01	8308.90
458.19	8500.83
458.38	8325.29
458.56	8559.34
458.74	8568.70
458.93	8468.06
459.11	8409.54
459.29	8617.85
459.48	8662.32
459.66	8662.32
459.84	8489.12
460.03	8669.34
460.21	8842.54
460.39	8854.25
460.57	8837.86
460.76	8901.06
460.94	8734.88
461.12	9025.11
461.31	8858.93
461.49	8964.25
461.67	8994.68
461.85	9048.51
462.04	8990.00
462.22	9640.67
462.40	9186.60
462.59	8980.64
462.77	9284.91
462.95	9029.79
463.13	9060.21
463.32	8910.42
463.50	9270.86
463.68	9294.27
463.86	9296.61
464.05	9263.84
464.23	9179.58
464.41	9338.74
464.59	9132.77
464.78	9575.13
464.96	9301.29
465.14	9320.01
465.32	9465.13
465.50	9640.67
465.69	9521.30
465.87	9561.09
466.05	9507.26
466.23	9448.74
466.41	9547.05
466.60	9589.17
466.78	9399.59
466.96	9804.50
467.14	9572.79
467.32	9823.23
467.51	9804.50
467.69	9378.53
467.87	9710.88
468.05	10078.35
468.23	9617.26
468.41	9755.35
468.60	9895.78
468.78	10054.94
468.96	9682.80
469.14	9874.72
469.32	9996.43
469.50	9664.07
469.69	10181.33
469.87	9987.07
470.05	9940.26
470.23	10153.24
470.41	10033.88
470.59	10356.87
470.77	10090.05
470.95	10083.03
471.14	10597.95
471.32	10256.23
471.50	10396.66
471.68	10771.15
471.86	10466.88
472.04	10740.72
472.22	10902.22
472.40	10537.09
472.58	10569.86
472.77	10810.93
472.95	10843.70
473.13	11035.63
473.31	10853.06
473.49	10911.58
473.67	10801.57
473.85	10930.30
474.03	11351.60
474.21	11332.87
474.39	11417.13
474.57	11515.44
474.75	11487.35
474.93	11403.09
475.12	11552.88
475.30	11822.05
475.48	11442.88
475.66	11688.64
475.84	11515.44
476.02	11826.73
476.20	11571.61
476.38	11798.64
476.56	12187.17
476.74	12173.13
476.92	12336.96
477.10	12154.40
477.28	12290.15
477.46	12442.29
477.64	12528.89
477.82	12741.88
478.00	13004.02
478.18	12896.35
478.36	12931.46
478.54	12994.65
478.72	13050.83
478.90	13455.74
479.08	13458.08
479.26	13327.01
479.44	13479.15
479.62	13591.49
479.80	13907.46
479.98	13738.94
480.16	14108.75
480.34	13884.06
480.52	14024.49
480.70	14075.98
480.88	13909.80
481.06	14305.35
481.24	14359.19
481.41	14721.97
481.59	14551.11
481.77	14916.23
481.95	14733.67
482.13	15033.26
482.31	14616.65
482.49	15300.08
482.67	15208.80
482.85	15632.44
483.03	15704.99
483.21	15562.22
483.39	15747.12
483.57	15812.66
483.74	15950.75
483.92	15812.66
484.10	15946.07
484.28	16297.15
484.46	16432.90
484.64	16730.15
484.82	16638.87
485.00	16554.61
485.18	17027.40
485.35	16762.92
485.53	16662.27
485.71	16477.37
485.89	16842.50
486.07	16992.29
486.25	17212.30
486.43	16996.97
486.61	17640.62
486.78	17778.71
486.96	18171.92
487.14	18249.16
487.32	18401.29
487.50	18424.70
487.68	18778.12
487.85	18754.71
488.03	18916.21
488.21	18972.38
488.39	19058.98
488.57	19082.39
488.75	19143.24
488.92	19623.05
489.10	19974.13
489.28	20123.93
489.46	20191.80
489.64	20084.14
489.81	20638.84
489.99	20781.62
490.17	20432.88
490.35	21090.57
490.53	21113.97
490.70	21022.69
490.88	21142.06
491.06	21518.89
491.24	21453.35
491.41	21338.66
491.59	21710.81
491.77	21319.94
491.95	21816.13
492.13	21764.64
492.30	22160.19
492.48	22242.11
492.66	22324.03
492.84	22188.28
493.01	22808.52
493.19	22698.52
493.37	22789.80
493.54	22967.68
493.72	23304.71
493.90	23496.64
494.08	23075.34
494.25	23606.64
494.43	23943.68
494.61	23901.55
494.79	24374.34
494.96	23964.75
495.14	23971.77
495.32	24404.77
495.49	24383.70
495.67	24149.65
495.85	24636.48
496.02	24725.42
496.20	24816.70
496.38	25273.10
496.55	25350.34
496.73	26043.14
496.91	25647.59
497.09	25504.82
497.26	25907.39
497.44	25848.88
497.62	26019.74
497.79	26338.05
497.97	25773.98
498.14	26125.06
498.32	26300.60
498.50	26434.01
498.67	26565.08
498.85	26780.41
499.03	27157.24
499.20	26792.11
499.38	26670.40
499.56	26859.99
499.73	27136.17
499.91	27281.28
500.08	27173.62
500.26	27087.02
500.44	27166.60
500.61	27246.18
500.79	27517.68
500.97	27541.08
501.14	27854.72
501.32	27948.34
501.49	27864.08
501.67	27819.61
501.84	27824.29
502.02	28121.54
502.20	28290.06
502.37	28126.22
502.55	28350.91
502.72	28610.71
502.90	28725.39
503.07	28978.17
503.25	28973.49
503.43	28783.91
503.60	29200.52
503.78	29495.43
503.95	29050.73
504.13	29383.09
504.30	29752.89
504.48	29469.69
504.65	29570.33
504.83	30010.35
505.01	29916.73
505.18	30118.01
505.36	30551.01
505.53	30221.00
505.71	30555.69
505.88	30476.12
506.06	30410.58
506.23	30553.35
506.41	30103.97
506.58	30588.46
506.76	30452.71
506.93	30553.35
507.11	30597.82
507.28	31040.18
507.46	31234.45
507.63	31014.44
507.81	31159.55
507.98	30866.98
508.16	31152.53
508.33	31440.42
508.50	31599.57
508.68	31758.73
508.85	32093.43
509.03	32023.21
509.20	31960.02
509.38	31955.33
509.55	31938.95
509.73	32095.77
509.90	32093.43
510.08	31906.18
510.25	32477.27
510.42	32507.70
510.60	32697.28
510.77	32744.09
510.95	32858.78
511.12	32608.34
511.30	32910.27
511.47	33244.97
511.64	33184.12
511.82	33060.07
511.99	32875.16
512.17	33596.05
512.34	33369.02
512.51	33607.75
512.69	33572.64
512.86	33542.22
513.04	33647.54
513.21	34038.41
513.38	33432.21
513.56	33926.07
513.73	33497.75
513.90	34110.97
514.08	33830.10
514.25	34068.84
514.43	33989.26
514.60	34057.14
514.77	34691.42
514.95	34433.96
515.12	34555.67
515.29	34609.50
515.47	34969.94
515.64	34637.59
515.81	34763.98
515.99	34745.25
516.16	34579.07
516.33	34415.24
516.51	34340.34
516.68	33708.40
516.85	34033.73
517.03	34728.87
517.20	35063.57
517.37	34728.87
517.54	35267.19
517.72	35257.83
517.89	34541.63
518.06	34691.42
518.24	35091.65
518.41	35122.08
518.58	35372.52
518.75	35672.10
518.93	35990.42
519.10	35332.73
519.27	35938.93
519.45	35615.93
519.62	36182.34
519.79	36264.26
519.96	36107.44
520.14	36423.42
520.31	36182.34
520.48	36538.10
520.65	36287.67
520.83	37120.90
521.00	36779.18
521.17	36598.96
521.34	36856.42
521.52	37034.30
521.69	37614.75
521.86	37481.34
522.03	37188.77
522.20	37546.87
522.38	37130.26
522.55	37413.46
522.72	37195.79
522.89	37509.43
523.07	37741.14
523.24	37317.50
523.41	37862.85
523.58	37500.06
523.75	38457.34
523.92	38672.67
524.10	38127.33
524.27	38536.92
524.44	38342.66
524.61	38445.64
524.78	38274.78
524.96	38525.22
525.13	38518.20
525.30	38480.75
525.47	38756.93
525.64	38560.33
525.81	38705.44
525.98	38122.65
526.16	38136.69
526.33	38260.74
526.50	37970.51
526.67	37912.00
526.84	38532.24
527.01	38246.69
527.18	39054.18
527.36	39166.52
527.53	38951.20
527.70	39835.92
527.87	39269.51
528.04	39349.09
528.21	39412.28
528.38	39353.77
528.55	39976.35
528.72	39838.26
528.89	39796.13
529.07	39936.56
529.24	39381.85
529.41	39611.23
529.58	39606.55
529.75	39353.77
529.92	39566.76
530.09	39601.86
530.26	40432.75
530.43	40341.47
530.60	40245.51
530.77	40402.33
530.94	40378.92
531.11	40315.73
531.28	40177.64
531.46	40509.99
531.63	40292.32
531.80	40327.43
531.97	40788.52
532.14	40374.24
532.31	40025.50
532.48	40629.36
532.65	40758.09
532.82	40861.07
532.99	41071.72
533.16	40252.53
533.33	40942.99
533.50	41228.54
533.67	41148.96
533.84	40776.81
534.01	40980.44
534.18	41163.00
534.35	41631.11
534.52	41553.87
534.69	41305.77
534.86	41565.57
535.03	41441.53
535.20	42031.34
535.37	42213.90
535.54	41909.63
535.71	41558.55
535.88	41844.10
536.05	41701.32
536.22	41869.84
536.38	41963.46
536.55	41696.64
536.72	42019.64
536.89	42047.72
537.06	41921.34
537.23	42110.92
537.40	41961.12
537.57	42160.07
537.74	42209.22
537.91	42415.19
538.08	42281.78
538.25	41645.15
538.42	42157.73
538.59	42749.88
538.75	42295.82
538.92	42143.69
539.09	42307.52
539.26	42120.28
539.43	42569.66
539.60	42380.08
539.77	42497.11
539.94	42831.80
540.11	41830.05
540.28	42581.37
540.44	42326.25
540.61	42452.64
540.78	42569.66
540.95	42522.85
541.12	42689.03
541.29	42906.70
541.46	42953.51
541.62	43100.97
541.79	43559.71
541.96	42328.59
542.13	42857.55
542.30	43145.44
542.47	43386.51
542.63	43468.43
542.80	43185.22
542.97	43538.65
543.14	44083.99
543.31	43826.53
543.48	43421.62
543.64	44025.48
543.81	44266.55
543.98	43782.06
544.15	43777.38
544.32	43669.72
544.48	44229.10
544.65	43643.97
544.82	43861.64
544.99	43440.34
545.16	43973.98
545.32	44161.23
545.49	44542.74
545.66	44023.14
545.83	44048.88
546.00	44165.91
546.16	44446.77
546.33	44114.42
546.50	43702.48
546.67	44507.63
546.83	43981.01
547.00	43906.11
547.17	44414.01
547.34	44123.78
547.50	44435.07
547.67	44477.20
547.84	44266.55
548.00	45090.42
548.17	44978.07
548.34	44837.64
548.51	44575.50
548.67	44828.28
548.84	45027.23
549.01	45036.59
549.18	44516.99
549.34	45315.11
549.51	44804.88
549.68	44978.07
549.84	44900.84
550.01	45331.50
550.18	45010.84
550.34	44725.30
550.51	44767.43
550.68	44989.78
550.84	44526.35
551.01	44914.88
551.18	45099.78
551.34	45069.36
551.51	45209.79
551.68	45251.92
551.84	45532.78
552.01	45188.72
552.18	45174.68
552.34	45165.32
552.51	45310.43
552.68	45413.41
552.84	45558.53
553.01	45755.13
553.18	45308.09
553.34	45443.84
553.51	45352.56
553.67	45294.05
553.84	45937.69
554.01	45970.46
554.17	45811.31
554.34	45897.91
554.51	45963.44
554.67	46024.29
554.84	45722.37
555.00	45804.28
555.17	45890.88
555.33	46401.12
555.50	45684.92
555.67	46080.47
555.83	46136.64
556.00	46043.02
556.16	45776.20
556.33	46153.02
556.50	46031.32
556.66	46153.02
556.83	45574.91
556.99	45993.87
557.16	45958.76
557.32	46113.23
557.49	46389.42
557.65	46206.86
557.82	46232.60
557.98	45853.44
558.15	46066.42
558.32	46129.62
558.48	46080.47
558.65	46176.43
558.81	46171.75
558.98	46438.57
559.14	45724.71
559.31	46494.74
559.47	46272.39
559.64	46459.63
559.80	46209.20
559.97	46265.37
560.13	46017.27
560.30	46335.59
560.46	46197.49
560.63	46492.40
560.79	46487.72
560.96	46490.06
561.12	46291.12
561.29	46316.86
561.45	46424.53
561.61	46548.57
561.78	46263.03
561.94	46604.75
562.11	46354.31
562.27	46410.48
562.44	46511.13
562.60	46813.05
562.77	46712.41
562.93	46487.72
563.10	46796.67
563.26	46546.23
563.42	46925.40
563.59	46864.55
563.75	46689.01
563.92	46850.50
564.08	46920.72
564.24	47185.20
564.41	46705.39
564.57	46408.14
564.74	46698.37
564.90	46775.61
565.07	46679.64
565.23	46808.37
565.39	46534.53
565.56	46904.34
565.72	46581.34
565.88	46487.72
566.05	46476.02
566.21	46796.67
566.38	46733.48
566.54	47007.32
566.70	46906.68
566.87	47447.34
567.03	46880.93
567.19	47224.99
567.36	47107.96
567.52	47175.84
567.68	47103.28
567.85	46852.84
568.01	47409.89
568.17	46600.07
568.34	47012.00
568.50	46885.61
568.66	46630.49
568.83	46628.15
568.99	46637.51
569.15	47072.85
569.32	46960.51
569.48	46777.95
569.64	47049.45
569.81	46696.03
569.97	46604.75
570.13	47077.54
570.30	46511.13
570.46	46735.82
570.62	46492.40
570.78	46237.28
570.95	46892.63
571.11	47269.46
571.27	47384.15
571.43	46955.83
571.60	47112.64
571.76	46658.58
571.92	47033.07
572.09	47028.38
572.25	46789.65
572.41	47117.32
572.57	47173.50
572.74	47430.96
572.90	47131.37
573.06	47026.04
573.22	47456.70
573.38	47030.72
573.55	46588.36
573.71	47239.03
573.87	47201.58
574.03	47070.51
574.20	47290.52
574.36	46787.31
574.52	47175.84
574.68	47194.56
574.84	46990.94
575.01	47112.64
575.17	46735.82
575.33	47068.17
575.49	47318.61
575.65	47166.48
575.82	47618.20
575.98	46899.65
576.14	46995.62
576.30	47133.71
576.46	47070.51
576.62	47342.02
576.79	46883.27
576.95	46876.25
577.11	47454.36
577.27	46972.21
577.43	47019.02
577.59	47098.60
577.75	46820.08
577.92	46997.96
578.08	46838.80
578.24	46534.53
578.40	47253.08
578.56	47077.54
578.72	47215.63
578.88	47175.84
579.04	47119.66
579.21	47236.69
579.37	46887.95
579.53	47510.53
579.69	46635.17
579.85	46848.16
580.01	47524.58
580.17	47107.96
580.33	47449.68
580.49	47381.80
580.65	47405.21
580.82	47217.97
580.98	47222.65
581.14	46845.82
581.30	47213.29
581.46	47388.83
581.62	47239.03
581.78	47206.26
581.94	47491.81
582.10	47208.61
582.26	47484.79
582.42	47068.17
582.58	47442.66
582.74	47267.12
582.90	47103.28
583.06	47533.94
583.22	47187.54
583.38	47475.43
583.54	47065.83
583.70	47562.03
583.86	47292.86
584.02	47093.92
584.18	47164.14
584.34	47339.68
584.50	47161.79
584.66	47051.79
584.82	47042.43
584.98	47384.15
585.14	47332.65
585.30	46855.18
585.46	47271.80
585.62	47175.84
585.78	47192.22
585.94	46745.18
586.10	47175.84
586.26	47033.07
586.42	47398.19
586.58	47611.18
586.74	47276.48
586.90	47166.48
587.06	47339.68
587.22	47372.44
587.38	47002.64
587.54	47201.58
587.70	47484.79
587.86	47119.66
588.02	47000.30
588.18	47143.07
588.34	47257.76
588.49	46930.08
588.65	46822.42
588.81	46813.05
588.97	47047.11
589.13	46167.07
589.29	46607.09
589.45	46904.34
589.61	47187.54
589.77	47065.83
589.93	47311.59
590.08	47585.43
590.24	47367.76
590.40	47423.93
590.56	47566.71
590.72	47227.33
590.88	47377.12
591.04	47217.97
591.20	47503.51
591.35	47318.61
591.51	47482.45
591.67	47353.72
591.83	47594.79
591.99	46752.20
592.15	47030.72
592.31	47503.51
592.46	47316.27
592.62	47353.72
592.78	47379.46
592.94	47655.65
593.10	47573.73
593.26	47306.91
593.41	47290.52
593.57	47657.99
593.73	47669.69
593.89	47636.92
594.05	47290.52
594.20	47409.89
594.36	47611.18
594.52	47250.74
594.68	47461.38
594.84	47529.26
594.99	47805.44
595.15	47552.66
595.31	47901.40
595.47	47648.63
595.62	47564.37
595.78	47924.81
595.94	47634.58
596.10	47508.19
596.25	47440.32
596.41	47442.66
596.57	47828.85
596.73	47723.52
596.88	47370.10
597.04	47758.63
597.20	47590.11
597.36	47239.03
597.51	47674.37
597.67	47793.74
597.83	47447.34
597.99	47870.98
598.14	47012.00
598.30	47489.47
598.46	47608.84
598.61	47405.21
598.77	47430.96
598.93	47566.71
599.09	47580.75
599.24	47775.02
599.40	47730.54
599.56	47679.05
599.71	47618.20
599.87	47660.33
600.03	47576.07
600.18	47590.11
600.34	47688.42
600.50	47426.28
600.65	47482.45
600.81	47519.90
600.97	47775.02
601.12	47533.94
601.28	47344.36
601.44	47419.25
601.59	47445.00
601.75	46831.78
601.91	47318.61
602.06	47110.30
602.22	47440.32
602.37	47061.15
602.53	47171.16
602.69	47793.74
602.84	47454.36
603.00	47353.72
603.16	47653.31
603.31	47796.08
603.47	47515.22
603.62	47540.96
603.78	47208.61
603.94	47875.66
604.09	47597.13
604.25	47442.66
604.40	47320.95
604.56	47779.70
604.71	47262.44
604.87	47416.91
605.03	47533.94
605.18	47370.10
605.34	47267.12
605.49	46986.25
605.65	47442.66
605.80	47309.25
605.96	47491.81
606.12	47232.01
606.27	47175.84
606.43	47040.09
606.58	47208.61
606.74	46925.40
606.89	47241.37
607.05	47402.87
607.20	47243.71
607.36	47365.42
607.51	47796.08
607.67	47274.14
607.82	46899.65
607.98	47201.58
608.13	47016.68
608.29	47035.41
608.44	46878.59
608.60	46576.66
608.75	46906.68
608.91	46696.03
609.06	46827.10
609.22	46955.83
609.37	46637.51
609.53	47124.35
609.68	46841.14
609.84	46925.40
609.99	46953.49
610.15	46911.36
610.30	46967.53
610.46	46651.56
610.61	46312.18
610.76	46789.65
610.92	46806.03
611.07	46953.49
611.23	46557.94
611.38	46925.40
611.54	46611.77
611.69	46710.07
611.84	46457.29
612.00	46534.53
612.15	46644.54
612.31	46471.34
612.46	46529.85
612.62	46518.15
612.77	46602.41
612.92	46972.21
613.08	46361.33
613.23	46405.80
613.39	46515.81
613.54	46265.37
613.69	46525.17
613.85	46237.28
614.00	46703.05
614.15	46480.70
614.31	46398.78
614.46	46681.98
614.62	46672.62
614.77	46536.87
614.92	46054.72
615.08	45916.63
615.23	46110.89
615.38	46485.38
615.54	45675.55
615.69	45993.87
615.84	46103.87
616.00	45900.25
616.15	46115.58
616.30	46115.58
616.46	45598.32
616.61	45687.26
616.76	45717.68
616.92	45778.54
617.07	45656.83
617.22	45703.64
617.37	45818.33
617.53	46284.09
617.68	46298.14
617.83	45963.44
617.99	46199.83
618.14	45965.78
618.29	45689.60
618.45	45422.78
618.60	45743.43
618.75	45595.98
618.90	45771.52
619.06	45617.04
619.21	45778.54
619.36	45993.87
619.51	45698.96
619.67	45682.58
619.82	45923.65
619.97	45738.75
620.12	45567.89
620.28	45366.60
620.43	45429.80
620.58	45457.88
620.73	45397.03
620.89	45799.60
621.04	45151.27
621.19	45439.16
621.34	45228.51
621.49	44830.62
621.65	44701.89
621.80	45221.49
621.95	45116.17
622.10	45139.57
622.25	44973.39
622.41	45198.09
622.56	44921.90
622.71	45560.87
622.86	44994.46
623.01	45387.67
623.16	45045.95
623.32	45249.58
623.47	45184.04
623.62	45158.30
623.77	44535.71
623.92	44657.42
624.07	44512.31
624.23	44545.08
624.38	44428.05
624.53	44800.19
624.68	44814.24
624.83	44444.43
624.98	44421.03
625.13	44296.98
625.29	44734.66
625.44	44217.40
625.59	44704.23
625.74	44201.02
625.89	44123.78
626.04	43863.98
626.19	44575.50
626.34	44395.28
626.49	44196.34
626.65	43772.70
626.80	44240.81
626.95	43995.05
627.10	44292.30
627.25	43826.53
627.40	43665.03
627.55	44161.23
627.70	43302.25
627.85	43620.56
628.00	44006.75
628.15	44428.05
628.30	44130.80
628.45	43915.47
628.60	44037.18
628.76	43648.65
628.91	43878.02
629.06	43723.55
629.21	43360.76
629.36	43419.28
629.51	43927.17
629.66	43552.69
629.81	43168.84
629.96	43398.21
630.11	43791.42
630.26	43374.81
630.41	43311.61
630.56	43438.00
630.71	43470.77
630.86	43440.34
631.01	43159.48
631.16	43686.10
631.31	43220.33
631.46	43012.02
631.61	43166.50
631.76	43199.27
631.91	43306.93
632.06	43077.56
632.21	43241.40
632.36	43564.39
632.51	43250.76
632.66	43171.18
632.81	43257.78
632.96	43166.50
633.10	42281.78
633.25	42618.81
633.40	42787.33
633.55	42923.08
633.70	43370.13
633.85	42890.32
634.00	42792.01
634.15	42658.60
634.30	42796.70
634.45	42518.17
634.60	42749.88
634.75	42777.97
634.90	43161.82
635.05	42691.37
635.19	42871.59
635.34	43086.92
635.49	42815.42
635.64	42682.01
635.79	42101.56
635.94	42525.19
636.09	42653.92
636.24	42307.52
636.39	42520.51
636.53	42476.04
636.68	42529.87
636.83	41935.38
636.98	42607.11
637.13	42026.66
637.28	42302.84
637.43	42499.45
637.57	42277.10
637.72	42447.96
637.87	42260.71
638.02	41954.10
638.17	42258.37
638.32	41918.99
638.46	41661.54
638.61	42188.16
638.76	41876.86
638.91	42036.02
639.06	41656.85
639.20	42438.59
639.35	42396.46
639.50	41867.50
639.65	42192.84
639.80	41757.50
639.94	41741.11
640.09	41724.73
640.24	41858.14
640.39	41373.65
640.54	41071.72
640.68	42007.94
640.83	41645.15
640.98	41523.44
641.13	41462.59
641.27	41656.85
641.42	41663.88
641.57	41792.61
641.72	41317.48
641.86	41413.44
642.01	41092.79
642.16	41343.22
642.31	40898.52
642.45	41420.46
642.60	41027.25
642.75	41043.63
642.90	41654.51
643.04	41003.85
643.19	41010.87
643.34	41308.11
643.48	41333.86
643.63	41411.10
643.78	41116.19
643.93	41045.97
644.07	41008.53
644.22	40898.52
644.37	40676.17
644.51	40598.93
644.66	41460.25
644.81	41296.41
644.95	41106.83
645.10	40814.26
645.25	40865.75
645.39	40900.86
645.54	40786.18
645.69	40699.58
645.83	40828.30
645.98	40648.08
646.13	40914.90
646.27	40704.26
646.42	40392.97
646.57	40547.44
646.71	40407.01
646.86	40425.73
647.00	40671.49
647.15	40271.26
647.30	40208.06
647.44	40250.19
647.59	40561.48
647.74	40526.38
647.88	40250.19
648.03	40004.44
648.17	40055.93
648.32	40058.27
648.47	40163.59
648.61	39835.92
648.76	40795.54
648.90	40046.57
649.05	40430.41
649.20	40137.85
649.34	40156.57
649.49	39913.16
649.63	40149.55
649.78	39938.90
649.92	40170.61
650.07	39934.22
650.21	39440.37
650.36	40126.14
650.51	40084.01
650.65	40163.59
650.80	40762.77
650.94	40428.07
651.09	39871.03
651.23	39915.50
651.38	39938.90
651.52	39510.58
651.67	39496.54
651.81	39559.73
651.96	39299.94
652.10	39667.40
652.25	39461.43
652.39	39536.33
652.54	39662.72
652.68	39751.66
652.83	39763.36
652.97	39686.12
653.12	39658.04
653.26	39548.03
653.41	39672.08
653.55	39550.37
653.70	39098.65
653.84	39129.08
653.99	39084.61
654.13	38904.38
654.27	38951.20
654.42	39377.17
654.56	39014.39
654.71	38941.83
654.85	39093.97
655.00	38932.47
655.14	38834.17
655.29	38677.35
655.43	38939.49
655.57	38913.75
655.72	38553.30
655.86	38562.67
656.01	38513.52
656.15	38295.85
656.30	38335.63
656.44	38471.39
656.58	38059.45
656.73	38258.40
656.87	38267.76
657.01	38408.19
657.16	38256.06
657.30	38005.62
657.45	38003.28
657.59	38415.21
657.73	38433.94
657.88	38377.76
658.02	38178.82
658.16	38522.88
658.31	38452.66
658.45	38476.07
658.60	38677.35
658.74	38419.89
658.88	38345.00
659.03	38022.00
659.17	37881.57
659.31	38014.98
659.46	37890.93
659.60	37998.60
659.74	37689.65
659.89	37310.48
660.03	37890.93
660.17	37855.82
660.32	37481.34
660.46	37965.83
660.60	37614.75
660.74	37612.41
660.89	37509.43
661.03	37558.58
661.17	37481.34
661.32	37469.64
661.46	37699.01
661.60	37464.96
661.74	37376.01
661.89	37184.09
662.03	37170.05
662.17	37188.77
662.31	36978.12
662.46	37247.29
662.60	37280.05
662.74	36809.61
662.88	37053.02
663.03	36814.29
663.17	37001.53
663.31	36463.21
663.45	37172.39
663.60	37008.55
663.74	36781.52
663.88	36694.92
664.02	36498.31
664.17	36776.84
664.31	36039.57
664.45	36048.93
664.59	36400.01
664.73	36268.94
664.88	36343.84
665.02	36362.56
665.16	36212.77
665.30	35995.10
665.44	35880.41
665.59	35936.59
665.73	35878.07
665.87	35459.12
666.01	35388.90
666.15	36301.71
666.29	35831.26
666.44	35805.52
666.58	35655.72
666.72	35398.26
666.86	36081.70
667.00	35803.17
667.14	35505.93
667.28	35428.69
667.43	35089.31
667.57	35232.08
667.71	35302.30
667.85	34866.96
667.99	34962.92
668.13	35147.82
668.27	34979.31
668.41	35117.40
668.56	34487.79
668.70	34899.73
668.84	34918.45
668.98	34169.48
669.12	34815.47
669.26	34726.53
669.40	34202.25
669.54	34178.84
669.68	34569.71
669.82	34309.91
669.96	34211.61
670.10	33647.54
670.25	34328.64
670.39	34361.40
670.53	34607.16
670.67	33516.47
670.81	34174.16
670.95	33708.40
671.09	34040.75
671.23	33893.30
671.37	33916.70
671.51	33427.53
671.65	33488.38
671.79	33383.06
671.93	33450.94
672.07	33088.15
672.21	33694.35
672.35	33479.02
672.49	33589.03
672.63	33394.76
672.77	32858.78
672.91	32952.40
673.05	32755.80
673.19	32758.14
673.33	33221.56
673.47	32577.92
673.61	32666.86
673.75	32053.64
673.89	32156.62
674.03	32175.34
674.17	32507.70
674.31	31988.10
674.45	31929.59
674.59	32048.96
674.73	32348.54
674.87	32355.57
675.01	32114.49
675.15	32381.31
675.29	31798.52
675.43	31861.71
675.56	32004.49
675.70	31316.37
675.84	31473.18
675.98	30499.52
676.12	31295.30
676.26	31131.47
676.40	30923.16
676.54	31108.06
676.68	31061.25
676.82	30284.19
676.96	30904.43
677.10	30609.53
677.23	30866.98
677.37	30532.29
677.51	30551.01
677.65	30155.46
677.79	30174.19
677.93	30223.34
678.07	29963.54
678.21	29886.30
678.34	29830.13
678.48	29420.53
678.62	29497.77
678.76	29696.72
678.90	29848.85
679.04	29462.66
679.18	29336.27
679.31	28725.39
679.45	29029.66
679.59	28816.68
679.73	29017.96
679.87	29195.84
680.00	28999.24
680.14	28650.50
680.28	28643.48
680.42	28552.20
680.56	28533.47
680.70	28610.71
680.83	28278.35
680.97	28414.10
681.11	28203.46
681.25	27929.61
681.39	28341.55
681.52	27924.93
681.66	28084.09
681.80	27704.92
681.94	27821.95
682.07	27828.97
682.21	27185.32
682.35	27489.59
682.49	27606.62
682.62	27197.02
682.76	27065.96
682.90	26773.39
683.04	27098.72
683.17	26918.50
683.31	26600.19
683.45	26546.36
683.59	26604.87
683.72	26644.66
683.86	26237.41
684.00	26132.08
684.13	26583.80
684.27	26544.02
684.41	26192.94
684.55	25469.71
684.68	25673.34
684.82	25846.54
684.96	25844.20
685.09	25736.53
685.23	25930.80
685.37	25408.86
685.50	25411.20
685.64	25357.36
685.78	25017.99
685.91	25280.13
686.05	25198.21
686.19	24671.59
686.32	24645.84
686.46	24790.95
686.60	24573.28
686.73	24273.70
686.87	23847.72
687.01	23679.20
687.14	23946.02
687.28	23728.35
687.42	24091.13
687.55	23688.56
687.69	23674.52
687.82	23646.43
687.96	23503.66
688.10	23386.63
688.23	23435.78
688.37	22864.69
688.50	23101.09
688.64	23028.53
688.78	23187.69
688.91	22920.87
689.05	23098.75
689.18	22860.01
689.32	22263.18
689.46	22401.27
689.59	22885.76
689.73	22836.61
689.86	22703.20
690.00	22333.39
690.13	22913.84
690.27	22281.90
690.41	22525.32
690.54	22127.42
690.68	22164.87
690.81	21881.67
690.95	21853.58
691.08	21792.73
691.22	21797.41
691.35	21766.98
691.49	21610.17
691.62	21556.33
691.76	21507.18
691.89	21336.32
692.03	21097.59
692.16	21188.87
692.30	21088.23
692.43	21036.74
692.57	20889.28
692.70	20545.22
692.84	20805.02
692.97	20706.72
693.11	20276.06
693.24	20655.23
693.38	20233.93
693.51	20163.72
693.65	20020.94
693.78	20273.72
693.92	20163.72
694.05	20159.03
694.19	19983.49
694.32	19887.53
694.45	19929.66
694.59	19627.73
694.72	19484.96
694.86	19522.41
694.99	19379.64
695.13	19147.92
695.26	19091.75
695.39	18948.98
695.53	19007.49
695.66	19044.94
695.80	19171.33
695.93	18948.98
696.07	18888.12
696.20	18892.80
696.33	18621.30
696.47	18757.05
696.60	18909.19
696.73	18242.14
696.87	18640.03
697.00	18466.83
697.14	18141.49
697.27	18398.95
697.40	18307.67
697.54	18038.51
697.67	18143.83
697.80	17762.33
697.94	17724.88
698.07	17685.09
698.21	17774.03
698.34	17418.27
698.47	17453.37
698.61	17593.81
698.74	17174.85
698.87	17411.25
699.01	17034.42
699.14	16954.84
699.27	17015.69
699.40	16940.80
699.54	16648.23
699.67	16528.86
699.80	16472.69
699.94	16568.65
700.07	16489.07
700.20	16512.48
700.34	16208.21
700.47	16222.25
700.60	16524.18
700.73	16170.76
700.87	16294.81
701.00	15847.77
701.13	16219.91
701.26	16058.42
701.40	16152.04
701.53	15756.49
701.66	15683.93
701.79	15634.78
701.93	15449.88
702.06	15372.64
702.19	15360.94
702.32	15248.59
702.46	15236.89
702.59	15213.48
702.72	15171.35
702.85	14979.43
702.99	15318.81
703.12	15173.69
703.25	15002.83
703.38	14984.11
703.51	14834.32
703.65	14998.15
703.78	14850.70
703.91	14544.09
704.04	14675.16
704.17	14473.87
704.31	14534.73
704.44	14340.46
704.57	14267.91
704.70	14132.15
704.83	14122.79
704.96	14216.41
705.10	14104.07
705.23	14218.75
>>>>>End Processed Spectral Data<<<<<
