SpectraSuite Data File
++++++++++++++++++++++++++++++++++++
Date: Fri Oct 25 10:44:21 EDT 2013
User: price-jones
Dark Spectrum Present: No
Reference Spectrum Present: No
Number of Sampled Component Spectra: 1
Spectrometers: USB2+H05261
Integration Time (usec): 100000 (USB2+H05261)
Spectra Averaged: 1 (USB2+H05261)
Boxcar Smoothing: 0 (USB2+H05261)
Correct for Electrical Dark: No (USB2+H05261)
Strobe/Lamp Enabled: No (USB2+H05261)
Correct for Detector Non-linearity: No (USB2+H05261)
Correct for Stray Light: No (USB2+H05261)
Number of Pixels in Processed Spectrum: 2048
>>>>>Begin Processed Spectral Data<<<<<
365.73	128.73
365.92	128.73
366.12	128.73
366.32	84.26
366.52	65.54
366.72	21.06
366.91	56.17
367.11	4.68
367.31	0.00
367.51	0.00
367.70	0.00
367.90	58.51
368.10	0.00
368.30	2.34
368.49	42.13
368.69	23.41
368.89	100.64
369.09	42.13
369.28	0.00
369.48	95.96
369.68	114.69
369.87	56.17
370.07	126.39
370.27	140.43
370.47	229.37
370.66	411.93
370.86	461.09
371.06	454.06
371.25	482.15
371.45	444.70
371.65	552.37
371.84	486.83
372.04	468.11
372.24	503.22
372.44	493.85
372.63	575.77
372.83	594.50
373.03	554.71
373.22	512.58
373.42	543.00
373.62	559.39
373.81	545.34
374.01	521.94
374.21	620.24
374.40	458.74
374.60	664.71
374.79	472.79
374.99	566.41
375.19	624.92
375.38	620.24
375.58	540.66
375.78	592.16
375.97	669.39
376.17	660.03
376.37	667.05
376.56	664.71
376.76	573.43
376.95	638.97
377.15	603.86
377.35	671.73
377.54	706.84
377.74	697.48
377.93	695.14
378.13	629.60
378.33	716.20
378.52	688.12
378.72	748.97
378.91	678.76
379.11	650.67
379.31	697.48
379.50	706.84
379.70	704.50
379.89	748.97
380.09	709.18
380.28	716.20
380.48	697.48
380.68	753.65
380.87	711.52
381.07	713.86
381.26	660.03
381.46	819.19
381.65	774.72
381.85	704.50
382.04	695.14
382.24	727.91
382.43	744.29
382.63	662.37
382.83	641.31
383.02	741.95
383.22	828.55
383.41	751.31
383.61	690.46
383.80	828.55
384.00	781.74
384.19	922.17
384.39	800.46
384.58	842.59
384.78	781.74
384.97	863.66
385.17	851.96
385.36	713.86
385.56	814.51
385.75	884.72
385.95	903.45
386.14	826.21
386.34	795.78
386.53	861.32
386.72	954.94
386.92	884.72
387.11	858.98
387.31	933.87
387.50	793.44
387.70	880.04
387.89	924.51
388.09	826.21
388.28	945.58
388.48	922.17
388.67	858.98
388.86	978.34
389.06	910.47
389.25	997.07
389.45	1039.20
389.64	1074.31
389.84	1041.54
390.03	1090.69
390.22	1146.86
390.42	961.96
390.61	1076.65
390.81	1013.45
391.00	1053.24
391.19	1071.97
391.39	1039.20
391.58	1090.69
391.78	1078.99
391.97	1263.89
392.16	1142.18
392.36	1076.65
392.55	1020.47
392.75	1022.81
392.94	1034.52
393.13	985.37
393.33	1036.86
393.52	1090.69
393.71	1179.63
393.91	1174.95
394.10	1135.16
394.29	1198.35
394.49	1256.87
394.68	1163.25
394.88	1277.93
395.07	1364.53
395.26	1268.57
395.46	1259.21
395.65	1277.93
395.84	1369.21
396.04	1308.36
396.23	1181.97
396.42	1188.99
396.62	1268.57
396.81	1280.27
397.00	1275.59
397.19	1301.34
397.39	1373.89
397.58	1469.86
397.77	1549.43
397.97	1453.47
398.16	1516.67
398.35	1528.37
398.55	1509.65
398.74	1511.99
398.93	1612.63
399.12	1537.73
399.32	1554.12
399.51	1603.27
399.70	1710.93
399.90	1647.74
400.09	1591.56
400.28	1640.72
400.47	1685.19
400.67	1732.00
400.86	1720.29
401.05	1724.97
401.24	1750.72
401.44	1846.68
401.63	1781.15
401.82	1696.89
402.01	1804.55
402.21	1788.17
402.40	1818.60
402.59	1804.55
402.78	1820.94
402.97	1734.34
403.17	1858.39
403.36	1881.79
403.55	1799.87
403.74	1914.56
403.93	1980.09
404.13	2003.50
404.32	1977.75
404.51	1961.37
404.70	2003.50
404.89	2040.95
405.09	2076.06
405.28	2015.20
405.47	2125.21
405.66	2001.16
405.85	2073.71
406.05	2054.99
406.24	2062.01
406.43	2073.71
406.62	2195.42
406.81	2214.15
407.00	2209.47
407.20	2113.50
407.39	2190.74
407.58	2305.43
407.77	2361.60
407.96	2385.01
408.15	2296.07
408.34	2312.45
408.54	2340.54
408.73	2394.37
408.92	2317.13
409.11	2399.05
409.30	2319.47
409.49	2377.98
409.68	2265.64
409.87	2427.14
410.07	2427.14
410.26	2417.77
410.45	2602.68
410.64	2602.68
410.83	2574.59
411.02	2555.86
411.21	2710.34
411.40	2747.79
411.59	2708.00
411.78	2818.00
411.98	2810.98
412.17	2726.72
412.36	2780.56
412.55	2853.11
412.74	2876.52
412.93	2899.92
413.12	2820.35
413.31	2958.44
413.50	2918.65
413.69	3070.78
413.88	3089.51
414.07	3054.40
414.26	2984.18
414.45	3133.98
414.64	3084.83
414.83	3066.10
415.02	3075.46
415.22	3218.24
415.41	3269.73
415.60	3283.77
415.79	3180.79
415.98	3251.00
416.17	3386.76
416.36	3314.20
416.55	3377.39
416.74	3363.35
416.93	3302.50
417.12	3438.25
417.31	3438.25
417.50	3438.25
417.69	3531.87
417.88	3625.49
418.07	3606.77
418.26	3515.48
418.45	3597.40
418.64	3789.33
418.83	3700.39
419.02	3691.02
419.21	3693.37
419.39	3658.26
419.58	3758.90
419.77	3695.71
419.96	3779.97
420.15	3803.37
420.34	3922.74
420.53	4039.76
420.72	3854.86
420.91	4044.45
421.10	3831.46
421.29	3889.97
421.48	3988.27
421.67	4035.08
421.86	4039.76
422.05	3943.80
422.24	3859.54
422.43	4161.47
422.61	4021.04
422.80	4025.72
422.99	4032.74
423.18	4070.19
423.37	4250.41
423.56	4161.47
423.75	4131.05
423.94	4025.72
424.13	3831.46
424.32	4072.53
424.50	4248.07
424.69	4142.75
424.88	4095.94
425.07	4065.51
425.26	4126.36
425.45	3995.29
425.64	4250.41
425.83	4112.32
426.01	4091.26
426.20	4222.33
426.39	4074.87
426.58	4105.30
426.77	4112.32
426.96	4189.56
427.15	4161.47
427.33	4159.13
427.52	4215.30
427.71	4201.26
427.90	4421.27
428.09	4273.82
428.28	4269.14
428.46	4255.09
428.65	4149.77
428.84	4339.35
429.03	4440.00
429.22	4234.03
429.40	4308.93
429.59	4489.15
429.78	3981.25
429.97	4093.60
430.16	4243.39
430.34	4121.68
430.53	4311.27
430.72	4177.86
430.91	4367.44
431.10	4339.35
431.28	4667.03
431.47	4777.03
431.66	4793.42
431.85	4638.94
432.03	4835.55
432.22	4809.80
432.41	4821.50
432.60	4938.53
432.79	4807.46
432.97	4997.04
433.16	4973.64
433.35	4730.22
433.54	4865.97
433.72	4915.12
433.91	4737.24
434.10	4880.02
434.28	4873.00
434.47	4940.87
434.66	4985.34
434.85	5242.80
435.03	5200.67
435.22	5022.79
435.41	5345.78
435.59	5200.67
435.78	5369.19
435.97	5497.92
436.16	5341.10
436.34	5273.23
436.53	5397.28
436.72	5451.11
436.90	5298.97
437.09	5514.30
437.28	5350.46
437.46	5399.62
437.65	5460.47
437.84	5313.02
438.02	5451.11
438.21	5404.30
438.40	5303.65
438.58	5631.33
438.77	5577.50
438.96	5614.95
439.14	5678.14
439.33	5767.08
439.52	5781.12
439.70	5865.38
439.89	5956.66
440.08	5818.57
440.26	5736.65
440.45	5888.79
440.63	6094.76
440.82	6256.25
441.01	6204.76
441.19	6319.45
441.38	6230.51
441.57	6366.26
441.75	6518.39
441.94	6698.61
442.12	6527.75
442.31	6665.85
442.50	6569.88
442.68	6572.22
442.87	6534.78
443.05	6476.26
443.24	6560.52
443.43	6670.53
443.61	6621.38
443.80	6902.24
443.98	6588.61
444.17	6443.49
444.35	6782.87
444.54	6977.14
444.73	6810.96
444.91	6548.82
445.10	6595.63
445.28	6612.01
445.47	6588.61
445.65	6633.08
445.84	6775.85
446.02	6787.55
446.21	6782.87
446.39	6881.18
446.58	6881.18
446.77	6956.07
446.95	6876.49
447.14	6902.24
447.32	6981.82
447.51	6857.77
447.69	6860.11
447.88	6902.24
448.06	6991.18
448.25	7082.46
448.43	7026.29
448.62	7148.00
448.80	7117.57
448.99	7054.37
449.17	7035.65
449.36	7016.93
449.54	7265.02
449.73	7122.25
449.91	7253.32
450.10	7314.17
450.28	7431.20
450.46	7501.42
450.65	7482.69
450.83	7426.52
451.02	7410.14
451.20	7466.31
451.39	7335.24
451.57	7562.27
451.76	7473.33
451.94	7424.18
452.13	7578.65
452.31	7513.12
452.49	7325.88
452.68	7414.82
452.86	7482.69
453.05	7510.78
453.23	7583.34
453.42	7529.50
453.60	7606.74
453.78	7772.92
453.97	7691.00
454.15	7541.21
454.34	7639.51
454.52	7791.64
454.70	7929.74
454.89	7786.96
455.07	7604.40
455.26	7873.56
455.44	7995.27
455.62	8163.79
455.81	8091.23
455.99	7882.92
456.17	8226.98
456.36	8217.62
456.54	8152.09
456.73	8320.60
456.91	8503.17
457.09	8336.99
457.28	8594.45
457.46	8355.71
457.64	8482.10
457.83	8470.40
458.01	8182.51
458.19	8500.83
458.38	8468.06
458.56	8341.67
458.74	8559.34
458.93	8535.93
459.11	8493.80
459.29	8594.45
459.48	8559.34
459.66	8608.49
459.84	8678.71
460.03	8765.31
460.21	8861.27
460.39	8947.87
460.57	8788.71
460.76	9015.74
460.94	8971.27
461.12	8847.22
461.31	9004.04
461.49	9006.38
461.67	8812.12
461.85	9226.39
462.04	9097.66
462.22	9268.52
462.40	9179.58
462.59	9296.61
462.77	9242.78
462.95	9350.44
463.13	9057.87
463.32	9151.49
463.50	9301.29
463.68	9298.95
463.86	9479.17
464.05	9135.11
464.23	9170.22
464.41	9338.74
464.59	9062.55
464.78	9631.30
464.96	9500.23
465.14	9516.62
465.32	9617.26
465.50	9624.28
465.69	9685.14
465.87	9643.01
466.05	9472.15
466.23	9390.23
466.41	9593.86
466.60	9596.20
466.78	9600.88
466.96	9596.20
467.14	9804.50
467.32	9582.15
467.51	9659.39
467.69	9523.64
467.87	9783.44
468.05	9762.37
468.23	9760.03
468.41	9853.66
468.60	9975.36
468.78	9947.28
468.96	9853.66
469.14	10122.82
469.32	10195.37
469.50	9809.19
469.69	10188.35
469.87	9942.60
470.05	10106.43
470.23	10242.18
470.41	10204.74
470.59	10216.44
470.77	10324.10
470.95	10384.96
471.14	10572.20
471.32	10399.00
471.50	10698.59
471.68	10569.86
471.86	10810.93
472.04	10789.87
472.22	11103.50
472.40	10607.31
472.58	10698.59
472.77	10848.38
472.95	10991.16
473.13	11197.12
473.31	10960.73
473.49	10780.51
473.67	10995.84
473.85	10991.16
474.03	11351.60
474.21	11311.81
474.39	11522.46
474.57	11592.67
474.75	11676.93
474.93	11604.38
475.12	11557.57
475.30	11749.49
475.48	11665.23
475.66	11946.09
475.84	11634.80
476.02	11789.28
476.20	11932.05
476.38	12264.41
476.56	12400.16
476.74	12423.56
476.92	11936.73
477.10	12306.54
477.28	12315.90
477.46	12556.97
477.64	12840.18
477.82	12802.73
478.00	12980.61
478.18	12877.63
478.36	13132.75
478.54	13102.32
478.72	13331.69
478.90	13465.10
479.08	13535.32
479.26	13481.49
479.44	13680.43
479.62	13680.43
479.80	13937.89
479.98	13867.67
480.16	14068.96
480.34	14031.51
480.52	14511.32
480.70	14300.67
480.88	14211.73
481.06	14600.26
481.24	14281.95
481.41	14546.43
481.59	15201.78
481.77	15023.90
481.95	14998.15
482.13	14913.89
482.31	15056.67
482.49	15475.62
482.67	15300.08
482.85	15803.30
483.03	15655.84
483.21	15634.78
483.39	15843.09
483.57	15873.51
483.74	16301.83
483.92	16374.39
484.10	15990.54
484.28	16379.07
484.46	16762.92
484.64	16973.56
484.82	16578.01
485.00	16561.63
485.18	16788.66
485.35	16744.19
485.53	16608.44
485.71	16711.42
485.89	16952.50
486.07	16769.94
486.25	17362.09
486.43	17263.79
486.61	17741.26
486.78	17881.69
486.96	18080.64
487.14	18164.90
487.32	18281.92
487.50	18249.16
487.68	18691.52
487.85	19089.41
488.03	18932.59
488.21	19028.56
488.39	19400.70
488.57	19246.23
488.75	19644.12
488.92	19620.71
489.10	19747.10
489.28	19864.13
489.46	20051.37
489.64	20416.49
489.81	20849.49
489.99	20802.68
490.17	20769.91
490.35	21034.39
490.53	20943.11
490.70	21298.88
490.88	21319.94
491.06	21823.16
491.24	21415.90
491.41	21598.46
491.59	21558.67
491.77	21584.42
491.95	21811.45
492.13	22080.61
492.30	21834.86
492.48	22466.80
492.66	22396.59
492.84	22260.84
493.01	23267.27
493.19	23101.09
493.37	22911.50
493.54	22845.97
493.72	23164.28
493.90	23723.67
494.08	23641.75
494.25	24240.93
494.43	24102.84
494.61	23873.46
494.79	24254.97
494.96	24453.92
495.14	24320.51
495.32	24746.48
495.49	24477.32
495.67	24554.56
495.85	24879.89
496.02	25170.12
496.20	25099.90
496.38	25214.59
496.55	25312.89
496.73	25858.24
496.91	25694.40
497.09	26054.84
497.26	25827.81
497.44	26073.57
497.62	26225.70
497.79	26185.91
497.97	25811.43
498.14	26249.11
498.32	26307.62
498.50	26335.71
498.67	26944.25
498.85	27021.48
499.03	27190.00
499.20	27208.73
499.38	27185.32
499.56	27311.71
499.73	27527.04
499.91	27438.10
500.08	27487.25
500.26	26951.27
500.44	27674.49
500.61	27477.89
500.79	27477.89
500.97	27431.08
501.14	27690.88
501.32	28105.15
501.49	28173.03
501.67	28070.04
501.84	28402.40
502.02	28257.29
502.20	28486.66
502.37	28922.00
502.55	28538.15
502.72	28781.57
502.90	29198.18
503.07	29142.01
503.25	28914.98
503.43	29142.01
503.60	29050.73
503.78	29125.63
503.95	29008.60
504.13	29336.27
504.30	29427.56
504.48	29373.72
504.65	29766.93
504.83	30015.03
505.01	30244.40
505.18	30206.95
505.36	30342.70
505.53	30553.35
505.71	30742.94
505.88	30363.77
506.06	29855.87
506.23	30864.64
506.41	30780.39
506.58	30656.34
506.76	30684.42
506.93	30787.41
507.11	31047.21
507.28	31009.76
507.46	30735.92
507.63	31112.74
507.81	31328.07
507.98	30890.39
508.16	31335.09
508.33	31470.84
508.50	31622.98
508.68	31931.93
508.85	32142.58
509.03	32287.69
509.20	32182.37
509.38	32006.83
509.55	32095.77
509.73	32348.54
509.90	32201.09
510.08	32360.25
510.25	32393.01
510.42	32201.09
510.60	32591.96
510.77	32474.93
510.95	32748.78
511.12	33333.91
511.30	33139.65
511.47	33645.20
511.64	33436.89
511.82	33699.03
511.99	33083.47
512.17	33610.09
512.34	32973.47
512.51	33464.98
512.69	34059.48
512.86	33600.73
513.04	34211.61
513.21	33675.63
513.38	33392.42
513.56	33387.74
513.73	33717.76
513.90	34232.68
514.08	33525.83
514.25	34108.63
514.43	34265.44
514.60	34129.69
514.77	34190.55
514.95	35049.52
515.12	34132.03
515.29	34639.93
515.47	35166.55
515.64	35145.48
515.81	34759.30
515.99	34696.10
516.16	34412.90
516.33	34389.49
516.51	34607.16
516.68	34281.83
516.85	33839.47
517.03	34637.59
517.20	35035.48
517.37	35229.74
517.54	35342.09
517.72	35365.49
517.89	34974.63
518.06	35126.76
518.24	35452.09
518.41	35014.41
518.58	35297.62
518.75	35405.28
518.93	35805.52
519.10	35793.81
519.27	35917.86
519.45	35915.52
519.62	36254.90
519.79	36409.37
519.96	36811.95
520.14	36699.60
520.31	36713.64
520.48	36531.08
520.65	36137.87
520.83	37092.81
521.00	36947.70
521.17	37254.31
521.34	36814.29
521.52	37156.00
521.69	37340.91
521.86	37331.54
522.03	37221.54
522.20	37240.26
522.38	37310.48
522.55	37532.83
522.72	37429.85
522.89	36975.78
523.07	37343.25
523.24	37811.35
523.41	38169.46
523.58	37940.08
523.75	38345.00
523.92	38066.47
524.10	38160.09
524.27	38405.85
524.44	38490.11
524.61	38384.79
524.78	38803.74
524.96	38890.34
525.13	38665.65
525.30	38487.77
525.47	38838.85
525.64	38838.85
525.81	38401.17
525.98	38972.26
526.16	38352.02
526.33	38164.78
526.50	38396.49
526.67	37942.42
526.84	38689.06
527.01	38642.24
527.18	39061.20
527.36	38960.56
527.53	39672.08
527.70	39484.84
527.87	39889.75
528.04	39276.53
528.21	39508.24
528.38	39379.51
528.55	39913.16
528.72	40196.36
528.89	40154.23
529.07	39887.41
529.24	39739.96
529.41	39683.78
529.58	39955.29
529.75	39606.55
529.92	39985.71
530.09	40156.57
530.26	40172.96
530.43	40500.63
530.60	40100.40
530.77	40172.96
530.94	40409.35
531.11	40540.42
531.28	40472.54
531.46	40601.27
531.63	40603.61
531.80	40591.91
531.97	40751.07
532.14	40643.40
532.31	39931.88
532.48	40158.91
532.65	40488.93
532.82	40790.86
532.99	40732.34
533.16	40629.36
533.33	41074.06
533.50	41406.42
533.67	41034.27
533.84	41010.87
534.01	41099.81
534.18	41249.60
534.35	41516.42
534.52	41305.77
534.69	41366.63
534.86	41808.99
535.03	41354.93
535.20	42241.99
535.37	42113.26
535.54	41776.22
535.71	41888.57
535.88	41713.03
536.05	41790.27
536.22	42181.13
536.38	42043.04
536.55	41567.91
536.72	42005.59
536.89	42007.94
537.06	41902.61
537.23	42347.31
537.40	42209.22
537.57	42274.76
537.74	41935.38
537.91	42443.27
538.08	42176.45
538.25	42340.29
538.42	42541.58
538.59	42749.88
538.75	42096.88
538.92	42630.52
539.09	42433.91
539.26	42405.83
539.43	42328.59
539.60	42576.69
539.77	42777.97
539.94	42679.67
540.11	42127.30
540.28	42646.90
540.44	42621.16
540.61	42822.44
540.78	42660.94
540.95	42618.81
541.12	42564.98
541.29	42824.78
541.46	42457.32
541.62	42838.83
541.79	43372.47
541.96	42670.31
542.13	43103.31
542.30	43150.12
542.47	43079.90
542.63	43342.04
542.80	43351.40
542.97	43351.40
543.14	43777.38
543.31	43683.76
543.48	44055.90
543.64	44339.11
543.81	43749.29
543.98	43969.30
544.15	43536.30
544.32	44423.37
544.48	44783.81
544.65	44289.96
544.82	44062.93
544.99	43847.60
545.16	43636.95
545.32	43964.62
545.49	44369.54
545.66	44418.69
545.83	44669.12
546.00	44238.47
546.16	43927.17
546.33	44470.18
546.50	43548.01
546.67	44130.80
546.83	44030.16
547.00	44449.11
547.17	44509.97
547.34	44430.39
547.50	44512.31
547.67	44648.06
547.84	44605.93
548.00	44568.48
548.17	44814.24
548.34	44570.82
548.51	44870.41
548.67	44814.24
548.84	44788.49
549.01	45097.44
549.18	44912.54
549.34	44964.03
549.51	45411.07
549.68	44893.82
549.84	44959.35
550.01	44800.19
550.18	44971.05
550.34	44720.62
550.51	44762.75
550.68	45188.72
550.84	44786.15
551.01	45333.84
551.18	44952.33
551.34	45221.49
551.51	45371.28
551.68	45642.79
551.84	45200.43
552.01	45069.36
552.18	44896.16
552.34	45097.44
552.51	45862.80
552.68	45352.56
552.84	45542.14
553.01	45893.22
553.18	45591.30
553.34	45319.79
553.51	45392.35
553.67	45703.64
553.84	45851.09
554.01	45542.14
554.17	45797.26
554.34	46237.28
554.51	45542.14
554.67	46057.06
554.84	45701.30
555.00	45478.95
555.17	45361.92
555.33	45881.52
555.50	45301.07
555.67	46155.36
555.83	45806.62
556.00	46073.45
556.16	46279.41
556.33	45876.84
556.50	45638.11
556.66	45605.34
556.83	45720.02
556.99	45944.72
557.16	45886.20
557.32	45771.52
557.49	46094.51
557.65	46124.94
557.82	45872.16
557.98	45942.38
558.15	46440.91
558.32	46241.96
558.48	46375.37
558.65	46031.32
558.81	45853.44
558.98	46314.52
559.14	45975.14
559.31	45764.49
559.47	46361.33
559.64	46719.43
559.80	46012.59
559.97	45911.95
560.13	45996.21
560.30	46059.40
560.46	46452.61
560.63	46178.77
560.79	46808.37
560.96	46726.46
561.12	46843.48
561.29	46440.91
561.45	46513.47
561.61	45886.20
561.78	46438.57
561.94	46417.50
562.11	46408.14
562.27	46806.03
562.44	46834.12
562.60	46667.94
562.77	46672.62
562.93	46588.36
563.10	46717.09
563.26	46728.80
563.42	46747.52
563.59	46361.33
563.75	46419.84
563.92	46897.31
564.08	46930.08
564.24	46768.58
564.41	46560.28
564.57	46543.89
564.74	46700.71
564.90	46782.63
565.07	46712.41
565.23	46873.91
565.39	46827.10
565.56	46684.33
565.72	46005.57
565.88	46541.55
566.05	46651.56
566.21	46712.41
566.38	46724.11
566.54	46930.08
566.70	46679.64
566.87	46857.52
567.03	46628.15
567.19	47016.68
567.36	47124.35
567.52	46358.99
567.68	46939.44
567.85	46981.57
568.01	46557.94
568.17	46773.27
568.34	46831.78
568.50	46747.52
568.66	46822.42
568.83	46794.33
568.99	46429.21
569.15	47047.11
569.32	46733.48
569.48	46824.76
569.64	46916.04
569.81	46408.14
569.97	46703.05
570.13	46775.61
570.30	46691.35
570.46	46508.79
570.62	46674.96
570.78	46784.97
570.95	46663.26
571.11	46997.96
571.27	47049.45
571.43	47082.22
571.60	47070.51
571.76	46799.01
571.92	46791.99
572.09	46761.56
572.25	46794.33
572.41	47009.66
572.57	47063.49
572.74	47248.39
572.90	47084.56
573.06	47042.43
573.22	46983.91
573.38	46768.58
573.55	46848.16
573.71	46866.89
573.87	47171.16
574.03	47173.50
574.20	47072.85
574.36	47077.54
574.52	46621.13
574.68	47143.07
574.84	46843.48
575.01	46834.12
575.17	46843.48
575.33	46562.62
575.49	46548.57
575.65	47103.28
575.82	47185.20
575.98	46677.30
576.14	47334.99
576.30	47222.65
576.46	47147.75
576.62	46878.59
576.79	47103.28
576.95	46822.42
577.11	47124.35
577.27	46955.83
577.43	47524.58
577.59	46885.61
577.75	46738.16
577.92	46349.63
578.08	46312.18
578.24	46564.96
578.40	46770.93
578.56	46831.78
578.72	46946.47
578.88	46946.47
579.04	46965.19
579.21	47232.01
579.37	47107.96
579.53	47309.25
579.69	46824.76
579.85	46834.12
580.01	47082.22
580.17	46969.87
580.33	46625.81
580.49	46986.25
580.65	46906.68
580.82	47428.62
580.98	47159.45
581.14	46848.16
581.30	47538.62
581.46	46909.02
581.62	47611.18
581.78	47145.41
581.94	47452.02
582.10	47030.72
582.26	47400.53
582.42	46976.89
582.58	46958.17
582.74	47049.45
582.90	47552.66
583.06	47100.94
583.22	47426.28
583.38	47463.72
583.54	47175.84
583.70	47175.84
583.86	47227.33
584.02	47192.22
584.18	47133.71
584.34	47021.36
584.50	47356.06
584.66	47129.03
584.82	46941.78
584.98	47669.69
585.14	47334.99
585.30	47089.24
585.46	46822.42
585.62	47241.37
585.78	46597.73
585.94	46766.24
586.10	47126.69
586.26	46710.07
586.42	47498.83
586.58	47164.14
586.74	46810.71
586.90	47110.30
587.06	47470.75
587.22	47175.84
587.38	47122.01
587.54	47522.24
587.70	47292.86
587.86	47608.84
588.02	47056.47
588.18	47187.54
588.34	46504.10
588.49	46120.26
588.65	46651.56
588.81	46574.32
588.97	46979.23
589.13	46405.80
589.29	46817.74
589.45	46597.73
589.61	47077.54
589.77	47002.64
589.93	47220.31
590.08	47140.73
590.24	47377.12
590.40	47295.21
590.56	47346.70
590.72	47454.36
590.88	47079.88
591.04	47456.70
591.20	47246.05
591.35	47372.44
591.51	47735.23
591.67	47388.83
591.83	47452.02
591.99	47023.70
592.15	47166.48
592.31	46974.55
592.46	47166.48
592.62	47363.08
592.78	47182.86
592.94	47737.57
593.10	46923.06
593.26	47351.38
593.41	46923.06
593.57	47061.15
593.73	47075.19
593.89	46894.97
594.05	47264.78
594.20	47171.16
594.36	47290.52
594.52	47271.80
594.68	47009.66
594.84	46972.21
594.99	47749.27
595.15	47269.46
595.31	47166.48
595.47	47152.43
595.62	47374.78
595.78	47377.12
595.94	47452.02
596.10	47433.30
596.25	47613.52
596.41	47533.94
596.57	47349.04
596.73	47210.95
596.88	47393.51
597.04	47196.90
597.20	47281.16
597.36	47016.68
597.51	47351.38
597.67	47512.88
597.83	47384.15
597.99	47665.01
598.14	47358.40
598.30	46756.88
598.46	47136.05
598.61	47344.36
598.77	47276.48
598.93	47414.57
599.09	47679.05
599.24	47906.08
599.40	47269.46
599.56	47868.64
599.71	47454.36
599.87	47524.58
600.03	47313.93
600.18	47349.04
600.34	47236.69
600.50	47393.51
600.65	46988.60
600.81	47370.10
600.97	47662.67
601.12	47569.05
601.28	47395.85
601.44	47250.74
601.59	47428.62
601.75	46911.36
601.91	47353.72
602.06	46941.78
602.22	47306.91
602.37	47274.14
602.53	47313.93
602.69	47555.00
602.84	47391.17
603.00	46920.72
603.16	47365.42
603.31	47222.65
603.47	47533.94
603.62	47208.61
603.78	47496.49
603.94	47126.69
604.09	47215.63
604.25	47407.55
604.40	47409.89
604.56	47234.35
604.71	47040.09
604.87	47086.90
605.03	47136.05
605.18	46777.95
605.34	46628.15
605.49	46892.63
605.65	47040.09
605.80	47065.83
605.96	47442.66
606.12	47351.38
606.27	47227.33
606.43	47199.24
606.58	46923.06
606.74	47028.38
606.89	47173.50
607.05	47379.46
607.20	47035.41
607.36	47297.55
607.51	47124.35
607.67	47007.32
607.82	46726.46
607.98	46361.33
608.13	46660.92
608.29	47047.11
608.44	46567.30
608.60	46382.40
608.75	46403.46
608.91	46906.68
609.06	46473.68
609.22	47122.01
609.37	46429.21
609.53	46724.11
609.68	46820.08
609.84	46417.50
609.99	46581.34
610.15	46611.77
610.30	46937.10
610.46	46447.93
610.61	46342.61
610.76	46424.53
610.92	46782.63
611.07	46461.97
611.23	46408.14
611.38	46717.09
611.54	46630.49
611.69	46122.60
611.84	46241.96
612.00	46387.08
612.15	46396.44
612.31	46492.40
612.46	46396.44
612.62	46588.36
612.77	46309.84
612.92	46272.39
613.08	46239.62
613.23	46574.32
613.39	46040.68
613.54	46007.91
613.69	46096.85
613.85	46398.78
614.00	46300.48
614.15	46658.58
614.31	46447.93
614.46	46050.04
614.62	46188.13
614.77	45918.97
614.92	46382.40
615.08	45832.37
615.23	45993.87
615.38	45659.17
615.54	45972.80
615.69	45844.07
615.84	45471.93
616.00	46024.29
616.15	45635.77
616.30	45862.80
616.46	45371.28
616.61	45226.17
616.76	45586.61
616.92	45382.99
617.07	45492.99
617.22	45647.47
617.37	45343.20
617.53	46005.57
617.68	45909.61
617.83	45696.62
617.99	45787.90
618.14	45478.95
618.29	45808.96
618.45	45209.79
618.60	45450.86
618.75	45200.43
618.90	44978.07
619.06	45813.65
619.21	45565.55
619.36	45310.43
619.51	45532.78
619.67	45251.92
619.82	45415.76
619.97	45626.40
620.12	45270.64
620.28	45031.91
620.43	44814.24
620.58	44966.37
620.73	44861.05
620.89	44999.14
621.04	45207.45
621.19	45045.95
621.34	44989.78
621.49	44762.75
621.65	44657.42
621.80	44858.71
621.95	44626.99
622.10	44669.12
622.25	44435.07
622.41	44502.95
622.56	44673.81
622.71	44823.60
622.86	44369.54
623.01	44643.38
623.16	44718.28
623.32	44669.12
623.47	44629.34
623.62	44336.77
623.77	44369.54
623.92	44634.02
624.07	44348.47
624.23	44062.93
624.38	44257.19
624.53	44231.44
624.68	44406.98
624.83	44126.12
624.98	44212.72
625.13	43746.95
625.29	44315.70
625.44	44182.29
625.59	44128.46
625.74	43564.39
625.89	43723.55
626.04	43250.76
626.19	43744.61
626.34	44186.97
626.49	44069.95
626.65	43924.83
626.80	44458.48
626.95	43903.77
627.10	43854.62
627.25	43442.68
627.40	43765.68
627.55	43070.54
627.70	43529.28
627.85	43732.91
628.00	43143.09
628.15	43585.46
628.30	43267.14
628.45	43934.20
628.60	43328.00
628.76	43604.18
628.91	43882.70
629.06	43381.83
629.21	43381.83
629.36	43386.51
629.51	42602.43
629.66	42782.65
629.81	43047.13
629.96	43079.90
630.11	43276.51
630.26	43391.19
630.41	43852.28
630.56	42990.96
630.71	42967.55
630.86	42616.47
631.01	42946.49
631.16	42693.71
631.31	42735.84
631.46	42583.71
631.61	42768.61
631.76	42726.48
631.91	42471.36
632.06	43222.67
632.21	43395.87
632.36	42698.39
632.51	42408.17
632.66	42836.48
632.81	42471.36
632.96	42698.39
633.10	42518.17
633.25	42550.94
633.40	42745.20
633.55	42983.94
633.70	42426.89
633.85	42784.99
634.00	42543.92
634.15	42534.56
634.30	42515.83
634.45	42354.33
634.60	42574.34
634.75	42415.19
634.90	42106.24
635.05	42326.25
635.19	42316.89
635.34	42389.44
635.49	41879.21
635.64	42223.26
635.79	42131.98
635.94	42120.28
636.09	42511.15
636.24	41727.07
636.39	41642.81
636.53	42047.72
636.68	41361.95
636.83	41970.49
636.98	42494.77
637.13	41694.30
637.28	41743.45
637.43	41904.95
637.57	42199.86
637.72	41865.16
637.87	42117.94
638.02	41680.26
638.17	41598.34
638.32	42218.58
638.46	41387.69
638.61	41907.29
638.76	42174.11
638.91	41188.75
639.06	41476.63
639.20	41226.20
639.35	41937.72
639.50	41308.11
639.65	41481.31
639.80	41624.09
639.94	41350.24
640.09	41172.36
640.24	41464.93
640.39	41380.67
640.54	41205.13
640.68	41202.79
640.83	41439.18
640.98	41277.69
641.13	40793.20
641.27	41663.88
641.42	41090.44
641.57	40952.35
641.72	41226.20
641.86	40711.28
642.01	40650.42
642.16	41029.59
642.31	40746.39
642.45	41001.50
642.60	40722.98
642.75	40655.11
642.90	40884.48
643.04	40898.52
643.19	41078.74
643.34	40638.72
643.48	40844.69
643.63	40584.89
643.78	40783.83
643.93	40072.31
644.07	40657.45
644.22	40788.52
644.37	40404.67
644.51	40488.93
644.66	40456.16
644.81	40671.49
644.95	40201.04
645.10	40985.12
645.25	40505.31
645.39	40802.56
645.54	40449.14
645.69	40203.38
645.83	40512.33
645.98	40189.34
646.13	40105.08
646.27	40109.76
646.42	40165.93
646.57	40011.46
646.71	40069.97
646.86	40371.90
647.00	40311.05
647.15	40198.70
647.30	40191.68
647.44	39770.38
647.59	40320.41
647.74	39803.15
647.88	39887.41
648.03	39894.43
648.17	40245.51
648.32	40109.76
648.47	40236.15
648.61	39838.26
648.76	39859.32
648.90	39896.77
649.05	39864.00
649.20	39966.99
649.34	39660.38
649.49	39002.69
649.63	39629.95
649.78	39669.74
649.92	39995.07
650.07	40053.59
650.21	39496.54
650.36	39732.93
650.51	39459.09
650.65	39744.64
650.80	39765.70
650.94	39601.86
651.09	39707.19
651.23	39625.27
651.38	39278.87
651.52	39108.01
651.67	39304.62
651.81	39138.44
651.96	39023.75
652.10	39281.21
652.25	38925.45
652.39	39643.99
652.54	39445.05
652.68	39164.18
652.83	39332.70
652.97	38911.41
653.12	39044.82
653.26	39330.36
653.41	39353.77
653.55	38768.63
653.70	39044.82
653.84	38670.33
653.99	39051.84
654.13	39227.38
654.27	38717.14
654.42	38359.04
654.56	38749.91
654.71	38672.67
654.85	38822.47
655.00	38728.84
655.14	37886.25
655.29	38227.97
655.43	38778.00
655.57	38251.38
655.72	38124.99
655.86	38195.20
656.01	38150.73
656.15	37586.66
656.30	38117.96
656.44	38085.20
656.58	37935.40
656.73	37954.13
656.87	38363.72
657.01	38298.19
657.16	38251.38
657.30	38122.65
657.45	38092.22
657.59	38085.20
657.73	37921.36
657.88	38050.09
658.02	38242.01
658.16	38066.47
658.31	38251.38
658.45	37645.18
658.60	37589.00
658.74	38071.15
658.88	37731.78
659.03	37949.45
659.17	37317.50
659.31	37586.66
659.46	37827.74
659.60	37813.70
659.74	37811.35
659.89	37385.38
660.03	37106.85
660.17	37509.43
660.32	37273.03
660.46	37287.07
660.60	37387.72
660.74	37331.54
660.89	37600.71
661.03	36762.79
661.17	37261.33
661.32	36591.94
661.46	36769.82
661.60	36917.27
661.74	37209.84
661.89	37078.77
662.03	36751.09
662.17	36449.16
662.31	36889.18
662.46	36715.98
662.60	36793.22
662.74	36779.18
662.88	36318.09
663.03	35835.94
663.17	36613.00
663.31	36315.75
663.45	36252.56
663.60	36158.94
663.74	36435.12
663.88	36442.14
664.02	36257.24
664.17	36060.63
664.31	35534.01
664.45	36290.01
664.59	35868.71
664.73	35721.26
664.88	35817.22
665.02	35285.92
665.16	36030.21
665.30	35711.89
665.44	35718.92
665.59	35342.09
665.73	35569.12
665.87	35637.00
666.01	35295.28
666.15	35505.93
666.29	35054.20
666.44	35655.72
666.58	35597.21
666.72	35302.30
666.86	35157.19
667.00	35470.82
667.14	35335.07
667.28	34682.06
667.43	34377.79
667.57	35166.55
667.71	34700.78
667.85	34752.27
667.99	34843.56
668.13	34541.63
668.27	34672.70
668.41	34792.06
668.56	34183.52
668.70	34899.73
668.84	34658.65
668.98	34139.05
669.12	33926.07
669.26	34103.95
669.40	33912.02
669.54	34052.45
669.68	33841.81
669.82	34003.30
669.96	33720.10
670.10	33944.79
670.25	34040.75
670.39	33668.61
670.53	33514.13
670.67	33596.05
670.81	33804.36
670.95	33607.75
671.09	33350.29
671.23	33418.17
671.37	33181.77
671.51	33111.56
671.65	33174.75
671.79	33415.83
671.93	32924.32
672.07	33083.47
672.21	33160.71
672.35	32989.85
672.49	32634.09
672.63	32790.91
672.77	32781.54
672.91	33031.98
673.05	32470.25
673.19	32741.75
673.33	32376.63
673.47	32261.94
673.61	32002.14
673.75	32018.53
673.89	31873.42
674.03	31735.32
674.17	31910.86
674.31	32257.26
674.45	31924.91
674.59	32109.81
674.73	31948.31
674.87	31999.80
675.01	31693.19
675.15	31531.70
675.29	31927.25
675.43	31042.53
675.56	31321.05
675.70	30948.90
675.84	31288.28
675.98	30380.15
676.12	31248.49
676.26	31538.72
676.40	30998.06
676.54	30948.90
676.68	31103.38
676.82	30319.30
676.96	30787.41
677.10	30394.20
677.23	30644.63
677.37	30319.30
677.51	30038.44
677.65	29855.87
677.79	29565.65
677.93	29488.41
678.07	30022.05
678.21	29649.91
678.34	29390.11
678.48	29043.71
678.62	29708.42
678.76	29345.64
678.90	28809.65
679.04	28907.96
679.18	29057.75
679.31	28559.22
679.45	28879.87
679.59	28601.35
679.73	28301.76
679.87	28311.12
680.00	28439.85
680.14	28079.41
680.28	28465.60
680.42	28107.49
680.56	28552.20
680.70	27929.61
680.83	28105.15
680.97	27850.03
681.11	27941.32
681.25	27840.67
681.39	27253.20
681.52	27721.30
681.66	27454.48
681.80	27716.62
681.94	27316.39
682.07	27337.46
682.21	27105.74
682.35	26993.40
682.49	27089.36
682.62	26848.29
682.76	26642.32
682.90	26551.04
683.04	26630.62
683.17	26394.22
683.31	26099.31
683.45	26611.89
683.59	26085.27
683.72	26321.66
683.86	25888.67
684.00	26281.88
684.13	25930.80
684.27	25509.50
684.41	25607.80
684.55	25575.03
684.68	25479.07
684.82	25528.22
684.96	25495.46
685.09	25324.60
685.23	25352.68
685.37	25174.80
685.50	25179.48
685.64	25156.08
685.78	24514.77
685.91	24652.86
686.05	24446.90
686.19	24807.34
686.32	24254.97
686.46	24093.47
686.60	23702.61
686.73	23660.48
686.87	23868.78
687.01	23707.29
687.14	23454.51
687.28	23454.51
687.42	23566.85
687.55	23604.30
687.69	23711.97
687.82	23290.67
687.96	23583.24
688.10	23070.66
688.23	23515.36
688.37	22855.33
688.50	22677.45
688.64	22792.14
688.78	23016.83
688.91	22438.72
689.05	22757.03
689.18	22520.63
689.32	22085.30
689.46	22490.21
689.59	22338.07
689.73	22555.74
689.86	22106.36
690.00	22239.77
690.13	22160.19
690.27	22118.06
690.41	21755.28
690.54	21546.97
690.68	21727.19
690.81	21675.70
690.95	21532.93
691.08	21310.58
691.22	21511.86
691.35	21516.54
691.49	21610.17
691.62	21348.03
691.76	21205.25
691.89	21261.43
692.03	21076.52
692.16	21048.44
692.30	20835.45
692.43	20652.89
692.57	20526.50
692.70	20425.86
692.84	20680.97
692.97	20437.56
693.11	20156.69
693.24	20343.94
693.38	20011.58
693.51	20123.93
693.65	19800.93
693.78	20161.37
693.92	20049.03
694.05	19892.21
694.19	19824.34
694.32	19714.33
694.45	19601.99
694.59	19398.36
694.72	19328.14
694.86	19243.88
694.99	19297.72
695.13	19112.81
695.26	18902.17
695.39	19040.26
695.53	18827.27
695.66	18913.87
695.80	18829.61
695.93	18834.29
696.07	18621.30
696.20	18607.26
696.33	18670.45
696.47	18633.00
696.60	18370.86
696.73	18340.44
696.87	17940.21
697.00	18075.96
697.14	17872.33
697.27	18092.34
697.40	17855.95
697.54	17579.76
697.67	17568.06
697.80	17610.19
697.94	17530.61
698.07	17451.03
698.21	17387.84
698.34	17231.02
698.47	17259.11
698.61	16823.77
698.74	16727.81
698.87	16819.09
699.01	16552.27
699.14	16566.31
699.27	16688.02
699.40	16395.45
699.54	16664.61
699.67	16545.25
699.80	16500.78
699.94	16308.85
700.07	16397.79
700.20	16388.43
700.34	16128.63
700.47	16421.20
700.60	16414.18
700.73	16119.27
700.87	16336.94
701.00	15955.43
701.13	16042.03
701.26	15864.15
701.40	15676.91
701.53	15389.02
701.66	15878.19
701.79	15398.38
701.93	15421.79
702.06	15442.85
702.19	15019.22
702.32	15288.38
702.46	15080.07
702.59	14920.92
702.72	15133.90
702.85	14937.30
702.99	15021.56
703.12	15122.20
703.25	14679.84
703.38	14668.14
703.51	14342.80
703.65	14672.82
703.78	14459.83
703.91	14415.36
704.04	14420.04
704.17	14455.15
704.31	14310.04
704.44	14169.60
704.57	14157.90
704.70	14143.86
704.83	14120.45
704.96	13891.08
705.10	13991.72
705.23	13961.30
>>>>>End Processed Spectral Data<<<<<
