SpectraSuite Data File
++++++++++++++++++++++++++++++++++++
Date: Fri Oct 25 10:44:33 EDT 2013
User: price-jones
Dark Spectrum Present: No
Reference Spectrum Present: No
Number of Sampled Component Spectra: 1
Spectrometers: USB2+H05261
Integration Time (usec): 100000 (USB2+H05261)
Spectra Averaged: 1 (USB2+H05261)
Boxcar Smoothing: 0 (USB2+H05261)
Correct for Electrical Dark: No (USB2+H05261)
Strobe/Lamp Enabled: No (USB2+H05261)
Correct for Detector Non-linearity: No (USB2+H05261)
Correct for Stray Light: No (USB2+H05261)
Number of Pixels in Processed Spectrum: 2048
>>>>>Begin Processed Spectral Data<<<<<
365.73	180.22
365.92	180.22
366.12	180.22
366.32	32.77
366.52	35.11
366.72	53.83
366.91	23.41
367.11	88.94
367.31	9.36
367.51	44.47
367.70	81.92
367.90	51.49
368.10	60.85
368.30	46.81
368.49	0.00
368.69	79.58
368.89	39.79
369.09	0.00
369.28	0.00
369.48	124.05
369.68	30.43
369.87	88.94
370.07	114.69
370.27	79.58
370.47	205.97
370.66	346.40
370.86	421.30
371.06	463.43
371.25	512.58
371.45	482.15
371.65	449.38
371.84	447.04
372.04	411.93
372.24	468.11
372.44	498.53
372.63	500.87
372.83	528.96
373.03	489.17
373.22	472.79
373.42	491.51
373.62	545.34
373.81	557.05
374.01	519.60
374.21	559.39
374.40	540.66
374.60	547.69
374.79	599.18
374.99	552.37
375.19	505.56
375.38	500.87
375.58	561.73
375.78	526.62
375.97	601.52
376.17	557.05
376.37	573.43
376.56	510.24
376.76	617.90
376.95	568.75
377.15	573.43
377.35	676.41
377.54	582.79
377.74	550.03
377.93	645.99
378.13	615.56
378.33	627.26
378.52	627.26
378.72	631.94
378.91	585.13
379.11	552.37
379.31	636.63
379.50	657.69
379.70	580.45
379.89	624.92
380.09	676.41
380.28	648.33
380.48	620.24
380.68	608.54
380.87	662.37
381.07	681.10
381.26	660.03
381.46	704.50
381.65	674.07
381.85	575.77
382.04	622.58
382.24	695.14
382.43	638.97
382.63	620.24
382.83	732.59
383.02	692.80
383.22	669.39
383.41	711.52
383.61	706.84
383.80	758.33
384.00	720.88
384.19	620.24
384.39	758.33
384.58	741.95
384.78	730.25
384.97	730.25
385.17	716.20
385.36	772.38
385.56	809.83
385.75	788.76
385.95	807.48
386.14	767.70
386.34	791.10
386.53	751.31
386.72	814.51
386.92	833.23
387.11	772.38
387.31	767.70
387.50	791.10
387.70	917.49
387.89	873.02
388.09	887.06
388.28	854.30
388.48	816.85
388.67	943.24
388.86	915.15
389.06	926.85
389.25	950.26
389.45	877.70
389.64	943.24
389.84	987.71
390.03	877.70
390.22	1001.75
390.42	791.10
390.61	889.40
390.81	961.96
391.00	847.27
391.19	950.26
391.39	959.62
391.58	973.66
391.78	950.26
391.97	968.98
392.16	926.85
392.36	1027.50
392.55	1001.75
392.75	889.40
392.94	945.58
393.13	926.85
393.33	999.41
393.52	987.71
393.71	1008.77
393.91	1071.97
394.10	964.30
394.29	1034.52
394.49	1100.05
394.68	1114.10
394.88	1114.10
395.07	1188.99
395.26	1121.12
395.46	1074.31
395.65	1172.61
395.84	1060.26
396.04	1163.25
396.23	1118.78
396.42	1076.65
396.62	1125.80
396.81	1123.46
397.00	1163.25
397.19	1144.52
397.39	1226.44
397.58	1296.66
397.77	1315.38
397.97	1284.95
398.16	1214.74
398.35	1355.17
398.55	1179.63
398.74	1343.47
398.93	1411.34
399.12	1352.83
399.32	1380.92
399.51	1434.75
399.70	1437.09
399.90	1383.26
400.09	1401.98
400.28	1427.73
400.47	1481.56
400.67	1507.30
400.86	1453.47
401.05	1497.94
401.24	1526.03
401.44	1577.52
401.63	1504.96
401.82	1425.39
402.01	1502.62
402.21	1502.62
402.40	1558.80
402.59	1483.90
402.78	1519.01
402.97	1495.60
403.17	1596.25
403.36	1640.72
403.55	1582.20
403.74	1722.63
403.93	1797.53
404.13	1764.76
404.32	1736.68
404.51	1685.19
404.70	1732.00
404.89	1636.03
405.09	1734.34
405.28	1757.74
405.47	1893.49
405.66	1820.94
405.85	1788.17
406.05	1851.36
406.24	1813.92
406.43	1811.57
406.62	1874.77
406.81	1940.30
407.00	1909.88
407.20	1748.38
407.39	1778.81
407.58	1888.81
407.77	2010.52
407.96	1933.28
408.15	1959.03
408.34	2019.88
408.54	2001.16
408.73	2122.87
408.92	2218.83
409.11	2083.08
409.30	2038.61
409.49	2139.25
409.68	2045.63
409.87	2071.37
410.07	2167.34
410.26	2139.25
410.45	2176.70
410.64	2284.36
410.83	2289.04
411.02	2232.87
411.21	2356.92
411.40	2462.24
411.59	2249.25
411.78	2408.41
411.98	2375.64
412.17	2394.37
412.36	2368.62
412.55	2417.77
412.74	2499.69
412.93	2626.08
413.12	2438.84
413.31	2511.39
413.50	2518.42
413.69	2511.39
413.88	2656.51
414.07	2658.85
414.26	2773.53
414.45	2731.41
414.64	2740.77
414.83	2773.53
415.02	2686.94
415.22	2754.81
415.41	2895.24
415.60	2881.20
415.79	2822.69
415.98	2965.46
416.17	2836.73
416.36	3038.02
416.55	2841.41
416.74	3000.57
416.93	2913.97
417.12	3005.25
417.31	2991.20
417.50	2949.08
417.69	3148.02
417.88	3199.51
418.07	3105.89
418.26	3098.87
418.45	3066.10
418.64	3346.97
418.83	3321.22
419.02	3239.30
419.21	3206.53
419.39	3382.07
419.58	3236.96
419.77	3269.73
419.96	3337.60
420.15	3260.37
420.34	3304.84
420.53	3382.07
420.72	3375.05
420.91	3400.80
421.10	3463.99
421.29	3536.55
421.48	3503.78
421.67	3623.15
421.86	3419.52
422.05	3403.14
422.24	3431.23
422.43	3487.40
422.61	3592.72
422.80	3611.45
422.99	3592.72
423.18	3613.79
423.37	3672.30
423.56	3571.66
423.75	3681.66
423.94	3611.45
424.13	3445.27
424.32	3417.18
424.50	3644.21
424.69	3786.99
424.88	3810.39
425.07	3494.42
425.26	3576.34
425.45	3536.55
425.64	3545.91
425.83	3669.96
426.01	3709.75
426.20	3798.69
426.39	3712.09
426.58	3634.85
426.77	3606.77
426.96	3742.52
427.15	3686.34
427.33	3665.28
427.52	3662.94
427.71	3644.21
427.90	3843.16
428.09	3962.53
428.28	3894.65
428.46	3810.39
428.65	3688.68
428.84	4007.00
429.03	3829.12
429.22	3740.18
429.40	3859.54
429.59	3866.56
429.78	3632.51
429.97	3721.45
430.16	3765.92
430.34	3847.84
430.53	3894.65
430.72	3833.80
430.91	3990.61
431.10	4032.74
431.28	4210.62
431.47	4276.16
431.66	4219.99
431.85	4224.67
432.03	4257.43
432.22	4294.88
432.41	4173.18
432.60	4287.86
432.79	4411.91
432.97	4510.21
433.16	4315.95
433.35	4241.05
433.54	4311.27
433.72	4374.46
433.91	4257.43
434.10	4381.48
434.28	4386.16
434.47	4444.68
434.66	4477.44
434.85	4341.69
435.03	4498.51
435.22	4645.96
435.41	4643.62
435.59	4592.13
435.78	4540.64
435.97	4706.82
436.16	4713.84
436.34	4676.39
436.53	4681.07
436.72	4772.35
436.90	4648.30
437.09	4762.99
437.28	4648.30
437.46	4727.88
437.65	4765.33
437.84	4805.12
438.02	4657.67
438.21	4760.65
438.40	4753.63
438.58	5050.88
438.77	4994.70
438.96	5050.88
439.14	5226.42
439.33	4985.34
439.52	5121.09
439.70	5104.71
439.89	5247.48
440.08	5416.00
440.26	5348.12
440.45	5247.48
440.63	5310.68
440.82	5331.74
441.01	5486.22
441.19	5589.20
441.38	5593.88
441.57	5643.03
441.75	5666.44
441.94	5650.05
442.12	5792.83
442.31	5984.75
442.50	5788.14
442.68	5827.93
442.87	5977.73
443.05	5977.73
443.24	5849.00
443.43	5966.03
443.61	5947.30
443.80	6186.04
443.98	5900.49
444.17	5736.65
444.35	6101.78
444.54	6083.05
444.73	5879.43
444.91	5921.56
445.10	5928.58
445.28	5907.51
445.47	6008.16
445.65	5935.60
445.84	6024.54
446.02	5980.07
446.21	5926.24
446.39	6010.50
446.58	6132.20
446.77	6092.41
446.95	5966.03
447.14	6115.82
447.32	6232.85
447.51	6050.28
447.69	6186.04
447.88	5933.26
448.06	6073.69
448.25	6115.82
448.43	6118.16
448.62	6193.06
448.80	6092.41
448.99	6361.58
449.17	6223.48
449.36	6162.63
449.54	6286.68
449.73	6361.58
449.91	6644.78
450.10	6462.22
450.28	6518.39
450.46	6551.16
450.65	6478.60
450.83	6679.89
451.02	6537.12
451.20	6532.44
451.39	6539.46
451.57	6607.33
451.76	6420.09
451.94	6607.33
452.13	6553.50
452.31	6555.84
452.49	6544.14
452.68	6862.45
452.86	6548.82
453.05	6703.29
453.23	6597.97
453.42	6801.60
453.60	6729.04
453.78	6771.17
453.97	6759.47
454.15	6689.25
454.34	6796.92
454.52	6857.77
454.70	7133.95
454.89	7129.27
455.07	7026.29
455.26	7037.99
455.44	6953.73
455.62	7000.54
455.81	7143.32
455.99	7138.63
456.17	7152.68
456.36	7012.24
456.54	7183.10
456.73	7365.67
456.91	7548.23
457.09	7506.10
457.28	7522.48
457.46	7258.00
457.64	7403.11
457.83	7503.76
458.01	7253.32
458.19	7625.47
458.38	7377.37
458.56	7791.64
458.74	7531.84
458.93	7585.68
459.11	7655.89
459.29	7407.80
459.48	7742.49
459.66	7744.83
459.84	7751.85
460.03	7875.90
460.21	7882.92
460.39	7892.29
460.57	7719.09
460.76	7822.07
460.94	8128.68
461.12	7960.16
461.31	7911.01
461.49	7953.14
461.67	7847.82
461.85	8198.90
462.04	8063.15
462.22	8243.37
462.40	8187.19
462.59	8065.49
462.77	8224.64
462.95	8231.66
463.13	8016.33
463.32	8203.58
463.50	8212.94
463.68	8400.18
463.86	8430.61
464.05	8339.33
464.23	8145.06
464.41	8341.67
464.59	8109.96
464.78	8500.83
464.96	8493.80
465.14	8182.51
465.32	8634.24
465.50	8681.05
465.69	8643.60
465.87	8552.32
466.05	8517.21
466.23	8411.89
466.41	8643.60
466.60	8648.28
466.78	8470.40
466.96	8622.53
467.14	8739.56
467.32	8739.56
467.51	8784.03
467.69	8322.94
467.87	8709.13
468.05	8833.18
468.23	8641.26
468.41	8519.55
468.60	8858.93
468.78	8765.31
468.96	8933.82
469.14	8985.32
469.32	9128.09
469.50	8842.54
469.69	8936.17
469.87	8992.34
470.05	9357.46
470.23	9139.79
470.41	9027.45
470.59	9390.23
470.77	9128.09
470.95	9233.41
471.14	9441.72
471.32	9013.40
471.50	9500.23
471.68	9359.80
471.86	9390.23
472.04	9399.59
472.22	9827.91
472.40	9399.59
472.58	9921.53
472.77	9535.34
472.95	9982.38
473.13	9984.73
473.31	9664.07
473.49	9865.36
473.67	9767.06
473.85	9818.55
474.03	10090.05
474.21	10106.43
474.39	10363.89
474.57	10296.02
474.75	10132.18
474.93	10359.21
475.12	10452.83
475.30	10260.91
475.48	10347.51
475.66	10457.51
475.84	10256.23
476.02	10656.46
476.20	10473.90
476.38	10778.17
476.56	10820.30
476.74	10892.85
476.92	10843.70
477.10	11000.52
477.28	11124.57
477.46	11138.61
477.64	11021.58
477.82	11543.52
478.00	11562.25
478.18	11435.86
478.36	11609.06
478.54	11573.95
478.72	11721.40
478.90	11925.03
479.08	11985.88
479.26	12198.87
479.44	12112.27
479.62	12128.66
479.80	12446.97
479.98	12582.72
480.16	12610.81
480.34	12489.10
480.52	12809.75
480.70	12723.15
480.88	12704.43
481.06	12608.47
481.24	12861.24
481.41	13055.51
481.59	13298.92
481.77	13308.29
481.95	13090.62
482.13	13357.44
482.31	13469.78
482.49	13879.38
482.67	13825.54
482.85	13954.27
483.03	14162.58
483.21	14078.32
483.39	14375.57
483.57	14139.18
483.74	14352.16
483.92	14331.10
484.10	14427.06
484.28	14834.32
484.46	14909.21
484.64	15302.42
484.82	14902.19
485.00	15302.42
485.18	15353.91
485.35	15393.70
485.53	15241.57
485.71	15339.87
485.89	15335.19
486.07	15616.05
486.25	15536.48
486.43	15700.31
486.61	15981.18
486.78	16002.24
486.96	16388.43
487.14	16622.48
487.32	16692.70
487.50	16783.98
487.68	16889.31
487.85	17172.51
488.03	17420.61
488.21	17308.26
488.39	17083.57
488.57	17673.39
488.75	17682.75
488.92	17968.29
489.10	18052.55
489.28	17858.29
489.46	18431.72
489.64	18270.22
489.81	18869.40
489.99	18705.56
490.17	18745.35
490.35	19094.09
490.53	18850.67
490.70	19009.83
490.88	19154.94
491.06	19524.75
491.24	19456.87
491.41	19814.98
491.59	19293.04
491.77	19440.49
491.95	19499.00
492.13	19798.59
492.30	20149.67
492.48	20201.16
492.66	20360.32
492.84	20545.22
493.01	20781.62
493.19	20739.49
493.37	20933.75
493.54	20821.41
493.72	21099.93
493.90	21231.00
494.08	21373.77
494.25	21462.71
494.43	21853.58
494.61	21968.27
494.79	21839.54
494.96	21745.92
495.14	21750.60
495.32	22281.90
495.49	22188.28
495.67	22225.73
495.85	22405.95
496.02	22396.59
496.20	22541.70
496.38	22682.13
496.55	22890.44
496.73	23321.10
496.91	23047.26
497.09	23384.29
497.26	23641.75
497.44	23922.62
497.62	23718.99
497.79	23786.86
497.97	23805.59
498.14	23810.27
498.32	24142.63
498.50	23784.52
498.67	24301.78
498.85	24140.29
499.03	24627.12
499.20	24299.44
499.38	24786.27
499.56	24694.99
499.73	24669.25
499.91	24631.80
500.08	25317.57
500.26	24718.40
500.44	24840.11
500.61	25025.01
500.79	25301.19
500.97	25308.21
501.14	25654.61
501.32	25504.82
501.49	25298.85
501.67	25858.24
501.84	25832.49
502.02	25589.08
502.20	26127.40
502.37	26169.53
502.55	26338.05
502.72	26415.29
502.90	26260.81
503.07	26181.23
503.25	26625.93
503.43	26113.36
503.60	26595.51
503.78	26656.36
503.95	26405.92
504.13	26937.23
504.30	26623.59
504.48	26749.98
504.65	27447.46
504.83	27431.08
505.01	27426.40
505.18	27503.64
505.36	27456.82
505.53	27669.81
505.71	27957.70
505.88	28144.94
506.06	27400.65
506.23	27835.99
506.41	27871.10
506.58	27847.69
506.76	28032.60
506.93	28348.57
507.11	28130.90
507.28	28201.11
507.46	28229.20
507.63	28393.04
507.81	28449.21
507.98	28238.56
508.16	28701.99
508.33	28559.22
508.50	28924.34
508.68	29268.40
508.85	28966.47
509.03	29235.63
509.20	29502.45
509.38	29483.73
509.55	29340.96
509.73	29441.60
509.90	29799.70
510.08	29603.10
510.25	29350.32
510.42	29874.60
510.60	29755.23
510.77	29591.39
510.95	30373.13
511.12	29883.96
511.30	30347.39
511.47	30686.76
511.64	30064.18
511.82	30583.78
511.99	30436.33
512.17	30373.13
512.34	30499.52
512.51	30787.41
512.69	31047.21
512.86	30953.58
513.04	31222.75
513.21	31087.00
513.38	31180.62
513.56	30885.71
513.73	31042.53
513.90	30969.97
514.08	31211.04
514.25	31777.45
514.43	31426.37
514.60	31845.33
514.77	31510.63
514.95	31789.16
515.12	31964.70
515.29	31840.65
515.47	31981.08
515.64	32306.41
515.81	31859.37
515.99	31990.44
516.16	32294.71
516.33	31873.42
516.51	32245.56
516.68	31920.23
516.85	31952.99
517.03	32006.83
517.20	32137.90
517.37	32432.80
517.54	32498.34
517.72	32526.42
517.89	32514.72
518.06	32229.18
518.24	32566.21
518.41	32318.12
518.58	32844.74
518.75	32680.90
518.93	33378.38
519.10	33366.68
519.27	33041.34
519.45	33249.65
519.62	33418.17
519.79	33216.88
519.96	33682.65
520.14	33511.79
520.31	33738.82
520.48	33406.47
520.65	33539.88
520.83	33993.94
521.00	34499.50
521.17	34005.64
521.34	34157.78
521.52	34270.12
521.69	34073.52
521.86	34515.88
522.03	34361.40
522.20	34352.04
522.38	34576.73
522.55	34567.37
522.72	34527.58
522.89	34768.66
523.07	35093.99
523.24	34614.18
523.41	35124.42
523.58	34553.33
523.75	35615.93
523.92	35257.83
524.10	35538.69
524.27	35386.56
524.44	35667.42
524.61	35487.20
524.78	35414.65
524.96	35456.78
525.13	35747.00
525.30	35981.06
525.47	36123.83
525.64	35438.05
525.81	35763.39
525.98	35639.34
526.16	35948.29
526.33	35227.40
526.50	36334.48
526.67	35674.45
526.84	35679.13
527.01	35690.83
527.18	35601.89
527.36	36374.27
527.53	36025.53
527.70	36570.87
527.87	36533.42
528.04	36353.20
528.21	36577.89
528.38	36849.39
528.55	36704.28
528.72	36767.48
528.89	36802.58
529.07	37296.44
529.24	36823.65
529.41	37127.92
529.58	36655.13
529.75	37055.36
529.92	37144.30
530.09	37156.00
530.26	37024.93
530.43	37287.07
530.60	37062.38
530.77	37294.10
530.94	38014.98
531.11	37366.65
531.28	37593.68
531.46	37699.01
531.63	37762.20
531.80	38054.77
531.97	37607.73
532.14	37663.90
532.31	37500.06
532.48	37757.52
532.65	37757.52
532.82	37567.94
532.99	37872.21
533.16	37860.51
533.33	38476.07
533.50	38003.28
533.67	37972.85
533.84	37919.02
534.01	38089.88
534.18	38522.88
534.35	38600.12
534.52	38672.67
534.69	38651.61
534.86	38543.94
535.03	38405.85
535.20	38625.86
535.37	38876.30
535.54	39225.04
535.71	39033.11
535.88	38733.53
536.05	38691.40
536.22	39194.61
536.38	38836.51
536.55	39007.37
536.72	38990.98
536.89	38951.20
537.06	38967.58
537.23	39161.84
537.40	38986.30
537.57	39210.99
537.74	39400.58
537.91	39393.56
538.08	38916.09
538.25	39157.16
538.42	39044.82
538.59	39700.17
538.75	39288.23
538.92	39218.02
539.09	39557.39
539.26	39842.94
539.43	39201.63
539.60	39519.95
539.77	39576.12
539.94	39803.15
540.11	39693.15
540.28	39660.38
540.44	40016.14
540.61	39428.66
540.78	39864.00
540.95	39737.62
541.12	39676.76
541.29	40088.70
541.46	39849.96
541.62	40201.04
541.79	40575.53
541.96	40025.50
542.13	39974.01
542.30	40041.88
542.47	40355.52
542.63	40032.52
542.80	40589.57
542.97	40840.01
543.14	40987.46
543.31	41022.57
543.48	40528.72
543.64	41186.41
543.81	41041.29
543.98	41060.02
544.15	40594.25
544.32	41425.14
544.48	41322.16
544.65	41167.68
544.82	41490.68
544.99	40999.16
545.16	41443.87
545.32	41265.99
545.49	41301.09
545.66	41099.81
545.83	41539.83
546.00	41551.53
546.16	41558.55
546.33	41441.53
546.50	41441.53
546.67	42017.30
546.83	40973.42
547.00	41273.01
547.17	41305.77
547.34	41399.40
547.50	42080.49
547.67	42185.82
547.84	41860.48
548.00	42260.71
548.17	41694.30
548.34	41998.57
548.51	41958.78
548.67	41972.83
548.84	42204.54
549.01	41951.76
549.18	42080.49
549.34	41773.88
549.51	41780.90
549.68	42195.18
549.84	41610.04
550.01	42328.59
550.18	42415.19
550.34	42375.40
550.51	42412.85
550.68	42536.90
550.84	41942.40
551.01	42426.89
551.18	42579.03
551.34	42333.27
551.51	42007.94
551.68	42513.49
551.84	42417.53
552.01	42698.39
552.18	42382.42
552.34	42850.53
552.51	42834.14
552.68	42391.78
552.84	42848.19
553.01	42775.63
553.18	43100.97
553.34	42972.24
553.51	42443.27
553.67	42972.24
553.84	43391.19
554.01	42974.58
554.17	42953.51
554.34	43040.11
554.51	43105.65
554.67	43206.29
554.84	43023.73
555.00	43115.01
555.17	42885.64
555.33	43063.52
555.50	43058.84
555.67	42803.72
555.83	43175.86
556.00	43365.45
556.16	43732.91
556.33	43107.99
556.50	43187.56
556.66	43037.77
556.83	43573.75
556.99	43438.00
557.16	43494.18
557.32	43452.05
557.49	43498.86
557.65	43290.55
557.82	43358.42
557.98	43140.75
558.15	43566.73
558.32	43552.69
558.48	43100.97
558.65	43576.09
558.81	43152.46
558.98	43463.75
559.14	43475.45
559.31	44098.03
559.47	43665.03
559.64	43931.86
559.80	43746.95
559.97	43861.64
560.13	43957.60
560.30	43555.03
560.46	44224.42
560.63	44165.91
560.79	44121.44
560.96	44163.57
561.12	43826.53
561.29	43962.28
561.45	43871.00
561.61	43725.89
561.78	43856.96
561.94	43934.20
562.11	44261.87
562.27	43665.03
562.44	44130.80
562.60	43786.74
562.77	43964.62
562.93	44006.75
563.10	44023.14
563.26	43253.10
563.42	43917.81
563.59	43807.81
563.75	43871.00
563.92	44163.57
564.08	44088.67
564.24	44458.48
564.41	44296.98
564.57	43796.10
564.74	44172.93
564.90	44259.53
565.07	44325.07
565.23	44109.74
565.39	44243.15
565.56	44289.96
565.72	44002.07
565.88	43892.07
566.05	44137.82
566.21	44212.72
566.38	44128.46
566.54	44179.95
566.70	44687.85
566.87	44847.00
567.03	44252.51
567.19	44598.91
567.36	44376.56
567.52	44203.36
567.68	44320.38
567.85	44540.39
568.01	44584.86
568.17	44278.25
568.34	44280.60
568.50	44397.62
568.66	43934.20
568.83	44601.25
568.99	43707.16
569.15	44648.06
569.32	43948.24
569.48	43995.05
569.64	44762.75
569.81	44610.61
569.97	44643.38
570.13	44774.45
570.30	44442.09
570.46	44196.34
570.62	43889.73
570.78	44229.10
570.95	44292.30
571.11	44470.18
571.27	44149.53
571.43	44271.23
571.60	43964.62
571.76	44444.43
571.92	44811.90
572.09	44903.18
572.25	44552.10
572.41	44210.38
572.57	44641.04
572.74	44428.05
572.90	44292.30
573.06	44556.78
573.22	44619.97
573.38	44650.40
573.55	44332.09
573.71	44425.71
573.87	44968.71
574.03	44231.44
574.20	44821.26
574.36	44435.07
574.52	44142.50
574.68	45036.59
574.84	44701.89
575.01	44837.64
575.17	44582.52
575.33	44296.98
575.49	44458.48
575.65	45144.25
575.82	44748.70
575.98	44830.62
576.14	44947.65
576.30	44678.49
576.46	44734.66
576.62	44498.26
576.79	44973.39
576.95	44369.54
577.11	44779.13
577.27	45031.91
577.43	44898.50
577.59	44797.85
577.75	44868.07
577.92	44194.00
578.08	44568.48
578.24	44175.27
578.40	44659.76
578.56	44886.79
578.72	44957.01
578.88	44994.46
579.04	44683.17
579.21	44612.95
579.37	44739.34
579.53	45010.84
579.69	44542.74
579.85	44697.21
580.01	44961.69
580.17	44809.56
580.33	44835.30
580.49	44816.58
580.65	44746.36
580.82	44786.15
580.98	44601.25
581.14	45158.30
581.30	44678.49
581.46	44987.44
581.62	44992.12
581.78	44758.06
581.94	45008.50
582.10	44699.55
582.26	45305.75
582.42	45003.82
582.58	44746.36
582.74	44629.34
582.90	45031.91
583.06	44957.01
583.22	45008.50
583.38	45408.73
583.54	44769.77
583.70	44891.48
583.86	44414.01
584.02	44322.72
584.18	44879.77
584.34	44587.21
584.50	44662.10
584.66	44390.60
584.82	44416.35
584.98	45057.65
585.14	44935.95
585.30	45132.55
585.46	45024.89
585.62	44795.51
585.78	44645.72
585.94	44608.27
586.10	44596.57
586.26	44722.96
586.42	44954.67
586.58	45057.65
586.74	44713.59
586.90	44577.84
587.06	44512.31
587.22	44884.45
587.38	44734.66
587.54	45352.56
587.70	45001.48
587.86	44830.62
588.02	44917.22
588.18	45219.15
588.34	44570.82
588.49	44884.45
588.65	44257.19
588.81	44350.81
588.97	44933.60
589.13	44737.00
589.29	44568.48
589.45	45081.06
589.61	45078.72
589.77	44891.48
589.93	45165.32
590.08	45111.49
590.24	45186.38
590.40	45411.07
590.56	45048.29
590.72	44346.13
590.88	44797.85
591.04	45233.19
591.20	45408.73
591.35	45074.04
591.51	45558.53
591.67	44982.76
591.83	45155.96
591.99	45296.39
592.15	45352.56
592.31	45226.17
592.46	44622.31
592.62	45125.53
592.78	45401.71
592.94	45303.41
593.10	44952.33
593.26	45151.27
593.41	45134.89
593.57	45120.85
593.73	45134.89
593.89	44891.48
594.05	44650.40
594.20	45207.45
594.36	45003.82
594.52	45212.13
594.68	44917.22
594.84	44746.36
594.99	45315.11
595.15	45361.92
595.31	45324.47
595.47	45153.62
595.62	45193.40
595.78	45116.17
595.94	45008.50
596.10	45113.83
596.25	45595.98
596.41	45483.63
596.57	45027.23
596.73	45525.76
596.88	44554.44
597.04	45090.42
597.20	45387.67
597.36	45240.21
597.51	45207.45
597.67	45846.41
597.83	45406.39
597.99	45624.06
598.14	45413.41
598.30	45078.72
598.46	44978.07
598.61	45291.71
598.77	44886.79
598.93	44835.30
599.09	45031.91
599.24	45895.56
599.40	45495.33
599.56	45542.14
599.71	45308.09
599.87	45551.51
600.03	45331.50
600.18	45373.63
600.34	45186.38
600.50	45483.63
600.65	45048.29
600.81	45277.66
600.97	45467.25
601.12	45345.54
601.28	45483.63
601.44	44697.21
601.59	44980.42
601.75	45029.57
601.91	45387.67
602.06	45146.59
602.22	45289.37
602.37	45251.92
602.53	44790.83
602.69	45497.67
602.84	45366.60
603.00	44994.46
603.16	44825.94
603.31	45151.27
603.47	44928.92
603.62	45235.53
603.78	45275.32
603.94	45319.79
604.09	45783.22
604.25	45511.72
604.40	45385.33
604.56	45284.68
604.71	45443.84
604.87	45167.66
605.03	45085.74
605.18	44807.22
605.34	44947.65
605.49	45628.74
605.65	44968.71
605.80	45071.70
605.96	44868.07
606.12	45153.62
606.27	45415.76
606.43	45120.85
606.58	44863.39
606.74	44832.96
606.89	45034.25
607.05	45198.09
607.20	44830.62
607.36	45141.91
607.51	44844.66
607.67	44980.42
607.82	45083.40
607.98	45390.01
608.13	44947.65
608.29	44863.39
608.44	44559.12
608.60	44243.15
608.75	44828.28
608.91	44194.00
609.06	44631.68
609.22	44865.73
609.37	44088.67
609.53	44914.88
609.68	44708.91
609.84	44683.17
609.99	44655.08
610.15	44729.98
610.30	44821.26
610.46	44692.53
610.61	44486.56
610.76	44692.53
610.92	45076.38
611.07	45106.80
611.23	44783.81
611.38	44453.79
611.54	44629.34
611.69	44421.03
611.84	44549.76
612.00	44383.58
612.15	43997.39
612.31	44533.37
612.46	44509.97
612.62	44502.95
612.77	44212.72
612.92	44348.47
613.08	44222.08
613.23	44360.17
613.39	44467.84
613.54	43854.62
613.69	44034.84
613.85	44325.07
614.00	44652.74
614.15	44664.44
614.31	44285.28
614.46	44481.88
614.62	43992.71
614.77	44123.78
614.92	44339.11
615.08	43826.53
615.23	43985.69
615.38	43669.72
615.54	43803.13
615.69	43945.90
615.84	43693.12
616.00	44194.00
616.15	43873.34
616.30	43828.87
616.46	43697.80
616.61	43665.03
616.76	43480.13
616.92	43316.29
617.07	43686.10
617.22	43306.93
617.37	43550.35
617.53	43831.21
617.68	43945.90
617.83	43887.39
617.99	43906.11
618.14	43938.88
618.29	43800.79
618.45	43143.09
618.60	43400.55
618.75	43683.76
618.90	43180.54
619.06	43660.35
619.21	43672.06
619.36	43915.47
619.51	43674.40
619.67	43068.20
619.82	43526.94
619.97	43313.95
620.12	43381.83
620.28	43138.41
620.43	43540.99
620.58	42857.55
620.73	43402.89
620.89	43105.65
621.04	43489.49
621.19	43005.00
621.34	43255.44
621.49	43330.34
621.65	42639.88
621.80	42941.81
621.95	42515.83
622.10	43299.91
622.25	42490.09
622.41	43005.00
622.56	42749.88
622.71	42965.21
622.86	42672.65
623.01	42726.48
623.16	42841.17
623.32	42689.03
623.47	43016.71
623.62	42480.72
623.77	43122.03
623.92	42845.85
624.07	42752.23
624.23	42508.81
624.38	42656.26
624.53	42663.28
624.68	42480.72
624.83	42459.66
624.98	42569.66
625.13	42403.49
625.29	42391.78
625.44	42614.13
625.59	42417.53
625.74	42164.75
625.89	41975.17
626.04	41951.76
626.19	42443.27
626.34	42534.56
626.49	42356.67
626.65	42099.22
626.80	42237.31
626.95	42021.98
627.10	42389.44
627.25	42314.55
627.40	41631.11
627.55	41729.41
627.70	41385.35
627.85	41649.83
628.00	41827.71
628.15	41755.16
628.30	41808.99
628.45	42124.96
628.60	41935.38
628.76	42206.88
628.91	41820.69
629.06	41675.58
629.21	41748.14
629.36	41462.59
629.51	41797.29
629.66	41493.02
629.81	41453.23
629.96	41390.03
630.11	41502.38
630.26	41787.92
630.41	41317.48
630.56	41687.28
630.71	41605.36
630.86	41301.09
631.01	41432.16
631.16	41464.93
631.31	41432.16
631.46	41364.29
631.61	41317.48
631.76	41567.91
631.91	41200.45
632.06	41375.99
632.21	41916.65
632.36	40933.63
632.51	40872.78
632.66	41095.13
632.81	40673.83
632.96	41022.57
633.10	41113.85
633.25	40959.38
633.40	41010.87
633.55	41317.48
633.70	40706.60
633.85	40568.51
634.00	40947.67
634.15	41097.47
634.30	41092.79
634.45	40919.59
634.60	41078.74
634.75	40570.85
634.90	40870.43
635.05	40502.97
635.19	40397.65
635.34	41074.06
635.49	40540.42
635.64	40758.09
635.79	40329.77
635.94	40573.19
636.09	40844.69
636.24	40357.86
636.39	40594.25
636.53	40428.07
636.68	40549.78
636.83	40402.33
636.98	40783.83
637.13	39824.22
637.28	40870.43
637.43	40879.80
637.57	40594.25
637.72	40381.26
637.87	40231.47
638.02	40521.69
638.17	40304.02
638.32	40151.89
638.46	40362.54
638.61	39959.97
638.76	39800.81
638.91	40179.98
639.06	39959.97
639.20	39690.80
639.35	40102.74
639.50	40137.85
639.65	40013.80
639.80	40498.29
639.94	39838.26
640.09	40098.06
640.24	40084.01
640.39	39646.33
640.54	39662.72
640.68	39903.79
640.83	39824.22
640.98	39447.39
641.13	39435.69
641.27	39721.23
641.42	39819.53
641.57	39620.59
641.72	39555.05
641.86	39016.73
642.01	39058.86
642.16	39108.01
642.31	39302.28
642.45	39335.04
642.60	39250.78
642.75	38972.26
642.90	39763.36
643.04	39704.85
643.19	39405.26
643.34	39007.37
643.48	39203.97
643.63	38710.12
643.78	39316.32
643.93	38843.53
644.07	38305.21
644.22	38789.70
644.37	39351.43
644.51	39239.08
644.66	39440.37
644.81	39302.28
644.95	39512.92
645.10	39168.87
645.25	39222.70
645.39	39187.59
645.54	38864.60
645.69	39206.31
645.83	38550.96
645.98	39009.71
646.13	38909.07
646.27	38738.21
646.42	39058.86
646.57	38534.58
646.71	39093.97
646.86	38850.55
647.00	38649.27
647.15	39033.11
647.30	38677.35
647.44	38415.21
647.59	38382.45
647.74	38405.85
647.88	38878.64
648.03	38806.08
648.17	38667.99
648.32	38139.03
648.47	38541.60
648.61	38120.31
648.76	38597.77
648.90	38227.97
649.05	38462.02
649.20	38618.84
649.34	38326.27
649.49	38148.39
649.63	37801.99
649.78	38515.86
649.92	37923.70
650.07	38494.79
650.21	37834.76
650.36	37979.87
650.51	38312.23
650.65	38733.53
650.80	38443.30
650.94	38333.29
651.09	38536.92
651.23	37975.19
651.38	38146.05
651.52	37930.72
651.67	38436.28
651.81	37839.44
651.96	37923.70
652.10	37607.73
652.25	37825.40
652.39	37851.14
652.54	37839.44
652.68	37961.15
652.83	37869.87
652.97	37897.95
653.12	37682.62
653.26	37715.39
653.41	37277.71
653.55	37123.24
653.70	37242.60
653.84	37598.37
653.99	37764.54
654.13	37490.70
654.27	37343.25
654.42	37368.99
654.56	37247.29
654.71	37612.41
654.85	37647.52
655.00	37532.83
655.14	37156.00
655.29	36825.99
655.43	36531.08
655.57	36865.78
655.72	37158.34
655.86	36697.26
656.01	36938.33
656.15	36723.01
656.30	36725.35
656.44	36561.51
656.58	36617.68
656.73	36493.63
656.87	36713.64
657.01	36451.50
657.16	36978.12
657.30	36926.63
657.45	36381.29
657.59	36552.15
657.73	36231.49
657.88	36659.81
658.02	37198.13
658.16	36708.96
658.31	36657.47
658.45	36547.47
658.60	36484.27
658.74	36683.22
658.88	36608.32
659.03	36381.29
659.17	36299.37
659.31	36376.61
659.46	36158.94
659.60	36189.36
659.74	36243.20
659.89	35936.59
660.03	36240.86
660.17	35702.53
660.32	35924.88
660.46	36016.16
660.60	36264.26
660.74	35924.88
660.89	35821.90
661.03	35714.23
661.17	35215.70
661.32	35433.37
661.46	35676.79
661.60	36025.53
661.74	36048.93
661.89	35564.44
662.03	35892.12
662.17	35288.26
662.31	35290.60
662.46	35431.03
662.60	35180.59
662.74	35491.88
662.88	34693.76
663.03	34934.84
663.17	35365.49
663.31	34878.66
663.45	35201.66
663.60	35306.98
663.74	34855.26
663.88	34941.86
664.02	34862.28
664.17	35189.95
664.31	34714.83
664.45	34721.85
664.59	34410.56
664.73	34574.39
664.88	34700.78
665.02	34223.31
665.16	34471.41
665.30	34422.26
665.44	34213.95
665.59	34050.11
665.73	34562.69
665.87	34122.67
666.01	34225.65
666.15	34110.97
666.29	34085.22
666.44	34164.80
666.58	33825.42
666.72	33577.33
666.86	34227.99
667.00	33752.87
667.14	34047.77
667.28	33841.81
667.43	33715.42
667.57	33684.99
667.71	33720.10
667.85	33628.82
667.99	33251.99
668.13	33296.46
668.27	33359.66
668.41	33530.51
668.56	33191.14
668.70	33481.36
668.84	33511.79
668.98	32783.88
669.12	32659.84
669.26	33003.89
669.40	32664.52
669.54	32933.68
669.68	32545.15
669.82	32865.80
669.96	33125.60
670.10	32683.24
670.25	32947.72
670.39	32896.23
670.53	32215.13
670.67	32123.85
670.81	32566.21
670.95	32680.90
671.09	32554.51
671.23	32198.75
671.37	32041.93
671.51	32465.57
671.65	31838.31
671.79	31543.40
671.93	31805.54
672.07	31807.88
672.21	32032.57
672.35	31515.31
672.49	31622.98
672.63	32119.17
672.77	31400.63
672.91	31852.35
673.05	31398.29
673.19	31459.14
673.33	31604.25
673.47	31145.51
673.61	31126.78
673.75	31068.27
673.89	30848.26
674.03	31070.61
674.17	31014.44
674.31	31152.53
674.45	30749.96
674.59	30803.79
674.73	30607.19
674.87	30740.60
675.01	30675.06
675.15	30469.09
675.29	30745.28
675.43	30604.84
675.56	30277.17
675.70	30270.15
675.84	30012.69
675.98	29282.44
676.12	30225.68
676.26	29961.20
676.40	30010.35
676.54	29942.47
676.68	29813.74
676.82	29240.31
676.96	29448.62
677.10	29539.90
677.23	29397.13
677.37	29270.74
677.51	29090.52
677.65	29174.78
677.79	28786.25
677.93	28950.09
678.07	29064.77
678.21	28659.86
678.34	28622.41
678.48	28554.54
678.62	28151.96
678.76	27896.85
678.90	28081.75
679.04	27681.52
679.18	27826.63
679.31	27749.39
679.45	27861.74
679.59	27473.21
679.73	27681.52
679.87	27854.72
680.00	27435.76
680.14	27459.16
680.28	27370.22
680.42	27597.26
680.56	27143.19
680.70	27098.72
680.83	27461.51
680.97	27124.47
681.11	26991.06
681.25	26651.68
681.39	26625.93
681.52	26607.21
681.66	27101.06
681.80	26541.68
681.94	26665.72
682.07	26553.38
682.21	26253.79
682.35	26211.66
682.49	26338.05
682.62	26221.02
682.76	26003.35
682.90	25905.05
683.04	25785.68
683.17	25785.68
683.31	25621.84
683.45	25586.74
683.59	25287.15
683.72	25230.98
683.86	25001.60
684.00	25207.57
684.13	25465.03
684.27	24744.14
684.41	24833.08
684.55	24496.05
684.68	24634.14
684.82	24580.31
684.96	24748.82
685.09	24821.38
685.23	24690.31
685.37	24594.35
685.50	24666.91
685.64	24332.21
685.78	24226.89
685.91	24159.01
686.05	23953.04
686.19	23618.35
686.32	23594.94
686.46	23150.24
686.60	23185.35
686.73	23330.46
686.87	23218.11
687.01	23089.38
687.14	23089.38
687.28	22967.68
687.42	23150.24
687.55	23241.52
687.69	23318.76
687.82	23037.89
687.96	22850.65
688.10	22649.36
688.23	22703.20
688.37	22628.30
688.50	22132.11
688.64	22001.04
688.78	22621.28
688.91	22148.49
689.05	22101.68
689.18	21881.67
689.32	21664.00
689.46	21874.65
689.59	22181.26
689.73	21881.67
689.86	21830.18
690.00	21467.39
690.13	21640.59
690.27	21612.51
690.41	21188.87
690.54	21167.80
690.68	21144.40
690.81	20903.32
690.95	20809.70
691.08	20840.13
691.22	20945.45
691.35	20879.92
691.49	20954.82
691.62	21081.21
691.76	20594.37
691.89	20411.81
692.03	20444.58
692.16	20243.29
692.30	20224.57
692.43	19974.13
692.57	20065.41
692.70	19868.81
692.84	20100.52
692.97	19562.20
693.11	19770.51
693.24	19721.35
693.38	19288.35
693.51	19227.50
693.65	19672.20
693.78	19452.19
693.92	19379.64
694.05	19243.88
694.19	19190.05
694.32	19318.78
694.45	19124.52
694.59	18738.33
694.72	18860.04
694.86	18373.21
694.99	18689.18
695.13	18602.58
695.26	18747.69
695.39	18174.26
695.53	18382.57
695.66	18539.38
695.80	18050.21
695.93	18293.63
696.07	18216.39
696.20	18080.64
696.33	17823.18
696.47	17884.03
696.60	17813.82
696.73	17891.06
696.87	17465.08
697.00	17858.29
697.14	17467.42
697.27	17392.52
697.40	17385.50
697.54	17413.59
697.67	16840.15
697.80	16915.05
697.94	17160.81
698.07	16879.94
698.21	16662.27
698.34	16996.97
698.47	16666.95
698.61	16393.11
698.74	16535.88
698.87	16212.89
699.01	16072.46
699.14	16219.91
699.27	16365.03
699.40	16098.20
699.54	15845.43
699.67	15948.41
699.80	15896.92
699.94	15707.34
700.07	15953.09
700.20	15878.19
700.34	15602.01
700.47	15665.21
700.60	15887.56
700.73	16114.59
700.87	15669.89
701.00	15337.53
701.13	15279.02
701.26	15192.42
701.40	15393.70
701.53	15215.82
701.66	15089.43
701.79	14916.23
701.93	15009.86
702.06	14939.64
702.19	14864.74
702.32	14939.64
702.46	14885.81
702.59	14466.85
702.72	14581.54
702.85	14736.01
702.99	14518.34
703.12	14679.84
703.25	14101.73
703.38	14277.27
703.51	13949.59
703.65	14162.58
703.78	14104.07
703.91	14019.81
704.04	13846.61
704.17	13881.72
704.31	13900.44
704.44	13816.18
704.57	13809.16
704.70	13741.29
704.83	13617.24
704.96	13767.03
705.10	13729.58
705.23	13556.38
>>>>>End Processed Spectral Data<<<<<
