SpectraSuite Data File
++++++++++++++++++++++++++++++++++++
Date: Fri Oct 25 11:34:24 EDT 2013
User: price-jones
Dark Spectrum Present: No
Reference Spectrum Present: No
Number of Sampled Component Spectra: 1
Spectrometers: USB2+H05261
Integration Time (usec): 100000 (USB2+H05261)
Spectra Averaged: 1 (USB2+H05261)
Boxcar Smoothing: 0 (USB2+H05261)
Correct for Electrical Dark: No (USB2+H05261)
Strobe/Lamp Enabled: No (USB2+H05261)
Correct for Detector Non-linearity: No (USB2+H05261)
Correct for Stray Light: No (USB2+H05261)
Number of Pixels in Processed Spectrum: 2048
>>>>>Begin Processed Spectral Data<<<<<
365.73	238.73
365.92	238.73
366.12	238.73
366.32	170.86
366.52	168.52
366.72	110.01
366.91	173.20
367.11	227.03
367.31	159.16
367.51	177.88
367.70	156.82
367.90	173.20
368.10	152.13
368.30	154.48
368.49	170.86
368.69	196.60
368.89	187.24
369.09	212.99
369.28	227.03
369.48	189.58
369.68	266.82
369.87	203.63
370.07	257.46
370.27	271.50
370.47	376.83
370.66	376.83
370.86	440.02
371.06	510.24
371.25	561.73
371.45	503.22
371.65	564.07
371.84	543.00
372.04	543.00
372.24	524.28
372.44	596.84
372.63	608.54
372.83	608.54
373.03	535.98
373.22	594.50
373.42	547.69
373.62	568.75
373.81	571.09
374.01	648.33
374.21	704.50
374.40	620.24
374.60	610.88
374.79	631.94
374.99	615.56
375.19	648.33
375.38	641.31
375.58	648.33
375.78	713.86
375.97	650.67
376.17	655.35
376.37	678.76
376.56	615.56
376.76	603.86
376.95	690.46
377.15	688.12
377.35	655.35
377.54	601.52
377.74	662.37
377.93	582.79
378.13	697.48
378.33	730.25
378.52	753.65
378.72	683.44
378.91	676.41
379.11	725.57
379.31	627.26
379.50	683.44
379.70	781.74
379.89	676.41
380.09	674.07
380.28	741.95
380.48	706.84
380.68	650.67
380.87	727.91
381.07	842.59
381.26	800.46
381.46	837.91
381.65	718.54
381.85	734.93
382.04	702.16
382.24	711.52
382.43	688.12
382.63	753.65
382.83	781.74
383.02	739.61
383.22	784.08
383.41	765.36
383.61	828.55
383.80	833.23
384.00	781.74
384.19	819.19
384.39	793.44
384.58	816.85
384.78	828.55
384.97	882.38
385.17	842.59
385.36	814.51
385.56	772.38
385.75	835.57
385.95	805.14
386.14	917.49
386.34	779.40
386.53	854.30
386.72	809.83
386.92	957.28
387.11	809.83
387.31	833.23
387.50	910.47
387.70	943.24
387.89	868.34
388.09	837.91
388.28	894.08
388.48	922.17
388.67	908.13
388.86	877.70
389.06	856.64
389.25	889.40
389.45	868.34
389.64	866.00
389.84	889.40
390.03	868.34
390.22	880.04
390.42	945.58
390.61	954.94
390.81	950.26
391.00	1025.15
391.19	1032.18
391.39	1015.79
391.58	961.96
391.78	929.19
391.97	1001.75
392.16	980.68
392.36	1039.20
392.55	1015.79
392.75	1071.97
392.94	959.62
393.13	1107.07
393.33	978.34
393.52	1048.56
393.71	1100.05
393.91	1064.94
394.10	1032.18
394.29	1086.01
394.49	1076.65
394.68	1055.58
394.88	1100.05
395.07	1184.31
395.26	1083.67
395.46	1104.73
395.65	1149.20
395.84	1139.84
396.04	1261.55
396.23	1172.61
396.42	1029.84
396.62	1196.01
396.81	1242.82
397.00	1167.93
397.19	1142.18
397.39	1177.29
397.58	1240.48
397.77	1170.27
397.97	1142.18
398.16	1252.19
398.35	1205.38
398.55	1331.76
398.74	1306.02
398.93	1327.08
399.12	1259.21
399.32	1303.68
399.51	1275.59
399.70	1245.16
399.90	1261.55
400.09	1373.89
400.28	1366.87
400.47	1355.17
400.67	1371.55
400.86	1378.58
401.05	1308.36
401.24	1277.93
401.44	1420.71
401.63	1451.13
401.82	1444.11
402.01	1376.24
402.21	1488.58
402.40	1460.49
402.59	1406.66
402.78	1385.60
402.97	1437.09
403.17	1430.07
403.36	1434.75
403.55	1533.05
403.74	1526.03
403.93	1563.48
404.13	1572.84
404.32	1579.86
404.51	1586.88
404.70	1626.67
404.89	1643.06
405.09	1626.67
405.28	1591.56
405.47	1689.87
405.66	1753.06
405.85	1689.87
406.05	1565.82
406.24	1694.55
406.43	1657.10
406.62	1717.95
406.81	1802.21
407.00	1755.40
407.20	1682.85
407.39	1757.74
407.58	1699.23
407.77	1832.64
407.96	1811.57
408.15	1713.27
408.34	1865.41
408.54	1816.26
408.73	1870.09
408.92	1891.15
409.11	1870.09
409.30	1877.11
409.49	1865.41
409.68	1940.30
409.87	1952.01
410.07	2008.18
410.26	1923.92
410.45	2024.56
410.64	2031.58
410.83	2012.86
411.02	2012.86
411.21	2003.50
411.40	2078.40
411.59	2211.81
411.78	2104.14
411.98	2085.42
412.17	2188.40
412.36	2211.81
412.55	2087.76
412.74	2244.57
412.93	2296.07
413.12	2284.36
413.31	2333.51
413.50	2249.25
413.69	2296.07
413.88	2410.75
414.07	2394.37
414.26	2401.39
414.45	2422.45
414.64	2502.03
414.83	2579.27
415.02	2457.56
415.22	2612.04
415.41	2593.31
415.60	2597.99
415.79	2647.15
415.98	2644.81
416.17	2675.23
416.36	2656.51
416.55	2614.38
416.74	2700.98
416.93	2703.32
417.12	2658.85
417.31	2789.92
417.50	2677.57
417.69	2928.01
417.88	2951.42
418.07	2757.15
418.26	2906.95
418.45	2888.22
418.64	2923.33
418.83	2972.48
419.02	2956.10
419.21	2974.82
419.39	3119.93
419.58	2923.33
419.77	2836.73
419.96	3169.09
420.15	3091.85
420.34	3026.31
420.53	2958.44
420.72	3204.19
420.91	3126.96
421.10	3115.25
421.29	3185.47
421.48	3117.59
421.67	3117.59
421.86	3190.15
422.05	3234.62
422.24	3201.85
422.43	3323.56
422.61	3311.86
422.80	3276.75
422.99	3281.43
423.18	3431.23
423.37	3358.67
423.56	3194.83
423.75	3241.64
423.94	3124.62
424.13	3038.02
424.32	3269.73
424.50	3375.05
424.69	3485.06
424.88	3372.71
425.07	3239.30
425.26	3260.37
425.45	3309.52
425.64	3272.07
425.83	3344.63
426.01	3386.76
426.20	3398.46
426.39	3396.12
426.58	3452.29
426.77	3311.86
426.96	3251.00
427.15	3318.88
427.33	3527.19
427.52	3489.74
427.71	3487.40
427.90	3555.27
428.09	3499.10
428.28	3510.80
428.46	3503.78
428.65	3508.46
428.84	3728.47
429.03	3609.11
429.22	3592.72
429.40	3625.49
429.59	3770.60
429.78	3508.46
429.97	3463.99
430.16	3609.11
430.34	3576.34
430.53	3662.94
430.72	3803.37
430.91	3801.03
431.10	3684.00
431.28	3714.43
431.47	3911.04
431.66	3988.27
431.85	3763.58
432.03	3922.74
432.22	3943.80
432.41	4023.38
432.60	3887.63
432.79	3981.25
432.97	4016.36
433.16	3950.82
433.35	3925.08
433.54	3906.35
433.72	3913.38
433.91	3941.46
434.10	4217.65
434.28	4037.42
434.47	3997.64
434.66	4102.96
434.85	4051.47
435.03	4236.37
435.22	4107.64
435.41	4299.56
435.59	4402.55
435.78	4196.58
435.97	4308.93
436.16	4236.37
436.34	4238.71
436.53	4245.73
436.72	4287.86
436.90	4294.88
437.09	4325.31
437.28	4086.58
437.46	4318.29
437.65	4348.72
437.84	4514.89
438.02	4205.94
438.21	4451.70
438.40	4479.79
438.58	4594.47
438.77	4538.30
438.96	4638.94
439.14	4671.71
439.33	4725.54
439.52	4837.89
439.70	4758.31
439.89	5011.09
440.08	4891.72
440.26	4748.95
440.45	4901.08
440.63	4828.53
440.82	5128.11
441.01	4917.47
441.19	5055.56
441.38	5076.62
441.57	5060.24
441.75	5048.54
441.94	5121.09
442.12	5146.84
442.31	5233.44
442.50	5364.51
442.68	5294.29
442.87	5163.22
443.05	5416.00
443.24	5273.23
443.43	5387.91
443.61	5448.77
443.80	5497.92
443.98	5273.23
444.17	5057.90
444.35	5420.68
444.54	5397.28
444.73	5472.17
444.91	5329.40
445.10	5446.43
445.28	5439.40
445.47	5270.89
445.65	5380.89
445.84	5540.05
446.02	5572.82
446.21	5345.78
446.39	5490.90
446.58	5558.77
446.77	5612.60
446.95	5416.00
447.14	5495.58
447.32	5621.97
447.51	5458.13
447.69	5472.17
447.88	5636.01
448.06	5640.69
448.25	5518.98
448.43	5462.81
448.62	5589.20
448.80	5558.77
448.99	5795.17
449.17	5685.16
449.36	5584.52
449.54	5750.70
449.73	5729.63
449.91	5963.68
450.10	5874.74
450.28	5834.96
450.46	5727.29
450.65	5734.31
450.83	5921.56
451.02	5788.14
451.20	5825.59
451.39	5870.06
451.57	5947.30
451.76	5998.79
451.94	6010.50
452.13	6047.94
452.31	6246.89
452.49	5827.93
452.68	6202.42
452.86	6045.60
453.05	6157.95
453.23	6022.20
453.42	6101.78
453.60	6129.86
453.78	6296.04
453.97	6050.28
454.15	5998.79
454.34	6164.97
454.52	6256.25
454.70	6384.98
454.89	6293.70
455.07	6377.96
455.26	6429.45
455.44	6509.03
455.62	6490.31
455.81	6324.13
455.99	6406.05
456.17	6604.99
456.36	6464.56
456.54	6544.14
456.73	6677.55
456.91	6787.55
457.09	6689.25
457.28	6864.79
457.46	6817.98
457.64	6876.49
457.83	6825.00
458.01	6670.53
458.19	6974.80
458.38	6766.49
458.56	6853.09
458.74	6764.15
458.93	7030.97
459.11	6829.68
459.29	6944.37
459.48	6951.39
459.66	6939.69
459.84	6970.12
460.03	7019.27
460.21	7122.25
460.39	7066.08
460.57	7162.04
460.76	7124.59
460.94	7054.37
461.12	7309.49
461.31	7358.64
461.49	7279.07
461.67	7054.37
461.85	7410.14
462.04	7197.15
462.22	7819.73
462.40	7510.78
462.59	7487.37
462.77	7293.11
462.95	7461.63
463.13	7428.86
463.32	7503.76
463.50	7588.02
463.68	7487.37
463.86	7765.90
464.05	7623.12
464.23	7461.63
464.41	7698.02
464.59	7616.10
464.78	7929.74
464.96	7566.95
465.14	7683.98
465.32	7667.60
465.50	7831.43
465.69	7639.51
465.87	7754.19
466.05	7934.42
466.23	7756.54
466.41	7941.44
466.60	7953.14
466.78	7885.26
466.96	7864.20
467.14	7978.89
467.32	8063.15
467.51	8084.21
467.69	7719.09
467.87	8105.28
468.05	8135.70
468.23	7896.97
468.41	8187.19
468.60	8032.72
468.78	8119.32
468.96	8187.19
469.14	8226.98
469.32	8388.48
469.50	8159.11
469.69	8423.59
469.87	8505.51
470.05	8383.80
470.23	8418.91
470.41	8339.33
470.59	8610.83
470.77	8557.00
470.95	8641.26
471.14	8620.19
471.32	8446.99
471.50	8606.15
471.68	8788.71
471.86	8835.52
472.04	8704.45
472.22	8992.34
472.40	8854.25
472.58	9004.04
472.77	9067.24
472.95	9275.54
473.13	9240.44
473.31	9008.72
473.49	9095.32
473.67	8968.93
473.85	9240.44
474.03	9415.98
474.21	9439.38
474.39	9387.89
474.57	9385.55
474.75	9558.75
474.93	9523.64
475.12	9462.79
475.30	9774.08
475.48	9483.85
475.66	9757.69
475.84	9778.76
476.02	9818.55
476.20	9928.55
476.38	9731.95
476.56	10054.94
476.74	9956.64
476.92	9937.91
477.10	10024.51
477.28	10171.97
477.46	10197.71
477.64	10422.41
477.82	10480.92
478.00	10668.16
478.18	10551.14
478.36	10862.43
478.54	10656.46
478.72	10855.40
478.90	10995.84
479.08	11154.99
479.26	11321.17
479.44	11213.51
479.62	11257.98
479.80	11290.74
479.98	11475.65
480.16	11838.43
480.34	11651.19
480.52	11779.92
480.70	11810.34
480.88	11749.49
481.06	11950.78
481.24	11939.07
481.41	11948.43
481.59	12358.03
481.77	12318.24
481.95	12339.30
482.13	12519.53
482.31	12472.71
482.49	12865.92
482.67	12870.61
482.85	12781.67
483.03	12781.67
483.21	13060.19
483.39	13289.56
483.57	13462.76
483.74	13563.40
483.92	13547.02
484.10	13345.73
484.28	13776.39
484.46	13823.20
484.64	14345.14
484.82	13802.14
485.00	14160.24
485.18	14288.97
485.35	14417.70
485.53	14443.45
485.71	14242.16
485.89	14918.57
486.07	14771.12
486.25	14977.09
486.43	14846.02
486.61	15213.48
486.78	15199.44
486.96	15147.95
487.14	15311.78
487.32	15344.55
487.50	15545.84
487.68	15763.51
487.85	16072.46
488.03	16095.86
488.21	16535.88
488.39	16397.79
488.57	16437.58
488.75	16748.87
488.92	16690.36
489.10	16929.09
489.28	16725.47
489.46	17146.76
489.64	17209.96
489.81	17418.27
489.99	17579.76
490.17	17525.93
490.35	17568.06
490.53	17572.74
490.70	17635.94
490.88	17837.22
491.06	18295.97
491.24	18204.69
491.41	18478.53
491.59	18593.22
491.77	18410.65
491.95	18586.19
492.13	18792.16
492.30	18824.93
492.48	18927.91
492.66	19293.04
492.84	19309.42
493.01	19316.44
493.19	19487.30
493.37	19585.60
493.54	19501.34
493.72	20056.05
493.90	19850.08
494.08	19662.84
494.25	20233.93
494.43	20053.71
494.61	20163.72
494.79	20177.76
494.96	20262.02
495.14	20610.76
495.32	20662.25
495.49	20692.68
495.67	21027.37
495.85	20830.77
496.02	21273.13
496.20	21364.41
496.38	21455.69
496.55	21617.19
496.73	21956.57
496.91	21891.03
497.09	21771.66
497.26	21624.21
497.44	21715.49
497.62	21972.95
497.79	22775.75
497.97	22359.14
498.14	22391.91
498.32	22789.80
498.50	22759.37
498.67	23234.50
498.85	22686.81
499.03	22953.63
499.20	23494.30
499.38	22955.97
499.56	23253.22
499.73	23529.41
499.91	23440.47
500.08	23758.78
500.26	23613.66
500.44	23723.67
500.61	23924.96
500.79	23875.80
500.97	24095.82
501.14	24425.83
501.32	24320.51
501.49	24285.40
501.67	24315.83
501.84	24762.87
502.02	24437.53
502.20	24573.28
502.37	24503.07
502.55	24507.75
502.72	24989.90
502.90	24727.76
503.07	24547.54
503.25	25291.83
503.43	24865.85
503.60	25308.21
503.78	25230.98
503.95	25633.55
504.13	25565.67
504.30	25493.12
504.48	25507.16
504.65	25830.15
504.83	25942.50
505.01	26267.83
505.18	25940.16
505.36	26085.27
505.53	25993.99
505.71	26373.16
505.88	26274.85
506.06	26078.25
506.23	26228.04
506.41	26405.92
506.58	26874.03
506.76	26497.20
506.93	26869.35
507.11	26857.65
507.28	27028.51
507.46	26991.06
507.63	26892.76
507.81	27316.39
507.98	26965.31
508.16	27089.36
508.33	27559.81
508.50	27344.48
508.68	27562.15
508.85	27782.16
509.03	27592.58
509.20	27962.38
509.38	27782.16
509.55	27999.83
509.73	27662.79
509.90	28343.89
510.08	28009.19
510.25	28142.60
510.42	28306.44
510.60	28573.26
510.77	28758.16
510.95	28596.67
511.12	28467.94
511.30	28833.06
511.47	28914.98
511.64	29240.31
511.82	28985.19
511.99	28959.45
512.17	29277.76
512.34	28947.75
512.51	29633.52
512.69	29584.37
512.86	29247.33
513.04	29776.30
513.21	29685.01
513.38	29823.11
513.56	29991.62
513.73	29792.68
513.90	30066.52
514.08	29806.72
514.25	30309.94
514.43	30206.95
514.60	30426.96
514.77	30253.76
514.95	30504.20
515.12	30258.45
515.29	30380.15
515.47	30625.91
515.64	30988.69
515.81	30553.35
515.99	30553.35
516.16	31187.64
516.33	31131.47
516.51	31220.41
516.68	30972.31
516.85	31105.72
517.03	31220.41
517.20	31239.13
517.37	31356.16
517.54	31569.15
517.72	31409.99
517.89	31543.40
518.06	31842.99
518.24	31857.03
518.41	31323.39
518.58	31756.39
518.75	31702.56
518.93	32222.16
519.10	31988.10
519.27	32252.58
519.45	32072.36
519.62	32217.47
519.79	32650.47
519.96	32268.97
520.14	32577.92
520.31	32484.30
520.48	32500.68
520.65	32788.56
520.83	32776.86
521.00	33495.41
521.17	33127.94
521.34	32985.17
521.52	32816.65
521.69	33261.35
521.86	33481.36
522.03	33369.02
522.20	33441.57
522.38	33689.67
522.55	33394.76
522.72	33656.90
522.89	34024.37
523.07	33795.00
523.24	33811.38
523.41	33940.11
523.58	33776.27
523.75	33762.23
523.92	33605.41
524.10	34424.60
524.27	34150.76
524.44	33998.62
524.61	34129.69
524.78	34361.40
524.96	34302.89
525.13	34988.67
525.30	34555.67
525.47	34937.18
525.64	34438.64
525.81	34565.03
525.98	35227.40
526.16	34829.51
526.33	34455.03
526.50	34824.83
526.67	34506.52
526.84	35374.86
527.01	34785.04
527.18	35695.51
527.36	35440.39
527.53	35477.84
527.70	35779.77
527.87	35400.60
528.04	35421.67
528.21	35552.74
528.38	35632.32
528.55	35955.31
528.72	35660.40
528.89	35878.07
529.07	35903.82
529.24	35709.55
529.41	36170.64
529.58	35894.46
529.75	36062.97
529.92	35880.41
530.09	36411.71
530.26	35948.29
530.43	36620.02
530.60	36261.92
530.77	36240.86
530.94	36210.43
531.11	36191.70
531.28	36371.92
531.46	36320.43
531.63	36849.39
531.80	36282.98
531.97	36755.77
532.14	36975.78
532.31	36580.23
532.48	36816.63
532.65	37172.39
532.82	36898.55
532.99	37036.64
533.16	36884.50
533.33	37163.03
533.50	36950.04
533.67	37326.86
533.84	37067.06
534.01	37113.87
534.18	37254.31
534.35	37940.08
534.52	37731.78
534.69	38209.25
534.86	37900.29
535.03	37127.92
535.20	37532.83
535.37	37965.83
535.54	37937.74
535.71	38253.72
535.88	37912.00
536.05	37848.80
536.22	38354.36
536.38	37923.70
536.55	38206.90
536.72	37834.76
536.89	38066.47
537.06	37944.76
537.23	38335.63
537.40	37963.49
537.57	38150.73
537.74	38073.49
537.91	38426.92
538.08	38501.81
538.25	38363.72
538.42	38485.43
538.59	39365.47
538.75	38625.86
538.92	38794.38
539.09	39218.02
539.26	38770.97
539.43	38607.14
539.60	38897.36
539.77	39000.35
539.94	39515.26
540.11	38990.98
540.28	39239.08
540.44	39475.48
540.61	39093.97
540.78	39138.44
540.95	39419.30
541.12	39400.58
541.29	39030.77
541.46	39325.68
541.62	39164.18
541.79	39744.64
541.96	38983.96
542.13	39304.62
542.30	39716.55
542.47	39714.21
542.63	39974.01
542.80	40203.38
542.97	40142.53
543.14	40067.63
543.31	39906.13
543.48	39938.90
543.64	39945.92
543.81	40130.83
543.98	40713.62
544.15	40292.32
544.32	40526.38
544.48	40786.18
544.65	40395.31
544.82	40804.90
544.99	40210.40
545.16	40610.64
545.32	40491.27
545.49	41064.70
545.66	41209.81
545.83	40636.38
546.00	41057.68
546.16	40783.83
546.33	40875.12
546.50	40584.89
546.67	41053.00
546.83	40402.33
547.00	40650.42
547.17	40598.93
547.34	40928.95
547.50	41141.94
547.67	41642.81
547.84	41432.16
548.00	41212.15
548.17	41787.92
548.34	41535.15
548.51	41567.91
548.67	41478.97
548.84	41254.28
549.01	41214.49
549.18	41596.00
549.34	41916.65
549.51	41975.17
549.68	41748.14
549.84	41911.97
550.01	41764.52
550.18	41895.59
550.34	42047.72
550.51	41846.44
550.68	42033.68
550.84	41216.83
551.01	41895.59
551.18	41722.39
551.34	41581.96
551.51	42237.31
551.68	41890.91
551.84	42354.33
552.01	41673.24
552.18	42403.49
552.34	42359.02
552.51	42518.17
552.68	42476.04
552.84	42071.13
553.01	42237.31
553.18	42412.85
553.34	42447.96
553.51	42803.72
553.67	42581.37
553.84	42539.24
554.01	42602.43
554.17	43047.13
554.34	42742.86
554.51	42637.54
554.67	43021.39
554.84	43166.50
555.00	42621.16
555.17	42616.47
555.33	42979.26
555.50	42752.23
555.67	42742.86
555.83	42962.87
556.00	42951.17
556.16	43613.54
556.33	43239.06
556.50	42937.13
556.66	43182.88
556.83	43192.25
556.99	43068.20
557.16	43150.12
557.32	43365.45
557.49	43466.09
557.65	43239.06
557.82	43227.35
557.98	43466.09
558.15	43585.46
558.32	43494.18
558.48	43435.66
558.65	43356.08
558.81	43545.67
558.98	43393.53
559.14	43370.13
559.31	43220.33
559.47	43585.46
559.64	43400.55
559.80	43339.70
559.97	43976.33
560.13	43206.29
560.30	43501.20
560.46	43796.10
560.63	43871.00
560.79	43971.64
560.96	44098.03
561.12	43917.81
561.29	44067.61
561.45	44140.16
561.61	44271.23
561.78	43681.42
561.94	43522.26
562.11	43871.00
562.27	43817.17
562.44	43908.45
562.60	44172.93
562.77	44109.74
562.93	43847.60
563.10	43833.55
563.26	43931.86
563.42	44641.04
563.59	43955.26
563.75	44322.72
563.92	44236.12
564.08	44364.85
564.24	44425.71
564.41	44011.43
564.57	44563.80
564.74	44266.55
564.90	44435.07
565.07	44306.34
565.23	44296.98
565.39	44161.23
565.56	44615.29
565.72	44275.91
565.88	44399.96
566.05	43976.33
566.21	44652.74
566.38	44673.81
566.54	43973.98
566.70	44636.36
566.87	44399.96
567.03	44519.33
567.19	44940.63
567.36	44746.36
567.52	44685.51
567.68	45158.30
567.85	44655.08
568.01	44671.46
568.17	44449.11
568.34	44573.16
568.50	44989.78
568.66	44626.99
568.83	44858.71
568.99	44828.28
569.15	44563.80
569.32	44741.68
569.48	44479.54
569.64	44825.94
569.81	44662.10
569.97	44989.78
570.13	45069.36
570.30	44666.78
570.46	44940.63
570.62	45345.54
570.78	44603.59
570.95	44842.32
571.11	44797.85
571.27	44477.20
571.43	44971.05
571.60	44737.00
571.76	44746.36
571.92	44940.63
572.09	44818.92
572.25	44809.56
572.41	44704.23
572.57	45123.19
572.74	45244.90
572.90	44612.95
573.06	45485.97
573.22	45148.93
573.38	45368.94
573.55	45198.09
573.71	45275.32
573.87	45413.41
574.03	45165.32
574.20	45336.18
574.36	45432.14
574.52	45422.78
574.68	45170.00
574.84	45535.12
575.01	45413.41
575.17	45378.31
575.33	45399.37
575.49	44844.66
575.65	45565.55
575.82	45184.04
575.98	44942.97
576.14	45792.58
576.30	45755.13
576.46	45574.91
576.62	45088.08
576.79	45064.67
576.95	45202.77
577.11	44858.71
577.27	45390.01
577.43	45158.30
577.59	45532.78
577.75	44966.37
577.92	44968.71
578.08	45593.64
578.24	45413.41
578.40	45399.37
578.56	45841.73
578.72	45745.77
578.88	45759.81
579.04	45577.25
579.21	45296.39
579.37	45581.93
579.53	45366.60
579.69	45102.12
579.85	45434.48
580.01	45432.14
580.17	45495.33
580.33	45467.25
580.49	45221.49
580.65	45310.43
580.82	45380.65
580.98	44889.13
581.14	45088.08
581.30	46150.68
581.46	45378.31
581.62	45184.04
581.78	45413.41
581.94	45790.24
582.10	45317.45
582.26	45350.22
582.42	45675.55
582.58	45464.91
582.74	45832.37
582.90	45633.42
583.06	45617.04
583.22	45296.39
583.38	45429.80
583.54	45645.13
583.70	45661.51
583.86	45422.78
584.02	45715.34
584.18	45942.38
584.34	45914.29
584.50	45595.98
584.66	45633.42
584.82	45305.75
584.98	46033.66
585.14	45942.38
585.30	45556.19
585.46	45759.81
585.62	45235.53
585.78	45682.58
585.94	45244.90
586.10	45544.48
586.26	45598.32
586.42	45820.67
586.58	45455.54
586.74	45256.60
586.90	45790.24
587.06	45757.47
587.22	45705.98
587.38	45464.91
587.54	45595.98
587.70	45610.02
587.86	46038.34
588.02	45436.82
588.18	45642.79
588.34	45748.11
588.49	45949.40
588.65	45471.93
588.81	45413.41
588.97	46021.95
589.13	46092.17
589.29	45799.60
589.45	45762.15
589.61	46087.49
589.77	46096.85
589.93	46176.43
590.08	46230.26
590.24	46206.86
590.40	45935.35
590.56	46174.09
590.72	46230.26
590.88	45668.53
591.04	45968.12
591.20	46309.84
591.35	45921.31
591.51	46307.50
591.67	46204.52
591.83	46199.83
591.99	46445.59
592.15	46220.90
592.31	46050.04
592.46	45731.73
592.62	46136.64
592.78	46253.67
592.94	46197.49
593.10	46122.60
593.26	46476.02
593.41	45968.12
593.57	46288.77
593.73	45874.50
593.89	46667.94
594.05	45940.04
594.20	46110.89
594.36	46780.29
594.52	46583.68
594.68	46401.12
594.84	46178.77
594.99	46733.48
595.15	46195.15
595.31	46398.78
595.47	46183.45
595.62	46410.48
595.78	46103.87
595.94	46328.56
596.10	45951.74
596.25	46422.19
596.41	46286.43
596.57	46270.05
596.73	46658.58
596.88	46497.08
597.04	46071.10
597.20	46246.65
597.36	46548.57
597.51	46232.60
597.67	46164.73
597.83	46213.88
597.99	46340.27
598.14	46298.14
598.30	46623.47
598.46	46602.41
598.61	46890.29
598.77	46288.77
598.93	46471.34
599.09	46869.23
599.24	46859.87
599.40	46471.34
599.56	46822.42
599.71	46887.95
599.87	46923.06
600.03	46965.19
600.18	46689.01
600.34	46363.67
600.50	46302.82
600.65	46557.94
600.81	47051.79
600.97	47255.42
601.12	46586.02
601.28	46803.69
601.44	46536.87
601.59	46433.89
601.75	46646.88
601.91	46796.67
602.06	46305.16
602.22	46681.98
602.37	46429.21
602.53	46890.29
602.69	46902.00
602.84	46595.38
603.00	46651.56
603.16	46787.31
603.31	46057.06
603.47	47150.09
603.62	46525.17
603.78	46714.75
603.94	46597.73
604.09	46600.07
604.25	46389.42
604.40	46356.65
604.56	46401.12
604.71	46864.55
604.87	46328.56
605.03	46363.67
605.18	46375.37
605.34	46506.44
605.49	46354.31
605.65	46586.02
605.80	46597.73
605.96	46167.07
606.12	46101.53
606.27	46909.02
606.43	46155.36
606.58	46742.84
606.74	46188.13
606.89	46389.42
607.05	46047.70
607.20	46824.76
607.36	46478.36
607.51	46092.17
607.67	46043.02
607.82	46251.33
607.98	46454.95
608.13	46590.70
608.29	45904.93
608.44	46190.47
608.60	46071.10
608.75	46256.01
608.91	46038.34
609.06	45722.37
609.22	46342.61
609.37	45977.48
609.53	46756.88
609.68	46286.43
609.84	46560.28
609.99	46384.74
610.15	46094.51
610.30	46195.15
610.46	45825.35
610.61	46164.73
610.76	46057.06
610.92	45914.29
611.07	45830.03
611.23	46057.06
611.38	45907.27
611.54	46373.03
611.69	46071.10
611.84	46358.99
612.00	46012.59
612.15	46330.90
612.31	46218.56
612.46	45911.95
612.62	45876.84
612.77	45893.22
612.92	46087.49
613.08	46377.72
613.23	45872.16
613.39	45675.55
613.54	45738.75
613.69	46190.47
613.85	45771.52
614.00	45705.98
614.15	46071.10
614.31	45640.45
614.46	46052.38
614.62	45670.87
614.77	45628.74
614.92	45743.43
615.08	46099.19
615.23	45963.44
615.38	46050.04
615.54	45593.64
615.69	45801.94
615.84	45984.51
616.00	45811.31
616.15	45429.80
616.30	46113.23
616.46	45577.25
616.61	45572.57
616.76	45539.80
616.92	45720.02
617.07	45488.31
617.22	45502.35
617.37	45177.02
617.53	45684.92
617.68	45600.66
617.83	45216.81
617.99	45680.24
618.14	45916.63
618.29	45205.11
618.45	45184.04
618.60	45481.29
618.75	45132.55
618.90	45179.36
619.06	45205.11
619.21	45537.46
619.36	45469.59
619.51	45095.10
619.67	45031.91
619.82	45160.64
619.97	45485.97
620.12	45097.44
620.28	44706.57
620.43	45577.25
620.58	45876.84
620.73	45111.49
620.89	45413.41
621.04	45265.96
621.19	45146.59
621.34	45212.13
621.49	44957.01
621.65	45003.82
621.80	45553.85
621.95	45127.87
622.10	44978.07
622.25	45200.43
622.41	44715.93
622.56	44832.96
622.71	44975.73
622.86	45167.66
623.01	44907.86
623.16	44886.79
623.32	44919.56
623.47	44842.32
623.62	44795.51
623.77	44959.35
623.92	44760.40
624.07	44664.44
624.23	44755.72
624.38	44896.16
624.53	44790.83
624.68	44704.23
624.83	44144.84
624.98	44327.41
625.13	44144.84
625.29	44542.74
625.44	44563.80
625.59	44231.44
625.74	44547.42
625.89	44128.46
626.04	44374.22
626.19	43995.05
626.34	44584.86
626.49	44259.53
626.65	43882.70
626.80	44086.33
626.95	43786.74
627.10	43854.62
627.25	44088.67
627.40	44273.57
627.55	43873.34
627.70	44009.09
627.85	44205.70
628.00	43959.94
628.15	43658.01
628.30	43599.50
628.45	43332.68
628.60	43295.23
628.76	43227.35
628.91	43618.22
629.06	43573.75
629.21	43775.04
629.36	43311.61
629.51	43758.66
629.66	44006.75
629.81	43985.69
629.96	43814.83
630.11	43548.01
630.26	43620.56
630.41	43981.01
630.56	43636.95
630.71	43281.19
630.86	43093.94
631.01	43365.45
631.16	43297.57
631.31	43498.86
631.46	43459.07
631.61	43714.19
631.76	43325.66
631.91	43683.76
632.06	43655.67
632.21	43037.77
632.36	43445.02
632.51	42527.53
632.66	43328.00
632.81	42911.38
632.96	43978.67
633.10	42799.04
633.25	43466.09
633.40	43082.24
633.55	43681.42
633.70	43115.01
633.85	42801.38
634.00	42895.00
634.15	42639.88
634.30	42930.11
634.45	42958.19
634.60	42845.85
634.75	43154.80
634.90	42745.20
635.05	43339.70
635.19	43103.31
635.34	42862.23
635.49	43086.92
635.64	42848.19
635.79	43194.59
635.94	42801.38
636.09	42712.44
636.24	42719.46
636.39	42590.73
636.53	42656.26
636.68	42658.60
636.83	42225.60
636.98	42319.23
637.13	42546.26
637.28	42618.81
637.43	42693.71
637.57	42501.79
637.72	42665.63
637.87	42469.02
638.02	42316.89
638.17	42607.11
638.32	42511.15
638.46	42099.22
638.61	41888.57
638.76	42412.85
638.91	42546.26
639.06	41783.24
639.20	41940.06
639.35	42129.64
639.50	41914.31
639.65	41940.06
639.80	42078.15
639.94	42157.73
640.09	41993.89
640.24	42700.73
640.39	41598.34
640.54	41710.69
640.68	42185.82
640.83	42129.64
640.98	41546.85
641.13	41392.37
641.27	42279.44
641.42	42024.32
641.57	41713.03
641.72	41617.07
641.86	41881.55
642.01	41970.49
642.16	41834.74
642.31	41074.06
642.45	41694.30
642.60	41317.48
642.75	41254.28
642.90	41411.10
643.04	41839.42
643.19	41649.83
643.34	41469.61
643.48	41127.89
643.63	41256.62
643.78	41486.00
643.93	41593.66
644.07	41525.78
644.22	41275.35
644.37	41284.71
644.51	41497.70
644.66	41706.01
644.81	41202.79
644.95	42036.02
645.10	41500.04
645.25	41273.01
645.39	41048.32
645.54	41106.83
645.69	41050.66
645.83	40842.35
645.98	40769.79
646.13	41258.96
646.27	40828.30
646.42	40830.65
646.57	41284.71
646.71	40919.59
646.86	41090.44
647.00	41273.01
647.15	40552.12
647.30	40917.25
647.44	40959.38
647.59	40722.98
647.74	40739.36
647.88	40666.81
648.03	41081.08
648.17	40968.74
648.32	41212.15
648.47	40790.86
648.61	40397.65
648.76	40863.41
648.90	40315.73
649.05	40737.02
649.20	40629.36
649.34	40879.80
649.49	40996.82
649.63	40631.70
649.78	40575.53
649.92	40493.61
650.07	40903.20
650.21	40999.16
650.36	40559.14
650.51	40226.79
650.65	40182.32
650.80	40631.70
650.94	40465.52
651.09	40348.50
651.23	40112.10
651.38	39583.14
651.52	39665.06
651.67	40533.40
651.81	40233.81
651.96	39974.01
652.10	40102.74
652.25	40055.93
652.39	40112.10
652.54	39880.39
652.68	39955.29
652.83	39817.19
652.97	39969.33
653.12	39922.52
653.26	39854.64
653.41	40240.83
653.55	39676.76
653.70	39768.04
653.84	40521.69
653.99	39913.16
654.13	39805.49
654.27	39421.64
654.42	39969.33
654.56	39470.79
654.71	39983.37
654.85	39966.99
655.00	39974.01
655.14	39917.84
655.29	39997.41
655.43	39845.28
655.57	39744.64
655.72	39529.31
655.86	39704.85
656.01	39419.30
656.15	39545.69
656.30	39323.34
656.44	39653.36
656.58	39264.83
656.73	39330.36
656.87	39367.81
657.01	38934.81
657.16	39250.78
657.30	39365.47
657.45	39316.32
657.59	38646.93
657.73	38789.70
657.88	39203.97
658.02	39552.71
658.16	39599.52
658.31	39105.67
658.45	39370.15
658.60	39012.05
658.74	39023.75
658.88	38958.22
659.03	39180.57
659.17	38815.44
659.31	38712.46
659.46	38625.86
659.60	38841.19
659.74	38565.01
659.89	38529.90
660.03	38059.45
660.17	38440.96
660.32	38443.30
660.46	38003.28
660.60	37816.04
660.74	38340.32
660.89	38078.18
661.03	38122.65
661.17	37841.78
661.32	38476.07
661.46	37708.37
661.60	37970.51
661.74	37713.05
661.89	37909.66
662.03	37759.86
662.17	37809.01
662.31	37659.22
662.46	38043.07
662.60	37673.26
662.74	37127.92
662.88	37322.18
663.03	37067.06
663.17	37397.08
663.31	37415.80
663.45	37024.93
663.60	37635.81
663.74	37429.85
663.88	37095.15
664.02	36999.19
664.17	37839.44
664.31	36868.12
664.45	36786.20
664.59	36905.57
664.73	37020.25
664.88	36811.95
665.02	36381.29
665.16	37092.81
665.30	36989.83
665.44	36650.45
665.59	36512.36
665.73	36369.58
665.87	35922.54
666.01	36184.68
666.15	36907.91
666.29	36568.53
666.44	36528.74
666.58	36177.66
666.72	35955.31
666.86	36114.47
667.00	36343.84
667.14	35913.18
667.28	35805.52
667.43	35744.66
667.57	36072.34
667.71	35821.90
667.85	36093.40
667.99	36123.83
668.13	35871.05
668.27	35433.37
668.41	35136.12
668.56	35388.90
668.70	35255.49
668.84	35093.99
668.98	34953.56
669.12	35005.05
669.26	35379.54
669.40	35318.68
669.54	35145.48
669.68	35009.73
669.82	34955.90
669.96	34506.52
670.10	34529.92
670.25	34733.55
670.39	34506.52
670.53	34499.50
670.67	34712.49
670.81	34988.67
670.95	34679.72
671.09	34485.45
671.23	34316.93
671.37	34316.93
671.51	34115.65
671.65	34272.46
671.79	34253.74
671.93	34066.50
672.07	33895.64
672.21	34164.80
672.35	34125.01
672.49	33420.51
672.63	33748.18
672.77	33579.67
672.91	33383.06
673.05	33235.61
673.19	33832.44
673.33	33184.12
673.47	33427.53
673.61	33064.75
673.75	33125.60
673.89	32877.51
674.03	32919.63
674.17	32727.71
674.31	32383.65
674.45	32287.69
674.59	32627.07
674.73	32428.12
674.87	31976.40
675.01	32002.14
675.15	32177.68
675.29	32072.36
675.43	31859.37
675.56	32142.58
675.70	31920.23
675.84	31931.93
675.98	30728.89
676.12	31475.52
676.26	31772.77
676.40	31576.17
676.54	31044.87
676.68	31126.78
676.82	30855.28
676.96	31363.18
677.10	31157.21
677.23	30862.30
677.37	30951.24
677.51	30756.98
677.65	31185.30
677.79	30443.35
677.93	31009.76
678.07	30391.86
678.21	30216.32
678.34	30391.86
678.48	30272.49
678.62	30019.71
678.76	29841.83
678.90	30099.29
679.04	29792.68
679.18	29549.26
679.31	29453.30
679.45	29425.22
679.59	29280.10
679.73	29333.93
679.87	29228.61
680.00	29401.81
680.14	29226.27
680.28	29102.22
680.42	28699.65
680.56	28800.29
680.70	28985.19
680.83	28526.45
680.97	28629.43
681.11	28423.47
681.25	28074.73
681.39	28173.03
681.52	28065.36
681.66	27468.53
681.80	27548.11
681.94	27445.12
682.07	27498.95
682.21	27662.79
682.35	27587.89
682.49	27314.05
682.62	27358.52
682.76	27227.45
682.90	27253.20
683.04	27040.21
683.17	27056.59
683.31	27005.10
683.45	26775.73
683.59	26143.78
683.72	26527.63
683.86	26614.23
684.00	26426.99
684.13	26132.08
684.27	25998.67
684.41	25998.67
684.55	26099.31
684.68	25961.22
684.82	25811.43
684.96	25493.12
685.09	25553.97
685.23	26085.27
685.37	25982.29
685.50	25989.31
685.64	25582.06
685.78	25568.01
685.91	25296.51
686.05	24985.22
686.19	24507.75
686.32	24774.57
686.46	24456.26
686.60	24430.51
686.73	24737.12
686.87	24465.62
687.01	24474.98
687.14	24514.77
687.28	24173.05
687.42	24266.67
687.55	24102.84
687.69	24063.05
687.82	23744.73
687.96	23939.00
688.10	23836.02
688.23	23997.51
688.37	23821.97
688.50	23487.28
688.64	23410.04
688.78	23515.36
688.91	23180.67
689.05	23166.62
689.18	23201.73
689.32	22733.62
689.46	22747.67
689.59	22677.45
689.73	23070.66
689.86	22724.26
690.00	22485.53
690.13	22775.75
690.27	22464.46
690.41	22363.82
690.54	22143.81
690.68	21902.73
690.81	22092.32
690.95	21792.73
691.08	21867.63
691.22	21750.60
691.35	21619.53
691.49	22057.21
691.62	21703.79
691.76	21219.30
691.89	21128.02
692.03	20634.16
692.16	21018.01
692.30	21130.36
692.43	20917.37
692.57	20643.52
692.70	20496.07
692.84	20535.86
692.97	20526.50
693.11	20423.51
693.24	20063.07
693.38	20423.51
693.51	20175.42
693.65	20212.87
693.78	19786.89
693.92	19651.14
694.05	19597.31
694.19	19840.72
694.32	19859.45
694.45	19922.64
694.59	20039.67
694.72	19812.63
694.86	19278.99
694.99	19180.69
695.13	18974.72
695.26	18930.25
695.39	18759.39
695.53	18649.39
695.66	19007.49
695.80	18590.88
695.93	18871.74
696.07	18448.10
696.20	18361.50
696.33	18239.79
696.47	18008.08
696.60	17991.70
696.73	18279.58
696.87	18101.70
697.00	18075.96
697.14	17886.37
697.27	17944.89
697.40	17867.65
697.54	17673.39
697.67	17750.62
697.80	17846.58
697.94	17511.89
698.07	17221.66
698.21	17554.02
698.34	17427.63
698.47	17006.33
698.61	17015.69
698.74	16638.87
698.87	16814.41
699.01	16468.01
699.14	16809.73
699.27	16613.12
699.40	16578.01
699.54	16622.48
699.67	16411.84
699.80	16460.99
699.94	16439.92
700.07	15960.11
700.20	16297.15
700.34	16093.52
700.47	16149.70
700.60	16145.02
700.73	15988.20
700.87	15763.51
701.00	15548.18
701.13	15367.96
701.26	15410.09
701.40	15583.29
701.53	15302.42
701.66	15461.58
701.79	15325.83
701.93	15143.27
702.06	14757.08
702.19	14892.83
702.32	14986.45
702.46	14993.47
702.59	15026.24
702.72	15042.62
702.85	14726.65
702.99	14831.97
703.12	14628.35
703.25	14483.24
703.38	14415.36
703.51	14398.98
703.65	14246.84
703.78	14087.68
703.91	13900.44
704.04	13888.74
704.17	13907.46
704.31	13958.96
704.44	14040.87
704.57	13666.39
704.70	13523.62
704.83	13664.05
704.96	13523.62
705.10	13577.45
705.23	13238.07
>>>>>End Processed Spectral Data<<<<<
