SpectraSuite Data File
++++++++++++++++++++++++++++++++++++
Date: Fri Oct 25 10:44:05 EDT 2013
User: price-jones
Dark Spectrum Present: No
Reference Spectrum Present: No
Number of Sampled Component Spectra: 1
Spectrometers: USB2+H05261
Integration Time (usec): 100000 (USB2+H05261)
Spectra Averaged: 1 (USB2+H05261)
Boxcar Smoothing: 0 (USB2+H05261)
Correct for Electrical Dark: No (USB2+H05261)
Strobe/Lamp Enabled: No (USB2+H05261)
Correct for Detector Non-linearity: No (USB2+H05261)
Correct for Stray Light: No (USB2+H05261)
Number of Pixels in Processed Spectrum: 2048
>>>>>Begin Processed Spectral Data<<<<<
365.73	105.32
365.92	105.32
366.12	105.32
366.32	81.92
366.52	18.72
366.72	53.83
366.91	0.00
367.11	35.11
367.31	0.00
367.51	44.47
367.70	0.00
367.90	28.09
368.10	65.54
368.30	0.00
368.49	77.24
368.69	16.38
368.89	0.00
369.09	60.85
369.28	37.45
369.48	70.22
369.68	154.48
369.87	84.26
370.07	53.83
370.27	121.71
370.47	208.31
370.66	372.15
370.86	468.11
371.06	393.21
371.25	521.94
371.45	475.13
371.65	505.56
371.84	477.47
372.04	484.49
372.24	477.47
372.44	482.15
372.63	510.24
372.83	465.77
373.03	500.87
373.22	535.98
373.42	657.69
373.62	484.49
373.81	543.00
374.01	564.07
374.21	610.88
374.40	531.30
374.60	568.75
374.79	489.17
374.99	610.88
375.19	636.63
375.38	610.88
375.58	596.84
375.78	589.82
375.97	660.03
376.17	657.69
376.37	662.37
376.56	641.31
376.76	557.05
376.95	636.63
377.15	662.37
377.35	592.16
377.54	688.12
377.74	617.90
377.93	594.50
378.13	709.18
378.33	697.48
378.52	582.79
378.72	657.69
378.91	664.71
379.11	596.84
379.31	629.60
379.50	737.27
379.70	741.95
379.89	678.76
380.09	725.57
380.28	692.80
380.48	690.46
380.68	702.16
380.87	739.61
381.07	655.35
381.26	720.88
381.46	746.63
381.65	713.86
381.85	704.50
382.04	671.73
382.24	664.71
382.43	760.67
382.63	737.27
382.83	758.33
383.02	800.46
383.22	800.46
383.41	744.29
383.61	751.31
383.80	816.85
384.00	760.67
384.19	844.93
384.39	875.36
384.58	793.44
384.78	868.34
384.97	840.25
385.17	730.25
385.36	816.85
385.56	835.57
385.75	814.51
385.95	711.52
386.14	896.43
386.34	849.61
386.53	945.58
386.72	882.38
386.92	847.27
387.11	917.49
387.31	821.53
387.50	945.58
387.70	863.66
387.89	898.77
388.09	835.57
388.28	854.30
388.48	891.74
388.67	933.87
388.86	1032.18
389.06	919.83
389.25	966.64
389.45	954.94
389.64	978.34
389.84	985.37
390.03	1027.50
390.22	1074.31
390.42	1048.56
390.61	924.51
390.81	1032.18
391.00	1128.14
391.19	1043.88
391.39	1004.09
391.58	1093.03
391.78	1137.50
391.97	1102.39
392.16	1090.69
392.36	1114.10
392.55	994.73
392.75	1036.86
392.94	1029.84
393.13	1008.77
393.33	1027.50
393.52	1114.10
393.71	1130.48
393.91	1188.99
394.10	1186.65
394.29	1137.50
394.49	1198.35
394.68	1249.85
394.88	1329.42
395.07	1296.66
395.26	1210.06
395.46	1224.10
395.65	1303.68
395.84	1254.53
396.04	1242.82
396.23	1174.95
396.42	1266.23
396.62	1207.72
396.81	1210.06
397.00	1287.29
397.19	1268.57
397.39	1343.47
397.58	1324.74
397.77	1411.34
397.97	1432.41
398.16	1519.01
398.35	1528.37
398.55	1441.77
398.74	1460.49
398.93	1530.71
399.12	1530.71
399.32	1486.24
399.51	1561.14
399.70	1598.59
399.90	1584.54
400.09	1626.67
400.28	1612.63
400.47	1624.33
400.67	1713.27
400.86	1685.19
401.05	1748.38
401.24	1760.08
401.44	1762.42
401.63	1832.64
401.82	1717.95
402.01	1710.93
402.21	1816.26
402.40	1856.04
402.59	1757.74
402.78	1863.07
402.97	1816.26
403.17	1902.86
403.36	1870.09
403.55	1930.94
403.74	1905.20
403.93	1902.86
404.13	1860.73
404.32	1874.77
404.51	1940.30
404.70	2040.95
404.89	2010.52
405.09	1980.09
405.28	1991.80
405.47	2017.54
405.66	1942.64
405.85	2033.93
406.05	2003.50
406.24	1977.75
406.43	2062.01
406.62	2113.50
406.81	2228.19
407.00	2120.53
407.20	2115.84
407.39	2073.71
407.58	2122.87
407.77	2228.19
407.96	2225.85
408.15	2204.78
408.34	2216.49
408.54	2324.15
408.73	2335.85
408.92	2335.85
409.11	2335.85
409.30	2347.56
409.49	2359.26
409.68	2303.09
409.87	2326.49
410.07	2422.45
410.26	2380.32
410.45	2438.84
410.64	2520.76
410.83	2553.52
411.02	2597.99
411.21	2609.70
411.40	2668.21
411.59	2738.43
411.78	2633.10
411.98	2445.86
412.17	2663.53
412.36	2773.53
412.55	2731.41
412.74	2850.77
412.93	2829.71
413.12	2745.45
413.31	2899.92
413.50	2942.05
413.69	2820.35
413.88	2846.09
414.07	2810.98
414.26	3061.42
414.45	3089.51
414.64	3068.44
414.83	3084.83
415.02	3126.96
415.22	3260.37
415.41	3176.11
415.60	3115.25
415.79	3236.96
415.98	3346.97
416.17	3288.45
416.36	3279.09
416.55	3314.20
416.74	3323.56
416.93	3337.60
417.12	3358.67
417.31	3316.54
417.50	3435.91
417.69	3515.48
417.88	3515.48
418.07	3480.38
418.26	3510.80
418.45	3555.27
418.64	3630.17
418.83	3679.32
419.02	3705.07
419.21	3653.58
419.39	3658.26
419.58	3569.32
419.77	3541.23
419.96	3737.84
420.15	3754.22
420.34	3733.15
420.53	3758.90
420.72	3934.44
420.91	3911.04
421.10	3840.82
421.29	4060.83
421.48	3939.12
421.67	3925.08
421.86	3896.99
422.05	3850.18
422.24	4032.74
422.43	3810.39
422.61	3824.44
422.80	3918.06
422.99	3904.01
423.18	3990.61
423.37	3969.55
423.56	3936.78
423.75	4128.70
423.94	4044.45
424.13	3913.38
424.32	3875.93
424.50	4016.36
424.69	4124.02
424.88	4077.21
425.07	3976.57
425.26	3915.72
425.45	3967.21
425.64	4098.28
425.83	4016.36
426.01	4112.32
426.20	4095.94
426.39	4032.74
426.58	4009.34
426.77	4018.70
426.96	3957.85
427.15	4065.51
427.33	4161.47
427.52	4154.45
427.71	4203.60
427.90	4234.03
428.09	4264.46
428.28	4276.16
428.46	4187.22
428.65	4390.84
428.84	4166.15
429.03	4383.82
429.22	4255.09
429.40	4320.63
429.59	4105.30
429.78	4093.60
429.97	4007.00
430.16	3882.95
430.34	4121.68
430.53	4229.35
430.72	4147.43
430.91	4430.63
431.10	4606.17
431.28	4617.88
431.47	4793.42
431.66	4828.53
431.85	4631.92
432.03	4662.35
432.22	4823.84
432.41	4767.67
432.60	4788.74
432.79	4669.37
432.97	4936.19
433.16	4760.65
433.35	4624.90
433.54	4795.76
433.72	4844.91
433.91	4739.58
434.10	4758.31
434.28	5151.52
434.47	4952.57
434.66	4908.10
434.85	4950.23
435.03	5022.79
435.22	4978.32
435.41	5146.84
435.59	5069.60
435.78	5043.85
435.97	5322.38
436.16	5170.24
436.34	5303.65
436.53	5195.99
436.72	5273.23
436.90	5177.26
437.09	5146.84
437.28	5345.78
437.46	5341.10
437.65	5390.25
437.84	5460.47
438.02	5404.30
438.21	5298.97
438.40	5266.21
438.58	5500.26
438.77	5577.50
438.96	5593.88
439.14	5678.14
439.33	5764.74
439.52	5909.85
439.70	5797.51
439.89	5874.74
440.08	5755.38
440.26	5891.13
440.45	5844.32
440.63	5982.41
440.82	6122.84
441.01	6054.97
441.19	6104.12
441.38	6249.23
441.57	6193.06
441.75	6410.73
441.94	6410.73
442.12	6670.53
442.31	6448.18
442.50	6464.56
442.68	6427.11
442.87	6478.60
443.05	6392.00
443.24	6717.34
443.43	6544.14
443.61	6698.61
443.80	6998.20
443.98	6544.14
444.17	6242.21
444.35	6759.47
444.54	6801.60
444.73	6590.95
444.91	6616.69
445.10	6562.86
445.28	6682.23
445.47	6399.02
445.65	6424.77
445.84	6672.87
446.02	6691.59
446.21	6766.49
446.39	6738.40
446.58	6775.85
446.77	6874.15
446.95	6668.19
447.14	6794.58
447.32	6974.80
447.51	6684.57
447.69	6825.00
447.88	6682.23
448.06	6899.90
448.25	6792.23
448.43	6953.73
448.62	6775.85
448.80	6918.62
448.99	6963.09
449.17	6946.71
449.36	6782.87
449.54	7014.59
449.73	7339.92
449.91	7148.00
450.10	7337.58
450.28	7461.63
450.46	7337.58
450.65	7391.41
450.83	7527.16
451.02	7405.46
451.20	7459.29
451.39	7424.18
451.57	7454.61
451.76	7314.17
451.94	7438.22
452.13	7536.52
452.31	7489.71
452.49	7126.93
452.68	7368.01
452.86	7328.22
453.05	7485.03
453.23	7442.90
453.42	7400.77
453.60	7449.93
453.78	7786.96
453.97	7723.77
454.15	7356.30
454.34	7482.69
454.52	7726.11
454.70	7667.60
454.89	7602.06
455.07	7700.36
455.26	7761.22
455.44	7791.64
455.62	7988.25
455.81	7978.89
455.99	7927.39
456.17	8009.31
456.36	7892.29
456.54	7976.55
456.73	8248.05
456.91	8226.98
457.09	8173.15
457.28	8524.23
457.46	8236.35
457.64	8533.59
457.83	8290.18
458.01	8091.23
458.19	8472.74
458.38	8163.79
458.56	8353.37
458.74	8479.76
458.93	8512.53
459.11	8442.31
459.29	8589.77
459.48	8528.91
459.66	8472.74
459.84	8671.68
460.03	8692.75
460.21	8713.81
460.39	8856.59
460.57	8683.39
460.76	8704.45
460.94	8709.13
461.12	8739.56
461.31	8685.73
461.49	8898.72
461.67	8910.42
461.85	9043.83
462.04	8905.74
462.22	9423.00
462.40	9212.35
462.59	9233.41
462.77	9186.60
462.95	9144.47
463.13	8929.14
463.32	9181.92
463.50	9191.28
463.68	9308.31
463.86	9217.03
464.05	9015.74
464.23	8922.12
464.41	9100.00
464.59	9048.51
464.78	9582.15
464.96	9254.48
465.14	9156.18
465.32	9516.62
465.50	9397.25
465.69	9614.92
465.87	9420.66
466.05	9523.64
466.23	9511.94
466.41	9277.88
466.60	9448.74
466.78	9289.59
466.96	9582.15
467.14	9451.08
467.32	9570.45
467.51	9633.64
467.69	9268.52
467.87	9570.45
468.05	9764.72
468.23	9820.89
468.41	9713.22
468.60	9717.90
468.78	9921.53
468.96	9706.20
469.14	9741.31
469.32	9980.04
469.50	9715.56
469.69	10150.90
469.87	10071.33
470.05	9989.41
470.23	10019.83
470.41	10061.96
470.59	10029.20
470.77	9944.94
470.95	10052.60
471.14	10228.14
471.32	10209.42
471.50	10525.39
471.68	10375.59
471.86	10675.18
472.04	10679.86
472.22	10628.37
472.40	10490.28
472.58	10314.74
472.77	10714.97
472.95	10909.24
473.13	10794.55
473.31	10647.10
473.49	10689.23
473.67	10733.70
473.85	11066.05
474.03	11286.06
474.21	11452.24
474.39	11316.49
474.57	11398.41
474.75	11346.92
474.93	11279.04
475.12	11440.54
475.30	11180.74
475.48	11751.83
475.66	11681.61
475.84	11625.44
476.02	11686.29
476.20	11517.78
476.38	11859.49
476.56	12170.79
476.74	12203.55
476.92	12074.82
477.10	12159.08
477.28	12451.65
477.46	12329.94
477.64	12477.40
477.82	12549.95
478.00	12989.97
478.18	12861.24
478.36	12809.75
478.54	12769.96
478.72	12776.98
478.90	13179.56
479.08	13071.89
479.26	13305.95
479.44	13348.08
479.62	13434.68
479.80	13462.76
479.98	13902.78
480.16	14038.53
480.34	13769.37
480.52	14115.77
480.70	14277.27
480.88	13947.25
481.06	14286.63
481.24	14239.82
481.41	14464.51
481.59	14789.85
481.77	14724.31
481.95	14794.53
482.13	14691.54
482.31	14803.89
482.49	15213.48
482.67	15136.24
482.85	15255.61
483.03	15447.54
483.21	15435.83
483.39	15847.77
483.57	15854.79
483.74	15667.55
483.92	16016.29
484.10	16044.37
484.28	16322.90
484.46	16489.07
484.64	16695.04
484.82	16091.18
485.00	16568.65
485.18	16748.87
485.35	16786.32
485.53	16617.80
485.71	16524.18
485.89	16872.92
486.07	16746.53
486.25	16910.37
486.43	17221.66
486.61	17287.20
486.78	17699.13
486.96	17738.92
487.14	17987.02
487.32	17970.63
487.50	18490.23
487.68	18551.09
487.85	18885.78
488.03	19009.83
488.21	19108.13
488.39	18862.38
488.57	19009.83
488.75	19208.78
488.92	19559.86
489.10	19847.74
489.28	19510.71
489.46	19971.79
489.64	20285.42
489.81	20533.52
489.99	20533.52
490.17	20751.19
490.35	20730.12
490.53	20753.53
490.70	20734.81
490.88	21046.10
491.06	21149.08
491.24	20844.81
491.41	20957.16
491.59	20975.88
491.77	21153.76
491.95	21329.30
492.13	21701.45
492.30	21607.83
492.48	22122.74
492.66	22094.66
492.84	22108.70
493.01	22431.69
493.19	22335.73
493.37	22576.81
493.54	22860.01
493.72	23124.49
493.90	23042.57
494.08	23339.82
494.25	23555.15
494.43	23915.59
494.61	23896.87
494.79	23564.51
494.96	24063.05
495.14	24086.45
495.32	24116.88
495.49	24205.82
495.67	24503.07
495.85	24388.38
496.02	25069.48
496.20	24655.20
496.38	25120.97
496.55	24744.14
496.73	25530.56
496.91	25230.98
497.09	25621.84
497.26	25722.49
497.44	25783.34
497.62	25537.59
497.79	25624.18
497.97	25734.19
498.14	25991.65
498.32	25914.41
498.50	25986.97
498.67	26209.32
498.85	26731.26
499.03	26836.58
499.20	26609.55
499.38	26864.67
499.56	26888.07
499.73	27253.20
499.91	27047.23
500.08	27054.25
500.26	26888.07
500.44	27049.57
500.61	26953.61
500.79	27218.09
500.97	27307.03
501.14	27711.94
501.32	27669.81
501.49	27716.62
501.67	27660.45
501.84	28025.57
502.02	28149.62
502.20	28481.98
502.37	28175.37
502.55	28259.63
502.72	28407.08
502.90	28397.72
503.07	28285.37
503.25	28823.70
503.43	28762.84
503.60	28826.04
503.78	28311.12
503.95	28779.23
504.13	28933.70
504.30	29151.37
504.48	29043.71
504.65	29549.26
504.83	29731.83
505.01	29876.94
505.18	29607.78
505.36	29834.81
505.53	29677.99
505.71	30377.81
505.88	30073.54
506.06	29832.47
506.23	30047.80
506.41	29890.98
506.58	30429.30
506.76	30611.87
506.93	30171.85
507.11	30586.12
507.28	30651.66
507.46	30433.99
507.63	30724.21
507.81	30338.02
507.98	30843.58
508.16	30778.04
508.33	31538.72
508.50	31084.65
508.68	31377.22
508.85	31871.07
509.03	31248.49
509.20	31562.12
509.38	31842.99
509.55	32011.51
509.73	31882.78
509.90	31770.43
510.08	31924.91
510.25	31840.65
510.42	31814.90
510.60	32236.20
510.77	32290.03
510.95	32556.85
511.12	32428.12
511.30	32882.19
511.47	33062.41
511.64	32926.66
511.82	33163.05
511.99	32694.94
512.17	32643.45
512.34	32727.71
512.51	33214.54
512.69	33188.80
512.86	33104.54
513.04	33097.52
513.21	33654.56
513.38	33261.35
513.56	33345.61
513.73	33408.81
513.90	33324.55
514.08	33830.10
514.25	33645.20
514.43	33633.50
514.60	33551.58
514.77	33724.78
514.95	34029.05
515.12	34263.10
515.29	34174.16
515.47	34213.95
515.64	34665.67
515.81	34209.27
515.99	34174.16
516.16	34117.99
516.33	34178.84
516.51	34235.02
516.68	33647.54
516.85	33537.54
517.03	34380.13
517.20	34419.92
517.37	34906.75
517.54	34506.52
517.72	34665.67
517.89	34272.46
518.06	34361.40
518.24	34368.43
518.41	34625.89
518.58	35213.36
518.75	35372.52
518.93	35676.79
519.10	35225.06
519.27	35660.40
519.45	35758.70
519.62	35735.30
519.79	35901.48
519.96	35842.96
520.14	35835.94
520.31	36086.38
520.48	36156.60
520.65	35908.50
520.83	36297.03
521.00	36514.70
521.17	36833.01
521.34	36463.21
521.52	36121.49
521.69	36751.09
521.86	37319.84
522.03	37008.55
522.20	36690.24
522.38	37266.01
522.55	36931.31
522.72	37160.69
522.89	36610.66
523.07	37261.33
523.24	36900.89
523.41	37699.01
523.58	37207.50
523.75	37771.57
523.92	37514.11
524.10	37993.92
524.27	38185.84
524.44	37834.76
524.61	37907.32
524.78	38075.84
524.96	38110.94
525.13	38103.92
525.30	38469.04
525.47	38550.96
525.64	38532.24
525.81	38036.05
525.98	38171.80
526.16	37919.02
526.33	37612.41
526.50	37916.68
526.67	37897.95
526.84	37661.56
527.01	38127.33
527.18	38110.94
527.36	38665.65
527.53	39136.10
527.70	38810.76
527.87	39115.03
528.04	38525.22
528.21	39138.44
528.38	39426.32
528.55	39688.46
528.72	39576.12
528.89	39578.46
529.07	39456.75
529.24	39402.92
529.41	39395.90
529.58	39346.75
529.75	39391.22
529.92	39674.42
530.09	40184.66
530.26	39611.23
530.43	39878.05
530.60	39948.26
530.77	39739.96
530.94	40444.46
531.11	39695.49
531.28	40055.93
531.46	40158.91
531.63	40072.31
531.80	39791.45
531.97	40278.28
532.14	40231.47
532.31	40034.86
532.48	39779.74
532.65	40191.68
532.82	40081.67
532.99	40652.76
533.16	40332.11
533.33	40226.79
533.50	41048.32
533.67	40524.04
533.84	40392.97
534.01	40828.30
534.18	40765.11
534.35	41181.73
534.52	40713.62
534.69	41368.97
534.86	40893.84
535.03	41099.81
535.20	41446.21
535.37	41687.28
535.54	41268.33
535.71	41469.61
535.88	41329.18
536.05	41198.11
536.22	41603.02
536.38	42012.62
536.55	41455.57
536.72	41535.15
536.89	41329.18
537.06	41446.21
537.23	41928.36
537.40	41614.72
537.57	41696.64
537.74	41617.07
537.91	41911.97
538.08	42045.38
538.25	41909.63
538.42	41883.89
538.59	41764.52
538.75	41832.39
538.92	42199.86
539.09	42188.16
539.26	42000.91
539.43	42162.41
539.60	41844.10
539.77	41935.38
539.94	41673.24
540.11	41907.29
540.28	42326.25
540.44	41818.35
540.61	42059.43
540.78	42110.92
540.95	41663.88
541.12	42127.30
541.29	42211.56
541.46	42775.63
541.62	42796.70
541.79	42967.55
541.96	41951.76
542.13	42286.46
542.30	42375.40
542.47	42925.42
542.63	42895.00
542.80	42796.70
542.97	42731.16
543.14	43276.51
543.31	43313.95
543.48	43447.36
543.64	43391.19
543.81	43243.74
543.98	43817.17
544.15	43725.89
544.32	43676.74
544.48	44002.07
544.65	43674.40
544.82	43805.47
544.99	43510.56
545.16	43388.85
545.32	43487.15
545.49	43751.63
545.66	44334.43
545.83	43861.64
546.00	43838.23
546.16	43838.23
546.33	43945.90
546.50	43880.36
546.67	44016.11
546.83	43665.03
547.00	43938.88
547.17	43697.80
547.34	43409.92
547.50	44161.23
547.67	44016.11
547.84	44182.29
548.00	44491.24
548.17	44779.13
548.34	44493.58
548.51	44444.43
548.67	44409.32
548.84	44765.09
549.01	44474.86
549.18	43976.33
549.34	44655.08
549.51	44687.85
549.68	44432.73
549.84	44306.34
550.01	44746.36
550.18	44566.14
550.34	45209.79
550.51	44538.05
550.68	44863.39
550.84	44107.40
551.01	44577.84
551.18	44411.67
551.34	44872.75
551.51	44704.23
551.68	45184.04
551.84	45116.17
552.01	45172.34
552.18	44868.07
552.34	44856.37
552.51	45027.23
552.68	44891.48
552.84	44931.26
553.01	45284.68
553.18	45006.16
553.34	44877.43
553.51	44769.77
553.67	45123.19
553.84	45338.52
554.01	45291.71
554.17	45284.68
554.34	45406.39
554.51	45172.34
554.67	45918.97
554.84	45614.70
555.00	45347.88
555.17	44933.60
555.33	45263.62
555.50	45104.46
555.67	45570.23
555.83	45111.49
556.00	45301.07
556.16	45462.57
556.33	46003.23
556.50	45535.12
556.66	45474.27
556.83	45244.90
556.99	45390.01
557.16	46024.29
557.32	45591.30
557.49	45757.47
557.65	45570.23
557.82	45563.21
557.98	45823.01
558.15	45310.43
558.32	45492.99
558.48	45214.47
558.65	45310.43
558.81	45539.80
558.98	46007.91
559.14	45464.91
559.31	45556.19
559.47	45696.62
559.64	45937.69
559.80	46071.10
559.97	45963.44
560.13	45612.36
560.30	45998.55
560.46	46003.23
560.63	46014.93
560.79	45797.26
560.96	46307.50
561.12	45698.96
561.29	45998.55
561.45	46326.22
561.61	45787.90
561.78	45883.86
561.94	45844.07
562.11	45933.01
562.27	46024.29
562.44	45820.67
562.60	45904.93
562.77	46461.97
562.93	46134.30
563.10	45930.67
563.26	46195.15
563.42	46054.72
563.59	45855.78
563.75	46485.38
563.92	45977.48
564.08	46234.94
564.24	46506.44
564.41	46174.09
564.57	46295.80
564.74	46157.70
564.90	45837.05
565.07	46174.09
565.23	46485.38
565.39	46403.46
565.56	46288.77
565.72	45691.94
565.88	46721.77
566.05	46216.22
566.21	46326.22
566.38	45993.87
566.54	46143.66
566.70	46106.21
566.87	46571.98
567.03	46504.10
567.19	47232.01
567.36	46972.21
567.52	46356.65
567.68	46752.20
567.85	46342.61
568.01	46527.51
568.17	46134.30
568.34	46284.09
568.50	46689.01
568.66	46272.39
568.83	46740.50
568.99	45902.59
569.15	46216.22
569.32	45925.99
569.48	46394.10
569.64	46597.73
569.81	46719.43
569.97	46623.47
570.13	46333.24
570.30	46358.99
570.46	46108.55
570.62	45708.32
570.78	46321.54
570.95	46138.98
571.11	46087.49
571.27	46309.84
571.43	46333.24
571.60	46628.15
571.76	46424.53
571.92	46665.60
572.09	46541.55
572.25	46681.98
572.41	46593.04
572.57	46700.71
572.74	46848.16
572.90	46380.06
573.06	46735.82
573.22	46951.15
573.38	46834.12
573.55	46405.80
573.71	46681.98
573.87	46667.94
574.03	46471.34
574.20	46770.93
574.36	46405.80
574.52	46478.36
574.68	46913.70
574.84	46841.14
575.01	46497.08
575.17	46564.96
575.33	46246.65
575.49	46028.98
575.65	46593.04
575.82	46728.80
575.98	46602.41
576.14	46642.20
576.30	46955.83
576.46	46838.80
576.62	46749.86
576.79	46712.41
576.95	46366.01
577.11	46717.09
577.27	47016.68
577.43	46541.55
577.59	46492.40
577.75	46272.39
577.92	46260.69
578.08	46059.40
578.24	46080.47
578.40	46527.51
578.56	46745.18
578.72	46864.55
578.88	46777.95
579.04	46932.42
579.21	46887.95
579.37	46546.23
579.53	46621.13
579.69	46754.54
579.85	46457.29
580.01	46876.25
580.17	46461.97
580.33	46766.24
580.49	46726.46
580.65	46665.60
580.82	46679.64
580.98	46461.97
581.14	46742.84
581.30	47257.76
581.46	46780.29
581.62	46845.82
581.78	46890.29
581.94	47236.69
582.10	46766.24
582.26	46796.67
582.42	46590.70
582.58	46148.34
582.74	46642.20
582.90	46824.76
583.06	46848.16
583.22	46684.33
583.38	46490.06
583.54	46993.28
583.70	46684.33
583.86	47072.85
584.02	46681.98
584.18	47044.77
584.34	46845.82
584.50	46691.35
584.66	46443.25
584.82	46920.72
584.98	46806.03
585.14	46787.31
585.30	46436.23
585.46	46738.16
585.62	46681.98
585.78	46780.29
585.94	46260.69
586.10	46703.05
586.26	46155.36
586.42	47147.75
586.58	47105.62
586.74	46962.85
586.90	46733.48
587.06	46698.37
587.22	46625.81
587.38	46672.62
587.54	46693.69
587.70	46497.08
587.86	47026.04
588.02	46745.18
588.18	46754.54
588.34	46363.67
588.49	46302.82
588.65	46141.32
588.81	45942.38
588.97	46398.78
589.13	46040.68
589.29	46354.31
589.45	46480.70
589.61	46649.22
589.77	46951.15
589.93	46637.51
590.08	47107.96
590.24	46951.15
590.40	47398.19
590.56	47402.87
590.72	46962.85
590.88	46831.78
591.04	47079.88
591.20	47391.17
591.35	47063.49
591.51	47295.21
591.67	47164.14
591.83	46791.99
591.99	46859.87
592.15	46911.36
592.31	47388.83
592.46	46784.97
592.62	47042.43
592.78	46813.05
592.94	47262.44
593.10	46824.76
593.26	47159.45
593.41	46777.95
593.57	46850.50
593.73	46789.65
593.89	47093.92
594.05	47138.39
594.20	47215.63
594.36	47180.52
594.52	46724.11
594.68	46939.44
594.84	46761.56
594.99	47143.07
595.15	46983.91
595.31	47002.64
595.47	46768.58
595.62	46443.25
595.78	47086.90
595.94	47517.56
596.10	46660.92
596.25	46974.55
596.41	47271.80
596.57	47316.27
596.73	47248.39
596.88	46408.14
597.04	47028.38
597.20	46960.51
597.36	47342.02
597.51	47150.09
597.67	47283.50
597.83	46829.44
597.99	47334.99
598.14	47185.20
598.30	47014.34
598.46	46728.80
598.61	47058.81
598.77	46677.30
598.93	46408.14
599.09	46871.57
599.24	47393.51
599.40	47068.17
599.56	47084.56
599.71	47166.48
599.87	47061.15
600.03	46946.47
600.18	46822.42
600.34	46506.44
600.50	46564.96
600.65	46789.65
600.81	47260.10
600.97	46876.25
601.12	46918.38
601.28	47004.98
601.44	46703.05
601.59	46583.68
601.75	46665.60
601.91	46920.72
602.06	46557.94
602.22	46822.42
602.37	46719.43
602.53	46894.97
602.69	47201.58
602.84	47129.03
603.00	46988.60
603.16	46911.36
603.31	46801.35
603.47	46845.82
603.62	47159.45
603.78	47154.77
603.94	47023.70
604.09	47122.01
604.25	46869.23
604.40	46742.84
604.56	46920.72
604.71	46873.91
604.87	46953.49
605.03	46649.22
605.18	46536.87
605.34	46808.37
605.49	46738.16
605.65	46511.13
605.80	46567.30
605.96	47126.69
606.12	46583.68
606.27	46930.08
606.43	46412.82
606.58	46466.66
606.74	46670.28
606.89	46440.91
607.05	46656.24
607.20	47246.05
607.36	46763.90
607.51	46555.60
607.67	46529.85
607.82	46256.01
607.98	46476.02
608.13	46326.22
608.29	46321.54
608.44	46298.14
608.60	45713.00
608.75	45928.33
608.91	46426.87
609.06	46291.12
609.22	46557.94
609.37	46057.06
609.53	46686.67
609.68	46256.01
609.84	46534.53
609.99	45865.14
610.15	45738.75
610.30	46344.95
610.46	46019.61
610.61	46319.20
610.76	46363.67
610.92	46321.54
611.07	46642.20
611.23	46092.17
611.38	46375.37
611.54	46337.93
611.69	46188.13
611.84	45766.84
612.00	46017.27
612.15	45851.09
612.31	46382.40
612.46	45991.53
612.62	46429.21
612.77	46075.79
612.92	46323.88
613.08	45296.39
613.23	45900.25
613.39	46073.45
613.54	45560.87
613.69	45682.58
613.85	45631.08
614.00	45848.75
614.15	45794.92
614.31	45909.61
614.46	46267.71
614.62	45811.31
614.77	45661.51
614.92	45801.94
615.08	45205.11
615.23	45301.07
615.38	45968.12
615.54	45684.92
615.69	45563.21
615.84	45382.99
616.00	45310.43
616.15	45200.43
616.30	45544.48
616.46	45443.84
616.61	45408.73
616.76	45258.94
616.92	45132.55
617.07	45109.14
617.22	44978.07
617.37	45095.10
617.53	45544.48
617.68	45668.53
617.83	45708.32
617.99	45312.77
618.14	45415.76
618.29	44673.81
618.45	44722.96
618.60	44809.56
618.75	45062.33
618.90	45097.44
619.06	45055.31
619.21	45162.98
619.36	45132.55
619.51	44655.08
619.67	45289.37
619.82	44851.69
619.97	44989.78
620.12	44978.07
620.28	44186.97
620.43	45015.52
620.58	44994.46
620.73	44847.00
620.89	44304.00
621.04	44566.14
621.19	44952.33
621.34	44629.34
621.49	44339.11
621.65	44179.95
621.80	44804.88
621.95	44444.43
622.10	44608.27
622.25	43859.30
622.41	44133.14
622.56	44201.02
622.71	44168.25
622.86	43892.07
623.01	44545.08
623.16	44151.87
623.32	44421.03
623.47	44516.99
623.62	44484.22
623.77	44439.75
623.92	44418.69
624.07	44062.93
624.23	43793.76
624.38	43915.47
624.53	43934.20
624.68	43805.47
624.83	44210.38
624.98	44240.81
625.13	43737.59
625.29	43908.45
625.44	43601.84
625.59	43545.67
625.74	43257.78
625.89	43608.86
626.04	43337.36
626.19	43372.47
626.34	43709.50
626.49	44025.48
626.65	43531.62
626.80	43629.93
626.95	43255.44
627.10	43569.07
627.25	43629.93
627.40	43297.57
627.55	42848.19
627.70	43136.07
627.85	42834.14
628.00	43316.29
628.15	43278.85
628.30	43222.67
628.45	43225.01
628.60	43269.48
628.76	43220.33
628.91	43185.22
629.06	43171.18
629.21	42820.10
629.36	42988.62
629.51	42789.67
629.66	43075.22
629.81	42841.17
629.96	42986.28
630.11	42637.54
630.26	42937.13
630.41	43140.75
630.56	42567.32
630.71	42663.28
630.86	42897.34
631.01	42597.75
631.16	42817.76
631.31	42838.83
631.46	42522.85
631.61	42976.92
631.76	42665.63
631.91	42637.54
632.06	42670.31
632.21	43154.80
632.36	42955.85
632.51	42520.51
632.66	42567.32
632.81	41848.78
632.96	42518.17
633.10	42506.47
633.25	42490.09
633.40	42501.79
633.55	42555.62
633.70	41998.57
633.85	41507.06
634.00	42131.98
634.15	42321.57
634.30	41640.47
634.45	42040.70
634.60	41984.53
634.75	42127.30
634.90	41961.12
635.05	42099.22
635.19	42078.15
635.34	41972.83
635.49	41991.55
635.64	41717.71
635.79	41830.05
635.94	42010.28
636.09	41385.35
636.24	41914.31
636.39	41467.27
636.53	41610.04
636.68	41652.17
636.83	41703.67
636.98	41460.25
637.13	41862.82
637.28	41853.46
637.43	41787.92
637.57	41455.57
637.72	41471.95
637.87	41722.39
638.02	41478.97
638.17	41385.35
638.32	41394.71
638.46	41383.01
638.61	41537.49
638.76	41329.18
638.91	41698.98
639.06	41368.97
639.20	41268.33
639.35	41563.23
639.50	41553.87
639.65	41860.48
639.80	41708.35
639.94	41490.68
640.09	41036.61
640.24	40898.52
640.39	40002.10
640.54	40624.68
640.68	40802.56
640.83	40882.14
640.98	41074.06
641.13	40919.59
641.27	41247.26
641.42	40650.42
641.57	40734.68
641.72	40631.70
641.86	40308.71
642.01	40144.87
642.16	40308.71
642.31	40355.52
642.45	40877.46
642.60	40514.67
642.75	40793.20
642.90	40772.13
643.04	40648.08
643.19	40671.49
643.34	40627.02
643.48	40620.00
643.63	40336.79
643.78	40416.37
643.93	40491.27
644.07	40289.98
644.22	40631.70
644.37	39735.27
644.51	40383.60
644.66	40126.14
644.81	40367.22
644.95	40481.91
645.10	40414.03
645.25	40189.34
645.39	40711.28
645.54	40498.29
645.69	40016.14
645.83	40072.31
645.98	40121.46
646.13	39913.16
646.27	40018.48
646.42	40123.80
646.57	40048.91
646.71	40030.18
646.86	39924.86
647.00	40030.18
647.15	40069.97
647.30	39655.70
647.44	39475.48
647.59	39707.19
647.74	39749.32
647.88	39519.95
648.03	39583.14
648.17	39686.12
648.32	39683.78
648.47	39580.80
648.61	39784.43
648.76	39864.00
648.90	39690.80
649.05	39578.46
649.20	39770.38
649.34	39473.13
649.49	39129.08
649.63	39519.95
649.78	39578.46
649.92	39936.56
650.07	39599.52
650.21	39313.98
650.36	39367.81
650.51	38876.30
650.65	40170.61
650.80	39770.38
650.94	39056.52
651.09	39227.38
651.23	38869.28
651.38	39264.83
651.52	39192.27
651.67	38604.80
651.81	38962.90
651.96	38820.13
652.10	38616.50
652.25	39171.21
652.39	38735.87
652.54	38981.62
652.68	38841.19
652.83	38567.35
652.97	39091.63
653.12	38899.70
653.26	38845.87
653.41	39084.61
653.55	38831.83
653.70	38888.00
653.84	38803.74
653.99	38705.44
654.13	38642.24
654.27	38040.73
654.42	38663.31
654.56	38148.39
654.71	38326.27
654.85	38497.13
655.00	38298.19
655.14	38300.53
655.29	37839.44
655.43	38316.91
655.57	38024.34
655.72	37860.51
655.86	37621.77
656.01	37977.53
656.15	37659.22
656.30	37560.92
656.44	37434.53
656.58	37502.40
656.73	38017.32
656.87	37949.45
657.01	37858.17
657.16	37689.65
657.30	37652.20
657.45	37537.51
657.59	37371.33
657.73	37254.31
657.88	37975.19
658.02	37912.00
658.16	37968.17
658.31	37790.29
658.45	37883.91
658.60	37860.51
658.74	37624.11
658.88	37757.52
659.03	37043.66
659.17	37347.93
659.31	37029.62
659.46	37511.77
659.60	37530.49
659.74	37514.11
659.89	37003.87
660.03	36957.06
660.17	37589.00
660.32	37469.64
660.46	37017.91
660.60	37352.61
660.74	37141.96
660.89	37244.94
661.03	36723.01
661.17	36905.57
661.32	36781.52
661.46	36507.68
661.60	36657.47
661.74	36748.75
661.89	36769.82
662.03	36140.21
662.17	36875.14
662.31	36378.95
662.46	36556.83
662.60	36610.66
662.74	36463.21
662.88	36598.96
663.03	35814.88
663.17	36147.23
663.31	36280.64
663.45	36243.20
663.60	36158.94
663.74	36084.04
663.88	35725.94
664.02	35447.41
664.17	35838.28
664.31	35807.86
664.45	35599.55
664.59	35641.68
664.73	35515.29
664.88	35597.21
665.02	35517.63
665.16	35634.66
665.30	35260.17
665.44	35339.75
665.59	35040.16
665.73	35124.42
665.87	35117.40
666.01	34967.60
666.15	35335.07
666.29	35218.04
666.44	34969.94
666.58	34895.05
666.72	35016.75
666.86	34843.56
667.00	35133.78
667.14	34602.48
667.28	34792.06
667.43	34462.05
667.57	34553.33
667.71	34796.74
667.85	34780.36
667.99	34808.45
668.13	34216.29
668.27	34658.65
668.41	34267.78
668.56	34431.62
668.70	34391.83
668.84	34359.06
668.98	33883.94
669.12	33670.95
669.26	33570.30
669.40	33851.17
669.54	34136.71
669.68	33914.36
669.82	33780.95
669.96	33670.95
670.10	33474.34
670.25	33453.28
670.39	33727.12
670.53	33422.85
670.67	33383.06
670.81	33244.97
670.95	33483.70
671.09	33242.63
671.23	33352.63
671.37	33125.60
671.51	32662.18
671.65	32910.27
671.79	32552.17
671.93	32973.47
672.07	33280.08
672.21	33181.77
672.35	32444.51
672.49	32273.65
672.63	32858.78
672.77	32671.54
672.91	32617.71
673.05	32079.38
673.19	32320.46
673.33	31868.73
673.47	32142.58
673.61	31716.60
673.75	31721.28
673.89	31278.92
674.03	31262.54
674.17	31732.98
674.31	31728.30
674.45	31597.23
674.59	31386.58
674.73	31840.65
674.87	31339.77
675.01	31372.54
675.15	31576.17
675.29	31215.72
675.43	31189.98
675.56	31402.97
675.70	30909.11
675.84	31065.93
675.98	30298.23
676.12	31243.81
676.26	30991.03
676.40	30450.37
676.54	30934.86
676.68	30331.00
676.82	30148.44
676.96	30106.31
677.10	30157.80
677.23	30078.22
677.37	29706.08
677.51	30085.25
677.65	29841.83
677.79	29558.63
677.93	29469.69
678.07	29860.55
678.21	29062.43
678.34	29324.57
678.48	28952.43
678.62	29319.89
678.76	28938.38
678.90	28893.91
679.04	28833.06
679.18	28851.78
679.31	28577.94
679.45	28631.77
679.59	28290.06
679.73	28292.40
679.87	28332.18
680.00	28166.01
680.14	28158.99
680.28	27924.93
680.42	28212.82
680.56	28168.35
680.70	28077.07
680.83	27866.42
680.97	27503.64
681.11	27847.69
681.25	27501.29
681.39	27573.85
681.52	27229.79
681.66	27498.95
681.80	27342.14
681.94	27300.01
682.07	27005.10
682.21	26958.29
682.35	26780.41
682.49	27044.89
682.62	27002.76
682.76	26644.66
682.90	26717.22
683.04	26441.03
683.17	26279.54
683.31	25933.14
683.45	26464.44
683.59	26099.31
683.72	26001.01
683.86	25914.41
684.00	26143.78
684.13	25914.41
684.27	25607.80
684.41	25469.71
684.55	25556.31
684.68	25415.88
684.82	25535.24
684.96	25434.60
685.09	25055.43
685.23	25137.35
685.37	25036.71
685.50	25207.57
685.64	24828.40
685.78	24622.44
685.91	24594.35
686.05	24280.72
686.19	24416.47
686.32	24173.05
686.46	23791.55
686.60	23660.48
686.73	23798.57
686.87	23435.78
687.01	23548.13
687.14	23316.42
687.28	23267.27
687.42	23372.59
687.55	23028.53
687.69	23229.82
687.82	23363.23
687.96	23168.96
688.10	23307.05
688.23	22689.15
688.37	23077.68
688.50	22567.45
688.64	22572.13
688.78	22574.47
688.91	22583.83
689.05	22654.05
689.18	22361.48
689.32	21944.86
689.46	22490.21
689.59	22408.29
689.73	22347.44
689.86	22232.75
690.00	21811.45
690.13	21984.65
690.27	22026.78
690.41	21802.09
690.54	21298.88
690.68	21378.45
690.81	21282.49
690.95	21535.27
691.08	21476.76
691.22	21486.12
691.35	21350.37
691.49	21223.98
691.62	21184.19
691.76	20891.62
691.89	21172.49
692.03	20994.61
692.16	20959.50
692.30	20456.28
692.43	20767.57
692.57	20697.36
692.70	20444.58
692.84	20395.43
692.97	20224.57
693.11	20285.42
693.24	20105.20
693.38	20194.14
693.51	19812.63
693.65	20372.02
693.78	19901.58
693.92	19770.51
694.05	19824.34
694.19	19550.49
694.32	19381.98
694.45	19454.53
694.59	19225.16
694.72	19164.31
694.86	19133.88
694.99	19021.53
695.13	19087.07
695.26	19012.17
695.39	19122.18
695.53	18953.66
695.66	18939.62
695.80	18567.47
695.93	18663.43
696.07	18347.46
696.20	18506.62
696.33	18443.42
696.47	18200.01
696.60	18286.61
696.73	18101.70
696.87	18235.11
697.00	17898.08
697.14	17996.38
697.27	17717.86
697.40	17706.15
697.54	17694.45
697.67	17305.92
697.80	17472.10
697.94	17228.68
698.07	17142.08
698.21	17209.96
698.34	17022.72
698.47	17198.26
698.61	17128.04
698.74	17022.72
698.87	16793.34
699.01	16510.14
699.14	16734.83
699.27	16100.55
699.40	16592.06
699.54	16395.45
699.67	16369.71
699.80	16343.96
699.94	16264.38
700.07	16255.02
700.20	16376.73
700.34	16257.36
700.47	16355.66
700.60	15962.45
700.73	16156.72
700.87	16065.44
701.00	15735.42
701.13	15730.74
701.26	15496.69
701.40	15618.39
701.53	15534.14
701.66	15606.69
701.79	15410.09
701.93	15180.71
702.06	15103.48
702.19	14958.36
702.32	15129.22
702.46	14925.60
702.59	14949.00
702.72	15021.56
702.85	14981.77
702.99	14972.41
703.12	14754.74
703.25	14600.26
703.38	14370.89
703.51	14429.40
703.65	14377.91
703.78	14403.66
703.91	14185.99
704.04	14127.47
704.17	14200.03
704.31	14354.51
704.44	13881.72
704.57	14038.53
704.70	13951.93
704.83	13554.04
704.96	14066.62
705.10	13919.17
705.23	13970.66
>>>>>End Processed Spectral Data<<<<<
