SpectraSuite Data File
++++++++++++++++++++++++++++++++++++
Date: Fri Oct 25 10:47:48 EDT 2013
User: price-jones
Dark Spectrum Present: No
Reference Spectrum Present: No
Number of Sampled Component Spectra: 1
Spectrometers: USB2+H05261
Integration Time (usec): 100000 (USB2+H05261)
Spectra Averaged: 1 (USB2+H05261)
Boxcar Smoothing: 0 (USB2+H05261)
Correct for Electrical Dark: No (USB2+H05261)
Strobe/Lamp Enabled: No (USB2+H05261)
Correct for Detector Non-linearity: No (USB2+H05261)
Correct for Stray Light: No (USB2+H05261)
Number of Pixels in Processed Spectrum: 2048
>>>>>Begin Processed Spectral Data<<<<<
365.73	135.75
365.92	135.75
366.12	135.75
366.32	25.75
366.52	51.49
366.72	56.17
366.91	0.00
367.11	58.51
367.31	60.85
367.51	37.45
367.70	86.60
367.90	60.85
368.10	77.24
368.30	88.94
368.49	124.05
368.69	77.24
368.89	35.11
369.09	21.06
369.28	60.85
369.48	124.05
369.68	114.69
369.87	133.41
370.07	51.49
370.27	156.82
370.47	140.43
370.66	430.66
370.86	404.91
371.06	521.94
371.25	496.19
371.45	404.91
371.65	503.22
371.84	386.19
372.04	456.40
372.24	461.09
372.44	433.00
372.63	512.58
372.83	512.58
373.03	489.17
373.22	454.06
373.42	519.60
373.62	489.17
373.81	533.64
374.01	491.51
374.21	580.45
374.40	559.39
374.60	559.39
374.79	603.86
374.99	531.30
375.19	470.45
375.38	514.92
375.58	540.66
375.78	578.11
375.97	641.31
376.17	585.13
376.37	624.92
376.56	564.07
376.76	482.15
376.95	533.64
377.15	638.97
377.35	531.30
377.54	601.52
377.74	653.01
377.93	573.43
378.13	624.92
378.33	603.86
378.52	589.82
378.72	678.76
378.91	695.14
379.11	568.75
379.31	660.03
379.50	610.88
379.70	671.73
379.89	706.84
380.09	674.07
380.28	643.65
380.48	662.37
380.68	624.92
380.87	685.78
381.07	681.10
381.26	709.18
381.46	596.84
381.65	676.41
381.85	704.50
382.04	730.25
382.24	765.36
382.43	606.20
382.63	613.22
382.83	688.12
383.02	596.84
383.22	748.97
383.41	816.85
383.61	734.93
383.80	767.70
384.00	777.06
384.19	704.50
384.39	678.76
384.58	718.54
384.78	720.88
384.97	748.97
385.17	774.72
385.36	739.61
385.56	732.59
385.75	734.93
385.95	741.95
386.14	912.81
386.34	847.27
386.53	795.78
386.72	772.38
386.92	791.10
387.11	793.44
387.31	814.51
387.50	849.61
387.70	805.14
387.89	805.14
388.09	851.96
388.28	807.48
388.48	854.30
388.67	922.17
388.86	833.23
389.06	868.34
389.25	842.59
389.45	847.27
389.64	887.06
389.84	952.60
390.03	973.66
390.22	959.62
390.42	905.79
390.61	936.21
390.81	933.87
391.00	959.62
391.19	952.60
391.39	983.02
391.58	961.96
391.78	954.94
391.97	976.00
392.16	898.77
392.36	1020.47
392.55	954.94
392.75	992.39
392.94	966.64
393.13	980.68
393.33	1032.18
393.52	1013.45
393.71	1078.99
393.91	1008.77
394.10	936.21
394.29	1121.12
394.49	973.66
394.68	1137.50
394.88	1139.84
395.07	1158.57
395.26	1097.71
395.46	1102.39
395.65	1167.93
395.84	1214.74
396.04	1203.04
396.23	1144.52
396.42	1100.05
396.62	1053.24
396.81	1160.91
397.00	1191.33
397.19	1214.74
397.39	1214.74
397.58	1287.29
397.77	1296.66
397.97	1303.68
398.16	1231.12
398.35	1369.21
398.55	1268.57
398.74	1331.76
398.93	1362.19
399.12	1387.94
399.32	1308.36
399.51	1390.28
399.70	1369.21
399.90	1282.61
400.09	1348.15
400.28	1430.07
400.47	1451.13
400.67	1469.86
400.86	1392.62
401.05	1486.24
401.24	1488.58
401.44	1544.75
401.63	1479.22
401.82	1509.65
402.01	1413.68
402.21	1542.41
402.40	1535.39
402.59	1439.43
402.78	1535.39
402.97	1565.82
403.17	1633.69
403.36	1589.22
403.55	1687.53
403.74	1694.55
403.93	1586.88
404.13	1638.38
404.32	1582.20
404.51	1619.65
404.70	1764.76
404.89	1771.79
405.09	1724.97
405.28	1699.23
405.47	1685.19
405.66	1825.62
405.85	1839.66
406.05	1776.47
406.24	1802.21
406.43	1851.36
406.62	1879.45
406.81	1968.39
407.00	1818.60
407.20	1790.51
407.39	1870.09
407.58	2005.84
407.77	1940.30
407.96	2005.84
408.15	2008.18
408.34	1944.99
408.54	2038.61
408.73	1956.69
408.92	2090.10
409.11	2097.12
409.30	2071.37
409.49	1996.48
409.68	2012.86
409.87	1952.01
410.07	2062.01
410.26	2008.18
410.45	2165.00
410.64	2307.77
410.83	2179.04
411.02	2179.04
411.21	2218.83
411.40	2312.45
411.59	2335.85
411.78	2275.00
411.98	2321.81
412.17	2373.30
412.36	2218.83
412.55	2457.56
412.74	2441.18
412.93	2548.84
413.12	2448.20
413.31	2602.68
413.50	2450.54
413.69	2562.89
413.88	2654.17
414.07	2574.59
414.26	2583.95
414.45	2663.53
414.64	2621.40
414.83	2715.02
415.02	2661.19
415.22	2715.02
415.41	2825.03
415.60	2682.25
415.79	2794.60
415.98	2883.54
416.17	2829.71
416.36	2951.42
416.55	2810.98
416.74	2932.69
416.93	3002.91
417.12	3091.85
417.31	2892.90
417.50	2991.20
417.69	3061.42
417.88	3066.10
418.07	3073.12
418.26	3131.64
418.45	3183.13
418.64	3110.57
418.83	3220.58
419.02	3148.02
419.21	3260.37
419.39	3239.30
419.58	3103.55
419.77	3159.72
419.96	3269.73
420.15	3229.94
420.34	3279.09
420.53	3246.32
420.72	3403.14
420.91	3386.76
421.10	3538.89
421.29	3499.10
421.48	3386.76
421.67	3508.46
421.86	3454.63
422.05	3459.31
422.24	3400.80
422.43	3363.35
422.61	3487.40
422.80	3559.95
422.99	3510.80
423.18	3574.00
423.37	3555.27
423.56	3468.67
423.75	3480.38
423.94	3356.33
424.13	3321.22
424.32	3426.54
424.50	3543.57
424.69	3543.57
424.88	3702.73
425.07	3548.25
425.26	3578.68
425.45	3583.36
425.64	3466.33
425.83	3492.08
426.01	3545.91
426.20	3695.71
426.39	3681.66
426.58	3578.68
426.77	3637.19
426.96	3510.80
427.15	3700.39
427.33	3630.17
427.52	3555.27
427.71	3641.87
427.90	3789.33
428.09	3737.84
428.28	3838.48
428.46	3749.54
428.65	3833.80
428.84	3871.25
429.03	3836.14
429.22	3749.54
429.40	3742.52
429.59	3892.31
429.78	3630.17
429.97	3625.49
430.16	3789.33
430.34	3691.02
430.53	3911.04
430.72	3983.59
430.91	3939.12
431.10	3838.48
431.28	4138.07
431.47	4126.36
431.66	4264.46
431.85	4021.04
432.03	4189.56
432.22	4257.43
432.41	4163.81
432.60	4203.60
432.79	4224.67
432.97	4177.86
433.16	4393.19
433.35	4161.47
433.54	4257.43
433.72	4182.54
433.91	4301.90
434.10	4477.44
434.28	4292.54
434.47	4358.08
434.66	4578.09
434.85	4470.42
435.03	4493.83
435.22	4390.84
435.41	4580.43
435.59	4615.54
435.78	4514.89
435.97	4617.88
436.16	4533.62
436.34	4547.66
436.53	4704.48
436.72	4702.14
436.90	4594.47
437.09	4751.29
437.28	4524.26
437.46	4685.75
437.65	4636.60
437.84	4795.76
438.02	4833.21
438.21	4643.62
438.40	4697.46
438.58	4800.44
438.77	4854.27
438.96	4868.31
439.14	4992.36
439.33	4903.42
439.52	5125.77
439.70	4964.28
439.89	5198.33
440.08	5018.11
440.26	5203.01
440.45	5277.91
440.63	5345.78
440.82	5261.52
441.01	5291.95
441.19	5256.84
441.38	5523.66
441.57	5528.35
441.75	5518.98
441.94	5575.16
442.12	5809.21
442.31	5607.92
442.50	5701.54
442.68	5556.43
442.87	5701.54
443.05	5860.70
443.24	5767.08
443.43	5806.87
443.61	5727.29
443.80	5849.00
443.98	5652.39
444.17	5741.33
444.35	5727.29
444.54	5989.43
444.73	5846.66
444.91	5830.27
445.10	5757.72
445.28	5727.29
445.47	5879.43
445.65	5849.00
445.84	5825.59
446.02	5841.98
446.21	5804.53
446.39	5790.49
446.58	5968.37
446.77	5942.62
446.95	5895.81
447.14	6094.76
447.32	6090.07
447.51	5891.13
447.69	5926.24
447.88	5963.68
448.06	6061.99
448.25	5996.45
448.43	6038.58
448.62	5951.98
448.80	6040.92
448.99	6136.88
449.17	6282.00
449.36	6141.57
449.54	6153.27
449.73	6312.42
449.91	6396.68
450.10	6476.26
450.28	6195.40
450.46	6438.81
450.65	6368.60
450.83	6387.32
451.02	6333.49
451.20	6607.33
451.39	6459.88
451.57	6392.00
451.76	6410.73
451.94	6296.04
452.13	6626.06
452.31	6654.14
452.49	6499.67
452.68	6581.59
452.86	6462.22
453.05	6616.69
453.23	6724.36
453.42	6541.80
453.60	6677.55
453.78	6583.93
453.97	6672.87
454.15	6452.86
454.34	6724.36
454.52	6782.87
454.70	6679.89
454.89	6803.94
455.07	6881.18
455.26	6841.39
455.44	7005.22
455.62	7030.97
455.81	7108.21
455.99	7056.72
456.17	6984.16
456.36	7192.47
456.54	7260.34
456.73	7101.19
456.91	7522.48
457.09	7419.50
457.28	7325.88
457.46	7157.36
457.64	7286.09
457.83	7239.28
458.01	7246.30
458.19	7459.29
458.38	7255.66
458.56	7332.90
458.74	7440.56
458.93	7417.16
459.11	7342.26
459.29	7391.41
459.48	7459.29
459.66	7466.31
459.84	7510.78
460.03	7541.21
460.21	7606.74
460.39	7812.71
460.57	7791.64
460.76	7772.92
460.94	7602.06
461.12	7810.37
461.31	7911.01
461.49	7796.32
461.67	7829.09
461.85	7911.01
462.04	7936.76
462.22	8432.95
462.40	7943.78
462.59	7768.24
462.77	7784.62
462.95	8248.05
463.13	8175.49
463.32	8035.06
463.50	8088.89
463.68	8245.71
463.86	8234.00
464.05	8058.46
464.23	7962.50
464.41	8217.62
464.59	8058.46
464.78	8259.75
464.96	8245.71
465.14	8095.91
465.32	8355.71
465.50	8404.86
465.69	8449.33
465.87	8376.78
466.05	8365.07
466.23	8542.96
466.41	8451.67
466.60	8500.83
466.78	8461.04
466.96	8353.37
467.14	8519.55
467.32	8505.51
467.51	8629.56
467.69	8344.01
467.87	8603.81
468.05	8699.77
468.23	8557.00
468.41	8657.64
468.60	8505.51
468.78	8461.04
468.96	8601.47
469.14	8877.65
469.32	8903.40
469.50	8650.62
469.69	8940.85
469.87	8835.52
470.05	8875.31
470.23	8943.19
470.41	8936.17
470.59	8903.40
470.77	9074.26
470.95	9151.49
471.14	9301.29
471.32	9111.71
471.50	9200.65
471.68	9338.74
471.86	9549.39
472.04	9537.68
472.22	9502.58
472.40	9533.00
472.58	9413.63
472.77	9343.42
472.95	9638.33
473.13	10080.69
473.31	9439.38
473.49	9511.94
473.67	9661.73
473.85	9612.58
474.03	9989.41
474.21	9968.34
474.39	10134.52
474.57	10083.03
474.75	10111.11
474.93	10328.78
475.12	10022.17
475.30	10387.30
475.48	10246.87
475.66	10281.97
475.84	10232.82
476.02	10572.20
476.20	10387.30
476.38	10696.25
476.56	10860.09
476.74	10895.19
476.92	10874.13
477.10	10710.29
477.28	11019.24
477.46	11105.84
477.64	11098.82
477.82	11431.18
478.00	11468.62
478.18	11613.74
478.36	11314.15
478.54	11641.82
478.72	11496.71
478.90	11726.08
479.08	11868.86
479.26	12053.76
479.44	11950.78
479.62	11894.60
479.80	12116.95
479.98	12044.40
480.16	12353.35
480.34	12435.27
480.52	12524.21
480.70	12613.15
480.88	12292.49
481.06	12645.91
481.24	12645.91
481.41	13013.38
481.59	13163.17
481.77	13355.10
481.95	13116.36
482.13	13275.52
482.31	13198.28
482.49	13664.05
482.67	13734.26
482.85	13757.67
483.03	14036.19
483.21	13958.96
483.39	14043.21
483.57	14139.18
483.74	14188.33
483.92	14368.55
484.10	14160.24
484.28	14501.96
484.46	14871.76
484.64	14824.95
484.82	14621.33
485.00	14733.67
485.18	15339.87
485.35	15089.43
485.53	15068.37
485.71	14986.45
485.89	15599.67
486.07	15449.88
486.25	15503.71
486.43	15641.80
486.61	15611.37
486.78	15997.56
486.96	15929.69
487.14	16322.90
487.32	16423.54
487.50	16222.25
487.68	16552.27
487.85	16886.97
488.03	17053.14
488.21	17057.82
488.39	16858.88
488.57	17090.59
488.75	17048.46
488.92	17467.42
489.10	17624.23
489.28	17933.18
489.46	17877.01
489.64	18008.08
489.81	18377.89
489.99	18820.25
490.17	18422.36
490.35	18970.04
490.53	18892.80
490.70	18785.14
490.88	18771.10
491.06	18967.70
491.24	19171.33
491.41	19194.73
491.59	19417.08
491.77	18972.38
491.95	19559.86
492.13	19782.21
492.30	19810.29
492.48	19812.63
492.66	20219.89
492.84	19836.04
493.01	20507.77
493.19	20332.23
493.37	20430.54
493.54	20634.16
493.72	20683.31
493.90	20741.83
494.08	21060.14
494.25	21046.10
494.43	21443.99
494.61	21434.63
494.79	21371.43
494.96	21336.32
495.14	21694.43
495.32	21745.92
495.49	21972.95
495.67	22132.11
495.85	22712.56
496.02	22340.41
496.20	22628.30
496.38	22532.34
496.55	22635.32
496.73	23068.32
496.91	22726.60
497.09	22801.50
497.26	23000.44
497.44	23426.42
497.62	23044.91
497.79	23601.96
497.97	23339.82
498.14	23510.68
498.32	23590.26
498.50	23878.15
498.67	23850.06
498.85	23875.80
499.03	24397.74
499.20	24105.18
499.38	24285.40
499.56	24390.72
499.73	24299.44
499.91	24819.04
500.08	24903.30
500.26	24409.45
500.44	24723.08
500.61	25149.06
500.79	24489.03
500.97	24917.34
501.14	25273.10
501.32	25352.68
501.49	25240.34
501.67	25256.72
501.84	25462.69
502.02	25603.12
502.20	25797.38
502.37	25593.76
502.55	25942.50
502.72	26036.12
502.90	26373.16
503.07	25832.49
503.25	26143.78
503.43	26164.85
503.60	26202.30
503.78	26288.90
503.95	25972.92
504.13	26401.24
504.30	26555.72
504.48	26576.78
504.65	26745.30
504.83	27030.85
505.01	26740.62
505.18	27166.60
505.36	27232.13
505.53	27262.56
505.71	27604.28
505.88	27871.10
506.06	27651.09
506.23	27498.95
506.41	27608.96
506.58	27623.00
506.76	27807.90
506.93	28149.62
507.11	27779.82
507.28	27955.36
507.46	28112.17
507.63	28217.50
507.81	28210.48
507.98	27889.82
508.16	28215.16
508.33	28493.68
508.50	28528.79
508.68	28788.59
508.85	29216.91
509.03	28861.15
509.20	28840.08
509.38	29060.09
509.55	28985.19
509.73	29282.44
509.90	29312.87
510.08	29240.31
510.25	29422.87
510.42	29209.89
510.60	29502.45
510.77	29558.63
510.95	30129.72
511.12	29832.47
511.30	29617.14
511.47	30286.53
511.64	30265.47
511.82	30059.50
511.99	29773.95
512.17	29923.75
512.34	30146.10
512.51	30436.33
512.69	30670.38
512.86	30855.28
513.04	30764.00
513.21	31035.50
513.38	30433.99
513.56	30742.94
513.73	30888.05
513.90	31105.72
514.08	31019.12
514.25	31154.87
514.43	31257.85
514.60	31009.76
514.77	31199.34
514.95	31578.51
515.12	31335.09
515.29	31316.37
515.47	32128.53
515.64	31796.18
515.81	31508.29
515.99	31683.83
516.16	31990.44
516.33	31931.93
516.51	31744.69
516.68	31250.83
516.85	31847.67
517.03	31931.93
517.20	31941.29
517.37	32280.67
517.54	32203.43
517.72	32299.39
517.89	32404.72
518.06	31679.15
518.24	32430.46
518.41	32332.16
518.58	32226.84
518.75	32542.81
518.93	33165.39
519.10	33048.36
519.27	32488.98
519.45	32563.87
519.62	33200.50
519.79	33315.19
519.96	33635.84
520.14	33514.13
520.31	33303.48
520.48	33205.18
520.65	33668.61
520.83	34087.56
521.00	33841.81
521.17	33724.78
521.34	33741.16
521.52	34059.48
521.69	34089.90
521.86	33975.22
522.03	33916.70
522.20	34417.58
522.38	34473.75
522.55	34497.16
522.72	34082.88
522.89	34270.12
523.07	34178.84
523.24	34146.08
523.41	34579.07
523.58	34653.97
523.75	34614.18
523.92	34930.16
524.10	34609.50
524.27	34712.49
524.44	35496.56
524.61	35044.84
524.78	35093.99
524.96	35557.42
525.13	35262.51
525.30	35365.49
525.47	35505.93
525.64	35250.81
525.81	35662.74
525.98	35328.05
526.16	35585.50
526.33	35807.86
526.50	35892.12
526.67	35599.55
526.84	35690.83
527.01	35770.41
527.18	35480.18
527.36	35959.99
527.53	36205.75
527.70	36774.50
527.87	36238.51
528.04	36570.87
528.21	36683.22
528.38	36329.80
528.55	36589.59
528.72	36641.09
528.89	36957.06
529.07	36388.31
529.24	36500.65
529.41	36561.51
529.58	36594.28
529.75	36814.29
529.92	36840.03
530.09	36893.86
530.26	37069.40
530.43	36774.50
530.60	37038.98
530.77	37214.52
530.94	37167.71
531.11	37251.97
531.28	37081.11
531.46	37481.34
531.63	37603.05
531.80	37205.16
531.97	37516.45
532.14	37860.51
532.31	37249.63
532.48	37324.52
532.65	37584.32
532.82	37778.59
532.99	37963.49
533.16	37350.27
533.33	37581.98
533.50	38370.74
533.67	38103.92
533.84	37778.59
534.01	38312.23
534.18	37476.66
534.35	38157.75
534.52	38178.82
534.69	38323.93
534.86	38307.55
535.03	37996.26
535.20	38522.88
535.37	38501.81
535.54	38614.16
535.71	38426.92
535.88	38361.38
536.05	38349.68
536.22	38976.94
536.38	38909.07
536.55	38429.26
536.72	38911.41
536.89	38731.18
537.06	38930.13
537.23	38927.79
537.40	38431.60
537.57	39014.39
537.74	39194.61
537.91	39517.60
538.08	39239.08
538.25	39250.78
538.42	39145.46
538.59	39161.84
538.75	38920.77
538.92	39218.02
539.09	39533.99
539.26	39550.37
539.43	39461.43
539.60	39754.00
539.77	39227.38
539.94	39754.00
540.11	39470.79
540.28	39304.62
540.44	39725.91
540.61	39648.68
540.78	39559.73
540.95	39793.79
541.12	39620.59
541.29	39456.75
541.46	39988.05
541.62	39421.64
541.79	40456.16
541.96	39732.93
542.13	40158.91
542.30	40177.64
542.47	39789.11
542.63	40184.66
542.80	40547.44
542.97	40643.40
543.14	40790.86
543.31	40811.92
543.48	40830.65
543.64	41013.21
543.81	41092.79
543.98	40596.59
544.15	40652.76
544.32	40645.74
544.48	41373.65
544.65	40793.20
544.82	40645.74
544.99	40760.43
545.16	40907.88
545.32	41134.92
545.49	41170.02
545.66	41188.75
545.83	41511.74
546.00	41455.57
546.16	41179.39
546.33	40947.67
546.50	40851.71
546.67	41177.04
546.83	41092.79
547.00	41514.08
547.17	41177.04
547.34	41364.29
547.50	41741.11
547.67	41476.63
547.84	41448.55
548.00	41911.97
548.17	41776.22
548.34	41422.80
548.51	41759.84
548.67	41818.35
548.84	42038.36
549.01	41331.52
549.18	41523.44
549.34	42057.09
549.51	41759.84
549.68	42190.50
549.84	41886.23
550.01	42445.62
550.18	41565.57
550.34	42391.78
550.51	41776.22
550.68	41984.53
550.84	42195.18
551.01	42328.59
551.18	41769.20
551.34	42356.67
551.51	42377.74
551.68	42293.48
551.84	42405.83
552.01	42319.23
552.18	42061.77
552.34	42232.63
552.51	42429.23
552.68	42300.50
552.84	42787.33
553.01	42962.87
553.18	42990.96
553.34	42899.68
553.51	42532.22
553.67	42476.04
553.84	42857.55
554.01	42749.88
554.17	42808.40
554.34	43269.48
554.51	42897.34
554.67	42808.40
554.84	42752.23
555.00	42948.83
555.17	42564.98
555.33	43103.31
555.50	43021.39
555.67	42803.72
555.83	43283.53
556.00	43093.94
556.16	43309.27
556.33	43578.43
556.50	42897.34
556.66	43063.52
556.83	42962.87
556.99	42981.60
557.16	43187.56
557.32	43271.82
557.49	43220.33
557.65	43082.24
557.82	43119.69
557.98	43426.30
558.15	43222.67
558.32	43487.15
558.48	43292.89
558.65	43735.25
558.81	43442.68
558.98	43587.80
559.14	43311.61
559.31	43168.84
559.47	43768.02
559.64	43995.05
559.80	43913.13
559.97	43384.17
560.13	43386.51
560.30	43826.53
560.46	43262.46
560.63	43540.99
560.79	43995.05
560.96	44196.34
561.12	43407.58
561.29	43854.62
561.45	43363.11
561.61	43648.65
561.78	43695.46
561.94	43529.28
562.11	43590.14
562.27	43440.34
562.44	43927.17
562.60	43992.71
562.77	44184.63
562.93	43700.14
563.10	44144.84
563.26	43414.60
563.42	43955.26
563.59	43583.12
563.75	44067.61
563.92	44332.09
564.08	43620.56
564.24	44383.58
564.41	44079.31
564.57	43447.36
564.74	44198.68
564.90	44451.45
565.07	44353.15
565.23	44374.22
565.39	44257.19
565.56	44289.96
565.72	44135.48
565.88	44114.42
566.05	44025.48
566.21	44327.41
566.38	43871.00
566.54	44006.75
566.70	44374.22
566.87	44388.26
567.03	44208.04
567.19	44507.63
567.36	44189.31
567.52	43927.17
567.68	44949.99
567.85	44444.43
568.01	44463.16
568.17	44500.61
568.34	44634.02
568.50	44449.11
568.66	44147.18
568.83	44554.44
568.99	44140.16
569.15	44573.16
569.32	44114.42
569.48	44477.20
569.64	44315.70
569.81	44112.08
569.97	44009.09
570.13	44116.76
570.30	44273.57
570.46	44231.44
570.62	44048.88
570.78	44580.18
570.95	44273.57
571.11	44587.21
571.27	44666.78
571.43	44449.11
571.60	44664.44
571.76	44406.98
571.92	44311.02
572.09	44477.20
572.25	44692.53
572.41	44423.37
572.57	44842.32
572.74	45155.96
572.90	44589.55
573.06	44765.09
573.22	44718.28
573.38	45001.48
573.55	44105.06
573.71	44697.21
573.87	44547.42
574.03	44240.81
574.20	44577.84
574.36	44500.61
574.52	44814.24
574.68	44940.63
574.84	44762.75
575.01	44507.63
575.17	44622.31
575.33	44416.35
575.49	44222.08
575.65	45212.13
575.82	45347.88
575.98	44636.36
576.14	44765.09
576.30	44865.73
576.46	44582.52
576.62	44638.70
576.79	44825.94
576.95	44285.28
577.11	44657.42
577.27	44535.71
577.43	44603.59
577.59	44619.97
577.75	44612.95
577.92	44275.91
578.08	44432.73
578.24	44830.62
578.40	44713.59
578.56	44694.87
578.72	44877.43
578.88	44519.33
579.04	44634.02
579.21	44318.04
579.37	44521.67
579.53	44671.46
579.69	44528.69
579.85	44360.17
580.01	44746.36
580.17	44790.83
580.33	44830.62
580.49	44893.82
580.65	44987.44
580.82	44933.60
580.98	44481.88
581.14	44528.69
581.30	44814.24
581.46	44788.49
581.62	44516.99
581.78	44634.02
581.94	45352.56
582.10	44863.39
582.26	44858.71
582.42	45085.74
582.58	44945.31
582.74	44830.62
582.90	44790.83
583.06	45031.91
583.22	45275.32
583.38	45029.57
583.54	44781.47
583.70	44849.35
583.86	45141.91
584.02	44828.28
584.18	44914.88
584.34	44928.92
584.50	44844.66
584.66	45167.66
584.82	44753.38
584.98	45116.17
585.14	44692.53
585.30	44713.59
585.46	44886.79
585.62	44847.00
585.78	44851.69
585.94	44367.20
586.10	44713.59
586.26	45048.29
586.42	45043.61
586.58	45067.02
586.74	44804.88
586.90	44868.07
587.06	44978.07
587.22	44933.60
587.38	45045.95
587.54	45289.37
587.70	45083.40
587.86	45521.08
588.02	45097.44
588.18	45287.03
588.34	44879.77
588.49	44570.82
588.65	44914.88
588.81	44301.66
588.97	44828.28
589.13	44676.15
589.29	44776.79
589.45	44765.09
589.61	45024.89
589.77	44760.40
589.93	45535.12
590.08	45202.77
590.24	45200.43
590.40	45401.71
590.56	45127.87
590.72	45254.26
590.88	44825.94
591.04	45425.12
591.20	45624.06
591.35	45085.74
591.51	45467.25
591.67	44940.63
591.83	45006.16
591.99	44968.71
592.15	44800.19
592.31	44999.14
592.46	44774.45
592.62	45237.87
592.78	45088.08
592.94	45462.57
593.10	45298.73
593.26	45525.76
593.41	44676.15
593.57	45123.19
593.73	45174.68
593.89	45455.54
594.05	45134.89
594.20	44931.26
594.36	45177.02
594.52	44917.22
594.68	45198.09
594.84	44933.60
594.99	45717.68
595.15	45235.53
595.31	45553.85
595.47	45661.51
595.62	45497.67
595.78	45102.12
595.94	45057.65
596.10	45607.68
596.25	45471.93
596.41	45525.76
596.57	45067.02
596.73	45504.70
596.88	45202.77
597.04	45191.06
597.20	45221.49
597.36	45525.76
597.51	45652.15
597.67	45567.89
597.83	45642.79
597.99	45244.90
598.14	45221.49
598.30	45591.30
598.46	45076.38
598.61	45511.72
598.77	45186.38
598.93	45212.13
599.09	45310.43
599.24	45474.27
599.40	45631.08
599.56	45350.22
599.71	45120.85
599.87	45237.87
600.03	44947.65
600.18	45177.02
600.34	45544.48
600.50	45439.16
600.65	45390.01
600.81	45427.46
600.97	45734.07
601.12	45921.31
601.28	45577.25
601.44	45436.82
601.59	45184.04
601.75	45097.44
601.91	45380.65
602.06	45200.43
602.22	45333.84
602.37	45490.65
602.53	45024.89
602.69	45301.07
602.84	45673.21
603.00	45265.96
603.16	45200.43
603.31	45181.70
603.47	45041.27
603.62	45574.91
603.78	45305.75
603.94	45251.92
604.09	45415.76
604.25	45617.04
604.40	44891.48
604.56	45209.79
604.71	45268.30
604.87	44865.73
605.03	45170.00
605.18	44973.39
605.34	45268.30
605.49	45104.46
605.65	45141.91
605.80	44814.24
605.96	45521.08
606.12	45570.23
606.27	45174.68
606.43	44961.69
606.58	45390.01
606.74	44769.77
606.89	44858.71
607.05	45361.92
607.20	45195.74
607.36	44942.97
607.51	45794.92
607.67	45022.54
607.82	45516.40
607.98	44788.49
608.13	45062.33
608.29	44828.28
608.44	44814.24
608.60	44465.50
608.75	44767.43
608.91	44861.05
609.06	44652.74
609.22	45223.83
609.37	44577.84
609.53	44905.52
609.68	44828.28
609.84	44563.80
609.99	44680.83
610.15	44617.63
610.30	44737.00
610.46	44437.41
610.61	44884.45
610.76	44821.26
610.92	44449.11
611.07	44671.46
611.23	44376.56
611.38	44748.70
611.54	44615.29
611.69	44500.61
611.84	44282.94
612.00	44718.28
612.15	44392.94
612.31	44671.46
612.46	44411.67
612.62	44776.79
612.77	44423.37
612.92	44638.70
613.08	44575.50
613.23	44334.43
613.39	44163.57
613.54	44067.61
613.69	44299.32
613.85	44414.01
614.00	44598.91
614.15	44402.30
614.31	44406.98
614.46	44524.01
614.62	44088.67
614.77	44477.20
614.92	44524.01
615.08	44357.83
615.23	44020.80
615.38	44287.62
615.54	44126.12
615.69	44100.37
615.84	44233.78
616.00	44222.08
616.15	44397.62
616.30	44058.24
616.46	43819.51
616.61	43728.23
616.76	44074.63
616.92	43587.80
617.07	43920.15
617.22	43812.49
617.37	43597.16
617.53	44135.48
617.68	43737.59
617.83	44105.06
617.99	43449.70
618.14	43903.77
618.29	43922.49
618.45	43660.35
618.60	43697.80
618.75	43676.74
618.90	43271.82
619.06	43538.65
619.21	43807.81
619.36	44086.33
619.51	43491.83
619.67	43384.17
619.82	43517.58
619.97	43875.68
620.12	43243.74
620.28	43533.96
620.43	43058.84
620.58	43538.65
620.73	43222.67
620.89	43187.56
621.04	43641.63
621.19	43445.02
621.34	43105.65
621.49	42667.97
621.65	42939.47
621.80	43089.26
621.95	42958.19
622.10	43154.80
622.25	43117.35
622.41	43044.79
622.56	42768.61
622.71	43096.28
622.86	43283.53
623.01	43580.78
623.16	43398.21
623.32	42749.88
623.47	43320.98
623.62	43445.02
623.77	42717.12
623.92	43246.08
624.07	42204.54
624.23	42904.36
624.38	42965.21
624.53	43269.48
624.68	42653.92
624.83	42707.76
624.98	42738.18
625.13	42752.23
625.29	42794.36
625.44	42412.85
625.59	42653.92
625.74	42536.90
625.89	42249.01
626.04	42148.37
626.19	42494.77
626.34	42490.09
626.49	42602.43
626.65	42272.42
626.80	42553.28
626.95	42302.84
627.10	42588.39
627.25	41958.78
627.40	42316.89
627.55	42124.96
627.70	41808.99
627.85	41954.10
628.00	41916.65
628.15	41933.04
628.30	41909.63
628.45	42363.70
628.60	42335.61
628.76	42115.60
628.91	42108.58
629.06	42071.13
629.21	42120.28
629.36	41645.15
629.51	41647.49
629.66	41567.91
629.81	41914.31
629.96	41507.06
630.11	42174.11
630.26	41792.61
630.41	41914.31
630.56	41441.53
630.71	41226.20
630.86	41631.11
631.01	41771.54
631.16	41876.86
631.31	41228.54
631.46	40992.14
631.61	41078.74
631.76	41354.93
631.91	41790.27
632.06	41265.99
632.21	41375.99
632.36	41343.22
632.51	41469.61
632.66	41397.06
632.81	40905.54
632.96	41483.66
633.10	40765.11
633.25	41003.85
633.40	40992.14
633.55	41244.92
633.70	41043.63
633.85	41282.37
634.00	41104.49
634.15	41312.80
634.30	41565.57
634.45	41146.62
634.60	41038.95
634.75	41216.83
634.90	40999.16
635.05	41017.89
635.19	41181.73
635.34	41109.17
635.49	40863.41
635.64	40645.74
635.79	40423.39
635.94	40753.41
636.09	40849.37
636.24	40598.93
636.39	40275.94
636.53	40552.12
636.68	40343.81
636.83	40514.67
636.98	40823.62
637.13	40149.55
637.28	40463.18
637.43	40842.35
637.57	40964.06
637.72	40868.09
637.87	40568.51
638.02	40385.94
638.17	40360.20
638.32	40446.80
638.46	40238.49
638.61	40584.89
638.76	40325.09
638.91	40350.84
639.06	40098.06
639.20	40456.16
639.35	40383.60
639.50	40030.18
639.65	40116.78
639.80	40687.87
639.94	40079.33
640.09	40030.18
640.24	39742.30
640.39	39681.44
640.54	39555.05
640.68	40086.36
640.83	39999.76
640.98	39686.12
641.13	39840.60
641.27	40252.53
641.42	39742.30
641.57	40369.56
641.72	39845.28
641.86	39508.24
642.01	39313.98
642.16	39304.62
642.31	39117.37
642.45	39646.33
642.60	39042.48
642.75	39604.20
642.90	39679.10
643.04	39768.04
643.19	39466.11
643.34	39356.11
643.48	39599.52
643.63	39208.65
643.78	39129.08
643.93	39665.06
644.07	39089.29
644.22	39271.85
644.37	38937.15
644.51	39185.25
644.66	39129.08
644.81	39194.61
644.95	39519.95
645.10	39852.30
645.25	39643.99
645.39	39807.83
645.54	39328.02
645.69	38990.98
645.83	38651.61
645.98	39049.50
646.13	38923.11
646.27	38892.68
646.42	38593.09
646.57	38773.31
646.71	38677.35
646.86	39079.92
647.00	39299.94
647.15	39290.57
647.30	39154.82
647.44	38864.60
647.59	38831.83
647.74	38813.10
647.88	38696.08
648.03	38337.98
648.17	38286.48
648.32	38841.19
648.47	38710.12
648.61	38763.95
648.76	38768.63
648.90	38714.80
649.05	38670.33
649.20	38588.41
649.34	38780.34
649.49	38569.69
649.63	38513.52
649.78	38529.90
649.92	38256.06
650.07	38794.38
650.21	37984.55
650.36	38384.79
650.51	38263.08
650.65	38902.04
650.80	38660.97
650.94	38506.49
651.09	38838.85
651.23	38120.31
651.38	38059.45
651.52	38092.22
651.67	38258.40
651.81	38286.48
651.96	37996.26
652.10	37944.76
652.25	37748.16
652.39	37797.31
652.54	38117.96
652.68	38321.59
652.83	38373.08
652.97	38199.88
653.12	37876.89
653.26	37549.21
653.41	37837.10
653.55	37773.91
653.70	37968.17
653.84	38288.82
653.99	37984.55
654.13	37897.95
654.27	37654.54
654.42	37841.78
654.56	37801.99
654.71	37904.98
654.85	37832.42
655.00	37600.71
655.14	37071.75
655.29	37202.82
655.43	37163.03
655.57	37191.11
655.72	37385.38
655.86	36783.86
656.01	37139.62
656.15	37067.06
656.30	37284.73
656.44	36753.43
656.58	37216.86
656.73	36807.26
656.87	37673.26
657.01	36989.83
657.16	36830.67
657.30	36715.98
657.45	36758.11
657.59	36821.31
657.73	36765.14
657.88	37291.76
658.02	36961.74
658.16	36924.29
658.31	36875.14
658.45	37010.89
658.60	36510.02
658.74	37282.39
658.88	36737.05
659.03	36783.86
659.17	36517.04
659.31	36676.19
659.46	36348.52
659.60	36491.29
659.74	36554.49
659.89	36088.72
660.03	36460.87
660.17	36512.36
660.32	36561.51
660.46	36676.19
660.60	36250.22
660.74	36397.67
660.89	36142.55
661.03	36332.14
661.17	35824.24
661.32	35629.98
661.46	35763.39
661.60	35695.51
661.74	35922.54
661.89	35828.92
662.03	35704.87
662.17	35730.62
662.31	35585.50
662.46	35452.09
662.60	35934.24
662.74	35997.44
662.88	35236.77
663.03	35232.08
663.17	35784.45
663.31	34637.59
663.45	35363.15
663.60	35257.83
663.74	35466.14
663.88	35019.10
664.02	34794.40
664.17	35618.27
664.31	34586.10
664.45	35014.41
664.59	35360.81
664.73	35246.13
664.88	34998.03
665.02	34724.19
665.16	34408.22
665.30	34565.03
665.44	34595.46
665.59	34417.58
665.73	34260.76
665.87	34031.39
666.01	34593.12
666.15	34178.84
666.29	34286.51
666.44	34600.14
666.58	34508.86
666.72	34146.08
666.86	34169.48
667.00	34279.49
667.14	34085.22
667.28	33778.61
667.43	33860.53
667.57	33689.67
667.71	34199.91
667.85	33617.11
667.99	34078.20
668.13	33354.97
668.27	33230.93
668.41	33961.17
668.56	33177.09
668.70	33532.86
668.84	33109.22
668.98	33392.42
669.12	33310.50
669.26	33235.61
669.40	32985.17
669.54	32816.65
669.68	33181.77
669.82	33041.34
669.96	32807.29
670.10	32493.66
670.25	32807.29
670.39	33200.50
670.53	33354.97
670.67	32444.51
670.81	32673.88
670.95	32467.91
671.09	32800.27
671.23	32947.72
671.37	32547.49
671.51	32320.46
671.65	32505.36
671.79	32105.13
671.93	32226.84
672.07	32556.85
672.21	32088.74
672.35	31922.57
672.49	31999.80
672.63	32236.20
672.77	31857.03
672.91	31714.26
673.05	31700.22
673.19	31908.52
673.33	31538.72
673.47	31622.98
673.61	31063.59
673.75	30906.77
673.89	31297.64
674.03	30904.43
674.17	31016.78
674.31	31016.78
674.45	31129.12
674.59	30932.52
674.73	31363.18
674.87	31133.81
675.01	31047.21
675.15	30724.21
675.29	30834.22
675.43	30969.97
675.56	30614.21
675.70	30686.76
675.84	30230.36
675.98	29483.73
676.12	30263.13
676.26	30190.57
676.40	30225.68
676.54	29757.57
676.68	29661.61
676.82	29603.10
676.96	29553.94
677.10	29998.65
677.23	29317.55
677.37	29275.42
677.51	29467.34
677.65	28996.90
677.79	28973.49
677.93	29390.11
678.07	29373.72
678.21	29137.33
678.34	28863.49
678.48	28304.10
678.62	28737.10
678.76	28533.47
678.90	28657.52
679.04	28261.97
679.18	28332.18
679.31	27964.72
679.45	27913.23
679.59	28030.26
679.73	27864.08
679.87	27985.79
680.00	27662.79
680.14	27896.85
680.28	27770.46
680.42	27695.56
680.56	27426.40
680.70	27122.13
680.83	27271.92
680.97	27016.80
681.11	27068.30
681.25	26925.52
681.39	26984.04
681.52	26789.77
681.66	27147.87
681.80	26845.94
681.94	26586.15
682.07	26623.59
682.21	26567.42
682.35	26391.88
682.49	26717.22
682.62	26625.93
682.76	26232.72
682.90	26136.76
683.04	25862.92
683.17	25907.39
683.31	25881.64
683.45	25832.49
683.59	25769.30
683.72	25476.73
683.86	25249.70
684.00	25443.96
684.13	25628.87
684.27	25486.09
684.41	25174.80
684.55	24779.25
684.68	24989.90
684.82	24915.00
684.96	24982.88
685.09	24805.00
685.23	24592.01
685.37	24828.40
685.50	24514.77
685.64	24474.98
685.78	24390.72
685.91	24357.96
686.05	23983.47
686.19	24079.43
686.32	23992.83
686.46	23843.04
686.60	23447.49
686.73	23875.80
686.87	23620.69
687.01	23316.42
687.14	23147.90
687.28	23175.98
687.42	23295.35
687.55	22913.84
687.69	23051.94
687.82	22948.95
687.96	22822.56
688.10	22878.74
688.23	22773.41
688.37	22333.39
688.50	22583.83
688.64	22403.61
688.78	22574.47
688.91	22104.02
689.05	22136.79
689.18	21923.80
689.32	21675.70
689.46	21846.56
689.59	22321.69
689.73	22305.31
689.86	21675.70
690.00	21919.12
690.13	21926.14
690.27	21561.02
690.41	21706.13
690.54	21088.23
690.68	21249.72
690.81	21062.48
690.95	21081.21
691.08	20877.58
691.22	20992.26
691.35	20915.03
691.49	21209.93
691.62	20975.88
691.76	21003.97
691.89	20847.15
692.03	20521.82
692.16	20332.23
692.30	20528.84
692.43	20257.34
692.57	20287.76
692.70	20044.35
692.84	20034.99
692.97	20032.65
693.11	19917.96
693.24	19873.49
693.38	19618.37
693.51	19157.28
693.65	19733.06
693.78	19515.39
693.92	19683.91
694.05	19227.50
694.19	19381.98
694.32	19180.69
694.45	19290.70
694.59	19122.18
694.72	19185.37
694.86	18937.27
694.99	18717.26
695.13	18586.19
695.26	18300.65
695.39	18127.45
695.53	18436.40
695.66	18396.61
695.80	18494.91
695.93	18188.30
696.07	18057.23
696.20	18345.12
696.33	18167.24
696.47	17757.64
696.60	18019.78
696.73	17961.27
696.87	17586.79
697.00	17600.83
697.14	17832.54
697.27	17701.47
697.40	17451.03
697.54	17252.09
697.67	17174.85
697.80	17399.54
697.94	17092.93
698.07	17062.51
698.21	16905.69
698.34	16989.95
698.47	16837.81
698.61	16636.53
698.74	16692.70
698.87	16744.19
699.01	16329.92
699.14	16353.32
699.27	16355.66
699.40	16325.24
699.54	16027.99
699.67	16095.86
699.80	16358.00
699.94	16292.47
700.07	16006.92
700.20	15978.84
700.34	15740.10
700.47	15871.17
700.60	15728.40
700.73	15941.39
700.87	15763.51
701.00	15374.98
701.13	15412.43
701.26	15508.39
701.40	15499.03
701.53	15236.89
701.66	15218.16
701.79	14806.23
701.93	15084.75
702.06	14792.19
702.19	14803.89
702.32	14970.07
702.46	14923.26
702.59	14846.02
702.72	14642.39
702.85	14661.12
702.99	14839.00
703.12	14799.21
703.25	14452.81
703.38	14370.89
703.51	14436.42
703.65	14420.04
703.78	14195.35
703.91	13785.76
704.04	14281.95
704.17	13947.25
704.31	14162.58
704.44	13884.06
704.57	13654.69
704.70	13848.95
704.83	13998.74
704.96	13781.07
705.10	13762.35
705.23	13778.73
>>>>>End Processed Spectral Data<<<<<
