SpectraSuite Data File
++++++++++++++++++++++++++++++++++++
Date: Fri Oct 25 10:47:16 EDT 2013
User: price-jones
Dark Spectrum Present: No
Reference Spectrum Present: No
Number of Sampled Component Spectra: 1
Spectrometers: USB2+H05261
Integration Time (usec): 100000 (USB2+H05261)
Spectra Averaged: 1 (USB2+H05261)
Boxcar Smoothing: 0 (USB2+H05261)
Correct for Electrical Dark: No (USB2+H05261)
Strobe/Lamp Enabled: No (USB2+H05261)
Correct for Detector Non-linearity: No (USB2+H05261)
Correct for Stray Light: No (USB2+H05261)
Number of Pixels in Processed Spectrum: 2048
>>>>>Begin Processed Spectral Data<<<<<
365.73	138.09
365.92	138.09
366.12	138.09
366.32	105.32
366.52	79.58
366.72	0.00
366.91	0.00
367.11	39.79
367.31	35.11
367.51	44.47
367.70	49.15
367.90	49.15
368.10	0.00
368.30	56.17
368.49	53.83
368.69	16.38
368.89	21.06
369.09	25.75
369.28	51.49
369.48	86.60
369.68	79.58
369.87	102.98
370.07	46.81
370.27	168.52
370.47	203.63
370.66	376.83
370.86	393.21
371.06	475.13
371.25	435.34
371.45	372.15
371.65	493.85
371.84	400.23
372.04	425.98
372.24	449.38
372.44	552.37
372.63	444.70
372.83	559.39
373.03	498.53
373.22	456.40
373.42	477.47
373.62	468.11
373.81	533.64
374.01	538.32
374.21	566.41
374.40	493.85
374.60	617.90
374.79	500.87
374.99	573.43
375.19	613.22
375.38	660.03
375.58	587.47
375.78	533.64
375.97	573.43
376.17	578.11
376.37	620.24
376.56	521.94
376.76	557.05
376.95	543.00
377.15	603.86
377.35	524.28
377.54	671.73
377.74	538.32
377.93	594.50
378.13	631.94
378.33	613.22
378.52	596.84
378.72	650.67
378.91	620.24
379.11	512.58
379.31	524.28
379.50	587.47
379.70	688.12
379.89	629.60
380.09	664.71
380.28	587.47
380.48	657.69
380.68	636.63
380.87	650.67
381.07	755.99
381.26	657.69
381.46	638.97
381.65	683.44
381.85	692.80
382.04	660.03
382.24	685.78
382.43	620.24
382.63	685.78
382.83	674.07
383.02	692.80
383.22	674.07
383.41	671.73
383.61	732.59
383.80	678.76
384.00	697.48
384.19	755.99
384.39	734.93
384.58	753.65
384.78	744.29
384.97	681.10
385.17	688.12
385.36	716.20
385.56	784.08
385.75	739.61
385.95	716.20
386.14	772.38
386.34	737.27
386.53	837.91
386.72	748.97
386.92	828.55
387.11	739.61
387.31	830.89
387.50	746.63
387.70	814.51
387.89	814.51
388.09	730.25
388.28	812.17
388.48	784.08
388.67	812.17
388.86	758.33
389.06	847.27
389.25	861.32
389.45	856.64
389.64	851.96
389.84	870.68
390.03	968.98
390.22	912.81
390.42	877.70
390.61	901.11
390.81	922.17
391.00	805.14
391.19	954.94
391.39	880.04
391.58	966.64
391.78	959.62
391.97	889.40
392.16	915.15
392.36	926.85
392.55	954.94
392.75	1048.56
392.94	1006.43
393.13	1006.43
393.33	980.68
393.52	978.34
393.71	924.51
393.91	938.55
394.10	1011.11
394.29	994.73
394.49	1001.75
394.68	1205.38
394.88	1008.77
395.07	1022.81
395.26	903.45
395.46	1064.94
395.65	1118.78
395.84	1081.33
396.04	1170.27
396.23	1013.45
396.42	1064.94
396.62	1153.88
396.81	1078.99
397.00	1074.31
397.19	1121.12
397.39	1139.84
397.58	1128.14
397.77	1205.38
397.97	1289.64
398.16	1184.31
398.35	1196.01
398.55	1165.59
398.74	1231.12
398.93	1259.21
399.12	1188.99
399.32	1238.14
399.51	1207.72
399.70	1256.87
399.90	1266.23
400.09	1282.61
400.28	1432.41
400.47	1336.45
400.67	1479.22
400.86	1397.30
401.05	1420.71
401.24	1341.13
401.44	1411.34
401.63	1420.71
401.82	1411.34
402.01	1462.83
402.21	1474.54
402.40	1434.75
402.59	1385.60
402.78	1317.72
402.97	1413.68
403.17	1479.22
403.36	1490.92
403.55	1624.33
403.74	1605.61
403.93	1547.09
404.13	1563.48
404.32	1535.39
404.51	1528.37
404.70	1657.10
404.89	1526.03
405.09	1621.99
405.28	1666.46
405.47	1596.25
405.66	1563.48
405.85	1582.20
406.05	1617.31
406.24	1650.08
406.43	1696.89
406.62	1715.61
406.81	1724.97
407.00	1813.92
407.20	1664.12
407.39	1771.79
407.58	1736.68
407.77	1682.85
407.96	1937.96
408.15	1762.42
408.34	1846.68
408.54	1916.90
408.73	1851.36
408.92	1879.45
409.11	1902.86
409.30	1898.17
409.49	1942.64
409.68	1888.81
409.87	1909.88
410.07	2099.46
410.26	2008.18
410.45	1937.96
410.64	2101.80
410.83	2197.76
411.02	2066.69
411.21	2157.97
411.40	2122.87
411.59	2057.33
411.78	2221.17
411.98	2153.29
412.17	2331.17
412.36	2272.66
412.55	2377.98
412.74	2324.15
412.93	2324.15
413.12	2363.94
413.31	2387.35
413.50	2359.26
413.69	2354.58
413.88	2406.07
414.07	2392.03
414.26	2417.77
414.45	2380.32
414.64	2506.71
414.83	2464.58
415.02	2558.21
415.22	2630.76
415.41	2532.46
415.60	2698.64
415.79	2761.83
415.98	2675.23
416.17	2663.53
416.36	2736.09
416.55	2661.19
416.74	2729.06
416.93	2839.07
417.12	2794.60
417.31	2813.32
417.50	2906.95
417.69	2974.82
417.88	2874.18
418.07	2998.23
418.26	2979.50
418.45	2906.95
418.64	2988.86
418.83	3073.12
419.02	3056.74
419.21	3040.36
419.39	3038.02
419.58	3033.33
419.77	2974.82
419.96	3026.31
420.15	3122.27
420.34	3047.38
420.53	3199.51
420.72	3344.63
420.91	3265.05
421.10	3251.00
421.29	3206.53
421.48	3166.74
421.67	3145.68
421.86	3279.09
422.05	3194.83
422.24	3288.45
422.43	3391.44
422.61	3332.92
422.80	3206.53
422.99	3396.12
423.18	3349.31
423.37	3473.36
423.56	3454.63
423.75	3213.56
423.94	3377.39
424.13	3126.96
424.32	3358.67
424.50	3361.01
424.69	3435.91
424.88	3400.80
425.07	3400.80
425.26	3440.59
425.45	3389.10
425.64	3508.46
425.83	3548.25
426.01	3433.57
426.20	3311.86
426.39	3517.83
426.58	3346.97
426.77	3396.12
426.96	3461.65
427.15	3473.36
427.33	3609.11
427.52	3473.36
427.71	3492.08
427.90	3604.42
428.09	3599.74
428.28	3641.87
428.46	3480.38
428.65	3513.14
428.84	3801.03
429.03	3747.20
429.22	3627.83
429.40	3611.45
429.59	3688.68
429.78	3426.54
429.97	3424.20
430.16	3592.72
430.34	3630.17
430.53	3768.26
430.72	3815.07
430.91	3765.92
431.10	3595.06
431.28	3939.12
431.47	3885.29
431.66	4004.66
431.85	3995.29
432.03	3969.55
432.22	4060.83
432.41	4135.73
432.60	3983.59
432.79	4032.74
432.97	4042.11
433.16	4049.13
433.35	4007.00
433.54	4156.79
433.72	4086.58
433.91	4084.23
434.10	4119.34
434.28	4077.21
434.47	4184.88
434.66	4245.73
434.85	4198.92
435.03	4358.08
435.22	4355.74
435.41	4421.27
435.59	4440.00
435.78	4344.03
435.97	4465.74
436.16	4442.34
436.34	4322.97
436.53	4472.76
436.72	4528.94
436.90	4353.40
437.09	4414.25
437.28	4339.35
437.46	4423.61
437.65	4449.36
437.84	4491.49
438.02	4402.55
438.21	4402.55
438.40	4498.51
438.58	4674.05
438.77	4781.71
438.96	4816.82
439.14	4844.91
439.33	4884.70
439.52	4915.12
439.70	4861.29
439.89	5001.72
440.08	4891.72
440.26	4894.06
440.45	4926.83
440.63	4968.96
440.82	5146.84
441.01	5022.79
441.19	5132.79
441.38	5310.68
441.57	5240.46
441.75	5268.55
441.94	5416.00
442.12	5214.71
442.31	5392.59
442.50	5462.81
442.68	5352.81
442.87	5439.40
443.05	5369.19
443.24	5603.24
443.43	5537.71
443.61	5432.38
443.80	5781.12
443.98	5383.23
444.17	5273.23
444.35	5652.39
444.54	5537.71
444.73	5654.73
444.91	5511.96
445.10	5575.16
445.28	5547.07
445.47	5685.16
445.65	5542.39
445.84	5481.53
446.02	5619.63
446.21	5675.80
446.39	5579.84
446.58	5624.31
446.77	5647.71
446.95	5544.73
447.14	5731.97
447.32	5802.19
447.51	5710.91
447.69	5795.17
447.88	5760.06
448.06	5839.64
448.25	5778.78
448.43	5912.19
448.62	5526.00
448.80	5849.00
448.99	5881.77
449.17	5912.19
449.36	5921.56
449.54	5884.11
449.73	5926.24
449.91	6022.20
450.10	5970.71
450.28	6061.99
450.46	6069.01
450.65	6181.35
450.83	5975.39
451.02	6022.20
451.20	6246.89
451.39	6160.29
451.57	6139.23
451.76	6047.94
451.94	6141.57
452.13	6366.26
452.31	6218.80
452.49	6099.44
452.68	6204.76
452.86	6136.88
453.05	6417.75
453.23	6413.07
453.42	6160.29
453.60	6324.13
453.78	6417.75
453.97	6487.96
454.15	6345.19
454.34	6394.34
454.52	6356.90
454.70	6567.54
454.89	6597.97
455.07	6354.55
455.26	6710.32
455.44	6656.48
455.62	6679.89
455.81	6813.30
455.99	6609.67
456.17	6506.69
456.36	6567.54
456.54	6794.58
456.73	6817.98
456.91	6951.39
457.09	7012.24
457.28	7012.24
457.46	6871.81
457.64	6942.03
457.83	7054.37
458.01	6890.54
458.19	7110.55
458.38	7089.48
458.56	7194.81
458.74	7080.12
458.93	7105.87
459.11	7293.11
459.29	7293.11
459.48	7323.54
459.66	7026.29
459.84	7094.16
460.03	7339.92
460.21	7173.74
460.39	7145.66
460.57	7370.35
460.76	7213.53
460.94	7445.24
461.12	7279.07
461.31	7492.05
461.49	7454.61
461.67	7440.56
461.85	7702.70
462.04	7489.71
462.22	7934.42
462.40	7721.43
462.59	7564.61
462.77	7761.22
462.95	7873.56
463.13	7712.07
463.32	7716.75
463.50	7801.01
463.68	7592.70
463.86	7740.15
464.05	7597.38
464.23	7943.78
464.41	7892.29
464.59	7749.51
464.78	7826.75
464.96	7805.69
465.14	7864.20
465.32	8093.57
465.50	7939.10
465.69	8079.53
465.87	7906.33
466.05	8039.74
466.23	7988.25
466.41	8032.72
466.60	8264.43
466.78	7978.89
466.96	8079.53
467.14	7992.93
467.32	8121.66
467.51	8205.92
467.69	7918.03
467.87	8067.83
468.05	8456.36
468.23	8205.92
468.41	8299.54
468.60	8390.82
468.78	8355.71
468.96	8163.79
469.14	8411.89
469.32	8472.74
469.50	8173.15
469.69	8477.42
469.87	8411.89
470.05	8491.46
470.23	8648.28
470.41	8503.17
470.59	8744.24
470.77	8631.90
470.95	8896.38
471.14	8793.39
471.32	8643.60
471.50	9013.40
471.68	8865.95
471.86	9081.28
472.04	8952.55
472.22	9273.20
472.40	9004.04
472.58	8901.06
472.77	8978.30
472.95	9177.24
473.13	9661.73
473.31	9287.25
473.49	9249.80
473.67	9329.38
473.85	9320.01
474.03	9565.77
474.21	9614.92
474.39	9762.37
474.57	9589.17
474.75	9666.41
474.93	9790.46
475.12	9411.29
475.30	9783.44
475.48	9767.06
475.66	10054.94
475.84	9720.24
476.02	9914.51
476.20	9980.04
476.38	10249.21
476.56	10338.15
476.74	10202.40
476.92	10216.44
477.10	10228.14
477.28	10773.49
477.46	10480.92
477.64	10544.11
477.82	10813.28
478.00	10913.92
478.18	10960.73
478.36	11007.54
478.54	11105.84
478.72	11049.67
478.90	11300.11
479.08	11349.26
479.26	11377.34
479.44	11630.12
479.62	11515.44
479.80	11665.23
479.98	11983.54
480.16	11894.60
480.34	12208.23
480.52	11808.00
480.70	12084.19
480.88	11817.36
481.06	11906.31
481.24	12315.90
481.41	12418.88
481.59	12212.92
481.77	12439.95
481.95	12449.31
482.13	12659.96
482.31	12503.14
482.49	12886.99
482.67	13088.28
482.85	13158.49
483.03	13348.08
483.21	13427.65
483.39	13497.87
483.57	13282.54
483.74	13565.74
483.92	13834.91
484.10	13774.05
484.28	14057.26
484.46	14008.11
484.64	14209.39
484.82	14249.18
485.00	14270.25
485.18	14303.01
485.35	14829.63
485.53	14469.19
485.71	14370.89
485.89	14808.57
486.07	15047.30
486.25	14850.70
486.43	15040.28
486.61	14911.55
486.78	15536.48
486.96	15566.90
487.14	15651.16
487.32	15639.46
487.50	15831.38
487.68	16184.80
487.85	16264.38
488.03	16329.92
488.21	16624.83
488.39	16393.11
488.57	16634.19
488.75	16744.19
488.92	16966.54
489.10	17111.66
489.28	17191.23
489.46	17441.67
489.64	17266.13
489.81	17640.62
489.99	17703.81
490.17	18150.85
490.35	18111.07
490.53	17888.71
490.70	18085.32
490.88	18071.28
491.06	18279.58
491.24	18066.60
491.41	18611.94
491.59	18607.26
491.77	18356.82
491.95	18754.71
492.13	18948.98
492.30	19152.60
492.48	19346.87
492.66	19286.01
492.84	19117.50
493.01	19770.51
493.19	19456.87
493.37	19793.91
493.54	19953.07
493.72	20107.54
493.90	20210.53
494.08	20278.40
494.25	20765.23
494.43	20585.01
494.61	20428.20
494.79	20851.83
494.96	20503.09
495.14	20491.39
495.32	21331.64
495.49	21240.36
495.67	21245.04
495.85	21336.32
496.02	21476.76
496.20	21792.73
496.38	21778.68
496.55	21762.30
496.73	22136.79
496.91	21727.19
497.09	22202.32
497.26	22417.65
497.44	22415.31
497.62	22537.02
497.79	22946.61
497.97	22384.88
498.14	22635.32
498.32	22691.49
498.50	22796.82
498.67	23009.81
498.85	23410.04
499.03	23370.25
499.20	23250.88
499.38	23094.07
499.56	23583.24
499.73	23690.90
499.91	23672.18
500.08	23613.66
500.26	23494.30
500.44	23892.19
500.61	23791.55
500.79	23934.32
500.97	23885.17
501.14	24505.41
501.32	24285.40
501.49	24238.59
501.67	24435.19
501.84	24781.59
502.02	24437.53
502.20	24769.89
502.37	24774.57
502.55	24973.52
502.72	24847.13
502.90	25497.80
503.07	25135.01
503.25	25366.73
503.43	25413.54
503.60	25429.92
503.78	25750.57
503.95	25504.82
504.13	25425.24
504.30	25675.68
504.48	25956.54
504.65	26087.61
504.83	26015.05
505.01	26127.40
505.18	26209.32
505.36	26555.72
505.53	26398.90
505.71	26553.38
505.88	26698.49
506.06	26401.24
506.23	26522.95
506.41	26614.23
506.58	26906.80
506.76	26892.76
506.93	27218.09
507.11	26946.59
507.28	26927.86
507.46	27190.00
507.63	27344.48
507.81	27192.34
507.98	26948.93
508.16	27260.22
508.33	27555.13
508.50	27725.99
508.68	27948.34
508.85	28123.88
509.03	27936.63
509.20	28140.26
509.38	27805.56
509.55	28486.66
509.73	28119.20
509.90	28542.83
510.08	28306.44
510.25	28315.80
510.42	28376.66
510.60	28463.25
510.77	28807.31
510.95	28973.49
511.12	28547.51
511.30	28767.52
511.47	29322.23
511.64	29223.93
511.82	29411.17
511.99	29055.41
512.17	29144.35
512.34	29111.58
512.51	29413.51
512.69	29752.89
512.86	29371.38
513.04	29668.63
513.21	29848.85
513.38	29890.98
513.56	30139.08
513.73	29930.77
513.90	29991.62
514.08	30038.44
514.25	30115.67
514.43	30230.36
514.60	30419.94
514.77	30071.20
514.95	30899.75
515.12	30284.19
515.29	30391.86
515.47	30616.55
515.64	30885.71
515.81	30705.49
515.99	31175.94
516.16	30684.42
516.33	30955.93
516.51	31133.81
516.68	30796.77
516.85	30553.35
517.03	31213.38
517.20	31489.57
517.37	31218.07
517.54	31381.90
517.72	31543.40
517.89	31206.36
518.06	31267.22
518.24	31475.52
518.41	31667.45
518.58	31512.97
518.75	31419.35
518.93	31962.36
519.10	31728.30
519.27	31803.20
519.45	32128.53
519.62	32606.00
519.79	32119.17
519.96	32224.50
520.14	32514.72
520.31	32341.52
520.48	32222.16
520.65	32528.77
520.83	33003.89
521.00	32503.02
521.17	32905.59
521.34	32622.39
521.52	32999.21
521.69	32842.40
521.86	33120.92
522.03	33043.68
522.20	33184.12
522.38	33354.97
522.55	33537.54
522.72	33460.30
522.89	33567.96
523.07	33399.44
523.24	33457.96
523.41	33589.03
523.58	33333.91
523.75	34288.85
523.92	34043.09
524.10	34029.05
524.27	34139.05
524.44	34431.62
524.61	34057.14
524.78	34349.70
524.96	34773.34
525.13	34087.56
525.30	34979.31
525.47	34998.03
525.64	34328.64
525.81	34899.73
525.98	34462.05
526.16	34623.54
526.33	34873.98
526.50	35136.12
526.67	34438.64
526.84	34466.73
527.01	34309.91
527.18	35117.40
527.36	35086.97
527.53	35061.22
527.70	35178.25
527.87	35093.99
528.04	34960.58
528.21	35526.99
528.38	35285.92
528.55	35498.91
528.72	35784.45
528.89	36018.50
529.07	35985.74
529.24	35491.88
529.41	35594.87
529.58	35978.72
529.75	35608.91
529.92	35604.23
530.09	35454.44
530.26	36011.48
530.43	36081.70
530.60	35892.12
530.77	35852.33
530.94	36442.14
531.11	36601.30
531.28	36210.43
531.46	36392.99
531.63	36727.69
531.80	36301.71
531.97	36507.68
532.14	36943.02
532.31	36444.48
532.48	36666.83
532.65	37010.89
532.82	36421.08
532.99	36945.36
533.16	36685.56
533.33	36507.68
533.50	36741.73
533.67	36699.60
533.84	36718.32
534.01	36493.63
534.18	37261.33
534.35	37287.07
534.52	37247.29
534.69	37720.07
534.86	37251.97
535.03	36994.51
535.20	37567.94
535.37	38038.39
535.54	37745.82
535.71	37083.45
535.88	37670.92
536.05	37647.52
536.22	38000.94
536.38	37853.48
536.55	37785.61
536.72	37886.25
536.89	37596.03
537.06	37904.98
537.23	37776.25
537.40	37804.33
537.57	37624.11
537.74	37549.21
537.91	38445.64
538.08	37834.76
538.25	38124.99
538.42	37539.85
538.59	38326.27
538.75	38284.14
538.92	38211.59
539.09	38539.26
539.26	38447.98
539.43	38682.03
539.60	38707.78
539.77	38108.60
539.94	38368.40
540.11	38239.67
540.28	38387.13
540.44	38534.58
540.61	38628.20
540.78	38691.40
540.95	39070.56
541.12	38778.00
541.29	38836.51
541.46	38824.81
541.62	38773.31
541.79	39030.77
541.96	38658.63
542.13	39180.57
542.30	38995.67
542.47	38703.10
542.63	38567.35
542.80	39133.76
542.97	39557.39
543.14	39707.19
543.31	39887.41
543.48	39522.29
543.64	39957.63
543.81	39686.12
543.98	39805.49
544.15	40100.40
544.32	39779.74
544.48	40053.59
544.65	39866.34
544.82	40069.97
544.99	39367.81
545.16	40009.12
545.32	40348.50
545.49	40144.87
545.66	40154.23
545.83	40250.19
546.00	40198.70
546.16	40418.71
546.33	40205.72
546.50	40163.59
546.67	40278.28
546.83	40095.72
547.00	40247.85
547.17	40458.50
547.34	40137.85
547.50	40266.58
547.67	40636.38
547.84	40524.04
548.00	40914.90
548.17	40460.84
548.34	40753.41
548.51	40989.80
548.67	40755.75
548.84	40598.93
549.01	40945.33
549.18	40748.73
549.34	41235.56
549.51	40774.47
549.68	41282.37
549.84	41195.77
550.01	41013.21
550.18	41326.84
550.34	40919.59
550.51	40643.40
550.68	40598.93
550.84	41006.19
551.01	41043.63
551.18	41123.21
551.34	41371.31
551.51	41509.40
551.68	41383.01
551.84	41741.11
552.01	41340.88
552.18	41305.77
552.34	41640.47
552.51	41827.71
552.68	41525.78
552.84	41504.72
553.01	41764.52
553.18	41916.65
553.34	41495.36
553.51	41757.50
553.67	41254.28
553.84	41979.85
554.01	41972.83
554.17	42010.28
554.34	41689.62
554.51	42169.43
554.67	42127.30
554.84	42094.53
555.00	42190.50
555.17	41940.06
555.33	41776.22
555.50	41731.75
555.67	42052.41
555.83	42141.35
556.00	42017.30
556.16	42497.11
556.33	42806.06
556.50	42131.98
556.66	42515.83
556.83	42136.66
556.99	42618.81
557.16	42686.69
557.32	42419.87
557.49	42576.69
557.65	42321.57
557.82	42286.46
557.98	42099.22
558.15	42272.42
558.32	42642.22
558.48	42691.37
558.65	42792.01
558.81	42799.04
558.98	43056.50
559.14	42724.14
559.31	42909.04
559.47	43091.60
559.64	42784.99
559.80	42817.76
559.97	42899.68
560.13	42253.69
560.30	42658.60
560.46	42679.67
560.63	42852.87
560.79	42843.51
560.96	42960.53
561.12	42817.76
561.29	43264.80
561.45	42965.21
561.61	42829.46
561.78	42761.59
561.94	42520.51
562.11	43049.47
562.27	42916.06
562.44	42735.84
562.60	42918.40
562.77	43189.91
562.93	42939.47
563.10	43297.57
563.26	42834.14
563.42	43290.55
563.59	43335.02
563.75	42733.50
563.92	43138.41
564.08	43533.96
564.24	43075.22
564.41	43264.80
564.57	43210.97
564.74	43105.65
564.90	43138.41
565.07	43702.48
565.23	43365.45
565.39	43138.41
565.56	43093.94
565.72	42960.53
565.88	43578.43
566.05	42974.58
566.21	43540.99
566.38	43126.71
566.54	43229.69
566.70	43344.38
566.87	43711.84
567.03	43508.22
567.19	43590.14
567.36	43262.46
567.52	43360.76
567.68	43550.35
567.85	42841.17
568.01	43835.89
568.17	43232.04
568.34	43873.34
568.50	43269.48
568.66	43115.01
568.83	43430.98
568.99	43349.06
569.15	43248.42
569.32	43363.11
569.48	43194.59
569.64	43718.87
569.81	43388.85
569.97	43590.14
570.13	43468.43
570.30	42960.53
570.46	43559.71
570.62	43330.34
570.78	43569.07
570.95	43456.73
571.11	43889.73
571.27	43608.86
571.43	43803.13
571.60	43538.65
571.76	43342.04
571.92	43639.29
572.09	43196.93
572.25	43803.13
572.41	43625.25
572.57	43676.74
572.74	44205.70
572.90	43950.58
573.06	43676.74
573.22	43536.30
573.38	43924.83
573.55	43299.91
573.71	43988.03
573.87	43629.93
574.03	43409.92
574.20	43807.81
574.36	43545.67
574.52	43889.73
574.68	44004.41
574.84	44100.37
575.01	43908.45
575.17	43735.25
575.33	43765.68
575.49	43658.01
575.65	43995.05
575.82	43922.49
575.98	43714.19
576.14	44477.20
576.30	43908.45
576.46	43763.34
576.62	43665.03
576.79	43641.63
576.95	43339.70
577.11	43810.15
577.27	43913.13
577.43	44004.41
577.59	43908.45
577.75	44315.70
577.92	43812.49
578.08	43793.76
578.24	43250.76
578.40	43491.83
578.56	44135.48
578.72	43927.17
578.88	44079.31
579.04	44453.79
579.21	44135.48
579.37	44095.69
579.53	44072.29
579.69	43913.13
579.85	43962.28
580.01	44135.48
580.17	43845.26
580.33	44488.90
580.49	44119.10
580.65	44069.95
580.82	43854.62
580.98	44074.63
581.14	43814.83
581.30	43927.17
581.46	43931.86
581.62	44320.38
581.78	43873.34
581.94	44126.12
582.10	44201.02
582.26	43889.73
582.42	43842.92
582.58	44140.16
582.74	43770.36
582.90	44142.50
583.06	44044.20
583.22	44067.61
583.38	44196.34
583.54	44217.40
583.70	44250.17
583.86	43648.65
584.02	43688.44
584.18	44257.19
584.34	44025.48
584.50	44470.18
584.66	44060.58
584.82	44039.52
584.98	44374.22
585.14	44051.22
585.30	43721.21
585.46	44074.63
585.62	43868.66
585.78	43798.44
585.94	43796.10
586.10	43866.32
586.26	44142.50
586.42	44004.41
586.58	44133.14
586.74	44329.75
586.90	43812.49
587.06	43824.19
587.22	44163.57
587.38	43622.90
587.54	44332.09
587.70	44060.58
587.86	44247.83
588.02	44165.91
588.18	44816.58
588.34	43966.96
588.49	43882.70
588.65	43976.33
588.81	44088.67
588.97	44119.10
589.13	44332.09
589.29	43910.79
589.45	44301.66
589.61	44149.53
589.77	44645.72
589.93	44577.84
590.08	44357.83
590.24	44304.00
590.40	44282.94
590.56	44692.53
590.72	43442.68
590.88	44343.79
591.04	44374.22
591.20	44722.96
591.35	44238.47
591.51	44825.94
591.67	44559.12
591.83	44442.09
591.99	44725.30
592.15	44355.49
592.31	44521.67
592.46	44406.98
592.62	44296.98
592.78	44491.24
592.94	44589.55
593.10	44238.47
593.26	44556.78
593.41	44289.96
593.57	44339.11
593.73	44217.40
593.89	44563.80
594.05	44280.60
594.20	44753.38
594.36	44655.08
594.52	44711.25
594.68	44676.15
594.84	44357.83
594.99	44889.13
595.15	44617.63
595.31	45015.52
595.47	44598.91
595.62	44800.19
595.78	44645.72
595.94	44467.84
596.10	44793.17
596.25	44662.10
596.41	44753.38
596.57	44210.38
596.73	44533.37
596.88	44072.29
597.04	44346.13
597.20	44039.52
597.36	44484.22
597.51	44648.06
597.67	43917.81
597.83	44617.63
597.99	44751.04
598.14	44823.60
598.30	44154.21
598.46	44264.21
598.61	44549.76
598.77	44261.87
598.93	44631.68
599.09	44753.38
599.24	44753.38
599.40	44942.97
599.56	44942.97
599.71	44744.02
599.87	44531.03
600.03	44755.72
600.18	44524.01
600.34	44603.59
600.50	44673.81
600.65	45177.02
600.81	44650.40
600.97	45013.18
601.12	45127.87
601.28	44591.89
601.44	44966.37
601.59	44538.05
601.75	44212.72
601.91	44479.54
602.06	44563.80
602.22	44442.09
602.37	44144.84
602.53	44294.64
602.69	44697.21
602.84	44175.27
603.00	44245.49
603.16	44458.48
603.31	44072.29
603.47	44282.94
603.62	44430.39
603.78	44694.87
603.94	44334.43
604.09	44830.62
604.25	44985.10
604.40	44758.06
604.56	44610.61
604.71	45003.82
604.87	44477.20
605.03	44472.52
605.18	44369.54
605.34	44531.03
605.49	44355.49
605.65	44535.71
605.80	44584.86
605.96	44538.05
606.12	45146.59
606.27	44823.60
606.43	44673.81
606.58	44301.66
606.74	44163.57
606.89	44149.53
607.05	44315.70
607.20	44285.28
607.36	44472.52
607.51	44839.98
607.67	44467.84
607.82	44306.34
607.98	44210.38
608.13	44179.95
608.29	43915.47
608.44	44205.70
608.60	43831.21
608.75	43929.51
608.91	44472.52
609.06	43966.96
609.22	44458.48
609.37	43936.54
609.53	44425.71
609.68	44449.11
609.84	44327.41
609.99	44105.06
610.15	44325.07
610.30	44020.80
610.46	43880.36
610.61	43648.65
610.76	44144.84
610.92	43955.26
611.07	44055.90
611.23	43929.51
611.38	44163.57
611.54	43871.00
611.69	44065.27
611.84	43903.77
612.00	43714.19
612.15	43852.28
612.31	43676.74
612.46	44112.08
612.62	44114.42
612.77	44023.14
612.92	43807.81
613.08	43358.42
613.23	44114.42
613.39	43782.06
613.54	43278.85
613.69	43704.82
613.85	43681.42
614.00	43915.47
614.15	43688.44
614.31	43643.97
614.46	44039.52
614.62	43737.59
614.77	43552.69
614.92	43620.56
615.08	43243.74
615.23	43435.66
615.38	43571.41
615.54	43208.63
615.69	43246.08
615.84	43213.31
616.00	43316.29
616.15	43360.76
616.30	43777.38
616.46	43597.16
616.61	43126.71
616.76	43405.23
616.92	43093.94
617.07	42951.17
617.22	43192.25
617.37	43103.31
617.53	43658.01
617.68	43459.07
617.83	43281.19
617.99	43517.58
618.14	43438.00
618.29	43182.88
618.45	42384.76
618.60	42941.81
618.75	43269.48
618.90	43196.93
619.06	43295.23
619.21	43138.41
619.36	43180.54
619.51	42880.95
619.67	42691.37
619.82	43325.66
619.97	42719.46
620.12	42782.65
620.28	42742.86
620.43	42403.49
620.58	42958.19
620.73	42529.87
620.89	42794.36
621.04	43058.84
621.19	42616.47
621.34	42438.59
621.49	42920.74
621.65	42277.10
621.80	42770.95
621.95	42588.39
622.10	42518.17
622.25	42396.46
622.41	42557.96
622.56	42286.46
622.71	43112.67
622.86	42162.41
623.01	42506.47
623.16	42375.40
623.32	42314.55
623.47	42410.51
623.62	42410.51
623.77	42422.21
623.92	42045.38
624.07	42141.35
624.23	42462.00
624.38	41776.22
624.53	41745.80
624.68	42078.15
624.83	42389.44
624.98	42054.75
625.13	42192.84
625.29	42085.17
625.44	42043.04
625.59	41701.32
625.74	41504.72
625.89	41769.20
626.04	41350.24
626.19	41792.61
626.34	42033.68
626.49	42043.04
626.65	41642.81
626.80	42218.58
626.95	41921.34
627.10	41450.89
627.25	41799.63
627.40	41422.80
627.55	41177.04
627.70	40847.03
627.85	41425.14
628.00	41457.91
628.15	41570.25
628.30	41385.35
628.45	41684.94
628.60	41516.42
628.76	41563.23
628.91	41481.31
629.06	41656.85
629.21	41294.07
629.36	41474.29
629.51	41134.92
629.66	41113.85
629.81	41385.35
629.96	40758.09
630.11	41429.82
630.26	41258.96
630.41	41567.91
630.56	41226.20
630.71	41214.49
630.86	41397.06
631.01	40870.43
631.16	40924.27
631.31	40734.68
631.46	40631.70
631.61	41287.05
631.76	40603.61
631.91	41450.89
632.06	41099.81
632.21	40800.22
632.36	40982.78
632.51	40364.88
632.66	40687.87
632.81	40495.95
632.96	40519.35
633.10	40407.01
633.25	40648.08
633.40	40605.95
633.55	41111.51
633.70	40879.80
633.85	40727.66
634.00	40467.86
634.15	40730.00
634.30	40264.24
634.45	40172.96
634.60	40526.38
634.75	40526.38
634.90	40573.19
635.05	40477.22
635.19	40488.93
635.34	40830.65
635.49	40313.39
635.64	40573.19
635.79	39849.96
635.94	39957.63
636.09	40142.53
636.24	39922.52
636.39	39716.55
636.53	39524.63
636.68	39974.01
636.83	40105.08
636.98	40182.32
637.13	39777.40
637.28	40065.29
637.43	40095.72
637.57	40161.25
637.72	39496.54
637.87	39981.03
638.02	40055.93
638.17	39990.39
638.32	39814.85
638.46	39634.63
638.61	39856.98
638.76	39725.91
638.91	39370.15
639.06	39775.06
639.20	39725.91
639.35	39824.22
639.50	39707.19
639.65	39662.72
639.80	39798.47
639.94	39206.31
640.09	39203.97
640.24	39566.76
640.39	39463.77
640.54	39126.74
640.68	39473.13
640.83	39508.24
640.98	38866.94
641.13	38909.07
641.27	39356.11
641.42	38904.38
641.57	39351.43
641.72	39487.18
641.86	39309.30
642.01	39201.63
642.16	39033.11
642.31	38703.10
642.45	38976.94
642.60	38555.64
642.75	38939.49
642.90	38902.04
643.04	39159.50
643.19	38445.64
643.34	39136.10
643.48	39379.51
643.63	39016.73
643.78	38525.22
643.93	38710.12
644.07	38543.94
644.22	38642.24
644.37	38532.24
644.51	38405.85
644.66	38686.71
644.81	38691.40
644.95	38370.74
645.10	38693.74
645.25	38572.03
645.39	38962.90
645.54	38892.68
645.69	38792.04
645.83	38288.82
645.98	38494.79
646.13	38852.89
646.27	38485.43
646.42	38347.34
646.57	38518.20
646.71	38927.79
646.86	38349.68
647.00	38707.78
647.15	38822.47
647.30	38607.14
647.44	38583.73
647.59	38827.15
647.74	38443.30
647.88	37949.45
648.03	38258.40
648.17	37982.21
648.32	38209.25
648.47	38401.17
648.61	38157.75
648.76	38419.89
648.90	37979.87
649.05	38672.67
649.20	38209.25
649.34	38045.41
649.49	37731.78
649.63	38185.84
649.78	38080.52
649.92	37670.92
650.07	38059.45
650.21	37874.55
650.36	37537.51
650.51	37659.22
650.65	38162.43
650.80	37560.92
650.94	38368.40
651.09	37921.36
651.23	37596.03
651.38	38082.86
651.52	37701.35
651.67	37565.60
651.81	38059.45
651.96	37457.93
652.10	37563.26
652.25	37256.65
652.39	37546.87
652.54	37628.79
652.68	38082.86
652.83	37144.30
652.97	38143.71
653.12	37736.46
653.26	37244.94
653.41	37160.69
653.55	37244.94
653.70	37500.06
653.84	37579.64
653.99	37170.05
654.13	36912.59
654.27	37099.83
654.42	37057.70
654.56	37638.15
654.71	37254.31
654.85	36935.99
655.00	36980.46
655.14	37017.91
655.29	36655.13
655.43	37062.38
655.57	36306.39
655.72	36547.47
655.86	37076.43
656.01	36613.00
656.15	36978.12
656.30	36727.69
656.44	36495.97
656.58	36559.17
656.73	36624.70
656.87	36465.55
657.01	36495.97
657.16	36833.01
657.30	36500.65
657.45	36156.60
657.59	36463.21
657.73	36294.69
657.88	36418.74
658.02	36105.10
658.16	36526.40
658.31	36392.99
658.45	36210.43
658.60	36751.09
658.74	36662.15
658.88	35882.75
659.03	36170.64
659.17	36493.63
659.31	35945.95
659.46	36343.84
659.60	36198.73
659.74	35873.39
659.89	35634.66
660.03	35892.12
660.17	35747.00
660.32	36011.48
660.46	35697.85
660.60	36079.36
660.74	35611.25
660.89	35627.63
661.03	35325.71
661.17	35194.64
661.32	34656.31
661.46	35400.60
661.60	35260.17
661.74	35316.34
661.89	35388.90
662.03	35330.39
662.17	35271.87
662.31	34829.51
662.46	35101.01
662.60	35220.38
662.74	35033.14
662.88	34794.40
663.03	35257.83
663.17	34871.64
663.31	35316.34
663.45	34979.31
663.60	34438.64
663.74	34675.04
663.88	34457.37
664.02	34550.99
664.17	34930.16
664.31	34653.97
664.45	34836.53
664.59	34120.33
664.73	34487.79
664.88	34583.76
665.02	33790.31
665.16	34150.76
665.30	34216.29
665.44	33883.94
665.59	33724.78
665.73	33928.41
665.87	33572.64
666.01	33785.63
666.15	33717.76
666.29	33750.52
666.44	33942.45
666.58	34031.39
666.72	33867.55
666.86	33708.40
667.00	33881.60
667.14	33811.38
667.28	33827.76
667.43	33385.40
667.57	33366.68
667.71	33493.07
667.85	33432.21
667.99	33289.44
668.13	33230.93
668.27	32868.14
668.41	33504.77
668.56	32615.37
668.70	33158.37
668.84	32779.20
668.98	33113.90
669.12	32865.80
669.26	32762.82
669.40	32723.03
669.54	32835.38
669.68	32556.85
669.82	32708.99
669.96	32673.88
670.10	32575.58
670.25	32610.68
670.39	32318.12
670.53	32180.03
670.67	32102.79
670.81	32706.65
670.95	32435.14
671.09	32149.60
671.23	32563.87
671.37	32315.78
671.51	32137.90
671.65	31686.17
671.79	31545.74
671.93	31648.72
672.07	31924.91
672.21	31681.49
672.35	31552.76
672.49	31599.57
672.63	31847.67
672.77	31288.28
672.91	32023.21
673.05	31042.53
673.19	30780.39
673.33	31079.97
673.47	30955.93
673.61	30654.00
673.75	30384.83
673.89	30934.86
674.03	30717.19
674.17	30906.77
674.31	30799.11
674.45	30455.05
674.59	30749.96
674.73	30766.34
674.87	30356.75
675.01	30569.74
675.15	30684.42
675.29	30426.96
675.43	30286.53
675.56	30824.86
675.70	30061.84
675.84	29813.74
675.98	29015.62
676.12	29991.62
676.26	29567.99
676.40	29773.95
676.54	29322.23
676.68	29598.41
676.82	28875.19
676.96	29560.97
677.10	29418.19
677.23	28940.72
677.37	29083.50
677.51	28889.23
677.65	29202.86
677.79	28877.53
677.93	28547.51
678.07	28407.08
678.21	28751.14
678.34	28596.67
678.48	28414.10
678.62	28439.85
678.76	28013.87
678.90	27995.15
679.04	28219.84
679.18	28650.50
679.31	27828.97
679.45	27770.46
679.59	27370.22
679.73	27529.38
679.87	27236.81
680.00	27730.67
680.14	27608.96
680.28	27150.21
680.42	27026.17
680.56	27250.86
680.70	27220.43
680.83	27033.19
680.97	26824.88
681.11	26349.75
681.25	26522.95
681.39	26459.76
681.52	26663.38
681.66	26803.82
681.80	26441.03
681.94	26623.59
682.07	26251.45
682.21	26211.66
682.35	26087.61
682.49	26328.69
682.62	26029.10
682.76	25820.79
682.90	26436.35
683.04	25750.57
683.17	25626.53
683.31	25827.81
683.45	25425.24
683.59	25481.41
683.72	24819.04
683.86	25050.75
684.00	24926.71
684.13	24870.53
684.27	25364.39
684.41	24889.26
684.55	24898.62
684.68	24730.10
684.82	24657.54
684.96	24713.72
685.09	24439.87
685.23	24404.77
685.37	24196.46
685.50	24191.78
685.64	24357.96
685.78	24257.31
685.91	24135.60
686.05	23941.34
686.19	23257.90
686.32	24058.37
686.46	23805.59
686.60	23550.47
686.73	23597.28
686.87	23307.05
687.01	23239.18
687.14	23316.42
687.28	23075.34
687.42	22909.16
687.55	22799.16
687.69	22747.67
687.82	22808.52
687.96	22902.14
688.10	22614.26
688.23	22691.49
688.37	22143.81
688.50	22139.13
688.64	21830.18
688.78	22017.42
688.91	22092.32
689.05	22436.38
689.18	22033.80
689.32	21951.88
689.46	21935.50
689.59	21795.07
689.73	21764.64
689.86	21626.55
690.00	21509.52
690.13	21708.47
690.27	21474.42
690.41	21390.16
690.54	21069.50
690.68	20795.66
690.81	20999.29
690.95	20776.94
691.08	20868.22
691.22	20620.12
691.35	20854.17
691.49	20816.72
691.62	20727.78
691.76	20734.81
691.89	20477.35
692.03	20128.61
692.16	20266.70
692.30	20231.59
692.43	19913.28
692.57	20070.09
692.70	19943.70
692.84	19761.14
692.97	19807.95
693.11	19552.84
693.24	19487.30
693.38	19161.97
693.51	19461.55
693.65	19300.06
693.78	19391.34
693.92	19267.29
694.05	19021.53
694.19	19194.73
694.32	18897.49
694.45	19105.79
694.59	18993.45
694.72	18654.07
694.86	18817.91
694.99	18625.98
695.13	18637.69
695.26	18473.85
695.39	18298.31
695.53	18457.46
695.66	18267.88
695.80	18314.69
695.93	18132.13
696.07	18043.19
696.20	17788.07
696.33	17877.01
696.47	17678.07
696.60	17664.02
696.73	17600.83
696.87	17563.38
697.00	17596.15
697.14	17275.49
697.27	17568.06
697.40	17334.01
697.54	17266.13
697.67	17188.89
697.80	17404.22
697.94	17216.98
698.07	17013.35
698.21	17078.89
698.34	16851.86
698.47	16816.75
698.61	16505.46
698.74	16673.98
698.87	16393.11
699.01	16137.99
699.14	16203.53
699.27	16187.14
699.40	16336.94
699.54	15641.80
699.67	15861.81
699.80	15901.60
699.94	15803.30
700.07	16084.16
700.20	15815.00
700.34	15576.27
700.47	15587.97
700.60	15873.51
700.73	15817.34
700.87	15433.49
701.00	15279.02
701.13	15417.11
701.26	15477.96
701.40	15419.45
701.53	14986.45
701.66	15166.67
701.79	15049.64
701.93	14836.66
702.06	14958.36
702.19	14618.99
702.32	14736.01
702.46	14588.56
702.59	14611.96
702.72	14693.88
702.85	14380.25
702.99	14281.95
703.12	14698.56
703.25	14345.14
703.38	14284.29
703.51	14246.84
703.65	14457.49
703.78	14122.79
703.91	14068.96
704.04	13937.89
704.17	13902.78
704.31	13729.58
704.44	13586.81
704.57	13635.96
704.70	13617.24
704.83	13610.22
704.96	13488.51
705.10	13624.26
705.23	13493.19
>>>>>End Processed Spectral Data<<<<<
