SpectraSuite Data File
++++++++++++++++++++++++++++++++++++
Date: Fri Oct 25 10:43:18 EDT 2013
User: price-jones
Dark Spectrum Present: No
Reference Spectrum Present: No
Number of Sampled Component Spectra: 1
Spectrometers: USB2+H05261
Integration Time (usec): 100000 (USB2+H05261)
Spectra Averaged: 1 (USB2+H05261)
Boxcar Smoothing: 0 (USB2+H05261)
Correct for Electrical Dark: No (USB2+H05261)
Strobe/Lamp Enabled: No (USB2+H05261)
Correct for Detector Non-linearity: No (USB2+H05261)
Correct for Stray Light: No (USB2+H05261)
Number of Pixels in Processed Spectrum: 2048
>>>>>Begin Processed Spectral Data<<<<<
365.73	128.73
365.92	128.73
366.12	128.73
366.32	18.72
366.52	7.02
366.72	4.68
366.91	14.04
367.11	14.04
367.31	0.00
367.51	25.75
367.70	0.00
367.90	0.00
368.10	0.00
368.30	35.11
368.49	0.00
368.69	0.00
368.89	0.00
369.09	7.02
369.28	91.28
369.48	77.24
369.68	81.92
369.87	91.28
370.07	117.03
370.27	121.71
370.47	177.88
370.66	339.38
370.86	472.79
371.06	463.43
371.25	491.51
371.45	458.74
371.65	437.68
371.84	393.21
372.04	472.79
372.24	423.64
372.44	606.20
372.63	484.49
372.83	461.09
373.03	477.47
373.22	538.32
373.42	528.96
373.62	512.58
373.81	425.98
374.01	561.73
374.21	561.73
374.40	582.79
374.60	580.45
374.79	547.69
374.99	552.37
375.19	557.05
375.38	566.41
375.58	561.73
375.78	596.84
375.97	557.05
376.17	620.24
376.37	641.31
376.56	531.30
376.76	608.54
376.95	622.58
377.15	660.03
377.35	676.41
377.54	624.92
377.74	660.03
377.93	615.56
378.13	622.58
378.33	629.60
378.52	547.69
378.72	641.31
378.91	615.56
379.11	571.09
379.31	650.67
379.50	596.84
379.70	645.99
379.89	704.50
380.09	739.61
380.28	676.41
380.48	746.63
380.68	620.24
380.87	636.63
381.07	720.88
381.26	716.20
381.46	758.33
381.65	667.05
381.85	763.01
382.04	709.18
382.24	709.18
382.43	748.97
382.63	739.61
382.83	767.70
383.02	739.61
383.22	763.01
383.41	681.10
383.61	702.16
383.80	753.65
384.00	727.91
384.19	763.01
384.39	863.66
384.58	793.44
384.78	830.89
384.97	786.42
385.17	798.12
385.36	760.67
385.56	699.82
385.75	821.53
385.95	851.96
386.14	802.80
386.34	793.44
386.53	826.21
386.72	779.40
386.92	880.04
387.11	880.04
387.31	877.70
387.50	763.01
387.70	847.27
387.89	889.40
388.09	903.45
388.28	812.17
388.48	842.59
388.67	966.64
388.86	992.39
389.06	922.17
389.25	901.11
389.45	959.62
389.64	1034.52
389.84	1046.22
390.03	983.02
390.22	950.26
390.42	912.81
390.61	1020.47
390.81	1029.84
391.00	1006.43
391.19	1121.12
391.39	1067.28
391.58	1048.56
391.78	1039.20
391.97	1018.13
392.16	992.39
392.36	1125.80
392.55	1114.10
392.75	1036.86
392.94	1062.60
393.13	1027.50
393.33	931.53
393.52	1036.86
393.71	1083.67
393.91	1025.15
394.10	1027.50
394.29	1142.18
394.49	1142.18
394.68	1219.42
394.88	1149.20
395.07	1214.74
395.26	1226.44
395.46	1163.25
395.65	1254.53
395.84	1132.82
396.04	1219.42
396.23	1245.16
396.42	1198.35
396.62	1203.04
396.81	1198.35
397.00	1254.53
397.19	1301.34
397.39	1313.04
397.58	1352.83
397.77	1348.15
397.97	1462.83
398.16	1399.64
398.35	1423.05
398.55	1533.05
398.74	1451.13
398.93	1493.26
399.12	1444.11
399.32	1409.00
399.51	1493.26
399.70	1589.22
399.90	1612.63
400.09	1533.05
400.28	1561.14
400.47	1593.90
400.67	1732.00
400.86	1631.35
401.05	1636.03
401.24	1612.63
401.44	1694.55
401.63	1788.17
401.82	1701.57
402.01	1701.57
402.21	1844.34
402.40	1764.76
402.59	1811.57
402.78	1762.42
402.97	1750.72
403.17	1774.13
403.36	1874.77
403.55	1771.79
403.74	1860.73
403.93	1879.45
404.13	1856.04
404.32	1832.64
404.51	1891.15
404.70	1923.92
404.89	1898.17
405.09	1947.33
405.28	1975.41
405.47	1940.30
405.66	1982.43
405.85	1984.77
406.05	2003.50
406.24	1944.99
406.43	2026.90
406.62	2008.18
406.81	2050.31
407.00	2066.69
407.20	2146.27
407.39	2214.15
407.58	2115.84
407.77	2155.63
407.96	2120.53
408.15	2263.30
408.34	2228.19
408.54	2272.66
408.73	2232.87
408.92	2251.60
409.11	2282.02
409.30	2277.34
409.49	2282.02
409.68	2328.83
409.87	2377.98
410.07	2272.66
410.26	2275.00
410.45	2389.69
410.64	2422.45
410.83	2476.29
411.02	2532.46
411.21	2511.39
411.40	2644.81
411.59	2579.27
411.78	2581.61
411.98	2605.02
412.17	2534.80
412.36	2689.28
412.55	2705.66
412.74	2789.92
412.93	2715.02
413.12	2743.11
413.31	2764.17
413.50	2867.16
413.69	2876.52
413.88	2958.44
414.07	2834.39
414.26	2825.03
414.45	2925.67
414.64	2949.08
414.83	2974.82
415.02	3117.59
415.22	3248.66
415.41	3138.66
415.60	3166.74
415.79	3084.83
415.98	3227.60
416.17	3243.98
416.36	3251.00
416.55	3372.71
416.74	3398.46
416.93	3260.37
417.12	3314.20
417.31	3463.99
417.50	3337.60
417.69	3372.71
417.88	3550.59
418.07	3426.54
418.26	3426.54
418.45	3487.40
418.64	3644.21
418.83	3658.26
419.02	3419.52
419.21	3583.36
419.39	3545.91
419.58	3492.08
419.77	3641.87
419.96	3679.32
420.15	3705.07
420.34	3595.06
420.53	3705.07
420.72	3918.06
420.91	3894.65
421.10	3829.12
421.29	3908.69
421.48	3829.12
421.67	3817.41
421.86	3798.69
422.05	3712.09
422.24	3735.50
422.43	3691.02
422.61	3744.86
422.80	3871.25
422.99	4018.70
423.18	3864.22
423.37	3927.42
423.56	3754.22
423.75	3784.65
423.94	3911.04
424.13	3632.51
424.32	3756.56
424.50	3988.27
424.69	4044.45
424.88	3913.38
425.07	3906.35
425.26	3985.93
425.45	3918.06
425.64	3901.67
425.83	3791.67
426.01	3901.67
426.20	3967.21
426.39	4011.68
426.58	3845.50
426.77	3906.35
426.96	3894.65
427.15	3981.25
427.33	4121.68
427.52	3974.23
427.71	4086.58
427.90	4191.90
428.09	4161.47
428.28	4058.49
428.46	4021.04
428.65	4156.79
428.84	4264.46
429.03	4285.52
429.22	4074.87
429.40	4028.06
429.59	4105.30
429.78	3824.44
429.97	3873.59
430.16	3955.51
430.34	4060.83
430.53	4149.77
430.72	4229.35
430.91	4271.48
431.10	4297.22
431.28	4477.44
431.47	4608.51
431.66	4734.90
431.85	4608.51
432.03	4578.09
432.22	4650.64
432.41	4660.01
432.60	4552.34
432.79	4678.73
432.97	4638.94
433.16	4737.24
433.35	4758.31
433.54	4690.43
433.72	4559.36
433.91	4805.12
434.10	4755.97
434.28	4891.72
434.47	4870.65
434.66	4936.19
434.85	4964.28
435.03	4751.29
435.22	4926.83
435.41	5245.14
435.59	4997.04
435.78	5055.56
435.97	5247.48
436.16	5177.26
436.34	5170.24
436.53	5118.75
436.72	5242.80
436.90	5043.85
437.09	5139.82
437.28	4950.23
437.46	5057.90
437.65	5123.43
437.84	5128.11
438.02	5188.97
438.21	5078.96
438.40	5142.16
438.58	5296.63
438.77	5423.02
438.96	5320.04
439.14	5502.60
439.33	5624.31
439.52	5614.95
439.70	5612.60
439.89	5476.85
440.08	5682.82
440.26	5593.88
440.45	5617.29
440.63	5830.27
440.82	5961.34
441.01	5818.57
441.19	5830.27
441.38	5891.13
441.57	5935.60
441.75	5916.87
441.94	6382.64
442.12	6263.27
442.31	6153.27
442.50	6190.72
442.68	6307.74
442.87	6230.51
443.05	6342.85
443.24	6532.44
443.43	6494.99
443.61	6417.75
443.80	6707.98
443.98	6328.81
444.17	6108.80
444.35	6499.67
444.54	6525.41
444.73	6509.03
444.91	6530.09
445.10	6354.55
445.28	6314.77
445.47	6244.55
445.65	6438.81
445.84	6492.65
446.02	6569.88
446.21	6401.37
446.39	6691.59
446.58	6677.55
446.77	6576.91
446.95	6532.44
447.14	6637.76
447.32	6525.41
447.51	6626.06
447.69	6705.63
447.88	6623.72
448.06	6722.02
448.25	6579.25
448.43	6750.10
448.62	6630.74
448.80	6670.53
448.99	6813.30
449.17	6799.26
449.36	6820.32
449.54	7016.93
449.73	7115.23
449.91	7272.04
450.10	7124.59
450.28	7241.62
450.46	7215.87
450.65	7110.55
450.83	7150.34
451.02	7115.23
451.20	7089.48
451.39	7155.02
451.57	7169.06
451.76	7283.75
451.94	7002.88
452.13	7335.24
452.31	7293.11
452.49	6970.12
452.68	7215.87
452.86	7187.79
453.05	7358.64
453.23	7227.57
453.42	7323.54
453.60	7410.14
453.78	7398.43
453.97	7255.66
454.15	7295.45
454.34	7368.01
454.52	7400.77
454.70	7520.14
454.89	7534.18
455.07	7548.23
455.26	7541.21
455.44	7712.07
455.62	7632.49
455.81	7658.23
455.99	7705.04
456.17	7723.77
456.36	7637.17
456.54	7808.03
456.73	7765.90
456.91	8053.78
457.09	8168.47
457.28	8212.94
457.46	7939.10
457.64	8152.09
457.83	8191.88
458.01	7936.76
458.19	8243.37
458.38	8182.51
458.56	8308.90
458.74	8194.22
458.93	8234.00
459.11	8116.98
459.29	8217.62
459.48	8325.29
459.66	8287.84
459.84	8280.82
460.03	8465.72
460.21	8449.33
460.39	8491.46
460.57	8571.04
460.76	8430.61
460.94	8519.55
461.12	8575.72
461.31	8671.68
461.49	8472.74
461.67	8454.02
461.85	8767.65
462.04	8821.48
462.22	9181.92
462.40	8868.29
462.59	8795.73
462.77	8559.34
462.95	8985.32
463.13	8865.95
463.32	8999.36
463.50	8919.78
463.68	8940.85
463.86	8957.23
464.05	8725.52
464.23	8805.10
464.41	8975.95
464.59	8837.86
464.78	9116.39
464.96	9039.15
465.14	9069.58
465.32	9149.15
465.50	9191.28
465.69	9104.68
465.87	9242.78
466.05	9146.81
466.23	9095.32
466.41	8990.00
466.60	9212.35
466.78	9172.56
466.96	9198.31
467.14	9397.25
467.32	9179.58
467.51	9294.27
467.69	9310.65
467.87	9245.12
468.05	9399.59
468.23	9394.91
468.41	9408.95
468.60	9282.56
468.78	9537.68
468.96	9652.37
469.14	9525.98
469.32	9774.08
469.50	9563.43
469.69	9755.35
469.87	9853.66
470.05	9659.39
470.23	9643.01
470.41	9771.74
470.59	9895.78
470.77	10113.45
470.95	10033.88
471.14	10052.60
471.32	9762.37
471.50	10314.74
471.68	10031.54
471.86	10200.05
472.04	10368.57
472.22	10277.29
472.40	10085.37
472.58	10267.93
472.77	10413.04
472.95	10448.15
473.13	10855.40
473.31	10387.30
473.49	10476.24
473.67	10583.90
473.85	10637.73
474.03	11014.56
474.21	10803.91
474.39	10937.32
474.57	10806.25
474.75	11026.26
474.93	11171.38
475.12	11030.94
475.30	11082.44
475.48	11183.08
475.66	11293.08
475.84	11140.95
476.02	11140.95
476.20	11506.07
476.38	11667.57
476.56	11948.43
476.74	11625.44
476.92	11850.13
477.10	11833.75
477.28	11847.79
477.46	11887.58
477.64	12102.91
477.82	12311.22
478.00	12442.29
478.18	12248.02
478.36	12439.95
478.54	12835.50
478.72	12814.43
478.90	12833.16
479.08	12973.59
479.26	12964.23
479.44	13245.09
479.62	13296.58
479.80	13254.45
479.98	13116.36
480.16	13617.24
480.34	13495.53
480.52	13659.37
480.70	13481.49
480.88	13635.96
481.06	13614.90
481.24	13755.33
481.41	14118.11
481.59	14314.72
481.77	14237.48
481.95	14235.14
482.13	14656.43
482.31	14534.73
482.49	14789.85
482.67	14860.06
482.85	15040.28
483.03	15164.33
483.21	14941.98
483.39	15225.18
483.57	15190.08
483.74	15569.24
483.92	15555.20
484.10	15602.01
484.28	15747.12
484.46	16039.69
484.64	16421.20
484.82	15836.06
485.00	16116.93
485.18	16727.81
485.35	16381.41
485.53	16102.89
485.71	16002.24
485.89	16283.11
486.07	16374.39
486.25	16650.57
486.43	16650.57
486.61	17116.34
486.78	17287.20
486.96	17142.08
487.14	17771.69
487.32	17706.15
487.50	17951.91
487.68	18024.47
487.85	18359.16
488.03	18265.54
488.21	18553.43
488.39	18434.06
488.57	18473.85
488.75	18633.00
488.92	18876.42
489.10	19061.32
489.28	19131.54
489.46	19571.56
489.64	19571.56
489.81	20070.09
489.99	20004.56
490.17	19871.15
490.35	20215.21
490.53	20093.50
490.70	20271.38
490.88	20383.73
491.06	20491.39
491.24	20556.93
491.41	20397.77
491.59	20610.76
491.77	20350.96
491.95	20847.15
492.13	20938.43
492.30	21394.84
492.48	21638.25
492.66	21696.77
492.84	21647.61
493.01	21921.46
493.19	21965.93
493.37	22150.83
493.54	22118.06
493.72	22352.12
493.90	22368.50
494.08	22820.22
494.25	22841.29
494.43	22988.74
494.61	22939.59
494.79	23166.62
494.96	22834.27
495.14	23414.72
495.32	23227.48
495.49	23342.16
495.67	23632.39
495.85	23915.59
496.02	24184.76
496.20	24128.58
496.38	24219.86
496.55	24329.87
496.73	24872.87
496.91	24510.09
497.09	24840.11
497.26	25193.53
497.44	25214.59
497.62	25120.97
497.79	25214.59
497.97	24882.24
498.14	25254.38
498.32	25460.35
498.50	25427.58
498.67	26029.10
498.85	25455.67
499.03	26024.42
499.20	25984.63
499.38	26249.11
499.56	26246.77
499.73	26356.77
499.91	26352.09
500.08	26375.50
500.26	26204.64
500.44	27002.76
500.61	26417.63
500.79	26328.69
500.97	26867.01
501.14	27061.27
501.32	26995.74
501.49	26934.88
501.67	27236.81
501.84	27175.96
502.02	27150.21
502.20	27669.81
502.37	27559.81
502.55	27384.27
502.72	27887.48
502.90	27754.07
503.07	27859.40
503.25	28039.62
503.43	28240.90
503.60	27807.90
503.78	27997.49
503.95	28205.80
504.13	28723.05
504.30	28334.53
504.48	28774.55
504.65	28645.82
504.83	28807.31
505.01	28985.19
505.18	28922.00
505.36	29202.86
505.53	29310.53
505.71	29411.17
505.88	29385.43
506.06	29053.07
506.23	29273.08
506.41	29450.96
506.58	29626.50
506.76	29495.43
506.93	29593.73
507.11	29708.42
507.28	29710.76
507.46	29659.27
507.63	30167.16
507.81	30052.48
507.98	29685.01
508.16	30272.49
508.33	30235.04
508.50	30251.42
508.68	30452.71
508.85	30862.30
509.03	30834.22
509.20	30651.66
509.38	30984.01
509.55	30871.67
509.73	31206.36
509.90	31285.94
510.08	31117.42
510.25	31204.02
510.42	31119.76
510.60	31496.59
510.77	31644.04
510.95	32275.99
511.12	31519.99
511.30	31882.78
511.47	32360.25
511.64	32191.73
511.82	31800.86
511.99	31826.60
512.17	32334.50
512.34	32130.87
512.51	32390.67
512.69	32376.63
512.86	32201.09
513.04	32694.94
513.21	32582.60
513.38	32643.45
513.56	32404.72
513.73	32620.05
513.90	32725.37
514.08	32854.10
514.25	32842.40
514.43	32725.37
514.60	33102.20
514.77	33120.92
514.95	33415.83
515.12	33481.36
515.29	33380.72
515.47	33844.15
515.64	33954.15
515.81	33986.92
515.99	33663.93
516.16	33684.99
516.33	33191.14
516.51	33364.34
516.68	32999.21
516.85	33074.11
517.03	33230.93
517.20	33787.97
517.37	34330.98
517.54	34139.05
517.72	34059.48
517.89	33762.23
518.06	33757.55
518.24	34143.74
518.41	34185.86
518.58	34211.61
518.75	34192.89
518.93	34352.04
519.10	34925.47
519.27	34991.01
519.45	34675.04
519.62	35456.78
519.79	35316.34
519.96	35040.16
520.14	35072.93
520.31	34944.20
520.48	35161.87
520.65	35185.27
520.83	35756.36
521.00	35688.49
521.17	35922.54
521.34	35255.49
521.52	36065.31
521.69	36074.68
521.86	36116.81
522.03	36224.47
522.20	36189.36
522.38	36381.29
522.55	36439.80
522.72	36018.50
522.89	35978.72
523.07	36245.54
523.24	36418.74
523.41	36692.58
523.58	36751.09
523.75	37081.11
523.92	36882.16
524.10	37127.92
524.27	37055.36
524.44	36833.01
524.61	37268.35
524.78	37163.03
524.96	36814.29
525.13	37322.18
525.30	37855.82
525.47	37729.44
525.64	37357.29
525.81	37205.16
525.98	37350.27
526.16	37036.64
526.33	37191.11
526.50	37546.87
526.67	36758.11
526.84	37130.26
527.01	37289.42
527.18	37652.20
527.36	38050.09
527.53	38242.01
527.70	38579.05
527.87	38017.32
528.04	37968.17
528.21	38237.33
528.38	37968.17
528.55	38445.64
528.72	38534.58
528.89	38675.01
529.07	38621.18
529.24	38532.24
529.41	38939.49
529.58	38117.96
529.75	38850.55
529.92	38440.96
530.09	38831.83
530.26	38986.30
530.43	38785.02
530.60	38806.08
530.77	38979.28
530.94	39346.75
531.11	39297.59
531.28	39255.46
531.46	39342.06
531.63	39206.31
531.80	38801.40
531.97	39407.60
532.14	39145.46
532.31	38740.55
532.48	39012.05
532.65	39215.68
532.82	39061.20
532.99	39159.50
533.16	39283.55
533.33	39519.95
533.50	40060.61
533.67	39496.54
533.84	39660.38
534.01	39819.53
534.18	39381.85
534.35	40245.51
534.52	39861.66
534.69	40236.15
534.86	40809.58
535.03	39564.42
535.20	40512.33
535.37	40940.65
535.54	40825.96
535.71	40732.34
535.88	40893.84
536.05	40287.64
536.22	40671.49
536.38	40598.93
536.55	40535.74
536.72	40540.42
536.89	40058.27
537.06	40081.67
537.23	40779.15
537.40	40905.54
537.57	40849.37
537.74	40966.40
537.91	40685.53
538.08	40701.92
538.25	40797.88
538.42	40797.88
538.59	41261.30
538.75	40933.63
538.92	40980.44
539.09	41057.68
539.26	41230.88
539.43	41247.26
539.60	41078.74
539.77	41146.62
539.94	41371.31
540.11	41308.11
540.28	41280.03
540.44	41308.11
540.61	41680.26
540.78	40987.46
540.95	41347.90
541.12	41263.64
541.29	41439.18
541.46	41158.32
541.62	42225.60
541.79	41771.54
541.96	41184.07
542.13	41670.90
542.30	41963.46
542.47	41535.15
542.63	41706.01
542.80	42096.88
542.97	42216.24
543.14	42396.46
543.31	41881.55
543.48	41855.80
543.64	42829.46
543.81	43021.39
543.98	42576.69
544.15	42113.26
544.32	42745.20
544.48	42820.10
544.65	42541.58
544.82	42866.91
544.99	41949.42
545.16	42834.14
545.32	42525.19
545.49	43566.73
545.66	43012.02
545.83	42974.58
546.00	42710.10
546.16	42880.95
546.33	43033.09
546.50	42380.08
546.67	42993.30
546.83	42635.20
547.00	43159.48
547.17	42316.89
547.34	42735.84
547.50	43124.37
547.67	43241.40
547.84	42960.53
548.00	43400.55
548.17	43480.13
548.34	43601.84
548.51	43695.46
548.67	43643.97
548.84	43498.86
549.01	43395.87
549.18	43180.54
549.34	43283.53
549.51	43693.12
549.68	43346.72
549.84	44034.84
550.01	43714.19
550.18	43667.37
550.34	43831.21
550.51	43959.94
550.68	43650.99
550.84	43372.47
551.01	43330.34
551.18	43892.07
551.34	43770.36
551.51	44006.75
551.68	43730.57
551.84	43566.73
552.01	44011.43
552.18	43957.60
552.34	43800.79
552.51	44353.15
552.68	43962.28
552.84	43962.28
553.01	43931.86
553.18	43941.22
553.34	43976.33
553.51	44095.69
553.67	43964.62
553.84	44275.91
554.01	44692.53
554.17	44591.89
554.34	44711.25
554.51	44275.91
554.67	44521.67
554.84	44493.58
555.00	44320.38
555.17	44666.78
555.33	44460.82
555.50	44601.25
555.67	44992.12
555.83	44353.15
556.00	44641.04
556.16	44708.91
556.33	44343.79
556.50	44526.35
556.66	44816.58
556.83	44083.99
556.99	44402.30
557.16	44505.29
557.32	44224.42
557.49	45055.31
557.65	44355.49
557.82	44980.42
557.98	44453.79
558.15	44886.79
558.32	44634.02
558.48	44472.52
558.65	44404.64
558.81	44655.08
558.98	44748.70
559.14	44488.90
559.31	44893.82
559.47	44526.35
559.64	45008.50
559.80	45090.42
559.97	44928.92
560.13	44907.86
560.30	44966.37
560.46	45006.16
560.63	45282.34
560.79	45453.20
560.96	45455.54
561.12	44722.96
561.29	44982.76
561.45	45172.34
561.61	44870.41
561.78	44982.76
561.94	45069.36
562.11	45181.70
562.27	44776.79
562.44	45193.40
562.60	45717.68
562.77	45193.40
562.93	45167.66
563.10	45640.45
563.26	45043.61
563.42	45331.50
563.59	44830.62
563.75	45237.87
563.92	45584.27
564.08	45521.08
564.24	45490.65
564.41	45713.00
564.57	45230.85
564.74	45158.30
564.90	45315.11
565.07	45205.11
565.23	45752.79
565.39	45331.50
565.56	45516.40
565.72	45160.64
565.88	45242.56
566.05	45338.52
566.21	45659.17
566.38	45338.52
566.54	45237.87
566.70	45488.31
566.87	45638.11
567.03	45331.50
567.19	45951.74
567.36	45446.18
567.52	45432.14
567.68	45769.18
567.85	44971.05
568.01	45563.21
568.17	45734.07
568.34	45661.51
568.50	45282.34
568.66	45329.16
568.83	45319.79
568.99	45661.51
569.15	45523.42
569.32	45207.45
569.48	45237.87
569.64	45982.16
569.81	45827.69
569.97	45696.62
570.13	45319.79
570.30	45535.12
570.46	45659.17
570.62	45310.43
570.78	45361.92
570.95	44924.24
571.11	45680.24
571.27	45116.17
571.43	45343.20
571.60	45823.01
571.76	45492.99
571.92	46099.19
572.09	45621.72
572.25	45853.44
572.41	46054.72
572.57	46120.26
572.74	46438.57
572.90	45579.59
573.06	45841.73
573.22	45865.14
573.38	45450.86
573.55	45413.41
573.71	45825.35
573.87	45841.73
574.03	45769.18
574.20	45720.02
574.36	45305.75
574.52	45811.31
574.68	45340.86
574.84	45773.86
575.01	45333.84
575.17	45483.63
575.33	45132.55
575.49	45759.81
575.65	46117.92
575.82	45605.34
575.98	45301.07
576.14	45848.75
576.30	45972.80
576.46	45907.27
576.62	45584.27
576.79	45879.18
576.95	45511.72
577.11	45193.40
577.27	45703.64
577.43	45492.99
577.59	45930.67
577.75	45511.72
577.92	45677.90
578.08	45603.00
578.24	45280.00
578.40	45275.32
578.56	45682.58
578.72	45518.74
578.88	45862.80
579.04	45820.67
579.21	45698.96
579.37	45874.50
579.53	45476.61
579.69	45581.93
579.85	46124.94
580.01	45794.92
580.17	45715.34
580.33	46043.02
580.49	45813.65
580.65	45322.13
580.82	45830.03
580.98	45734.07
581.14	45141.91
581.30	45975.14
581.46	45717.68
581.62	46136.64
581.78	46012.59
581.94	46019.61
582.10	45993.87
582.26	45846.41
582.42	45794.92
582.58	46014.93
582.74	46160.05
582.90	45806.62
583.06	45713.00
583.22	45619.38
583.38	46047.70
583.54	46614.11
583.70	45883.86
583.86	45649.81
584.02	45837.05
584.18	45703.64
584.34	45521.08
584.50	45860.46
584.66	46108.55
584.82	45930.67
584.98	46038.34
585.14	46066.42
585.30	45537.46
585.46	45443.84
585.62	45858.12
585.78	46038.34
585.94	45727.05
586.10	45607.68
586.26	45450.86
586.42	45837.05
586.58	45848.75
586.74	45727.05
586.90	45736.41
587.06	45565.55
587.22	46043.02
587.38	45514.06
587.54	46026.63
587.70	45535.12
587.86	45940.04
588.02	45890.88
588.18	45949.40
588.34	45565.55
588.49	45462.57
588.65	45216.81
588.81	45202.77
588.97	45216.81
589.13	44872.75
589.29	45474.27
589.45	45546.82
589.61	45635.77
589.77	46085.15
589.93	45804.28
590.08	46124.94
590.24	45776.20
590.40	46087.49
590.56	46106.21
590.72	45949.40
590.88	45193.40
591.04	45581.93
591.20	46014.93
591.35	46141.32
591.51	46167.07
591.67	45846.41
591.83	45631.08
591.99	45853.44
592.15	46071.10
592.31	46143.66
592.46	45916.63
592.62	45722.37
592.78	46110.89
592.94	45907.27
593.10	46000.89
593.26	46403.46
593.41	46356.65
593.57	45783.22
593.73	45867.48
593.89	45918.97
594.05	46356.65
594.20	45635.77
594.36	45940.04
594.52	45977.48
594.68	46101.53
594.84	46007.91
594.99	46050.04
595.15	46176.43
595.31	46485.38
595.47	46307.50
595.62	45928.33
595.78	46195.15
595.94	46047.70
596.10	45614.70
596.25	46071.10
596.41	45900.25
596.57	45729.39
596.73	46031.32
596.88	45666.19
597.04	45895.56
597.20	46190.47
597.36	46246.65
597.51	46497.08
597.67	46014.93
597.83	46263.03
597.99	46199.83
598.14	46511.13
598.30	46204.52
598.46	45986.85
598.61	46433.89
598.77	45598.32
598.93	46085.15
599.09	45820.67
599.24	46307.50
599.40	45933.01
599.56	45998.55
599.71	46096.85
599.87	46291.12
600.03	46204.52
600.18	46148.34
600.34	45766.84
600.50	45958.76
600.65	46204.52
600.81	46012.59
600.97	46337.93
601.12	46305.16
601.28	46167.07
601.44	45631.08
601.59	45975.14
601.75	45834.71
601.91	45825.35
602.06	46036.00
602.22	46033.66
602.37	45743.43
602.53	46113.23
602.69	46286.43
602.84	45916.63
603.00	45979.82
603.16	46361.33
603.31	45923.65
603.47	45947.06
603.62	45577.25
603.78	46148.34
603.94	45991.53
604.09	46312.18
604.25	46227.92
604.40	45734.07
604.56	45638.11
604.71	45837.05
604.87	45900.25
605.03	45909.61
605.18	45640.45
605.34	46085.15
605.49	45738.75
605.65	46225.58
605.80	46057.06
605.96	45839.39
606.12	45979.82
606.27	46138.98
606.43	45783.22
606.58	45844.07
606.74	46047.70
606.89	45591.30
607.05	45808.96
607.20	45701.30
607.36	45736.41
607.51	46014.93
607.67	45867.48
607.82	46005.57
607.98	46026.63
608.13	45525.76
608.29	45478.95
608.44	45453.20
608.60	45621.72
608.75	45652.15
608.91	45326.81
609.06	45399.37
609.22	45586.61
609.37	45799.60
609.53	45478.95
609.68	45628.74
609.84	45478.95
609.99	45689.60
610.15	45256.60
610.30	45244.90
610.46	44987.44
610.61	45553.85
610.76	45507.04
610.92	45352.56
611.07	45514.06
611.23	45359.58
611.38	45556.19
611.54	45439.16
611.69	45394.69
611.84	45071.70
612.00	45244.90
612.15	45205.11
612.31	45862.80
612.46	44992.12
612.62	45223.83
612.77	45375.97
612.92	45177.02
613.08	45158.30
613.23	44959.35
613.39	44807.22
613.54	44638.70
613.69	44903.18
613.85	44816.58
614.00	44823.60
614.15	45139.57
614.31	45050.63
614.46	44861.05
614.62	44802.53
614.77	45067.02
614.92	45024.89
615.08	44399.96
615.23	44804.88
615.38	44847.00
615.54	44385.92
615.69	44699.55
615.84	44521.67
616.00	44807.22
616.15	44432.73
616.30	44949.99
616.46	44091.01
616.61	44170.59
616.76	44474.86
616.92	44142.50
617.07	44140.16
617.22	44673.81
617.37	44397.62
617.53	45024.89
617.68	44662.10
617.83	44268.89
617.99	44374.22
618.14	44116.76
618.29	44411.67
618.45	44376.56
618.60	44083.99
618.75	44025.48
618.90	43831.21
619.06	43838.23
619.21	44062.93
619.36	44240.81
619.51	44318.04
619.67	43908.45
619.82	43861.64
619.97	43952.92
620.12	43751.63
620.28	43676.74
620.43	43831.21
620.58	44229.10
620.73	43604.18
620.89	43686.10
621.04	43819.51
621.19	44072.29
621.34	43763.34
621.49	44151.87
621.65	43538.65
621.80	44233.78
621.95	43150.12
622.10	44121.44
622.25	43634.61
622.41	43313.95
622.56	43555.03
622.71	43716.53
622.86	43374.81
623.01	43426.30
623.16	44067.61
623.32	43372.47
623.47	43461.41
623.62	43072.88
623.77	42920.74
623.92	43515.24
624.07	42997.98
624.23	42906.70
624.38	43217.99
624.53	43241.40
624.68	43166.50
624.83	43243.74
624.98	43000.32
625.13	43030.75
625.29	42866.91
625.44	43171.18
625.59	42742.86
625.74	42726.48
625.89	42469.02
626.04	42440.93
626.19	42866.91
626.34	43082.24
626.49	42904.36
626.65	42274.76
626.80	42749.88
626.95	42859.89
627.10	42635.20
627.25	42300.50
627.40	42403.49
627.55	42302.84
627.70	42249.01
627.85	42309.86
628.00	42454.98
628.15	42410.51
628.30	42508.81
628.45	42440.93
628.60	42740.52
628.76	42398.80
628.91	42443.27
629.06	41951.76
629.21	42160.07
629.36	42239.65
629.51	41645.15
629.66	42272.42
629.81	42080.49
629.96	42043.04
630.11	42316.89
630.26	41984.53
630.41	42167.09
630.56	41954.10
630.71	41764.52
630.86	42256.03
631.01	42021.98
631.16	42167.09
631.31	41397.06
631.46	41652.17
631.61	41846.44
631.76	41631.11
631.91	42115.60
632.06	42244.33
632.21	41965.81
632.36	41996.23
632.51	41645.15
632.66	41743.45
632.81	41069.38
632.96	41614.72
633.10	41439.18
633.25	41710.69
633.40	41457.91
633.55	41731.75
633.70	41553.87
633.85	41455.57
634.00	41319.82
634.15	41476.63
634.30	41406.42
634.45	41317.48
634.60	41310.46
634.75	40966.40
634.90	41003.85
635.05	41200.45
635.19	41017.89
635.34	41535.15
635.49	41392.37
635.64	41081.08
635.79	41249.60
635.94	40746.39
636.09	41375.99
636.24	40652.76
636.39	40526.38
636.53	40891.50
636.68	40690.21
636.83	40947.67
636.98	41029.59
637.13	41401.74
637.28	41137.26
637.43	41390.03
637.57	40844.69
637.72	40589.57
637.87	41060.02
638.02	40865.75
638.17	40952.35
638.32	40854.05
638.46	40451.48
638.61	40051.25
638.76	39966.99
638.91	40563.82
639.06	40844.69
639.20	40928.95
639.35	40842.35
639.50	40392.97
639.65	40694.89
639.80	40093.38
639.94	40421.05
640.09	40238.49
640.24	40327.43
640.39	40205.72
640.54	39784.43
640.68	39957.63
640.83	40306.37
640.98	40098.06
641.13	39700.17
641.27	40638.72
641.42	40292.32
641.57	40182.32
641.72	40098.06
641.86	40034.86
642.01	39641.65
642.16	39770.38
642.31	39768.04
642.45	39730.59
642.60	39702.51
642.75	40142.53
642.90	40119.12
643.04	39711.87
643.19	39885.07
643.34	39901.45
643.48	39716.55
643.63	39688.46
643.78	39442.71
643.93	39381.85
644.07	39569.10
644.22	39290.57
644.37	39416.96
644.51	39473.13
644.66	39541.01
644.81	39566.76
644.95	39082.27
645.10	39285.89
645.25	39370.15
645.39	39442.71
645.54	39583.14
645.69	39019.07
645.83	39058.86
645.98	39161.84
646.13	39370.15
646.27	39154.82
646.42	39108.01
646.57	39255.46
646.71	38796.72
646.86	39388.88
647.00	39330.36
647.15	39131.42
647.30	39337.38
647.44	39077.58
647.59	39033.11
647.74	38976.94
647.88	38541.60
648.03	38752.25
648.17	38696.08
648.32	38836.51
648.47	38845.87
648.61	38410.53
648.76	38946.51
648.90	38728.84
649.05	39105.67
649.20	38649.27
649.34	38532.24
649.49	38794.38
649.63	38871.62
649.78	38841.19
649.92	38323.93
650.07	38883.32
650.21	38574.37
650.36	38682.03
650.51	38342.66
650.65	39005.03
650.80	38967.58
650.94	38616.50
651.09	38895.02
651.23	38171.80
651.38	38298.19
651.52	37996.26
651.67	37912.00
651.81	38199.88
651.96	37823.06
652.10	38157.75
652.25	38452.66
652.39	38190.52
652.54	38153.07
652.68	37930.72
652.83	38684.37
652.97	38635.22
653.12	38007.96
653.26	38052.43
653.41	37954.13
653.55	38230.31
653.70	38251.38
653.84	38038.39
653.99	37668.58
654.13	37699.01
654.27	37500.06
654.42	38022.00
654.56	37652.20
654.71	37832.42
654.85	37673.26
655.00	37855.82
655.14	37357.29
655.29	37881.57
655.43	37368.99
655.57	36968.76
655.72	37137.28
655.86	37179.41
656.01	36758.11
656.15	36432.78
656.30	36608.32
656.44	36912.59
656.58	36914.93
656.73	37130.26
656.87	37048.34
657.01	36664.49
657.16	36776.84
657.30	36659.81
657.45	36385.97
657.59	36982.80
657.73	37001.53
657.88	37057.70
658.02	37209.84
658.16	37315.16
658.31	36685.56
658.45	37036.64
658.60	36935.99
658.74	36833.01
658.88	36947.70
659.03	36477.25
659.17	36449.16
659.31	36514.70
659.46	36641.09
659.60	36215.11
659.74	36498.31
659.89	36442.14
660.03	36217.45
660.17	36390.65
660.32	36229.15
660.46	36982.80
660.60	36327.45
660.74	36353.20
660.89	36357.88
661.03	35934.24
661.17	36517.04
661.32	35751.68
661.46	36252.56
661.60	35821.90
661.74	35908.50
661.89	35660.40
662.03	35672.10
662.17	35641.68
662.31	35847.64
662.46	36355.54
662.60	36084.04
662.74	35803.17
662.88	35655.72
663.03	35739.98
663.17	35573.80
663.31	35007.39
663.45	35681.47
663.60	35611.25
663.74	35150.17
663.88	35166.55
664.02	35171.23
664.17	35498.91
664.31	34756.96
664.45	35072.93
664.59	35070.59
664.73	35093.99
664.88	34955.90
665.02	34192.89
665.16	34749.93
665.30	34473.75
665.44	34448.00
665.59	34330.98
665.73	34352.04
665.87	34286.51
666.01	34480.77
666.15	34433.96
666.29	34059.48
666.44	34541.63
666.58	34581.42
666.72	34419.92
666.86	34740.57
667.00	34307.57
667.14	34117.99
667.28	33837.12
667.43	34120.33
667.57	34455.03
667.71	33464.98
667.85	33961.17
667.99	34160.12
668.13	34087.56
668.27	33504.77
668.41	33972.88
668.56	33443.91
668.70	33179.43
668.84	33095.18
668.98	33160.71
669.12	33666.27
669.26	33373.70
669.40	33156.03
669.54	32669.20
669.68	32889.21
669.82	32858.78
669.96	32849.42
670.10	32844.74
670.25	32795.59
670.39	32739.41
670.53	32821.33
670.67	32594.30
670.81	32858.78
670.95	32683.24
671.09	32313.44
671.23	32444.51
671.37	32240.88
671.51	32149.60
671.65	32173.00
671.79	32100.45
671.93	31838.31
672.07	31960.02
672.21	31611.28
672.35	31798.52
672.49	31740.00
672.63	31981.08
672.77	31943.63
672.91	31487.23
673.05	31747.03
673.19	32020.87
673.33	31541.06
673.47	31597.23
673.61	31241.47
673.75	31489.57
673.89	31257.85
674.03	31299.98
674.17	31054.23
674.31	31129.12
674.45	31028.48
674.59	30684.42
674.73	31482.55
674.87	30881.03
675.01	30822.51
675.15	30705.49
675.29	30656.34
675.43	30998.06
675.56	30773.36
675.70	30684.42
675.84	30597.82
675.98	29352.66
676.12	30331.00
676.26	30284.19
676.40	30073.54
676.54	30307.60
676.68	30045.46
676.82	29563.31
676.96	29766.93
677.10	29336.27
677.23	29605.44
677.37	29652.25
677.51	29406.49
677.65	29022.64
677.79	28882.21
677.93	28994.56
678.07	28978.17
678.21	28456.23
678.34	28580.28
678.48	28610.71
678.62	28149.62
678.76	28383.68
678.90	28273.67
679.04	28053.66
679.18	28067.70
679.31	27845.35
679.45	27943.66
679.59	27770.46
679.73	27915.57
679.87	27936.63
680.00	28137.92
680.14	27819.61
680.28	27613.64
680.42	27054.25
680.56	27159.58
680.70	26944.25
680.83	27655.77
680.97	27016.80
681.11	27330.44
681.25	27227.45
681.39	26555.72
681.52	27316.39
681.66	26412.95
681.80	26749.98
681.94	26595.51
682.07	26459.76
682.21	26216.34
682.35	26445.71
682.49	26066.55
682.62	25986.97
682.76	25940.16
682.90	25773.98
683.04	26036.12
683.17	25907.39
683.31	25413.54
683.45	25635.89
683.59	25516.52
683.72	25710.78
683.86	25563.33
684.00	25125.65
684.13	24840.11
684.27	24755.85
684.41	24524.13
684.55	24790.95
684.68	24870.53
684.82	24599.03
684.96	24662.22
685.09	24294.76
685.23	24479.66
685.37	24610.73
685.50	24435.19
685.64	24224.54
685.78	24388.38
685.91	23976.45
686.05	23981.13
686.19	23534.09
686.32	23388.97
686.46	23412.38
686.60	23363.23
686.73	23171.30
686.87	23044.91
687.01	23110.45
687.14	22656.39
687.28	23108.11
687.42	22965.34
687.55	22686.81
687.69	22995.76
687.82	22696.17
687.96	22698.52
688.10	22424.67
688.23	22506.59
688.37	22548.72
688.50	22366.16
688.64	22485.53
688.78	22228.07
688.91	21858.26
689.05	21876.99
689.18	21839.54
689.32	21689.74
689.46	21900.39
689.59	21799.75
689.73	21926.14
689.86	21465.05
690.00	21451.01
690.13	21687.40
690.27	21245.04
690.41	21282.49
690.54	21130.36
690.68	21109.29
690.81	21165.46
690.95	21216.96
691.08	21116.31
691.22	20945.45
691.35	20688.00
691.49	20844.81
691.62	20695.02
691.76	20968.86
691.89	20475.01
692.03	20573.31
692.16	20479.69
692.30	20278.40
692.43	20484.37
692.57	20046.69
692.70	19810.29
692.84	20226.91
692.97	19721.35
693.11	19637.09
693.24	19641.78
693.38	19510.71
693.51	19609.01
693.65	19370.27
693.78	19269.63
693.92	19248.57
694.05	19236.86
694.19	19056.64
694.32	19225.16
694.45	19510.71
694.59	18853.02
694.72	19190.05
694.86	18651.73
694.99	18457.46
695.13	18862.38
695.26	18455.12
695.39	18412.99
695.53	18457.46
695.66	18513.64
695.80	18359.16
695.93	18232.77
696.07	18200.01
696.20	18235.11
696.33	18029.15
696.47	18108.72
696.60	17914.46
696.73	17647.64
696.87	17661.68
697.00	17406.56
697.14	16985.27
697.27	17207.62
697.40	17224.00
697.54	17390.18
697.67	17053.14
697.80	16940.80
697.94	16931.44
698.07	16929.09
698.21	16872.92
698.34	16849.52
698.47	16889.31
698.61	16730.15
698.74	16709.08
698.87	16545.25
699.01	16512.48
699.14	16074.80
699.27	16285.45
699.40	16224.59
699.54	16397.79
699.67	15927.35
699.80	16159.06
699.94	15882.88
700.07	15887.56
700.20	15929.69
700.34	15831.38
700.47	15758.83
700.60	15623.08
700.73	15740.10
700.87	15606.69
701.00	15534.14
701.13	15470.94
701.26	15293.06
701.40	15164.33
701.53	15089.43
701.66	15138.58
701.79	15040.28
701.93	14918.57
702.06	15063.69
702.19	14906.87
702.32	15002.83
702.46	14766.44
702.59	14679.84
702.72	14806.23
702.85	14717.29
702.99	14544.09
703.12	14139.18
703.25	14118.11
703.38	14431.74
703.51	14377.91
703.65	14178.97
703.78	13816.18
703.91	13771.71
704.04	13930.87
704.17	13738.94
704.31	13778.73
704.44	13692.13
704.57	13603.19
704.70	13448.72
704.83	13338.71
704.96	13420.63
705.10	13514.25
705.23	13261.48
>>>>>End Processed Spectral Data<<<<<
