SpectraSuite Data File
++++++++++++++++++++++++++++++++++++
Date: Fri Oct 25 10:43:50 EDT 2013
User: price-jones
Dark Spectrum Present: No
Reference Spectrum Present: No
Number of Sampled Component Spectra: 1
Spectrometers: USB2+H05261
Integration Time (usec): 100000 (USB2+H05261)
Spectra Averaged: 1 (USB2+H05261)
Boxcar Smoothing: 0 (USB2+H05261)
Correct for Electrical Dark: No (USB2+H05261)
Strobe/Lamp Enabled: No (USB2+H05261)
Correct for Detector Non-linearity: No (USB2+H05261)
Correct for Stray Light: No (USB2+H05261)
Number of Pixels in Processed Spectrum: 2048
>>>>>Begin Processed Spectral Data<<<<<
365.73	173.20
365.92	173.20
366.12	173.20
366.32	98.30
366.52	18.72
366.72	74.90
366.91	4.68
367.11	72.56
367.31	0.00
367.51	4.68
367.70	77.24
367.90	14.04
368.10	35.11
368.30	30.43
368.49	0.00
368.69	77.24
368.89	39.79
369.09	25.75
369.28	133.41
369.48	42.13
369.68	60.85
369.87	84.26
370.07	30.43
370.27	88.94
370.47	241.08
370.66	379.17
370.86	397.89
371.06	397.89
371.25	493.85
371.45	444.70
371.65	465.77
371.84	395.55
372.04	456.40
372.24	449.38
372.44	440.02
372.63	498.53
372.83	566.41
373.03	554.71
373.22	472.79
373.42	482.15
373.62	531.30
373.81	603.86
374.01	587.47
374.21	603.86
374.40	540.66
374.60	524.28
374.79	582.79
374.99	622.58
375.19	650.67
375.38	587.47
375.58	599.18
375.78	601.52
375.97	653.01
376.17	739.61
376.37	636.63
376.56	648.33
376.76	601.52
376.95	582.79
377.15	669.39
377.35	634.29
377.54	664.71
377.74	571.09
377.93	657.69
378.13	669.39
378.33	711.52
378.52	606.20
378.72	627.26
378.91	648.33
379.11	620.24
379.31	606.20
379.50	629.60
379.70	702.16
379.89	634.29
380.09	638.97
380.28	739.61
380.48	660.03
380.68	741.95
380.87	739.61
381.07	671.73
381.26	748.97
381.46	676.41
381.65	706.84
381.85	669.39
382.04	678.76
382.24	730.25
382.43	662.37
382.63	676.41
382.83	676.41
383.02	755.99
383.22	765.36
383.41	676.41
383.61	713.86
383.80	758.33
384.00	772.38
384.19	795.78
384.39	744.29
384.58	858.98
384.78	809.83
384.97	788.76
385.17	786.42
385.36	746.63
385.56	816.85
385.75	709.18
385.95	854.30
386.14	856.64
386.34	751.31
386.53	870.68
386.72	816.85
386.92	842.59
387.11	814.51
387.31	833.23
387.50	880.04
387.70	833.23
387.89	896.43
388.09	896.43
388.28	837.91
388.48	870.68
388.67	912.81
388.86	950.26
389.06	926.85
389.25	973.66
389.45	952.60
389.64	936.21
389.84	1029.84
390.03	1008.77
390.22	1006.43
390.42	926.85
390.61	990.05
390.81	985.37
391.00	985.37
391.19	1128.14
391.39	1060.26
391.58	1036.86
391.78	1111.75
391.97	1095.37
392.16	1050.90
392.36	1060.26
392.55	1013.45
392.75	926.85
392.94	922.17
393.13	1086.01
393.33	1135.16
393.52	1032.18
393.71	1095.37
393.91	1083.67
394.10	1116.44
394.29	1139.84
394.49	1128.14
394.68	1217.08
394.88	1275.59
395.07	1280.27
395.26	1245.16
395.46	1308.36
395.65	1233.46
395.84	1329.42
396.04	1184.31
396.23	1198.35
396.42	1165.59
396.62	1191.33
396.81	1228.78
397.00	1268.57
397.19	1214.74
397.39	1266.23
397.58	1434.75
397.77	1277.93
397.97	1352.83
398.16	1397.30
398.35	1437.09
398.55	1490.92
398.74	1460.49
398.93	1577.52
399.12	1565.82
399.32	1502.62
399.51	1542.41
399.70	1607.95
399.90	1472.20
400.09	1561.14
400.28	1715.61
400.47	1533.05
400.67	1572.84
400.86	1715.61
401.05	1603.27
401.24	1603.27
401.44	1769.44
401.63	1687.53
401.82	1750.72
402.01	1671.14
402.21	1762.42
402.40	1790.51
402.59	1689.87
402.78	1710.93
402.97	1710.93
403.17	1743.70
403.36	1767.10
403.55	1881.79
403.74	1837.32
403.93	1916.90
404.13	1926.26
404.32	1830.30
404.51	1912.22
404.70	1944.99
404.89	1834.98
405.09	1970.73
405.28	1907.54
405.47	1905.20
405.66	1942.64
405.85	1907.54
406.05	1952.01
406.24	2047.97
406.43	2017.54
406.62	2052.65
406.81	2106.48
407.00	2054.99
407.20	2050.31
407.39	2155.63
407.58	2167.34
407.77	2099.46
407.96	2211.81
408.15	2251.60
408.34	2127.55
408.54	2253.94
408.73	2263.30
408.92	2228.19
409.11	2207.13
409.30	2279.68
409.49	2165.00
409.68	2312.45
409.87	2342.88
410.07	2349.90
410.26	2377.98
410.45	2279.68
410.64	2370.96
410.83	2469.27
411.02	2560.55
411.21	2473.95
411.40	2502.03
411.59	2633.10
411.78	2621.40
411.98	2588.63
412.17	2703.32
412.36	2698.64
412.55	2588.63
412.74	2750.13
412.93	2794.60
413.12	2703.32
413.31	2810.98
413.50	2906.95
413.69	2841.41
413.88	2981.84
414.07	2853.11
414.26	2937.37
414.45	2923.33
414.64	2993.55
414.83	2972.48
415.02	3014.61
415.22	3068.44
415.41	3082.49
415.60	3272.07
415.79	3243.98
415.98	3290.79
416.17	3260.37
416.36	3220.58
416.55	3274.41
416.74	3276.75
416.93	3187.81
417.12	3368.03
417.31	3307.18
417.50	3297.81
417.69	3515.48
417.88	3353.99
418.07	3480.38
418.26	3428.88
418.45	3442.93
418.64	3520.17
418.83	3435.91
419.02	3501.44
419.21	3613.79
419.39	3655.92
419.58	3485.06
419.77	3482.72
419.96	3646.55
420.15	3723.79
420.34	3660.60
420.53	3775.28
420.72	3822.09
420.91	3756.56
421.10	3791.67
421.29	3871.25
421.48	3625.49
421.67	3908.69
421.86	3775.28
422.05	3880.61
422.24	3812.73
422.43	3915.72
422.61	3882.95
422.80	3829.12
422.99	3861.88
423.18	3894.65
423.37	3992.95
423.56	3974.23
423.75	3892.31
423.94	3854.86
424.13	3681.66
424.32	3861.88
424.50	3899.33
424.69	4032.74
424.88	3873.59
425.07	3847.84
425.26	3857.20
425.45	3983.59
425.64	3805.71
425.83	3894.65
426.01	3988.27
426.20	4032.74
426.39	3976.57
426.58	3922.74
426.77	3892.31
426.96	4032.74
427.15	4042.11
427.33	4236.37
427.52	4056.15
427.71	3950.82
427.90	4070.19
428.09	4091.26
428.28	4149.77
428.46	4126.36
428.65	4149.77
428.84	4332.33
429.03	4280.84
429.22	4053.81
429.40	4189.56
429.59	4063.17
429.78	3868.91
429.97	3871.25
430.16	3995.29
430.34	4187.22
430.53	4257.43
430.72	4198.92
430.91	4285.52
431.10	4423.61
431.28	4411.91
431.47	4650.64
431.66	4699.80
431.85	4507.87
432.03	4573.41
432.22	4585.11
432.41	4631.92
432.60	4695.11
432.79	4711.50
432.97	4758.31
433.16	4746.61
433.35	4432.97
433.54	4472.76
433.72	4678.73
433.91	4589.79
434.10	4826.18
434.28	4784.06
434.47	4961.94
434.66	4755.97
434.85	4903.42
435.03	5027.47
435.22	4971.30
435.41	5123.43
435.59	5186.63
435.78	5132.79
435.97	5252.16
436.16	5235.78
436.34	5104.71
436.53	5207.69
436.72	5289.61
436.90	5006.41
437.09	5233.44
437.28	5062.58
437.46	5011.09
437.65	5207.69
437.84	5181.95
438.02	5198.33
438.21	5203.01
438.40	5039.17
438.58	5322.38
438.77	5364.51
438.96	5481.53
439.14	5612.60
439.33	5666.44
439.52	5584.52
439.70	5654.73
439.89	5621.97
440.08	5659.42
440.26	5764.74
440.45	5792.83
440.63	5841.98
440.82	5895.81
441.01	5886.45
441.19	5870.06
441.38	6022.20
441.57	5987.09
441.75	6179.01
441.94	6272.64
442.12	6296.04
442.31	6312.42
442.50	6331.15
442.68	6356.90
442.87	6246.89
443.05	6197.74
443.24	6581.59
443.43	6537.12
443.61	6354.55
443.80	6616.69
443.98	6326.47
444.17	6370.94
444.35	6534.78
444.54	6757.13
444.73	6581.59
444.91	6387.32
445.10	6410.73
445.28	6342.85
445.47	6485.62
445.65	6434.13
445.84	6471.58
446.02	6656.48
446.21	6509.03
446.39	6420.09
446.58	6532.44
446.77	6609.67
446.95	6373.28
447.14	6466.90
447.32	6773.51
447.51	6663.51
447.69	6684.57
447.88	6644.78
448.06	6733.72
448.25	6661.16
448.43	6913.94
448.62	6579.25
448.80	6640.10
448.99	6832.02
449.17	6848.41
449.36	6825.00
449.54	6995.86
449.73	6932.67
449.91	7155.02
450.10	6986.50
450.28	7300.13
450.46	7239.28
450.65	7082.46
450.83	7122.25
451.02	7250.98
451.20	7211.19
451.39	7082.46
451.57	7262.68
451.76	7281.41
451.94	7269.70
452.13	7204.17
452.31	7115.23
452.49	7171.40
452.68	7091.82
452.86	7335.24
453.05	7201.83
453.23	7485.03
453.42	7265.02
453.60	7424.18
453.78	7396.09
453.97	7412.48
454.15	7330.56
454.34	7236.94
454.52	7527.16
454.70	7410.14
454.89	7529.50
455.07	7454.61
455.26	7463.97
455.44	7786.96
455.62	7695.68
455.81	7679.30
455.99	7826.75
456.17	7786.96
456.36	7845.48
456.54	7983.57
456.73	7913.35
456.91	8058.46
457.09	8102.93
457.28	8119.32
457.46	7962.50
457.64	8119.32
457.83	8105.28
458.01	8107.62
458.19	8173.15
458.38	8086.55
458.56	8276.13
458.74	8131.02
458.93	8163.79
459.11	8348.69
459.29	8271.45
459.48	8423.59
459.66	8269.11
459.84	8404.86
460.03	8535.93
460.21	8641.26
460.39	8557.00
460.57	8400.18
460.76	8566.36
460.94	8758.28
461.12	8524.23
461.31	8603.81
461.49	8835.52
461.67	8678.71
461.85	8884.67
462.04	8842.54
462.22	9020.42
462.40	8912.76
462.59	8713.81
462.77	8816.80
462.95	8905.74
463.13	8894.04
463.32	8641.26
463.50	9011.06
463.68	9046.17
463.86	8931.48
464.05	8875.31
464.23	8769.99
464.41	9116.39
464.59	8833.18
464.78	9200.65
464.96	9013.40
465.14	8950.21
465.32	9266.18
465.50	9137.45
465.69	9320.01
465.87	9214.69
466.05	9254.48
466.23	9252.14
466.41	9153.84
466.60	9373.85
466.78	9027.45
466.96	9336.40
467.14	9404.27
467.32	9385.55
467.51	9645.35
467.69	9170.22
467.87	9338.74
468.05	9523.64
468.23	9525.98
468.41	9474.49
468.60	9593.86
468.78	9652.37
468.96	9504.92
469.14	9853.66
469.32	9975.36
469.50	9603.22
469.69	9750.67
469.87	9884.08
470.05	9729.61
470.23	9832.59
470.41	9664.07
470.59	10017.49
470.77	9834.93
470.95	9956.64
471.14	9961.32
471.32	9853.66
471.50	10087.71
471.68	10221.12
471.86	10338.15
472.04	10499.64
472.22	10544.11
472.40	10244.52
472.58	10420.06
472.77	10485.60
472.95	10576.88
473.13	10885.83
473.31	10394.32
473.49	10420.06
473.67	10555.82
473.85	10836.68
474.03	10853.06
474.21	11084.78
474.39	10967.75
474.57	11068.39
474.75	11049.67
474.93	11101.16
475.12	11101.16
475.30	11129.25
475.48	11185.42
475.66	11276.70
475.84	11269.68
476.02	11477.99
476.20	11297.77
476.38	11548.20
476.56	11948.43
476.74	11721.40
476.92	11866.52
477.10	11707.36
477.28	12030.35
477.46	12177.81
477.64	12112.27
477.82	12472.71
478.00	12664.64
478.18	12547.61
478.36	12561.66
478.54	12456.33
478.72	12475.06
478.90	13081.25
479.08	12985.29
479.26	12929.12
479.44	13179.56
479.62	13380.84
479.80	13289.56
479.98	13212.32
480.16	13827.88
480.34	13537.66
480.52	13956.61
480.70	13841.93
480.88	13675.75
481.06	13809.16
481.24	13937.89
481.41	14178.97
481.59	14244.50
481.77	14286.63
481.95	14485.58
482.13	14413.02
482.31	14506.64
482.49	14967.73
482.67	14628.35
482.85	14946.66
483.03	15356.25
483.21	15110.50
483.39	15349.23
483.57	15482.64
483.74	15295.40
483.92	15428.81
484.10	15758.83
484.28	15576.27
484.46	16102.89
484.64	16168.42
484.82	15761.17
485.00	16229.27
485.18	16570.99
485.35	16332.26
485.53	16294.81
485.71	16196.51
485.89	16669.30
486.07	16334.60
486.25	16453.97
486.43	16922.07
486.61	17013.35
486.78	17181.87
486.96	17181.87
487.14	17568.06
487.32	17680.41
487.50	18216.39
487.68	18288.95
487.85	18230.43
488.03	18670.45
488.21	18553.43
488.39	18391.93
488.57	18391.93
488.75	18782.80
488.92	19044.94
489.10	19447.51
489.28	19332.82
489.46	19630.07
489.64	19775.19
489.81	19976.47
489.99	19913.28
490.17	19948.39
490.35	20554.58
490.53	20095.84
490.70	20154.35
490.88	20727.78
491.06	20720.76
491.24	20723.10
491.41	20814.38
491.59	20936.09
491.77	20467.98
491.95	21062.48
492.13	21369.09
492.30	21418.24
492.48	21673.36
492.66	21652.30
492.84	21797.41
493.01	21965.93
493.19	22118.06
493.37	22108.70
493.54	22408.29
493.72	22869.37
493.90	22541.70
494.08	22941.93
494.25	23014.49
494.43	23178.33
494.61	23232.16
494.79	23491.96
494.96	23248.54
495.14	23487.28
495.32	23482.59
495.49	23555.15
495.67	23826.65
495.85	23878.15
496.02	24395.40
496.20	24144.97
496.38	24383.70
496.55	24577.97
496.73	24912.66
496.91	24938.41
497.09	24898.62
497.26	24994.58
497.44	25067.14
497.62	25118.63
497.79	25427.58
497.97	24650.52
498.14	25291.83
498.32	25542.27
498.50	25610.14
498.67	25762.28
498.85	26024.42
499.03	26370.82
499.20	26424.65
499.38	26366.13
499.56	26167.19
499.73	26651.68
499.91	26426.99
500.08	26696.15
500.26	26340.39
500.44	26539.33
500.61	27012.12
500.79	26534.65
500.97	26803.82
501.14	27173.62
501.32	26984.04
501.49	27524.70
501.67	26899.78
501.84	27426.40
502.02	27428.74
502.20	27391.29
502.37	27833.65
502.55	27456.82
502.72	28065.36
502.90	28233.88
503.07	27744.71
503.25	28030.26
503.43	27908.55
503.60	28156.64
503.78	27999.83
503.95	27894.50
504.13	28673.90
504.30	28627.09
504.48	28552.20
504.65	28907.96
504.83	28821.36
505.01	29516.50
505.18	29362.02
505.36	29497.77
505.53	29673.31
505.71	30066.52
505.88	29610.12
506.06	29420.53
506.23	29567.99
506.41	29708.42
506.58	29970.56
506.76	29881.62
506.93	29603.10
507.11	29591.39
507.28	30008.01
507.46	29825.45
507.63	29799.70
507.81	30134.40
507.98	29965.88
508.16	30600.16
508.33	30429.30
508.50	30614.21
508.68	31068.27
508.85	30850.60
509.03	30974.65
509.20	30866.98
509.38	31047.21
509.55	30892.73
509.73	31014.44
509.90	31496.59
510.08	30918.48
510.25	31199.34
510.42	31660.43
510.60	31969.38
510.77	31660.43
510.95	32065.34
511.12	31747.03
511.30	31985.76
511.47	32446.85
511.64	32519.40
511.82	32430.46
511.99	32240.88
512.17	32407.06
512.34	32058.32
512.51	32542.81
512.69	32568.55
512.86	32664.52
513.04	32971.13
513.21	33055.39
513.38	32554.51
513.56	32739.41
513.73	33039.00
513.90	32842.40
514.08	33027.30
514.25	33205.18
514.43	33233.27
514.60	33301.14
514.77	33294.12
514.95	33635.84
515.12	33223.90
515.29	33689.67
515.47	33684.99
515.64	33811.38
515.81	33708.40
515.99	33422.85
516.16	33926.07
516.33	33823.08
516.51	33504.77
516.68	33647.54
516.85	33315.19
517.03	33387.74
517.20	33942.45
517.37	34277.15
517.54	34270.12
517.72	34080.54
517.89	33993.94
518.06	34375.45
518.24	34059.48
518.41	34136.71
518.58	34546.31
518.75	34871.64
518.93	35117.40
519.10	34459.71
519.27	34768.66
519.45	35285.92
519.62	34965.26
519.79	35332.73
519.96	35618.27
520.14	35295.28
520.31	35248.47
520.48	35400.60
520.65	35424.01
520.83	35976.37
521.00	35611.25
521.17	35597.21
521.34	36009.14
521.52	35842.96
521.69	36095.74
521.86	36091.06
522.03	35847.64
522.20	36362.56
522.38	35999.78
522.55	36423.42
522.72	36329.80
522.89	36552.15
523.07	36755.77
523.24	36671.51
523.41	37193.45
523.58	36830.67
523.75	37296.44
523.92	37125.58
524.10	37060.04
524.27	37237.92
524.44	36914.93
524.61	37331.54
524.78	37652.20
524.96	37392.40
525.13	37275.37
525.30	37743.48
525.47	37631.13
525.64	37462.61
525.81	37825.40
525.98	37457.93
526.16	37462.61
526.33	37078.77
526.50	37797.31
526.67	37078.77
526.84	37324.52
527.01	37090.47
527.18	37809.01
527.36	38073.49
527.53	38445.64
527.70	38473.73
527.87	38373.08
528.04	38380.10
528.21	38490.11
528.38	38536.92
528.55	39236.74
528.72	38583.73
528.89	39157.16
529.07	38682.03
529.24	38459.68
529.41	38504.15
529.58	38731.18
529.75	38775.66
529.92	39203.97
530.09	39084.61
530.26	39147.80
530.43	39042.48
530.60	39108.01
530.77	39175.89
530.94	39636.97
531.11	39131.42
531.28	39421.64
531.46	39674.42
531.63	39948.26
531.80	39370.15
531.97	39431.01
532.14	39339.72
532.31	39089.29
532.48	39487.18
532.65	39452.07
532.82	39428.66
532.99	39826.56
533.16	39690.80
533.33	39810.17
533.50	40018.48
533.67	39735.27
533.84	39873.37
534.01	39936.56
534.18	39751.66
534.35	40128.48
534.52	40074.65
534.69	40416.37
534.86	40638.72
535.03	40357.86
535.20	40760.43
535.37	40713.62
535.54	40545.10
535.71	40484.25
535.88	40896.18
536.05	40849.37
536.22	40821.28
536.38	41013.21
536.55	40158.91
536.72	40526.38
536.89	40046.57
537.06	40502.97
537.23	41036.61
537.40	41254.28
537.57	41095.13
537.74	40765.11
537.91	41446.21
538.08	41294.07
538.25	40938.31
538.42	40938.31
538.59	41200.45
538.75	40971.08
538.92	41333.86
539.09	41691.96
539.26	41516.42
539.43	41638.13
539.60	41170.02
539.77	40657.45
539.94	41226.20
540.11	41471.95
540.28	41832.39
540.44	41406.42
540.61	41422.80
540.78	41289.39
540.95	40879.80
541.12	41411.10
541.29	41493.02
541.46	42176.45
541.62	41975.17
541.79	42572.00
541.96	42066.45
542.13	42029.00
542.30	42014.96
542.47	42380.08
542.63	42010.28
542.80	42351.99
542.97	42553.28
543.14	42602.43
543.31	42983.94
543.48	42408.17
543.64	43009.68
543.81	43236.72
543.98	43246.08
544.15	42724.14
544.32	43100.97
544.48	43419.28
544.65	42817.76
544.82	42667.97
544.99	43107.99
545.16	43129.05
545.32	42553.28
545.49	43590.14
545.66	43552.69
545.83	43065.86
546.00	43306.93
546.16	43140.75
546.33	43428.64
546.50	43016.71
546.67	43704.82
546.83	42838.83
547.00	43489.49
547.17	43119.69
547.34	43328.00
547.50	43021.39
547.67	43365.45
547.84	43742.27
548.00	43636.95
548.17	43669.72
548.34	43269.48
548.51	44318.04
548.67	43803.13
548.84	43655.67
549.01	43466.09
549.18	43611.20
549.34	43810.15
549.51	43789.08
549.68	44135.48
549.84	43573.75
550.01	44098.03
550.18	43854.62
550.34	43800.79
550.51	43594.82
550.68	43901.43
550.84	42965.21
551.01	43639.29
551.18	44048.88
551.34	44289.96
551.51	44081.65
551.68	44776.79
551.84	44325.07
552.01	44233.78
552.18	44215.06
552.34	44341.45
552.51	44165.91
552.68	44233.78
552.84	44360.17
553.01	44563.80
553.18	44299.32
553.34	44554.44
553.51	44479.54
553.67	44624.65
553.84	44652.74
554.01	44587.21
554.17	45020.20
554.34	44528.69
554.51	45036.59
554.67	44671.46
554.84	44587.21
555.00	44617.63
555.17	44718.28
555.33	44737.00
555.50	44561.46
555.67	44814.24
555.83	44636.36
556.00	44975.73
556.16	44957.01
556.33	45270.64
556.50	44858.71
556.66	45230.85
556.83	44172.93
556.99	45003.82
557.16	44889.13
557.32	44978.07
557.49	45645.13
557.65	44680.83
557.82	45378.31
557.98	45329.16
558.15	44949.99
558.32	44673.81
558.48	44917.22
558.65	45059.99
558.81	44741.68
558.98	44884.45
559.14	44924.24
559.31	45155.96
559.47	45380.65
559.64	45141.91
559.80	45186.38
559.97	45439.16
560.13	44910.20
560.30	45132.55
560.46	45331.50
560.63	45230.85
560.79	45497.67
560.96	45581.93
561.12	45312.77
561.29	45043.61
561.45	45394.69
561.61	45219.15
561.78	44900.84
561.94	45022.54
562.11	45223.83
562.27	45532.78
562.44	45593.64
562.60	45619.38
562.77	45886.20
562.93	45872.16
563.10	45317.45
563.26	45326.81
563.42	46312.18
563.59	45661.51
563.75	45301.07
563.92	45900.25
564.08	45329.16
564.24	45783.22
564.41	45865.14
564.57	45453.20
564.74	45722.37
564.90	45661.51
565.07	45610.02
565.23	45595.98
565.39	45881.52
565.56	45902.59
565.72	45120.85
565.88	45364.26
566.05	45495.33
566.21	45649.81
566.38	46050.04
566.54	45481.29
566.70	45902.59
566.87	45867.48
567.03	45961.10
567.19	45991.53
567.36	46138.98
567.52	45834.71
567.68	46195.15
567.85	45759.81
568.01	45804.28
568.17	45900.25
568.34	46167.07
568.50	45488.31
568.66	45673.21
568.83	46075.79
568.99	45415.76
569.15	45858.12
569.32	45799.60
569.48	45425.12
569.64	46066.42
569.81	45659.17
569.97	45495.33
570.13	45462.57
570.30	45535.12
570.46	45425.12
570.62	45247.24
570.78	45736.41
570.95	45432.14
571.11	45610.02
571.27	45890.88
571.43	45579.59
571.60	46146.00
571.76	45748.11
571.92	46017.27
572.09	46150.68
572.25	45982.16
572.41	45951.74
572.57	45860.46
572.74	46370.69
572.90	45907.27
573.06	46405.80
573.22	46028.98
573.38	46263.03
573.55	46110.89
573.71	46153.02
573.87	46157.70
574.03	45918.97
574.20	45989.19
574.36	45710.66
574.52	46078.13
574.68	46239.62
574.84	45773.86
575.01	45752.79
575.17	45874.50
575.33	45595.98
575.49	45886.20
575.65	46071.10
575.82	46330.90
575.98	45441.50
576.14	46581.34
576.30	46057.06
576.46	45755.13
576.62	46089.83
576.79	46064.08
576.95	45717.68
577.11	46391.76
577.27	46286.43
577.43	46021.95
577.59	46000.89
577.75	45902.59
577.92	45502.35
578.08	45713.00
578.24	45682.58
578.40	45998.55
578.56	46391.76
578.72	46124.94
578.88	46405.80
579.04	46403.46
579.21	45504.70
579.37	46038.34
579.53	46026.63
579.69	46045.36
579.85	45844.07
580.01	46190.47
580.17	45933.01
580.33	46117.92
580.49	45773.86
580.65	46045.36
580.82	46003.23
580.98	45890.88
581.14	45869.82
581.30	45982.16
581.46	46213.88
581.62	46351.97
581.78	46115.58
581.94	46588.36
582.10	46258.35
582.26	46103.87
582.42	46384.74
582.58	45565.55
582.74	46169.41
582.90	46525.17
583.06	46199.83
583.22	46366.01
583.38	46684.33
583.54	46333.24
583.70	46628.15
583.86	46263.03
584.02	45935.35
584.18	46050.04
584.34	46120.26
584.50	46251.33
584.66	46291.12
584.82	46073.45
584.98	46108.55
585.14	46253.67
585.30	45787.90
585.46	45813.65
585.62	45848.75
585.78	45553.85
585.94	45436.82
586.10	45862.80
586.26	45755.13
586.42	46066.42
586.58	46768.58
586.74	46204.52
586.90	46068.76
587.06	46520.49
587.22	46150.68
587.38	46178.77
587.54	46003.23
587.70	46534.53
587.86	46394.10
588.02	46218.56
588.18	46335.59
588.34	46021.95
588.49	45530.44
588.65	45614.70
588.81	45448.52
588.97	45572.57
589.13	45591.30
589.29	45848.75
589.45	45790.24
589.61	45780.88
589.77	46232.60
589.93	46174.09
590.08	46759.22
590.24	46375.37
590.40	46473.68
590.56	46824.76
590.72	46560.28
590.88	45991.53
591.04	46131.96
591.20	46342.61
591.35	46597.73
591.51	47072.85
591.67	46433.89
591.83	46110.89
591.99	46398.78
592.15	46382.40
592.31	46597.73
592.46	46490.06
592.62	46052.38
592.78	46469.00
592.94	46099.19
593.10	46256.01
593.26	46639.86
593.41	46590.70
593.57	46138.98
593.73	46115.58
593.89	46527.51
594.05	46838.80
594.20	46188.13
594.36	46167.07
594.52	46284.09
594.68	45930.67
594.84	46382.40
594.99	46036.00
595.15	46539.21
595.31	46497.08
595.47	46609.43
595.62	46248.99
595.78	46291.12
595.94	46391.76
596.10	46557.94
596.25	45947.06
596.41	46403.46
596.57	46248.99
596.73	46710.07
596.88	45940.04
597.04	46333.24
597.20	46181.11
597.36	46286.43
597.51	46347.29
597.67	46583.68
597.83	46506.44
597.99	46719.43
598.14	46562.62
598.30	46473.68
598.46	46197.49
598.61	46450.27
598.77	46223.24
598.93	46487.72
599.09	46230.26
599.24	46586.02
599.40	46768.58
599.56	46569.64
599.71	46333.24
599.87	46160.05
600.03	46637.51
600.18	46075.79
600.34	46227.92
600.50	46398.78
600.65	46321.54
600.81	46520.49
600.97	46691.35
601.12	46780.29
601.28	46773.27
601.44	46253.67
601.59	45991.53
601.75	46476.02
601.91	45947.06
602.06	46197.49
602.22	46438.57
602.37	46447.93
602.53	46557.94
602.69	46396.44
602.84	46150.68
603.00	46204.52
603.16	46204.52
603.31	46218.56
603.47	46138.98
603.62	46174.09
603.78	46148.34
603.94	46525.17
604.09	46405.80
604.25	46059.40
604.40	46440.91
604.56	46237.28
604.71	46375.37
604.87	46340.27
605.03	46239.62
605.18	46337.93
605.34	46085.15
605.49	46073.45
605.65	46354.31
605.80	46361.33
605.96	46375.37
606.12	46461.97
606.27	46539.21
606.43	45935.35
606.58	46579.00
606.74	45914.29
606.89	46096.85
607.05	46211.54
607.20	46157.70
607.36	45656.83
607.51	46258.35
607.67	45963.44
607.82	46040.68
607.98	46024.29
608.13	45933.01
608.29	45862.80
608.44	45890.88
608.60	45675.55
608.75	45556.19
608.91	45958.76
609.06	46274.73
609.22	46265.37
609.37	46143.66
609.53	45874.50
609.68	46106.21
609.84	45869.82
609.99	45846.41
610.15	45858.12
610.30	46007.91
610.46	45343.20
610.61	45455.54
610.76	45970.46
610.92	45794.92
611.07	46216.22
611.23	45694.28
611.38	45876.84
611.54	45565.55
611.69	45495.33
611.84	45006.16
612.00	45436.82
612.15	45366.60
612.31	45661.51
612.46	45181.70
612.62	45450.86
612.77	45553.85
612.92	45783.22
613.08	45703.64
613.23	45427.46
613.39	45097.44
613.54	44631.68
613.69	45233.19
613.85	45074.04
614.00	45308.09
614.15	45289.37
614.31	45523.42
614.46	45462.57
614.62	45062.33
614.77	44994.46
614.92	45483.63
615.08	44971.05
615.23	45123.19
615.38	45071.70
615.54	44804.88
615.69	44699.55
615.84	44825.94
616.00	45244.90
616.15	44425.71
616.30	45191.06
616.46	44952.33
616.61	44744.02
616.76	44861.05
616.92	44580.18
617.07	44566.14
617.22	44325.07
617.37	45134.89
617.53	45055.31
617.68	44882.11
617.83	44720.62
617.99	44626.99
618.14	44521.67
618.29	44538.05
618.45	44414.01
618.60	44224.42
618.75	44219.74
618.90	44212.72
619.06	44186.97
619.21	44594.23
619.36	44868.07
619.51	44397.62
619.67	44355.49
619.82	44273.57
619.97	44301.66
620.12	44397.62
620.28	44208.04
620.43	44296.98
620.58	44428.05
620.73	44430.39
620.89	44325.07
621.04	44577.84
621.19	44376.56
621.34	44315.70
621.49	44275.91
621.65	44016.11
621.80	44266.55
621.95	43662.69
622.10	44313.36
622.25	43779.72
622.41	44053.56
622.56	43847.60
622.71	43800.79
622.86	44264.21
623.01	43969.30
623.16	43833.55
623.32	43934.20
623.47	43871.00
623.62	43992.71
623.77	44271.23
623.92	43622.90
624.07	43615.88
624.23	43524.60
624.38	43655.67
624.53	43580.78
624.68	43618.22
624.83	43828.87
624.98	43288.21
625.13	43152.46
625.29	43243.74
625.44	43278.85
625.59	42939.47
625.74	43225.01
625.89	43356.08
626.04	43098.62
626.19	43672.06
626.34	43655.67
626.49	43285.87
626.65	43423.96
626.80	43559.71
626.95	42951.17
627.10	42731.16
627.25	42593.07
627.40	42548.60
627.55	43070.54
627.70	42497.11
627.85	42401.14
628.00	42501.79
628.15	43000.32
628.30	42555.62
628.45	42976.92
628.60	42852.87
628.76	42817.76
628.91	42838.83
629.06	42480.72
629.21	42389.44
629.36	42309.86
629.51	42417.53
629.66	42286.46
629.81	42260.71
629.96	42281.78
630.11	42314.55
630.26	42714.78
630.41	42843.51
630.56	42476.04
630.71	42532.22
630.86	42057.09
631.01	41904.95
631.16	42754.57
631.31	42167.09
631.46	41879.21
631.61	42525.19
631.76	42178.79
631.91	42218.58
632.06	42436.25
632.21	42572.00
632.36	42426.89
632.51	41701.32
632.66	42026.66
632.81	41605.36
632.96	42265.39
633.10	41937.72
633.25	42197.52
633.40	42267.73
633.55	42061.77
633.70	41642.81
633.85	41614.72
634.00	41605.36
634.15	41617.07
634.30	42192.84
634.45	41900.27
634.60	41661.54
634.75	41717.71
634.90	41373.65
635.05	41432.16
635.19	41549.19
635.34	41617.07
635.49	41507.06
635.64	41399.40
635.79	41713.03
635.94	41441.53
636.09	41371.31
636.24	41090.44
636.39	41064.70
636.53	41413.44
636.68	41125.55
636.83	41038.95
636.98	41291.73
637.13	41038.95
637.28	41546.85
637.43	41605.36
637.57	41102.15
637.72	40823.62
637.87	40767.45
638.02	40978.10
638.17	41415.78
638.32	41230.88
638.46	41179.39
638.61	40877.46
638.76	40814.26
638.91	40987.46
639.06	40697.24
639.20	41345.56
639.35	41104.49
639.50	40828.30
639.65	40589.57
639.80	40739.36
639.94	40636.38
640.09	40973.42
640.24	40561.48
640.39	40425.73
640.54	40524.04
640.68	40493.61
640.83	40905.54
640.98	40341.47
641.13	40374.24
641.27	40407.01
641.42	40208.06
641.57	40587.23
641.72	40123.80
641.86	40292.32
642.01	40044.23
642.16	39824.22
642.31	39819.53
642.45	40254.87
642.60	40297.00
642.75	40163.59
642.90	40395.31
643.04	40187.00
643.19	39880.39
643.34	39976.35
643.48	39959.97
643.63	40306.37
643.78	39847.62
643.93	40332.11
644.07	39702.51
644.22	39686.12
644.37	39641.65
644.51	39859.32
644.66	39875.71
644.81	40217.43
644.95	40072.31
645.10	39934.22
645.25	40025.50
645.39	39761.02
645.54	39702.51
645.69	39597.18
645.83	39264.83
645.98	39786.77
646.13	39459.09
646.27	39889.75
646.42	39339.72
646.57	39409.94
646.71	39461.43
646.86	39290.57
647.00	39475.48
647.15	39627.61
647.30	39014.39
647.44	39122.05
647.59	39470.79
647.74	38876.30
647.88	39028.43
648.03	39257.81
648.17	39068.22
648.32	38967.58
648.47	39351.43
648.61	38979.28
648.76	39264.83
648.90	38962.90
649.05	39005.03
649.20	38747.57
649.34	39328.02
649.49	38855.23
649.63	38384.79
649.78	39136.10
649.92	38864.60
650.07	38738.21
650.21	38939.49
650.36	38785.02
650.51	38976.94
650.65	39264.83
650.80	39185.25
650.94	39040.14
651.09	39075.24
651.23	38389.47
651.38	38616.50
651.52	38462.02
651.67	38618.84
651.81	38735.87
651.96	38391.81
652.10	38801.40
652.25	38759.27
652.39	38602.46
652.54	39000.35
652.68	38295.85
652.83	38967.58
652.97	38845.87
653.12	38560.33
653.26	38059.45
653.41	37612.41
653.55	38087.54
653.70	38483.09
653.84	38258.40
653.99	37780.93
654.13	37876.89
654.27	37933.06
654.42	37610.07
654.56	38298.19
654.71	38096.90
654.85	37916.68
655.00	38333.29
655.14	37979.87
655.29	37902.64
655.43	37481.34
655.57	37291.76
655.72	37127.92
655.86	37399.42
656.01	36905.57
656.15	37156.00
656.30	36961.74
656.44	37296.44
656.58	37249.63
656.73	37450.91
656.87	37542.19
657.01	37509.43
657.16	37343.25
657.30	37659.22
657.45	36821.31
657.59	36769.82
657.73	37144.30
657.88	37792.63
658.02	37434.53
658.16	37460.27
658.31	37518.79
658.45	37359.63
658.60	37177.07
658.74	37326.86
658.88	37139.62
659.03	36931.31
659.17	36828.33
659.31	36474.91
659.46	37106.85
659.60	36910.25
659.74	37102.17
659.89	36678.54
660.03	36636.41
660.17	36790.88
660.32	36924.29
660.46	37029.62
660.60	36308.73
660.74	36643.43
660.89	36898.55
661.03	36156.60
661.17	36627.04
661.32	36163.62
661.46	36416.40
661.60	36481.93
661.74	36271.28
661.89	36290.01
662.03	36196.38
662.17	35988.08
662.31	35709.55
662.46	36540.44
662.60	36297.03
662.74	36343.84
662.88	36126.17
663.03	35566.78
663.17	35763.39
663.31	35473.16
663.45	35597.21
663.60	35566.78
663.74	35421.67
663.88	35739.98
664.02	35604.23
664.17	35791.47
664.31	34906.75
664.45	35065.91
664.59	34955.90
664.73	35318.68
664.88	35651.04
665.02	34597.80
665.16	35005.05
665.30	35108.04
665.44	34761.64
665.59	34660.99
665.73	34726.53
665.87	34522.90
666.01	34845.90
666.15	34506.52
666.29	34822.49
666.44	34714.83
666.58	34815.47
666.72	34597.80
666.86	34548.65
667.00	34527.58
667.14	34103.95
667.28	34302.89
667.43	34211.61
667.57	33993.94
667.71	34433.96
667.85	34279.49
667.99	34242.04
668.13	34209.27
668.27	34075.86
668.41	34202.25
668.56	33853.51
668.70	34024.37
668.84	33652.22
668.98	33195.82
669.12	33186.46
669.26	33809.04
669.40	33544.56
669.54	33701.37
669.68	33483.70
669.82	33301.14
669.96	33036.66
670.10	33109.22
670.25	33420.51
670.39	32912.61
670.53	33053.05
670.67	32912.61
670.81	33202.84
670.95	32744.09
671.09	32645.79
671.23	32421.10
671.37	32751.12
671.51	32402.38
671.65	33027.30
671.79	32526.42
671.93	32315.78
672.07	32540.47
672.21	32353.23
672.35	32137.90
672.49	32091.09
672.63	32528.77
672.77	32245.56
672.91	32079.38
673.05	31878.10
673.19	32119.17
673.33	31880.44
673.47	31868.73
673.61	31445.10
673.75	31335.09
673.89	31768.09
674.03	31220.41
674.17	31407.65
674.31	31330.41
674.45	31288.28
674.59	31330.41
674.73	31709.58
674.87	31271.90
675.01	31110.40
675.15	31143.17
675.29	30820.17
675.43	30820.17
675.56	30349.73
675.70	30876.35
675.84	30604.84
675.98	29537.56
676.12	30459.73
676.26	30756.98
676.40	30480.80
676.54	30410.58
676.68	30539.31
676.82	29788.00
676.96	29951.84
677.10	30106.31
677.23	29989.28
677.37	29626.50
677.51	30036.09
677.65	29883.96
677.79	28994.56
677.93	29572.67
678.07	29366.70
678.21	28737.10
678.34	29027.32
678.48	29111.58
678.62	28865.83
678.76	28685.61
678.90	28397.72
679.04	28526.45
679.18	28638.80
679.31	28187.07
679.45	28175.37
679.59	28332.18
679.73	28142.60
679.87	27840.67
680.00	27843.01
680.14	28074.73
680.28	28084.09
680.42	27583.21
680.56	27585.55
680.70	27702.58
680.83	27527.04
680.97	27199.37
681.11	27147.87
681.25	27555.13
681.39	27248.52
681.52	27309.37
681.66	27253.20
681.80	27124.47
681.94	26806.16
682.07	26738.28
682.21	26445.71
682.35	26452.73
682.49	26515.93
682.62	26113.36
682.76	26457.42
682.90	26352.09
683.04	25963.56
683.17	26326.35
683.31	25724.83
683.45	25713.13
683.59	25558.65
683.72	25771.64
683.86	25916.75
684.00	25701.42
684.13	25497.80
684.27	25085.86
684.41	25350.34
684.55	25469.71
684.68	25109.27
684.82	25294.17
684.96	24910.32
685.09	24781.59
685.23	24552.22
685.37	25008.62
685.50	24664.57
685.64	24620.10
685.78	24503.07
685.91	24285.40
686.05	24280.72
686.19	23983.47
686.32	23939.00
686.46	23587.92
686.60	23440.47
686.73	23225.14
686.87	23178.33
687.01	23016.83
687.14	23213.43
687.28	23201.73
687.42	23183.01
687.55	23246.20
687.69	23456.85
687.82	22925.55
687.96	22876.40
688.10	22794.48
688.23	22499.57
688.37	22628.30
688.50	22527.66
688.64	22427.01
688.78	22665.75
688.91	22267.86
689.05	22349.78
689.18	22073.59
689.32	21951.88
689.46	21982.31
689.59	22295.94
689.73	22443.40
689.86	21841.88
690.00	21605.49
690.13	21649.96
690.27	21642.93
690.41	21619.53
690.54	21500.16
690.68	21186.53
690.81	21509.52
690.95	21504.84
691.08	21216.96
691.22	20950.14
691.35	21158.44
691.49	21186.53
691.62	20844.81
691.76	21018.01
691.89	20823.75
692.03	20863.54
692.16	20603.74
692.30	20657.57
692.43	19896.89
692.57	20039.67
692.70	20166.06
692.84	20013.92
692.97	19812.63
693.11	19789.23
693.24	19548.15
693.38	19711.99
693.51	19648.80
693.65	19908.60
693.78	19494.32
693.92	19536.45
694.05	19393.68
694.19	19421.77
694.32	19370.27
694.45	19250.91
694.59	19138.56
694.72	18960.68
694.86	18771.10
694.99	18672.79
695.13	18845.99
695.26	18689.18
695.39	18782.80
695.53	18525.34
695.66	18745.35
695.80	18574.49
695.93	18630.66
696.07	18164.90
696.20	18380.23
696.33	18125.11
696.47	18150.85
696.60	18092.34
696.73	17577.42
696.87	17764.67
697.00	17764.67
697.14	17614.87
697.27	17577.42
697.40	17575.08
697.54	17406.56
697.67	17348.05
697.80	17263.79
697.94	17121.02
698.07	17195.92
698.21	16973.56
698.34	17085.91
698.47	16957.18
698.61	16947.82
698.74	16751.21
698.87	16863.56
699.01	16751.21
699.14	16552.27
699.27	16549.93
699.40	16446.94
699.54	16416.52
699.67	16460.99
699.80	16264.38
699.94	15913.30
700.07	15894.58
700.20	15917.98
700.34	15953.09
700.47	16058.42
700.60	15845.43
700.73	16126.29
700.87	15433.49
701.00	15648.82
701.13	15365.62
701.26	15152.63
701.40	15351.57
701.53	15452.22
701.66	15279.02
701.79	15082.41
701.93	15035.60
702.06	14897.51
702.19	15059.01
702.32	15042.62
702.46	14918.57
702.59	14787.50
702.72	14714.95
702.85	14728.99
702.99	14773.46
703.12	14551.11
703.25	14469.19
703.38	14265.57
703.51	14427.06
703.65	14736.01
703.78	14200.03
703.91	13973.00
704.04	13984.70
704.17	13837.25
704.31	13961.30
704.44	14160.24
704.57	13589.15
704.70	13664.05
704.83	13710.86
704.96	13881.72
705.10	13696.82
705.23	13680.43
>>>>>End Processed Spectral Data<<<<<
