SpectraSuite Data File
++++++++++++++++++++++++++++++++++++
Date: Fri Oct 25 10:43:32 EDT 2013
User: price-jones
Dark Spectrum Present: No
Reference Spectrum Present: No
Number of Sampled Component Spectra: 1
Spectrometers: USB2+H05261
Integration Time (usec): 100000 (USB2+H05261)
Spectra Averaged: 1 (USB2+H05261)
Boxcar Smoothing: 0 (USB2+H05261)
Correct for Electrical Dark: No (USB2+H05261)
Strobe/Lamp Enabled: No (USB2+H05261)
Correct for Detector Non-linearity: No (USB2+H05261)
Correct for Stray Light: No (USB2+H05261)
Number of Pixels in Processed Spectrum: 2048
>>>>>Begin Processed Spectral Data<<<<<
365.73	117.03
365.92	117.03
366.12	117.03
366.32	4.68
366.52	0.00
366.72	72.56
366.91	9.36
367.11	42.13
367.31	25.75
367.51	9.36
367.70	51.49
367.90	28.09
368.10	49.15
368.30	25.75
368.49	0.00
368.69	98.30
368.89	39.79
369.09	117.03
369.28	18.72
369.48	7.02
369.68	0.00
369.87	65.54
370.07	0.00
370.27	63.19
370.47	175.54
370.66	397.89
370.86	390.87
371.06	475.13
371.25	468.11
371.45	493.85
371.65	477.47
371.84	400.23
372.04	428.32
372.24	465.77
372.44	486.83
372.63	535.98
372.83	552.37
373.03	552.37
373.22	526.62
373.42	496.19
373.62	463.43
373.81	564.07
374.01	531.30
374.21	564.07
374.40	538.32
374.60	624.92
374.79	622.58
374.99	601.52
375.19	606.20
375.38	526.62
375.58	589.82
375.78	655.35
375.97	678.76
376.17	617.90
376.37	571.09
376.56	610.88
376.76	573.43
376.95	566.41
377.15	631.94
377.35	545.34
377.54	533.64
377.74	655.35
377.93	608.54
378.13	566.41
378.33	671.73
378.52	624.92
378.72	671.73
378.91	645.99
379.11	573.43
379.31	603.86
379.50	624.92
379.70	655.35
379.89	627.26
380.09	690.46
380.28	777.06
380.48	732.59
380.68	624.92
380.87	741.95
381.07	770.04
381.26	791.10
381.46	781.74
381.65	709.18
381.85	671.73
382.04	814.51
382.24	676.41
382.43	636.63
382.63	723.23
382.83	603.86
383.02	758.33
383.22	760.67
383.41	751.31
383.61	781.74
383.80	791.10
384.00	814.51
384.19	795.78
384.39	795.78
384.58	844.93
384.78	779.40
384.97	840.25
385.17	807.48
385.36	770.04
385.56	816.85
385.75	784.08
385.95	809.83
386.14	870.68
386.34	837.91
386.53	802.80
386.72	856.64
386.92	912.81
387.11	812.17
387.31	901.11
387.50	795.78
387.70	814.51
387.89	880.04
388.09	819.19
388.28	908.13
388.48	835.57
388.67	889.40
388.86	966.64
389.06	936.21
389.25	936.21
389.45	943.24
389.64	976.00
389.84	990.05
390.03	938.55
390.22	912.81
390.42	987.71
390.61	940.90
390.81	908.13
391.00	1013.45
391.19	1032.18
391.39	1137.50
391.58	1172.61
391.78	1086.01
391.97	1013.45
392.16	954.94
392.36	1027.50
392.55	1074.31
392.75	1034.52
392.94	1060.26
393.13	976.00
393.33	954.94
393.52	1029.84
393.71	1107.07
393.91	1137.50
394.10	1179.63
394.29	1163.25
394.49	1116.44
394.68	1146.86
394.88	1254.53
395.07	1315.38
395.26	1196.01
395.46	1240.48
395.65	1261.55
395.84	1217.08
396.04	1160.91
396.23	1252.19
396.42	1160.91
396.62	1156.22
396.81	1231.12
397.00	1266.23
397.19	1186.65
397.39	1366.87
397.58	1313.04
397.77	1413.68
397.97	1338.79
398.16	1397.30
398.35	1423.05
398.55	1451.13
398.74	1481.56
398.93	1486.24
399.12	1565.82
399.32	1444.11
399.51	1493.26
399.70	1528.37
399.90	1481.56
400.09	1617.31
400.28	1612.63
400.47	1483.90
400.67	1631.35
400.86	1685.19
401.05	1631.35
401.24	1722.63
401.44	1701.57
401.63	1703.91
401.82	1734.34
402.01	1715.61
402.21	1701.57
402.40	1722.63
402.59	1717.95
402.78	1825.62
402.97	1748.38
403.17	1778.81
403.36	1753.06
403.55	1795.19
403.74	1886.47
403.93	1963.71
404.13	1820.94
404.32	1820.94
404.51	1879.45
404.70	1914.56
404.89	1881.79
405.09	2012.86
405.28	2062.01
405.47	1923.92
405.66	1916.90
405.85	1940.30
406.05	2050.31
406.24	1966.05
406.43	1930.94
406.62	2092.44
406.81	2209.47
407.00	2101.80
407.20	2029.24
407.39	2125.21
407.58	2146.27
407.77	2148.61
407.96	2267.98
408.15	2253.94
408.34	2165.00
408.54	2204.78
408.73	2246.91
408.92	2359.26
409.11	2263.30
409.30	2370.96
409.49	2331.17
409.68	2183.72
409.87	2260.96
410.07	2352.24
410.26	2387.35
410.45	2373.30
410.64	2499.69
410.83	2518.42
411.02	2473.95
411.21	2546.50
411.40	2525.44
411.59	2630.76
411.78	2705.66
411.98	2609.70
412.17	2656.51
412.36	2684.59
412.55	2679.91
412.74	2637.78
412.93	2808.64
413.12	2729.06
413.31	2700.98
413.50	2745.45
413.69	2843.75
413.88	2836.73
414.07	2904.60
414.26	2939.71
414.45	2949.08
414.64	2899.92
414.83	3042.70
415.02	3021.63
415.22	3091.85
415.41	3145.68
415.60	3169.09
415.79	3213.56
415.98	3222.92
416.17	3290.79
416.36	3208.87
416.55	3187.81
416.74	3351.65
416.93	3288.45
417.12	3180.79
417.31	3393.78
417.50	3344.63
417.69	3606.77
417.88	3349.31
418.07	3375.05
418.26	3447.61
418.45	3389.10
418.64	3651.24
418.83	3562.30
419.02	3581.02
419.21	3637.19
419.39	3637.19
419.58	3658.26
419.77	3487.40
419.96	3705.07
420.15	3620.81
420.34	3801.03
420.53	3805.71
420.72	3889.97
420.91	3772.94
421.10	3765.92
421.29	3988.27
421.48	3801.03
421.67	3899.33
421.86	3700.39
422.05	3815.07
422.24	3756.56
422.43	3836.14
422.61	3735.50
422.80	3985.93
422.99	3983.59
423.18	3925.08
423.37	4004.66
423.56	3920.40
423.75	3889.97
423.94	3969.55
424.13	3557.61
424.32	3716.77
424.50	3964.87
424.69	4084.23
424.88	3934.44
425.07	3911.04
425.26	3824.44
425.45	3974.23
425.64	3925.08
425.83	3904.01
426.01	4093.60
426.20	4138.07
426.39	3887.63
426.58	3978.91
426.77	3955.51
426.96	3983.59
427.15	3950.82
427.33	4063.17
427.52	4091.26
427.71	4011.68
427.90	4147.43
428.09	4175.52
428.28	4205.94
428.46	4138.07
428.65	4180.20
428.84	4227.01
429.03	4208.28
429.22	4021.04
429.40	4107.64
429.59	4156.79
429.78	3976.57
429.97	3955.51
430.16	3943.80
430.34	4035.08
430.53	4088.92
430.72	4184.88
430.91	4175.52
431.10	4362.76
431.28	4634.26
431.47	4599.15
431.66	4521.92
431.85	4535.96
432.03	4674.05
432.22	4552.34
432.41	4629.58
432.60	4615.54
432.79	4748.95
432.97	4648.30
433.16	4809.80
433.35	4716.18
433.54	4664.69
433.72	4718.52
433.91	4718.52
434.10	4730.22
434.28	4840.23
434.47	4844.91
434.66	4868.31
434.85	4910.44
435.03	5081.30
435.22	5090.67
435.41	5114.07
435.59	5142.16
435.78	5085.98
435.97	5362.17
436.16	5132.79
436.34	5088.32
436.53	5074.28
436.72	5322.38
436.90	5130.45
437.09	5228.76
437.28	5203.01
437.46	5135.14
437.65	5186.63
437.84	5392.59
438.02	5097.69
438.21	5022.79
438.40	5142.16
438.58	5191.31
438.77	5336.42
438.96	5544.73
439.14	5603.24
439.33	5605.58
439.52	5591.54
439.70	5640.69
439.89	5493.24
440.08	5760.06
440.26	5619.63
440.45	5724.95
440.63	5806.87
440.82	6026.88
441.01	5734.31
441.19	6111.14
441.38	6143.91
441.57	6146.25
441.75	6235.19
441.94	6188.38
442.12	6476.26
442.31	6387.32
442.50	6335.83
442.68	6307.74
442.87	6338.17
443.05	6478.60
443.24	6438.81
443.43	6403.71
443.61	6471.58
443.80	6647.12
443.98	6370.94
444.17	6298.38
444.35	6277.32
444.54	6614.35
444.73	6462.22
444.91	6459.88
445.10	6497.33
445.28	6525.41
445.47	6303.06
445.65	6286.68
445.84	6548.82
446.02	6600.31
446.21	6602.65
446.39	6504.35
446.58	6483.28
446.77	6700.95
446.95	6565.20
447.14	6588.61
447.32	6675.21
447.51	6452.86
447.69	6478.60
447.88	6705.63
448.06	6731.38
448.25	6759.47
448.43	6693.93
448.62	6848.41
448.80	6722.02
448.99	6906.92
449.17	6803.94
449.36	6885.86
449.54	6979.48
449.73	6970.12
449.91	7136.29
450.10	6949.05
450.28	7166.72
450.46	7213.53
450.65	7260.34
450.83	7199.49
451.02	7234.60
451.20	7234.60
451.39	7126.93
451.57	7295.45
451.76	7145.66
451.94	7122.25
452.13	7274.38
452.31	7222.89
452.49	7042.67
452.68	7101.19
452.86	7283.75
453.05	7222.89
453.23	7353.96
453.42	7129.27
453.60	7250.98
453.78	7578.65
453.97	7382.05
454.15	7368.01
454.34	7145.66
454.52	7592.70
454.70	7524.82
454.89	7698.02
455.07	7513.12
455.26	7653.55
455.44	7817.39
455.62	7737.81
455.81	7545.89
455.99	7833.77
456.17	7770.58
456.36	7878.24
456.54	7934.42
456.73	7868.88
456.91	8243.37
457.09	8070.17
457.28	8189.53
457.46	8023.36
457.64	7985.91
457.83	8133.36
458.01	8175.49
458.19	8409.54
458.38	8238.69
458.56	8425.93
458.74	8084.21
458.93	8369.76
459.11	8336.99
459.29	8173.15
459.48	8372.10
459.66	8292.52
459.84	8503.17
460.03	8535.93
460.21	8390.82
460.39	8767.65
460.57	8683.39
460.76	8620.19
460.94	8561.68
461.12	8540.61
461.31	8741.90
461.49	8779.35
461.67	8592.11
461.85	8919.78
462.04	8762.97
462.22	9444.06
462.40	8901.06
462.59	8922.12
462.77	8769.99
462.95	8908.08
463.13	8854.25
463.32	9029.79
463.50	8978.30
463.68	9249.80
463.86	9081.28
464.05	8990.00
464.23	8908.08
464.41	8964.25
464.59	8950.21
464.78	9172.56
464.96	8966.59
465.14	9191.28
465.32	9212.35
465.50	9254.48
465.69	9425.34
465.87	9287.25
466.05	9158.52
466.23	9277.88
466.41	9018.08
466.60	9343.42
466.78	9401.93
466.96	9160.86
467.14	9270.86
467.32	9441.72
467.51	9418.32
467.69	9085.96
467.87	9448.74
468.05	9338.74
468.23	9411.29
468.41	9525.98
468.60	9657.05
468.78	9682.80
468.96	9502.58
469.14	9680.46
469.32	9870.04
469.50	9371.50
469.69	9701.52
469.87	9816.21
470.05	10033.88
470.23	9827.91
470.41	9717.90
470.59	9947.28
470.77	9884.08
470.95	9977.70
471.14	10253.89
471.32	9891.10
471.50	10366.23
471.68	10230.48
471.86	10270.27
472.04	10455.17
472.22	10656.46
472.40	10162.61
472.58	10499.64
472.77	10497.30
472.95	10530.07
473.13	10839.02
473.31	10686.89
473.49	10534.75
473.67	10675.18
473.85	10628.37
474.03	10909.24
474.21	10986.47
474.39	11201.80
474.57	11112.86
474.75	11098.82
474.93	11108.18
475.12	11260.32
475.30	11405.43
475.48	11250.96
475.66	11293.08
475.84	11246.27
476.02	11510.75
476.20	11485.01
476.38	11595.01
476.56	11899.28
476.74	11641.82
476.92	11810.34
477.10	11674.59
477.28	12002.27
477.46	12063.12
477.64	12294.83
477.82	12411.86
478.00	12699.75
478.18	12437.61
478.36	12746.56
478.54	12659.96
478.72	12791.03
478.90	13055.51
479.08	13018.06
479.26	13390.20
479.44	13121.04
479.62	13022.74
479.80	13345.73
479.98	13474.46
480.16	13912.14
480.34	13369.14
480.52	13642.98
480.70	13717.88
480.88	13425.31
481.06	13760.01
481.24	14106.41
481.41	14340.46
481.59	14265.57
481.77	14520.68
481.95	14368.55
482.13	14534.73
482.31	14626.01
482.49	15014.54
482.67	14864.74
482.85	15059.01
483.03	14951.34
483.21	15281.36
483.39	15309.44
483.57	15241.57
483.74	15346.89
483.92	15637.12
484.10	15557.54
484.28	16109.91
484.46	16194.17
484.64	16468.01
484.82	15896.92
485.00	16016.29
485.18	16437.58
485.35	16505.46
485.53	16084.16
485.71	16030.33
485.89	16318.22
486.07	16231.62
486.25	16795.68
486.43	16561.63
486.61	17106.98
486.78	17184.21
486.96	17532.95
487.14	17689.77
487.32	17673.39
487.50	17869.99
487.68	18052.55
487.85	18476.19
488.03	18312.35
488.21	18853.02
488.39	18553.43
488.57	18602.58
488.75	18593.22
488.92	18902.17
489.10	19339.85
489.28	19367.93
489.46	19613.69
489.64	19726.04
489.81	19985.83
489.99	20184.78
490.17	20299.47
490.35	20641.18
490.53	20283.08
490.70	20545.22
490.88	20334.57
491.06	20856.51
491.24	21050.78
491.41	20884.60
491.59	20664.59
491.77	20587.35
491.95	21151.42
492.13	21495.48
492.30	21542.29
492.48	21472.07
492.66	21577.40
492.84	22089.98
493.01	22099.34
493.19	21879.33
493.37	22197.64
493.54	22567.45
493.72	22342.75
493.90	22480.85
494.08	22497.23
494.25	23061.30
494.43	23204.07
494.61	23508.34
494.79	23503.66
494.96	23295.35
495.14	23328.12
495.32	23583.24
495.49	23798.57
495.67	23735.37
495.85	23805.59
496.02	24180.07
496.20	24182.42
496.38	24608.39
496.55	24355.61
496.73	25095.22
496.91	24746.48
497.09	25144.38
497.26	24779.25
497.44	24851.81
497.62	25209.91
497.79	25294.17
497.97	25373.75
498.14	25560.99
498.32	25579.71
498.50	25671.00
498.67	26033.78
498.85	25832.49
499.03	26309.96
499.20	26251.45
499.38	26096.97
499.56	26494.86
499.73	26560.40
499.91	26445.71
500.08	26412.95
500.26	26328.69
500.44	26639.98
500.61	26611.89
500.79	26611.89
500.97	26422.31
501.14	27175.96
501.32	27028.51
501.49	27164.26
501.67	27433.42
501.84	27342.14
502.02	27468.53
502.20	27805.56
502.37	27723.65
502.55	27831.31
502.72	27798.54
502.90	27971.74
503.07	28198.77
503.25	28053.66
503.43	27885.14
503.60	27995.15
503.78	27927.27
503.95	28151.96
504.13	28416.44
504.30	28381.34
504.48	28542.83
504.65	28922.00
504.83	28690.29
505.01	29474.37
505.18	28980.51
505.36	29392.45
505.53	29427.56
505.71	29762.25
505.88	29738.85
506.06	29443.94
506.23	30036.09
506.41	29584.37
506.58	29832.47
506.76	29731.83
506.93	30043.12
507.11	29996.31
507.28	30085.25
507.46	30377.81
507.63	30136.74
507.81	30059.50
507.98	30125.04
508.16	30047.80
508.33	31016.78
508.50	30621.23
508.68	30682.08
508.85	30857.62
509.03	30782.73
509.20	30855.28
509.38	31229.77
509.55	31339.77
509.73	31246.15
509.90	31330.41
510.08	31400.63
510.25	30979.33
510.42	31318.71
510.60	31730.64
510.77	31587.87
510.95	32149.60
511.12	31910.86
511.30	31868.73
511.47	32297.05
511.64	32212.79
511.82	32299.39
511.99	32570.90
512.17	32212.79
512.34	32510.04
512.51	32615.37
512.69	32683.24
512.86	32858.78
513.04	33111.56
513.21	32912.61
513.38	32603.66
513.56	32730.05
513.73	32711.33
513.90	33090.49
514.08	32692.60
514.25	32814.31
514.43	33312.84
514.60	33429.87
514.77	33397.10
514.95	33633.50
515.12	33298.80
515.29	33539.88
515.47	33949.47
515.64	34373.11
515.81	33589.03
515.99	33780.95
516.16	33755.21
516.33	33315.19
516.51	33457.96
516.68	32964.10
516.85	33322.21
517.03	33434.55
517.20	33954.15
517.37	34199.91
517.54	34279.49
517.72	33996.28
517.89	33933.09
518.06	33741.16
518.24	34085.22
518.41	34663.33
518.58	34609.50
518.75	34560.35
518.93	34459.71
519.10	34848.24
519.27	34871.64
519.45	35007.39
519.62	35185.27
519.79	35583.16
519.96	35065.91
520.14	35337.41
520.31	35512.95
520.48	35644.02
520.65	35246.13
520.83	35952.97
521.00	36016.16
521.17	35913.18
521.34	35835.94
521.52	36072.34
521.69	36175.32
521.86	36353.20
522.03	36655.13
522.20	35976.37
522.38	36392.99
522.55	36126.17
522.72	36697.26
522.89	36254.90
523.07	36495.97
523.24	36690.24
523.41	36690.24
523.58	36627.04
523.75	37167.71
523.92	36882.16
524.10	37291.76
524.27	37134.94
524.44	37088.13
524.61	37614.75
524.78	37474.32
524.96	37809.01
525.13	37593.68
525.30	37586.66
525.47	37401.76
525.64	37394.74
525.81	37696.67
525.98	37504.74
526.16	37331.54
526.33	37251.97
526.50	37345.59
526.67	37287.07
526.84	37385.38
527.01	36870.46
527.18	37853.48
527.36	37706.03
527.53	38653.95
527.70	38630.54
527.87	38234.99
528.04	37816.04
528.21	38672.67
528.38	38148.39
528.55	38815.44
528.72	38466.70
528.89	39035.45
529.07	38670.33
529.24	38806.08
529.41	39140.78
529.58	38628.20
529.75	39173.55
529.92	38878.64
530.09	39405.26
530.26	38754.59
530.43	39093.97
530.60	38810.76
530.77	39538.67
530.94	39585.48
531.11	39615.91
531.28	39807.83
531.46	39463.77
531.63	39805.49
531.80	39627.61
531.97	39433.35
532.14	39452.07
532.31	38883.32
532.48	39632.29
532.65	39250.78
532.82	39613.57
532.99	39892.09
533.16	39927.20
533.33	39988.05
533.50	39735.27
533.67	39920.18
533.84	39599.52
534.01	40257.21
534.18	40275.94
534.35	40746.39
534.52	39779.74
534.69	40428.07
534.86	40650.42
535.03	40444.46
535.20	40657.45
535.37	40657.45
535.54	40678.51
535.71	40378.92
535.88	40697.24
536.05	40322.75
536.22	41074.06
536.38	40914.90
536.55	40381.26
536.72	40154.23
536.89	40561.48
537.06	40652.76
537.23	40931.29
537.40	41340.88
537.57	41003.85
537.74	41134.92
537.91	41537.49
538.08	41242.58
538.25	40669.15
538.42	41265.99
538.59	41223.86
538.75	41247.26
538.92	41425.14
539.09	41415.78
539.26	41155.98
539.43	41415.78
539.60	41474.29
539.77	41083.42
539.94	41591.32
540.11	40954.69
540.28	41647.49
540.44	41404.08
540.61	41202.79
540.78	40868.09
540.95	41509.40
541.12	41596.00
541.29	41488.34
541.46	41640.47
541.62	42092.19
541.79	41956.44
541.96	41806.65
542.13	41818.35
542.30	41970.49
542.47	42092.19
542.63	42337.95
542.80	42064.11
542.97	41855.80
543.14	42717.12
543.31	42183.48
543.48	42300.50
543.64	42384.76
543.81	42567.32
543.98	42630.52
544.15	42300.50
544.32	42789.67
544.48	43044.79
544.65	42859.89
544.82	43122.03
544.99	42462.00
545.16	42728.82
545.32	42660.94
545.49	43136.07
545.66	43260.12
545.83	42876.27
546.00	43105.65
546.16	42918.40
546.33	42740.52
546.50	43042.45
546.67	43430.98
546.83	43093.94
547.00	43138.41
547.17	42995.64
547.34	42752.23
547.50	43438.00
547.67	43826.53
547.84	43395.87
548.00	43384.17
548.17	43981.01
548.34	43337.36
548.51	43819.51
548.67	43643.97
548.84	43604.18
549.01	43959.94
549.18	43690.78
549.34	43487.15
549.51	43625.25
549.68	43906.11
549.84	43840.57
550.01	43718.87
550.18	43672.06
550.34	43878.02
550.51	44025.48
550.68	43969.30
550.84	43662.69
551.01	43765.68
551.18	44353.15
551.34	43777.38
551.51	44058.24
551.68	44100.37
551.84	44142.50
552.01	43845.26
552.18	44175.27
552.34	44442.09
552.51	44304.00
552.68	44170.59
552.84	44655.08
553.01	44521.67
553.18	44201.02
553.34	44016.11
553.51	44067.61
553.67	44477.20
553.84	44872.75
554.01	44327.41
554.17	44877.43
554.34	44643.38
554.51	44865.73
554.67	44877.43
554.84	44694.87
555.00	44418.69
555.17	44746.36
555.33	44811.90
555.50	44610.61
555.67	44729.98
555.83	44428.05
556.00	44832.96
556.16	45090.42
556.33	44718.28
556.50	44678.49
556.66	45043.61
556.83	44547.42
556.99	44694.87
557.16	45338.52
557.32	45244.90
557.49	45275.32
557.65	44816.58
557.82	44568.48
557.98	44804.88
558.15	44919.56
558.32	45027.23
558.48	44926.58
558.65	44692.53
558.81	44865.73
558.98	45050.63
559.14	44755.72
559.31	44687.85
559.47	45326.81
559.64	45200.43
559.80	45284.68
559.97	44954.67
560.13	44839.98
560.30	44961.69
560.46	45436.82
560.63	44884.45
560.79	45319.79
560.96	45368.94
561.12	44821.26
561.29	44589.55
561.45	45287.03
561.61	45174.68
561.78	44779.13
561.94	45022.54
562.11	45097.44
562.27	45228.51
562.44	45172.34
562.60	45471.93
562.77	45294.05
562.93	45340.86
563.10	45361.92
563.26	45230.85
563.42	45736.41
563.59	45289.37
563.75	45443.84
563.92	45656.83
564.08	45598.32
564.24	45722.37
564.41	45408.73
564.57	45570.23
564.74	45635.77
564.90	45745.77
565.07	45338.52
565.23	45717.68
565.39	45413.41
565.56	45191.06
565.72	45083.40
565.88	45528.10
566.05	45221.49
566.21	45361.92
566.38	45783.22
566.54	45401.71
566.70	45787.90
566.87	45977.48
567.03	45380.65
567.19	46075.79
567.36	45837.05
567.52	45780.88
567.68	45834.71
567.85	45478.95
568.01	45621.72
568.17	45626.40
568.34	45881.52
568.50	45450.86
568.66	45347.88
568.83	45776.20
568.99	45329.16
569.15	45411.07
569.32	45570.23
569.48	45432.14
569.64	45951.74
569.81	46099.19
569.97	45570.23
570.13	45963.44
570.30	45202.77
570.46	45598.32
570.62	45148.93
570.78	45144.25
570.95	45315.11
571.11	45640.45
571.27	45235.53
571.43	45481.29
571.60	46038.34
571.76	46024.29
571.92	45918.97
572.09	46000.89
572.25	45654.49
572.41	45748.11
572.57	45972.80
572.74	46417.50
572.90	46438.57
573.06	46082.81
573.22	46031.32
573.38	45750.45
573.55	45680.24
573.71	46188.13
573.87	45970.46
574.03	45404.05
574.20	46241.96
574.36	45834.71
574.52	45841.73
574.68	45780.88
574.84	45715.34
575.01	45961.10
575.17	45858.12
575.33	46225.58
575.49	45696.62
575.65	46284.09
575.82	45755.13
575.98	45399.37
576.14	46490.06
576.30	46190.47
576.46	45591.30
576.62	45977.48
576.79	45968.12
576.95	45675.55
577.11	46185.79
577.27	45858.12
577.43	45715.34
577.59	45689.60
577.75	45935.35
577.92	45539.80
578.08	45900.25
578.24	45642.79
578.40	45879.18
578.56	45869.82
578.72	46028.98
578.88	46279.41
579.04	46295.80
579.21	45743.43
579.37	45998.55
579.53	45764.49
579.69	45626.40
579.85	45610.02
580.01	46110.89
580.17	45815.99
580.33	45724.71
580.49	46021.95
580.65	45392.35
580.82	45935.35
580.98	45621.72
581.14	45937.69
581.30	46206.86
581.46	46059.40
581.62	46146.00
581.78	45815.99
581.94	46415.16
582.10	46169.41
582.26	46256.01
582.42	46375.37
582.58	46073.45
582.74	46068.76
582.90	46417.50
583.06	46050.04
583.22	46401.12
583.38	46443.25
583.54	46206.86
583.70	46138.98
583.86	46391.76
584.02	45848.75
584.18	46279.41
584.34	46293.46
584.50	46071.10
584.66	46087.49
584.82	45586.61
584.98	45900.25
585.14	45951.74
585.30	45626.40
585.46	46265.37
585.62	45682.58
585.78	45825.35
585.94	45696.62
586.10	45879.18
586.26	45935.35
586.42	46057.06
586.58	46169.41
586.74	46150.68
586.90	45851.09
587.06	45972.80
587.22	46342.61
587.38	45897.91
587.54	46099.19
587.70	46103.87
587.86	46050.04
588.02	45963.44
588.18	45736.41
588.34	45923.65
588.49	45523.42
588.65	45647.47
588.81	45394.69
588.97	45516.40
589.13	45492.99
589.29	45574.91
589.45	46007.91
589.61	45984.51
589.77	46237.28
589.93	46092.17
590.08	46174.09
590.24	46206.86
590.40	45961.10
590.56	46663.26
590.72	46293.46
590.88	46073.45
591.04	45860.46
591.20	46623.47
591.35	46005.57
591.51	46117.92
591.67	45858.12
591.83	46160.05
591.99	46059.40
592.15	46043.02
592.31	46548.57
592.46	45797.26
592.62	46291.12
592.78	45921.31
592.94	46330.90
593.10	46314.52
593.26	46415.16
593.41	46138.98
593.57	46307.50
593.73	46047.70
593.89	46188.13
594.05	46036.00
594.20	46457.29
594.36	46227.92
594.52	45890.88
594.68	46094.51
594.84	45766.84
594.99	46199.83
595.15	46094.51
595.31	46623.47
595.47	46387.08
595.62	46433.89
595.78	46384.74
595.94	46714.75
596.10	46169.41
596.25	45944.72
596.41	46052.38
596.57	46326.22
596.73	46487.72
596.88	46131.96
597.04	46394.10
597.20	46223.24
597.36	46124.94
597.51	46302.82
597.67	46532.19
597.83	46195.15
597.99	46188.13
598.14	46117.92
598.30	46422.19
598.46	46120.26
598.61	46251.33
598.77	46146.00
598.93	46059.40
599.09	46021.95
599.24	46426.87
599.40	46319.20
599.56	46536.87
599.71	46389.42
599.87	46146.00
600.03	46461.97
600.18	46337.93
600.34	46618.79
600.50	45860.46
600.65	46071.10
600.81	46417.50
600.97	46281.75
601.12	46426.87
601.28	46080.47
601.44	45851.09
601.59	45801.94
601.75	45771.52
601.91	46349.63
602.06	45940.04
602.22	46120.26
602.37	46167.07
602.53	46211.54
602.69	46518.15
602.84	45907.27
603.00	46106.21
603.16	45996.21
603.31	45933.01
603.47	46227.92
603.62	45455.54
603.78	46564.96
603.94	46061.74
604.09	46550.91
604.25	45717.68
604.40	46366.01
604.56	46040.68
604.71	46274.73
604.87	46106.21
605.03	46024.29
605.18	46312.18
605.34	45858.12
605.49	45963.44
605.65	46302.82
605.80	45823.01
605.96	46178.77
606.12	46178.77
606.27	46204.52
606.43	45759.81
606.58	45825.35
606.74	46031.32
606.89	45869.82
607.05	46356.65
607.20	45890.88
607.36	46141.32
607.51	46321.54
607.67	46054.72
607.82	45811.31
607.98	45993.87
608.13	45462.57
608.29	45989.19
608.44	45514.06
608.60	45553.85
608.75	45879.18
608.91	46005.57
609.06	45823.01
609.22	45825.35
609.37	45794.92
609.53	45804.28
609.68	45855.78
609.84	45961.10
609.99	45485.97
610.15	45577.25
610.30	45661.51
610.46	45478.95
610.61	45663.85
610.76	45710.66
610.92	45813.65
611.07	45933.01
611.23	45815.99
611.38	45787.90
611.54	45799.60
611.69	45518.74
611.84	45083.40
612.00	45401.71
612.15	45455.54
612.31	45340.86
612.46	45048.29
612.62	45762.15
612.77	45518.74
612.92	45078.72
613.08	45139.57
613.23	45104.46
613.39	44636.36
613.54	44547.42
613.69	45153.62
613.85	45151.27
614.00	44816.58
614.15	45074.04
614.31	45158.30
614.46	45076.38
614.62	44839.98
614.77	44765.09
614.92	45071.70
615.08	44847.00
615.23	44793.17
615.38	44804.88
615.54	44711.25
615.69	44519.33
615.84	44594.23
616.00	44825.94
616.15	44629.34
616.30	44645.72
616.46	44650.40
616.61	44659.76
616.76	44474.86
616.92	44439.75
617.07	44449.11
617.22	44250.17
617.37	44795.51
617.53	44807.22
617.68	44531.03
617.83	45118.51
617.99	44128.46
618.14	44732.32
618.29	44217.40
618.45	44128.46
618.60	44215.06
618.75	44392.94
618.90	44098.03
619.06	44285.28
619.21	44083.99
619.36	44664.44
619.51	44261.87
619.67	44402.30
619.82	44156.55
619.97	44184.63
620.12	43826.53
620.28	43779.72
620.43	43985.69
620.58	43997.39
620.73	44041.86
620.89	44055.90
621.04	43868.66
621.19	44126.12
621.34	44514.65
621.49	43496.52
621.65	43976.33
621.80	44205.70
621.95	43828.87
622.10	43812.49
622.25	43765.68
622.41	44182.29
622.56	43917.81
622.71	44083.99
622.86	43803.13
623.01	43847.60
623.16	43838.23
623.32	43622.90
623.47	43959.94
623.62	43782.06
623.77	43983.35
623.92	43175.86
624.07	43473.11
624.23	43498.86
624.38	43533.96
624.53	43199.27
624.68	43849.94
624.83	43557.37
624.98	43159.48
625.13	42890.32
625.29	43365.45
625.44	42752.23
625.59	43037.77
625.74	43213.31
625.89	43009.68
626.04	43026.07
626.19	42845.85
626.34	42698.39
626.49	42796.70
626.65	43103.31
626.80	43028.41
626.95	42651.58
627.10	42642.22
627.25	42885.64
627.40	42799.04
627.55	42728.82
627.70	42567.32
627.85	42663.28
628.00	42794.36
628.15	42920.74
628.30	42651.58
628.45	42796.70
628.60	43096.28
628.76	42347.31
628.91	42574.34
629.06	42344.97
629.21	42391.78
629.36	42014.96
629.51	42241.99
629.66	42302.84
629.81	42344.97
629.96	42368.38
630.11	42794.36
630.26	42033.68
630.41	42600.09
630.56	42209.22
630.71	41867.50
630.86	41750.48
631.01	41975.17
631.16	41930.70
631.31	41806.65
631.46	41773.88
631.61	41776.22
631.76	42075.81
631.91	42232.63
632.06	41759.84
632.21	41942.40
632.36	42569.66
632.51	41507.06
632.66	42117.94
632.81	41476.63
632.96	41661.54
633.10	41535.15
633.25	41918.99
633.40	42026.66
633.55	41280.03
633.70	41591.32
633.85	41598.34
634.00	42150.71
634.15	41385.35
634.30	41275.35
634.45	41036.61
634.60	41682.60
634.75	41413.44
634.90	41223.86
635.05	41333.86
635.19	41081.08
635.34	41794.95
635.49	41345.56
635.64	41261.30
635.79	41247.26
635.94	41125.55
636.09	40821.28
636.24	41092.79
636.39	40947.67
636.53	40931.29
636.68	41104.49
636.83	41092.79
636.98	40886.82
637.13	41081.08
637.28	41170.02
637.43	41591.32
637.57	41270.67
637.72	40790.86
637.87	40491.27
638.02	41060.02
638.17	41158.32
638.32	41050.66
638.46	41141.94
638.61	40517.01
638.76	40507.65
638.91	40706.60
639.06	40545.10
639.20	40481.91
639.35	40725.32
639.50	40594.25
639.65	41003.85
639.80	40409.35
639.94	40545.10
640.09	40032.52
640.24	40554.46
640.39	40222.11
640.54	40512.33
640.68	40142.53
640.83	40299.34
640.98	40009.12
641.13	40037.20
641.27	40360.20
641.42	40325.09
641.57	40271.26
641.72	40339.13
641.86	40116.78
642.01	39894.43
642.16	40250.19
642.31	39978.69
642.45	40252.53
642.60	39950.60
642.75	40102.74
642.90	39826.56
643.04	40123.80
643.19	40081.67
643.34	40067.63
643.48	40039.54
643.63	39899.11
643.78	40051.25
643.93	39732.93
644.07	39632.29
644.22	40027.84
644.37	39337.38
644.51	39477.82
644.66	39709.53
644.81	39634.63
644.95	39704.85
645.10	39412.28
645.25	39721.23
645.39	39817.19
645.54	39515.26
645.69	39335.04
645.83	38911.41
645.98	39330.36
646.13	39428.66
646.27	39182.91
646.42	39225.04
646.57	39566.76
646.71	39189.93
646.86	39454.41
647.00	38890.34
647.15	39007.37
647.30	39313.98
647.44	39222.70
647.59	39222.70
647.74	39040.14
647.88	39178.23
648.03	39040.14
648.17	38934.81
648.32	38962.90
648.47	38873.96
648.61	38340.32
648.76	38735.87
648.90	38923.11
649.05	38890.34
649.20	38733.53
649.34	39133.76
649.49	38607.14
649.63	38560.33
649.78	38862.26
649.92	38527.56
650.07	38775.66
650.21	38513.52
650.36	38859.91
650.51	38583.73
650.65	38962.90
650.80	38878.64
650.94	39199.29
651.09	38337.98
651.23	38218.61
651.38	38387.13
651.52	37799.65
651.67	38330.95
651.81	38188.18
651.96	38455.00
652.10	38022.00
652.25	38242.01
652.39	38464.36
652.54	38511.17
652.68	38251.38
652.83	38256.06
652.97	38595.43
653.12	38309.89
653.26	38321.59
653.41	37729.44
653.55	38031.36
653.70	38195.20
653.84	37839.44
653.99	37930.72
654.13	38012.64
654.27	37895.61
654.42	37586.66
654.56	37876.89
654.71	37801.99
654.85	37928.38
655.00	38242.01
655.14	37928.38
655.29	37371.33
655.43	37284.73
655.57	37390.06
655.72	37111.53
655.86	37317.50
656.01	36718.32
656.15	36620.02
656.30	37053.02
656.44	37404.10
656.58	37366.65
656.73	37181.75
656.87	37354.95
657.01	37296.44
657.16	37041.32
657.30	36809.61
657.45	36769.82
657.59	37240.26
657.73	37057.70
657.88	37069.40
658.02	37462.61
658.16	37003.87
658.31	37078.77
658.45	37111.53
658.60	36858.76
658.74	37191.11
658.88	37280.05
659.03	36718.32
659.17	36898.55
659.31	36666.83
659.46	37242.60
659.60	36814.29
659.74	36840.03
659.89	36027.87
660.03	36383.63
660.17	36678.54
660.32	36584.91
660.46	36357.88
660.60	36376.61
660.74	36121.49
660.89	36072.34
661.03	36297.03
661.17	36495.97
661.32	36252.56
661.46	36313.41
661.60	36098.08
661.74	36275.96
661.89	36133.19
662.03	36196.38
662.17	36107.44
662.31	35978.72
662.46	36341.50
662.60	35990.42
662.74	35873.39
662.88	36062.97
663.03	35782.11
663.17	35840.62
663.31	35302.30
663.45	35997.44
663.60	35672.10
663.74	35014.41
663.88	35246.13
664.02	35309.32
664.17	35281.24
664.31	35161.87
664.45	35145.48
664.59	35101.01
664.73	35519.97
664.88	34705.46
665.02	34754.61
665.16	35161.87
665.30	34494.82
665.44	34614.18
665.59	34738.23
665.73	34766.32
665.87	34639.93
666.01	34504.18
666.15	34359.06
666.29	34501.84
666.44	34747.59
666.58	34590.78
666.72	34616.52
666.86	34197.57
667.00	34443.32
667.14	34363.75
667.28	34059.48
667.43	34174.16
667.57	34213.95
667.71	34370.77
667.85	34019.69
667.99	34291.19
668.13	33853.51
668.27	33773.93
668.41	34139.05
668.56	33912.02
668.70	33926.07
668.84	33301.14
668.98	33469.66
669.12	33394.76
669.26	33462.64
669.40	33287.10
669.54	33053.05
669.68	33259.01
669.82	33282.42
669.96	33113.90
670.10	33156.03
670.25	32708.99
670.39	32486.64
670.53	32849.42
670.67	32982.83
670.81	33046.02
670.95	32559.19
671.09	32858.78
671.23	32393.01
671.37	32889.21
671.51	32350.88
671.65	32634.09
671.79	32156.62
671.93	32378.97
672.07	32252.58
672.21	31772.77
672.35	31873.42
672.49	31653.40
672.63	32072.36
672.77	32275.99
672.91	31751.71
673.05	31634.68
673.19	31695.53
673.33	31545.74
673.47	31557.44
673.61	31290.62
673.75	31449.78
673.89	31405.31
674.03	31204.02
674.17	31407.65
674.31	31204.02
674.45	31358.50
674.59	31229.77
674.73	31435.74
674.87	31033.16
675.01	31009.76
675.15	31157.21
675.29	30764.00
675.43	30738.26
675.56	30675.06
675.70	30607.19
675.84	30354.41
675.98	29645.23
676.12	30359.09
676.26	30478.46
676.40	30113.33
676.54	30366.11
676.68	30143.76
676.82	29773.95
676.96	29865.24
677.10	29708.42
677.23	29539.90
677.37	29331.59
677.51	29294.14
677.65	29612.46
677.79	28793.27
677.93	29266.06
678.07	28737.10
678.21	28624.75
678.34	28580.28
678.48	28570.92
678.62	28217.50
678.76	28690.29
678.90	28231.54
679.04	28070.04
679.18	28362.61
679.31	27920.25
679.45	28107.49
679.59	27910.89
679.73	27835.99
679.87	27999.83
680.00	27480.23
680.14	28053.66
680.28	27679.18
680.42	27644.07
680.56	27283.62
680.70	27332.78
680.83	27552.79
680.97	27206.39
681.11	27145.53
681.25	27358.52
681.39	27449.80
681.52	27016.80
681.66	26824.88
681.80	26581.46
681.94	26607.21
682.07	26431.67
682.21	26450.39
682.35	26412.95
682.49	26118.04
682.62	26457.42
682.76	25944.84
682.90	26291.24
683.04	26171.87
683.17	25876.96
683.31	25413.54
683.45	25919.09
683.59	25343.32
683.72	25785.68
683.86	25769.30
684.00	25371.41
684.13	25120.97
684.27	25233.32
684.41	25039.05
684.55	24889.26
684.68	24919.68
684.82	24807.34
684.96	24566.26
685.09	24725.42
685.23	24835.42
685.37	24641.16
685.50	24680.95
685.64	24336.89
685.78	24102.84
685.91	24215.18
686.05	23850.06
686.19	23845.38
686.32	23665.16
686.46	23627.71
686.60	23543.45
686.73	23014.49
686.87	23241.52
687.01	22927.89
687.14	22995.76
687.28	22728.94
687.42	23087.04
687.55	23070.66
687.69	23000.44
687.82	23000.44
687.96	23058.96
688.10	22661.07
688.23	22682.13
688.37	22331.05
688.50	22677.45
688.64	22354.46
688.78	22459.78
688.91	22150.83
689.05	22342.75
689.18	21818.47
689.32	21556.33
689.46	22391.91
689.59	22363.82
689.73	22082.95
689.86	21799.75
690.00	21689.74
690.13	21722.51
690.27	21392.50
690.41	21163.12
690.54	21242.70
690.68	21460.37
690.81	21223.98
690.95	21249.72
691.08	20936.09
691.22	21343.35
691.35	21104.61
691.49	20893.96
691.62	20739.49
691.76	21113.97
691.89	20992.26
692.03	20402.45
692.16	20533.52
692.30	20208.19
692.43	20348.62
692.57	19674.54
692.70	20030.30
692.84	19740.08
692.97	19873.49
693.11	19531.77
693.24	19803.27
693.38	19676.88
693.51	19676.88
693.65	19398.36
693.78	19358.57
693.92	19208.78
694.05	19466.24
694.19	19227.50
694.32	19232.18
694.45	19131.54
694.59	19283.67
694.72	19056.64
694.86	18965.36
694.99	18654.07
695.13	18803.86
695.26	18483.21
695.39	18515.98
695.53	18609.60
695.66	18625.98
695.80	18359.16
695.93	18204.69
696.07	18366.18
696.20	18209.37
696.33	18195.32
696.47	18120.43
696.60	17813.82
696.73	17858.29
696.87	17781.05
697.00	17436.99
697.14	17474.44
697.27	17324.65
697.40	17088.25
697.54	17301.24
697.67	17036.76
697.80	16889.31
697.94	16903.35
698.07	17137.40
698.21	17104.64
698.34	17132.72
698.47	16938.46
698.61	16964.20
698.74	16500.78
698.87	16819.09
699.01	16418.86
699.14	16346.30
699.27	16400.13
699.40	16147.36
699.54	16102.89
699.67	16056.08
699.80	15964.79
699.94	15976.50
700.07	16301.83
700.20	15936.71
700.34	15805.64
700.47	15747.12
700.60	15992.88
700.73	16107.57
700.87	15658.18
701.00	15454.56
701.13	15452.22
701.26	15506.05
701.40	15346.89
701.53	15047.30
701.66	15318.81
701.79	15019.22
701.93	14988.79
702.06	14916.23
702.19	14633.03
702.32	14984.11
702.46	15002.83
702.59	14761.76
702.72	14469.19
702.85	14696.22
702.99	14698.56
703.12	14211.73
703.25	14277.27
703.38	14333.44
703.51	14471.53
703.65	14085.34
703.78	13977.68
703.91	14200.03
704.04	13823.20
704.17	13804.48
704.31	13844.27
704.44	13701.50
704.57	13568.09
704.70	13635.96
704.83	13635.96
704.96	13575.11
705.10	13481.49
705.23	13467.44
>>>>>End Processed Spectral Data<<<<<
