SpectraSuite Data File
++++++++++++++++++++++++++++++++++++
Date: Fri Oct 25 10:44:36 EDT 2013
User: price-jones
Dark Spectrum Present: No
Reference Spectrum Present: No
Number of Sampled Component Spectra: 1
Spectrometers: USB2+H05261
Integration Time (usec): 100000 (USB2+H05261)
Spectra Averaged: 1 (USB2+H05261)
Boxcar Smoothing: 0 (USB2+H05261)
Correct for Electrical Dark: No (USB2+H05261)
Strobe/Lamp Enabled: No (USB2+H05261)
Correct for Detector Non-linearity: No (USB2+H05261)
Correct for Stray Light: No (USB2+H05261)
Number of Pixels in Processed Spectrum: 2048
>>>>>Begin Processed Spectral Data<<<<<
365.73	147.45
365.92	147.45
366.12	147.45
366.32	154.48
366.52	30.43
366.72	91.28
366.91	0.00
367.11	4.68
367.31	0.00
367.51	49.15
367.70	67.88
367.90	93.62
368.10	39.79
368.30	58.51
368.49	0.00
368.69	9.36
368.89	4.68
369.09	49.15
369.28	72.56
369.48	67.88
369.68	86.60
369.87	77.24
370.07	126.39
370.27	112.35
370.47	198.95
370.66	283.20
370.86	397.89
371.06	409.59
371.25	430.66
371.45	430.66
371.65	369.80
371.84	435.34
372.04	456.40
372.24	484.49
372.44	454.06
372.63	360.44
372.83	470.45
373.03	517.26
373.22	524.28
373.42	435.34
373.62	470.45
373.81	550.03
374.01	596.84
374.21	505.56
374.40	578.11
374.60	531.30
374.79	521.94
374.99	428.32
375.19	463.43
375.38	521.94
375.58	538.32
375.78	533.64
375.97	491.51
376.17	587.47
376.37	610.88
376.56	552.37
376.76	559.39
376.95	587.47
377.15	634.29
377.35	510.24
377.54	601.52
377.74	636.63
377.93	561.73
378.13	561.73
378.33	615.56
378.52	634.29
378.72	615.56
378.91	674.07
379.11	610.88
379.31	620.24
379.50	540.66
379.70	610.88
379.89	660.03
380.09	596.84
380.28	617.90
380.48	645.99
380.68	589.82
380.87	695.14
381.07	599.18
381.26	725.57
381.46	711.52
381.65	653.01
381.85	660.03
382.04	634.29
382.24	660.03
382.43	660.03
382.63	613.22
382.83	755.99
383.02	732.59
383.22	678.76
383.41	697.48
383.61	723.23
383.80	725.57
384.00	786.42
384.19	657.69
384.39	746.63
384.58	622.58
384.78	660.03
384.97	702.16
385.17	720.88
385.36	777.06
385.56	727.91
385.75	760.67
385.95	781.74
386.14	819.19
386.34	725.57
386.53	784.08
386.72	805.14
386.92	866.00
387.11	826.21
387.31	840.25
387.50	791.10
387.70	791.10
387.89	786.42
388.09	849.61
388.28	800.46
388.48	847.27
388.67	887.06
388.86	910.47
389.06	917.49
389.25	882.38
389.45	919.83
389.64	919.83
389.84	968.98
390.03	802.80
390.22	968.98
390.42	837.91
390.61	917.49
390.81	1015.79
391.00	994.73
391.19	861.32
391.39	959.62
391.58	992.39
391.78	875.36
391.97	854.30
392.16	954.94
392.36	931.53
392.55	997.07
392.75	926.85
392.94	940.90
393.13	884.72
393.33	926.85
393.52	931.53
393.71	978.34
393.91	1004.09
394.10	1046.22
394.29	1062.60
394.49	1090.69
394.68	1125.80
394.88	1060.26
395.07	1116.44
395.26	1067.28
395.46	1135.16
395.65	1151.54
395.84	1062.60
396.04	1160.91
396.23	1102.39
396.42	1160.91
396.62	1132.82
396.81	1146.86
397.00	1177.29
397.19	1132.82
397.39	1179.63
397.58	1188.99
397.77	1207.72
397.97	1235.80
398.16	1313.04
398.35	1275.59
398.55	1306.02
398.74	1273.25
398.93	1357.51
399.12	1327.08
399.32	1378.58
399.51	1366.87
399.70	1331.76
399.90	1455.81
400.09	1287.29
400.28	1394.96
400.47	1507.30
400.67	1465.18
400.86	1511.99
401.05	1455.81
401.24	1533.05
401.44	1493.26
401.63	1528.37
401.82	1533.05
402.01	1413.68
402.21	1572.84
402.40	1537.73
402.59	1589.22
402.78	1514.33
402.97	1558.80
403.17	1589.22
403.36	1561.14
403.55	1612.63
403.74	1652.42
403.93	1600.93
404.13	1659.44
404.32	1666.46
404.51	1680.50
404.70	1603.27
404.89	1657.10
405.09	1664.12
405.28	1671.14
405.47	1722.63
405.66	1781.15
405.85	1750.72
406.05	1776.47
406.24	1809.23
406.43	1785.83
406.62	1863.07
406.81	1820.94
407.00	1771.79
407.20	1930.94
407.39	1767.10
407.58	1912.22
407.77	1900.52
407.96	1968.39
408.15	2029.24
408.34	1914.56
408.54	2010.52
408.73	1982.43
408.92	2097.12
409.11	2211.81
409.30	2083.08
409.49	2066.69
409.68	2057.33
409.87	2066.69
410.07	2083.08
410.26	2134.57
410.45	2136.91
410.64	2150.95
410.83	2176.70
411.02	2223.51
411.21	2223.51
411.40	2279.68
411.59	2471.61
411.78	2359.26
411.98	2347.56
412.17	2342.88
412.36	2361.60
412.55	2333.51
412.74	2415.43
412.93	2509.05
413.12	2396.71
413.31	2450.54
413.50	2574.59
413.69	2537.14
413.88	2471.61
414.07	2534.80
414.26	2717.36
414.45	2689.28
414.64	2668.21
414.83	2712.68
415.02	2616.72
415.22	2658.85
415.41	2724.38
415.60	2757.15
415.79	2829.71
415.98	2883.54
416.17	2846.09
416.36	2918.65
416.55	2930.35
416.74	2871.84
416.93	2944.39
417.12	2803.96
417.31	3005.25
417.50	2981.84
417.69	3192.49
417.88	3091.85
418.07	2979.50
418.26	3047.38
418.45	3176.11
418.64	3279.09
418.83	3246.32
419.02	3236.96
419.21	3183.13
419.39	3225.26
419.58	3145.68
419.77	3197.17
419.96	3307.18
420.15	3213.56
420.34	3276.75
420.53	3316.54
420.72	3545.91
420.91	3382.07
421.10	3393.78
421.29	3438.25
421.48	3300.16
421.67	3501.44
421.86	3508.46
422.05	3520.17
422.24	3323.56
422.43	3382.07
422.61	3625.49
422.80	3550.59
422.99	3517.83
423.18	3431.23
423.37	3674.64
423.56	3522.51
423.75	3508.46
423.94	3520.17
424.13	3365.69
424.32	3435.91
424.50	3644.21
424.69	3707.41
424.88	3707.41
425.07	3466.33
425.26	3475.70
425.45	3520.17
425.64	3566.98
425.83	3494.42
426.01	3585.70
426.20	3487.40
426.39	3524.85
426.58	3653.58
426.77	3557.61
426.96	3702.73
427.15	3583.36
427.33	3758.90
427.52	3744.86
427.71	3852.52
427.90	3775.28
428.09	3861.88
428.28	3859.54
428.46	3676.98
428.65	3702.73
428.84	3896.99
429.03	3838.48
429.22	3808.05
429.40	3875.93
429.59	3847.84
429.78	3595.06
429.97	3651.24
430.16	3854.86
430.34	3911.04
430.53	3803.37
430.72	3875.93
430.91	3941.46
431.10	3948.48
431.28	3988.27
431.47	4093.60
431.66	4156.79
431.85	4011.68
432.03	4140.41
432.22	4170.83
432.41	4156.79
432.60	4145.09
432.79	4067.85
432.97	4348.72
433.16	4320.63
433.35	4278.50
433.54	4308.93
433.72	4325.31
433.91	4217.65
434.10	4351.06
434.28	4322.97
434.47	4475.10
434.66	4337.01
434.85	4447.02
435.03	4432.97
435.22	4507.87
435.41	4573.41
435.59	4573.41
435.78	4414.25
435.97	4622.56
436.16	4594.47
436.34	4535.96
436.53	4624.90
436.72	4713.84
436.90	4746.61
437.09	4809.80
437.28	4664.69
437.46	4671.71
437.65	4720.86
437.84	4674.05
438.02	4638.94
438.21	4699.80
438.40	4716.18
438.58	4985.34
438.77	5076.62
438.96	4877.68
439.14	4987.68
439.33	5095.35
439.52	5151.52
439.70	5034.49
439.89	5093.01
440.08	5235.78
440.26	5179.61
440.45	5167.90
440.63	5226.42
440.82	5495.58
441.01	5378.55
441.19	5406.64
441.38	5579.84
441.57	5523.66
441.75	5614.95
441.94	5600.90
442.12	5593.88
442.31	5741.33
442.50	5701.54
442.68	5666.44
442.87	5593.88
443.05	5757.72
443.24	5818.57
443.43	5692.18
443.61	5783.46
443.80	6005.81
443.98	5628.99
444.17	5624.31
444.35	5942.62
444.54	5963.68
444.73	5701.54
444.91	5947.30
445.10	6076.03
445.28	5996.45
445.47	5898.15
445.65	5703.89
445.84	5902.83
446.02	5982.41
446.21	5865.38
446.39	5916.87
446.58	5867.72
446.77	6071.35
446.95	6015.18
447.14	6157.95
447.32	6115.82
447.51	5937.94
447.69	5982.41
447.88	5975.39
448.06	5790.49
448.25	5963.68
448.43	6143.91
448.62	5977.73
448.80	5951.98
448.99	6155.61
449.17	6141.57
449.36	6127.52
449.54	6176.67
449.73	6333.49
449.91	6450.52
450.10	6511.37
450.28	6434.13
450.46	6434.13
450.65	6525.41
450.83	6511.37
451.02	6443.49
451.20	6541.80
451.39	6480.94
451.57	6272.64
451.76	6544.14
451.94	6396.68
452.13	6661.16
452.31	6569.88
452.49	6326.47
452.68	6384.98
452.86	6579.25
453.05	6719.68
453.23	6651.80
453.42	6651.80
453.60	6668.19
453.78	6677.55
453.97	6588.61
454.15	6656.48
454.34	6483.28
454.52	6897.56
454.70	6892.88
454.89	6778.19
455.07	6829.68
455.26	6897.56
455.44	7117.57
455.62	6998.20
455.81	7122.25
455.99	7080.12
456.17	6902.24
456.36	6993.52
456.54	7183.10
456.73	7267.36
456.91	7307.15
457.09	7475.67
457.28	7391.41
457.46	7190.13
457.64	7307.15
457.83	7447.58
458.01	7199.49
458.19	7501.42
458.38	7180.76
458.56	7492.05
458.74	7524.82
458.93	7653.55
459.11	7475.67
459.29	7627.81
459.48	7653.55
459.66	7562.27
459.84	7672.28
460.03	7707.38
460.21	7705.04
460.39	7749.51
460.57	7545.89
460.76	7719.09
460.94	7901.65
461.12	7932.08
461.31	7768.24
461.49	7925.05
461.67	7784.62
461.85	8018.68
462.04	7847.82
462.22	8189.53
462.40	8116.98
462.59	8009.31
462.77	8046.76
462.95	8016.33
463.13	8168.47
463.32	8222.30
463.50	8304.22
463.68	8219.96
463.86	8259.75
464.05	8189.53
464.23	8025.70
464.41	8470.40
464.59	8219.96
464.78	8531.25
464.96	8369.76
465.14	8070.17
465.32	8318.26
465.50	8313.58
465.69	8428.27
465.87	8332.31
466.05	8306.56
466.23	8524.23
466.41	8271.45
466.60	8659.98
466.78	8484.44
466.96	8470.40
467.14	8468.06
467.32	8491.46
467.51	8650.62
467.69	8269.11
467.87	8683.39
468.05	8798.07
468.23	8587.43
468.41	8559.34
468.60	8566.36
468.78	8683.39
468.96	8671.68
469.14	8851.91
469.32	8950.21
469.50	8777.01
469.69	8912.76
469.87	9034.47
470.05	9013.40
470.23	8905.74
470.41	9029.79
470.59	9020.42
470.77	9130.43
470.95	9130.43
471.14	9193.62
471.32	8910.42
471.50	9320.01
471.68	9350.44
471.86	9312.99
472.04	9371.50
472.22	9621.94
472.40	9142.13
472.58	9451.08
472.77	9605.56
472.95	9516.62
473.13	10094.73
473.31	9664.07
473.49	9500.23
473.67	9640.67
473.85	9774.08
474.03	9867.70
474.21	9984.73
474.39	10118.14
474.57	10045.58
474.75	10104.09
474.93	10195.37
475.12	10120.48
475.30	10384.96
475.48	10298.36
475.66	10054.94
475.84	10396.66
476.02	10406.02
476.20	10527.73
476.38	10532.41
476.56	10705.61
476.74	10754.76
476.92	10750.08
477.10	10768.80
477.28	11005.20
477.46	11012.22
477.64	11267.34
477.82	11094.14
478.00	11447.56
478.18	11351.60
478.36	11543.52
478.54	11548.20
478.72	11463.94
478.90	11789.28
479.08	11782.26
479.26	12203.55
479.44	12105.25
479.62	12004.61
479.80	11733.11
479.98	12393.14
480.16	12571.02
480.34	12184.83
480.52	12453.99
480.70	12788.69
480.88	12395.48
481.06	12556.97
481.24	12592.08
481.41	13062.53
481.59	13137.43
481.77	12985.29
481.95	13102.32
482.13	13224.03
482.31	13305.95
482.49	13521.27
482.67	13511.91
482.85	13916.83
483.03	14068.96
483.21	13984.70
483.39	13874.70
483.57	13926.19
483.74	14150.88
483.92	14340.46
484.10	14232.80
484.28	14764.10
484.46	14958.36
484.64	14904.53
484.82	14829.63
485.00	14841.34
485.18	15229.87
485.35	15236.89
485.53	14796.87
485.71	15021.56
485.89	15115.18
486.07	15344.55
486.25	15473.28
486.43	15445.20
486.61	15946.07
486.78	16035.01
486.96	16142.67
487.14	16252.68
487.32	16395.45
487.50	16393.11
487.68	16727.81
487.85	16812.07
488.03	16814.41
488.21	17076.55
488.39	16933.78
488.57	17224.00
488.75	17345.71
488.92	17759.98
489.10	17855.95
489.28	17994.04
489.46	18068.94
489.64	18162.56
489.81	18134.47
489.99	18712.58
490.17	18405.97
490.35	18537.04
490.53	18618.96
490.70	18733.65
490.88	18941.96
491.06	19014.51
491.24	19124.52
491.41	19215.80
491.59	19248.57
491.77	19264.95
491.95	19580.92
492.13	19517.73
492.30	19824.34
492.48	19899.23
492.66	20144.99
492.84	19665.18
493.01	20140.31
493.19	20058.39
493.37	20357.98
493.54	20872.90
493.72	20982.90
493.90	20762.89
494.08	20709.06
494.25	21301.22
494.43	21338.66
494.61	21497.82
494.79	21420.58
494.96	21284.83
495.14	21678.04
495.32	21799.75
495.49	21830.18
495.67	21797.41
495.85	22099.34
496.02	22668.09
496.20	22490.21
496.38	22532.34
496.55	22363.82
496.73	23175.98
496.91	22717.24
497.09	23094.07
497.26	23201.73
497.44	23278.97
497.62	23248.54
497.79	23281.31
497.97	23215.77
498.14	23419.40
498.32	23733.03
498.50	23917.93
498.67	23817.29
498.85	24053.69
499.03	24187.10
499.20	24325.19
499.38	24058.37
499.56	24482.00
499.73	24442.21
499.91	24559.24
500.08	24582.65
500.26	24467.96
500.44	24872.87
500.61	24819.04
500.79	24826.06
500.97	25067.14
501.14	25610.14
501.32	25104.59
501.49	25022.67
501.67	25130.33
501.84	25319.92
502.02	25420.56
502.20	25869.94
502.37	25867.60
502.55	25645.25
502.72	25888.67
502.90	26118.04
503.07	25792.70
503.25	26253.79
503.43	25968.24
503.60	26497.20
503.78	26146.12
503.95	26541.68
504.13	25860.58
504.30	26623.59
504.48	26235.06
504.65	27000.42
504.83	26829.56
505.01	27077.66
505.18	27021.48
505.36	27388.95
505.53	27197.02
505.71	27498.95
505.88	27318.73
506.06	27016.80
506.23	27274.26
506.41	27573.85
506.58	27491.93
506.76	27803.22
506.93	28093.45
507.11	27906.21
507.28	27859.40
507.46	27695.56
507.63	27950.68
507.81	27969.40
507.98	27779.82
508.16	28154.30
508.33	28861.15
508.50	28423.47
508.68	28659.86
508.85	29277.76
509.03	28875.19
509.20	28699.65
509.38	29362.02
509.55	29139.67
509.73	29088.18
509.90	29282.44
510.08	29364.36
510.25	29102.22
510.42	29200.52
510.60	29284.78
510.77	29610.12
510.95	29619.48
511.12	29600.76
511.30	30017.37
511.47	30024.39
511.64	30075.88
511.82	30298.23
511.99	29855.87
512.17	30387.18
512.34	29755.23
512.51	30347.39
512.69	30682.08
512.86	30288.87
513.04	30932.52
513.21	30359.09
513.38	30616.55
513.56	30988.69
513.73	30300.58
513.90	31016.78
514.08	30939.54
514.25	30939.54
514.43	31328.07
514.60	30988.69
514.77	30918.48
514.95	31171.25
515.12	31189.98
515.29	31541.06
515.47	31821.92
515.64	31660.43
515.81	31438.08
515.99	31552.76
516.16	31543.40
516.33	31737.66
516.51	31634.68
516.68	31573.83
516.85	31611.28
517.03	32016.19
517.20	32348.54
517.37	32123.85
517.54	32472.59
517.72	32472.59
517.89	32011.51
518.06	31819.58
518.24	32198.75
518.41	32011.51
518.58	32388.33
518.75	32538.13
518.93	32723.03
519.10	32666.86
519.27	32868.14
519.45	32704.31
519.62	32987.51
519.79	33221.56
519.96	33310.50
520.14	33331.57
520.31	33209.86
520.48	33455.62
520.65	33116.24
520.83	33556.26
521.00	33684.99
521.17	33827.76
521.34	33472.00
521.52	33958.83
521.69	33654.56
521.86	34005.64
522.03	33914.36
522.20	34412.90
522.38	34178.84
522.55	34595.46
522.72	34087.56
522.89	34361.40
523.07	34656.31
523.24	34333.32
523.41	34696.10
523.58	34682.06
523.75	34962.92
523.92	34969.94
524.10	34885.68
524.27	34967.60
524.44	35175.91
524.61	35253.15
524.78	35255.49
524.96	35590.19
525.13	35269.53
525.30	35379.54
525.47	35370.18
525.64	35264.85
525.81	35548.06
525.98	35805.52
526.16	35744.66
526.33	35241.45
526.50	35234.42
526.67	35260.17
526.84	35548.06
527.01	35482.52
527.18	35552.74
527.36	35819.56
527.53	35770.41
527.70	36566.19
527.87	36189.36
528.04	36065.31
528.21	36215.11
528.38	36168.30
528.55	36367.24
528.72	36226.81
528.89	36531.08
529.07	36486.61
529.24	35981.06
529.41	36584.91
529.58	36620.02
529.75	36587.25
529.92	37118.56
530.09	36952.38
530.26	36650.45
530.43	36978.12
530.60	36807.26
530.77	37207.50
530.94	37191.11
531.11	37043.66
531.28	37013.23
531.46	37223.88
531.63	37198.13
531.80	36940.68
531.97	37116.22
532.14	37380.70
532.31	37298.78
532.48	37509.43
532.65	37209.84
532.82	37326.86
532.99	37460.27
533.16	37450.91
533.33	37993.92
533.50	37635.81
533.67	38052.43
533.84	37394.74
534.01	37900.29
534.18	38150.73
534.35	37813.70
534.52	37816.04
534.69	38113.28
534.86	38174.14
535.03	37867.53
535.20	38567.35
535.37	38733.53
535.54	38316.91
535.71	38419.89
535.88	38377.76
536.05	38340.32
536.22	38440.96
536.38	38298.19
536.55	38319.25
536.72	38785.02
536.89	38785.02
537.06	38834.17
537.23	38974.60
537.40	38567.35
537.57	38934.81
537.74	38785.02
537.91	39428.66
538.08	38665.65
538.25	38824.81
538.42	38667.99
538.59	39192.27
538.75	38866.94
538.92	39108.01
539.09	38967.58
539.26	39800.81
539.43	39049.50
539.60	39236.74
539.77	39236.74
539.94	39407.60
540.11	39035.45
540.28	39508.24
540.44	39545.69
540.61	39419.30
540.78	38803.74
540.95	39658.04
541.12	39653.36
541.29	39210.99
541.46	39405.26
541.62	39548.03
541.79	39711.87
541.96	39475.48
542.13	39814.85
542.30	39700.17
542.47	39346.75
542.63	40130.83
542.80	40102.74
542.97	40678.51
543.14	40395.31
543.31	40329.77
543.48	40678.51
543.64	40474.88
543.81	40563.82
543.98	40545.10
544.15	40605.95
544.32	40657.45
544.48	40912.56
544.65	41137.26
544.82	40439.78
544.99	40804.90
545.16	40917.25
545.32	40877.46
545.49	40669.15
545.66	41308.11
545.83	41186.41
546.00	41425.14
546.16	40935.97
546.33	40673.83
546.50	40662.13
546.67	41008.53
546.83	40713.62
547.00	41134.92
547.17	40856.39
547.34	41029.59
547.50	41008.53
547.67	41619.41
547.84	41163.00
548.00	41422.80
548.17	41333.86
548.34	41542.17
548.51	41954.10
548.67	42029.00
548.84	42071.13
549.01	41680.26
549.18	41734.09
549.34	41691.96
549.51	41610.04
549.68	42178.79
549.84	42010.28
550.01	42298.16
550.18	41780.90
550.34	42122.62
550.51	41806.65
550.68	41436.84
550.84	41703.67
551.01	42316.89
551.18	41933.04
551.34	42007.94
551.51	42080.49
551.68	42113.26
551.84	42410.51
552.01	41918.99
552.18	42167.09
552.34	42059.43
552.51	42150.71
552.68	42541.58
552.84	42373.06
553.01	42567.32
553.18	42536.90
553.34	42637.54
553.51	42410.51
553.67	42363.70
553.84	42789.67
554.01	42623.50
554.17	42742.86
554.34	43037.77
554.51	42368.38
554.67	42810.74
554.84	42756.91
555.00	43007.34
555.17	42663.28
555.33	42782.65
555.50	42511.15
555.67	42918.40
555.83	42866.91
556.00	42600.09
556.16	42609.45
556.33	42857.55
556.50	42731.16
556.66	42864.57
556.83	43107.99
556.99	42878.61
557.16	42934.79
557.32	43206.29
557.49	43501.20
557.65	42658.60
557.82	43257.78
557.98	43112.67
558.15	43023.73
558.32	43016.71
558.48	43129.05
558.65	43168.84
558.81	43040.11
558.98	42850.53
559.14	43033.09
559.31	43545.67
559.47	43400.55
559.64	43395.87
559.80	43356.08
559.97	43555.03
560.13	43138.41
560.30	43388.85
560.46	43391.19
560.63	43358.42
560.79	43367.79
560.96	44116.76
561.12	43838.23
561.29	44020.80
561.45	43569.07
561.61	43440.34
561.78	43372.47
561.94	43419.28
562.11	43571.41
562.27	43679.08
562.44	43335.02
562.60	43716.53
562.77	43328.00
562.93	43138.41
563.10	43761.00
563.26	43243.74
563.42	44004.41
563.59	43342.04
563.75	43730.57
563.92	43718.87
564.08	43922.49
564.24	43931.86
564.41	43934.20
564.57	43693.12
564.74	43817.17
564.90	43842.92
565.07	43604.18
565.23	43636.95
565.39	43875.68
565.56	43962.28
565.72	43873.34
565.88	44044.20
566.05	43428.64
566.21	43798.44
566.38	44046.54
566.54	43934.20
566.70	44168.25
566.87	43992.71
567.03	44114.42
567.19	44383.58
567.36	44105.06
567.52	43728.23
567.68	44210.38
567.85	43978.67
568.01	43681.42
568.17	43744.61
568.34	44051.22
568.50	44149.53
568.66	43849.94
568.83	44161.23
568.99	43711.84
569.15	43873.34
569.32	43735.25
569.48	44058.24
569.64	44098.03
569.81	44409.32
569.97	43866.32
570.13	44196.34
570.30	43379.49
570.46	43929.51
570.62	43414.60
570.78	44020.80
570.95	43522.26
571.11	44662.10
571.27	44037.18
571.43	44020.80
571.60	44280.60
571.76	43873.34
571.92	44364.85
572.09	43978.67
572.25	44229.10
572.41	43931.86
572.57	44257.19
572.74	44509.97
572.90	44210.38
573.06	44512.31
573.22	44257.19
573.38	43863.98
573.55	43873.34
573.71	44458.48
573.87	44339.11
574.03	44388.26
574.20	44252.51
574.36	44018.46
574.52	44327.41
574.68	44219.74
574.84	43988.03
575.01	44114.42
575.17	44348.47
575.33	44011.43
575.49	43826.53
575.65	44039.52
575.82	44774.45
575.98	44081.65
576.14	44589.55
576.30	44287.62
576.46	44095.69
576.62	44315.70
576.79	44198.68
576.95	43929.51
577.11	44100.37
577.27	44526.35
577.43	43833.55
577.59	44102.71
577.75	44095.69
577.92	44226.76
578.08	44006.75
578.24	44404.64
578.40	44189.31
578.56	44442.09
578.72	44259.53
578.88	44793.17
579.04	44507.63
579.21	44189.31
579.37	44306.34
579.53	44659.76
579.69	44603.59
579.85	44676.15
580.01	44465.50
580.17	44425.71
580.33	44825.94
580.49	44311.02
580.65	44718.28
580.82	44151.87
580.98	44133.14
581.14	44477.20
581.30	44332.09
581.46	44474.86
581.62	44797.85
581.78	44388.26
581.94	44863.39
582.10	44500.61
582.26	44051.22
582.42	44521.67
582.58	44540.39
582.74	44268.89
582.90	44144.84
583.06	44952.33
583.22	44465.50
583.38	44755.72
583.54	44718.28
583.70	44233.78
583.86	44697.21
584.02	44383.58
584.18	44877.43
584.34	44289.96
584.50	44631.68
584.66	44540.39
584.82	44224.42
584.98	44830.62
585.14	44584.86
585.30	44538.05
585.46	44940.63
585.62	44772.11
585.78	44751.04
585.94	44624.65
586.10	44247.83
586.26	44395.28
586.42	44519.33
586.58	45008.50
586.74	44474.86
586.90	44505.29
587.06	44002.07
587.22	44458.48
587.38	44287.62
587.54	44580.18
587.70	45139.57
587.86	44638.70
588.02	44697.21
588.18	44713.59
588.34	44430.39
588.49	44594.23
588.65	44296.98
588.81	44388.26
588.97	44318.04
589.13	44250.17
589.29	44467.84
589.45	44285.28
589.61	44821.26
589.77	44884.45
589.93	44774.45
590.08	44570.82
590.24	44720.62
590.40	44790.83
590.56	44987.44
590.72	44847.00
590.88	44671.46
591.04	44631.68
591.20	45057.65
591.35	44807.22
591.51	45263.62
591.67	44617.63
591.83	44629.34
591.99	44835.30
592.15	44914.88
592.31	44737.00
592.46	44563.80
592.62	44533.37
592.78	45179.36
592.94	44802.53
593.10	44762.75
593.26	45015.52
593.41	44737.00
593.57	44168.25
593.73	44273.57
593.89	45090.42
594.05	44772.11
594.20	45184.04
594.36	45106.80
594.52	44802.53
594.68	44671.46
594.84	44416.35
594.99	45069.36
595.15	44788.49
595.31	45027.23
595.47	44996.80
595.62	45148.93
595.78	45429.80
595.94	45141.91
596.10	45057.65
596.25	44737.00
596.41	45476.61
596.57	44809.56
596.73	45106.80
596.88	44399.96
597.04	45216.81
597.20	44959.35
597.36	44872.75
597.51	45071.70
597.67	45102.12
597.83	44673.81
597.99	45593.64
598.14	45057.65
598.30	44793.17
598.46	44587.21
598.61	45160.64
598.77	44596.57
598.93	44933.60
599.09	44371.88
599.24	45464.91
599.40	45425.12
599.56	44809.56
599.71	44758.06
599.87	44797.85
600.03	44938.29
600.18	44889.13
600.34	44769.77
600.50	45109.14
600.65	45092.76
600.81	44858.71
600.97	45081.06
601.12	45240.21
601.28	45095.10
601.44	44666.78
601.59	44533.37
601.75	44556.78
601.91	44587.21
602.06	45188.72
602.22	44552.10
602.37	44919.56
602.53	44582.52
602.69	45186.38
602.84	44746.36
603.00	44474.86
603.16	45078.72
603.31	44992.12
603.47	44697.21
603.62	44978.07
603.78	45537.46
603.94	44739.34
604.09	45193.40
604.25	44907.86
604.40	44769.77
604.56	44587.21
604.71	44886.79
604.87	44900.84
605.03	44718.28
605.18	44793.17
605.34	44299.32
605.49	44137.82
605.65	44437.41
605.80	44505.29
605.96	44758.06
606.12	44886.79
606.27	45249.58
606.43	44910.20
606.58	44849.35
606.74	44545.08
606.89	44624.65
607.05	44926.58
607.20	45153.62
607.36	44444.43
607.51	44978.07
607.67	44610.61
607.82	45265.96
607.98	44919.56
608.13	44516.99
608.29	44341.45
608.44	44657.42
608.60	44095.69
608.75	44198.68
608.91	44212.72
609.06	44481.88
609.22	44500.61
609.37	44549.76
609.53	44615.29
609.68	44474.86
609.84	44238.47
609.99	44025.48
610.15	44119.10
610.30	44069.95
610.46	43896.75
610.61	44149.53
610.76	44406.98
610.92	44348.47
611.07	44825.94
611.23	44423.37
611.38	44163.57
611.54	44109.74
611.69	44341.45
611.84	44091.01
612.00	43985.69
612.15	44369.54
612.31	44044.20
612.46	43887.39
612.62	44158.89
612.77	43784.40
612.92	44233.78
613.08	43889.73
613.23	44329.75
613.39	43683.76
613.54	43667.37
613.69	44196.34
613.85	43744.61
614.00	44044.20
614.15	44406.98
614.31	44334.43
614.46	43913.13
614.62	44116.76
614.77	44341.45
614.92	43782.06
615.08	44016.11
615.23	43688.44
615.38	44477.20
615.54	43641.63
615.69	44079.31
615.84	43770.36
616.00	43732.91
616.15	43824.19
616.30	43648.65
616.46	43147.78
616.61	43566.73
616.76	43414.60
616.92	42817.76
617.07	43199.27
617.22	43159.48
617.37	43210.97
617.53	43342.04
617.68	43814.83
617.83	43442.68
617.99	43374.81
618.14	43672.06
618.29	43414.60
618.45	42813.08
618.60	43232.04
618.75	43105.65
618.90	43416.94
619.06	43405.23
619.21	43676.74
619.36	43643.97
619.51	43407.58
619.67	43040.11
619.82	43573.75
619.97	43168.84
620.12	43400.55
620.28	42698.39
620.43	42834.14
620.58	43103.31
620.73	42859.89
620.89	42707.76
621.04	43007.34
621.19	42937.13
621.34	43051.81
621.49	42857.55
621.65	42419.87
621.80	43042.45
621.95	42616.47
622.10	42775.63
622.25	42094.53
622.41	42656.26
622.56	42859.89
622.71	42883.30
622.86	42740.52
623.01	42651.58
623.16	42490.09
623.32	42539.24
623.47	42314.55
623.62	42686.69
623.77	42356.67
623.92	42644.56
624.07	42174.11
624.23	42333.27
624.38	42281.78
624.53	42089.85
624.68	42394.12
624.83	42403.49
624.98	42469.02
625.13	42108.58
625.29	42447.96
625.44	42036.02
625.59	42045.38
625.74	41560.89
625.89	42078.15
626.04	41769.20
626.19	42078.15
626.34	42010.28
626.49	42412.85
626.65	41816.01
626.80	42501.79
626.95	42277.10
627.10	41865.16
627.25	41846.44
627.40	41764.52
627.55	41390.03
627.70	41741.11
627.85	41427.48
628.00	41212.15
628.15	41823.03
628.30	41270.67
628.45	41427.48
628.60	41677.92
628.76	41972.83
628.91	41989.21
629.06	41123.21
629.21	41230.88
629.36	41188.75
629.51	41212.15
629.66	41324.50
629.81	40935.97
629.96	41542.17
630.11	41691.96
630.26	41048.32
630.41	41474.29
630.56	40900.86
630.71	41134.92
630.86	40938.31
631.01	41209.81
631.16	41240.24
631.31	40832.99
631.46	40453.82
631.61	41329.18
631.76	40800.22
631.91	41111.51
632.06	41158.32
632.21	41242.58
632.36	40980.44
632.51	40608.29
632.66	41265.99
632.81	40299.34
632.96	40753.41
633.10	40795.54
633.25	40802.56
633.40	40964.06
633.55	40961.72
633.70	40907.88
633.85	40376.58
634.00	40357.86
634.15	40556.80
634.30	40528.72
634.45	40919.59
634.60	40875.12
634.75	40540.42
634.90	40311.05
635.05	40722.98
635.19	40254.87
635.34	40430.41
635.49	40381.26
635.64	40264.24
635.79	40608.29
635.94	40385.94
636.09	40343.81
636.24	40140.19
636.39	40133.17
636.53	40191.68
636.68	40119.12
636.83	40250.19
636.98	40100.40
637.13	39871.03
637.28	40327.43
637.43	40198.70
637.57	40060.61
637.72	40399.99
637.87	39672.08
638.02	39999.76
638.17	40093.38
638.32	40025.50
638.46	39924.86
638.61	40067.63
638.76	39966.99
638.91	39887.41
639.06	40037.20
639.20	39775.06
639.35	40189.34
639.50	39814.85
639.65	40053.59
639.80	40016.14
639.94	39564.42
640.09	39931.88
640.24	39564.42
640.39	39414.62
640.54	39952.94
640.68	39463.77
640.83	39690.80
640.98	39498.88
641.13	39098.65
641.27	39533.99
641.42	39421.64
641.57	39693.15
641.72	39339.72
641.86	38801.40
642.01	38623.52
642.16	39398.24
642.31	38696.08
642.45	39248.44
642.60	39311.64
642.75	39023.75
642.90	39108.01
643.04	38946.51
643.19	38878.64
643.34	38948.85
643.48	38895.02
643.63	38476.07
643.78	38770.97
643.93	38749.91
644.07	38384.79
644.22	38548.62
644.37	38497.13
644.51	38677.35
644.66	39129.08
644.81	38974.60
644.95	38686.71
645.10	38902.04
645.25	38890.34
645.39	39049.50
645.54	39365.47
645.69	38909.07
645.83	38682.03
645.98	38778.00
646.13	38419.89
646.27	38602.46
646.42	38550.96
646.57	38244.35
646.71	38731.18
646.86	38710.12
647.00	38567.35
647.15	38824.81
647.30	38225.63
647.44	38258.40
647.59	38483.09
647.74	37961.15
647.88	38220.95
648.03	38183.50
648.17	38476.07
648.32	38419.89
648.47	38141.37
648.61	38052.43
648.76	38443.30
648.90	38242.01
649.05	38197.54
649.20	38302.87
649.34	38291.16
649.49	38157.75
649.63	38117.96
649.78	37731.78
649.92	37720.07
650.07	38031.36
650.21	38026.68
650.36	37383.04
650.51	37333.89
650.65	38403.51
650.80	38370.74
650.94	38218.61
651.09	38160.09
651.23	37797.31
651.38	38361.38
651.52	37490.70
651.67	37560.92
651.81	37572.62
651.96	37645.18
652.10	37614.75
652.25	37642.84
652.39	37846.46
652.54	37659.22
652.68	37668.58
652.83	37570.28
652.97	37680.28
653.12	37572.62
653.26	37448.57
653.41	37661.56
653.55	37247.29
653.70	37514.11
653.84	37296.44
653.99	37408.78
654.13	37254.31
654.27	37165.37
654.42	36823.65
654.56	36755.77
654.71	37156.00
654.85	37427.51
655.00	37038.98
655.14	37076.43
655.29	36503.00
655.43	36570.87
655.57	36748.75
655.72	36687.90
655.86	36484.27
656.01	36790.88
656.15	36622.36
656.30	36818.97
656.44	36713.64
656.58	36285.33
656.73	36301.71
656.87	36673.85
657.01	36608.32
657.16	36748.75
657.30	36313.41
657.45	36500.65
657.59	36458.52
657.73	36491.29
657.88	36507.68
658.02	36552.15
658.16	36907.91
658.31	36837.69
658.45	36533.42
658.60	36329.80
658.74	36467.89
658.88	35983.40
659.03	36294.69
659.17	36006.80
659.31	36093.40
659.46	36357.88
659.60	36013.82
659.74	36189.36
659.89	36107.44
660.03	35866.37
660.17	35498.91
660.32	35971.69
660.46	36051.27
660.60	35955.31
660.74	35681.47
660.89	35810.20
661.03	35622.95
661.17	35269.53
661.32	35063.57
661.46	35732.96
661.60	35309.32
661.74	35400.60
661.89	35545.72
662.03	35461.46
662.17	35220.38
662.31	35391.24
662.46	35515.29
662.60	35218.04
662.74	35559.76
662.88	34845.90
663.03	34712.49
663.17	34993.35
663.31	34759.30
663.45	35023.78
663.60	34934.84
663.74	34555.67
663.88	35133.78
664.02	34183.52
664.17	34621.20
664.31	34976.97
664.45	34499.50
664.59	34338.00
664.73	34834.19
664.88	34342.68
665.02	34096.92
665.16	34328.64
665.30	34316.93
665.44	34267.78
665.59	34258.42
665.73	34136.71
665.87	34253.74
666.01	33928.41
666.15	34024.37
666.29	34073.52
666.44	33944.79
666.58	34330.98
666.72	33591.37
666.86	33848.83
667.00	33567.96
667.14	33525.83
667.28	33500.09
667.43	33565.62
667.57	33586.69
667.71	33490.73
667.85	33493.07
667.99	33270.72
668.13	32973.47
668.27	32950.06
668.41	33453.28
668.56	33057.73
668.70	33127.94
668.84	33020.28
668.98	32716.01
669.12	32727.71
669.26	32393.01
669.40	32601.32
669.54	32692.60
669.68	32708.99
669.82	32498.34
669.96	32444.51
670.10	32196.41
670.25	32498.34
670.39	32378.97
670.53	32278.33
670.67	32144.92
670.81	32187.05
670.95	31810.22
671.09	32257.26
671.23	32067.68
671.37	32140.24
671.51	32182.37
671.65	32095.77
671.79	31749.37
671.93	31531.70
672.07	31482.55
672.21	32397.70
672.35	31803.20
672.49	31580.85
672.63	31948.31
672.77	31290.62
672.91	31782.13
673.05	31304.67
673.19	31517.65
673.33	31456.80
673.47	31079.97
673.61	30988.69
673.75	30661.02
673.89	30745.28
674.03	30471.43
674.17	31122.10
674.31	30511.22
674.45	30892.73
674.59	30466.75
674.73	30920.82
674.87	30492.50
675.01	30527.61
675.15	30494.84
675.29	30305.26
675.43	30181.21
675.56	30218.66
675.70	30010.35
675.84	30054.82
675.98	28886.89
676.12	29832.47
676.26	29729.48
676.40	29710.76
676.54	29366.70
676.68	29596.07
676.82	29352.66
676.96	29649.91
677.10	29223.93
677.23	29158.39
677.37	28980.51
677.51	28765.18
677.65	28840.08
677.79	28538.15
677.93	28620.07
678.07	28362.61
678.21	28542.83
678.34	28507.72
678.48	28013.87
678.62	28158.99
678.76	28105.15
678.90	27711.94
679.04	27821.95
679.18	27903.87
679.31	27580.87
679.45	27875.78
679.59	27192.34
679.73	27372.57
679.87	27342.14
680.00	27145.53
680.14	27463.85
680.28	27276.60
680.42	27335.12
680.56	26913.82
680.70	26991.06
680.83	27080.00
680.97	26934.88
681.11	27220.43
681.25	27068.30
681.39	26670.40
681.52	26712.53
681.66	26576.78
681.80	26436.35
681.94	26459.76
682.07	26199.96
682.21	25956.54
682.35	25862.92
682.49	26244.43
682.62	25972.92
682.76	25813.77
682.90	25914.41
683.04	25570.35
683.17	25563.33
683.31	25273.10
683.45	25600.78
683.59	25015.65
683.72	25062.46
683.86	24943.09
684.00	24985.22
684.13	25205.23
684.27	25151.40
684.41	25081.18
684.55	24835.42
684.68	24496.05
684.82	24730.10
684.96	24753.51
685.09	24503.07
685.23	24416.47
685.37	24208.16
685.50	24299.44
685.64	24320.51
685.78	23840.70
685.91	23831.33
686.05	24070.07
686.19	23264.92
686.32	23529.41
686.46	23339.82
686.60	23314.08
686.73	23033.21
686.87	22981.72
687.01	22668.09
687.14	22913.84
687.28	22614.26
687.42	22768.73
687.55	22806.18
687.69	23037.89
687.82	22738.30
687.96	22890.44
688.10	22838.95
688.23	22450.42
688.37	21493.14
688.50	22125.08
688.64	22092.32
688.78	22197.64
688.91	22169.55
689.05	22118.06
689.18	21965.93
689.32	21635.91
689.46	21731.87
689.59	21930.82
689.73	21928.48
689.86	21598.46
690.00	21240.36
690.13	21586.76
690.27	21048.44
690.41	21156.10
690.54	21085.89
690.68	21099.93
690.81	20734.81
690.95	20837.79
691.08	20575.65
691.22	20493.73
691.35	20718.42
691.49	20718.42
691.62	20847.15
691.76	20395.43
691.89	20439.90
692.03	20313.51
692.16	20170.74
692.30	19927.32
692.43	20039.67
692.57	19627.73
692.70	19688.59
692.84	19777.53
692.97	19482.62
693.11	19433.47
693.24	19489.64
693.38	19342.19
693.51	19138.56
693.65	19281.33
693.78	19377.30
693.92	19054.30
694.05	19290.70
694.19	19094.09
694.32	18974.72
694.45	18834.29
694.59	18391.93
694.72	18665.77
694.86	18640.03
694.99	18492.57
695.13	18384.91
695.26	18120.43
695.39	18277.24
695.53	18595.56
695.66	18207.03
695.80	18466.83
695.93	18146.17
696.07	18239.79
696.20	18139.15
696.33	17727.22
696.47	17795.09
696.60	17710.83
696.73	17603.17
696.87	17631.26
697.00	17593.81
697.14	17542.32
697.27	17303.58
697.40	17376.14
697.54	17256.77
697.67	17270.81
697.80	17011.01
697.94	16929.09
698.07	16844.84
698.21	16402.47
698.34	16945.48
698.47	16521.84
698.61	16552.27
698.74	16194.17
698.87	16177.78
699.01	16203.53
699.14	15889.90
699.27	16004.58
699.40	16030.33
699.54	15875.85
699.67	15995.22
699.80	15885.22
699.94	15901.60
700.07	15669.89
700.20	15824.36
700.34	15611.37
700.47	15857.13
700.60	15913.30
700.73	15826.70
700.87	15555.20
701.00	15098.80
701.13	15328.17
701.26	15403.07
701.40	15349.23
701.53	15044.96
701.66	15150.29
701.79	14733.67
701.93	14623.67
702.06	14761.76
702.19	14850.70
702.32	14682.18
702.46	14661.12
702.59	14604.94
702.72	14684.52
702.85	14466.85
702.99	14490.26
703.12	14340.46
703.25	14132.15
703.38	14270.25
703.51	14150.88
703.65	13902.78
703.78	13776.39
703.91	14043.21
704.04	13989.38
704.17	13930.87
704.31	13757.67
704.44	13614.90
704.57	13488.51
704.70	13561.06
704.83	13680.43
704.96	13446.38
705.10	13682.77
705.23	13383.18
>>>>>End Processed Spectral Data<<<<<
