SpectraSuite Data File
++++++++++++++++++++++++++++++++++++
Date: Fri Oct 25 11:33:29 EDT 2013
User: price-jones
Dark Spectrum Present: No
Reference Spectrum Present: No
Number of Sampled Component Spectra: 1
Spectrometers: USB2+H05261
Integration Time (usec): 100000 (USB2+H05261)
Spectra Averaged: 1 (USB2+H05261)
Boxcar Smoothing: 0 (USB2+H05261)
Correct for Electrical Dark: No (USB2+H05261)
Strobe/Lamp Enabled: No (USB2+H05261)
Correct for Detector Non-linearity: No (USB2+H05261)
Correct for Stray Light: No (USB2+H05261)
Number of Pixels in Processed Spectrum: 2048
>>>>>Begin Processed Spectral Data<<<<<
365.73	203.63
365.92	203.63
366.12	203.63
366.32	140.43
366.52	147.45
366.72	196.60
366.91	149.79
367.11	173.20
367.31	180.22
367.51	117.03
367.70	128.73
367.90	194.26
368.10	154.48
368.30	145.11
368.49	229.37
368.69	285.55
368.89	205.97
369.09	189.58
369.28	259.80
369.48	184.90
369.68	220.01
369.87	222.35
370.07	238.73
370.27	245.76
370.47	355.76
370.66	451.72
370.86	514.92
371.06	519.60
371.25	528.96
371.45	540.66
371.65	631.94
371.84	547.69
372.04	538.32
372.24	575.77
372.44	573.43
372.63	608.54
372.83	587.47
373.03	540.66
373.22	610.88
373.42	554.71
373.62	564.07
373.81	622.58
374.01	667.05
374.21	662.37
374.40	620.24
374.60	653.01
374.79	629.60
374.99	601.52
375.19	671.73
375.38	657.69
375.58	692.80
375.78	664.71
375.97	746.63
376.17	711.52
376.37	688.12
376.56	636.63
376.76	613.22
376.95	641.31
377.15	660.03
377.35	702.16
377.54	697.48
377.74	732.59
377.93	692.80
378.13	695.14
378.33	648.33
378.52	709.18
378.72	772.38
378.91	737.27
379.11	631.94
379.31	711.52
379.50	599.18
379.70	720.88
379.89	669.39
380.09	709.18
380.28	702.16
380.48	713.86
380.68	730.25
380.87	706.84
381.07	791.10
381.26	723.23
381.46	718.54
381.65	788.76
381.85	732.59
382.04	779.40
382.24	837.91
382.43	751.31
382.63	713.86
382.83	784.08
383.02	835.57
383.22	706.84
383.41	854.30
383.61	826.21
383.80	802.80
384.00	849.61
384.19	795.78
384.39	774.72
384.58	823.87
384.78	847.27
384.97	875.36
385.17	816.85
385.36	814.51
385.56	896.43
385.75	798.12
385.95	800.46
386.14	866.00
386.34	842.59
386.53	861.32
386.72	765.36
386.92	903.45
387.11	910.47
387.31	849.61
387.50	952.60
387.70	840.25
387.89	896.43
388.09	856.64
388.28	863.66
388.48	798.12
388.67	875.36
388.86	887.06
389.06	940.90
389.25	971.32
389.45	954.94
389.64	877.70
389.84	971.32
390.03	882.38
390.22	931.53
390.42	926.85
390.61	950.26
390.81	940.90
391.00	1043.88
391.19	1046.22
391.39	976.00
391.58	1013.45
391.78	1048.56
391.97	1055.58
392.16	1022.81
392.36	1034.52
392.55	1032.18
392.75	1076.65
392.94	1039.20
393.13	1114.10
393.33	1022.81
393.52	1088.35
393.71	1123.46
393.91	1095.37
394.10	994.73
394.29	1111.75
394.49	1174.95
394.68	1109.41
394.88	1151.54
395.07	1165.59
395.26	1184.31
395.46	1151.54
395.65	1200.69
395.84	1228.78
396.04	1275.59
396.23	1188.99
396.42	1228.78
396.62	1146.86
396.81	1200.69
397.00	1256.87
397.19	1252.19
397.39	1259.21
397.58	1245.16
397.77	1282.61
397.97	1245.16
398.16	1242.82
398.35	1315.38
398.55	1249.85
398.74	1336.45
398.93	1352.83
399.12	1313.04
399.32	1355.17
399.51	1376.24
399.70	1303.68
399.90	1338.79
400.09	1308.36
400.28	1394.96
400.47	1427.73
400.67	1380.92
400.86	1392.62
401.05	1390.28
401.24	1437.09
401.44	1401.98
401.63	1404.32
401.82	1507.30
402.01	1483.90
402.21	1446.45
402.40	1458.15
402.59	1373.89
402.78	1526.03
402.97	1423.05
403.17	1509.65
403.36	1579.86
403.55	1624.33
403.74	1547.09
403.93	1558.80
404.13	1647.74
404.32	1631.35
404.51	1584.54
404.70	1652.42
404.89	1629.01
405.09	1708.59
405.28	1666.46
405.47	1736.68
405.66	1771.79
405.85	1654.76
406.05	1680.50
406.24	1710.93
406.43	1764.76
406.62	1727.32
406.81	1820.94
407.00	1636.03
407.20	1804.55
407.39	1795.19
407.58	1856.04
407.77	1795.19
407.96	1830.30
408.15	1930.94
408.34	1905.20
408.54	2026.90
408.73	1998.82
408.92	1832.64
409.11	2066.69
409.30	1994.14
409.49	1935.62
409.68	1914.56
409.87	2087.76
410.07	1987.11
410.26	2139.25
410.45	1954.35
410.64	2120.53
410.83	2073.71
411.02	2050.31
411.21	2085.42
411.40	2162.66
411.59	2249.25
411.78	2258.62
411.98	2258.62
412.17	2209.47
412.36	2235.21
412.55	2225.85
412.74	2303.09
412.93	2354.58
413.12	2249.25
413.31	2368.62
413.50	2448.20
413.69	2349.90
413.88	2436.50
414.07	2450.54
414.26	2450.54
414.45	2511.39
414.64	2497.35
414.83	2614.38
415.02	2492.67
415.22	2511.39
415.41	2579.27
415.60	2614.38
415.79	2750.13
415.98	2743.11
416.17	2773.53
416.36	2771.19
416.55	2693.96
416.74	2846.09
416.93	2796.94
417.12	2836.73
417.31	2794.60
417.50	2869.50
417.69	3030.99
417.88	2949.08
418.07	2883.54
418.26	2986.52
418.45	2904.60
418.64	3045.04
418.83	3033.33
419.02	2981.84
419.21	3136.32
419.39	3110.57
419.58	2974.82
419.77	3115.25
419.96	3295.47
420.15	3199.51
420.34	3145.68
420.53	3150.36
420.72	3222.92
420.91	3314.20
421.10	3206.53
421.29	3339.94
421.48	3325.90
421.67	3283.77
421.86	3260.37
422.05	3290.79
422.24	3286.11
422.43	3321.22
422.61	3370.37
422.80	3363.35
422.99	3564.64
423.18	3489.74
423.37	3555.27
423.56	3463.99
423.75	3286.11
423.94	3396.12
424.13	3171.43
424.32	3368.03
424.50	3445.27
424.69	3438.25
424.88	3396.12
425.07	3316.54
425.26	3365.69
425.45	3410.16
425.64	3400.80
425.83	3447.61
426.01	3517.83
426.20	3599.74
426.39	3529.53
426.58	3454.63
426.77	3421.86
426.96	3620.81
427.15	3637.19
427.33	3648.90
427.52	3557.61
427.71	3529.53
427.90	3559.95
428.09	3604.42
428.28	3606.77
428.46	3719.11
428.65	3641.87
428.84	3770.60
429.03	3826.78
429.22	3641.87
429.40	3686.34
429.59	3819.75
429.78	3597.40
429.97	3684.00
430.16	3737.84
430.34	3896.99
430.53	3859.54
430.72	3758.90
430.91	3861.88
431.10	3992.95
431.28	3843.16
431.47	3955.51
431.66	4016.36
431.85	3875.93
432.03	4025.72
432.22	4285.52
432.41	4124.02
432.60	4016.36
432.79	3974.23
432.97	4079.55
433.16	4175.52
433.35	4182.54
433.54	4112.32
433.72	4131.05
433.91	4173.18
434.10	4198.92
434.28	4259.78
434.47	4203.60
434.66	4250.41
434.85	4262.12
435.03	4287.86
435.22	4271.48
435.41	4472.76
435.59	4418.93
435.78	4358.08
435.97	4437.66
436.16	4435.32
436.34	4294.88
436.53	4512.55
436.72	4606.17
436.90	4285.52
437.09	4606.17
437.28	4449.36
437.46	4603.83
437.65	4709.16
437.84	4582.77
438.02	4610.86
438.21	4547.66
438.40	4587.45
438.58	4826.18
438.77	4823.84
438.96	4755.97
439.14	4774.69
439.33	4863.63
439.52	4917.47
439.70	4952.57
439.89	4945.55
440.08	5121.09
440.26	5069.60
440.45	4973.64
440.63	4954.91
440.82	5270.89
441.01	5242.80
441.19	5167.90
441.38	5282.59
441.57	5193.65
441.75	5266.21
441.94	5385.57
442.12	5268.55
442.31	5411.32
442.50	5575.16
442.68	5369.19
442.87	5509.62
443.05	5523.66
443.24	5692.18
443.43	5645.37
443.61	5486.22
443.80	5675.80
443.98	5584.52
444.17	5394.93
444.35	5427.70
444.54	5696.86
444.73	5750.70
444.91	5636.01
445.10	5516.64
445.28	5605.58
445.47	5596.22
445.65	5645.37
445.84	5820.91
446.02	5741.33
446.21	5818.57
446.39	5884.11
446.58	5879.43
446.77	5781.12
446.95	5724.95
447.14	5755.38
447.32	5877.09
447.51	5708.57
447.69	5820.91
447.88	5736.65
448.06	5806.87
448.25	5790.49
448.43	5830.27
448.62	5729.63
448.80	5804.53
448.99	5816.23
449.17	6038.58
449.36	5834.96
449.54	6022.20
449.73	6099.44
449.91	6038.58
450.10	6031.56
450.28	6242.21
450.46	6045.60
450.65	6155.61
450.83	6171.99
451.02	5933.26
451.20	6211.78
451.39	6036.24
451.57	6211.78
451.76	6076.03
451.94	6190.72
452.13	6384.98
452.31	6373.28
452.49	6108.80
452.68	6380.30
452.86	6286.68
453.05	6612.01
453.23	6445.84
453.42	6342.85
453.60	6387.32
453.78	6415.41
453.97	6560.52
454.15	6420.09
454.34	6317.11
454.52	6506.69
454.70	6616.69
454.89	6600.31
455.07	6534.78
455.26	6565.20
455.44	6857.77
455.62	6509.03
455.81	6679.89
455.99	6876.49
456.17	6761.81
456.36	6752.45
456.54	6911.60
456.73	6890.54
456.91	7082.46
457.09	7164.38
457.28	7110.55
457.46	6932.67
457.64	7250.98
457.83	7265.02
458.01	7035.65
458.19	7384.39
458.38	7124.59
458.56	7344.60
458.74	7192.47
458.93	7131.61
459.11	7220.55
459.29	7173.74
459.48	7243.96
459.66	7424.18
459.84	7360.98
460.03	7653.55
460.21	7330.56
460.39	7473.33
460.57	7463.97
460.76	7550.57
460.94	7569.29
461.12	7571.63
461.31	7475.67
461.49	7349.28
461.67	7653.55
461.85	7838.45
462.04	7693.34
462.22	7985.91
462.40	7740.15
462.59	7861.86
462.77	7674.62
462.95	7632.49
463.13	7712.07
463.32	7976.55
463.50	7777.60
463.68	7866.54
463.86	8126.34
464.05	7885.26
464.23	7728.45
464.41	7796.32
464.59	7927.39
464.78	8304.22
464.96	8042.08
465.14	8063.15
465.32	8013.99
465.50	7967.18
465.69	8002.29
465.87	8046.76
466.05	8107.62
466.23	8039.74
466.41	8208.26
466.60	8402.52
466.78	8095.91
466.96	8018.68
467.14	8198.90
467.32	8280.82
467.51	8379.12
467.69	8098.25
467.87	8404.86
468.05	8400.18
468.23	8386.14
468.41	8379.12
468.60	8552.32
468.78	8468.06
468.96	8482.10
469.14	8643.60
469.32	8449.33
469.50	8355.71
469.69	8535.93
469.87	8851.91
470.05	8826.16
470.23	8699.77
470.41	8547.64
470.59	8903.40
470.77	8737.22
470.95	9008.72
471.14	9160.86
471.32	9085.96
471.50	9238.09
471.68	9102.34
471.86	8982.98
472.04	9116.39
472.22	9380.87
472.40	9132.77
472.58	9123.41
472.77	9383.21
472.95	9263.84
473.13	9521.30
473.31	9261.50
473.49	9481.51
473.67	9483.85
473.85	9610.24
474.03	9788.12
474.21	9717.90
474.39	9792.80
474.57	9888.76
474.75	10040.90
474.93	10136.86
475.12	10125.16
475.30	10111.11
475.48	10129.84
475.66	10284.31
475.84	10171.97
476.02	10487.94
476.20	10366.23
476.38	10506.66
476.56	10665.82
476.74	10665.82
476.92	10518.37
477.10	10410.70
477.28	10904.56
477.46	10834.34
477.64	11206.48
477.82	11002.86
478.00	11136.27
478.18	11108.18
478.36	11300.11
478.54	11370.32
478.72	11377.34
478.90	11421.81
479.08	11531.82
479.26	11538.84
479.44	11609.06
479.62	11950.78
479.80	11913.33
479.98	11995.25
480.16	12362.71
480.34	12217.60
480.52	12212.92
480.70	12304.20
480.88	12231.64
481.06	12414.20
481.24	12390.80
481.41	12662.30
481.59	12912.74
481.77	12926.78
481.95	12894.01
482.13	13020.40
482.31	13048.49
482.49	13383.18
482.67	13048.49
482.85	13532.98
483.03	13832.57
483.21	14038.53
483.39	13961.30
483.57	13806.82
483.74	13872.36
483.92	14083.00
484.10	13928.53
484.28	14249.18
484.46	14789.85
484.64	14757.08
484.82	14712.61
485.00	14808.57
485.18	14815.59
485.35	15197.10
485.53	15169.01
485.71	15288.38
485.89	15693.29
486.07	15342.21
486.25	15653.50
486.43	15407.75
486.61	15800.96
486.78	15744.78
486.96	15899.26
487.14	15915.64
487.32	16168.42
487.50	16325.24
487.68	16563.97
487.85	16603.76
488.03	16699.72
488.21	16924.41
488.39	17048.46
488.57	17191.23
488.75	17088.25
488.92	17352.73
489.10	17720.20
489.28	17631.26
489.46	18115.75
489.64	17589.13
489.81	18132.13
489.99	18221.07
490.17	18450.44
490.35	18324.05
490.53	18621.30
490.70	18712.58
490.88	18787.48
491.06	18951.32
491.24	18918.55
491.41	18937.27
491.59	19126.86
491.77	19243.88
491.95	19646.46
492.13	19704.97
492.30	20093.50
492.48	19674.54
492.66	19988.18
492.84	19901.58
493.01	20250.32
493.19	20320.53
493.37	20507.77
493.54	20613.10
493.72	20933.75
493.90	20475.01
494.08	20645.87
494.25	21032.05
494.43	20877.58
494.61	21109.29
494.79	21425.26
494.96	21408.88
495.14	21558.67
495.32	21439.31
495.49	21769.32
495.67	21914.44
495.85	22066.57
496.02	21790.39
496.20	22473.82
496.38	22555.74
496.55	22462.12
496.73	22813.20
496.91	23068.32
497.09	22946.61
497.26	22855.33
497.44	22822.56
497.62	23077.68
497.79	23665.16
497.97	23262.58
498.14	23721.33
498.32	23541.11
498.50	23793.89
498.67	24147.31
498.85	24004.53
499.03	24046.66
499.20	24297.10
499.38	24233.91
499.56	24395.40
499.73	24355.61
499.91	24524.13
500.08	24952.45
500.26	24559.24
500.44	24805.00
500.61	24725.42
500.79	24748.82
500.97	24985.22
501.14	25301.19
501.32	25425.24
501.49	25565.67
501.67	25509.50
501.84	25727.17
502.02	25476.73
502.20	25699.08
502.37	25905.05
502.55	25839.51
502.72	26471.46
502.90	25993.99
503.07	26073.57
503.25	26197.62
503.43	26141.44
503.60	26335.71
503.78	26434.01
503.95	26295.92
504.13	26501.89
504.30	26855.31
504.48	26567.42
504.65	27297.67
504.83	27021.48
505.01	27026.17
505.18	27335.12
505.36	27449.80
505.53	27274.26
505.71	27468.53
505.88	27367.88
506.06	27402.99
506.23	27623.00
506.41	27857.06
506.58	28058.34
506.76	27709.60
506.93	27931.95
507.11	28299.42
507.28	28503.04
507.46	28252.61
507.63	28804.97
507.81	28606.03
507.98	28039.62
508.16	27997.49
508.33	28851.78
508.50	28886.89
508.68	28851.78
508.85	29116.26
509.03	28954.77
509.20	29102.22
509.38	29582.03
509.55	29092.86
509.73	29752.89
509.90	29626.50
510.08	29472.03
510.25	29635.86
510.42	29956.52
510.60	29972.90
510.77	29912.05
510.95	30139.08
511.12	29876.94
511.30	30443.35
511.47	30024.39
511.64	30260.79
511.82	30710.17
511.99	30820.17
512.17	30436.33
512.34	30471.43
512.51	30742.94
512.69	31012.10
512.86	30621.23
513.04	30916.14
513.21	30766.34
513.38	31569.15
513.56	31145.51
513.73	31246.15
513.90	31393.61
514.08	31173.60
514.25	31828.95
514.43	31299.98
514.60	31597.23
514.77	31681.49
514.95	31882.78
515.12	31929.59
515.29	31929.59
515.47	32416.42
515.64	32343.86
515.81	32374.29
515.99	32301.73
516.16	32037.25
516.33	32395.35
516.51	32442.17
516.68	32662.18
516.85	32201.09
517.03	33036.66
517.20	32945.38
517.37	32795.59
517.54	32973.47
517.72	32966.45
517.89	32741.75
518.06	33296.46
518.24	33275.40
518.41	33006.23
518.58	33448.60
518.75	33338.59
518.93	33404.13
519.10	33350.29
519.27	33589.03
519.45	33476.68
519.62	34024.37
519.79	33855.85
519.96	33827.76
520.14	33729.46
520.31	33542.22
520.48	33970.54
520.65	34305.23
520.83	34586.10
521.00	34305.23
521.17	34389.49
521.34	34265.44
521.52	34380.13
521.69	34838.87
521.86	35166.55
522.03	34789.72
522.20	34862.28
522.38	35440.39
522.55	35005.05
522.72	35351.45
522.89	35299.96
523.07	35950.63
523.24	35250.81
523.41	35611.25
523.58	35304.64
523.75	35665.08
523.92	35388.90
524.10	35613.59
524.27	35981.06
524.44	35999.78
524.61	35814.88
524.78	36226.81
524.96	36308.73
525.13	36105.10
525.30	36828.33
525.47	35992.76
525.64	36378.95
525.81	37069.40
525.98	36744.07
526.16	36149.57
526.33	36357.88
526.50	36526.40
526.67	36376.61
526.84	36407.03
527.01	36734.71
527.18	36999.19
527.36	36828.33
527.53	36676.19
527.70	37383.04
527.87	37596.03
528.04	37553.90
528.21	37333.89
528.38	37172.39
528.55	37301.12
528.72	37120.90
528.89	37340.91
529.07	37413.46
529.24	37174.73
529.41	37511.77
529.58	37631.13
529.75	37486.02
529.92	37160.69
530.09	37830.08
530.26	38078.18
530.43	38066.47
530.60	37790.29
530.77	37567.94
530.94	37848.80
531.11	37729.44
531.28	38085.20
531.46	38342.66
531.63	38391.81
531.80	38281.80
531.97	38087.54
532.14	38375.42
532.31	37844.12
532.48	38611.82
532.65	38785.02
532.82	38485.43
532.99	38721.82
533.16	38644.59
533.33	38866.94
533.50	38845.87
533.67	39243.76
533.84	38763.95
534.01	38890.34
534.18	38883.32
534.35	39131.42
534.52	39658.04
534.69	39416.96
534.86	39414.62
535.03	39089.29
535.20	39473.13
535.37	39697.83
535.54	39943.58
535.71	39358.45
535.88	39934.22
536.05	39672.08
536.22	39990.39
536.38	39737.62
536.55	40208.06
536.72	39875.71
536.89	39695.49
537.06	40238.49
537.23	40378.92
537.40	39910.82
537.57	40177.64
537.74	39723.57
537.91	40587.23
538.08	40275.94
538.25	39494.20
538.42	40509.99
538.59	40474.88
538.75	40404.67
538.92	40893.84
539.09	40463.18
539.26	40687.87
539.43	40704.26
539.60	40753.41
539.77	40809.58
539.94	41170.02
540.11	41076.40
540.28	40638.72
540.44	40451.48
540.61	40847.03
540.78	41081.08
540.95	41050.66
541.12	41015.55
541.29	40706.60
541.46	41071.72
541.62	41193.43
541.79	41486.00
541.96	41380.67
542.13	40978.10
542.30	41560.89
542.47	41659.20
542.63	41787.92
542.80	41558.55
542.97	42080.49
543.14	41766.86
543.31	42038.36
543.48	42010.28
543.64	42225.60
543.81	42354.33
543.98	41926.02
544.15	42080.49
544.32	42342.63
544.48	42192.84
544.65	42719.46
544.82	42562.64
544.99	42366.04
545.16	42445.62
545.32	42534.56
545.49	42361.36
545.66	42941.81
545.83	42686.69
546.00	42773.29
546.16	42927.77
546.33	42487.74
546.50	42176.45
546.67	43115.01
546.83	42480.72
547.00	42370.72
547.17	42483.06
547.34	43040.11
547.50	42916.06
547.67	43735.25
547.84	42356.67
548.00	43768.02
548.17	43365.45
548.34	43452.05
548.51	43358.42
548.67	43353.74
548.84	43222.67
549.01	43463.75
549.18	43140.75
549.34	43594.82
549.51	43344.38
549.68	43433.32
549.84	43435.66
550.01	43934.20
550.18	43962.28
550.34	43569.07
550.51	43966.96
550.68	43922.49
550.84	43686.10
551.01	44114.42
551.18	43856.96
551.34	43772.70
551.51	43978.67
551.68	44002.07
551.84	44088.67
552.01	43945.90
552.18	44062.93
552.34	44549.76
552.51	43906.11
552.68	44119.10
552.84	43966.96
553.01	44718.28
553.18	44437.41
553.34	44390.60
553.51	44296.98
553.67	44397.62
553.84	44259.53
554.01	44634.02
554.17	44566.14
554.34	44774.45
554.51	44575.50
554.67	44861.05
554.84	44701.89
555.00	44680.83
555.17	44779.13
555.33	44699.55
555.50	44961.69
555.67	44751.04
555.83	44765.09
556.00	45001.48
556.16	45382.99
556.33	45008.50
556.50	44739.34
556.66	44624.65
556.83	44816.58
556.99	45104.46
557.16	45195.74
557.32	45689.60
557.49	45263.62
557.65	45174.68
557.82	45670.87
557.98	45474.27
558.15	45687.26
558.32	45172.34
558.48	45106.80
558.65	45139.57
558.81	45162.98
558.98	45048.29
559.14	45198.09
559.31	45654.49
559.47	45537.46
559.64	45336.18
559.80	45284.68
559.97	45598.32
560.13	45270.64
560.30	45542.14
560.46	45462.57
560.63	45752.79
560.79	46024.29
560.96	45937.69
561.12	45895.56
561.29	45846.41
561.45	45750.45
561.61	45682.58
561.78	45439.16
561.94	45579.59
562.11	45401.71
562.27	46106.21
562.44	45682.58
562.60	46033.66
562.77	46082.81
562.93	45904.93
563.10	45654.49
563.26	45689.60
563.42	46216.22
563.59	46260.69
563.75	45921.31
563.92	45588.95
564.08	46288.77
564.24	46195.15
564.41	46117.92
564.57	46611.77
564.74	46092.17
564.90	46113.23
565.07	46197.49
565.23	46176.43
565.39	46314.52
565.56	46485.38
565.72	46113.23
565.88	46424.53
566.05	46043.02
566.21	46211.54
566.38	46433.89
566.54	46569.64
566.70	46571.98
566.87	46167.07
567.03	46485.38
567.19	46754.54
567.36	46869.23
567.52	46461.97
567.68	47061.15
567.85	46316.86
568.01	46803.69
568.17	46707.73
568.34	46672.62
568.50	47004.98
568.66	46417.50
568.83	46616.45
568.99	46981.57
569.15	46408.14
569.32	46859.87
569.48	46457.29
569.64	46656.24
569.81	46976.89
569.97	46913.70
570.13	46845.82
570.30	46602.41
570.46	46866.89
570.62	46827.10
570.78	46583.68
570.95	46665.60
571.11	47016.68
571.27	46621.13
571.43	46780.29
571.60	46850.50
571.76	46864.55
571.92	46941.78
572.09	46890.29
572.25	46735.82
572.41	47033.07
572.57	46997.96
572.74	47412.23
572.90	46707.73
573.06	47147.75
573.22	46981.57
573.38	47175.84
573.55	47496.49
573.71	47320.95
573.87	46997.96
574.03	47409.89
574.20	47545.64
574.36	47339.68
574.52	46873.91
574.68	46979.23
574.84	47494.15
575.01	47533.94
575.17	46995.62
575.33	46997.96
575.49	46920.72
575.65	47145.41
575.82	46892.63
575.98	46777.95
576.14	47213.29
576.30	47494.15
576.46	47276.48
576.62	46951.15
576.79	47236.69
576.95	46972.21
577.11	46925.40
577.27	47384.15
577.43	47056.47
577.59	47267.12
577.75	47164.14
577.92	46965.19
578.08	47250.74
578.24	47023.70
578.40	47501.17
578.56	47519.90
578.72	47819.49
578.88	47423.93
579.04	47480.11
579.21	46997.96
579.37	47157.11
579.53	47250.74
579.69	47168.82
579.85	47246.05
580.01	47290.52
580.17	47290.52
580.33	47573.73
580.49	47552.66
580.65	47379.46
580.82	47423.93
580.98	47110.30
581.14	47075.19
581.30	47133.71
581.46	47082.22
581.62	47145.41
581.78	47269.46
581.94	47306.91
582.10	47168.82
582.26	47611.18
582.42	47199.24
582.58	47412.23
582.74	47416.91
582.90	47442.66
583.06	47665.01
583.22	47538.62
583.38	47538.62
583.54	47501.17
583.70	47459.04
583.86	47758.63
584.02	47402.87
584.18	47950.56
584.34	47700.12
584.50	47767.99
584.66	47475.43
584.82	47653.31
584.98	47728.20
585.14	47807.78
585.30	47482.45
585.46	47480.11
585.62	47316.27
585.78	47489.47
585.94	47426.28
586.10	47597.13
586.26	47044.77
586.42	47229.67
586.58	47353.72
586.74	47241.37
586.90	47583.09
587.06	47746.93
587.22	47475.43
587.38	47526.92
587.54	47786.72
587.70	47686.07
587.86	47672.03
588.02	47650.97
588.18	47955.24
588.34	47868.64
588.49	47760.97
588.65	47707.14
588.81	47611.18
588.97	47449.68
589.13	47798.42
589.29	47854.59
589.45	48004.39
589.61	47892.04
589.77	47728.20
589.93	48055.88
590.08	47641.60
590.24	47943.53
590.40	48311.00
590.56	48245.46
590.72	48025.45
590.88	47716.50
591.04	47873.32
591.20	48205.67
591.35	48074.60
591.51	48430.36
591.67	48406.96
591.83	48275.89
591.99	48083.97
592.15	47992.68
592.31	48114.39
592.46	47868.64
592.62	47885.02
592.78	48154.18
592.94	48060.56
593.10	48170.57
593.26	48395.26
593.41	48594.20
593.57	48392.92
593.73	48039.50
593.89	48470.15
594.05	48217.38
594.20	48395.26
594.36	48423.34
594.52	48271.21
594.68	48149.50
594.84	48196.31
594.99	48467.81
595.15	48451.43
595.31	48193.97
595.47	48458.45
595.62	48252.48
595.78	47714.16
595.94	48458.45
596.10	48044.18
596.25	48217.38
596.41	48369.51
596.57	48025.45
596.73	48652.72
596.88	48453.77
597.04	48655.06
597.20	48308.66
597.36	48175.25
597.51	48399.94
597.67	47995.03
597.83	47882.68
597.99	48568.46
598.14	48446.75
598.30	48554.41
598.46	48399.94
598.61	48486.54
598.77	48610.59
598.93	48257.17
599.09	48666.76
599.24	48926.56
599.40	48451.43
599.56	48633.99
599.71	48704.21
599.87	48774.42
600.03	48849.32
600.18	48720.59
600.34	48233.76
600.50	48315.68
600.65	48610.59
600.81	48671.44
600.97	48879.75
601.12	48722.93
601.28	48507.60
601.44	48687.82
601.59	48306.32
601.75	48591.86
601.91	48664.42
602.06	48280.57
602.22	48786.13
602.37	48215.04
602.53	48435.05
602.69	48416.32
602.84	48449.09
603.00	48467.81
603.16	48435.05
603.31	48528.67
603.47	48491.22
603.62	48442.07
603.78	48868.05
603.94	48893.79
604.09	48851.66
604.25	48278.23
604.40	48259.51
604.56	48425.68
604.71	48416.32
604.87	48671.44
605.03	48355.47
605.18	48332.06
605.34	48409.30
605.49	48208.01
605.65	48676.12
605.80	48224.40
605.96	47814.80
606.12	48383.55
606.27	48589.52
606.43	48282.91
606.58	48619.95
606.74	48013.75
606.89	48540.37
607.05	48715.91
607.20	48868.05
607.36	48259.51
607.51	48266.53
607.67	48507.60
607.82	48233.76
607.98	48800.17
608.13	48332.06
608.29	48818.89
608.44	48112.05
608.60	48437.39
608.75	48364.83
608.91	48364.83
609.06	48046.52
609.22	48442.07
609.37	48023.11
609.53	48435.05
609.68	47863.96
609.84	48198.65
609.99	48341.42
610.15	47847.57
610.30	48086.31
610.46	48158.86
610.61	47824.17
610.76	48381.21
610.92	47859.27
611.07	47667.35
611.23	47798.42
611.38	48177.59
611.54	48463.13
611.69	48226.74
611.84	48046.52
612.00	48002.05
612.15	48025.45
612.31	48137.80
612.46	47742.25
612.62	48250.14
612.77	47821.83
612.92	47992.68
613.08	47908.43
613.23	48133.12
613.39	47957.58
613.54	47129.03
613.69	48123.75
613.85	47821.83
614.00	47735.23
614.15	47936.51
614.31	47590.11
614.46	47239.03
614.62	47466.06
614.77	47550.32
614.92	47594.79
615.08	48165.88
615.23	47772.67
615.38	47784.38
615.54	47791.40
615.69	48058.22
615.84	47833.53
616.00	47852.25
616.15	47866.30
616.30	47639.26
616.46	47466.06
616.61	47510.53
616.76	47690.76
616.92	47414.57
617.07	47646.29
617.22	47332.65
617.37	46981.57
617.53	47519.90
617.68	47480.11
617.83	47292.86
617.99	47236.69
618.14	47276.48
618.29	47044.77
618.45	47374.78
618.60	47047.11
618.75	47140.73
618.90	46873.91
619.06	47061.15
619.21	46859.87
619.36	47622.88
619.51	47229.67
619.67	47161.79
619.82	47082.22
619.97	47426.28
620.12	46749.86
620.28	47215.63
620.43	47180.52
620.58	46937.10
620.73	46948.81
620.89	47145.41
621.04	47253.08
621.19	47239.03
621.34	47159.45
621.49	47054.13
621.65	46831.78
621.80	46894.97
621.95	46813.05
622.10	46775.61
622.25	46913.70
622.41	46443.25
622.56	46841.14
622.71	46871.57
622.86	46817.74
623.01	46944.12
623.16	46766.24
623.32	47000.30
623.47	46897.31
623.62	46717.09
623.77	46937.10
623.92	46815.40
624.07	46756.88
624.23	46508.79
624.38	47220.31
624.53	46459.63
624.68	46862.21
624.83	46803.69
624.98	46522.83
625.13	46148.34
625.29	46843.48
625.44	46522.83
625.59	46087.49
625.74	46576.66
625.89	46054.72
626.04	46354.31
626.19	46358.99
626.34	46211.54
626.49	45961.10
626.65	45951.74
626.80	46010.25
626.95	45923.65
627.10	45848.75
627.25	46653.90
627.40	46082.81
627.55	46160.05
627.70	46181.11
627.85	46387.08
628.00	46073.45
628.15	46492.40
628.30	45830.03
628.45	45322.13
628.60	45474.27
628.76	45820.67
628.91	46071.10
629.06	44959.35
629.21	45443.84
629.36	45507.04
629.51	45717.68
629.66	45687.26
629.81	45972.80
629.96	45879.18
630.11	45778.54
630.26	45785.56
630.41	46038.34
630.56	45902.59
630.71	45184.04
630.86	45347.88
631.01	45429.80
631.16	45272.98
631.31	45310.43
631.46	44957.01
631.61	45478.95
631.76	45160.64
631.91	45404.05
632.06	45956.42
632.21	45612.36
632.36	45689.60
632.51	45397.03
632.66	45537.46
632.81	45144.25
632.96	45439.16
633.10	45347.88
633.25	45181.70
633.40	45181.70
633.55	45511.72
633.70	44959.35
633.85	45109.14
634.00	44884.45
634.15	45050.63
634.30	44940.63
634.45	44589.55
634.60	44931.26
634.75	45024.89
634.90	45230.85
635.05	45191.06
635.19	44818.92
635.34	45104.46
635.49	44896.16
635.64	44825.94
635.79	45017.86
635.94	45069.36
636.09	44891.48
636.24	44692.53
636.39	44978.07
636.53	44657.42
636.68	44650.40
636.83	44175.27
636.98	44732.32
637.13	44126.12
637.28	44580.18
637.43	44285.28
637.57	44535.71
637.72	44259.53
637.87	44051.22
638.02	44603.59
638.17	44105.06
638.32	44376.56
638.46	44147.18
638.61	43737.59
638.76	43796.10
638.91	43913.13
639.06	44320.38
639.20	43791.42
639.35	43945.90
639.50	43917.81
639.65	44418.69
639.80	44182.29
639.94	44023.14
640.09	44322.72
640.24	44289.96
640.39	43901.43
640.54	43416.94
640.68	44250.17
640.83	44460.82
640.98	43627.59
641.13	43711.84
641.27	44458.48
641.42	43772.70
641.57	43861.64
641.72	43714.19
641.86	43377.15
642.01	43208.63
642.16	43241.40
642.31	43386.51
642.45	43749.29
642.60	43082.24
642.75	43662.69
642.90	43863.98
643.04	43962.28
643.19	43470.77
643.34	43608.86
643.48	43405.23
643.63	43246.08
643.78	43140.75
643.93	43732.91
644.07	43632.27
644.22	43377.15
644.37	43461.41
644.51	43440.34
644.66	43297.57
644.81	43140.75
644.95	43407.58
645.10	43716.53
645.25	43220.33
645.39	42572.00
645.54	43079.90
645.69	42602.43
645.83	42745.20
645.98	42677.33
646.13	42972.24
646.27	42405.83
646.42	42440.93
646.57	43203.95
646.71	43344.38
646.86	43569.07
647.00	43023.73
647.15	43257.78
647.30	43000.32
647.44	42885.64
647.59	42777.97
647.74	42763.93
647.88	42953.51
648.03	43414.60
648.17	42869.25
648.32	43058.84
648.47	43269.48
648.61	42876.27
648.76	42838.83
648.90	42752.23
649.05	42450.30
649.20	42756.91
649.34	42588.39
649.49	42799.04
649.63	42944.15
649.78	42663.28
649.92	42859.89
650.07	42761.59
650.21	42253.69
650.36	43079.90
650.51	42342.63
650.65	42756.91
650.80	42543.92
650.94	42550.94
651.09	42101.56
651.23	41572.60
651.38	42148.37
651.52	41724.73
651.67	42363.70
651.81	42195.18
651.96	41956.44
652.10	41853.46
652.25	41668.56
652.39	41993.89
652.54	41869.84
652.68	41993.89
652.83	41844.10
652.97	42515.83
653.12	42073.47
653.26	41825.37
653.41	41434.50
653.55	41691.96
653.70	41811.33
653.84	42080.49
653.99	42291.14
654.13	41783.24
654.27	41755.16
654.42	42185.82
654.56	41572.60
654.71	41493.02
654.85	41748.14
655.00	41404.08
655.14	42218.58
655.29	41689.62
655.43	41635.79
655.57	41490.68
655.72	41184.07
655.86	41216.83
656.01	41397.06
656.15	40907.88
656.30	41050.66
656.44	41635.79
656.58	41219.17
656.73	41280.03
656.87	40898.52
657.01	40917.25
657.16	41631.11
657.30	41116.19
657.45	41022.57
657.59	40612.98
657.73	40575.53
657.88	41181.73
658.02	41289.39
658.16	40959.38
658.31	40985.12
658.45	41050.66
658.60	40725.32
658.74	40992.14
658.88	41003.85
659.03	40910.22
659.17	40596.59
659.31	40322.75
659.46	40617.66
659.60	40783.83
659.74	40404.67
659.89	40072.31
660.03	40297.00
660.17	40531.06
660.32	40547.44
660.46	39878.05
660.60	40259.55
660.74	40666.81
660.89	40399.99
661.03	39964.65
661.17	39459.09
661.32	40264.24
661.46	40168.27
661.60	39791.45
661.74	39688.46
661.89	39189.93
662.03	40217.43
662.17	39800.81
662.31	39690.80
662.46	39700.17
662.60	40011.46
662.74	39227.38
662.88	39353.77
663.03	39196.95
663.17	38742.89
663.31	39112.69
663.45	39468.45
663.60	39447.39
663.74	39222.70
663.88	38941.83
664.02	38967.58
664.17	39264.83
664.31	39019.07
664.45	38773.31
664.59	38974.60
664.73	38972.26
664.88	38761.61
665.02	38625.86
665.16	38597.77
665.30	38181.16
665.44	38628.20
665.59	38796.72
665.73	38522.88
665.87	38302.87
666.01	38387.13
666.15	38548.62
666.29	38026.68
666.44	38089.88
666.58	38024.34
666.72	37965.83
666.86	38136.69
667.00	37757.52
667.14	38103.92
667.28	37624.11
667.43	37457.93
667.57	38410.53
667.71	37855.82
667.85	37858.17
667.99	37263.67
668.13	37184.09
668.27	36919.61
668.41	37284.73
668.56	36947.70
668.70	37209.84
668.84	36701.94
668.98	36638.75
669.12	36924.29
669.26	36992.17
669.40	37078.77
669.54	37085.79
669.68	36809.61
669.82	36643.43
669.96	36519.38
670.10	36425.76
670.25	36503.00
670.39	36561.51
670.53	36563.85
670.67	36416.40
670.81	36816.63
670.95	36231.49
671.09	36102.76
671.23	36032.55
671.37	35805.52
671.51	35800.83
671.65	36062.97
671.79	35536.35
671.93	36142.55
672.07	35906.16
672.21	35484.86
672.35	35353.79
672.49	35489.54
672.63	35225.06
672.77	35262.51
672.91	35182.93
673.05	35379.54
673.19	35311.66
673.33	35040.16
673.47	34859.94
673.61	34621.20
673.75	34433.96
673.89	34553.33
674.03	34462.05
674.17	34426.94
674.31	34220.97
674.45	34087.56
674.59	34345.02
674.73	34085.22
674.87	33886.28
675.01	33872.23
675.15	33457.96
675.29	33259.01
675.43	33104.54
675.56	33652.22
675.70	33179.43
675.84	33521.15
675.98	32240.88
676.12	33240.29
676.26	33654.56
676.40	32987.51
676.54	32907.93
676.68	32718.35
676.82	32292.37
676.96	32842.40
677.10	32561.53
677.23	32264.28
677.37	32519.40
677.51	32655.15
677.65	32229.18
677.79	32725.37
677.93	32161.30
678.07	32194.07
678.21	31583.19
678.34	31798.52
678.48	31948.31
678.62	31615.96
678.76	31796.18
678.90	31367.86
679.04	31409.99
679.18	31337.43
679.31	31063.59
679.45	31140.83
679.59	30553.35
679.73	31211.04
679.87	30913.80
680.00	30522.93
680.14	30988.69
680.28	30632.93
680.42	30265.47
680.56	30384.83
680.70	30087.59
680.83	30115.67
680.97	29759.91
681.11	29876.94
681.25	29806.72
681.39	29434.58
681.52	29788.00
681.66	29200.52
681.80	29064.77
681.94	28950.09
682.07	28797.95
682.21	29312.87
682.35	28421.13
682.49	29074.13
682.62	28694.97
682.76	28933.70
682.90	28760.50
683.04	28535.81
683.17	28343.89
683.31	28439.85
683.45	28058.34
683.59	27889.82
683.72	27866.42
683.86	27824.29
684.00	28072.39
684.13	27688.54
684.27	27407.67
684.41	27271.92
684.55	27421.72
684.68	27295.33
684.82	27161.92
684.96	27358.52
685.09	27051.91
685.23	27433.42
685.37	27555.13
685.50	27335.12
685.64	26981.70
685.78	26492.52
685.91	26752.32
686.05	26148.46
686.19	25734.19
686.32	26153.15
686.46	25991.65
686.60	25446.30
686.73	26036.12
686.87	25717.81
687.01	26108.68
687.14	25731.85
687.28	25575.03
687.42	25776.32
687.55	25479.07
687.69	25095.22
687.82	25179.48
687.96	24823.72
688.10	24996.92
688.23	24961.81
688.37	25039.05
688.50	25029.69
688.64	25184.16
688.78	24879.89
688.91	24650.52
689.05	24397.74
689.18	24243.27
689.32	23695.58
689.46	23459.19
689.59	23955.38
689.73	23899.21
689.86	24226.89
690.00	23608.98
690.13	24002.19
690.27	23503.66
690.41	23878.15
690.54	23346.84
690.68	23290.67
690.81	23161.94
690.95	22820.22
691.08	22876.40
691.22	22991.08
691.35	22499.57
691.49	23077.68
691.62	22764.05
691.76	22511.27
691.89	22335.73
692.03	21909.75
692.16	21757.62
692.30	22052.53
692.43	22005.72
692.57	21659.32
692.70	21834.86
692.84	21860.60
692.97	21380.79
693.11	21528.25
693.24	21109.29
693.38	21209.93
693.51	21226.32
693.65	20968.86
693.78	20994.61
693.92	21018.01
694.05	20889.28
694.19	21083.55
694.32	20718.42
694.45	20828.43
694.59	20603.74
694.72	20812.04
694.86	20458.62
694.99	20353.30
695.13	19990.52
695.26	20102.86
695.39	19655.82
695.53	19786.89
695.66	19885.19
695.80	19803.27
695.93	19534.11
696.07	19583.26
696.20	19253.25
696.33	19414.74
696.47	19077.71
696.60	19159.63
696.73	19510.71
696.87	18951.32
697.00	18956.00
697.14	18726.63
697.27	18494.91
697.40	18780.46
697.54	18836.63
697.67	18466.83
697.80	18719.60
697.94	18352.14
698.07	18228.09
698.21	18281.92
698.34	18242.14
698.47	17968.29
698.61	17816.16
698.74	17558.70
698.87	17834.88
699.01	17598.49
699.14	17448.69
699.27	17638.28
699.40	17390.18
699.54	17547.00
699.67	17163.15
699.80	17408.90
699.94	17043.78
700.07	17076.55
700.20	17032.08
700.34	17013.35
700.47	16814.41
700.60	16847.18
700.73	16783.98
700.87	16585.04
701.00	16416.52
701.13	16496.10
701.26	16217.57
701.40	16182.46
701.53	16086.50
701.66	16027.99
701.79	16060.76
701.93	15936.71
702.06	15826.70
702.19	15545.84
702.32	15688.61
702.46	15761.17
702.59	15763.51
702.72	15562.22
702.85	15702.65
702.99	15672.23
703.12	15311.78
703.25	15302.42
703.38	15110.50
703.51	15194.76
703.65	14813.25
703.78	14839.00
703.91	14831.97
704.04	14537.07
704.17	14483.24
704.31	14476.21
704.44	14387.27
704.57	14490.26
704.70	14518.34
704.83	14132.15
704.96	14162.58
705.10	13788.10
705.23	13764.69
>>>>>End Processed Spectral Data<<<<<
