SpectraSuite Data File
++++++++++++++++++++++++++++++++++++
Date: Fri Oct 25 11:34:21 EDT 2013
User: price-jones
Dark Spectrum Present: No
Reference Spectrum Present: No
Number of Sampled Component Spectra: 1
Spectrometers: USB2+H05261
Integration Time (usec): 100000 (USB2+H05261)
Spectra Averaged: 1 (USB2+H05261)
Boxcar Smoothing: 0 (USB2+H05261)
Correct for Electrical Dark: No (USB2+H05261)
Strobe/Lamp Enabled: No (USB2+H05261)
Correct for Detector Non-linearity: No (USB2+H05261)
Correct for Stray Light: No (USB2+H05261)
Number of Pixels in Processed Spectrum: 2048
>>>>>Begin Processed Spectral Data<<<<<
365.73	346.40
365.92	346.40
366.12	346.40
366.32	217.67
366.52	140.43
366.72	189.58
366.91	203.63
367.11	205.97
367.31	184.90
367.51	184.90
367.70	147.45
367.90	128.73
368.10	187.24
368.30	170.86
368.49	208.31
368.69	220.01
368.89	241.08
369.09	215.33
369.28	166.18
369.48	138.09
369.68	212.99
369.87	278.52
370.07	227.03
370.27	236.39
370.47	332.36
370.66	477.47
370.86	449.38
371.06	500.87
371.25	596.84
371.45	564.07
371.65	507.90
371.84	493.85
372.04	517.26
372.24	505.56
372.44	559.39
372.63	671.73
372.83	554.71
373.03	575.77
373.22	528.96
373.42	653.01
373.62	603.86
373.81	608.54
374.01	620.24
374.21	634.29
374.40	702.16
374.60	720.88
374.79	699.82
374.99	594.50
375.19	599.18
375.38	655.35
375.58	629.60
375.78	622.58
375.97	704.50
376.17	748.97
376.37	617.90
376.56	713.86
376.76	627.26
376.95	681.10
377.15	664.71
377.35	690.46
377.54	653.01
377.74	774.72
377.93	657.69
378.13	720.88
378.33	706.84
378.52	692.80
378.72	660.03
378.91	690.46
379.11	657.69
379.31	657.69
379.50	704.50
379.70	784.08
379.89	788.76
380.09	615.56
380.28	730.25
380.48	793.44
380.68	727.91
380.87	748.97
381.07	650.67
381.26	774.72
381.46	812.17
381.65	809.83
381.85	788.76
382.04	800.46
382.24	795.78
382.43	805.14
382.63	695.14
382.83	833.23
383.02	760.67
383.22	819.19
383.41	788.76
383.61	730.25
383.80	770.04
384.00	727.91
384.19	791.10
384.39	744.29
384.58	744.29
384.78	926.85
384.97	835.57
385.17	784.08
385.36	819.19
385.56	786.42
385.75	788.76
385.95	868.34
386.14	929.19
386.34	800.46
386.53	840.25
386.72	854.30
386.92	777.06
387.11	837.91
387.31	873.02
387.50	774.72
387.70	873.02
387.89	905.79
388.09	905.79
388.28	873.02
388.48	983.02
388.67	936.21
388.86	887.06
389.06	1004.09
389.25	884.72
389.45	954.94
389.64	943.24
389.84	940.90
390.03	964.30
390.22	985.37
390.42	908.13
390.61	875.36
390.81	926.85
391.00	952.60
391.19	945.58
391.39	964.30
391.58	999.41
391.78	1078.99
391.97	915.15
392.16	964.30
392.36	1029.84
392.55	1048.56
392.75	1029.84
392.94	1011.11
393.13	1062.60
393.33	1093.03
393.52	1078.99
393.71	1104.73
393.91	1114.10
394.10	1050.90
394.29	1104.73
394.49	1011.11
394.68	1093.03
394.88	1062.60
395.07	1039.20
395.26	1153.88
395.46	1039.20
395.65	1088.35
395.84	1128.14
396.04	1212.40
396.23	1137.50
396.42	1163.25
396.62	1102.39
396.81	1205.38
397.00	1158.57
397.19	1221.76
397.39	1277.93
397.58	1212.40
397.77	1193.67
397.97	1275.59
398.16	1210.06
398.35	1277.93
398.55	1226.44
398.74	1310.70
398.93	1350.49
399.12	1324.74
399.32	1317.72
399.51	1268.57
399.70	1280.27
399.90	1313.04
400.09	1263.89
400.28	1341.13
400.47	1345.81
400.67	1413.68
400.86	1270.91
401.05	1313.04
401.24	1301.34
401.44	1371.55
401.63	1401.98
401.82	1359.85
402.01	1327.08
402.21	1432.41
402.40	1455.81
402.59	1418.36
402.78	1511.99
402.97	1493.26
403.17	1488.58
403.36	1497.94
403.55	1528.37
403.74	1509.65
403.93	1591.56
404.13	1607.95
404.32	1497.94
404.51	1526.03
404.70	1687.53
404.89	1675.82
405.09	1666.46
405.28	1643.06
405.47	1638.38
405.66	1643.06
405.85	1659.44
406.05	1755.40
406.24	1633.69
406.43	1689.87
406.62	1741.36
406.81	1701.57
407.00	1764.76
407.20	1809.23
407.39	1809.23
407.58	1783.49
407.77	1839.66
407.96	1849.02
408.15	1806.89
408.34	1872.43
408.54	1900.52
408.73	1863.07
408.92	1872.43
409.11	1926.26
409.30	1947.33
409.49	1926.26
409.68	1895.83
409.87	1900.52
410.07	1944.99
410.26	1872.43
410.45	2019.88
410.64	2001.16
410.83	2036.27
411.02	2066.69
411.21	2167.34
411.40	2031.58
411.59	2136.91
411.78	2188.40
411.98	2162.66
412.17	2239.89
412.36	2169.68
412.55	2165.00
412.74	2303.09
412.93	2314.79
413.12	2314.79
413.31	2370.96
413.50	2305.43
413.69	2462.24
413.88	2417.77
414.07	2445.86
414.26	2434.16
414.45	2420.11
414.64	2429.48
414.83	2516.08
415.02	2417.77
415.22	2476.29
415.41	2628.42
415.60	2567.57
415.79	2609.70
415.98	2614.38
416.17	2609.70
416.36	2644.81
416.55	2689.28
416.74	2740.77
416.93	2684.59
417.12	2630.76
417.31	2670.55
417.50	2785.24
417.69	2827.37
417.88	2904.60
418.07	2799.28
418.26	2799.28
418.45	2752.47
418.64	2998.23
418.83	2925.67
419.02	3007.59
419.21	3026.31
419.39	2970.14
419.58	3030.99
419.77	2916.31
419.96	2902.26
420.15	3033.33
420.34	3038.02
420.53	3138.66
420.72	3166.74
420.91	3286.11
421.10	3030.99
421.29	3220.58
421.48	3199.51
421.67	3148.02
421.86	3194.83
422.05	3199.51
422.24	3157.38
422.43	3365.69
422.61	3293.13
422.80	3311.86
422.99	3253.34
423.18	3283.77
423.37	3382.07
423.56	3267.39
423.75	3260.37
423.94	3281.43
424.13	3019.29
424.32	3269.73
424.50	3370.37
424.69	3372.71
424.88	3361.01
425.07	3386.76
425.26	3267.39
425.45	3297.81
425.64	3295.47
425.83	3342.28
426.01	3253.34
426.20	3382.07
426.39	3391.44
426.58	3337.60
426.77	3211.22
426.96	3358.67
427.15	3321.22
427.33	3431.23
427.52	3548.25
427.71	3510.80
427.90	3468.67
428.09	3676.98
428.28	3618.47
428.46	3515.48
428.65	3597.40
428.84	3637.19
429.03	3599.74
429.22	3651.24
429.40	3655.92
429.59	3749.54
429.78	3550.59
429.97	3590.38
430.16	3641.87
430.34	3578.68
430.53	3583.36
430.72	3768.26
430.91	3707.41
431.10	3641.87
431.28	3784.65
431.47	3805.71
431.66	3939.12
431.85	3824.44
432.03	3962.53
432.22	3878.27
432.41	3911.04
432.60	3990.61
432.79	3997.64
432.97	3983.59
433.16	4023.38
433.35	4053.81
433.54	4161.47
433.72	4039.76
433.91	4180.20
434.10	4025.72
434.28	4107.64
434.47	4138.07
434.66	4149.77
434.85	4117.00
435.03	4381.48
435.22	4229.35
435.41	4299.56
435.59	4217.65
435.78	4346.37
435.97	4327.65
436.16	4208.28
436.34	4301.90
436.53	4348.72
436.72	4339.35
436.90	4294.88
437.09	4428.29
437.28	4362.76
437.46	4299.56
437.65	4435.32
437.84	4566.39
438.02	4482.13
438.21	4596.81
438.40	4320.63
438.58	4657.67
438.77	4615.54
438.96	4496.17
439.14	4573.41
439.33	4648.30
439.52	4758.31
439.70	4774.69
439.89	4828.53
440.08	4774.69
440.26	4882.36
440.45	4861.29
440.63	4863.63
440.82	5114.07
441.01	4896.40
441.19	5041.51
441.38	5020.45
441.57	5135.14
441.75	5195.99
441.94	5249.82
442.12	5200.67
442.31	5153.86
442.50	5249.82
442.68	5018.11
442.87	5219.39
443.05	5373.87
443.24	5275.57
443.43	5383.23
443.61	5416.00
443.80	5453.45
443.98	5273.23
444.17	5083.64
444.35	5364.51
444.54	5399.62
444.73	5448.77
444.91	5575.16
445.10	5493.24
445.28	5652.39
445.47	5451.11
445.65	5458.13
445.84	5703.89
446.02	5577.50
446.21	5516.64
446.39	5528.35
446.58	5589.20
446.77	5591.54
446.95	5481.53
447.14	5746.02
447.32	5643.03
447.51	5500.26
447.69	5661.76
447.88	5657.07
448.06	5551.75
448.25	5696.86
448.43	5493.24
448.62	5544.73
448.80	5760.06
448.99	5757.72
449.17	5561.11
449.36	5760.06
449.54	5771.76
449.73	5879.43
449.91	6071.35
450.10	5841.98
450.28	5853.68
450.46	5912.19
450.65	5834.96
450.83	5954.32
451.02	5956.66
451.20	5893.47
451.39	5980.07
451.57	5830.27
451.76	6054.97
451.94	5886.45
452.13	6094.76
452.31	5989.43
452.49	6040.92
452.68	6125.18
452.86	6085.39
453.05	6157.95
453.23	6366.26
453.42	6139.23
453.60	5970.71
453.78	6303.06
453.97	5926.24
454.15	6267.95
454.34	6183.70
454.52	6244.55
454.70	6312.42
454.89	6363.92
455.07	6485.62
455.26	6244.55
455.44	6417.75
455.62	6469.24
455.81	6548.82
455.99	6612.01
456.17	6609.67
456.36	6525.41
456.54	6710.32
456.73	6839.05
456.91	6729.04
457.09	6785.21
457.28	6771.17
457.46	6724.36
457.64	6956.07
457.83	6726.70
458.01	6808.62
458.19	7028.63
458.38	7009.90
458.56	6977.14
458.74	6967.77
458.93	6958.41
459.11	7002.88
459.29	6995.86
459.48	7082.46
459.66	7061.40
459.84	6970.12
460.03	7321.20
460.21	7143.32
460.39	7108.21
460.57	7152.68
460.76	7173.74
460.94	7325.88
461.12	7377.37
461.31	7363.33
461.49	7070.76
461.67	7239.28
461.85	7386.73
462.04	7267.36
462.22	7726.11
462.40	7674.62
462.59	7508.44
462.77	7508.44
462.95	7719.09
463.13	7452.27
463.32	7342.26
463.50	7613.76
463.68	7679.30
463.86	7611.42
464.05	7466.31
464.23	7627.81
464.41	7634.83
464.59	7541.21
464.78	7864.20
464.96	7712.07
465.14	7646.53
465.32	7882.92
465.50	7903.99
465.69	8046.76
465.87	7775.26
466.05	8013.99
466.23	8035.06
466.41	8002.29
466.60	8067.83
466.78	7861.86
466.96	7903.99
467.14	7995.27
467.32	8035.06
467.51	8212.94
467.69	7772.92
467.87	7950.80
468.05	8353.37
468.23	8107.62
468.41	8105.28
468.60	8095.91
468.78	8224.64
468.96	8070.17
469.14	8339.33
469.32	8472.74
469.50	8241.03
469.69	8503.17
469.87	8446.99
470.05	8325.29
470.23	8620.19
470.41	8470.40
470.59	8699.77
470.77	8437.63
470.95	8528.91
471.14	8774.67
471.32	8475.08
471.50	8699.77
471.68	8737.22
471.86	8872.97
472.04	8744.24
472.22	9043.83
472.40	8898.72
472.58	8821.48
472.77	9008.72
472.95	8950.21
473.13	9509.60
473.31	9081.28
473.49	9092.98
473.67	9111.71
473.85	9210.01
474.03	9373.85
474.21	9411.29
474.39	9582.15
474.57	9561.09
474.75	9628.96
474.93	9617.26
475.12	9572.79
475.30	9589.17
475.48	9488.53
475.66	9874.72
475.84	9607.90
476.02	10040.90
476.20	9813.87
476.38	10157.92
476.56	10422.41
476.74	10155.58
476.92	10181.33
477.10	10136.86
477.28	10340.49
477.46	10389.64
477.64	10469.22
477.82	10693.91
478.00	10752.42
478.18	10614.33
478.36	10902.22
478.54	11009.88
478.72	10963.07
478.90	11096.48
479.08	11143.29
479.26	11426.50
479.44	11260.32
479.62	11477.99
479.80	11421.81
479.98	11712.04
480.16	11843.11
480.34	11815.02
480.52	11796.30
480.70	11896.94
480.88	11646.51
481.06	12013.97
481.24	11948.43
481.41	12266.75
481.59	12292.49
481.77	12210.57
481.95	12453.99
482.13	12718.47
482.31	12493.78
482.49	12725.49
482.67	12898.69
482.85	12894.01
483.03	13357.44
483.21	13259.13
483.39	13448.72
483.57	13214.66
483.74	13469.78
483.92	13467.44
484.10	13568.09
484.28	13867.67
484.46	13975.34
484.64	14235.14
484.82	14029.17
485.00	14036.19
485.18	14424.72
485.35	14707.93
485.53	14558.13
485.71	14581.54
485.89	14984.11
486.07	14754.74
486.25	14981.77
486.43	15014.54
486.61	15105.82
486.78	15288.38
486.96	15372.64
487.14	15417.11
487.32	15637.12
487.50	15957.77
487.68	15871.17
487.85	16091.18
488.03	16240.98
488.21	16421.20
488.39	16276.09
488.57	16475.03
488.75	16589.72
488.92	16685.68
489.10	16730.15
489.28	16861.22
489.46	17193.58
489.64	17170.17
489.81	17607.85
489.99	17460.40
490.17	17699.13
490.35	17956.59
490.53	17802.11
490.70	17965.95
490.88	17984.68
491.06	18284.26
491.24	18429.38
491.41	18162.56
491.59	18583.85
491.77	18534.70
491.95	18656.41
492.13	18909.19
492.30	19073.03
492.48	18913.87
492.66	19173.67
492.84	19267.29
493.01	19297.72
493.19	19700.29
493.37	19861.79
493.54	19489.64
493.72	19819.66
493.90	19910.94
494.08	20025.62
494.25	20285.42
494.43	20315.85
494.61	20414.15
494.79	20416.49
494.96	20273.72
495.14	20741.83
495.32	21097.59
495.49	21092.91
495.67	21193.55
495.85	21586.76
496.02	21678.04
496.20	21570.38
496.38	21806.77
496.55	21891.03
496.73	22012.74
496.91	21930.82
497.09	21703.79
497.26	22293.60
497.44	21972.95
497.62	22228.07
497.79	22885.76
497.97	22714.90
498.14	22581.49
498.32	22705.54
498.50	22862.35
498.67	22883.42
498.85	22965.34
499.03	23197.05
499.20	23227.48
499.38	23360.89
499.56	23709.63
499.73	23688.56
499.91	23800.91
500.08	23929.64
500.26	23522.38
500.44	23922.62
500.61	24013.90
500.79	24119.22
500.97	24217.52
501.14	24404.77
501.32	24383.70
501.49	24561.58
501.67	24596.69
501.84	24580.31
502.02	24638.82
502.20	24793.29
502.37	24858.83
502.55	24765.21
502.72	24919.68
502.90	25268.42
503.07	24861.17
503.25	25223.95
503.43	25226.29
503.60	25387.79
503.78	25530.56
503.95	25450.99
504.13	25881.64
504.30	25907.39
504.48	25638.23
504.65	25247.36
504.83	25949.52
505.01	26052.50
505.18	26185.91
505.36	26235.06
505.53	26183.57
505.71	26235.06
505.88	26539.33
506.06	26253.79
506.23	26546.36
506.41	26548.70
506.58	26529.97
506.76	26927.86
506.93	27065.96
507.11	27096.38
507.28	27108.08
507.46	27204.05
507.63	27358.52
507.81	27236.81
507.98	27590.24
508.16	27449.80
508.33	27754.07
508.50	27859.40
508.68	27669.81
508.85	28163.67
509.03	28121.54
509.20	28236.22
509.38	28266.65
509.55	28226.86
509.73	27995.15
509.90	28676.24
510.08	28261.97
510.25	28673.90
510.42	28568.58
510.60	28645.82
510.77	28872.85
510.95	29111.58
511.12	29109.24
511.30	29034.35
511.47	29149.03
511.64	28833.06
511.82	29207.55
511.99	29511.81
512.17	29549.26
512.34	29291.80
512.51	29542.24
512.69	30087.59
512.86	29610.12
513.04	30122.69
513.21	29762.25
513.38	29972.90
513.56	30127.38
513.73	30085.25
513.90	29972.90
514.08	30005.67
514.25	30597.82
514.43	30703.15
514.60	30359.09
514.77	30333.34
514.95	30595.48
515.12	30700.81
515.29	30714.85
515.47	30618.89
515.64	31082.31
515.81	30792.09
515.99	31232.11
516.16	31580.85
516.33	30740.60
516.51	31358.50
516.68	31126.78
516.85	31168.91
517.03	31805.54
517.20	31388.92
517.37	31381.90
517.54	31728.30
517.72	31307.01
517.89	31747.03
518.06	32219.81
518.24	32254.92
518.41	32020.87
518.58	31817.24
518.75	32201.09
518.93	32481.95
519.10	32364.93
519.27	32161.30
519.45	32442.17
519.62	32788.56
519.79	32259.60
519.96	32524.08
520.14	32519.40
520.31	32374.29
520.48	32638.77
520.65	33130.28
520.83	33277.74
521.00	33383.06
521.17	33031.98
521.34	33312.84
521.52	33376.04
521.69	33024.96
521.86	33771.59
522.03	33565.62
522.20	33684.99
522.38	33518.81
522.55	33888.62
522.72	33542.22
522.89	33780.95
523.07	33916.70
523.24	33979.90
523.41	34068.84
523.58	33811.38
523.75	34424.60
523.92	34307.57
524.10	34483.11
524.27	34426.94
524.44	34361.40
524.61	34705.46
524.78	34836.53
524.96	34852.92
525.13	34871.64
525.30	34897.39
525.47	34932.50
525.64	34787.38
525.81	35470.82
525.98	34948.88
526.16	34740.57
526.33	35241.45
526.50	35365.49
526.67	35227.40
526.84	35276.55
527.01	35496.56
527.18	35332.73
527.36	35318.68
527.53	35330.39
527.70	35473.16
527.87	35716.58
528.04	35658.06
528.21	35941.27
528.38	35978.72
528.55	35840.62
528.72	35522.31
528.89	35723.60
529.07	36247.88
529.24	36023.19
529.41	36058.29
529.58	36208.09
529.75	36425.76
529.92	35948.29
530.09	36510.02
530.26	36079.36
530.43	36491.29
530.60	36409.37
530.77	36121.49
530.94	36622.36
531.11	36603.64
531.28	36631.72
531.46	36521.72
531.63	36751.09
531.80	36772.16
531.97	36884.50
532.14	36818.97
532.31	36840.03
532.48	37258.99
532.65	37418.14
532.82	37132.60
532.99	37273.03
533.16	37106.85
533.33	37261.33
533.50	37354.95
533.67	37474.32
533.84	37036.64
534.01	37411.12
534.18	37577.30
534.35	38080.52
534.52	37710.71
534.69	37954.13
534.86	38089.88
535.03	37806.67
535.20	38014.98
535.37	37546.87
535.54	38122.65
535.71	38499.47
535.88	38087.54
536.05	38494.79
536.22	38745.23
536.38	38883.32
536.55	38380.10
536.72	38815.44
536.89	37923.70
537.06	38609.48
537.23	38808.42
537.40	38361.38
537.57	38181.16
537.74	38515.86
537.91	38895.02
538.08	38602.46
538.25	38487.77
538.42	38904.38
538.59	39241.42
538.75	38675.01
538.92	38920.77
539.09	39452.07
539.26	39210.99
539.43	39051.84
539.60	38920.77
539.77	38637.56
539.94	39246.10
540.11	39423.98
540.28	39431.01
540.44	39058.86
540.61	39503.56
540.78	38880.98
540.95	39271.85
541.12	39360.79
541.29	39688.46
541.46	39559.73
541.62	39704.85
541.79	39983.37
541.96	39299.94
542.13	39419.30
542.30	39735.27
542.47	40060.61
542.63	39833.58
542.80	39899.11
542.97	40495.95
543.14	40765.11
543.31	40472.54
543.48	40067.63
543.64	40739.36
543.81	40697.24
543.98	40603.61
544.15	40378.92
544.32	40898.52
544.48	41095.13
544.65	40816.60
544.82	41343.22
544.99	40100.40
545.16	40884.48
545.32	40652.76
545.49	41270.67
545.66	40954.69
545.83	41078.74
546.00	41060.02
546.16	40968.74
546.33	41010.87
546.50	41151.30
546.67	41237.90
546.83	41109.17
547.00	41095.13
547.17	41544.51
547.34	41235.56
547.50	41584.30
547.67	41720.05
547.84	41666.22
548.00	41457.91
548.17	41811.33
548.34	41853.46
548.51	41834.74
548.67	41462.59
548.84	41935.38
549.01	41656.85
549.18	41813.67
549.34	41703.67
549.51	41886.23
549.68	42110.92
549.84	41368.97
550.01	42309.86
550.18	42263.05
550.34	41743.45
550.51	42307.52
550.68	42433.91
550.84	41813.67
551.01	42394.12
551.18	42728.82
551.34	41984.53
551.51	42525.19
551.68	42150.71
551.84	42384.76
552.01	42183.48
552.18	42454.98
552.34	42101.56
552.51	42412.85
552.68	42466.68
552.84	42380.08
553.01	43136.07
553.18	42625.84
553.34	42703.07
553.51	42714.78
553.67	43044.79
553.84	42677.33
554.01	42822.44
554.17	42960.53
554.34	43208.63
554.51	43407.58
554.67	43344.38
554.84	42955.85
555.00	42995.64
555.17	42843.51
555.33	43086.92
555.50	43058.84
555.67	43145.44
555.83	43498.86
556.00	43323.32
556.16	43735.25
556.33	43620.56
556.50	43358.42
556.66	43442.68
556.83	43405.23
556.99	43447.36
557.16	43576.09
557.32	43845.26
557.49	43550.35
557.65	43510.56
557.82	43695.46
557.98	43503.54
558.15	43262.46
558.32	43433.32
558.48	43381.83
558.65	43770.36
558.81	43924.83
558.98	44081.65
559.14	43807.81
559.31	43669.72
559.47	43976.33
559.64	43531.62
559.80	43983.35
559.97	44079.31
560.13	43896.75
560.30	43938.88
560.46	44416.35
560.63	43922.49
560.79	44182.29
560.96	44016.11
561.12	44371.88
561.29	44032.50
561.45	43863.98
561.61	44561.46
561.78	44278.25
561.94	44254.85
562.11	43917.81
562.27	44177.61
562.44	44219.74
562.60	44524.01
562.77	44142.50
562.93	44072.29
563.10	44278.25
563.26	43985.69
563.42	44568.48
563.59	44617.63
563.75	44423.37
563.92	44289.96
564.08	44346.13
564.24	44575.50
564.41	44844.66
564.57	44158.89
564.74	44582.52
564.90	44444.43
565.07	44481.88
565.23	44170.59
565.39	44449.11
565.56	44673.81
565.72	44374.22
565.88	45151.27
566.05	44737.00
566.21	44697.21
566.38	44596.57
566.54	44767.43
566.70	44975.73
566.87	44882.11
567.03	44673.81
567.19	44900.84
567.36	44828.28
567.52	44727.64
567.68	45326.81
567.85	44575.50
568.01	45141.91
568.17	44935.95
568.34	45170.00
568.50	45088.08
568.66	44795.51
568.83	45031.91
568.99	44872.75
569.15	45134.89
569.32	44842.32
569.48	44973.39
569.64	45013.18
569.81	45301.07
569.97	45139.57
570.13	45020.20
570.30	44678.49
570.46	45127.87
570.62	45518.74
570.78	45233.19
570.95	45221.49
571.11	45495.33
571.27	45174.68
571.43	44786.15
571.60	45315.11
571.76	44856.37
571.92	45628.74
572.09	45158.30
572.25	45228.51
572.41	44896.16
572.57	45237.87
572.74	45654.49
572.90	45216.81
573.06	45298.73
573.22	45254.26
573.38	45551.51
573.55	45558.53
573.71	45846.41
573.87	45427.46
574.03	45525.76
574.20	45731.73
574.36	45338.52
574.52	45191.06
574.68	45294.05
574.84	45682.58
575.01	45750.45
575.17	45207.45
575.33	45549.17
575.49	45603.00
575.65	45614.70
575.82	45439.16
575.98	45492.99
576.14	45820.67
576.30	45727.05
576.46	45258.94
576.62	45549.17
576.79	45675.55
576.95	44921.90
577.11	45404.05
577.27	45507.04
577.43	45242.56
577.59	45141.91
577.75	45375.97
577.92	45125.53
578.08	45146.59
578.24	45532.78
578.40	45710.66
578.56	45698.96
578.72	45717.68
578.88	45893.22
579.04	45675.55
579.21	45254.26
579.37	45368.94
579.53	46024.29
579.69	45675.55
579.85	45504.70
580.01	45495.33
580.17	45677.90
580.33	45991.53
580.49	45603.00
580.65	45490.65
580.82	45605.34
580.98	45701.30
581.14	45380.65
581.30	45841.73
581.46	45832.37
581.62	45439.16
581.78	45530.44
581.94	45984.51
582.10	46080.47
582.26	45640.45
582.42	45888.54
582.58	45654.49
582.74	45787.90
582.90	46258.35
583.06	45710.66
583.22	45661.51
583.38	45736.41
583.54	46237.28
583.70	45794.92
583.86	46040.68
584.02	45914.29
584.18	45982.16
584.34	45890.88
584.50	46066.42
584.66	46078.13
584.82	45743.43
584.98	46256.01
585.14	45989.19
585.30	45893.22
585.46	45710.66
585.62	45764.49
585.78	45640.45
585.94	45432.14
586.10	45963.44
586.26	45467.25
586.42	45624.06
586.58	45762.15
586.74	46026.63
586.90	45640.45
587.06	45979.82
587.22	46405.80
587.38	45439.16
587.54	45563.21
587.70	46351.97
587.86	45944.72
588.02	45652.15
588.18	45792.58
588.34	45778.54
588.49	45724.71
588.65	46101.53
588.81	45691.94
588.97	46064.08
589.13	45991.53
589.29	45680.24
589.45	46314.52
589.61	46342.61
589.77	45965.78
589.93	46485.38
590.08	46106.21
590.24	46983.91
590.40	46548.57
590.56	46532.19
590.72	46422.19
590.88	46028.98
591.04	46368.35
591.20	46719.43
591.35	46478.36
591.51	46689.01
591.67	46534.53
591.83	46670.28
591.99	46202.18
592.15	46384.74
592.31	46178.77
592.46	46225.58
592.62	45883.86
592.78	46791.99
592.94	46499.42
593.10	46302.82
593.26	46394.10
593.41	46590.70
593.57	46454.95
593.73	46810.71
593.89	46923.06
594.05	46581.34
594.20	46609.43
594.36	46974.55
594.52	46639.86
594.68	46897.31
594.84	46525.17
594.99	46813.05
595.15	46571.98
595.31	46424.53
595.47	46639.86
595.62	46440.91
595.78	46602.41
595.94	46277.07
596.10	46897.31
596.25	46497.08
596.41	46747.52
596.57	46532.19
596.73	46557.94
596.88	46747.52
597.04	46403.46
597.20	46621.13
597.36	46405.80
597.51	46532.19
597.67	46696.03
597.83	46815.40
597.99	46946.47
598.14	46506.44
598.30	46794.33
598.46	46763.90
598.61	46836.46
598.77	46883.27
598.93	46913.70
599.09	46747.52
599.24	46667.94
599.40	46934.76
599.56	46799.01
599.71	47379.46
599.87	47318.61
600.03	47026.04
600.18	46703.05
600.34	46862.21
600.50	46412.82
600.65	46925.40
600.81	46911.36
600.97	46822.42
601.12	46714.75
601.28	46700.71
601.44	46686.67
601.59	46817.74
601.75	46394.10
601.91	46944.12
602.06	47105.62
602.22	46939.44
602.37	46710.07
602.53	46632.83
602.69	47147.75
602.84	46391.76
603.00	46808.37
603.16	46473.68
603.31	46784.97
603.47	46831.78
603.62	46679.64
603.78	46911.36
603.94	46899.65
604.09	46932.42
604.25	46710.07
604.40	46667.94
604.56	46541.55
604.71	47114.98
604.87	46775.61
605.03	46864.55
605.18	46735.82
605.34	46693.69
605.49	46642.20
605.65	46871.57
605.80	46745.18
605.96	46871.57
606.12	46822.42
606.27	46557.94
606.43	46234.94
606.58	46787.31
606.74	46829.44
606.89	46696.03
607.05	46887.95
607.20	46911.36
607.36	46717.09
607.51	46588.36
607.67	46728.80
607.82	46834.12
607.98	46878.59
608.13	46614.11
608.29	46508.79
608.44	46358.99
608.60	46312.18
608.75	46394.10
608.91	46373.03
609.06	46335.59
609.22	46714.75
609.37	46286.43
609.53	46569.64
609.68	46536.87
609.84	46286.43
609.99	46562.62
610.15	46389.42
610.30	46227.92
610.46	46382.40
610.61	46281.75
610.76	46838.80
610.92	46272.39
611.07	46155.36
611.23	46094.51
611.38	46733.48
611.54	46461.97
611.69	46335.59
611.84	46555.60
612.00	46557.94
612.15	46349.63
612.31	46522.83
612.46	46061.74
612.62	45752.79
612.77	46377.72
612.92	46574.32
613.08	46021.95
613.23	46277.07
613.39	46087.49
613.54	45984.51
613.69	46459.63
613.85	46202.18
614.00	46108.55
614.15	46036.00
614.31	45991.53
614.46	45755.13
614.62	45588.95
614.77	46162.39
614.92	45911.95
615.08	45823.01
615.23	46204.52
615.38	46368.35
615.54	46134.30
615.69	46148.34
615.84	45794.92
616.00	46068.76
616.15	46314.52
616.30	46354.31
616.46	45771.52
616.61	45741.09
616.76	46061.74
616.92	45766.84
617.07	45790.24
617.22	45652.15
617.37	45464.91
617.53	46122.60
617.68	45521.08
617.83	45551.51
617.99	45872.16
618.14	45970.46
618.29	45478.95
618.45	45640.45
618.60	45886.20
618.75	45256.60
618.90	45642.79
619.06	45612.36
619.21	45759.81
619.36	45488.31
619.51	45574.91
619.67	45310.43
619.82	45574.91
619.97	45471.93
620.12	45516.40
620.28	45071.70
620.43	45177.02
620.58	45551.51
620.73	45500.01
620.89	45392.35
621.04	45581.93
621.19	45170.00
621.34	45179.36
621.49	45450.86
621.65	45511.72
621.80	45551.51
621.95	45413.41
622.10	45268.30
622.25	45380.65
622.41	45371.28
622.56	45090.42
622.71	45282.34
622.86	45193.40
623.01	45418.10
623.16	45378.31
623.32	45256.60
623.47	45081.06
623.62	44779.13
623.77	44985.10
623.92	45013.18
624.07	45059.99
624.23	44847.00
624.38	45251.92
624.53	45181.70
624.68	44666.78
624.83	44322.72
624.98	44746.36
625.13	44638.70
625.29	44304.00
625.44	44516.99
625.59	44739.34
625.74	44758.06
625.89	44091.01
626.04	44493.58
626.19	44669.12
626.34	44584.86
626.49	44502.95
626.65	44002.07
626.80	44519.33
626.95	44456.14
627.10	44034.84
627.25	44399.96
627.40	44516.99
627.55	44318.04
627.70	44481.88
627.85	44168.25
628.00	43899.09
628.15	44004.41
628.30	44067.61
628.45	43995.05
628.60	43758.66
628.76	43943.56
628.91	43990.37
629.06	43613.54
629.21	43845.26
629.36	43969.30
629.51	44100.37
629.66	44655.08
629.81	44051.22
629.96	44289.96
630.11	44002.07
630.26	44109.74
630.41	44360.17
630.56	43814.83
630.71	43948.24
630.86	43768.02
631.01	43796.10
631.16	43257.78
631.31	43828.87
631.46	43812.49
631.61	44282.94
631.76	43777.38
631.91	43805.47
632.06	44355.49
632.21	43805.47
632.36	43632.27
632.51	43337.36
632.66	43667.37
632.81	43728.23
632.96	43573.75
633.10	43562.05
633.25	43400.55
633.40	43594.82
633.55	43587.80
633.70	43278.85
633.85	43199.27
634.00	43325.66
634.15	43047.13
634.30	43302.25
634.45	42979.26
634.60	43503.54
634.75	43550.35
634.90	43309.27
635.05	43430.98
635.19	42997.98
635.34	43634.61
635.49	42775.63
635.64	43618.22
635.79	43332.68
635.94	43203.95
636.09	43285.87
636.24	42969.90
636.39	43304.59
636.53	43398.21
636.68	42464.34
636.83	42611.79
636.98	42457.32
637.13	42600.09
637.28	42120.28
637.43	42932.45
637.57	42885.64
637.72	42630.52
637.87	42691.37
638.02	43126.71
638.17	42815.42
638.32	42223.26
638.46	42440.93
638.61	42298.16
638.76	42117.94
638.91	42312.20
639.06	42466.68
639.20	42277.10
639.35	42267.73
639.50	42438.59
639.65	42684.35
639.80	42829.46
639.94	42429.23
640.09	42740.52
640.24	42211.56
640.39	42429.23
640.54	41759.84
640.68	42188.16
640.83	42225.60
640.98	42031.34
641.13	41956.44
641.27	42513.49
641.42	42256.03
641.57	41605.36
641.72	41958.78
641.86	41804.31
642.01	41989.21
642.16	41659.20
642.31	41584.30
642.45	41921.34
642.60	41439.18
642.75	41797.29
642.90	41762.18
643.04	41375.99
643.19	41607.70
643.34	41242.58
643.48	41287.05
643.63	41633.45
643.78	41926.02
643.93	41832.39
644.07	41883.89
644.22	41682.60
644.37	42148.37
644.51	41881.55
644.66	41684.94
644.81	41270.67
644.95	41738.77
645.10	41205.13
645.25	41301.09
645.39	41474.29
645.54	41282.37
645.69	41280.03
645.83	41027.25
645.98	40882.14
646.13	40940.65
646.27	41340.88
646.42	41270.67
646.57	41153.64
646.71	41148.96
646.86	41593.66
647.00	41394.71
647.15	41497.70
647.30	41198.11
647.44	41478.97
647.59	41085.76
647.74	40786.18
647.88	41312.80
648.03	41322.16
648.17	41429.82
648.32	41050.66
648.47	41038.95
648.61	40634.04
648.76	40980.44
648.90	41043.63
649.05	40973.42
649.20	40797.88
649.34	40629.36
649.49	41214.49
649.63	40889.16
649.78	40975.76
649.92	40549.78
650.07	41282.37
650.21	40828.30
650.36	41221.52
650.51	40854.05
650.65	40914.90
650.80	40884.48
650.94	40807.24
651.09	40889.16
651.23	40517.01
651.38	40460.84
651.52	40027.84
651.67	40137.85
651.81	40629.36
651.96	40133.17
652.10	39892.09
652.25	40105.08
652.39	40093.38
652.54	40348.50
652.68	40072.31
652.83	40437.44
652.97	40306.37
653.12	40009.12
653.26	39871.03
653.41	40065.29
653.55	40182.32
653.70	40416.37
653.84	40259.55
653.99	40582.55
654.13	39817.19
654.27	39903.79
654.42	39728.25
654.56	39995.07
654.71	39805.49
654.85	39962.31
655.00	40128.48
655.14	39824.22
655.29	40243.17
655.43	39950.60
655.57	39620.59
655.72	39906.13
655.86	39292.91
656.01	39522.29
656.15	39250.78
656.30	39222.70
656.44	39817.19
656.58	39739.96
656.73	39393.56
656.87	39409.94
657.01	39215.68
657.16	39894.43
657.30	39459.09
657.45	39372.49
657.59	39351.43
657.73	39136.10
657.88	39180.57
658.02	39466.11
658.16	39180.57
658.31	39775.06
658.45	39564.42
658.60	39091.63
658.74	39154.82
658.88	39335.04
659.03	38920.77
659.17	39210.99
659.31	38927.79
659.46	39133.76
659.60	38937.15
659.74	38766.29
659.89	38398.83
660.03	38375.42
660.17	38490.11
660.32	38384.79
660.46	38478.41
660.60	38225.63
660.74	38862.26
660.89	38782.68
661.03	38539.26
661.17	38103.92
661.32	37738.80
661.46	38506.49
661.60	38382.45
661.74	37982.21
661.89	38291.16
662.03	38122.65
662.17	37954.13
662.31	38242.01
662.46	38113.28
662.60	37738.80
662.74	37434.53
662.88	37408.78
663.03	37462.61
663.17	37479.00
663.31	37376.01
663.45	37869.87
663.60	37837.10
663.74	37535.17
663.88	37544.53
664.02	37326.86
664.17	37364.31
664.31	37336.23
664.45	37099.83
664.59	37053.02
664.73	37085.79
664.88	36851.73
665.02	36603.64
665.16	37043.66
665.30	36989.83
665.44	37029.62
665.59	36802.58
665.73	36807.26
665.87	36311.07
666.01	36697.26
666.15	36950.04
666.29	36739.39
666.44	36617.68
666.58	36666.83
666.72	35880.41
666.86	36549.81
667.00	36425.76
667.14	36280.64
667.28	36367.24
667.43	35761.05
667.57	36266.60
667.71	36116.81
667.85	36598.96
667.99	35796.15
668.13	35833.60
668.27	35716.58
668.41	35948.29
668.56	35243.79
668.70	35330.39
668.84	35138.46
668.98	35440.39
669.12	35459.12
669.26	35545.72
669.40	35534.01
669.54	35536.35
669.68	34986.33
669.82	34925.47
669.96	34883.34
670.10	34569.71
670.25	34775.68
670.39	34642.27
670.53	34923.13
670.67	34726.53
670.81	34904.41
670.95	34782.70
671.09	34604.82
671.23	34405.88
671.37	34885.68
671.51	34085.22
671.65	34178.84
671.79	34279.49
671.93	34368.43
672.07	34206.93
672.21	34396.51
672.35	33804.36
672.49	34033.73
672.63	33769.25
672.77	33457.96
672.91	33900.32
673.05	33750.52
673.19	33614.77
673.33	33343.27
673.47	33633.50
673.61	33120.92
673.75	33202.84
673.89	33043.68
674.03	32833.04
674.17	33050.70
674.31	32833.04
674.45	32968.79
674.59	32458.55
674.73	32748.78
674.87	32385.99
675.01	32371.95
675.15	32549.83
675.29	32390.67
675.43	32477.27
675.56	32278.33
675.70	32147.26
675.84	31910.86
675.98	31211.04
676.12	31833.63
676.26	31934.27
676.40	31906.18
676.54	31367.86
676.68	31388.92
676.82	30995.71
676.96	31428.71
677.10	31342.11
677.23	31630.00
677.37	31290.62
677.51	30864.64
677.65	30806.13
677.79	31044.87
677.93	31103.38
678.07	30487.82
678.21	30553.35
678.34	30277.17
678.48	30129.72
678.62	30150.78
678.76	30085.25
678.90	30370.79
679.04	29827.79
679.18	30174.19
679.31	29958.86
679.45	29879.28
679.59	29532.88
679.73	29659.27
679.87	29240.31
680.00	28959.45
680.14	29525.86
680.28	29331.59
680.42	28987.53
680.56	29057.75
680.70	28947.75
680.83	28463.25
680.97	28325.16
681.11	28659.86
681.25	28547.51
681.39	28463.25
681.52	28437.51
681.66	28252.61
681.80	27929.61
681.94	27665.13
682.07	27555.13
682.21	27531.72
682.35	27625.34
682.49	27557.47
682.62	27316.39
682.76	27651.09
682.90	27630.02
683.04	27438.10
683.17	27147.87
683.31	27126.81
683.45	26733.60
683.59	26724.24
683.72	27047.23
683.86	26328.69
684.00	26249.11
684.13	26497.20
684.27	26181.23
684.41	26197.62
684.55	25972.92
684.68	25949.52
684.82	25809.09
684.96	26054.84
685.09	25876.96
685.23	25678.02
685.37	26012.71
685.50	26155.49
685.64	26033.78
685.78	25626.53
685.91	25420.56
686.05	24872.87
686.19	24910.32
686.32	24781.59
686.46	24842.45
686.60	24341.57
686.73	24877.55
686.87	24374.34
687.01	24671.59
687.14	24582.65
687.28	24692.65
687.42	24608.39
687.55	24133.26
687.69	24418.81
687.82	23711.97
687.96	24224.54
688.10	24205.82
688.23	23604.30
688.37	23929.64
688.50	23943.68
688.64	23625.37
688.78	23641.75
688.91	23506.00
689.05	23393.65
689.18	22918.53
689.32	22609.58
689.46	22764.05
689.59	22876.40
689.73	22885.76
689.86	23042.57
690.00	22759.37
690.13	22567.45
690.27	22363.82
690.41	22551.06
690.54	22366.16
690.68	22389.56
690.81	22089.98
690.95	22094.66
691.08	21762.30
691.22	21818.47
691.35	21738.90
691.49	22120.40
691.62	21970.61
691.76	21289.51
691.89	21214.62
692.03	20912.69
692.16	21238.02
692.30	20959.50
692.43	21305.90
692.57	20884.60
692.70	20783.96
692.84	20950.14
692.97	20325.21
693.11	20428.20
693.24	20259.68
693.38	20482.03
693.51	20219.89
693.65	19939.02
693.78	20065.41
693.92	19981.15
694.05	19655.82
694.19	19997.54
694.32	19953.07
694.45	19908.60
694.59	19716.67
694.72	19934.34
694.86	19543.47
694.99	19253.25
695.13	19344.53
695.26	19365.59
695.39	19136.22
695.53	18951.32
695.66	19147.92
695.80	18916.21
695.93	18824.93
696.07	18745.35
696.20	18450.44
696.33	18232.77
696.47	18251.50
696.60	18106.38
696.73	18202.35
696.87	18424.70
697.00	18054.89
697.14	18075.96
697.27	17795.09
697.40	17928.50
697.54	17909.78
697.67	17804.46
697.80	17774.03
697.94	17479.12
698.07	17493.16
698.21	17542.32
698.34	17200.60
698.47	17125.70
698.61	17048.46
698.74	16922.07
698.87	16755.90
699.01	16812.07
699.14	16631.85
699.27	16835.47
699.40	16566.31
699.54	16423.54
699.67	16271.40
699.80	16486.73
699.94	16407.16
700.07	16350.98
700.20	16226.93
700.34	16119.27
700.47	15906.28
700.60	16318.22
700.73	15939.05
700.87	15602.01
701.00	15524.77
701.13	15611.37
701.26	15536.48
701.40	15756.49
701.53	15433.49
701.66	15410.09
701.79	15117.52
701.93	15115.18
702.06	14801.55
702.19	14700.90
702.32	15166.67
702.46	15103.48
702.59	15110.50
702.72	15255.61
702.85	15150.29
702.99	14768.78
703.12	14934.96
703.25	14462.17
703.38	14534.73
703.51	14265.57
703.65	14281.95
703.78	14148.54
703.91	14045.55
704.04	13935.55
704.17	13867.67
704.31	14029.17
704.44	13865.33
704.57	13977.68
704.70	13743.63
704.83	13460.42
704.96	13327.01
705.10	13425.31
705.23	13352.76
>>>>>End Processed Spectral Data<<<<<
