SpectraSuite Data File
++++++++++++++++++++++++++++++++++++
Date: Fri Oct 25 10:47:52 EDT 2013
User: price-jones
Dark Spectrum Present: No
Reference Spectrum Present: No
Number of Sampled Component Spectra: 1
Spectrometers: USB2+H05261
Integration Time (usec): 100000 (USB2+H05261)
Spectra Averaged: 1 (USB2+H05261)
Boxcar Smoothing: 0 (USB2+H05261)
Correct for Electrical Dark: No (USB2+H05261)
Strobe/Lamp Enabled: No (USB2+H05261)
Correct for Detector Non-linearity: No (USB2+H05261)
Correct for Stray Light: No (USB2+H05261)
Number of Pixels in Processed Spectrum: 2048
>>>>>Begin Processed Spectral Data<<<<<
365.73	147.45
365.92	147.45
366.12	147.45
366.32	0.00
366.52	0.00
366.72	56.17
366.91	56.17
367.11	88.94
367.31	67.88
367.51	28.09
367.70	21.06
367.90	79.58
368.10	21.06
368.30	46.81
368.49	21.06
368.69	63.19
368.89	46.81
369.09	63.19
369.28	91.28
369.48	44.47
369.68	56.17
369.87	161.50
370.07	65.54
370.27	163.84
370.47	133.41
370.66	374.49
370.86	400.23
371.06	407.25
371.25	458.74
371.45	463.43
371.65	444.70
371.84	425.98
372.04	437.68
372.24	528.96
372.44	526.62
372.63	461.09
372.83	491.51
373.03	416.62
373.22	409.59
373.42	517.26
373.62	496.19
373.81	500.87
374.01	564.07
374.21	582.79
374.40	503.22
374.60	587.47
374.79	521.94
374.99	617.90
375.19	564.07
375.38	475.13
375.58	613.22
375.78	596.84
375.97	589.82
376.17	615.56
376.37	601.52
376.56	521.94
376.76	557.05
376.95	543.00
377.15	702.16
377.35	617.90
377.54	643.65
377.74	545.34
377.93	629.60
378.13	660.03
378.33	650.67
378.52	685.78
378.72	655.35
378.91	606.20
379.11	589.82
379.31	641.31
379.50	578.11
379.70	571.09
379.89	695.14
380.09	643.65
380.28	643.65
380.48	683.44
380.68	638.97
380.87	596.84
381.07	699.82
381.26	645.99
381.46	685.78
381.65	704.50
381.85	629.60
382.04	678.76
382.24	690.46
382.43	739.61
382.63	725.57
382.83	737.27
383.02	812.17
383.22	758.33
383.41	730.25
383.61	723.23
383.80	779.40
384.00	739.61
384.19	809.83
384.39	669.39
384.58	746.63
384.78	711.52
384.97	805.14
385.17	695.14
385.36	755.99
385.56	746.63
385.75	716.20
385.95	732.59
386.14	732.59
386.34	734.93
386.53	800.46
386.72	720.88
386.92	847.27
387.11	947.92
387.31	877.70
387.50	816.85
387.70	793.44
387.89	781.74
388.09	830.89
388.28	812.17
388.48	758.33
388.67	851.96
388.86	856.64
389.06	858.98
389.25	929.19
389.45	837.91
389.64	917.49
389.84	950.26
390.03	905.79
390.22	961.96
390.42	880.04
390.61	976.00
390.81	919.83
391.00	952.60
391.19	954.94
391.39	898.77
391.58	924.51
391.78	952.60
391.97	1071.97
392.16	936.21
392.36	919.83
392.55	924.51
392.75	936.21
392.94	943.24
393.13	968.98
393.33	940.90
393.52	983.02
393.71	992.39
393.91	994.73
394.10	987.71
394.29	1116.44
394.49	1050.90
394.68	1048.56
394.88	1062.60
395.07	1093.03
395.26	1163.25
395.46	1128.14
395.65	1083.67
395.84	1090.69
396.04	1151.54
396.23	1212.40
396.42	1123.46
396.62	1102.39
396.81	1259.21
397.00	1121.12
397.19	1207.72
397.39	1210.06
397.58	1263.89
397.77	1224.10
397.97	1163.25
398.16	1221.76
398.35	1329.42
398.55	1277.93
398.74	1327.08
398.93	1380.92
399.12	1242.82
399.32	1247.51
399.51	1359.85
399.70	1369.21
399.90	1303.68
400.09	1409.00
400.28	1378.58
400.47	1514.33
400.67	1446.45
400.86	1444.11
401.05	1465.18
401.24	1350.49
401.44	1434.75
401.63	1488.58
401.82	1502.62
402.01	1476.88
402.21	1526.03
402.40	1495.60
402.59	1540.07
402.78	1533.05
402.97	1528.37
403.17	1521.35
403.36	1607.95
403.55	1584.54
403.74	1661.78
403.93	1502.62
404.13	1624.33
404.32	1619.65
404.51	1633.69
404.70	1612.63
404.89	1643.06
405.09	1713.27
405.28	1734.34
405.47	1664.12
405.66	1849.02
405.85	1809.23
406.05	1724.97
406.24	1696.89
406.43	1778.81
406.62	1757.74
406.81	1872.43
407.00	1797.53
407.20	1776.47
407.39	1844.34
407.58	1956.69
407.77	1898.17
407.96	1937.96
408.15	1898.17
408.34	1949.67
408.54	2003.50
408.73	1937.96
408.92	1963.71
409.11	2057.33
409.30	1947.33
409.49	2085.42
409.68	1980.09
409.87	1893.49
410.07	2108.82
410.26	2160.31
410.45	2129.89
410.64	2150.95
410.83	2165.00
411.02	2057.33
411.21	2223.51
411.40	2256.28
411.59	2354.58
411.78	2373.30
411.98	2331.17
412.17	2345.22
412.36	2312.45
412.55	2420.11
412.74	2394.37
412.93	2326.49
413.12	2340.54
413.31	2499.69
413.50	2544.16
413.69	2541.82
413.88	2605.02
414.07	2457.56
414.26	2530.12
414.45	2586.29
414.64	2609.70
414.83	2684.59
415.02	2785.24
415.22	2853.11
415.41	2752.47
415.60	2843.75
415.79	2787.58
415.98	2813.32
416.17	2794.60
416.36	2874.18
416.55	2794.60
416.74	2846.09
416.93	2913.97
417.12	2991.20
417.31	2949.08
417.50	2963.12
417.69	3091.85
417.88	3038.02
418.07	3012.27
418.26	3021.63
418.45	3164.40
418.64	3141.00
418.83	3220.58
419.02	3126.96
419.21	3265.05
419.39	3148.02
419.58	3192.49
419.77	3136.32
419.96	3279.09
420.15	3211.22
420.34	3274.41
420.53	3311.86
420.72	3368.03
420.91	3403.14
421.10	3391.44
421.29	3377.39
421.48	3316.54
421.67	3440.59
421.86	3391.44
422.05	3295.47
422.24	3307.18
422.43	3527.19
422.61	3361.01
422.80	3541.23
422.99	3480.38
423.18	3550.59
423.37	3550.59
423.56	3581.02
423.75	3482.72
423.94	3389.10
424.13	3318.88
424.32	3389.10
424.50	3552.93
424.69	3487.40
424.88	3611.45
425.07	3456.97
425.26	3475.70
425.45	3630.17
425.64	3482.72
425.83	3454.63
426.01	3534.21
426.20	3456.97
426.39	3634.85
426.58	3574.00
426.77	3658.26
426.96	3620.81
427.15	3590.38
427.33	3583.36
427.52	3662.94
427.71	3510.80
427.90	3658.26
428.09	3754.22
428.28	3716.77
428.46	3889.97
428.65	3922.74
428.84	3845.50
429.03	3801.03
429.22	3786.99
429.40	3901.67
429.59	3913.38
429.78	3684.00
429.97	3714.43
430.16	3676.98
430.34	3751.88
430.53	3854.86
430.72	3836.14
430.91	3908.69
431.10	3939.12
431.28	4014.02
431.47	4018.70
431.66	4070.19
431.85	4032.74
432.03	4196.58
432.22	4147.43
432.41	4112.32
432.60	4198.92
432.79	4194.24
432.97	4306.59
433.16	4128.70
433.35	4124.02
433.54	4224.67
433.72	4196.58
433.91	4229.35
434.10	4287.86
434.28	4271.48
434.47	4339.35
434.66	4484.47
434.85	4351.06
435.03	4432.97
435.22	4297.22
435.41	4603.83
435.59	4486.81
435.78	4582.77
435.97	4432.97
436.16	4573.41
436.34	4620.22
436.53	4610.86
436.72	4805.12
436.90	4601.49
437.09	4571.07
437.28	4568.73
437.46	4606.17
437.65	4657.67
437.84	4615.54
438.02	4786.40
438.21	4844.91
438.40	4671.71
438.58	4800.44
438.77	4903.42
438.96	4873.00
439.14	4887.04
439.33	5118.75
439.52	5142.16
439.70	5043.85
439.89	5060.24
440.08	5146.84
440.26	5219.39
440.45	4990.02
440.63	5210.03
440.82	5423.02
441.01	5277.91
441.19	5334.08
441.38	5521.32
441.57	5533.03
441.75	5551.75
441.94	5554.09
442.12	5563.45
442.31	5572.82
442.50	5591.54
442.68	5563.45
442.87	5612.60
443.05	5628.99
443.24	5720.27
443.43	5738.99
443.61	5701.54
443.80	5879.43
443.98	5713.25
444.17	5460.47
444.35	5727.29
444.54	5879.43
444.73	5804.53
444.91	5624.31
445.10	5804.53
445.28	5696.86
445.47	5750.70
445.65	5755.38
445.84	5844.32
446.02	5771.76
446.21	5856.02
446.39	5813.89
446.58	5928.58
446.77	5951.98
446.95	5916.87
447.14	5926.24
447.32	5860.70
447.51	5858.36
447.69	5940.28
447.88	6120.50
448.06	6146.25
448.25	5858.36
448.43	6157.95
448.62	6040.92
448.80	5818.57
448.99	6171.99
449.17	6143.91
449.36	6024.54
449.54	6052.63
449.73	6223.48
449.91	6375.62
450.10	6333.49
450.28	6527.75
450.46	6340.51
450.65	6483.28
450.83	6473.92
451.02	6228.17
451.20	6382.64
451.39	6370.94
451.57	6272.64
451.76	6354.55
451.94	6466.90
452.13	6619.04
452.31	6480.94
452.49	6448.18
452.68	6399.02
452.86	6693.93
453.05	6593.29
453.23	6642.44
453.42	6436.47
453.60	6712.66
453.78	6656.48
453.97	6705.63
454.15	6630.74
454.34	6693.93
454.52	6825.00
454.70	6600.31
454.89	6799.26
455.07	6745.42
455.26	6825.00
455.44	6780.53
455.62	6895.22
455.81	6878.83
455.99	6817.98
456.17	6967.77
456.36	6923.30
456.54	7021.61
456.73	7045.01
456.91	7265.02
457.09	7037.99
457.28	7396.09
457.46	7087.14
457.64	7225.23
457.83	7295.45
458.01	7183.10
458.19	7372.69
458.38	7199.49
458.56	7363.33
458.74	7243.96
458.93	7286.09
459.11	7541.21
459.29	7321.20
459.48	7501.42
459.66	7552.91
459.84	7513.12
460.03	7583.34
460.21	7513.12
460.39	7712.07
460.57	7403.11
460.76	7730.79
460.94	7857.18
461.12	7669.94
461.31	7674.62
461.49	7599.72
461.67	7726.11
461.85	7866.54
462.04	7777.60
462.22	8229.32
462.40	7786.96
462.59	8229.32
462.77	7927.39
462.95	7981.23
463.13	7981.23
463.32	7992.93
463.50	8126.34
463.68	7962.50
463.86	7899.31
464.05	8086.55
464.23	8058.46
464.41	8166.13
464.59	8035.06
464.78	8271.45
464.96	8142.72
465.14	8086.55
465.32	8182.51
465.50	8002.29
465.69	8404.86
465.87	8344.01
466.05	8325.29
466.23	8437.63
466.41	8351.03
466.60	8428.27
466.78	8409.54
466.96	8182.51
467.14	8444.65
467.32	8465.72
467.51	8702.11
467.69	8290.18
467.87	8596.79
468.05	8664.66
468.23	8688.07
468.41	8482.10
468.60	8664.66
468.78	8552.32
468.96	8622.53
469.14	8681.05
469.32	8739.56
469.50	8575.72
469.69	8688.07
469.87	8992.34
470.05	8851.91
470.23	8791.05
470.41	8898.72
470.59	9191.28
470.77	8931.48
470.95	8887.01
471.14	9193.62
471.32	9004.04
471.50	9261.50
471.68	9172.56
471.86	9254.48
472.04	9254.48
472.22	9675.77
472.40	9202.99
472.58	9331.72
472.77	9448.74
472.95	9523.64
473.13	9783.44
473.31	9631.30
473.49	9568.11
473.67	9465.13
473.85	9682.80
474.03	10064.30
474.21	10024.51
474.39	9813.87
474.57	9984.73
474.75	10078.35
474.93	10108.77
475.12	10033.88
475.30	10193.03
475.48	10263.25
475.66	10157.92
475.84	10150.90
476.02	10345.17
476.20	10338.15
476.38	10544.11
476.56	10736.04
476.74	10771.15
476.92	10670.50
477.10	10733.70
477.28	10864.77
477.46	11061.37
477.64	10923.28
477.82	11236.91
478.00	11311.81
478.18	11201.80
478.36	11396.07
478.54	11681.61
478.72	11602.04
478.90	11623.10
479.08	11957.80
479.26	11861.84
479.44	12056.10
479.62	12060.78
479.80	12168.45
479.98	12042.06
480.16	12304.20
480.34	12215.26
480.52	12393.14
480.70	12446.97
480.88	12610.81
481.06	12608.47
481.24	12645.91
481.41	12725.49
481.59	13165.51
481.77	12931.46
481.95	13074.23
482.13	13064.87
482.31	13275.52
482.49	13589.15
482.67	13614.90
482.85	13596.17
483.03	13614.90
483.21	13914.48
483.39	13825.54
483.57	13928.53
483.74	14094.71
483.92	14319.40
484.10	14155.56
484.28	14328.76
484.46	14808.57
484.64	15096.46
484.82	14511.32
485.00	14799.21
485.18	15040.28
485.35	15307.10
485.53	14843.68
485.71	14820.27
485.89	15382.00
486.07	15066.03
486.25	15272.00
486.43	15456.90
486.61	15932.03
486.78	15639.46
486.96	15836.06
487.14	16030.33
487.32	16170.76
487.50	16332.26
487.68	16521.84
487.85	16629.51
488.03	16992.29
488.21	17074.21
488.39	16769.94
488.57	17083.57
488.75	17090.59
488.92	17390.18
489.10	17551.68
489.28	17664.02
489.46	17762.33
489.64	17661.68
489.81	18319.37
489.99	18125.11
490.17	18265.54
490.35	18544.06
490.53	18389.59
490.70	18473.85
490.88	18766.42
491.06	19271.97
491.24	18953.66
491.41	18782.80
491.59	19220.48
491.77	19241.54
491.95	19559.86
492.13	19564.54
492.30	19690.93
492.48	19770.51
492.66	19686.25
492.84	20170.74
493.01	20418.83
493.19	20257.34
493.37	20585.01
493.54	20500.75
493.72	20819.07
493.90	21111.63
494.08	21001.63
494.25	21315.26
494.43	21378.45
494.61	21593.78
494.79	21448.67
494.96	21556.33
495.14	21521.23
495.32	21776.34
495.49	21535.27
495.67	21607.83
495.85	21930.82
496.02	22459.78
496.20	22389.56
496.38	22286.58
496.55	22448.08
496.73	22941.93
496.91	22888.10
497.09	22939.59
497.26	23136.20
497.44	23030.87
497.62	23019.17
497.79	23447.49
497.97	23023.85
498.14	23215.77
498.32	23477.91
498.50	23154.92
498.67	23419.40
498.85	23882.83
499.03	23924.96
499.20	24175.39
499.38	24100.50
499.56	24318.17
499.73	23716.65
499.91	24425.83
500.08	24353.27
500.26	24292.42
500.44	24458.60
500.61	24432.85
500.79	24566.26
500.97	25214.59
501.14	25102.25
501.32	25083.52
501.49	25025.01
501.67	24975.86
501.84	25338.64
502.02	25043.73
502.20	25453.33
502.37	25649.93
502.55	25558.65
502.72	25748.23
502.90	26015.05
503.07	25898.03
503.25	25757.60
503.43	25874.62
503.60	26045.48
503.78	26363.79
503.95	25996.33
504.13	26366.13
504.30	26485.50
504.48	26380.18
504.65	26527.63
504.83	26707.85
505.01	26871.69
505.18	26712.53
505.36	27070.64
505.53	26939.57
505.71	27325.75
505.88	27278.94
506.06	26977.01
506.23	27566.83
506.41	26998.08
506.58	27332.78
506.76	27758.75
506.93	27644.07
507.11	27700.24
507.28	27761.09
507.46	27669.81
507.63	28135.58
507.81	28161.33
507.98	28037.28
508.16	28044.30
508.33	28322.82
508.50	28285.37
508.68	28933.70
508.85	28819.02
509.03	28779.23
509.20	28554.54
509.38	29067.11
509.55	29151.37
509.73	28961.79
509.90	29017.96
510.08	29134.99
510.25	29399.47
510.42	29163.08
510.60	29460.32
510.77	29237.97
510.95	29310.53
511.12	29476.71
511.30	29469.69
511.47	30221.00
511.64	29902.68
511.82	30312.28
511.99	30155.46
512.17	29993.97
512.34	30031.41
512.51	30410.58
512.69	30370.79
512.86	30710.17
513.04	30724.21
513.21	30314.62
513.38	30478.46
513.56	30534.63
513.73	30405.90
513.90	30724.21
514.08	30859.96
514.25	30911.46
514.43	31250.83
514.60	30646.97
514.77	31189.98
514.95	31178.28
515.12	31213.38
515.29	31400.63
515.47	31564.46
515.64	31428.71
515.81	31304.67
515.99	31421.69
516.16	32046.62
516.33	31517.65
516.51	31915.54
516.68	30955.93
516.85	31608.93
517.03	31571.49
517.20	31571.49
517.37	31948.31
517.54	32170.66
517.72	32041.93
517.89	31859.37
518.06	31594.89
518.24	32233.86
518.41	32205.77
518.58	32161.30
518.75	32587.28
518.93	32987.51
519.10	32517.06
519.27	32699.62
519.45	32404.72
519.62	32800.27
519.79	33266.03
519.96	33092.83
520.14	33130.28
520.31	33104.54
520.48	33638.18
520.65	33408.81
520.83	33324.55
521.00	33614.77
521.17	33205.18
521.34	33876.91
521.52	33806.70
521.69	34171.82
521.86	33851.17
522.03	34078.20
522.20	33844.15
522.38	34314.59
522.55	34548.65
522.72	34132.03
522.89	34160.12
523.07	34319.28
523.24	34164.80
523.41	34433.96
523.58	34522.90
523.75	34593.12
523.92	34754.61
524.10	34668.02
524.27	34873.98
524.44	35269.53
524.61	34883.34
524.78	34911.43
524.96	35161.87
525.13	35316.34
525.30	35447.41
525.47	35157.19
525.64	34930.16
525.81	35428.69
525.98	35007.39
526.16	34983.99
526.33	35477.84
526.50	35601.89
526.67	35742.32
526.84	35339.75
527.01	35428.69
527.18	35461.46
527.36	36105.10
527.53	35885.09
527.70	36301.71
527.87	36210.43
528.04	35669.76
528.21	36463.21
528.38	35779.77
528.55	36353.20
528.72	36362.56
528.89	36481.93
529.07	36624.70
529.24	35735.30
529.41	36767.48
529.58	36119.15
529.75	36704.28
529.92	37214.52
530.09	36802.58
530.26	36779.18
530.43	36732.37
530.60	36477.25
530.77	36744.07
530.94	37172.39
531.11	36935.99
531.28	36959.40
531.46	37392.40
531.63	37294.10
531.80	36877.48
531.97	37031.96
532.14	37254.31
532.31	37191.11
532.48	37509.43
532.65	37947.11
532.82	37219.20
532.99	37914.34
533.16	37043.66
533.33	37848.80
533.50	37949.45
533.67	37453.25
533.84	37579.64
534.01	37516.45
534.18	37633.47
534.35	37867.53
534.52	37860.51
534.69	38101.58
534.86	38284.14
535.03	37944.76
535.20	38206.90
535.37	38417.55
535.54	38492.45
535.71	38436.28
535.88	38642.24
536.05	37998.60
536.22	38569.69
536.38	38309.89
536.55	38532.24
536.72	38433.94
536.89	38113.28
537.06	38363.72
537.23	38941.83
537.40	38501.81
537.57	38607.14
537.74	38948.85
537.91	38773.31
538.08	38630.54
538.25	38731.18
538.42	38895.02
538.59	39367.81
538.75	38770.97
538.92	39199.29
539.09	39126.74
539.26	39255.46
539.43	39206.31
539.60	39842.94
539.77	39201.63
539.94	39285.89
540.11	39129.08
540.28	39187.59
540.44	39349.09
540.61	39159.50
540.78	39330.36
540.95	39559.73
541.12	39154.82
541.29	39407.60
541.46	39526.97
541.62	39725.91
541.79	39821.87
541.96	39262.49
542.13	40069.97
542.30	39765.70
542.47	40137.85
542.63	39737.62
542.80	39873.37
542.97	40715.96
543.14	40495.95
543.31	40563.82
543.48	40517.01
543.64	41076.40
543.81	40715.96
543.98	40439.78
544.15	40687.87
544.32	40957.03
544.48	40657.45
544.65	40683.19
544.82	40676.17
544.99	40439.78
545.16	40383.60
545.32	40968.74
545.49	41200.45
545.66	40776.81
545.83	40924.27
546.00	41216.83
546.16	41099.81
546.33	41074.06
546.50	40652.76
546.67	41179.39
546.83	40638.72
547.00	40631.70
547.17	40858.73
547.34	41411.10
547.50	41467.27
547.67	41282.37
547.84	41090.44
548.00	41368.97
548.17	41762.18
548.34	41322.16
548.51	41577.28
548.67	41467.27
548.84	41710.69
549.01	41352.58
549.18	41488.34
549.34	41345.56
549.51	41273.01
549.68	42382.42
549.84	41825.37
550.01	42569.66
550.18	41647.49
550.34	41888.57
550.51	41738.77
550.68	41975.17
550.84	41766.86
551.01	41715.37
551.18	42007.94
551.34	41993.89
551.51	42019.64
551.68	42532.22
551.84	42340.29
552.01	42319.23
552.18	42021.98
552.34	41780.90
552.51	42342.63
552.68	42005.59
552.84	42541.58
553.01	42733.50
553.18	42436.25
553.34	42391.78
553.51	42351.99
553.67	42417.53
553.84	42904.36
554.01	42539.24
554.17	42777.97
554.34	42864.57
554.51	42775.63
554.67	42906.70
554.84	43058.84
555.00	42934.79
555.17	43058.84
555.33	42810.74
555.50	42873.93
555.67	42848.19
555.83	42857.55
556.00	42419.87
556.16	43152.46
556.33	42890.32
556.50	42972.24
556.66	42960.53
556.83	43000.32
556.99	43199.27
557.16	43358.42
557.32	42773.29
557.49	43105.65
557.65	42955.85
557.82	42911.38
557.98	42543.92
558.15	43138.41
558.32	43285.87
558.48	43229.69
558.65	43068.20
558.81	43180.54
558.98	43419.28
559.14	42969.90
559.31	42993.30
559.47	43536.30
559.64	43770.36
559.80	43611.20
559.97	43470.77
560.13	43320.98
560.30	43005.00
560.46	43274.16
560.63	43323.32
560.79	43374.81
560.96	43693.12
561.12	43423.96
561.29	43791.42
561.45	43826.53
561.61	43838.23
561.78	43814.83
561.94	43407.58
562.11	43445.02
562.27	43564.39
562.44	43489.49
562.60	43744.61
562.77	44233.78
562.93	44009.09
563.10	43838.23
563.26	43414.60
563.42	43515.24
563.59	43548.01
563.75	43620.56
563.92	44168.25
564.08	43840.57
564.24	44109.74
564.41	43601.84
564.57	43981.01
564.74	43674.40
564.90	43812.49
565.07	43896.75
565.23	43803.13
565.39	43814.83
565.56	44617.63
565.72	43950.58
565.88	43835.89
566.05	44034.84
566.21	43978.67
566.38	44046.54
566.54	43592.48
566.70	44140.16
566.87	44428.05
567.03	44102.71
567.19	44514.65
567.36	44208.04
567.52	44053.56
567.68	44280.60
567.85	44170.59
568.01	44252.51
568.17	44182.29
568.34	44100.37
568.50	44271.23
568.66	44203.36
568.83	44570.82
568.99	44112.08
569.15	44315.70
569.32	44060.58
569.48	43995.05
569.64	44388.26
569.81	44130.80
569.97	44369.54
570.13	44088.67
570.30	44282.94
570.46	43810.15
570.62	44081.65
570.78	43913.13
570.95	44025.48
571.11	44683.17
571.27	44378.90
571.43	44402.30
571.60	44561.46
571.76	44559.12
571.92	44315.70
572.09	44226.76
572.25	44076.97
572.41	44439.75
572.57	44325.07
572.74	45228.51
572.90	44381.24
573.06	44526.35
573.22	44250.17
573.38	44060.58
573.55	44191.65
573.71	44516.99
573.87	44514.65
574.03	44638.70
574.20	44442.09
574.36	44713.59
574.52	44760.40
574.68	44385.92
574.84	44514.65
575.01	44341.45
575.17	44601.25
575.33	44205.70
575.49	43885.04
575.65	44687.85
575.82	44769.77
575.98	44612.95
576.14	44971.05
576.30	44275.91
576.46	44137.82
576.62	44577.84
576.79	44416.35
576.95	44229.10
577.11	44540.39
577.27	45085.74
577.43	44568.48
577.59	44697.21
577.75	44549.76
577.92	44217.40
578.08	44542.74
578.24	44437.41
578.40	44240.81
578.56	44493.58
578.72	44788.49
578.88	44669.12
579.04	44545.08
579.21	44299.32
579.37	44428.05
579.53	44535.71
579.69	44123.78
579.85	44430.39
580.01	44641.04
580.17	44589.55
580.33	45024.89
580.49	44687.85
580.65	44680.83
580.82	44734.66
580.98	44498.26
581.14	44804.88
581.30	44404.64
581.46	44589.55
581.62	44610.61
581.78	44683.17
581.94	44884.45
582.10	44655.08
582.26	44971.05
582.42	44432.73
582.58	44554.44
582.74	44456.14
582.90	44559.12
583.06	44751.04
583.22	44832.96
583.38	44959.35
583.54	44655.08
583.70	44875.09
583.86	44535.71
584.02	44704.23
584.18	44727.64
584.34	45088.08
584.50	44559.12
584.66	44671.46
584.82	44662.10
584.98	44856.37
585.14	44854.03
585.30	44641.04
585.46	44549.76
585.62	44484.22
585.78	44367.20
585.94	44472.52
586.10	44547.42
586.26	44428.05
586.42	44889.13
586.58	44802.53
586.74	44809.56
586.90	44587.21
587.06	44360.17
587.22	44802.53
587.38	44388.26
587.54	45071.70
587.70	44823.60
587.86	44587.21
588.02	44837.64
588.18	44720.62
588.34	44669.12
588.49	44432.73
588.65	44395.28
588.81	44521.67
588.97	44414.01
589.13	44428.05
589.29	44098.03
589.45	44725.30
589.61	44947.65
589.77	44896.16
589.93	45233.19
590.08	45038.93
590.24	45109.14
590.40	44823.60
590.56	45249.58
590.72	45198.09
590.88	44992.12
591.04	44868.07
591.20	45380.65
591.35	45209.79
591.51	45563.21
591.67	44758.06
591.83	45254.26
591.99	44966.37
592.15	45127.87
592.31	44680.83
592.46	44898.50
592.62	44769.77
592.78	45085.74
592.94	44910.20
593.10	44839.98
593.26	45170.00
593.41	44940.63
593.57	44474.86
593.73	45359.58
593.89	44975.73
594.05	44928.92
594.20	44926.58
594.36	45104.46
594.52	45167.66
594.68	44907.86
594.84	44617.63
594.99	45191.06
595.15	44898.50
595.31	45591.30
595.47	45008.50
595.62	44987.44
595.78	45191.06
595.94	45155.96
596.10	45375.97
596.25	45287.03
596.41	45406.39
596.57	45230.85
596.73	45394.69
596.88	44940.63
597.04	45118.51
597.20	45270.64
597.36	44914.88
597.51	45504.70
597.67	45329.16
597.83	45387.67
597.99	45404.05
598.14	45024.89
598.30	45165.32
598.46	44879.77
598.61	45001.48
598.77	44954.67
598.93	44823.60
599.09	45399.37
599.24	45401.71
599.40	45251.92
599.56	45162.98
599.71	45048.29
599.87	45347.88
600.03	45186.38
600.18	45216.81
600.34	45141.91
600.50	45097.44
600.65	44996.80
600.81	45455.54
600.97	45631.08
601.12	45464.91
601.28	45195.74
601.44	45167.66
601.59	44968.71
601.75	44760.40
601.91	44870.41
602.06	44842.32
602.22	45209.79
602.37	45069.36
602.53	45177.02
602.69	45523.42
602.84	45373.63
603.00	45193.40
603.16	45413.41
603.31	44926.58
603.47	45237.87
603.62	44783.81
603.78	44978.07
603.94	45151.27
604.09	45663.85
604.25	45022.54
604.40	44938.29
604.56	45144.25
604.71	45008.50
604.87	44849.35
605.03	45219.15
605.18	44931.26
605.34	45029.57
605.49	44631.68
605.65	44994.46
605.80	44851.69
605.96	45237.87
606.12	45296.39
606.27	45237.87
606.43	45228.51
606.58	44804.88
606.74	45289.37
606.89	44856.37
607.05	45336.18
607.20	44978.07
607.36	44989.78
607.51	45280.00
607.67	45270.64
607.82	44758.06
607.98	45186.38
608.13	45165.32
608.29	44610.61
608.44	44729.98
608.60	44425.71
608.75	44701.89
608.91	44715.93
609.06	44594.23
609.22	45088.08
609.37	44589.55
609.53	44669.12
609.68	44542.74
609.84	44608.27
609.99	44858.71
610.15	44626.99
610.30	44208.04
610.46	44481.88
610.61	44442.09
610.76	44292.30
610.92	44610.61
611.07	43833.55
611.23	44339.11
611.38	44928.92
611.54	44287.62
611.69	44264.21
611.84	44364.85
612.00	44362.51
612.15	44435.07
612.31	44367.20
612.46	44514.65
612.62	44570.82
612.77	44301.66
612.92	44947.65
613.08	43971.64
613.23	44512.31
613.39	43948.24
613.54	44238.47
613.69	43885.04
613.85	44006.75
614.00	44069.95
614.15	44474.86
614.31	44308.68
614.46	44465.50
614.62	44327.41
614.77	44212.72
614.92	44055.90
615.08	43714.19
615.23	43955.26
615.38	43941.22
615.54	43501.20
615.69	44083.99
615.84	43473.11
616.00	43681.42
616.15	43913.13
616.30	44198.68
616.46	43665.03
616.61	43735.25
616.76	43845.26
616.92	43653.33
617.07	43152.46
617.22	43548.01
617.37	43281.19
617.53	43833.55
617.68	43515.24
617.83	43615.88
617.99	43758.66
618.14	43807.81
618.29	43585.46
618.45	43681.42
618.60	43540.99
618.75	43531.62
618.90	43540.99
619.06	43756.32
619.21	43636.95
619.36	43714.19
619.51	43267.14
619.67	43313.95
619.82	43599.50
619.97	43735.25
620.12	43489.49
620.28	43056.50
620.43	43152.46
620.58	43468.43
620.73	42892.66
620.89	42768.61
621.04	43016.71
621.19	43232.04
621.34	43501.20
621.49	42983.94
621.65	43313.95
621.80	43643.97
621.95	43124.37
622.10	42953.51
622.25	42424.55
622.41	42714.78
622.56	42780.31
622.71	42890.32
622.86	42794.36
623.01	42665.63
623.16	43002.66
623.32	43075.22
623.47	43047.13
623.62	42682.01
623.77	42768.61
623.92	42930.11
624.07	42562.64
624.23	42728.82
624.38	42426.89
624.53	42555.62
624.68	42569.66
624.83	42841.17
624.98	42747.54
625.13	42600.09
625.29	42546.26
625.44	42761.59
625.59	42316.89
625.74	42408.17
625.89	42452.64
626.04	41844.10
626.19	41961.12
626.34	42319.23
626.49	42665.63
626.65	42389.44
626.80	42447.96
626.95	42391.78
627.10	42136.66
627.25	41689.62
627.40	42029.00
627.55	41588.98
627.70	41619.41
627.85	41713.03
628.00	41858.14
628.15	41827.71
628.30	41982.19
628.45	41804.31
628.60	42139.00
628.76	41895.59
628.91	42476.04
629.06	41619.41
629.21	41972.83
629.36	41806.65
629.51	41104.49
629.66	41553.87
629.81	41296.41
629.96	41895.59
630.11	41610.04
630.26	41787.92
630.41	41724.73
630.56	41603.02
630.71	41961.12
630.86	41443.87
631.01	41448.55
631.16	41242.58
631.31	41013.21
631.46	40926.61
631.61	41624.09
631.76	41027.25
631.91	41319.82
632.06	41368.97
632.21	41048.32
632.36	41804.31
632.51	41031.93
632.66	41474.29
632.81	40687.87
632.96	40879.80
633.10	40954.69
633.25	41179.39
633.40	41202.79
633.55	41198.11
633.70	41181.73
633.85	40762.77
634.00	41282.37
634.15	41184.07
634.30	40968.74
634.45	41102.15
634.60	40945.33
634.75	41191.09
634.90	41083.42
635.05	41076.40
635.19	40795.54
635.34	41015.55
635.49	41123.21
635.64	40737.02
635.79	40580.21
635.94	40620.00
636.09	40865.75
636.24	40840.01
636.39	39983.37
636.53	39842.94
636.68	40605.95
636.83	39950.60
636.98	40500.63
637.13	40254.87
637.28	40498.29
637.43	40959.38
637.57	40765.11
637.72	40549.78
637.87	40287.64
638.02	40229.13
638.17	39971.67
638.32	40172.96
638.46	40112.10
638.61	39831.24
638.76	40442.12
638.91	40165.93
639.06	40339.13
639.20	40137.85
639.35	40315.73
639.50	39880.39
639.65	40596.59
639.80	40383.60
639.94	39943.58
640.09	39615.91
640.24	39880.39
640.39	39697.83
640.54	40259.55
640.68	39686.12
640.83	39711.87
640.98	39938.90
641.13	39655.70
641.27	39910.82
641.42	39669.74
641.57	39779.74
641.72	39803.15
641.86	39519.95
642.01	39215.68
642.16	39634.63
642.31	39402.92
642.45	39681.44
642.60	39353.77
642.75	39210.99
642.90	39419.30
643.04	39318.66
643.19	38836.51
643.34	39248.44
643.48	39150.14
643.63	39154.82
643.78	38902.04
643.93	39178.23
644.07	39047.16
644.22	39248.44
644.37	38990.98
644.51	39023.75
644.66	39276.53
644.81	39096.31
644.95	39171.21
645.10	39555.05
645.25	39641.65
645.39	39016.73
645.54	39082.27
645.69	38642.24
645.83	38923.11
645.98	38827.15
646.13	39192.27
646.27	39065.88
646.42	39133.76
646.57	38770.97
646.71	38962.90
646.86	38639.90
647.00	38789.70
647.15	38965.24
647.30	38705.44
647.44	38948.85
647.59	38895.02
647.74	38768.63
647.88	38422.23
648.03	38799.06
648.17	38401.17
648.32	38281.80
648.47	38583.73
648.61	38471.39
648.76	38557.99
648.90	38572.03
649.05	38742.89
649.20	38447.98
649.34	38267.76
649.49	38305.21
649.63	38356.70
649.78	38258.40
649.92	38675.01
650.07	38373.08
650.21	38150.73
650.36	38649.27
650.51	38230.31
650.65	38457.34
650.80	38581.39
650.94	38328.61
651.09	38220.95
651.23	38050.09
651.38	37895.61
651.52	37759.86
651.67	38286.48
651.81	37954.13
651.96	37900.29
652.10	37734.12
652.25	38050.09
652.39	37933.06
652.54	37832.42
652.68	37930.72
652.83	37984.55
652.97	37876.89
653.12	38108.60
653.26	37764.54
653.41	38099.24
653.55	37530.49
653.70	37420.48
653.84	37251.97
653.99	37460.27
654.13	37619.43
654.27	37605.39
654.42	37778.59
654.56	37474.32
654.71	37869.87
654.85	37502.40
655.00	37645.18
655.14	37448.57
655.29	37256.65
655.43	37078.77
655.57	36549.81
655.72	36701.94
655.86	37041.32
656.01	37167.71
656.15	36800.24
656.30	36896.20
656.44	36868.12
656.58	36968.76
656.73	36924.29
656.87	36875.14
657.01	37123.24
657.16	37053.02
657.30	36856.42
657.45	36683.22
657.59	37034.30
657.73	36657.47
657.88	37193.45
658.02	36617.68
658.16	36638.75
658.31	36751.09
658.45	36854.08
658.60	36715.98
658.74	36774.50
658.88	36336.82
659.03	36671.51
659.17	36191.70
659.31	35952.97
659.46	36112.13
659.60	36456.18
659.74	36016.16
659.89	36470.23
660.03	36348.52
660.17	36191.70
660.32	36287.67
660.46	36627.04
660.60	35915.52
660.74	36704.28
660.89	36465.55
661.03	35637.00
661.17	35536.35
661.32	35714.23
661.46	35655.72
661.60	35405.28
661.74	35711.89
661.89	35744.66
662.03	35725.94
662.17	35992.76
662.31	35243.79
662.46	35669.76
662.60	35379.54
662.74	35295.28
662.88	35192.30
663.03	35468.48
663.17	35358.47
663.31	35204.00
663.45	35466.14
663.60	35218.04
663.74	35101.01
663.88	34864.62
664.02	34850.58
664.17	34948.88
664.31	34852.92
664.45	34504.18
664.59	35138.46
664.73	34794.40
664.88	34841.21
665.02	34611.84
665.16	35051.86
665.30	34813.13
665.44	34717.17
665.59	33958.83
665.73	34143.74
665.87	34007.98
666.01	34185.86
666.15	34050.11
666.29	34424.60
666.44	34258.42
666.58	33984.58
666.72	34061.82
666.86	34302.89
667.00	34389.49
667.14	33795.00
667.28	33783.29
667.43	33731.80
667.57	33731.80
667.71	33682.65
667.85	33710.74
667.99	33621.80
668.13	33516.47
668.27	33200.50
668.41	33827.76
668.56	33333.91
668.70	33483.70
668.84	32952.40
668.98	32938.36
669.12	33071.77
669.26	33284.76
669.40	32919.63
669.54	33598.39
669.68	33277.74
669.82	32737.07
669.96	32591.96
670.10	32606.00
670.25	32861.12
670.39	32818.99
670.53	32767.50
670.67	32589.62
670.81	32580.26
670.95	32465.57
671.09	32753.46
671.23	32655.15
671.37	32442.17
671.51	32315.78
671.65	32165.98
671.79	32114.49
671.93	32055.98
672.07	32381.31
672.21	32039.59
672.35	32067.68
672.49	31917.89
672.63	31892.14
672.77	31597.23
672.91	31964.70
673.05	31304.67
673.19	31536.38
673.33	31454.46
673.47	31316.37
673.61	31115.08
673.75	31201.68
673.89	30974.65
674.03	30576.76
674.17	31028.48
674.31	30962.95
674.45	30822.51
674.59	30733.57
674.73	31185.30
674.87	30747.62
675.01	31065.93
675.15	30665.70
675.29	30764.00
675.43	30291.21
675.56	30436.33
675.70	30527.61
675.84	30567.40
675.98	29457.98
676.12	30015.03
676.26	29956.52
676.40	30094.61
676.54	29638.20
676.68	29813.74
676.82	29460.32
676.96	29621.82
677.10	29134.99
677.23	29469.69
677.37	29696.72
677.51	29455.64
677.65	29067.11
677.79	28959.45
677.93	29191.16
678.07	29055.41
678.21	28676.24
678.34	28804.97
678.48	28514.75
678.62	28304.10
678.76	28334.53
678.90	28112.17
679.04	28189.41
679.18	28119.20
679.31	28037.28
679.45	28301.76
679.59	27793.86
679.73	27826.63
679.87	27903.87
680.00	28229.20
680.14	27784.50
680.28	27744.71
680.42	27211.07
680.56	27637.05
680.70	27197.02
680.83	27414.69
680.97	26843.60
681.11	27051.91
681.25	26754.66
681.39	27171.28
681.52	27063.61
681.66	26897.44
681.80	26810.84
681.94	26359.11
682.07	26412.95
682.21	26274.85
682.35	26331.03
682.49	26373.16
682.62	26499.55
682.76	26078.25
682.90	25783.34
683.04	25806.75
683.17	26197.62
683.31	25937.82
683.45	25490.77
683.59	25305.87
683.72	25404.17
683.86	25039.05
684.00	25195.87
684.13	25692.06
684.27	25612.48
684.41	24826.06
684.55	25078.84
684.68	24987.56
684.82	24776.91
684.96	24809.68
685.09	24566.26
685.23	24795.64
685.37	24479.66
685.50	24587.33
685.64	24741.80
685.78	24194.12
685.91	24343.91
686.05	24203.48
686.19	23618.35
686.32	24137.94
686.46	23566.85
686.60	23255.56
686.73	23498.98
686.87	23267.27
687.01	23690.90
687.14	23363.23
687.28	23201.73
687.42	23021.51
687.55	22927.89
687.69	22761.71
687.82	23166.62
687.96	22731.28
688.10	22534.68
688.23	22799.16
688.37	22630.64
688.50	22115.72
688.64	22265.52
688.78	22326.37
688.91	21895.71
689.05	22082.95
689.18	22139.13
689.32	21500.16
689.46	21809.11
689.59	22033.80
689.73	22010.40
689.86	21886.35
690.00	21525.91
690.13	21785.71
690.27	21551.65
690.41	21336.32
690.54	20863.54
690.68	21214.62
690.81	21322.28
690.95	20926.73
691.08	20706.72
691.22	20975.88
691.35	21106.95
691.49	20896.30
691.62	20753.53
691.76	20648.21
691.89	20606.08
692.03	20514.80
692.16	20475.01
692.30	20503.09
692.43	20325.21
692.57	19981.15
692.70	19957.75
692.84	20315.85
692.97	20112.22
693.11	19501.34
693.24	19618.37
693.38	19817.32
693.51	19506.02
693.65	19459.21
693.78	19482.62
693.92	19407.72
694.05	19323.46
694.19	19183.03
694.32	19220.48
694.45	19047.28
694.59	18998.13
694.72	18918.55
694.86	19037.92
694.99	18420.02
695.13	18670.45
695.26	18274.90
695.39	18436.40
695.53	18600.24
695.66	18169.58
695.80	18427.04
695.93	18167.24
696.07	17926.16
696.20	18181.28
696.33	18080.64
696.47	18043.19
696.60	18101.70
696.73	17680.41
696.87	17928.50
697.00	17659.34
697.14	17881.69
697.27	17455.72
697.40	17490.82
697.54	17352.73
697.67	17249.75
697.80	17570.40
697.94	17254.43
698.07	17224.00
698.21	16805.05
698.34	17245.07
698.47	17106.98
698.61	16723.13
698.74	16739.51
698.87	16292.47
699.01	16233.96
699.14	16269.06
699.27	16369.71
699.40	16091.18
699.54	16231.62
699.67	16161.40
699.80	16091.18
699.94	16025.65
700.07	15974.16
700.20	15971.82
700.34	15967.13
700.47	15803.30
700.60	15929.69
700.73	15838.41
700.87	15800.96
701.00	15421.79
701.13	15304.76
701.26	15272.00
701.40	15494.35
701.53	15358.60
701.66	15222.84
701.79	15323.49
701.93	15075.39
702.06	15070.71
702.19	15047.30
702.32	15103.48
702.46	14834.32
702.59	14649.41
702.72	14918.57
702.85	14682.18
702.99	14815.59
703.12	14963.04
703.25	14733.67
703.38	14396.64
703.51	14169.60
703.65	14331.10
703.78	14436.42
703.91	14153.22
704.04	14303.01
704.17	13862.99
704.31	13781.07
704.44	13752.99
704.57	13640.64
704.70	13474.46
704.83	13811.50
704.96	13823.20
705.10	13825.54
705.23	13825.54
>>>>>End Processed Spectral Data<<<<<
