SpectraSuite Data File
++++++++++++++++++++++++++++++++++++
Date: Fri Oct 25 10:47:07 EDT 2013
User: price-jones
Dark Spectrum Present: No
Reference Spectrum Present: No
Number of Sampled Component Spectra: 1
Spectrometers: USB2+H05261
Integration Time (usec): 100000 (USB2+H05261)
Spectra Averaged: 1 (USB2+H05261)
Boxcar Smoothing: 0 (USB2+H05261)
Correct for Electrical Dark: No (USB2+H05261)
Strobe/Lamp Enabled: No (USB2+H05261)
Correct for Detector Non-linearity: No (USB2+H05261)
Correct for Stray Light: No (USB2+H05261)
Number of Pixels in Processed Spectrum: 2048
>>>>>Begin Processed Spectral Data<<<<<
365.73	133.41
365.92	133.41
366.12	133.41
366.32	140.43
366.52	65.54
366.72	77.24
366.91	32.77
367.11	98.30
367.31	95.96
367.51	32.77
367.70	23.41
367.90	65.54
368.10	0.00
368.30	65.54
368.49	46.81
368.69	142.77
368.89	0.00
369.09	72.56
369.28	102.98
369.48	37.45
369.68	117.03
369.87	49.15
370.07	173.20
370.27	140.43
370.47	140.43
370.66	388.53
370.86	435.34
371.06	451.72
371.25	486.83
371.45	505.56
371.65	575.77
371.84	433.00
372.04	442.36
372.24	437.68
372.44	498.53
372.63	507.90
372.83	524.28
373.03	568.75
373.22	486.83
373.42	423.64
373.62	599.18
373.81	512.58
374.01	538.32
374.21	582.79
374.40	503.22
374.60	587.47
374.79	512.58
374.99	533.64
375.19	550.03
375.38	559.39
375.58	589.82
375.78	566.41
375.97	603.86
376.17	636.63
376.37	559.39
376.56	545.34
376.76	617.90
376.95	531.30
377.15	603.86
377.35	660.03
377.54	603.86
377.74	613.22
377.93	643.65
378.13	622.58
378.33	606.20
378.52	580.45
378.72	629.60
378.91	603.86
379.11	657.69
379.31	599.18
379.50	634.29
379.70	664.71
379.89	599.18
380.09	650.67
380.28	650.67
380.48	681.10
380.68	711.52
380.87	648.33
381.07	592.16
381.26	690.46
381.46	648.33
381.65	690.46
381.85	631.94
382.04	692.80
382.24	737.27
382.43	608.54
382.63	706.84
382.83	617.90
383.02	718.54
383.22	737.27
383.41	727.91
383.61	770.04
383.80	688.12
384.00	732.59
384.19	795.78
384.39	786.42
384.58	744.29
384.78	716.20
384.97	823.87
385.17	805.14
385.36	674.07
385.56	800.46
385.75	781.74
385.95	788.76
386.14	826.21
386.34	866.00
386.53	830.89
386.72	791.10
386.92	786.42
387.11	763.01
387.31	779.40
387.50	816.85
387.70	816.85
387.89	758.33
388.09	795.78
388.28	760.67
388.48	772.38
388.67	833.23
388.86	894.08
389.06	868.34
389.25	795.78
389.45	800.46
389.64	898.77
389.84	922.17
390.03	915.15
390.22	959.62
390.42	917.49
390.61	966.64
390.81	952.60
391.00	964.30
391.19	936.21
391.39	950.26
391.58	954.94
391.78	891.74
391.97	952.60
392.16	1034.52
392.36	971.32
392.55	1062.60
392.75	950.26
392.94	983.02
393.13	1004.09
393.33	1011.11
393.52	973.66
393.71	1060.26
393.91	1027.50
394.10	1034.52
394.29	1015.79
394.49	1083.67
394.68	1043.88
394.88	1107.07
395.07	1111.75
395.26	1069.62
395.46	1076.65
395.65	1076.65
395.84	1081.33
396.04	1135.16
396.23	1107.07
396.42	1083.67
396.62	1158.57
396.81	1149.20
397.00	1121.12
397.19	1172.61
397.39	1191.33
397.58	1226.44
397.77	1181.97
397.97	1268.57
398.16	1224.10
398.35	1322.40
398.55	1224.10
398.74	1235.80
398.93	1273.25
399.12	1313.04
399.32	1207.72
399.51	1287.29
399.70	1409.00
399.90	1390.28
400.09	1423.05
400.28	1329.42
400.47	1446.45
400.67	1338.79
400.86	1406.66
401.05	1366.87
401.24	1472.20
401.44	1437.09
401.63	1413.68
401.82	1458.15
402.01	1423.05
402.21	1495.60
402.40	1497.94
402.59	1528.37
402.78	1472.20
402.97	1451.13
403.17	1621.99
403.36	1535.39
403.55	1467.52
403.74	1657.10
403.93	1600.93
404.13	1713.27
404.32	1558.80
404.51	1563.48
404.70	1710.93
404.89	1645.40
405.09	1837.32
405.28	1579.86
405.47	1645.40
405.66	1818.60
405.85	1741.36
406.05	1713.27
406.24	1834.98
406.43	1757.74
406.62	1764.76
406.81	1858.39
407.00	1851.36
407.20	1844.34
407.39	1884.13
407.58	1928.60
407.77	1916.90
407.96	2050.31
408.15	1909.88
408.34	1933.28
408.54	1940.30
408.73	1977.75
408.92	2043.29
409.11	1987.11
409.30	1982.43
409.49	1928.60
409.68	1982.43
409.87	2066.69
410.07	2073.71
410.26	2122.87
410.45	2090.10
410.64	2153.29
410.83	2057.33
411.02	2162.66
411.21	2176.70
411.40	2195.42
411.59	2214.15
411.78	2317.13
411.98	2347.56
412.17	2286.70
412.36	2214.15
412.55	2279.68
412.74	2429.48
412.93	2457.56
413.12	2331.17
413.31	2487.99
413.50	2410.75
413.69	2518.42
413.88	2640.12
414.07	2466.92
414.26	2619.06
414.45	2635.44
414.64	2628.42
414.83	2572.25
415.02	2712.68
415.22	2614.38
415.41	2785.24
415.60	2848.43
415.79	2733.75
415.98	2958.44
416.17	2885.88
416.36	2890.56
416.55	2909.29
416.74	2855.45
416.93	2869.50
417.12	2820.35
417.31	3019.29
417.50	2881.20
417.69	3082.49
417.88	2937.37
418.07	2998.23
418.26	3014.61
418.45	3077.80
418.64	3157.38
418.83	3122.27
419.02	3028.65
419.21	3208.87
419.39	3171.43
419.58	3220.58
419.77	3082.49
419.96	3080.14
420.15	3234.62
420.34	3239.30
420.53	3382.07
420.72	3321.22
420.91	3351.65
421.10	3456.97
421.29	3449.95
421.48	3309.52
421.67	3459.31
421.86	3323.56
422.05	3368.03
422.24	3414.84
422.43	3410.16
422.61	3412.50
422.80	3384.41
422.99	3463.99
423.18	3466.33
423.37	3449.95
423.56	3421.86
423.75	3398.46
423.94	3456.97
424.13	3225.26
424.32	3272.07
424.50	3536.55
424.69	3613.79
424.88	3471.01
425.07	3562.30
425.26	3335.26
425.45	3468.67
425.64	3506.12
425.83	3426.54
426.01	3559.95
426.20	3562.30
426.39	3541.23
426.58	3538.89
426.77	3524.85
426.96	3454.63
427.15	3613.79
427.33	3707.41
427.52	3695.71
427.71	3672.30
427.90	3686.34
428.09	3833.80
428.28	3735.50
428.46	3822.09
428.65	3698.05
428.84	3772.94
429.03	3744.86
429.22	3728.47
429.40	3737.84
429.59	3747.20
429.78	3552.93
429.97	3597.40
430.16	3613.79
430.34	3695.71
430.53	3754.22
430.72	3913.38
430.91	3894.65
431.10	3838.48
431.28	4030.40
431.47	4049.13
431.66	4138.07
431.85	4100.62
432.03	4170.83
432.22	4126.36
432.41	4138.07
432.60	4163.81
432.79	4102.96
432.97	4037.42
433.16	4161.47
433.35	4152.11
433.54	4154.45
433.72	4227.01
433.91	4238.71
434.10	4358.08
434.28	4334.67
434.47	4344.03
434.66	4486.81
434.85	4341.69
435.03	4322.97
435.22	4294.88
435.41	4465.74
435.59	4512.55
435.78	4477.44
435.97	4652.98
436.16	4477.44
436.34	4514.89
436.53	4542.98
436.72	4444.68
436.90	4449.36
437.09	4629.58
437.28	4575.75
437.46	4528.94
437.65	4596.81
437.84	4660.01
438.02	4676.39
438.21	4596.81
438.40	4613.20
438.58	4896.40
438.77	4800.44
438.96	4816.82
439.14	4889.38
439.33	4971.30
439.52	5032.15
439.70	5060.24
439.89	5078.96
440.08	4917.47
440.26	5046.20
440.45	5130.45
440.63	5203.01
440.82	5287.27
441.01	5345.78
441.19	5282.59
441.38	5317.70
441.57	5296.63
441.75	5373.87
441.94	5469.83
442.12	5584.52
442.31	5743.67
442.50	5638.35
442.68	5437.06
442.87	5593.88
443.05	5610.26
443.24	5783.46
443.43	5633.67
443.61	5692.18
443.80	5823.25
443.98	5671.12
444.17	5502.60
444.35	5717.93
444.54	5738.99
444.73	5636.01
444.91	5954.32
445.10	5729.63
445.28	5841.98
445.47	5598.56
445.65	5710.91
445.84	5827.93
446.02	5816.23
446.21	5959.00
446.39	5930.92
446.58	5919.21
446.77	5947.30
446.95	5841.98
447.14	5935.60
447.32	6026.88
447.51	6094.76
447.69	5776.44
447.88	5886.45
448.06	6085.39
448.25	5991.77
448.43	6106.46
448.62	5916.87
448.80	5872.40
448.99	5937.94
449.17	6141.57
449.36	5968.37
449.54	6122.84
449.73	6164.97
449.91	6319.45
450.10	6408.39
450.28	6457.54
450.46	6361.58
450.65	6417.75
450.83	6221.14
451.02	6272.64
451.20	6223.48
451.39	6291.36
451.57	6218.80
451.76	6431.79
451.94	6448.18
452.13	6399.02
452.31	6384.98
452.49	6494.99
452.68	6445.84
452.86	6445.84
453.05	6497.33
453.23	6473.92
453.42	6565.20
453.60	6544.14
453.78	6525.41
453.97	6614.35
454.15	6668.19
454.34	6581.59
454.52	6644.78
454.70	6696.27
454.89	6757.13
455.07	6731.38
455.26	6799.26
455.44	6874.15
455.62	6834.36
455.81	6757.13
455.99	6958.41
456.17	6817.98
456.36	7066.08
456.54	7222.89
456.73	7143.32
456.91	7126.93
457.09	7218.21
457.28	7351.62
457.46	7131.61
457.64	7101.19
457.83	7215.87
458.01	6986.50
458.19	7365.67
458.38	7087.14
458.56	7318.86
458.74	7356.30
458.93	7213.53
459.11	7405.46
459.29	7414.82
459.48	7639.51
459.66	7487.37
459.84	7492.05
460.03	7564.61
460.21	7761.22
460.39	7543.55
460.57	7489.71
460.76	7667.60
460.94	7735.47
461.12	7791.64
461.31	7513.12
461.49	7585.68
461.67	7660.57
461.85	7758.88
462.04	7695.68
462.22	8224.64
462.40	8035.06
462.59	7864.20
462.77	8009.31
462.95	7885.26
463.13	7915.69
463.32	7850.16
463.50	8152.09
463.68	8088.89
463.86	8051.44
464.05	7985.91
464.23	8161.45
464.41	7999.95
464.59	7999.95
464.78	8128.68
464.96	8032.72
465.14	8107.62
465.32	8248.05
465.50	8365.07
465.69	8348.69
465.87	8245.71
466.05	8294.86
466.23	8264.43
466.41	8311.24
466.60	8407.20
466.78	8224.64
466.96	8332.31
467.14	8283.16
467.32	8376.78
467.51	8585.08
467.69	8070.17
467.87	8449.33
468.05	8482.10
468.23	8606.15
468.41	8421.25
468.60	8528.91
468.78	8725.52
468.96	8388.48
469.14	8566.36
469.32	8678.71
469.50	8578.06
469.69	8692.75
469.87	8908.08
470.05	8674.03
470.23	8805.10
470.41	8760.63
470.59	8931.48
470.77	8858.93
470.95	8882.33
471.14	9078.94
471.32	8877.65
471.50	9315.33
471.68	9151.49
471.86	9273.20
472.04	9198.31
472.22	9394.91
472.40	9259.16
472.58	9413.63
472.77	9315.33
472.95	9355.12
473.13	9865.36
473.31	9425.34
473.49	9486.19
473.67	9420.66
473.85	9701.52
474.03	9701.52
474.21	9804.50
474.39	9848.97
474.57	9966.00
474.75	10001.11
474.93	9980.04
475.12	10017.49
475.30	10104.09
475.48	10076.01
475.66	10139.20
475.84	10333.47
476.02	10298.36
476.20	10548.79
476.38	10478.58
476.56	10712.63
476.74	10626.03
476.92	10628.37
477.10	10436.45
477.28	10832.00
477.46	10923.28
477.64	11295.43
477.82	10998.18
478.00	11094.14
478.18	11194.78
478.36	11379.68
478.54	11452.24
478.72	11391.39
478.90	11477.99
479.08	11770.55
479.26	11857.15
479.44	11845.45
479.62	12039.72
479.80	11892.26
479.98	12161.42
480.16	12236.32
480.34	12138.02
480.52	12484.42
480.70	12336.96
480.88	12585.06
481.06	12493.78
481.24	12465.69
481.41	12786.35
481.59	12835.50
481.77	12884.65
481.95	12924.44
482.13	13088.28
482.31	13165.51
482.49	13289.56
482.67	13479.15
482.85	13633.62
483.03	13591.49
483.21	13532.98
483.39	13949.59
483.57	13715.54
483.74	13996.40
483.92	14104.07
484.10	13935.55
484.28	14298.33
484.46	14707.93
484.64	14977.09
484.82	14696.22
485.00	14644.73
485.18	14850.70
485.35	14956.02
485.53	15009.86
485.71	14759.42
485.89	15180.71
486.07	15236.89
486.25	15089.43
486.43	15449.88
486.61	15616.05
486.78	16107.57
486.96	15861.81
487.14	16121.61
487.32	15999.90
487.50	16119.27
487.68	16353.32
487.85	16673.98
488.03	16978.25
488.21	16980.59
488.39	16678.66
488.57	17048.46
488.75	17240.39
488.92	17319.96
489.10	17479.12
489.28	17687.43
489.46	18017.44
489.64	17591.47
489.81	18136.81
489.99	18246.82
490.17	18169.58
490.35	18644.71
490.53	18396.61
490.70	18583.85
490.88	18764.07
491.06	18719.60
491.24	18771.10
491.41	18750.03
491.59	18881.10
491.77	19023.87
491.95	19241.54
492.13	19360.91
492.30	19632.41
492.48	19864.13
492.66	19744.76
492.84	19786.89
493.01	20065.41
493.19	20149.67
493.37	20463.30
493.54	20526.50
493.72	20629.48
493.90	20505.43
494.08	20957.16
494.25	21151.42
494.43	21212.28
494.61	21179.51
494.79	21228.66
494.96	21144.40
495.14	21453.35
495.32	21736.56
495.49	21612.51
495.67	21869.97
495.85	21745.92
496.02	21914.44
496.20	22036.14
496.38	22249.13
496.55	22412.97
496.73	22810.86
496.91	22377.86
497.09	22375.52
497.26	22731.28
497.44	22810.86
497.62	23070.66
497.79	23080.02
497.97	23014.49
498.14	23255.56
498.32	23616.01
498.50	23501.32
498.67	23709.63
498.85	23807.93
499.03	24159.01
499.20	24126.24
499.38	23894.53
499.56	23854.74
499.73	24353.27
499.91	24315.83
500.08	24474.98
500.26	24226.89
500.44	24353.27
500.61	24521.79
500.79	24617.75
500.97	24599.03
501.14	25261.40
501.32	24987.56
501.49	25111.61
501.67	25254.38
501.84	25383.11
502.02	25392.47
502.20	25666.31
502.37	25436.94
502.55	25738.87
502.72	25612.48
502.90	25769.30
503.07	25694.40
503.25	25862.92
503.43	25692.06
503.60	26148.46
503.78	26148.46
503.95	26260.81
504.13	26368.48
504.30	26602.53
504.48	26204.64
504.65	26824.88
504.83	26972.33
505.01	26553.38
505.18	26565.08
505.36	26876.37
505.53	27117.45
505.71	27014.46
505.88	27370.22
506.06	27300.01
506.23	27101.06
506.41	27166.60
506.58	27445.12
506.76	27431.08
506.93	27384.27
507.11	27651.09
507.28	27892.16
507.46	27360.86
507.63	27857.06
507.81	28151.96
507.98	27627.68
508.16	27929.61
508.33	28400.06
508.50	28151.96
508.68	28407.08
508.85	28760.50
509.03	28589.64
509.20	28709.01
509.38	28615.39
509.55	28748.80
509.73	29022.64
509.90	28891.57
510.08	28961.79
510.25	28542.83
510.42	29530.54
510.60	29223.93
510.77	29378.40
510.95	29713.10
511.12	29324.57
511.30	29809.06
511.47	30197.59
511.64	29455.64
511.82	29804.38
511.99	29769.27
512.17	29776.30
512.34	30216.32
512.51	29937.79
512.69	30019.71
512.86	30295.89
513.04	30429.30
513.21	30150.78
513.38	30558.03
513.56	30148.44
513.73	30525.27
513.90	30848.26
514.08	30225.68
514.25	30979.33
514.43	31016.78
514.60	30871.67
514.77	30822.51
514.95	31061.25
515.12	31044.87
515.29	31105.72
515.47	31426.37
515.64	31468.50
515.81	31409.99
515.99	31028.48
516.16	31538.72
516.33	31786.82
516.51	31620.64
516.68	31281.26
516.85	30984.01
517.03	31346.79
517.20	31672.13
517.37	31838.31
517.54	31938.95
517.72	32011.51
517.89	31669.79
518.06	32374.29
518.24	32144.92
518.41	32130.87
518.58	31976.40
518.75	32336.84
518.93	32318.12
519.10	32547.49
519.27	32484.30
519.45	33017.94
519.62	32699.62
519.79	33027.30
519.96	32994.53
520.14	33242.63
520.31	33076.45
520.48	33181.77
520.65	33259.01
520.83	33544.56
521.00	33259.01
521.17	33514.13
521.34	33687.33
521.52	33759.89
521.69	33493.07
521.86	33638.18
522.03	33610.09
522.20	34017.35
522.38	33984.58
522.55	33982.24
522.72	33769.25
522.89	33937.77
523.07	34012.66
523.24	33879.25
523.41	34235.02
523.58	34101.61
523.75	34845.90
523.92	34595.46
524.10	34682.06
524.27	34766.32
524.44	34541.63
524.61	34703.12
524.78	35030.80
524.96	34911.43
525.13	34822.49
525.30	35517.63
525.47	35192.30
525.64	35152.51
525.81	35021.44
525.98	35295.28
526.16	35016.75
526.33	35260.17
526.50	35349.11
526.67	35175.91
526.84	35480.18
527.01	35028.46
527.18	35693.17
527.36	35679.13
527.53	35552.74
527.70	36034.89
527.87	36093.40
528.04	35915.52
528.21	35959.99
528.38	35941.27
528.55	35983.40
528.72	36430.44
528.89	36601.30
529.07	35978.72
529.24	36165.96
529.41	36355.54
529.58	36402.35
529.75	36252.56
529.92	36100.42
530.09	36823.65
530.26	36643.43
530.43	36503.00
530.60	36428.10
530.77	36589.59
530.94	36966.42
531.11	36769.82
531.28	36685.56
531.46	37081.11
531.63	37441.55
531.80	36844.71
531.97	37092.81
532.14	36957.06
532.31	36870.46
532.48	37048.34
532.65	37584.32
532.82	37111.53
532.99	36994.51
533.16	37031.96
533.33	37273.03
533.50	37457.93
533.67	37460.27
533.84	37387.72
534.01	37373.67
534.18	37710.71
534.35	37708.37
534.52	37486.02
534.69	37912.00
534.86	38298.19
535.03	38157.75
535.20	38085.20
535.37	38265.42
535.54	37947.11
535.71	37947.11
535.88	38136.69
536.05	38204.56
536.22	38206.90
536.38	38036.05
536.55	38230.31
536.72	38525.22
536.89	38223.29
537.06	38108.60
537.23	38616.50
537.40	38550.96
537.57	38424.57
537.74	38576.71
537.91	38864.60
538.08	39100.99
538.25	38639.90
538.42	38265.42
538.59	39552.71
538.75	38852.89
538.92	39056.52
539.09	38892.68
539.26	39065.88
539.43	38932.47
539.60	38852.89
539.77	39124.40
539.94	39051.84
540.11	39372.49
540.28	39421.64
540.44	39042.48
540.61	39433.35
540.78	39096.31
540.95	39108.01
541.12	39173.55
541.29	39222.70
541.46	38993.32
541.62	39175.89
541.79	39592.50
541.96	38927.79
542.13	39416.96
542.30	39653.36
542.47	39807.83
542.63	39969.33
542.80	39915.50
542.97	40165.93
543.14	40343.81
543.31	40055.93
543.48	40486.59
543.64	40521.69
543.81	40528.72
543.98	40465.52
544.15	40222.11
544.32	40664.47
544.48	40762.77
544.65	40563.82
544.82	40449.14
544.99	40264.24
545.16	40463.18
545.32	40194.02
545.49	41160.66
545.66	40973.42
545.83	40755.75
546.00	41207.47
546.16	40751.07
546.33	40596.59
546.50	40645.74
546.67	41027.25
546.83	40154.23
547.00	41027.25
547.17	41137.26
547.34	40952.35
547.50	40980.44
547.67	41455.57
547.84	41181.73
548.00	41265.99
548.17	41509.40
548.34	41483.66
548.51	41546.85
548.67	41614.72
548.84	41481.31
549.01	41242.58
549.18	41172.36
549.34	41584.30
549.51	41425.14
549.68	41787.92
549.84	41406.42
550.01	41825.37
550.18	41064.70
550.34	41935.38
550.51	41759.84
550.68	41572.60
550.84	41366.63
551.01	41745.80
551.18	41752.82
551.34	41544.51
551.51	41890.91
551.68	41914.31
551.84	41991.55
552.01	41745.80
552.18	42043.04
552.34	41642.81
552.51	42333.27
552.68	42073.47
552.84	42036.02
553.01	42174.11
553.18	42375.40
553.34	42431.57
553.51	41958.78
553.67	41979.85
553.84	42691.37
554.01	42642.22
554.17	42607.11
554.34	42295.82
554.51	42333.27
554.67	42869.25
554.84	42408.17
555.00	42579.03
555.17	42600.09
555.33	42806.06
555.50	42728.82
555.67	42656.26
555.83	42621.16
556.00	42672.65
556.16	43260.12
556.33	42979.26
556.50	42848.19
556.66	42871.59
556.83	42754.57
556.99	42899.68
557.16	43309.27
557.32	43206.29
557.49	42993.30
557.65	42555.62
557.82	42721.80
557.98	42883.30
558.15	43257.78
558.32	43086.92
558.48	42787.33
558.65	42988.62
558.81	43274.16
558.98	43068.20
559.14	42965.21
559.31	43297.57
559.47	43398.21
559.64	43360.76
559.80	43377.15
559.97	43426.30
560.13	43164.16
560.30	43068.20
560.46	42969.90
560.63	42911.38
560.79	43613.54
560.96	43908.45
561.12	43400.55
561.29	43803.13
561.45	43379.49
561.61	43175.86
561.78	43456.73
561.94	43430.98
562.11	43753.97
562.27	43220.33
562.44	43386.51
562.60	43248.42
562.77	43737.59
562.93	43540.99
563.10	43723.55
563.26	43051.81
563.42	43208.63
563.59	43573.75
563.75	43552.69
563.92	44013.77
564.08	43646.31
564.24	43721.21
564.41	43821.85
564.57	43646.31
564.74	43604.18
564.90	44039.52
565.07	43562.05
565.23	43835.89
565.39	43718.87
565.56	43697.80
565.72	43793.76
565.88	43402.89
566.05	43849.94
566.21	43784.40
566.38	43601.84
566.54	43709.50
566.70	43728.23
566.87	44163.57
567.03	43892.07
567.19	43828.87
567.36	44060.58
567.52	43543.33
567.68	43669.72
567.85	43756.32
568.01	43948.24
568.17	44081.65
568.34	44182.29
568.50	43716.53
568.66	43711.84
568.83	43957.60
568.99	43625.25
569.15	44030.16
569.32	43683.76
569.48	43901.43
569.64	44093.35
569.81	44266.55
569.97	43784.40
570.13	43952.92
570.30	43856.96
570.46	43735.25
570.62	43552.69
570.78	43849.94
570.95	43873.34
571.11	44292.30
571.27	43852.28
571.43	44304.00
571.60	44456.14
571.76	44252.51
571.92	43913.13
572.09	44182.29
572.25	44128.46
572.41	44273.57
572.57	44025.48
572.74	44470.18
572.90	44062.93
573.06	44105.06
573.22	44343.79
573.38	44074.63
573.55	43922.49
573.71	44634.02
573.87	44311.02
574.03	43777.38
574.20	44086.33
574.36	44259.53
574.52	44509.97
574.68	44158.89
574.84	44514.65
575.01	43976.33
575.17	44315.70
575.33	44318.04
575.49	44444.43
575.65	44280.60
575.82	44729.98
575.98	44329.75
576.14	44868.07
576.30	44243.15
576.46	43943.56
576.62	44114.42
576.79	44500.61
576.95	43683.76
577.11	44526.35
577.27	44186.97
577.43	44353.15
577.59	44411.67
577.75	44617.63
577.92	44095.69
578.08	44327.41
578.24	44231.44
578.40	44186.97
578.56	44533.37
578.72	44432.73
578.88	44849.35
579.04	44486.56
579.21	44191.65
579.37	44519.33
579.53	44194.00
579.69	44362.51
579.85	44470.18
580.01	44615.29
580.17	44566.14
580.33	44498.26
580.49	44191.65
580.65	44547.42
580.82	44746.36
580.98	44383.58
581.14	44144.84
581.30	44442.09
581.46	44259.53
581.62	44872.75
581.78	44818.92
581.94	45038.93
582.10	44596.57
582.26	44701.89
582.42	44533.37
582.58	44509.97
582.74	44470.18
582.90	44694.87
583.06	45151.27
583.22	45078.72
583.38	44842.32
583.54	44528.69
583.70	44631.68
583.86	44271.23
584.02	43988.03
584.18	44437.41
584.34	44737.00
584.50	44659.76
584.66	44329.75
584.82	44385.92
584.98	44774.45
585.14	44376.56
585.30	44336.77
585.46	45003.82
585.62	44343.79
585.78	44814.24
585.94	44350.81
586.10	44261.87
586.26	44357.83
586.42	44610.61
586.58	44776.79
586.74	44605.93
586.90	45052.97
587.06	44282.94
587.22	44678.49
587.38	44107.40
587.54	44554.44
587.70	44751.04
587.86	44877.43
588.02	44720.62
588.18	44877.43
588.34	44772.11
588.49	44568.48
588.65	44397.62
588.81	44737.00
588.97	44505.29
589.13	44861.05
589.29	44556.78
589.45	44657.42
589.61	44612.95
589.77	44861.05
589.93	44748.70
590.08	44830.62
590.24	44713.59
590.40	44435.07
590.56	44900.84
590.72	44821.26
590.88	44524.01
591.04	45078.72
591.20	45312.77
591.35	45029.57
591.51	45092.76
591.67	44879.77
591.83	44666.78
591.99	45043.61
592.15	44568.48
592.31	44741.68
592.46	44690.19
592.62	44100.37
592.78	45162.98
592.94	44669.12
593.10	44839.98
593.26	45207.45
593.41	44737.00
593.57	44521.67
593.73	45120.85
593.89	45212.13
594.05	44680.83
594.20	44772.11
594.36	44971.05
594.52	45036.59
594.68	44811.90
594.84	45177.02
594.99	45144.25
595.15	44882.11
595.31	44868.07
595.47	45024.89
595.62	44933.60
595.78	44612.95
595.94	44741.68
596.10	45329.16
596.25	44968.71
596.41	44811.90
596.57	44821.26
596.73	45127.87
596.88	45052.97
597.04	44968.71
597.20	44315.70
597.36	45207.45
597.51	45226.17
597.67	45116.17
597.83	45544.48
597.99	45485.97
598.14	45097.44
598.30	44854.03
598.46	45024.89
598.61	44706.57
598.77	44800.19
598.93	44959.35
599.09	44790.83
599.24	45319.79
599.40	45272.98
599.56	45045.95
599.71	45226.17
599.87	45418.10
600.03	44821.26
600.18	44765.09
600.34	44797.85
600.50	45350.22
600.65	44692.53
600.81	45436.82
600.97	45556.19
601.12	45539.80
601.28	45244.90
601.44	44989.78
601.59	45029.57
601.75	44896.16
601.91	45074.04
602.06	44851.69
602.22	45067.02
602.37	44655.08
602.53	45102.12
602.69	44996.80
602.84	44914.88
603.00	44898.50
603.16	45006.16
603.31	44783.81
603.47	44601.25
603.62	44870.41
603.78	45095.10
603.94	45081.06
604.09	45731.73
604.25	45226.17
604.40	45144.25
604.56	45172.34
604.71	45214.47
604.87	44680.83
605.03	45167.66
605.18	44893.82
605.34	45078.72
605.49	44355.49
605.65	44865.73
605.80	44776.79
605.96	44643.38
606.12	44978.07
606.27	45427.46
606.43	44725.30
606.58	45013.18
606.74	44790.83
606.89	44858.71
607.05	44481.88
607.20	44980.42
607.36	44481.88
607.51	45277.66
607.67	45324.47
607.82	44755.72
607.98	44903.18
608.13	44629.34
608.29	44748.70
608.44	44488.90
608.60	44175.27
608.75	44516.99
608.91	44545.08
609.06	44353.15
609.22	45228.51
609.37	44690.19
609.53	44711.25
609.68	44676.15
609.84	44837.64
609.99	44704.23
610.15	44699.55
610.30	44357.83
610.46	43962.28
610.61	44542.74
610.76	44432.73
610.92	44519.33
611.07	44364.85
611.23	44758.06
611.38	44229.10
611.54	44381.24
611.69	44446.77
611.84	43856.96
612.00	44268.89
612.15	44144.84
612.31	44336.77
612.46	44060.58
612.62	44304.00
612.77	44240.81
612.92	44584.86
613.08	44357.83
613.23	43915.47
613.39	43929.51
613.54	43990.37
613.69	44203.36
613.85	43948.24
614.00	44142.50
614.15	44495.92
614.31	44165.91
614.46	44582.52
614.62	44172.93
614.77	43920.15
614.92	43702.48
615.08	43973.98
615.23	44177.61
615.38	44196.34
615.54	44161.23
615.69	43913.13
615.84	43728.23
616.00	43901.43
616.15	43629.93
616.30	43885.04
616.46	43508.22
616.61	43470.77
616.76	43358.42
616.92	43548.01
617.07	43461.41
617.22	43498.86
617.37	43288.21
617.53	43803.13
617.68	43086.92
617.83	43597.16
617.99	43676.74
618.14	43814.83
618.29	43215.65
618.45	43084.58
618.60	43679.08
618.75	43482.47
618.90	43576.09
619.06	43154.80
619.21	43496.52
619.36	43599.50
619.51	43288.21
619.67	43168.84
619.82	43550.35
619.97	43400.55
620.12	43100.97
620.28	42576.69
620.43	43164.16
620.58	43168.84
620.73	43089.26
620.89	43070.54
621.04	43379.49
621.19	42665.63
621.34	43367.79
621.49	43217.99
621.65	43105.65
621.80	42960.53
621.95	42529.87
622.10	42646.90
622.25	42602.43
622.41	42445.62
622.56	42726.48
622.71	43077.56
622.86	42789.67
623.01	42733.50
623.16	42696.05
623.32	42841.17
623.47	42663.28
623.62	43215.65
623.77	42539.24
623.92	42419.87
624.07	42480.72
624.23	42714.78
624.38	42136.66
624.53	42258.37
624.68	42415.19
624.83	42579.03
624.98	42239.65
625.13	42335.61
625.29	42878.61
625.44	42281.78
625.59	42113.26
625.74	42225.60
625.89	42223.26
626.04	41752.82
626.19	42185.82
626.34	42401.14
626.49	42389.44
626.65	42682.01
626.80	42162.41
626.95	41904.95
627.10	41806.65
627.25	41816.01
627.40	41764.52
627.55	41689.62
627.70	41280.03
627.85	41661.54
628.00	41783.24
628.15	42085.17
628.30	41933.04
628.45	41830.05
628.60	41792.61
628.76	41462.59
628.91	41670.90
629.06	41663.88
629.21	41109.17
629.36	41493.02
629.51	41958.78
629.66	41450.89
629.81	41174.70
629.96	41731.75
630.11	41488.34
630.26	41151.30
630.41	41373.65
630.56	41118.53
630.71	41312.80
630.86	41666.22
631.01	41783.24
631.16	41694.30
631.31	41165.34
631.46	40526.38
631.61	41340.88
631.76	41336.20
631.91	41673.24
632.06	41120.87
632.21	41226.20
632.36	41399.40
632.51	41083.42
632.66	41090.44
632.81	41029.59
632.96	40734.68
633.10	40374.24
633.25	40650.42
633.40	40903.20
633.55	40832.99
633.70	40725.32
633.85	40531.06
634.00	40781.49
634.15	40725.32
634.30	40650.42
634.45	40467.86
634.60	40509.99
634.75	40725.32
634.90	40884.48
635.05	40589.57
635.19	40313.39
635.34	41003.85
635.49	41041.29
635.64	40711.28
635.79	40524.04
635.94	40437.44
636.09	40285.30
636.24	40505.31
636.39	39938.90
636.53	40177.64
636.68	39901.45
636.83	39821.87
636.98	40268.92
637.13	40285.30
637.28	40208.06
637.43	40231.47
637.57	40708.94
637.72	40086.36
637.87	40650.42
638.02	40105.08
638.17	40105.08
638.32	39541.01
638.46	40102.74
638.61	39901.45
638.76	39697.83
638.91	39730.59
639.06	40306.37
639.20	39873.37
639.35	40030.18
639.50	40526.38
639.65	39929.54
639.80	40301.68
639.94	40060.61
640.09	39807.83
640.24	39257.81
640.39	39346.75
640.54	39531.65
640.68	39826.56
640.83	39166.52
640.98	39316.32
641.13	39817.19
641.27	40098.06
641.42	39833.58
641.57	39702.51
641.72	39700.17
641.86	39260.15
642.01	39026.09
642.16	39445.05
642.31	38972.26
642.45	39639.31
642.60	39021.41
642.75	39267.17
642.90	39372.49
643.04	39035.45
643.19	39416.96
643.34	39356.11
643.48	39246.10
643.63	39414.62
643.78	38763.95
643.93	39159.50
644.07	38820.13
644.22	39002.69
644.37	38869.28
644.51	38841.19
644.66	38897.36
644.81	39393.56
644.95	39173.55
645.10	39091.63
645.25	39243.76
645.39	38962.90
645.54	39618.25
645.69	38862.26
645.83	38698.42
645.98	38656.29
646.13	38944.17
646.27	38808.42
646.42	38738.21
646.57	38827.15
646.71	39098.65
646.86	38939.49
647.00	38703.10
647.15	38782.68
647.30	38941.83
647.44	38478.41
647.59	38632.88
647.74	38515.86
647.88	38553.30
648.03	38483.09
648.17	38504.15
648.32	38110.94
648.47	38581.39
648.61	37956.47
648.76	38691.40
648.90	38316.91
649.05	38593.09
649.20	38574.37
649.34	38410.53
649.49	38246.69
649.63	38087.54
649.78	38689.06
649.92	38122.65
650.07	38497.13
650.21	38007.96
650.36	38314.57
650.51	38256.06
650.65	38534.58
650.80	38527.56
650.94	38279.46
651.09	38244.35
651.23	37872.21
651.38	37916.68
651.52	37848.80
651.67	38246.69
651.81	38117.96
651.96	37734.12
652.10	37820.72
652.25	37621.77
652.39	37586.66
652.54	37907.32
652.68	37989.24
652.83	37998.60
652.97	37986.89
653.12	37780.93
653.26	37720.07
653.41	37727.10
653.55	37163.03
653.70	37579.64
653.84	37897.95
653.99	37745.82
654.13	37415.80
654.27	37486.02
654.42	37373.67
654.56	37631.13
654.71	37652.20
654.85	36973.44
655.00	37235.58
655.14	37619.43
655.29	36795.56
655.43	37029.62
655.57	36968.76
655.72	37141.96
655.86	36879.82
656.01	36858.76
656.15	36952.38
656.30	36811.95
656.44	36987.49
656.58	36662.15
656.73	36407.03
656.87	36704.28
657.01	36697.26
657.16	36797.90
657.30	36311.07
657.45	36753.43
657.59	36978.12
657.73	36671.51
657.88	36971.10
658.02	36701.94
658.16	36727.69
658.31	36734.71
658.45	36886.84
658.60	36730.03
658.74	36350.86
658.88	36285.33
659.03	36348.52
659.17	36669.17
659.31	36041.91
659.46	36027.87
659.60	36322.77
659.74	35742.32
659.89	36051.27
660.03	35864.03
660.17	36018.50
660.32	35957.65
660.46	36549.81
660.60	36348.52
660.74	36177.66
660.89	36051.27
661.03	35391.24
661.17	35728.28
661.32	35761.05
661.46	35409.96
661.60	35395.92
661.74	35871.05
661.89	35335.07
662.03	35353.79
662.17	35168.89
662.31	35725.94
662.46	35374.86
662.60	35257.83
662.74	35241.45
662.88	35681.47
663.03	35122.08
663.17	35101.01
663.31	34611.84
663.45	35166.55
663.60	35159.53
663.74	34642.27
663.88	34546.31
664.02	34848.24
664.17	34948.88
664.31	34579.07
664.45	34508.86
664.59	34677.38
664.73	34899.73
664.88	34813.13
665.02	34518.22
665.16	34909.09
665.30	34635.25
665.44	33858.19
665.59	33837.12
665.73	34015.01
665.87	33455.62
666.01	34499.50
666.15	34220.97
666.29	33972.88
666.44	34103.95
666.58	34022.03
666.72	33823.08
666.86	34103.95
667.00	33890.96
667.14	33907.34
667.28	34043.09
667.43	33603.07
667.57	33525.83
667.71	33376.04
667.85	33670.95
667.99	33659.24
668.13	33443.91
668.27	33429.87
668.41	33574.98
668.56	32989.85
668.70	33282.42
668.84	33261.35
668.98	32954.74
669.12	33127.94
669.26	32978.15
669.40	32760.48
669.54	32891.55
669.68	32486.64
669.82	32580.26
669.96	32893.89
670.10	32629.41
670.25	32680.90
670.39	32952.40
670.53	32701.96
670.67	32556.85
670.81	32545.15
670.95	32741.75
671.09	32608.34
671.23	32734.73
671.37	32685.58
671.51	32135.56
671.65	31929.59
671.79	31969.38
671.93	31955.33
672.07	32109.81
672.21	32109.81
672.35	31833.63
672.49	31857.03
672.63	31854.69
672.77	31751.71
672.91	31723.62
673.05	31438.08
673.19	31232.11
673.33	31213.38
673.47	31211.04
673.61	31147.85
673.75	30965.29
673.89	30639.95
674.03	31094.02
674.17	30871.67
674.31	31133.81
674.45	30941.88
674.59	30675.06
674.73	31005.08
674.87	30558.03
675.01	30771.02
675.15	30333.34
675.29	30822.51
675.43	30382.49
675.56	30256.11
675.70	30431.65
675.84	30249.08
675.98	28774.55
676.12	29867.58
676.26	30064.18
676.40	29825.45
676.54	29572.67
676.68	29638.20
676.82	29383.09
676.96	29825.45
677.10	29685.01
677.23	29244.99
677.37	29923.75
677.51	29467.34
677.65	29167.76
677.79	28992.22
677.93	28760.50
678.07	28957.11
678.21	28526.45
678.34	28666.88
678.48	28835.40
678.62	28580.28
678.76	27967.06
678.90	28493.68
679.04	28252.61
679.18	28006.85
679.31	28020.89
679.45	27850.03
679.59	27590.24
679.73	27426.40
679.87	27634.71
680.00	27615.98
680.14	27325.75
680.28	27590.24
680.42	27644.07
680.56	27257.88
680.70	27454.48
680.83	26862.33
680.97	26944.25
681.11	27145.53
681.25	26644.66
681.39	26810.84
681.52	27058.93
681.66	26677.43
681.80	26534.65
681.94	26602.53
682.07	26438.69
682.21	26387.20
682.35	26368.48
682.49	26113.36
682.62	26281.88
682.76	26335.71
682.90	25860.58
683.04	25523.54
683.17	26197.62
683.31	26019.74
683.45	25830.15
683.59	25628.87
683.72	25495.46
683.86	25010.96
684.00	25050.75
684.13	25355.02
684.27	25500.14
684.41	24828.40
684.55	25163.10
684.68	24774.57
684.82	24580.31
684.96	24510.09
685.09	24858.83
685.23	24444.56
685.37	24641.16
685.50	24126.24
685.64	24428.17
685.78	24245.61
685.91	23939.00
686.05	24027.94
686.19	23321.10
686.32	23620.69
686.46	23363.23
686.60	23442.81
686.73	23770.48
686.87	23700.26
687.01	23559.83
687.14	23468.55
687.28	23129.17
687.42	23285.99
687.55	22946.61
687.69	22958.31
687.82	22883.42
687.96	22972.36
688.10	22576.81
688.23	22672.77
688.37	22345.09
688.50	22326.37
688.64	22562.76
688.78	22099.34
688.91	22235.09
689.05	22071.25
689.18	22342.75
689.32	21874.65
689.46	21884.01
689.59	21919.12
689.73	21947.20
689.86	21692.08
690.00	21827.84
690.13	21666.34
690.27	21252.06
690.41	21294.19
690.54	21165.46
690.68	20982.90
690.81	20870.56
690.95	20851.83
691.08	20903.32
691.22	20638.84
691.35	20790.98
691.49	20943.11
691.62	20924.39
691.76	20851.83
691.89	20634.16
692.03	20388.41
692.16	20042.01
692.30	20135.63
692.43	20386.07
692.57	19843.06
692.70	19901.58
692.84	19915.62
692.97	19903.92
693.11	19536.45
693.24	19456.87
693.38	19597.31
693.51	19386.66
693.65	19583.26
693.78	19536.45
693.92	19283.67
694.05	19496.66
694.19	19363.25
694.32	18995.79
694.45	18923.23
694.59	18792.16
694.72	19075.37
694.86	18682.16
694.99	18317.03
695.13	18752.37
695.26	18436.40
695.39	18043.19
695.53	18424.70
695.66	18644.71
695.80	18181.28
695.93	18333.42
696.07	18029.15
696.20	18162.56
696.33	18141.49
696.47	17682.75
696.60	17806.80
696.73	17797.43
696.87	17539.97
697.00	17486.14
697.14	17724.88
697.27	17575.08
697.40	17500.19
697.54	17678.07
697.67	17394.86
697.80	17233.36
697.94	17170.17
698.07	16943.14
698.21	17163.15
698.34	17167.83
698.47	17060.16
698.61	16549.93
698.74	16615.46
698.87	16463.33
699.01	16397.79
699.14	16379.07
699.27	16128.63
699.40	16318.22
699.54	15974.16
699.67	16091.18
699.80	16039.69
699.94	16126.29
700.07	16198.85
700.20	15740.10
700.34	15723.72
700.47	15758.83
700.60	15527.11
700.73	15676.91
700.87	15655.84
701.00	15438.17
701.13	15492.01
701.26	15527.11
701.40	15241.57
701.53	15222.84
701.66	15140.93
701.79	15140.93
701.93	14937.30
702.06	14927.94
702.19	14696.22
702.32	14677.50
702.46	14572.18
702.59	14740.69
702.72	14642.39
702.85	14979.43
702.99	14661.12
703.12	14661.12
703.25	14380.25
703.38	14593.24
703.51	14387.27
703.65	14176.62
703.78	14281.95
703.91	14099.39
704.04	14012.79
704.17	14160.24
704.31	13867.67
704.44	13790.44
704.57	13642.98
704.70	13490.85
704.83	13591.49
704.96	13657.03
705.10	13708.52
705.23	13614.90
>>>>>End Processed Spectral Data<<<<<
