SpectraSuite Data File
++++++++++++++++++++++++++++++++++++
Date: Fri Oct 25 10:47:51 EDT 2013
User: price-jones
Dark Spectrum Present: No
Reference Spectrum Present: No
Number of Sampled Component Spectra: 1
Spectrometers: USB2+H05261
Integration Time (usec): 100000 (USB2+H05261)
Spectra Averaged: 1 (USB2+H05261)
Boxcar Smoothing: 0 (USB2+H05261)
Correct for Electrical Dark: No (USB2+H05261)
Strobe/Lamp Enabled: No (USB2+H05261)
Correct for Detector Non-linearity: No (USB2+H05261)
Correct for Stray Light: No (USB2+H05261)
Number of Pixels in Processed Spectrum: 2048
>>>>>Begin Processed Spectral Data<<<<<
365.73	182.56
365.92	182.56
366.12	182.56
366.32	119.37
366.52	60.85
366.72	39.79
366.91	0.00
367.11	124.05
367.31	77.24
367.51	72.56
367.70	28.09
367.90	32.77
368.10	0.00
368.30	56.17
368.49	30.43
368.69	112.35
368.89	28.09
369.09	37.45
369.28	7.02
369.48	39.79
369.68	58.51
369.87	42.13
370.07	107.66
370.27	180.22
370.47	156.82
370.66	393.21
370.86	379.17
371.06	454.06
371.25	470.45
371.45	465.77
371.65	484.49
371.84	486.83
372.04	479.81
372.24	514.92
372.44	514.92
372.63	468.11
372.83	493.85
373.03	475.13
373.22	489.17
373.42	550.03
373.62	531.30
373.81	521.94
374.01	517.26
374.21	486.83
374.40	475.13
374.60	566.41
374.79	557.05
374.99	592.16
375.19	561.73
375.38	561.73
375.58	575.77
375.78	557.05
375.97	564.07
376.17	653.01
376.37	538.32
376.56	585.13
376.76	538.32
376.95	489.17
377.15	592.16
377.35	617.90
377.54	573.43
377.74	645.99
377.93	638.97
378.13	624.92
378.33	592.16
378.52	601.52
378.72	561.73
378.91	603.86
379.11	648.33
379.31	564.07
379.50	606.20
379.70	688.12
379.89	702.16
380.09	634.29
380.28	638.97
380.48	603.86
380.68	730.25
380.87	664.71
381.07	636.63
381.26	727.91
381.46	622.58
381.65	688.12
381.85	653.01
382.04	660.03
382.24	678.76
382.43	650.67
382.63	697.48
382.83	674.07
383.02	678.76
383.22	627.26
383.41	655.35
383.61	727.91
383.80	763.01
384.00	777.06
384.19	697.48
384.39	720.88
384.58	678.76
384.78	751.31
384.97	730.25
385.17	697.48
385.36	678.76
385.56	720.88
385.75	730.25
385.95	720.88
386.14	753.65
386.34	856.64
386.53	791.10
386.72	751.31
386.92	936.21
387.11	842.59
387.31	833.23
387.50	730.25
387.70	851.96
387.89	784.08
388.09	863.66
388.28	800.46
388.48	788.76
388.67	905.79
388.86	945.58
389.06	945.58
389.25	985.37
389.45	896.43
389.64	887.06
389.84	854.30
390.03	919.83
390.22	884.72
390.42	903.45
390.61	943.24
390.81	905.79
391.00	983.02
391.19	966.64
391.39	931.53
391.58	1076.65
391.78	978.34
391.97	947.92
392.16	959.62
392.36	1004.09
392.55	961.96
392.75	915.15
392.94	912.81
393.13	926.85
393.33	983.02
393.52	1004.09
393.71	957.28
393.91	980.68
394.10	957.28
394.29	1015.79
394.49	1011.11
394.68	1062.60
394.88	1078.99
395.07	1219.42
395.26	1158.57
395.46	1151.54
395.65	1153.88
395.84	1137.50
396.04	1172.61
396.23	1034.52
396.42	1055.58
396.62	1165.59
396.81	1125.80
397.00	1093.03
397.19	1172.61
397.39	1188.99
397.58	1217.08
397.77	1224.10
397.97	1299.00
398.16	1219.42
398.35	1256.87
398.55	1313.04
398.74	1221.76
398.93	1273.25
399.12	1315.38
399.32	1486.24
399.51	1313.04
399.70	1397.30
399.90	1364.53
400.09	1376.24
400.28	1430.07
400.47	1371.55
400.67	1385.60
400.86	1528.37
401.05	1514.33
401.24	1387.94
401.44	1437.09
401.63	1458.15
401.82	1500.28
402.01	1542.41
402.21	1509.65
402.40	1540.07
402.59	1394.96
402.78	1610.29
402.97	1570.50
403.17	1575.18
403.36	1579.86
403.55	1685.19
403.74	1661.78
403.93	1638.38
404.13	1643.06
404.32	1626.67
404.51	1703.91
404.70	1687.53
404.89	1586.88
405.09	1696.89
405.28	1692.21
405.47	1813.92
405.66	1790.51
405.85	1809.23
406.05	1762.42
406.24	1844.34
406.43	1685.19
406.62	1795.19
406.81	1881.79
407.00	1809.23
407.20	1743.70
407.39	1914.56
407.58	1935.62
407.77	1909.88
407.96	1975.41
408.15	1998.82
408.34	1954.35
408.54	2047.97
408.73	2120.53
408.92	1973.07
409.11	2005.84
409.30	2031.58
409.49	2033.93
409.68	2066.69
409.87	2005.84
410.07	2012.86
410.26	2031.58
410.45	2099.46
410.64	2162.66
410.83	2202.44
411.02	2195.42
411.21	2415.43
411.40	2286.70
411.59	2307.77
411.78	2331.17
411.98	2179.04
412.17	2342.88
412.36	2424.80
412.55	2392.03
412.74	2530.12
412.93	2462.24
413.12	2562.89
413.31	2537.14
413.50	2532.46
413.69	2436.50
413.88	2544.16
414.07	2499.69
414.26	2614.38
414.45	2583.95
414.64	2609.70
414.83	2616.72
415.02	2715.02
415.22	2693.96
415.41	2754.81
415.60	2705.66
415.79	2986.52
415.98	2909.29
416.17	2991.20
416.36	2895.24
416.55	2771.19
416.74	2911.63
416.93	3012.27
417.12	3016.95
417.31	2970.14
417.50	3082.49
417.69	2986.52
417.88	3265.05
418.07	2916.31
418.26	3098.87
418.45	3019.29
418.64	3220.58
418.83	3204.19
419.02	3045.04
419.21	3185.47
419.39	3232.28
419.58	3145.68
419.77	3194.83
419.96	3206.53
420.15	3248.66
420.34	3297.81
420.53	3251.00
420.72	3295.47
420.91	3267.39
421.10	3283.77
421.29	3524.85
421.48	3356.33
421.67	3471.01
421.86	3454.63
422.05	3405.48
422.24	3295.47
422.43	3375.05
422.61	3492.08
422.80	3541.23
422.99	3562.30
423.18	3674.64
423.37	3613.79
423.56	3552.93
423.75	3581.02
423.94	3452.29
424.13	3321.22
424.32	3473.36
424.50	3520.17
424.69	3644.21
424.88	3574.00
425.07	3506.12
425.26	3492.08
425.45	3485.06
425.64	3424.20
425.83	3527.19
426.01	3691.02
426.20	3672.30
426.39	3695.71
426.58	3641.87
426.77	3662.94
426.96	3700.39
427.15	3618.47
427.33	3686.34
427.52	3768.26
427.71	3609.11
427.90	3756.56
428.09	3819.75
428.28	3590.38
428.46	3894.65
428.65	3693.37
428.84	3864.22
429.03	3875.93
429.22	3716.77
429.40	3838.48
429.59	3794.01
429.78	3698.05
429.97	3620.81
430.16	3672.30
430.34	3775.28
430.53	3908.69
430.72	3913.38
430.91	3999.98
431.10	3798.69
431.28	4072.53
431.47	4194.24
431.66	4231.69
431.85	4105.30
432.03	4098.28
432.22	4278.50
432.41	4287.86
432.60	4166.15
432.79	4051.47
432.97	4112.32
433.16	4163.81
433.35	4269.14
433.54	4329.99
433.72	4320.63
433.91	4203.60
434.10	4395.53
434.28	4224.67
434.47	4402.55
434.66	4346.37
434.85	4442.34
435.03	4596.81
435.22	4512.55
435.41	4578.09
435.59	4533.62
435.78	4585.11
435.97	4461.06
436.16	4573.41
436.34	4550.00
436.53	4791.08
436.72	4592.13
436.90	4442.34
437.09	4566.39
437.28	4568.73
437.46	4641.28
437.65	4540.64
437.84	4669.37
438.02	4678.73
438.21	4667.03
438.40	4734.90
438.58	4959.60
438.77	4887.04
438.96	4720.86
439.14	5060.24
439.33	5097.69
439.52	5041.51
439.70	5160.88
439.89	4919.81
440.08	5153.86
440.26	5247.48
440.45	5303.65
440.63	5226.42
440.82	5399.62
441.01	5277.91
441.19	5235.78
441.38	5324.72
441.57	5394.93
441.75	5476.85
441.94	5565.79
442.12	5710.91
442.31	5579.84
442.50	5563.45
442.68	5521.32
442.87	5631.33
443.05	5703.89
443.24	5837.30
443.43	5664.10
443.61	5664.10
443.80	5996.45
443.98	5778.78
444.17	5685.16
444.35	5886.45
444.54	5891.13
444.73	5926.24
444.91	5774.10
445.10	5851.34
445.28	5788.14
445.47	5879.43
445.65	5797.51
445.84	5877.09
446.02	6118.16
446.21	5851.34
446.39	5930.92
446.58	5928.58
446.77	6010.50
446.95	5982.41
447.14	5856.02
447.32	6033.90
447.51	6059.65
447.69	6054.97
447.88	5830.27
448.06	5959.00
448.25	6115.82
448.43	5937.94
448.62	5891.13
448.80	5914.53
448.99	6139.23
449.17	6284.34
449.36	6118.16
449.54	6188.38
449.73	6354.55
449.91	6413.07
450.10	6366.26
450.28	6455.20
450.46	6284.34
450.65	6462.22
450.83	6417.75
451.02	6277.32
451.20	6394.34
451.39	6445.84
451.57	6431.79
451.76	6560.52
451.94	6370.94
452.13	6466.90
452.31	6466.90
452.49	6457.54
452.68	6399.02
452.86	6377.96
453.05	6640.10
453.23	6483.28
453.42	6560.52
453.60	6523.07
453.78	6616.69
453.97	6539.46
454.15	6602.65
454.34	6558.18
454.52	6991.18
454.70	6700.95
454.89	6628.40
455.07	6745.42
455.26	6738.40
455.44	6967.77
455.62	7073.10
455.81	6874.15
455.99	6920.96
456.17	7068.42
456.36	7063.74
456.54	7169.06
456.73	7248.64
456.91	7295.45
457.09	7222.89
457.28	7438.22
457.46	7286.09
457.64	7314.17
457.83	7084.80
458.01	7241.62
458.19	7311.83
458.38	7342.26
458.56	7283.75
458.74	7318.86
458.93	7396.09
459.11	7414.82
459.29	7585.68
459.48	7590.36
459.66	7304.81
459.84	7581.00
460.03	7726.11
460.21	7616.10
460.39	7522.48
460.57	7447.58
460.76	7681.64
460.94	7808.03
461.12	7672.28
461.31	7691.00
461.49	7894.63
461.67	7714.41
461.85	8018.68
462.04	7782.28
462.22	8311.24
462.40	7798.66
462.59	7971.86
462.77	7974.21
462.95	8056.12
463.13	7950.80
463.32	8177.83
463.50	8168.47
463.68	8128.68
463.86	8241.03
464.05	8166.13
464.23	8222.30
464.41	8100.59
464.59	8004.63
464.78	8182.51
464.96	8152.09
465.14	8259.75
465.32	8226.98
465.50	8334.65
465.69	8512.53
465.87	8369.76
466.05	8336.99
466.23	8393.16
466.41	8315.92
466.60	8344.01
466.78	8336.99
466.96	8409.54
467.14	8655.30
467.32	8423.59
467.51	8383.80
467.69	8404.86
467.87	8475.08
468.05	8718.50
468.23	8498.49
468.41	8706.79
468.60	8554.66
468.78	8739.56
468.96	8692.75
469.14	8788.71
469.32	8753.60
469.50	8699.77
469.69	8613.17
469.87	9006.38
470.05	9048.51
470.23	9032.13
470.41	8805.10
470.59	8924.46
470.77	9090.64
470.95	9062.55
471.14	9078.94
471.32	9008.72
471.50	9373.85
471.68	9277.88
471.86	9343.42
472.04	9298.95
472.22	9479.17
472.40	9202.99
472.58	9383.21
472.77	9385.55
472.95	9689.82
473.13	9692.16
473.31	9570.45
473.49	9685.14
473.67	9778.76
473.85	9734.29
474.03	9626.62
474.21	9914.51
474.39	10045.58
474.57	9909.83
474.75	10068.98
474.93	10338.15
475.12	10071.33
475.30	10153.24
475.48	10054.94
475.66	10221.12
475.84	10352.19
476.02	10516.03
476.20	10445.81
476.38	10431.77
476.56	10832.00
476.74	10721.99
476.92	10663.48
477.10	11075.42
477.28	11283.72
477.46	11075.42
477.64	11042.65
477.82	11309.47
478.00	11545.86
478.18	11316.49
478.36	11302.45
478.54	11463.94
478.72	11761.19
478.90	11756.51
479.08	11733.11
479.26	11964.82
479.44	11889.92
479.62	12231.64
479.80	12334.62
479.98	12109.93
480.16	12676.34
480.34	12418.88
480.52	12706.77
480.70	12423.56
480.88	12248.02
481.06	12781.67
481.24	12526.55
481.41	13090.62
481.59	13074.23
481.77	13193.60
481.95	13245.09
482.13	13170.19
482.31	13357.44
482.49	13371.48
482.67	13570.43
482.85	13551.70
483.03	13884.06
483.21	13949.59
483.39	14228.12
483.57	14052.58
483.74	14267.91
483.92	14408.34
484.10	14031.51
484.28	14452.81
484.46	14899.85
484.64	14972.41
484.82	14516.00
485.00	14771.12
485.18	14995.81
485.35	15171.35
485.53	15147.95
485.71	14949.00
485.89	15222.84
486.07	15126.88
486.25	15147.95
486.43	15447.54
486.61	15536.48
486.78	15875.85
486.96	15906.28
487.14	16322.90
487.32	16252.68
487.50	16456.31
487.68	16493.76
487.85	16561.63
488.03	16865.90
488.21	17207.62
488.39	17202.94
488.57	17287.20
488.75	17301.24
488.92	17116.34
489.10	17525.93
489.28	17895.74
489.46	18178.94
489.64	17734.24
489.81	18022.12
489.99	18436.40
490.17	18167.24
490.35	18733.65
490.53	18527.68
490.70	18691.52
490.88	18904.51
491.06	18831.95
491.24	18991.11
491.41	19154.94
491.59	19138.56
491.77	19325.80
491.95	19147.92
492.13	19569.22
492.30	19873.49
492.48	19819.66
492.66	19969.45
492.84	20144.99
493.01	20266.70
493.19	20163.72
493.37	20528.84
493.54	20262.02
493.72	20704.38
493.90	20695.02
494.08	21205.25
494.25	21458.03
494.43	21418.24
494.61	21106.95
494.79	21706.13
494.96	21331.64
495.14	21678.04
495.32	21635.91
495.49	21603.14
495.67	21869.97
495.85	22190.62
496.02	22602.55
496.20	22338.07
496.38	22363.82
496.55	22710.22
496.73	22895.12
496.91	22441.06
497.09	22665.75
497.26	23044.91
497.44	23171.30
497.62	23173.64
497.79	23096.41
497.97	23449.83
498.14	23283.65
498.32	23747.08
498.50	23723.67
498.67	24332.21
498.85	24056.03
499.03	23866.44
499.20	23885.17
499.38	23967.09
499.56	24119.22
499.73	24126.24
499.91	24254.97
500.08	24606.05
500.26	24247.95
500.44	24889.26
500.61	24732.44
500.79	24517.11
500.97	25078.84
501.14	25434.60
501.32	25355.02
501.49	25146.72
501.67	24968.84
501.84	25336.30
502.02	25556.31
502.20	25565.67
502.37	25745.89
502.55	25645.25
502.72	26228.04
502.90	25830.15
503.07	25762.28
503.25	26068.89
503.43	26103.99
503.60	26139.10
503.78	26251.45
503.95	26178.89
504.13	26576.78
504.30	26391.88
504.48	26576.78
504.65	26572.10
504.83	26710.19
505.01	26977.01
505.18	27154.90
505.36	27309.37
505.53	27283.62
505.71	27538.74
505.88	27180.64
506.06	27503.64
506.23	27351.50
506.41	27119.79
506.58	27211.07
506.76	27295.33
506.93	27702.58
507.11	27690.88
507.28	27686.20
507.46	28109.83
507.63	28037.28
507.81	28224.52
507.98	27929.61
508.16	28034.94
508.33	28549.85
508.50	28655.18
508.68	28421.13
508.85	29029.66
509.03	28442.19
509.20	28851.78
509.38	29340.96
509.55	29032.00
509.73	29167.76
509.90	29355.00
510.08	29053.07
510.25	29575.01
510.42	29408.83
510.60	29385.43
510.77	29551.60
510.95	29816.08
511.12	29668.63
511.30	29797.36
511.47	30082.91
511.64	29890.98
511.82	30181.21
511.99	29558.63
512.17	29998.65
512.34	30110.99
512.51	30438.67
512.69	30422.28
512.86	30635.27
513.04	30675.06
513.21	30335.68
513.38	30473.78
513.56	30625.91
513.73	30590.80
513.90	31094.02
514.08	31091.68
514.25	30972.31
514.43	31087.00
514.60	30864.64
514.77	30946.56
514.95	31505.95
515.12	31023.80
515.29	31012.10
515.47	31267.22
515.64	31866.39
515.81	31908.52
515.99	31241.47
516.16	31379.56
516.33	31466.16
516.51	31676.81
516.68	31644.04
516.85	31639.36
517.03	31768.09
517.20	31967.04
517.37	31908.52
517.54	32320.46
517.72	32357.91
517.89	32470.25
518.06	31868.73
518.24	32402.38
518.41	32046.62
518.58	32371.95
518.75	32524.08
518.93	32746.44
519.10	33221.56
519.27	32952.40
519.45	33034.32
519.62	33003.89
519.79	33537.54
519.96	33230.93
520.14	33474.34
520.31	32975.81
520.48	33544.56
520.65	33340.93
520.83	33457.96
521.00	33888.62
521.17	34005.64
521.34	33647.54
521.52	33919.04
521.69	33883.94
521.86	33881.60
522.03	33982.24
522.20	34501.84
522.38	34260.76
522.55	34199.91
522.72	34059.48
522.89	34342.68
523.07	34426.94
523.24	34206.93
523.41	34546.31
523.58	34546.31
523.75	34941.86
523.92	34534.60
524.10	34782.70
524.27	34958.24
524.44	34855.26
524.61	34923.13
524.78	35496.56
524.96	35026.12
525.13	35323.36
525.30	35250.81
525.47	35662.74
525.64	35482.52
525.81	35225.06
525.98	35288.26
526.16	35122.08
526.33	34890.37
526.50	35824.24
526.67	35339.75
526.84	35777.43
527.01	35538.69
527.18	35611.25
527.36	35978.72
527.53	35807.86
527.70	36151.91
527.87	36510.02
528.04	36514.70
528.21	35974.03
528.38	36041.91
528.55	36503.00
528.72	36362.56
528.89	36690.24
529.07	36844.71
529.24	36259.58
529.41	36409.37
529.58	36570.87
529.75	36706.62
529.92	36535.76
530.09	36622.36
530.26	36933.65
530.43	37001.53
530.60	37076.43
530.77	36999.19
530.94	37153.66
531.11	37233.24
531.28	37134.94
531.46	37347.93
531.63	37408.78
531.80	37469.64
531.97	37258.99
532.14	37188.77
532.31	37368.99
532.48	37502.40
532.65	37792.63
532.82	37813.70
532.99	37614.75
533.16	37736.46
533.33	37567.94
533.50	38153.07
533.67	37846.46
533.84	37406.44
534.01	37706.03
534.18	38047.75
534.35	37703.69
534.52	38352.02
534.69	38218.61
534.86	38462.02
535.03	37919.02
535.20	39065.88
535.37	38373.08
535.54	38909.07
535.71	38440.96
535.88	38417.55
536.05	38689.06
536.22	38829.49
536.38	38660.97
536.55	38553.30
536.72	38572.03
536.89	38363.72
537.06	38569.69
537.23	39040.14
537.40	38230.31
537.57	38792.04
537.74	38873.96
537.91	39475.48
538.08	39089.29
538.25	38635.22
538.42	39100.99
538.59	39096.31
538.75	38787.36
538.92	39262.49
539.09	39030.77
539.26	39484.84
539.43	39332.70
539.60	39229.72
539.77	39281.21
539.94	39800.81
540.11	39512.92
540.28	39119.71
540.44	39407.60
540.61	39335.04
540.78	39342.06
540.95	39129.08
541.12	39580.80
541.29	39255.46
541.46	39529.31
541.62	39576.12
541.79	40484.25
541.96	39620.59
542.13	39541.01
542.30	39992.73
542.47	39704.85
542.63	39924.86
542.80	40011.46
542.97	40521.69
543.14	40446.80
543.31	40346.15
543.48	40367.22
543.64	40889.16
543.81	40594.25
543.98	40620.00
544.15	40416.37
544.32	40697.24
544.48	41109.17
544.65	41244.92
544.82	40435.10
544.99	40439.78
545.16	40498.29
545.32	40685.53
545.49	41312.80
545.66	40891.50
545.83	40928.95
546.00	41170.02
546.16	41467.27
546.33	40734.68
546.50	40519.35
546.67	41219.17
546.83	40774.47
547.00	41298.75
547.17	41521.10
547.34	41223.86
547.50	41209.81
547.67	41439.18
547.84	41123.21
548.00	41521.10
548.17	41689.62
548.34	41502.38
548.51	41755.16
548.67	42078.15
548.84	42223.26
549.01	41773.88
549.18	41579.62
549.34	41769.20
549.51	41677.92
549.68	42007.94
549.84	42059.43
550.01	42082.83
550.18	42073.47
550.34	41944.74
550.51	41780.90
550.68	41940.06
550.84	41993.89
551.01	42227.95
551.18	42206.88
551.34	41930.70
551.51	42087.51
551.68	42012.62
551.84	42099.22
552.01	42012.62
552.18	42445.62
552.34	42139.00
552.51	42555.62
552.68	42412.85
552.84	42485.40
553.01	43019.05
553.18	42401.14
553.34	42480.72
553.51	42464.34
553.67	42719.46
553.84	42754.57
554.01	42869.25
554.17	43049.47
554.34	43178.20
554.51	42728.82
554.67	43103.31
554.84	42799.04
555.00	42469.02
555.17	42810.74
555.33	42724.14
555.50	42513.49
555.67	42759.25
555.83	42768.61
556.00	43058.84
556.16	43662.69
556.33	43159.48
556.50	42993.30
556.66	43430.98
556.83	42986.28
556.99	43325.66
557.16	43225.01
557.32	43297.57
557.49	43508.22
557.65	42546.26
557.82	42728.82
557.98	42909.04
558.15	43756.32
558.32	43459.07
558.48	43335.02
558.65	43330.34
558.81	43260.12
558.98	43281.19
559.14	43283.53
559.31	43086.92
559.47	43283.53
559.64	43768.02
559.80	43473.11
559.97	43498.86
560.13	43526.94
560.30	43597.16
560.46	43590.14
560.63	43225.01
560.79	43784.40
560.96	43543.33
561.12	43379.49
561.29	43697.80
561.45	43777.38
561.61	43913.13
561.78	43971.64
561.94	43452.05
562.11	43873.34
562.27	43573.75
562.44	43456.73
562.60	43646.31
562.77	43899.09
562.93	43981.01
563.10	43992.71
563.26	43365.45
563.42	44287.62
563.59	43718.87
563.75	43597.16
563.92	44142.50
564.08	43978.67
564.24	43704.82
564.41	43959.94
564.57	44095.69
564.74	43908.45
564.90	44060.58
565.07	43824.19
565.23	44285.28
565.39	43728.23
565.56	44217.40
565.72	43978.67
565.88	43838.23
566.05	43962.28
566.21	43849.94
566.38	43966.96
566.54	44486.56
566.70	43962.28
566.87	44079.31
567.03	43988.03
567.19	44472.52
567.36	43875.68
567.52	44023.14
567.68	44392.94
567.85	44006.75
568.01	44538.05
568.17	44133.14
568.34	44343.79
568.50	43938.88
568.66	44046.54
568.83	43810.15
568.99	44163.57
569.15	44399.96
569.32	44224.42
569.48	43929.51
569.64	44364.85
569.81	44474.86
569.97	43770.36
570.13	44645.72
570.30	44046.54
570.46	44608.27
570.62	43983.35
570.78	44500.61
570.95	44198.68
571.11	44355.49
571.27	44032.50
571.43	44488.90
571.60	44402.30
571.76	44722.96
571.92	44313.36
572.09	44151.87
572.25	44341.45
572.41	44212.72
572.57	44577.84
572.74	45041.27
572.90	44465.50
573.06	44502.95
573.22	44683.17
573.38	44308.68
573.55	44402.30
573.71	44741.68
573.87	44306.34
574.03	44322.72
574.20	44383.58
574.36	44332.09
574.52	44835.30
574.68	44430.39
574.84	44563.80
575.01	44268.89
575.17	44854.03
575.33	44535.71
575.49	44088.67
575.65	44406.98
575.82	44673.81
575.98	44371.88
576.14	44701.89
576.30	44414.01
576.46	43779.72
576.62	44257.19
576.79	44023.14
576.95	44243.15
577.11	44753.38
577.27	44182.29
577.43	44343.79
577.59	44472.52
577.75	44825.94
577.92	44018.46
578.08	44294.64
578.24	44350.81
578.40	44329.75
578.56	44603.59
578.72	44669.12
578.88	45139.57
579.04	44500.61
579.21	44673.81
579.37	44327.41
579.53	44137.82
579.69	43789.08
579.85	44652.74
580.01	44615.29
580.17	44631.68
580.33	45036.59
580.49	44814.24
580.65	44664.44
580.82	44690.19
580.98	44589.55
581.14	44619.97
581.30	44296.98
581.46	44589.55
581.62	44680.83
581.78	44500.61
581.94	45200.43
582.10	44959.35
582.26	44889.13
582.42	44821.26
582.58	44397.62
582.74	44664.44
582.90	44842.32
583.06	45048.29
583.22	44942.97
583.38	44793.17
583.54	44851.69
583.70	44652.74
583.86	44449.11
584.02	44758.06
584.18	44947.65
584.34	45226.17
584.50	44786.15
584.66	44999.14
584.82	44570.82
584.98	45336.18
585.14	44800.19
585.30	44556.78
585.46	44975.73
585.62	44383.58
585.78	44961.69
585.94	44245.49
586.10	44568.48
586.26	44847.00
586.42	44783.81
586.58	45081.06
586.74	45090.42
586.90	44804.88
587.06	44582.52
587.22	44912.54
587.38	44659.76
587.54	45116.17
587.70	44751.04
587.86	44751.04
588.02	44868.07
588.18	45186.38
588.34	44669.12
588.49	44889.13
588.65	44332.09
588.81	44332.09
588.97	44271.23
589.13	44643.38
589.29	44549.76
589.45	44814.24
589.61	44844.66
589.77	45130.21
589.93	44942.97
590.08	45059.99
590.24	44980.42
590.40	44786.15
590.56	44795.51
590.72	44914.88
590.88	44744.02
591.04	44898.50
591.20	45059.99
591.35	45766.84
591.51	45350.22
591.67	45076.38
591.83	45095.10
591.99	44772.11
592.15	44924.24
592.31	44919.56
592.46	44774.45
592.62	44563.80
592.78	45144.25
592.94	44973.39
593.10	45137.23
593.26	44910.20
593.41	45247.24
593.57	45146.59
593.73	45024.89
593.89	44952.33
594.05	44821.26
594.20	45207.45
594.36	45059.99
594.52	45209.79
594.68	45392.35
594.84	44952.33
594.99	45918.97
595.15	45139.57
595.31	45703.64
595.47	45404.05
595.62	45659.17
595.78	45277.66
595.94	45584.27
596.10	45443.84
596.25	44926.58
596.41	45249.58
596.57	44952.33
596.73	45193.40
596.88	45062.33
597.04	45069.36
597.20	44954.67
597.36	45724.71
597.51	45453.20
597.67	45593.64
597.83	45406.39
597.99	45560.87
598.14	45294.05
598.30	45198.09
598.46	45256.60
598.61	45390.01
598.77	45067.02
598.93	45317.45
599.09	44933.60
599.24	45535.12
599.40	45312.77
599.56	45483.63
599.71	45397.03
599.87	45338.52
600.03	45495.33
600.18	44800.19
600.34	45022.54
600.50	45645.13
600.65	45247.24
600.81	45750.45
600.97	45801.94
601.12	45750.45
601.28	45670.87
601.44	45120.85
601.59	45022.54
601.75	44919.56
601.91	45455.54
602.06	44774.45
602.22	45478.95
602.37	45298.73
602.53	45162.98
602.69	45518.74
602.84	45207.45
603.00	45027.23
603.16	45036.59
603.31	44980.42
603.47	44994.46
603.62	44842.32
603.78	45600.66
603.94	45492.99
604.09	45488.31
604.25	45043.61
604.40	45184.04
604.56	45139.57
604.71	45572.57
604.87	45090.42
605.03	44875.09
605.18	44769.77
605.34	45134.89
605.49	45048.29
605.65	45153.62
605.80	44921.90
605.96	45069.36
606.12	45413.41
606.27	45485.97
606.43	45151.27
606.58	45003.82
606.74	45221.49
606.89	45226.17
607.05	45270.64
607.20	44973.39
607.36	45064.67
607.51	45621.72
607.67	45067.02
607.82	45247.24
607.98	45457.88
608.13	45120.85
608.29	44804.88
608.44	44800.19
608.60	44636.36
608.75	44481.88
608.91	44641.04
609.06	44612.95
609.22	45045.95
609.37	44229.10
609.53	45069.36
609.68	44914.88
609.84	44814.24
609.99	44781.47
610.15	44729.98
610.30	44362.51
610.46	44296.98
610.61	44402.30
610.76	44755.72
610.92	44392.94
611.07	44634.02
611.23	44521.67
611.38	44795.51
611.54	44137.82
611.69	44428.05
611.84	44423.37
612.00	44507.63
612.15	44512.31
612.31	44425.71
612.46	43976.33
612.62	44442.09
612.77	44421.03
612.92	44418.69
613.08	44355.49
613.23	44114.42
613.39	44727.64
613.54	43817.17
613.69	44240.81
613.85	44458.48
614.00	44467.84
614.15	44825.94
614.31	44201.02
614.46	44512.31
614.62	44170.59
614.77	44100.37
614.92	44102.71
615.08	44444.43
615.23	44163.57
615.38	44020.80
615.54	43522.26
615.69	44076.97
615.84	43438.00
616.00	44140.16
616.15	43681.42
616.30	43920.15
616.46	43814.83
616.61	42988.62
616.76	43667.37
616.92	44034.84
617.07	43746.95
617.22	43737.59
617.37	43948.24
617.53	44376.56
617.68	43753.97
617.83	43646.31
617.99	43732.91
618.14	44156.55
618.29	43442.68
618.45	43550.35
618.60	43494.18
618.75	43503.54
618.90	43629.93
619.06	43777.38
619.21	43548.01
619.36	43704.82
619.51	43236.72
619.67	43339.70
619.82	43779.72
619.97	43674.40
620.12	43217.99
620.28	42981.60
620.43	42995.64
620.58	43536.30
620.73	43672.06
620.89	43093.94
621.04	43115.01
621.19	43388.85
621.34	42887.98
621.49	43203.95
621.65	42969.90
621.80	43313.95
621.95	42792.01
622.10	43157.14
622.25	42703.07
622.41	42813.08
622.56	43133.73
622.71	43056.50
622.86	42993.30
623.01	42923.08
623.16	43285.87
623.32	42958.19
623.47	42883.30
623.62	42801.38
623.77	42841.17
623.92	42469.02
624.07	42670.31
624.23	42761.59
624.38	42422.21
624.53	42436.25
624.68	43157.14
624.83	42682.01
624.98	42836.48
625.13	42705.41
625.29	42756.91
625.44	42618.81
625.59	42127.30
625.74	42429.23
625.89	42216.24
626.04	42139.00
626.19	42459.66
626.34	42581.37
626.49	41956.44
626.65	42143.69
626.80	42731.16
626.95	42064.11
627.10	42115.60
627.25	41916.65
627.40	41563.23
627.55	42143.69
627.70	41385.35
627.85	42087.51
628.00	42134.32
628.15	42141.35
628.30	41947.08
628.45	42490.09
628.60	42089.85
628.76	42155.39
628.91	42057.09
629.06	41467.27
629.21	42106.24
629.36	41979.85
629.51	41394.71
629.66	41418.12
629.81	41729.41
629.96	42066.45
630.11	41642.81
630.26	41773.88
630.41	41951.76
630.56	41745.80
630.71	41455.57
630.86	41448.55
631.01	40781.49
631.16	41640.47
631.31	41282.37
631.46	40825.96
631.61	41551.53
631.76	41427.48
631.91	41471.95
632.06	41343.22
632.21	41397.06
632.36	41298.75
632.51	41045.97
632.66	41270.67
632.81	40935.97
632.96	41448.55
633.10	40830.65
633.25	40776.81
633.40	41270.67
633.55	41476.63
633.70	41104.49
633.85	40935.97
634.00	41081.08
634.15	41062.36
634.30	40921.93
634.45	40994.48
634.60	40959.38
634.75	41015.55
634.90	40779.15
635.05	40807.24
635.19	40807.24
635.34	40980.44
635.49	40631.70
635.64	40961.72
635.79	40346.15
635.94	40350.84
636.09	40748.73
636.24	40280.62
636.39	40556.80
636.53	40517.01
636.68	40020.82
636.83	40357.86
636.98	40884.48
637.13	39964.65
637.28	40336.79
637.43	40444.46
637.57	40762.77
637.72	40156.57
637.87	40825.96
638.02	40297.00
638.17	40594.25
638.32	39887.41
638.46	40107.42
638.61	40016.14
638.76	39721.23
638.91	39859.32
639.06	39894.43
639.20	40095.72
639.35	40409.35
639.50	40123.80
639.65	40240.83
639.80	40179.98
639.94	40177.64
640.09	39875.71
640.24	39768.04
640.39	39749.32
640.54	39756.34
640.68	40020.82
640.83	39852.30
640.98	39761.02
641.13	39566.76
641.27	40013.80
641.42	39487.18
641.57	39861.66
641.72	39625.27
641.86	39210.99
642.01	39213.34
642.16	39416.96
642.31	38981.62
642.45	39566.76
642.60	39449.73
642.75	39367.81
642.90	39281.21
643.04	38899.70
643.19	39552.71
643.34	39187.59
643.48	39412.28
643.63	39515.26
643.78	39281.21
643.93	38883.32
644.07	38909.07
644.22	39051.84
644.37	38831.83
644.51	39007.37
644.66	39360.79
644.81	39264.83
644.95	39484.84
645.10	39477.82
645.25	39391.22
645.39	39407.60
645.54	39398.24
645.69	39431.01
645.83	39068.22
645.98	39009.71
646.13	38930.13
646.27	38974.60
646.42	39096.31
646.57	38831.83
646.71	38705.44
646.86	39108.01
647.00	39037.80
647.15	38801.40
647.30	38789.70
647.44	38593.09
647.59	38855.23
647.74	38726.50
647.88	38616.50
648.03	38583.73
648.17	38698.42
648.32	38438.62
648.47	38597.77
648.61	38171.80
648.76	38794.38
648.90	38782.68
649.05	38778.00
649.20	38817.78
649.34	38909.07
649.49	38422.23
649.63	38075.84
649.78	38220.95
649.92	38019.66
650.07	38621.18
650.21	38171.80
650.36	38632.88
650.51	38424.57
650.65	38609.48
650.80	38480.75
650.94	38361.38
651.09	38288.82
651.23	38330.95
651.38	38321.59
651.52	37954.13
651.67	38288.82
651.81	37748.16
651.96	37729.44
652.10	38022.00
652.25	37834.76
652.39	37958.81
652.54	37963.49
652.68	38108.60
652.83	37933.06
652.97	37951.79
653.12	37947.11
653.26	37926.04
653.41	37617.09
653.55	37483.68
653.70	37057.70
653.84	37991.58
653.99	37687.31
654.13	37771.57
654.27	37684.97
654.42	37574.96
654.56	37490.70
654.71	37874.55
654.85	37469.64
655.00	37633.47
655.14	37104.51
655.29	37137.28
655.43	37322.18
655.57	37221.54
655.72	36931.31
655.86	37158.34
656.01	37181.75
656.15	36933.65
656.30	36854.08
656.44	36741.73
656.58	37029.62
656.73	36800.24
656.87	36975.78
657.01	36547.47
657.16	36854.08
657.30	36495.97
657.45	36601.30
657.59	37053.02
657.73	36788.54
657.88	36851.73
658.02	36830.67
658.16	36931.31
658.31	36666.83
658.45	36961.74
658.60	36622.36
658.74	36891.52
658.88	36877.48
659.03	36472.57
659.17	36165.96
659.31	36275.96
659.46	35999.78
659.60	36472.57
659.74	36369.58
659.89	36231.49
660.03	36498.31
660.17	36521.72
660.32	36385.97
660.46	36879.82
660.60	36395.33
660.74	36353.20
660.89	36327.45
661.03	35826.58
661.17	36238.51
661.32	35564.44
661.46	35683.81
661.60	35211.02
661.74	35707.21
661.89	35531.67
662.03	35414.65
662.17	35337.41
662.31	35482.52
662.46	35515.29
662.60	35562.10
662.74	35391.24
662.88	35103.35
663.03	35620.61
663.17	35468.48
663.31	35292.94
663.45	35407.62
663.60	35201.66
663.74	34906.75
663.88	34932.50
664.02	34586.10
664.17	35180.59
664.31	34618.86
664.45	35126.76
664.59	35042.50
664.73	34906.75
664.88	34733.55
665.02	34567.37
665.16	34703.12
665.30	34639.93
665.44	34642.27
665.59	33895.64
665.73	34520.56
665.87	34590.78
666.01	34597.80
666.15	34026.71
666.29	34359.06
666.44	34249.06
666.58	34136.71
666.72	34108.63
666.86	34211.61
667.00	34497.16
667.14	34040.75
667.28	33635.84
667.43	33996.28
667.57	33727.12
667.71	33797.34
667.85	33734.14
667.99	33544.56
668.13	33855.85
668.27	33305.82
668.41	33443.91
668.56	33020.28
668.70	33488.38
668.84	33420.51
668.98	32809.63
669.12	33270.72
669.26	33354.97
669.40	32933.68
669.54	33198.16
669.68	33034.32
669.82	33116.24
669.96	32943.04
670.10	32561.53
670.25	33076.45
670.39	32917.29
670.53	32329.82
670.67	32402.38
670.81	33172.41
670.95	32652.81
671.09	32561.53
671.23	32999.21
671.37	32821.33
671.51	32046.62
671.65	32287.69
671.79	32222.16
671.93	31854.69
672.07	32301.73
672.21	32119.17
672.35	31798.52
672.49	31889.80
672.63	31779.79
672.77	31871.07
672.91	31920.23
673.05	31292.96
673.19	31400.63
673.33	31651.06
673.47	31337.43
673.61	31248.49
673.75	31138.49
673.89	30871.67
674.03	30682.08
674.17	31173.60
674.31	31037.84
674.45	30649.32
674.59	30848.26
674.73	31089.34
674.87	30794.43
675.01	30951.24
675.15	30916.14
675.29	30775.70
675.43	30539.31
675.56	30700.81
675.70	30335.68
675.84	30043.12
675.98	29493.09
676.12	30277.17
676.26	30064.18
676.40	29855.87
676.54	29935.45
676.68	29853.53
676.82	29179.46
676.96	29788.00
677.10	29521.18
677.23	29706.08
677.37	29427.56
677.51	29596.07
677.65	29333.93
677.79	29090.52
677.93	28641.14
678.07	28879.87
678.21	28952.43
678.34	28868.17
678.48	28505.38
678.62	28676.24
678.76	28360.27
678.90	28657.52
679.04	28329.84
679.18	28187.07
679.31	28273.67
679.45	27828.97
679.59	27840.67
679.73	27751.73
679.87	27985.79
680.00	28030.26
680.14	27569.17
680.28	27789.18
680.42	27473.21
680.56	27332.78
680.70	27180.64
680.83	27246.18
680.97	26829.56
681.11	26937.23
681.25	26960.63
681.39	26918.50
681.52	27049.57
681.66	26443.37
681.80	26738.28
681.94	26483.16
682.07	26518.27
682.21	26324.01
682.35	26071.23
682.49	26096.97
682.62	26810.84
682.76	26094.63
682.90	25935.48
683.04	26361.45
683.17	26068.89
683.31	26033.78
683.45	25977.61
683.59	25757.60
683.72	25528.22
683.86	25174.80
684.00	25600.78
684.13	25392.47
684.27	25593.76
684.41	25090.54
684.55	24802.66
684.68	24961.81
684.82	24615.41
684.96	24966.49
685.09	24924.36
685.23	24531.15
685.37	24196.46
685.50	24329.87
685.64	24318.17
685.78	24395.40
685.91	24334.55
686.05	24126.24
686.19	23880.49
686.32	24030.28
686.46	23662.82
686.60	23620.69
686.73	23679.20
686.87	23419.40
687.01	23185.35
687.14	23260.24
687.28	22824.90
687.42	23260.24
687.55	22941.93
687.69	23122.15
687.82	23370.25
687.96	23096.41
688.10	22862.35
688.23	22647.02
688.37	22352.12
688.50	22490.21
688.64	22443.40
688.78	22581.49
688.91	22129.77
689.05	22223.39
689.18	21970.61
689.32	21799.75
689.46	22012.74
689.59	21851.24
689.73	21998.70
689.86	21661.66
690.00	21207.59
690.13	21851.24
690.27	21443.99
690.41	21324.62
690.54	21078.86
690.68	21106.95
690.81	21289.51
690.95	20929.07
691.08	21205.25
691.22	21102.27
691.35	21092.91
691.49	21048.44
691.62	20929.07
691.76	20816.72
691.89	20980.56
692.03	20685.65
692.16	20671.61
692.30	20315.85
692.43	20322.87
692.57	20299.47
692.70	20102.86
692.84	19974.13
692.97	20166.06
693.11	20072.43
693.24	19564.54
693.38	19690.93
693.51	19480.28
693.65	19534.11
693.78	19470.92
693.92	19346.87
694.05	19206.44
694.19	19290.70
694.32	19236.86
694.45	19337.51
694.59	19178.35
694.72	19037.92
694.86	18820.25
694.99	18853.02
695.13	18651.73
695.26	18380.23
695.39	18293.63
695.53	18466.83
695.66	18427.04
695.80	18436.40
695.93	18136.81
696.07	18242.14
696.20	18005.74
696.33	18104.04
696.47	17958.93
696.60	18352.14
696.73	17790.41
696.87	17671.04
697.00	17528.27
697.14	17755.30
697.27	17418.27
697.40	17411.25
697.54	17586.79
697.67	17469.76
697.80	17235.70
697.94	16933.78
698.07	16938.46
698.21	17104.64
698.34	16816.75
698.47	16807.39
698.61	16542.91
698.74	16915.05
698.87	16519.50
699.01	16432.90
699.14	16517.16
699.27	16308.85
699.40	16580.36
699.54	16315.87
699.67	16341.62
699.80	16203.53
699.94	16093.52
700.07	15948.41
700.20	15805.64
700.34	15946.07
700.47	15861.81
700.60	15674.57
700.73	15901.60
700.87	15496.69
701.00	15557.54
701.13	15356.25
701.26	15571.58
701.40	15492.01
701.53	15300.08
701.66	15264.97
701.79	15091.77
701.93	14902.19
702.06	14930.28
702.19	14878.79
702.32	14988.79
702.46	14944.32
702.59	14815.59
702.72	14743.03
702.85	14757.08
702.99	14663.46
703.12	14682.18
703.25	14321.74
703.38	14817.93
703.51	14417.70
703.65	14284.29
703.78	14352.16
703.91	13834.91
704.04	14298.33
704.17	13757.67
704.31	13884.06
704.44	13579.79
704.57	13439.36
704.70	13624.26
704.83	13631.28
704.96	13692.13
705.10	13624.26
705.23	13444.04
>>>>>End Processed Spectral Data<<<<<
