SpectraSuite Data File
++++++++++++++++++++++++++++++++++++
Date: Fri Oct 25 11:34:01 EDT 2013
User: price-jones
Dark Spectrum Present: No
Reference Spectrum Present: No
Number of Sampled Component Spectra: 1
Spectrometers: USB2+H05261
Integration Time (usec): 100000 (USB2+H05261)
Spectra Averaged: 1 (USB2+H05261)
Boxcar Smoothing: 0 (USB2+H05261)
Correct for Electrical Dark: No (USB2+H05261)
Strobe/Lamp Enabled: No (USB2+H05261)
Correct for Detector Non-linearity: No (USB2+H05261)
Correct for Stray Light: No (USB2+H05261)
Number of Pixels in Processed Spectrum: 2048
>>>>>Begin Processed Spectral Data<<<<<
365.73	278.52
365.92	278.52
366.12	278.52
366.32	227.03
366.52	156.82
366.72	184.90
366.91	152.13
367.11	168.52
367.31	161.50
367.51	184.90
367.70	133.41
367.90	168.52
368.10	191.92
368.30	114.69
368.49	159.16
368.69	222.35
368.89	175.54
369.09	222.35
369.28	187.24
369.48	142.77
369.68	210.65
369.87	252.78
370.07	243.42
370.27	294.91
370.47	358.10
370.66	486.83
370.86	498.53
371.06	521.94
371.25	643.65
371.45	557.05
371.65	610.88
371.84	477.47
372.04	550.03
372.24	538.32
372.44	582.79
372.63	601.52
372.83	578.11
373.03	596.84
373.22	608.54
373.42	554.71
373.62	608.54
373.81	653.01
374.01	688.12
374.21	664.71
374.40	741.95
374.60	648.33
374.79	554.71
374.99	627.26
375.19	678.76
375.38	631.94
375.58	692.80
375.78	610.88
375.97	683.44
376.17	695.14
376.37	683.44
376.56	671.73
376.76	627.26
376.95	648.33
377.15	685.78
377.35	678.76
377.54	744.29
377.74	690.46
377.93	620.24
378.13	648.33
378.33	713.86
378.52	692.80
378.72	784.08
378.91	748.97
379.11	606.20
379.31	781.74
379.50	631.94
379.70	699.82
379.89	699.82
380.09	725.57
380.28	725.57
380.48	713.86
380.68	699.82
380.87	683.44
381.07	706.84
381.26	809.83
381.46	800.46
381.65	800.46
381.85	755.99
382.04	777.06
382.24	819.19
382.43	723.23
382.63	727.91
382.83	763.01
383.02	746.63
383.22	816.85
383.41	767.70
383.61	791.10
383.80	798.12
384.00	788.76
384.19	812.17
384.39	835.57
384.58	786.42
384.78	751.31
384.97	835.57
385.17	807.48
385.36	880.04
385.56	931.53
385.75	830.89
385.95	835.57
386.14	800.46
386.34	802.80
386.53	842.59
386.72	908.13
386.92	851.96
387.11	866.00
387.31	894.08
387.50	870.68
387.70	774.72
387.89	990.05
388.09	891.74
388.28	828.55
388.48	926.85
388.67	910.47
388.86	933.87
389.06	868.34
389.25	961.96
389.45	945.58
389.64	980.68
389.84	978.34
390.03	966.64
390.22	1083.67
390.42	933.87
390.61	943.24
390.81	1034.52
391.00	1041.54
391.19	1025.15
391.39	1027.50
391.58	1050.90
391.78	1022.81
391.97	1062.60
392.16	1027.50
392.36	1074.31
392.55	1114.10
392.75	926.85
392.94	1036.86
393.13	1053.24
393.33	997.07
393.52	1114.10
393.71	1116.44
393.91	1123.46
394.10	1111.75
394.29	1107.07
394.49	1022.81
394.68	1036.86
394.88	1139.84
395.07	1142.18
395.26	1132.82
395.46	1088.35
395.65	1121.12
395.84	1153.88
396.04	1221.76
396.23	1156.22
396.42	1135.16
396.62	1231.12
396.81	1191.33
397.00	1217.08
397.19	1207.72
397.39	1245.16
397.58	1310.70
397.77	1179.63
397.97	1247.51
398.16	1249.85
398.35	1254.53
398.55	1210.06
398.74	1203.04
398.93	1242.82
399.12	1313.04
399.32	1369.21
399.51	1324.74
399.70	1366.87
399.90	1378.58
400.09	1343.47
400.28	1350.49
400.47	1355.17
400.67	1336.45
400.86	1390.28
401.05	1448.79
401.24	1495.60
401.44	1352.83
401.63	1416.02
401.82	1432.41
402.01	1455.81
402.21	1455.81
402.40	1507.30
402.59	1451.13
402.78	1500.28
402.97	1502.62
403.17	1528.37
403.36	1561.14
403.55	1547.09
403.74	1589.22
403.93	1596.25
404.13	1509.65
404.32	1523.69
404.51	1629.01
404.70	1626.67
404.89	1617.31
405.09	1631.35
405.28	1631.35
405.47	1720.29
405.66	1678.16
405.85	1659.44
406.05	1633.69
406.24	1727.32
406.43	1774.13
406.62	1832.64
406.81	1811.57
407.00	1771.79
407.20	1734.34
407.39	1762.42
407.58	1799.87
407.77	1844.34
407.96	1956.69
408.15	1846.68
408.34	1827.96
408.54	1837.32
408.73	1832.64
408.92	1881.79
409.11	1973.07
409.30	1863.07
409.49	1935.62
409.68	1968.39
409.87	2019.88
410.07	2050.31
410.26	2099.46
410.45	1968.39
410.64	2022.22
410.83	2122.87
411.02	2085.42
411.21	2092.44
411.40	2101.80
411.59	2165.00
411.78	2260.96
411.98	2052.65
412.17	2148.61
412.36	2167.34
412.55	2314.79
412.74	2382.67
412.93	2277.34
413.12	2312.45
413.31	2417.77
413.50	2399.05
413.69	2352.24
413.88	2469.27
414.07	2452.88
414.26	2415.43
414.45	2527.78
414.64	2466.92
414.83	2539.48
415.02	2644.81
415.22	2626.08
415.41	2527.78
415.60	2750.13
415.79	2628.42
415.98	2656.51
416.17	2715.02
416.36	2731.41
416.55	2698.64
416.74	2787.58
416.93	2752.47
417.12	2722.04
417.31	2789.92
417.50	2782.90
417.69	2822.69
417.88	2860.13
418.07	2963.12
418.26	3033.33
418.45	2977.16
418.64	3019.29
418.83	3023.97
419.02	3026.31
419.21	2965.46
419.39	3026.31
419.58	3159.72
419.77	2986.52
419.96	3138.66
420.15	3110.57
420.34	3103.55
420.53	3192.49
420.72	3171.43
420.91	3192.49
421.10	3241.64
421.29	3150.36
421.48	3136.32
421.67	3269.73
421.86	3159.72
422.05	3232.28
422.24	3375.05
422.43	3361.01
422.61	3194.83
422.80	3328.24
422.99	3339.94
423.18	3286.11
423.37	3426.54
423.56	3419.52
423.75	3375.05
423.94	3337.60
424.13	3126.96
424.32	3215.90
424.50	3344.63
424.69	3468.67
424.88	3421.86
425.07	3400.80
425.26	3382.07
425.45	3400.80
425.64	3325.90
425.83	3414.84
426.01	3550.59
426.20	3548.25
426.39	3375.05
426.58	3398.46
426.77	3492.08
426.96	3513.14
427.15	3440.59
427.33	3487.40
427.52	3581.02
427.71	3691.02
427.90	3527.19
428.09	3611.45
428.28	3508.46
428.46	3662.94
428.65	3651.24
428.84	3749.54
429.03	3824.44
429.22	3550.59
429.40	3646.55
429.59	3730.81
429.78	3550.59
429.97	3489.74
430.16	3662.94
430.34	3765.92
430.53	3850.18
430.72	3784.65
430.91	3838.48
431.10	3810.39
431.28	3782.31
431.47	3805.71
431.66	3843.16
431.85	3899.33
432.03	3953.16
432.22	4105.30
432.41	4021.04
432.60	4077.21
432.79	3875.93
432.97	3981.25
433.16	4079.55
433.35	4016.36
433.54	4126.36
433.72	4112.32
433.91	4163.81
434.10	4126.36
434.28	4180.20
434.47	4159.13
434.66	4194.24
434.85	4243.39
435.03	4168.49
435.22	4210.62
435.41	4365.10
435.59	4369.78
435.78	4353.40
435.97	4241.05
436.16	4421.27
436.34	4327.65
436.53	4372.12
436.72	4489.15
436.90	4334.67
437.09	4451.70
437.28	4414.25
437.46	4454.04
437.65	4475.10
437.84	4652.98
438.02	4542.98
438.21	4468.08
438.40	4486.81
438.58	4592.13
438.77	4873.00
438.96	4542.98
439.14	4711.50
439.33	4968.96
439.52	4835.55
439.70	4858.95
439.89	4779.37
440.08	5025.13
440.26	4875.34
440.45	4933.85
440.63	4994.70
440.82	5214.71
441.01	5043.85
441.19	4863.63
441.38	5219.39
441.57	5228.76
441.75	5247.48
441.94	5366.85
442.12	5219.39
442.31	5327.06
442.50	5313.02
442.68	5270.89
442.87	5387.91
443.05	5378.55
443.24	5582.18
443.43	5530.69
443.61	5441.75
443.80	5572.82
443.98	5474.51
444.17	5259.18
444.35	5607.92
444.54	5722.61
444.73	5561.11
444.91	5722.61
445.10	5614.95
445.28	5612.60
445.47	5554.09
445.65	5448.77
445.84	5621.97
446.02	5668.78
446.21	5612.60
446.39	5558.77
446.58	5666.44
446.77	5774.10
446.95	5345.78
447.14	5795.17
447.32	5886.45
447.51	5731.97
447.69	5724.95
447.88	5657.07
448.06	5743.67
448.25	5713.25
448.43	5781.12
448.62	5834.96
448.80	5694.52
448.99	5888.79
449.17	5724.95
449.36	5731.97
449.54	5879.43
449.73	6008.16
449.91	5865.38
450.10	6232.85
450.28	6052.63
450.46	5937.94
450.65	6010.50
450.83	6017.52
451.02	6160.29
451.20	6129.86
451.39	6057.31
451.57	6038.58
451.76	6054.97
451.94	6066.67
452.13	6204.76
452.31	6263.27
452.49	6157.95
452.68	6080.71
452.86	6209.44
453.05	6239.87
453.23	6183.70
453.42	6256.25
453.60	6239.87
453.78	6347.53
453.97	6326.47
454.15	6352.21
454.34	6356.90
454.52	6420.09
454.70	6420.09
454.89	6513.71
455.07	6303.06
455.26	6361.58
455.44	6719.68
455.62	6633.08
455.81	6609.67
455.99	6752.45
456.17	6698.61
456.36	6782.87
456.54	6944.37
456.73	6857.77
456.91	6860.11
457.09	6897.56
457.28	7089.48
457.46	6918.62
457.64	6974.80
457.83	6986.50
458.01	6850.75
458.19	7070.76
458.38	7089.48
458.56	6958.41
458.74	7016.93
458.93	7033.31
459.11	7180.76
459.29	7215.87
459.48	7173.74
459.66	7274.38
459.84	7321.20
460.03	7248.64
460.21	7272.04
460.39	7222.89
460.57	7328.22
460.76	7452.27
460.94	7393.75
461.12	7393.75
461.31	7463.97
461.49	7417.16
461.67	7346.94
461.85	7627.81
462.04	7569.29
462.22	7843.14
462.40	7779.94
462.59	7569.29
462.77	7517.80
462.95	7683.98
463.13	7632.49
463.32	7803.35
463.50	7871.22
463.68	7864.20
463.86	7878.24
464.05	7777.60
464.23	7899.31
464.41	7950.80
464.59	7761.22
464.78	7889.95
464.96	8018.68
465.14	7896.97
465.32	7932.08
465.50	8035.06
465.69	8126.34
465.87	8013.99
466.05	7971.86
466.23	8093.57
466.41	8039.74
466.60	8044.42
466.78	8011.65
466.96	8147.40
467.14	8065.49
467.32	8163.79
467.51	8196.56
467.69	8191.88
467.87	8271.45
468.05	8250.39
468.23	8205.92
468.41	8229.32
468.60	8280.82
468.78	8428.27
468.96	8336.99
469.14	8465.72
469.32	8435.29
469.50	8339.33
469.69	8446.99
469.87	8695.09
470.05	8564.02
470.23	8552.32
470.41	8650.62
470.59	8814.46
470.77	8816.80
470.95	8741.90
471.14	9013.40
471.32	8718.50
471.50	8926.80
471.68	8945.53
471.86	8908.08
472.04	9088.30
472.22	9282.56
472.40	9055.53
472.58	9020.42
472.77	9238.09
472.95	9207.67
473.13	9579.81
473.31	9397.25
473.49	9202.99
473.67	9451.08
473.85	9467.47
474.03	9542.36
474.21	9610.24
474.39	9589.17
474.57	9593.86
474.75	9757.69
474.93	9797.48
475.12	9966.00
475.30	9888.76
475.48	9783.44
475.66	10038.56
475.84	9914.51
476.02	10244.52
476.20	10150.90
476.38	10298.36
476.56	10373.25
476.74	10590.92
476.92	10345.17
477.10	10305.38
477.28	10614.33
477.46	10338.15
477.64	10457.51
477.82	10691.57
478.00	10824.98
478.18	10747.74
478.36	10986.47
478.54	11180.74
478.72	11070.73
478.90	11159.67
479.08	11372.66
479.26	11431.18
479.44	11468.62
479.62	11566.93
479.80	11604.38
479.98	11765.87
480.16	12189.51
480.34	11927.37
480.52	12006.95
480.70	12100.57
480.88	12084.19
481.06	12100.57
481.24	12233.98
481.41	12744.22
481.59	12482.08
481.77	12676.34
481.95	12748.90
482.13	12924.44
482.31	12713.79
482.49	13114.02
482.67	13078.91
482.85	13249.77
483.03	13422.97
483.21	13497.87
483.39	13542.34
483.57	13275.52
483.74	13722.56
483.92	13862.99
484.10	13907.46
484.28	13937.89
484.46	14185.99
484.64	14370.89
484.82	14270.25
485.00	14478.55
485.18	14583.88
485.35	14700.90
485.53	14794.53
485.71	14927.94
485.89	15150.29
486.07	14970.07
486.25	15323.49
486.43	15255.61
486.61	15578.61
486.78	15456.90
486.96	15822.02
487.14	15768.19
487.32	15758.83
487.50	16077.14
487.68	16334.60
487.85	16341.62
488.03	16662.27
488.21	16545.25
488.39	16652.91
488.57	16767.60
488.75	16903.35
488.92	17062.51
489.10	17270.81
489.28	17331.67
489.46	17422.95
489.64	17362.09
489.81	17980.00
489.99	18029.15
490.17	18122.77
490.35	18136.81
490.53	18242.14
490.70	18469.17
490.88	18420.02
491.06	18272.56
491.24	18604.92
491.41	18771.10
491.59	19056.64
491.77	18829.61
491.95	19126.86
492.13	19484.96
492.30	19618.37
492.48	19218.14
492.66	19669.86
492.84	19543.47
493.01	20044.35
493.19	20011.58
493.37	19896.89
493.54	20126.27
493.72	20177.76
493.90	20093.50
494.08	20409.47
494.25	20641.18
494.43	20762.89
494.61	21099.93
494.79	20856.51
494.96	21099.93
495.14	21050.78
495.32	21436.97
495.49	21586.76
495.67	20973.54
495.85	21703.79
496.02	21724.85
496.20	22092.32
496.38	22031.46
496.55	22089.98
496.73	22890.44
496.91	22295.94
497.09	22541.70
497.26	22621.28
497.44	22504.25
497.62	22878.74
497.79	22974.70
497.97	23009.81
498.14	23075.34
498.32	23393.65
498.50	23662.82
498.67	23578.56
498.85	23335.14
499.03	23866.44
499.20	23817.29
499.38	23709.63
499.56	23896.87
499.73	23929.64
499.91	24128.58
500.08	24390.72
500.26	24224.54
500.44	24229.23
500.61	24187.10
500.79	24526.47
500.97	24982.88
501.14	24971.18
501.32	24971.18
501.49	24819.04
501.67	25181.82
501.84	24994.58
502.02	24802.66
502.20	25411.20
502.37	25373.75
502.55	25249.70
502.72	25727.17
502.90	25474.39
503.07	25273.10
503.25	25750.57
503.43	25771.64
503.60	25853.56
503.78	25806.75
503.95	26092.29
504.13	25862.92
504.30	26548.70
504.48	26621.25
504.65	26162.51
504.83	26466.78
505.01	26588.49
505.18	26455.08
505.36	27030.85
505.53	26923.18
505.71	26995.74
505.88	26965.31
506.06	26616.57
506.23	27491.93
506.41	27206.39
506.58	27229.79
506.76	27410.01
506.93	27758.75
507.11	27800.88
507.28	27487.25
507.46	27796.20
507.63	27620.66
507.81	28379.00
507.98	27660.45
508.16	27887.48
508.33	28301.76
508.50	28191.75
508.68	28339.21
508.85	28601.35
509.03	28727.74
509.20	28680.92
509.38	29020.30
509.55	28713.69
509.73	28985.19
509.90	29111.58
510.08	28723.05
510.25	29205.20
510.42	29270.74
510.60	29528.20
510.77	29268.40
510.95	29567.99
511.12	29364.36
511.30	29207.55
511.47	29582.03
511.64	29645.23
511.82	30000.99
511.99	30167.16
512.17	30253.76
512.34	29743.53
512.51	30520.59
512.69	30277.17
512.86	30237.38
513.04	30270.15
513.21	30700.81
513.38	30705.49
513.56	30836.56
513.73	30551.01
513.90	30529.95
514.08	30773.36
514.25	30796.77
514.43	31051.89
514.60	31402.97
514.77	31189.98
514.95	31187.64
515.12	31377.22
515.29	31601.91
515.47	31857.03
515.64	31421.69
515.81	31374.88
515.99	31697.88
516.16	31910.86
516.33	31723.62
516.51	32126.19
516.68	31866.39
516.85	32395.35
517.03	32353.23
517.20	32107.47
517.37	32102.79
517.54	32339.18
517.72	32046.62
517.89	32556.85
518.06	32243.22
518.24	32371.95
518.41	32299.39
518.58	32594.30
518.75	32610.68
518.93	33102.20
519.10	32542.81
519.27	32905.59
519.45	33062.41
519.62	33219.22
519.79	33640.52
519.96	33181.77
520.14	33326.89
520.31	33106.88
520.48	33785.63
520.65	33846.49
520.83	33951.81
521.00	33926.07
521.17	33883.94
521.34	33804.36
521.52	34328.64
521.69	33921.38
521.86	33923.72
522.03	34492.47
522.20	34543.97
522.38	34501.84
522.55	34345.02
522.72	34485.45
522.89	34553.33
523.07	35136.12
523.24	35035.48
523.41	34749.93
523.58	35131.44
523.75	35112.72
523.92	34909.09
524.10	34824.83
524.27	34995.69
524.44	35016.75
524.61	35065.91
524.78	35374.86
524.96	35597.21
525.13	35744.66
525.30	35445.07
525.47	35784.45
525.64	35360.81
525.81	35908.50
525.98	35749.34
526.16	35391.24
526.33	35632.32
526.50	35646.36
526.67	35470.82
526.84	35730.62
527.01	36257.24
527.18	36053.61
527.36	36524.06
527.53	35992.76
527.70	36364.90
527.87	36605.98
528.04	36666.83
528.21	36299.37
528.38	36327.45
528.55	36364.90
528.72	36685.56
528.89	37057.70
529.07	36697.26
529.24	36130.85
529.41	37017.91
529.58	36989.83
529.75	37081.11
529.92	37242.60
530.09	37469.64
530.26	36708.96
530.43	37322.18
530.60	37127.92
530.77	36992.17
530.94	37275.37
531.11	37251.97
531.28	37062.38
531.46	37624.11
531.63	37720.07
531.80	37528.15
531.97	37347.93
532.14	37731.78
532.31	37378.36
532.48	38061.79
532.65	37921.36
532.82	38169.46
532.99	37951.79
533.16	37823.06
533.33	38347.34
533.50	38298.19
533.67	37617.09
533.84	37858.17
534.01	38466.70
534.18	38169.46
534.35	38520.54
534.52	38340.32
534.69	39054.18
534.86	38864.60
535.03	38513.52
535.20	38614.16
535.37	38534.58
535.54	38799.06
535.71	38787.36
535.88	39058.86
536.05	39164.18
536.22	39021.41
536.38	39414.62
536.55	39316.32
536.72	38831.83
536.89	39086.95
537.06	39388.88
537.23	39402.92
537.40	38906.73
537.57	39129.08
537.74	39388.88
537.91	39639.31
538.08	39695.49
538.25	39358.45
538.42	40039.54
538.59	39882.73
538.75	39913.16
538.92	39723.57
539.09	40257.21
539.26	39842.94
539.43	39882.73
539.60	39990.39
539.77	39962.31
539.94	40397.65
540.11	40264.24
540.28	40343.81
540.44	40243.17
540.61	39739.96
540.78	40233.81
540.95	40353.18
541.12	40264.24
541.29	40282.96
541.46	40072.31
541.62	40395.31
541.79	40540.42
541.96	40414.03
542.13	40446.80
542.30	40509.99
542.47	40505.31
542.63	40484.25
542.80	40708.94
542.97	41298.75
543.14	41542.17
543.31	41134.92
543.48	40917.25
543.64	41577.28
543.81	41074.06
543.98	41474.29
544.15	41048.32
544.32	41549.19
544.48	42061.77
544.65	41464.93
544.82	42000.91
544.99	41478.97
545.16	41586.64
545.32	41834.74
545.49	41645.15
545.66	42036.02
545.83	41893.25
546.00	42436.25
546.16	41879.21
546.33	41418.12
546.50	41682.60
546.67	42204.54
546.83	41518.76
547.00	42068.79
547.17	41691.96
547.34	41663.88
547.50	42447.96
547.67	42595.41
547.84	42241.99
548.00	42649.24
548.17	42602.43
548.34	42440.93
548.51	42983.94
548.67	42794.36
548.84	42377.74
549.01	42550.94
549.18	42747.54
549.34	43077.56
549.51	42981.60
549.68	43016.71
549.84	43206.29
550.01	43313.95
550.18	43171.18
550.34	43049.47
550.51	43159.48
550.68	43009.68
550.84	42808.40
551.01	43075.22
551.18	43232.04
551.34	43072.88
551.51	43468.43
551.68	43133.73
551.84	43171.18
552.01	42969.90
552.18	43491.83
552.34	43161.82
552.51	43873.34
552.68	43260.12
552.84	43068.20
553.01	43770.36
553.18	43838.23
553.34	43770.36
553.51	43421.62
553.67	43564.39
553.84	43454.39
554.01	43452.05
554.17	43758.66
554.34	43510.56
554.51	43723.55
554.67	44023.14
554.84	43936.54
555.00	43819.51
555.17	44018.46
555.33	44091.01
555.50	44179.95
555.67	43966.96
555.83	44282.94
556.00	44105.06
556.16	44444.43
556.33	44467.84
556.50	44629.34
556.66	44105.06
556.83	44313.36
556.99	44364.85
557.16	44399.96
557.32	44172.93
557.49	44921.90
557.65	44336.77
557.82	44662.10
557.98	44222.08
558.15	43924.83
558.32	44390.60
558.48	44446.77
558.65	44566.14
558.81	44692.53
558.98	44374.22
559.14	44343.79
559.31	44528.69
559.47	44591.89
559.64	44858.71
559.80	44577.84
559.97	44919.56
560.13	44636.36
560.30	44409.32
560.46	45322.13
560.63	44886.79
560.79	45155.96
560.96	44910.20
561.12	45146.59
561.29	44935.95
561.45	45319.79
561.61	45289.37
561.78	44926.58
561.94	44804.88
562.11	44835.30
562.27	45151.27
562.44	45432.14
562.60	45158.30
562.77	45282.34
562.93	45251.92
563.10	45511.72
563.26	45326.81
563.42	45338.52
563.59	45160.64
563.75	44987.44
563.92	45258.94
564.08	45275.32
564.24	45312.77
564.41	45371.28
564.57	45195.74
564.74	45013.18
564.90	45542.14
565.07	45441.50
565.23	45258.94
565.39	45488.31
565.56	45727.05
565.72	45301.07
565.88	45799.60
566.05	45605.34
566.21	45492.99
566.38	45511.72
566.54	45617.04
566.70	45811.31
566.87	45565.55
567.03	45280.00
567.19	45710.66
567.36	45610.02
567.52	45544.48
567.68	45708.32
567.85	45904.93
568.01	45846.41
568.17	45392.35
568.34	45867.48
568.50	45766.84
568.66	45743.43
568.83	45965.78
568.99	45933.01
569.15	45727.05
569.32	45394.69
569.48	45975.14
569.64	45808.96
569.81	45762.15
569.97	45799.60
570.13	46174.09
570.30	45727.05
570.46	46040.68
570.62	45991.53
570.78	45933.01
570.95	46155.36
571.11	46253.67
571.27	46071.10
571.43	45710.66
571.60	46227.92
571.76	45748.11
571.92	45647.47
572.09	45933.01
572.25	46040.68
572.41	45944.72
572.57	46073.45
572.74	46426.87
572.90	46377.72
573.06	46440.91
573.22	46190.47
573.38	46384.74
573.55	46253.67
573.71	46279.41
573.87	46501.76
574.03	45930.67
574.20	46576.66
574.36	46195.15
574.52	46527.51
574.68	46143.66
574.84	46417.50
575.01	46223.24
575.17	46469.00
575.33	46169.41
575.49	46197.49
575.65	46501.76
575.82	46368.35
575.98	46003.23
576.14	46843.48
576.30	46536.87
576.46	46356.65
576.62	46476.02
576.79	46211.54
576.95	46251.33
577.11	46274.73
577.27	46604.75
577.43	46005.57
577.59	46618.79
577.75	45879.18
577.92	45916.63
578.08	45904.93
578.24	46522.83
578.40	46855.18
578.56	46920.72
578.72	46478.36
578.88	46515.81
579.04	46719.43
579.21	46424.53
579.37	46548.57
579.53	47187.54
579.69	46050.04
579.85	46113.23
580.01	46471.34
580.17	46471.34
580.33	46569.64
580.49	46382.40
580.65	46047.70
580.82	46490.06
580.98	46740.50
581.14	46232.60
581.30	46696.03
581.46	46738.16
581.62	46738.16
581.78	46609.43
581.94	46590.70
582.10	46555.60
582.26	46890.29
582.42	46887.95
582.58	46595.38
582.74	46403.46
582.90	46534.53
583.06	46862.21
583.22	46632.83
583.38	46522.83
583.54	46600.07
583.70	46464.32
583.86	46555.60
584.02	46567.30
584.18	46822.42
584.34	46536.87
584.50	46902.00
584.66	47283.50
584.82	46852.84
584.98	47000.30
585.14	46916.04
585.30	46335.59
585.46	46553.26
585.62	46735.82
585.78	46810.71
585.94	46705.39
586.10	46651.56
586.26	46499.42
586.42	46373.03
586.58	46698.37
586.74	46845.82
586.90	46691.35
587.06	46733.48
587.22	47133.71
587.38	46490.06
587.54	47091.58
587.70	47246.05
587.86	46567.30
588.02	46492.40
588.18	46981.57
588.34	46838.80
588.49	46525.17
588.65	46677.30
588.81	46773.27
588.97	46745.18
589.13	46951.15
589.29	46541.55
589.45	46899.65
589.61	46983.91
589.77	46876.25
589.93	46754.54
590.08	47131.37
590.24	47084.56
590.40	47161.79
590.56	47498.83
590.72	47227.33
590.88	47531.60
591.04	47271.80
591.20	47433.30
591.35	47161.79
591.51	47367.76
591.67	47110.30
591.83	47320.95
591.99	47091.58
592.15	47587.77
592.31	47161.79
592.46	47590.11
592.62	47084.56
592.78	47688.42
592.94	47353.72
593.10	47608.84
593.26	47171.16
593.41	47510.53
593.57	47540.96
593.73	47054.13
593.89	47679.05
594.05	47414.57
594.20	47114.98
594.36	47812.46
594.52	47533.94
594.68	47646.29
594.84	47227.33
594.99	47583.09
595.15	47569.05
595.31	47601.82
595.47	47445.00
595.62	47365.42
595.78	47178.18
595.94	47442.66
596.10	47423.93
596.25	47800.76
596.41	47482.45
596.57	47154.77
596.73	47709.48
596.88	47632.24
597.04	47234.35
597.20	47552.66
597.36	47168.82
597.51	47292.86
597.67	47316.27
597.83	47587.77
597.99	47454.36
598.14	47323.29
598.30	47501.17
598.46	47770.33
598.61	47955.24
598.77	47363.08
598.93	47529.26
599.09	47583.09
599.24	47842.89
599.40	47833.53
599.56	47889.70
599.71	48371.85
599.87	47920.13
600.03	47690.76
600.18	47730.54
600.34	47372.44
600.50	47791.40
600.65	47594.79
600.81	48037.16
600.97	47955.24
601.12	48009.07
601.28	47927.15
601.44	47657.99
601.59	47910.77
601.75	47519.90
601.91	47875.66
602.06	47505.85
602.22	47540.96
602.37	47449.68
602.53	47833.53
602.69	47885.02
602.84	47615.86
603.00	47569.05
603.16	47690.76
603.31	47716.50
603.47	47938.85
603.62	47826.51
603.78	47620.54
603.94	47718.84
604.09	47538.62
604.25	47718.84
604.40	47730.54
604.56	47639.26
604.71	47880.34
604.87	47428.62
605.03	47309.25
605.18	47618.20
605.34	47318.61
605.49	47367.76
605.65	47718.84
605.80	47433.30
605.96	47517.56
606.12	47489.47
606.27	47550.32
606.43	47524.58
606.58	47625.22
606.74	47519.90
606.89	47665.01
607.05	47725.86
607.20	47716.50
607.36	47641.60
607.51	47210.95
607.67	47201.58
607.82	47201.58
607.98	47426.28
608.13	47468.40
608.29	47412.23
608.44	47601.82
608.60	47089.24
608.75	47400.53
608.91	47407.55
609.06	47136.05
609.22	47739.91
609.37	47346.70
609.53	47714.16
609.68	47353.72
609.84	47129.03
609.99	47763.31
610.15	47026.04
610.30	47358.40
610.46	47093.92
610.61	47239.03
610.76	47732.89
610.92	47103.28
611.07	47274.14
611.23	47360.74
611.38	47187.54
611.54	47178.18
611.69	47030.72
611.84	46848.16
612.00	46990.94
612.15	47103.28
612.31	47033.07
612.46	47037.75
612.62	46880.93
612.77	47122.01
612.92	47283.50
613.08	47253.08
613.23	47887.36
613.39	47264.78
613.54	46899.65
613.69	47173.50
613.85	46745.18
614.00	46887.95
614.15	47290.52
614.31	46646.88
614.46	47264.78
614.62	46607.09
614.77	46621.13
614.92	47042.43
615.08	47091.58
615.23	46899.65
615.38	46838.80
615.54	47049.45
615.69	46857.52
615.84	46696.03
616.00	46958.17
616.15	46796.67
616.30	47044.77
616.46	47161.79
616.61	46672.62
616.76	46871.57
616.92	46546.23
617.07	46628.15
617.22	46796.67
617.37	46344.95
617.53	46497.08
617.68	46880.93
617.83	46574.32
617.99	46684.33
618.14	46866.89
618.29	46534.53
618.45	45839.39
618.60	46368.35
618.75	46176.43
618.90	46536.87
619.06	46581.34
619.21	46319.20
619.36	46803.69
619.51	46555.60
619.67	46309.84
619.82	46333.24
619.97	46370.69
620.12	46082.81
620.28	46358.99
620.43	46349.63
620.58	46478.36
620.73	46747.52
620.89	46569.64
621.04	47014.34
621.19	46117.92
621.34	46571.98
621.49	46284.09
621.65	45947.06
621.80	46363.67
621.95	46305.16
622.10	46422.19
622.25	45841.73
622.41	46071.10
622.56	46108.55
622.71	46260.69
622.86	46021.95
623.01	45841.73
623.16	45963.44
623.32	45921.31
623.47	46115.58
623.62	45724.71
623.77	45961.10
623.92	45628.74
624.07	46066.42
624.23	45989.19
624.38	45979.82
624.53	45427.46
624.68	45455.54
624.83	45375.97
624.98	45544.48
625.13	45457.88
625.29	45556.19
625.44	45223.83
625.59	45729.39
625.74	45244.90
625.89	45191.06
626.04	45448.52
626.19	45874.50
626.34	45507.04
626.49	45432.14
626.65	45048.29
626.80	45595.98
626.95	44959.35
627.10	44931.26
627.25	45249.58
627.40	45324.47
627.55	45434.48
627.70	45092.76
627.85	45127.87
628.00	45495.33
628.15	45446.18
628.30	44732.32
628.45	44692.53
628.60	44406.98
628.76	45038.93
628.91	44753.38
629.06	44910.20
629.21	44524.01
629.36	44584.86
629.51	44626.99
629.66	45485.97
629.81	44741.68
629.96	44928.92
630.11	44905.52
630.26	44549.76
630.41	44442.09
630.56	44884.45
630.71	44931.26
630.86	44577.84
631.01	44308.68
631.16	44212.72
631.31	43981.01
631.46	44385.92
631.61	44837.64
631.76	44753.38
631.91	44442.09
632.06	45165.32
632.21	44821.26
632.36	44877.43
632.51	44395.28
632.66	44615.29
632.81	44666.78
632.96	44545.08
633.10	43917.81
633.25	44294.64
633.40	44545.08
633.55	44577.84
633.70	44327.41
633.85	43941.22
634.00	44053.56
634.15	44278.25
634.30	44165.91
634.45	43950.58
634.60	43962.28
634.75	44414.01
634.90	44280.60
635.05	44442.09
635.19	43543.33
635.34	44144.84
635.49	44156.55
635.64	44013.77
635.79	44273.57
635.94	43901.43
636.09	44179.95
636.24	44048.88
636.39	43583.12
636.53	43824.19
636.68	43751.63
636.83	43140.75
636.98	43618.22
637.13	43372.47
637.28	43309.27
637.43	43597.16
637.57	43587.80
637.72	43349.06
637.87	43503.54
638.02	43580.78
638.17	43618.22
638.32	43667.37
638.46	43299.91
638.61	43494.18
638.76	43524.60
638.91	43016.71
639.06	43145.44
639.20	42618.81
639.35	43019.05
639.50	43103.31
639.65	43505.88
639.80	43524.60
639.94	43005.00
640.09	42883.30
640.24	43178.20
640.39	42766.27
640.54	42925.42
640.68	42939.47
640.83	43325.66
640.98	42911.38
641.13	42916.06
641.27	42965.21
641.42	42831.80
641.57	42686.69
641.72	42955.85
641.86	42749.88
642.01	42918.40
642.16	42574.34
642.31	42433.91
642.45	43077.56
642.60	42487.74
642.75	42616.47
642.90	42995.64
643.04	42707.76
643.19	42890.32
643.34	42295.82
643.48	42260.71
643.63	42349.65
643.78	42553.28
643.93	42698.39
644.07	42342.63
644.22	42342.63
644.37	42403.49
644.51	42768.61
644.66	42263.05
644.81	42424.55
644.95	42532.22
645.10	42176.45
645.25	41874.52
645.39	42227.95
645.54	42094.53
645.69	42106.24
645.83	41808.99
645.98	41879.21
646.13	42078.15
646.27	42246.67
646.42	41940.06
646.57	42082.83
646.71	42302.84
646.86	42309.86
647.00	42447.96
647.15	42492.43
647.30	41820.69
647.44	41553.87
647.59	42045.38
647.74	41909.63
647.88	42272.42
648.03	42300.50
648.17	42298.16
648.32	42082.83
648.47	42279.44
648.61	41525.78
648.76	41916.65
648.90	41605.36
649.05	41661.54
649.20	41474.29
649.34	41841.76
649.49	42124.96
649.63	41820.69
649.78	41937.72
649.92	42012.62
650.07	42225.60
650.21	41766.86
650.36	41935.38
650.51	41825.37
650.65	41923.68
650.80	41722.39
650.94	41635.79
651.09	41453.23
651.23	41003.85
651.38	41151.30
651.52	41113.85
651.67	41022.57
651.81	41483.66
651.96	41240.24
652.10	40835.33
652.25	41006.19
652.39	41170.02
652.54	41130.23
652.68	41013.21
652.83	40837.67
652.97	41401.74
653.12	41368.97
653.26	40678.51
653.41	40872.78
653.55	41078.74
653.70	41251.94
653.84	41139.60
653.99	41626.43
654.13	40802.56
654.27	40781.49
654.42	40605.95
654.56	40718.30
654.71	40765.11
654.85	40966.40
655.00	40952.35
655.14	40648.08
655.29	40732.34
655.43	40774.47
655.57	40807.24
655.72	40526.38
655.86	40790.86
656.01	40737.02
656.15	40568.51
656.30	40062.95
656.44	40563.82
656.58	40734.68
656.73	40795.54
656.87	39510.58
657.01	40453.82
657.16	40627.02
657.30	40509.99
657.45	40346.15
657.59	40147.21
657.73	39894.43
657.88	39662.72
658.02	40411.69
658.16	40568.51
658.31	40292.32
658.45	39889.75
658.60	40172.96
658.74	40163.59
658.88	40156.57
659.03	40053.59
659.17	39957.63
659.31	39625.27
659.46	39641.65
659.60	39800.81
659.74	39974.01
659.89	39335.04
660.03	39419.30
660.17	39339.72
660.32	39749.32
660.46	39658.04
660.60	39222.70
660.74	39351.43
660.89	39388.88
661.03	39194.61
661.17	38923.11
661.32	38759.27
661.46	39400.58
661.60	38962.90
661.74	38948.85
661.89	38906.73
662.03	39276.53
662.17	38553.30
662.31	38815.44
662.46	38677.35
662.60	38775.66
662.74	38522.88
662.88	38260.74
663.03	38054.77
663.17	38239.67
663.31	38321.59
663.45	38251.38
663.60	38888.00
663.74	38394.15
663.88	38550.96
664.02	38396.49
664.17	38789.70
664.31	37879.23
664.45	38066.47
664.59	38099.24
664.73	38017.32
664.88	37797.31
665.02	37809.01
665.16	37944.76
665.30	37558.58
665.44	37830.08
665.59	37464.96
665.73	37724.75
665.87	37017.91
666.01	37785.61
666.15	37474.32
666.29	37170.05
666.44	37460.27
666.58	37198.13
666.72	37193.45
666.86	36950.04
667.00	37261.33
667.14	37198.13
667.28	37280.05
667.43	36996.85
667.57	36964.08
667.71	37057.70
667.85	37116.22
667.99	37116.22
668.13	36650.45
668.27	36524.06
668.41	36477.25
668.56	36364.90
668.70	36615.34
668.84	35786.79
668.98	36114.47
669.12	35735.30
669.26	35955.31
669.40	36229.15
669.54	36327.45
669.68	36182.34
669.82	35849.99
669.96	35264.85
670.10	35599.55
670.25	35730.62
670.39	35648.70
670.53	35931.90
670.67	35613.59
670.81	35913.18
670.95	35218.04
671.09	35154.85
671.23	35283.58
671.37	35384.22
671.51	35264.85
671.65	35297.62
671.79	35182.93
671.93	35016.75
672.07	35182.93
672.21	35096.33
672.35	34944.20
672.49	34796.74
672.63	34895.05
672.77	34565.03
672.91	34639.93
673.05	34330.98
673.19	33888.62
673.33	34094.58
673.47	34202.25
673.61	33921.38
673.75	33846.49
673.89	33486.04
674.03	33748.18
674.17	33525.83
674.31	33469.66
674.45	33345.61
674.59	33340.93
674.73	33820.74
674.87	33387.74
675.01	32830.69
675.15	32893.89
675.29	32463.23
675.43	33322.21
675.56	33050.70
675.70	33041.34
675.84	32652.81
675.98	31693.19
676.12	32587.28
676.26	33020.28
676.40	32198.75
676.54	32051.30
676.68	32517.06
676.82	31793.84
676.96	32339.18
677.10	32140.24
677.23	31756.39
677.37	32009.17
677.51	31276.58
677.65	31651.06
677.79	31103.38
677.93	31587.87
678.07	31665.11
678.21	31204.02
678.34	31414.67
678.48	30925.50
678.62	30932.52
678.76	30761.66
678.90	30621.23
679.04	31084.65
679.18	30979.33
679.31	30532.29
679.45	30284.19
679.59	30354.41
679.73	30202.27
679.87	30195.25
680.00	30017.37
680.14	30263.13
680.28	30274.83
680.42	29820.77
680.56	29699.06
680.70	29675.65
680.83	29139.67
680.97	29628.84
681.11	29507.13
681.25	29165.42
681.39	29022.64
681.52	29142.01
681.66	28807.31
681.80	28343.89
681.94	28418.78
682.07	28301.76
682.21	28151.96
682.35	28489.00
682.49	28816.68
682.62	28201.11
682.76	28327.50
682.90	28184.73
683.04	27728.33
683.17	27999.83
683.31	27749.39
683.45	27798.54
683.59	27599.60
683.72	27201.71
683.86	27489.59
684.00	27152.55
684.13	27124.47
684.27	26951.27
684.41	27042.55
684.55	26799.13
684.68	26712.53
684.82	26611.89
684.96	26408.26
685.09	26459.76
685.23	26363.79
685.37	26398.90
685.50	26955.95
685.64	26361.45
685.78	25881.64
685.91	25907.39
686.05	25586.74
686.19	25694.40
686.32	25575.03
686.46	25340.98
686.60	24861.17
686.73	25502.48
686.87	25359.70
687.01	25380.77
687.14	25170.12
687.28	24917.34
687.42	24975.86
687.55	24606.05
687.69	25029.69
687.82	24566.26
687.96	24566.26
688.10	24559.24
688.23	24285.40
688.37	24283.06
688.50	24638.82
688.64	24346.25
688.78	23840.70
688.91	23826.65
689.05	23847.72
689.18	23625.37
689.32	23346.84
689.46	23379.61
689.59	23300.03
689.73	23800.91
689.86	23379.61
690.00	23491.96
690.13	23419.40
690.27	23309.40
690.41	22981.72
690.54	22588.51
690.68	22684.47
690.81	22576.81
690.95	22546.38
691.08	22335.73
691.22	22403.61
691.35	22167.21
691.49	22394.25
691.62	22485.53
691.76	22108.70
691.89	21811.45
692.03	21727.19
692.16	21420.58
692.30	21706.13
692.43	21671.02
692.57	21259.09
692.70	21317.60
692.84	20947.79
692.97	20964.18
693.11	21319.94
693.24	20767.57
693.38	21116.31
693.51	20514.80
693.65	20697.36
693.78	20463.30
693.92	20297.13
694.05	20046.69
694.19	20266.70
694.32	20240.95
694.45	20236.27
694.59	20414.15
694.72	20189.46
694.86	19997.54
694.99	19917.96
695.13	19693.27
695.26	19351.55
695.39	19583.26
695.53	19428.79
695.66	19424.11
695.80	19323.46
695.93	19316.44
696.07	19145.58
696.20	18724.29
696.33	18696.20
696.47	18415.34
696.60	18759.39
696.73	18967.70
696.87	18630.66
697.00	18663.43
697.14	18679.82
697.27	18574.49
697.40	18558.11
697.54	18127.45
697.67	18104.04
697.80	18394.27
697.94	17664.02
698.07	17722.54
698.21	17692.11
698.34	17757.64
698.47	17493.16
698.61	17130.38
698.74	17301.24
698.87	17184.21
699.01	17123.36
699.14	17500.19
699.27	17179.53
699.40	17163.15
699.54	16929.09
699.67	17029.74
699.80	16816.75
699.94	16746.53
700.07	16760.58
700.20	16800.37
700.34	16528.86
700.47	16336.94
700.60	16549.93
700.73	16350.98
700.87	16329.92
701.00	16105.23
701.13	16095.86
701.26	15782.23
701.40	16147.36
701.53	15751.81
701.66	15950.75
701.79	15559.88
701.93	15503.71
702.06	15431.15
702.19	15358.60
702.32	15461.58
702.46	15515.41
702.59	15379.66
702.72	15580.95
702.85	15056.67
702.99	15473.28
703.12	14813.25
703.25	14675.16
703.38	14693.88
703.51	14572.18
703.65	14511.32
703.78	14366.21
703.91	14298.33
704.04	14232.80
704.17	14190.67
704.31	14214.07
704.44	14307.69
704.57	14068.96
704.70	14207.05
704.83	14108.75
704.96	13767.03
705.10	13518.93
705.23	13729.58
>>>>>End Processed Spectral Data<<<<<
