SpectraSuite Data File
++++++++++++++++++++++++++++++++++++
Date: Fri Oct 25 10:43:14 EDT 2013
User: price-jones
Dark Spectrum Present: No
Reference Spectrum Present: No
Number of Sampled Component Spectra: 1
Spectrometers: USB2+H05261
Integration Time (usec): 100000 (USB2+H05261)
Spectra Averaged: 1 (USB2+H05261)
Boxcar Smoothing: 0 (USB2+H05261)
Correct for Electrical Dark: No (USB2+H05261)
Strobe/Lamp Enabled: No (USB2+H05261)
Correct for Detector Non-linearity: No (USB2+H05261)
Correct for Stray Light: No (USB2+H05261)
Number of Pixels in Processed Spectrum: 2048
>>>>>Begin Processed Spectral Data<<<<<
365.73	121.71
365.92	121.71
366.12	121.71
366.32	37.45
366.52	0.00
366.72	46.81
366.91	0.00
367.11	18.72
367.31	0.00
367.51	7.02
367.70	0.00
367.90	44.47
368.10	0.00
368.30	14.04
368.49	77.24
368.69	112.35
368.89	0.00
369.09	63.19
369.28	58.51
369.48	98.30
369.68	37.45
369.87	23.41
370.07	102.98
370.27	168.52
370.47	142.77
370.66	313.63
370.86	386.19
371.06	447.04
371.25	463.43
371.45	503.22
371.65	433.00
371.84	442.36
372.04	491.51
372.24	543.00
372.44	411.93
372.63	449.38
372.83	447.04
373.03	526.62
373.22	491.51
373.42	587.47
373.62	503.22
373.81	580.45
374.01	512.58
374.21	550.03
374.40	531.30
374.60	636.63
374.79	564.07
374.99	552.37
375.19	571.09
375.38	514.92
375.58	629.60
375.78	601.52
375.97	683.44
376.17	671.73
376.37	617.90
376.56	540.66
376.76	531.30
376.95	624.92
377.15	662.37
377.35	636.63
377.54	702.16
377.74	688.12
377.93	617.90
378.13	699.82
378.33	681.10
378.52	606.20
378.72	662.37
378.91	676.41
379.11	615.56
379.31	674.07
379.50	681.10
379.70	636.63
379.89	653.01
380.09	690.46
380.28	730.25
380.48	692.80
380.68	641.31
380.87	704.50
381.07	713.86
381.26	777.06
381.46	699.82
381.65	760.67
381.85	709.18
382.04	734.93
382.24	664.71
382.43	697.48
382.63	718.54
382.83	648.33
383.02	744.29
383.22	744.29
383.41	716.20
383.61	779.40
383.80	753.65
384.00	744.29
384.19	772.38
384.39	732.59
384.58	805.14
384.78	758.33
384.97	781.74
385.17	842.59
385.36	741.95
385.56	814.51
385.75	746.63
385.95	765.36
386.14	861.32
386.34	758.33
386.53	919.83
386.72	844.93
386.92	877.70
387.11	873.02
387.31	863.66
387.50	819.19
387.70	840.25
387.89	880.04
388.09	844.93
388.28	931.53
388.48	830.89
388.67	959.62
388.86	959.62
389.06	973.66
389.25	976.00
389.45	929.19
389.64	973.66
389.84	1055.58
390.03	987.71
390.22	943.24
390.42	1001.75
390.61	1022.81
390.81	1064.94
391.00	1069.62
391.19	1041.54
391.39	997.07
391.58	1015.79
391.78	997.07
391.97	950.26
392.16	1041.54
392.36	1055.58
392.55	1062.60
392.75	940.90
392.94	1053.24
393.13	1022.81
393.33	1029.84
393.52	1088.35
393.71	1146.86
393.91	1102.39
394.10	1179.63
394.29	1146.86
394.49	1100.05
394.68	1081.33
394.88	1135.16
395.07	1280.27
395.26	1268.57
395.46	1238.14
395.65	1341.13
395.84	1196.01
396.04	1240.48
396.23	1186.65
396.42	1086.01
396.62	1177.29
396.81	1107.07
397.00	1193.67
397.19	1191.33
397.39	1390.28
397.58	1373.89
397.77	1413.68
397.97	1373.89
398.16	1373.89
398.35	1418.36
398.55	1462.83
398.74	1490.92
398.93	1537.73
399.12	1462.83
399.32	1540.07
399.51	1399.64
399.70	1509.65
399.90	1598.59
400.09	1570.50
400.28	1570.50
400.47	1547.09
400.67	1584.54
400.86	1558.80
401.05	1715.61
401.24	1589.22
401.44	1720.29
401.63	1682.85
401.82	1790.51
402.01	1685.19
402.21	1689.87
402.40	1722.63
402.59	1722.63
402.78	1727.32
402.97	1736.68
403.17	1797.53
403.36	1769.44
403.55	1870.09
403.74	1907.54
403.93	1895.83
404.13	1877.11
404.32	1912.22
404.51	1867.75
404.70	1746.04
404.89	1816.26
405.09	1998.82
405.28	2057.33
405.47	1886.47
405.66	2022.22
405.85	1886.47
406.05	1886.47
406.24	2010.52
406.43	2040.95
406.62	1989.46
406.81	2022.22
407.00	2064.35
407.20	2085.42
407.39	2036.27
407.58	2071.37
407.77	2160.31
407.96	2188.40
408.15	2188.40
408.34	2218.83
408.54	2193.08
408.73	2242.23
408.92	2363.94
409.11	2380.32
409.30	2321.81
409.49	2260.96
409.68	2176.70
409.87	2293.72
410.07	2277.34
410.26	2434.16
410.45	2410.75
410.64	2392.03
410.83	2466.92
411.02	2497.35
411.21	2558.21
411.40	2626.08
411.59	2644.81
411.78	2541.82
411.98	2616.72
412.17	2679.91
412.36	2698.64
412.55	2729.06
412.74	2806.30
412.93	2609.70
413.12	2614.38
413.31	2806.30
413.50	2815.66
413.69	2855.45
413.88	2956.10
414.07	2878.86
414.26	3068.44
414.45	3002.91
414.64	2904.60
414.83	3000.57
415.02	3094.19
415.22	3077.80
415.41	3045.04
415.60	3052.06
415.79	3251.00
415.98	3318.88
416.17	3197.17
416.36	3274.41
416.55	3171.43
416.74	3337.60
416.93	3157.38
417.12	3260.37
417.31	3248.66
417.50	3370.37
417.69	3417.18
417.88	3536.55
418.07	3372.71
418.26	3288.45
418.45	3531.87
418.64	3585.70
418.83	3482.72
419.02	3463.99
419.21	3599.74
419.39	3566.98
419.58	3550.59
419.77	3585.70
419.96	3623.15
420.15	3765.92
420.34	3726.13
420.53	3691.02
420.72	3789.33
420.91	3913.38
421.10	3805.71
421.29	3712.09
421.48	3782.31
421.67	3772.94
421.86	3730.81
422.05	3756.56
422.24	3709.75
422.43	3932.10
422.61	3812.73
422.80	3920.40
422.99	3889.97
423.18	3955.51
423.37	4182.54
423.56	4032.74
423.75	3953.16
423.94	3932.10
424.13	3583.36
424.32	3714.43
424.50	3999.98
424.69	4079.55
424.88	4102.96
425.07	3850.18
425.26	4007.00
425.45	3852.52
425.64	3838.48
425.83	3918.06
426.01	3847.84
426.20	3960.19
426.39	4007.00
426.58	3899.33
426.77	3815.07
426.96	3974.23
427.15	4065.51
427.33	3943.80
427.52	4086.58
427.71	4187.22
427.90	4077.21
428.09	4100.62
428.28	4067.85
428.46	4100.62
428.65	4145.09
428.84	4215.30
429.03	4400.21
429.22	4098.28
429.40	4156.79
429.59	4102.96
429.78	3775.28
429.97	3866.56
430.16	3967.21
430.34	4124.02
430.53	4095.94
430.72	4196.58
430.91	4210.62
431.10	4290.20
431.28	4608.51
431.47	4772.35
431.66	4603.83
431.85	4535.96
432.03	4627.24
432.22	4585.11
432.41	4456.38
432.60	4585.11
432.79	4723.20
432.97	4758.31
433.16	4737.24
433.35	4622.56
433.54	4587.45
433.72	4547.66
433.91	4760.65
434.10	4709.16
434.28	4777.03
434.47	4716.18
434.66	4873.00
434.85	4844.91
435.03	4929.17
435.22	5015.77
435.41	4975.98
435.59	5013.43
435.78	5114.07
435.97	5210.03
436.16	5025.13
436.34	5053.22
436.53	5055.56
436.72	5139.82
436.90	5116.41
437.09	5130.45
437.28	5128.11
437.46	5210.03
437.65	5195.99
437.84	5195.99
438.02	5135.14
438.21	5186.63
438.40	5015.77
438.58	5336.42
438.77	5355.15
438.96	5554.09
439.14	5530.69
439.33	5631.33
439.52	5671.12
439.70	5486.22
439.89	5614.95
440.08	5612.60
440.26	5853.68
440.45	5804.53
440.63	5671.12
440.82	5982.41
441.01	5886.45
441.19	5888.79
441.38	6141.57
441.57	5902.83
441.75	6214.12
441.94	6204.76
442.12	6387.32
442.31	6448.18
442.50	6410.73
442.68	6286.68
442.87	6392.00
443.05	6296.04
443.24	6368.60
443.43	6352.21
443.61	6370.94
443.80	6579.25
443.98	6239.87
444.17	6258.59
444.35	6492.65
444.54	6600.31
444.73	6424.77
444.91	6431.79
445.10	6569.88
445.28	6422.43
445.47	6518.39
445.65	6569.88
445.84	6417.75
446.02	6567.54
446.21	6616.69
446.39	6324.13
446.58	6644.78
446.77	6572.22
446.95	6614.35
447.14	6633.08
447.32	6820.32
447.51	6602.65
447.69	6686.91
447.88	6609.67
448.06	6616.69
448.25	6621.38
448.43	6759.47
448.62	6621.38
448.80	6675.21
448.99	6801.60
449.17	6801.60
449.36	6820.32
449.54	7054.37
449.73	7030.97
449.91	7073.10
450.10	7089.48
450.28	7248.64
450.46	7166.72
450.65	7052.03
450.83	7077.78
451.02	7087.14
451.20	7353.96
451.39	7173.74
451.57	7204.17
451.76	7328.22
451.94	7253.32
452.13	7227.57
452.31	7180.76
452.49	7075.44
452.68	7143.32
452.86	7344.60
453.05	7225.23
453.23	7272.04
453.42	7410.14
453.60	7295.45
453.78	7283.75
453.97	7176.08
454.15	7314.17
454.34	7321.20
454.52	7323.54
454.70	7295.45
454.89	7566.95
455.07	7279.07
455.26	7665.25
455.44	7777.60
455.62	7712.07
455.81	7789.30
455.99	7831.43
456.17	7602.06
456.36	7911.01
456.54	7819.73
456.73	7953.14
456.91	8166.13
457.09	8124.00
457.28	8161.45
457.46	7978.89
457.64	8072.51
457.83	8051.44
458.01	7964.84
458.19	8271.45
458.38	8063.15
458.56	8243.37
458.74	8205.92
458.93	8067.83
459.11	8203.58
459.29	8205.92
459.48	8308.90
459.66	8100.59
459.84	8163.79
460.03	8388.48
460.21	8369.76
460.39	8636.58
460.57	8334.65
460.76	8741.90
460.94	8652.96
461.12	8498.49
461.31	8627.21
461.49	8711.47
461.67	8662.32
461.85	8777.01
462.04	8557.00
462.22	9146.81
462.40	8842.54
462.59	8844.88
462.77	8910.42
462.95	8973.61
463.13	8950.21
463.32	8777.01
463.50	9149.15
463.68	9025.11
463.86	9043.83
464.05	8779.35
464.23	8898.72
464.41	8865.95
464.59	8879.99
464.78	9036.81
464.96	9050.85
465.14	8971.27
465.32	9076.60
465.50	9186.60
465.69	9137.45
465.87	8968.93
466.05	9111.71
466.23	9039.15
466.41	9018.08
466.60	9303.63
466.78	9107.02
466.96	9135.11
467.14	9217.03
467.32	9401.93
467.51	9350.44
467.69	9158.52
467.87	9373.85
468.05	9420.66
468.23	9439.38
468.41	9373.85
468.60	9444.06
468.78	9675.77
468.96	9497.89
469.14	9591.52
469.32	9666.41
469.50	9280.22
469.69	9572.79
469.87	9750.67
470.05	9764.72
470.23	9799.82
470.41	9710.88
470.59	10073.67
470.77	9724.93
470.95	9834.93
471.14	10010.47
471.32	9825.57
471.50	10272.61
471.68	10190.69
471.86	10324.10
472.04	10186.01
472.22	10574.54
472.40	10218.78
472.58	10574.54
472.77	10485.60
472.95	10572.20
473.13	10864.77
473.31	10520.71
473.49	10415.38
473.67	10640.08
473.85	10623.69
474.03	10801.57
474.21	10789.87
474.39	10899.87
474.57	11096.48
474.75	10967.75
474.93	11124.57
475.12	11037.97
475.30	11077.76
475.48	11044.99
475.66	11180.74
475.84	11049.67
476.02	11241.59
476.20	11372.66
476.38	11316.49
476.56	11789.28
476.74	11850.13
476.92	11616.08
477.10	11702.68
477.28	12072.48
477.46	11840.77
477.64	12123.98
477.82	12346.33
478.00	12657.62
478.18	12493.78
478.36	12393.14
478.54	12585.06
478.72	12685.70
478.90	13195.94
479.08	13179.56
479.26	13006.36
479.44	12886.99
479.62	13184.24
479.80	13188.92
479.98	13359.78
480.16	13607.87
480.34	13465.10
480.52	13717.88
480.70	13783.41
480.88	13549.36
481.06	13692.13
481.24	13900.44
481.41	14024.49
481.59	14324.08
481.77	14146.20
481.95	14380.25
482.13	14579.20
482.31	14424.72
482.49	14920.92
482.67	14682.18
482.85	14778.14
483.03	15077.73
483.21	15178.37
483.39	15400.72
483.57	15260.29
483.74	15499.03
483.92	15756.49
484.10	15424.13
484.28	15917.98
484.46	16222.25
484.64	16102.89
484.82	16102.89
485.00	16086.50
485.18	16304.17
485.35	16306.51
485.53	16198.85
485.71	15723.72
485.89	16383.75
486.07	16152.04
486.25	16856.54
486.43	16671.64
486.61	17013.35
486.78	16999.31
486.96	17144.42
487.14	17724.88
487.32	17589.13
487.50	18101.70
487.68	18263.20
487.85	18155.54
488.03	18342.78
488.21	18464.49
488.39	18274.90
488.57	18354.48
488.75	18787.48
488.92	19056.64
489.10	19164.31
489.28	19211.12
489.46	19740.08
489.64	19398.36
489.81	20121.59
489.99	20191.80
490.17	20156.69
490.35	20205.84
490.53	20095.84
490.70	20077.12
490.88	20072.43
491.06	20453.94
491.24	20559.27
491.41	20592.03
491.59	20428.20
491.77	20833.11
491.95	21202.91
492.13	21181.85
492.30	21415.90
492.48	21649.96
492.66	21783.37
492.84	21647.61
493.01	22059.55
493.19	21884.01
493.37	21921.46
493.54	22150.83
493.72	22288.92
493.90	22457.44
494.08	22567.45
494.25	22955.97
494.43	22897.46
494.61	23536.43
494.79	23253.22
494.96	23140.88
495.14	23616.01
495.32	23227.48
495.49	23728.35
495.67	23796.23
495.85	23983.47
496.02	24226.89
496.20	24212.84
496.38	24418.81
496.55	24446.90
496.73	25092.88
496.91	24531.15
497.09	24629.46
497.26	24830.74
497.44	24912.66
497.62	24882.24
497.79	25310.55
497.97	25088.20
498.14	25301.19
498.32	25713.13
498.50	25434.60
498.67	25790.36
498.85	26031.44
499.03	25905.05
499.20	26118.04
499.38	26244.43
499.56	26373.16
499.73	25891.01
499.91	25827.81
500.08	26354.43
500.26	26441.03
500.44	26436.35
500.61	26316.98
500.79	26403.58
500.97	26682.11
501.14	27314.05
501.32	26761.69
501.49	26902.12
501.67	26813.18
501.84	27028.51
502.02	27428.74
502.20	27641.73
502.37	27473.21
502.55	27735.35
502.72	27648.75
502.90	28072.39
503.07	27807.90
503.25	27920.25
503.43	27969.40
503.60	28144.94
503.78	27845.35
503.95	27964.72
504.13	28142.60
504.30	28404.74
504.48	28636.45
504.65	28746.46
504.83	29151.37
505.01	28900.94
505.18	28631.77
505.36	29453.30
505.53	29535.22
505.71	29647.57
505.88	29846.51
506.06	29418.19
506.23	29273.08
506.41	29209.89
506.58	29500.11
506.76	29963.54
506.93	29502.45
507.11	29509.47
507.28	29872.26
507.46	29469.69
507.63	29759.91
507.81	30129.72
507.98	29862.90
508.16	30246.74
508.33	30391.86
508.50	30555.69
508.68	30745.28
508.85	30541.65
509.03	30824.86
509.20	30866.98
509.38	31047.21
509.55	30955.93
509.73	31274.24
509.90	31042.53
510.08	31077.63
510.25	31267.22
510.42	31536.38
510.60	31622.98
510.77	31812.56
510.95	31962.36
511.12	31555.10
511.30	31700.22
511.47	32313.44
511.64	32130.87
511.82	32240.88
511.99	31957.67
512.17	32498.34
512.34	32116.83
512.51	32528.77
512.69	32896.23
512.86	32561.53
513.04	32645.79
513.21	32409.40
513.38	32620.05
513.56	32451.53
513.73	32772.18
513.90	32957.08
514.08	32559.19
514.25	32994.53
514.43	32882.19
514.60	33366.68
514.77	33104.54
514.95	33268.37
515.12	33392.42
515.29	33301.14
515.47	33851.17
515.64	33804.36
515.81	33670.95
515.99	33827.76
516.16	33914.36
516.33	33684.99
516.51	33605.41
516.68	32975.81
516.85	33050.70
517.03	33338.59
517.20	33975.22
517.37	34391.83
517.54	34272.46
517.72	33886.28
517.89	33631.16
518.06	33940.11
518.24	33954.15
518.41	34075.86
518.58	34054.79
518.75	34312.25
518.93	34944.20
519.10	34398.85
519.27	34890.37
519.45	34953.56
519.62	35332.73
519.79	34899.73
519.96	35143.14
520.14	35290.60
520.31	35306.98
520.48	35101.01
520.65	35372.52
520.83	35728.28
521.00	35859.35
521.17	35557.42
521.34	35676.79
521.52	36032.55
521.69	36135.53
521.86	36032.55
522.03	35754.02
522.20	35793.81
522.38	35988.08
522.55	36219.79
522.72	36053.61
522.89	36168.30
523.07	36315.75
523.24	36449.16
523.41	36872.80
523.58	36788.54
523.75	36797.90
523.92	36996.85
524.10	36769.82
524.27	37099.83
524.44	37277.71
524.61	37233.24
524.78	36837.69
524.96	37570.28
525.13	37340.91
525.30	37670.92
525.47	37684.97
525.64	37661.56
525.81	37509.43
525.98	37179.41
526.16	37074.09
526.33	36898.55
526.50	37331.54
526.67	37179.41
526.84	37060.04
527.01	36935.99
527.18	37333.89
527.36	37935.40
527.53	37930.72
527.70	38440.96
527.87	38082.86
528.04	37577.30
528.21	38347.34
528.38	38178.82
528.55	38450.32
528.72	38635.22
528.89	38698.42
529.07	38298.19
529.24	38560.33
529.41	38007.96
529.58	38745.23
529.75	38677.35
529.92	38670.33
530.09	38721.82
530.26	38986.30
530.43	38892.68
530.60	38787.36
530.77	39381.85
530.94	38995.67
531.11	39065.88
531.28	38855.23
531.46	39143.12
531.63	39269.51
531.80	39379.51
531.97	39260.15
532.14	39117.37
532.31	38455.00
532.48	39061.20
532.65	39576.12
532.82	39042.48
532.99	39452.07
533.16	39536.33
533.33	39896.77
533.50	39985.71
533.67	39655.70
533.84	39768.04
534.01	39889.75
534.18	39931.88
534.35	40495.95
534.52	39622.93
534.69	40694.89
534.86	40299.34
535.03	40163.59
535.20	40624.68
535.37	40645.74
535.54	40582.55
535.71	40414.03
535.88	40301.68
536.05	40634.04
536.22	40802.56
536.38	40678.51
536.55	40191.68
536.72	40327.43
536.89	40498.29
537.06	40580.21
537.23	40938.31
537.40	40912.56
537.57	41060.02
537.74	40872.78
537.91	40882.14
538.08	41053.00
538.25	40767.45
538.42	40830.65
538.59	40978.10
538.75	40517.01
538.92	41331.52
539.09	41163.00
539.26	41186.41
539.43	41088.10
539.60	40914.90
539.77	41111.51
539.94	40898.52
540.11	40863.41
540.28	40954.69
540.44	41380.67
540.61	40844.69
540.78	41036.61
540.95	41359.61
541.12	41387.69
541.29	41392.37
541.46	41680.26
541.62	41521.10
541.79	42000.91
541.96	41584.30
542.13	41635.79
542.30	41336.20
542.47	41532.81
542.63	41560.89
542.80	42043.04
542.97	42162.41
543.14	42508.81
543.31	42190.50
543.48	42562.64
543.64	42616.47
543.81	42721.80
543.98	42529.87
544.15	42445.62
544.32	43051.81
544.48	43201.61
544.65	42241.99
544.82	42422.21
544.99	42106.24
545.16	42410.51
545.32	42700.73
545.49	43260.12
545.66	43386.51
545.83	43203.95
546.00	42780.31
546.16	42883.30
546.33	42763.93
546.50	42349.65
546.67	42876.27
546.83	42387.10
547.00	43033.09
547.17	43014.37
547.34	42609.45
547.50	42969.90
547.67	43505.88
547.84	43250.76
548.00	43346.72
548.17	43538.65
548.34	43475.45
548.51	43711.84
548.67	43622.90
548.84	43629.93
549.01	43356.08
549.18	43634.61
549.34	43660.35
549.51	43835.89
549.68	43379.49
549.84	43416.94
550.01	43817.17
550.18	43391.19
550.34	44030.16
550.51	43763.34
550.68	43419.28
550.84	43498.86
551.01	43854.62
551.18	43746.95
551.34	43948.24
551.51	43885.04
551.68	43711.84
551.84	44041.86
552.01	43922.49
552.18	44018.46
552.34	43587.80
552.51	44388.26
552.68	43873.34
552.84	44116.76
553.01	44601.25
553.18	44252.51
553.34	44147.18
553.51	44205.70
553.67	44399.96
553.84	44526.35
554.01	44238.47
554.17	44648.06
554.34	44727.64
554.51	44296.98
554.67	44505.29
554.84	44900.84
555.00	44306.34
555.17	44170.59
555.33	44346.13
555.50	44474.86
555.67	44437.41
555.83	44198.68
556.00	44130.80
556.16	44842.32
556.33	44313.36
556.50	44308.68
556.66	44605.93
556.83	44350.81
556.99	44390.60
557.16	44575.50
557.32	44825.94
557.49	44673.81
557.65	44629.34
557.82	44828.28
557.98	44612.95
558.15	44912.54
558.32	44769.77
558.48	44383.58
558.65	45074.04
558.81	44751.04
558.98	44432.73
559.14	44690.19
559.31	45024.89
559.47	44521.67
559.64	45048.29
559.80	44755.72
559.97	44942.97
560.13	44659.76
560.30	44666.78
560.46	44575.50
560.63	44797.85
560.79	45165.32
560.96	45539.80
561.12	45095.10
561.29	45165.32
561.45	45155.96
561.61	44891.48
561.78	44818.92
561.94	44774.45
562.11	45017.86
562.27	44938.29
562.44	45153.62
562.60	45462.57
562.77	45214.47
562.93	45343.20
563.10	45530.44
563.26	44713.59
563.42	45390.01
563.59	45090.42
563.75	45469.59
563.92	45308.09
564.08	45333.84
564.24	45223.83
564.41	45677.90
564.57	44800.19
564.74	45158.30
564.90	45633.42
565.07	45439.16
565.23	45535.12
565.39	45177.02
565.56	45043.61
565.72	45315.11
565.88	45048.29
566.05	45125.53
566.21	45118.51
566.38	45284.68
566.54	45567.89
566.70	45647.47
566.87	45773.86
567.03	45261.28
567.19	46038.34
567.36	45240.21
567.52	45209.79
567.68	45619.38
567.85	45404.05
568.01	45528.10
568.17	45535.12
568.34	45720.02
568.50	45450.86
568.66	45556.19
568.83	45322.13
568.99	45242.56
569.15	45823.01
569.32	45230.85
569.48	45085.74
569.64	45820.67
569.81	45750.45
569.97	45474.27
570.13	45427.46
570.30	45382.99
570.46	45277.66
570.62	44994.46
570.78	45247.24
570.95	45067.02
571.11	45387.67
571.27	45366.60
571.43	45411.07
571.60	45588.95
571.76	45778.54
571.92	45956.42
572.09	46146.00
572.25	45645.13
572.41	45928.33
572.57	45996.21
572.74	45811.31
572.90	45673.21
573.06	45977.48
573.22	45778.54
573.38	45930.67
573.55	45312.77
573.71	46007.91
573.87	45933.01
574.03	45551.51
574.20	45624.06
574.36	45530.44
574.52	46024.29
574.68	45394.69
574.84	45181.70
575.01	45593.64
575.17	45509.38
575.33	45563.21
575.49	45455.54
575.65	45635.77
575.82	45820.67
575.98	45689.60
576.14	45886.20
576.30	45799.60
576.46	45628.74
576.62	45530.44
576.79	45762.15
576.95	45471.93
577.11	45532.78
577.27	45799.60
577.43	45654.49
577.59	45834.71
577.75	45675.55
577.92	45425.12
578.08	45251.92
578.24	45471.93
578.40	45677.90
578.56	45509.38
578.72	45813.65
578.88	45806.62
579.04	46087.49
579.21	45464.91
579.37	45471.93
579.53	46005.57
579.69	45670.87
579.85	45666.19
580.01	45364.26
580.17	45560.87
580.33	45666.19
580.49	45628.74
580.65	45914.29
580.82	46199.83
580.98	45698.96
581.14	45741.09
581.30	45673.21
581.46	45785.56
581.62	45965.78
581.78	45825.35
581.94	45897.91
582.10	45748.11
582.26	45729.39
582.42	45841.73
582.58	45560.87
582.74	45668.53
582.90	45743.43
583.06	45572.57
583.22	45808.96
583.38	46038.34
583.54	45958.76
583.70	45787.90
583.86	46003.23
584.02	45841.73
584.18	45717.68
584.34	46021.95
584.50	45661.51
584.66	46232.60
584.82	45834.71
584.98	46061.74
585.14	46050.04
585.30	45666.19
585.46	45624.06
585.62	45663.85
585.78	45673.21
585.94	45607.68
586.10	45682.58
586.26	45586.61
586.42	45509.38
586.58	45879.18
586.74	46036.00
586.90	45801.94
587.06	45848.75
587.22	45900.25
587.38	45612.36
587.54	45993.87
587.70	46246.65
587.86	45944.72
588.02	45982.16
588.18	46148.34
588.34	45364.26
588.49	45595.98
588.65	44835.30
588.81	45462.57
588.97	45684.92
589.13	45038.93
589.29	45450.86
589.45	45469.59
589.61	45713.00
589.77	45914.29
589.93	45862.80
590.08	45975.14
590.24	45888.54
590.40	45741.09
590.56	46017.27
590.72	46099.19
590.88	46150.68
591.04	45846.41
591.20	46321.54
591.35	46354.31
591.51	46593.04
591.67	45600.66
591.83	46171.75
591.99	45593.64
592.15	46068.76
592.31	45621.72
592.46	45827.69
592.62	46424.53
592.78	46153.02
592.94	46162.39
593.10	46190.47
593.26	46539.21
593.41	46134.30
593.57	45923.65
593.73	45902.59
593.89	46164.73
594.05	46373.03
594.20	46066.42
594.36	46000.89
594.52	46211.54
594.68	46117.92
594.84	45621.72
594.99	46213.88
595.15	45930.67
595.31	46396.44
595.47	46136.64
595.62	46436.23
595.78	46080.47
595.94	45933.01
596.10	46071.10
596.25	45888.54
596.41	45937.69
596.57	45811.31
596.73	46036.00
596.88	45734.07
597.04	46272.39
597.20	46188.13
597.36	46129.62
597.51	45787.90
597.67	46138.98
597.83	45617.04
597.99	46019.61
598.14	45930.67
598.30	45780.88
598.46	45979.82
598.61	46209.20
598.77	45907.27
598.93	46106.21
599.09	46155.36
599.24	46649.22
599.40	46284.09
599.56	45923.65
599.71	46429.21
599.87	46146.00
600.03	46092.17
600.18	45689.60
600.34	46089.83
600.50	45893.22
600.65	45820.67
600.81	45911.95
600.97	46096.85
601.12	46382.40
601.28	45935.35
601.44	46164.73
601.59	46195.15
601.75	45825.35
601.91	45631.08
602.06	45462.57
602.22	45804.28
602.37	46237.28
602.53	46094.51
602.69	46223.24
602.84	45874.50
603.00	45780.88
603.16	46190.47
603.31	45624.06
603.47	45879.18
603.62	45713.00
603.78	46267.71
603.94	45724.71
604.09	46033.66
604.25	45352.56
604.40	45855.78
604.56	46164.73
604.71	46195.15
604.87	45429.80
605.03	45820.67
605.18	45710.66
605.34	45645.13
605.49	45500.01
605.65	46223.24
605.80	45703.64
605.96	45675.55
606.12	45722.37
606.27	46012.59
606.43	45703.64
606.58	45790.24
606.74	45991.53
606.89	45434.48
607.05	46012.59
607.20	45933.01
607.36	45883.86
607.51	45930.67
607.67	45619.38
607.82	45546.82
607.98	45752.79
608.13	45551.51
608.29	45574.91
608.44	45366.60
608.60	45626.40
608.75	45815.99
608.91	45647.47
609.06	45492.99
609.22	45851.09
609.37	45141.91
609.53	45525.76
609.68	45691.94
609.84	45724.71
609.99	45352.56
610.15	45399.37
610.30	45144.25
610.46	45497.67
610.61	45464.91
610.76	45310.43
610.92	45345.54
611.07	45504.70
611.23	45378.31
611.38	45542.14
611.54	45296.39
611.69	45521.08
611.84	44938.29
612.00	45193.40
612.15	44753.38
612.31	45350.22
612.46	45310.43
612.62	45652.15
612.77	44996.80
612.92	45375.97
613.08	45092.76
613.23	45137.23
613.39	44758.06
613.54	44362.51
613.69	44542.74
613.85	44598.91
614.00	44828.28
614.15	45010.84
614.31	44839.98
614.46	45064.67
614.62	45113.83
614.77	44744.02
614.92	44638.70
615.08	44500.61
615.23	44781.47
615.38	44914.88
615.54	44591.89
615.69	44619.97
615.84	44381.24
616.00	44671.46
616.15	44692.53
616.30	44664.44
616.46	44905.52
616.61	44060.58
616.76	44793.17
616.92	44203.36
617.07	44395.28
617.22	44362.51
617.37	44325.07
617.53	44886.79
617.68	44814.24
617.83	44542.74
617.99	44252.51
618.14	44456.14
618.29	44247.83
618.45	43920.15
618.60	44339.11
618.75	43957.60
618.90	44100.37
619.06	44093.35
619.21	43831.21
619.36	43971.64
619.51	44046.54
619.67	43880.36
619.82	43927.17
619.97	44332.09
620.12	43735.25
620.28	43660.35
620.43	43168.84
620.58	43910.79
620.73	43683.76
620.89	44013.77
621.04	44350.81
621.19	44311.02
621.34	43697.80
621.49	43489.49
621.65	43517.58
621.80	44065.27
621.95	43828.87
622.10	43849.94
622.25	43592.48
622.41	43650.99
622.56	43552.69
622.71	43517.58
622.86	43229.69
623.01	43117.35
623.16	43814.83
623.32	43168.84
623.47	43660.35
623.62	43316.29
623.77	42976.92
623.92	43543.33
624.07	42728.82
624.23	42820.10
624.38	42948.83
624.53	43365.45
624.68	43526.94
624.83	43620.56
624.98	43358.42
625.13	43187.56
625.29	42775.63
625.44	42787.33
625.59	42995.64
625.74	42777.97
625.89	42384.76
626.04	42974.58
626.19	42581.37
626.34	42843.51
626.49	42784.99
626.65	43005.00
626.80	42955.85
626.95	42000.91
627.10	42759.25
627.25	42738.18
627.40	42373.06
627.55	41940.06
627.70	42438.59
627.85	42356.67
628.00	42567.32
628.15	42618.81
628.30	42705.41
628.45	42274.76
628.60	42330.93
628.76	42726.48
628.91	42543.92
629.06	42328.59
629.21	42103.90
629.36	41794.95
629.51	42141.35
629.66	41724.73
629.81	41677.92
629.96	41907.29
630.11	42307.52
630.26	42302.84
630.41	42036.02
630.56	41474.29
630.71	42094.53
630.86	41635.79
631.01	41558.55
631.16	41560.89
631.31	41525.78
631.46	41626.43
631.61	41434.50
631.76	42139.00
631.91	41872.18
632.06	42139.00
632.21	41640.47
632.36	41902.61
632.51	41727.07
632.66	41668.56
632.81	41441.53
632.96	41677.92
633.10	41471.95
633.25	41574.94
633.40	41703.67
633.55	41675.58
633.70	41776.22
633.85	41462.59
634.00	41717.71
634.15	41116.19
634.30	41432.16
634.45	41043.63
634.60	41233.22
634.75	40725.32
634.90	40994.48
635.05	40912.56
635.19	41041.29
635.34	41539.83
635.49	41345.56
635.64	40825.96
635.79	41116.19
635.94	41076.40
636.09	40730.00
636.24	40266.58
636.39	40863.41
636.53	40720.64
636.68	40561.48
636.83	40758.09
636.98	41151.30
637.13	41024.91
637.28	41092.79
637.43	40950.01
637.57	41020.23
637.72	40608.29
637.87	40741.71
638.02	40919.59
638.17	40938.31
638.32	40498.29
638.46	40531.06
638.61	40559.14
638.76	40004.44
638.91	40172.96
639.06	40575.53
639.20	40631.70
639.35	41067.04
639.50	40360.20
639.65	40591.91
639.80	40208.06
639.94	40247.85
640.09	40067.63
640.24	40067.63
640.39	39988.05
640.54	40182.32
640.68	40009.12
640.83	40107.42
640.98	39927.20
641.13	39742.30
641.27	39826.56
641.42	40147.21
641.57	40044.23
641.72	40140.19
641.86	39564.42
642.01	39920.18
642.16	40004.44
642.31	39503.56
642.45	40046.57
642.60	39845.28
642.75	39810.17
642.90	39789.11
643.04	39758.68
643.19	39906.13
643.34	39807.83
643.48	39360.79
643.63	39754.00
643.78	39264.83
643.93	39555.05
644.07	39475.48
644.22	39330.36
644.37	39414.62
644.51	39487.18
644.66	39477.82
644.81	39672.08
644.95	39482.50
645.10	39262.49
645.25	39545.69
645.39	39496.54
645.54	39505.90
645.69	39323.34
645.83	38923.11
645.98	39105.67
646.13	38916.09
646.27	39105.67
646.42	39070.56
646.57	38993.32
646.71	38906.73
646.86	39229.72
647.00	39222.70
647.15	39079.92
647.30	39028.43
647.44	38759.27
647.59	38810.76
647.74	39063.54
647.88	38665.65
648.03	38513.52
648.17	38349.68
648.32	38614.16
648.47	38738.21
648.61	38267.76
648.76	39346.75
648.90	38923.11
649.05	38639.90
649.20	38986.30
649.34	38642.24
649.49	38337.98
649.63	38508.83
649.78	38859.91
649.92	38632.88
650.07	38340.32
650.21	38623.52
650.36	38321.59
650.51	38726.50
650.65	39068.22
650.80	38909.07
650.94	38670.33
651.09	38305.21
651.23	38204.56
651.38	38508.83
651.52	38677.35
651.67	38185.84
651.81	38057.11
651.96	38171.80
652.10	38040.73
652.25	38094.56
652.39	38153.07
652.54	38022.00
652.68	38068.81
652.83	38597.77
652.97	38684.37
653.12	38000.94
653.26	37289.42
653.41	38078.18
653.55	37872.21
653.70	38057.11
653.84	38279.46
653.99	37989.24
654.13	37874.55
654.27	37769.22
654.42	37846.46
654.56	37694.33
654.71	37771.57
654.85	37549.21
655.00	37844.12
655.14	37546.87
655.29	37216.86
655.43	37338.57
655.57	36641.09
655.72	37053.02
655.86	36844.71
656.01	36849.39
656.15	36463.21
656.30	36809.61
656.44	36945.36
656.58	37347.93
656.73	37118.56
656.87	37504.74
657.01	36800.24
657.16	36800.24
657.30	36842.37
657.45	36959.40
657.59	36678.54
657.73	36816.63
657.88	36776.84
658.02	37242.60
658.16	37144.30
658.31	36655.13
658.45	37022.59
658.60	36863.44
658.74	36765.14
658.88	37111.53
659.03	36568.53
659.17	36491.29
659.31	36608.32
659.46	36392.99
659.60	36889.18
659.74	36409.37
659.89	36175.32
660.03	36409.37
660.17	36400.01
660.32	36084.04
660.46	36425.76
660.60	35751.68
660.74	36313.41
660.89	36292.35
661.03	36194.04
661.17	35873.39
661.32	35676.79
661.46	35426.35
661.60	35433.37
661.74	35421.67
661.89	35615.93
662.03	35835.94
662.17	35894.46
662.31	35644.02
662.46	36194.04
662.60	36102.76
662.74	35751.68
662.88	35534.01
663.03	35218.04
663.17	35370.18
663.31	35002.71
663.45	35826.58
663.60	35299.96
663.74	35037.82
663.88	35065.91
664.02	35227.40
664.17	35466.14
664.31	34955.90
664.45	34953.56
664.59	35295.28
664.73	34665.67
664.88	35091.65
665.02	34445.66
665.16	34890.37
665.30	34206.93
665.44	34541.63
665.59	34389.49
665.73	34824.83
665.87	34068.84
666.01	34251.40
666.15	34473.75
666.29	34237.36
666.44	34368.43
666.58	34274.80
666.72	34700.78
666.86	34328.64
667.00	34190.55
667.14	33778.61
667.28	33869.89
667.43	34108.63
667.57	34230.33
667.71	33947.13
667.85	33912.02
667.99	33961.17
668.13	33748.18
668.27	33858.19
668.41	33766.91
668.56	33586.69
668.70	33345.61
668.84	33163.05
668.98	33046.02
669.12	33263.69
669.26	33015.60
669.40	32964.10
669.54	32788.56
669.68	32971.13
669.82	32594.30
669.96	32765.16
670.10	33053.05
670.25	33106.88
670.39	32692.60
670.53	32814.31
670.67	32608.34
670.81	32437.48
670.95	32339.18
671.09	32191.73
671.23	32390.67
671.37	32636.43
671.51	32198.75
671.65	32266.63
671.79	31819.58
671.93	31810.22
672.07	32051.30
672.21	32147.26
672.35	32205.77
672.49	31285.94
672.63	31871.07
672.77	31388.92
672.91	31470.84
673.05	31737.66
673.19	31718.94
673.33	31552.76
673.47	31529.36
673.61	31456.80
673.75	31311.69
673.89	31063.59
674.03	31250.83
674.17	30792.09
674.31	30775.70
674.45	31079.97
674.59	30586.12
674.73	31349.14
674.87	30764.00
675.01	30691.44
675.15	30679.74
675.29	30384.83
675.43	30693.79
675.56	30354.41
675.70	30616.55
675.84	30586.12
675.98	29516.50
676.12	30345.05
676.26	30436.33
676.40	30316.96
676.54	30134.40
676.68	29729.48
676.82	29296.49
676.96	29731.83
677.10	29919.07
677.23	29759.91
677.37	29429.90
677.51	29392.45
677.65	28769.86
677.79	28591.98
677.93	29226.27
678.07	28641.14
678.21	28453.89
678.34	28336.87
678.48	28325.16
678.62	28166.01
678.76	28114.52
678.90	28112.17
679.04	28030.26
679.18	28521.77
679.31	27927.27
679.45	27213.41
679.59	27531.72
679.73	27819.61
679.87	27508.32
680.00	27449.80
680.14	27658.11
680.28	27468.53
680.42	27555.13
680.56	27316.39
680.70	27421.72
680.83	27096.38
680.97	27161.92
681.11	27494.27
681.25	27112.77
681.39	27311.71
681.52	26637.64
681.66	26501.89
681.80	26431.67
681.94	26284.22
682.07	26712.53
682.21	26361.45
682.35	26288.90
682.49	26312.30
682.62	26059.52
682.76	25577.37
682.90	25947.18
683.04	25989.31
683.17	25596.10
683.31	25701.42
683.45	25727.17
683.59	25642.91
683.72	25579.71
683.86	25205.23
684.00	25216.93
684.13	25046.07
684.27	24779.25
684.41	24915.00
684.55	24849.47
684.68	24636.48
684.82	24479.66
684.96	24472.64
685.09	24879.89
685.23	24395.40
685.37	24215.18
685.50	24343.91
685.64	24395.40
685.78	24212.84
685.91	23843.04
686.05	23880.49
686.19	23955.38
686.32	23461.53
686.46	23337.48
686.60	23250.88
686.73	23293.01
686.87	23175.98
687.01	23131.51
687.14	22967.68
687.28	22787.46
687.42	22740.64
687.55	22820.22
687.69	22787.46
687.82	22654.05
687.96	22738.30
688.10	22384.88
688.23	22590.85
688.37	22480.85
688.50	22305.31
688.64	22356.80
688.78	22015.08
688.91	22125.08
689.05	21846.56
689.18	21792.73
689.32	21617.19
689.46	21860.60
689.59	22047.85
689.73	22190.62
689.86	21542.29
690.00	21488.46
690.13	21455.69
690.27	21069.50
690.41	21191.21
690.54	21128.02
690.68	21214.62
690.81	20971.20
690.95	21116.31
691.08	21006.31
691.22	21062.48
691.35	20699.70
691.49	20826.09
691.62	21067.16
691.76	20814.38
691.89	20666.93
692.03	20313.51
692.16	20517.14
692.30	20163.72
692.43	19971.79
692.57	20020.94
692.70	19978.81
692.84	19882.85
692.97	19480.28
693.11	19620.71
693.24	19513.05
693.38	19342.19
693.51	19601.99
693.65	19683.91
693.78	19316.44
693.92	19173.67
694.05	19161.97
694.19	19246.23
694.32	19183.03
694.45	19019.19
694.59	19222.82
694.72	18614.28
694.86	18635.35
694.99	18590.88
695.13	18445.76
695.26	18508.96
695.39	18302.99
695.53	18590.88
695.66	18317.03
695.80	18225.75
695.93	18235.11
696.07	17825.52
696.20	18017.44
696.33	17961.27
696.47	18188.30
696.60	17792.75
696.73	17657.00
696.87	17600.83
697.00	17565.72
697.14	17532.95
697.27	17434.65
697.40	17174.85
697.54	16994.63
697.67	17298.90
697.80	17380.82
697.94	17001.65
698.07	17156.13
698.21	17085.91
698.34	17231.02
698.47	17123.36
698.61	16816.75
698.74	16697.38
698.87	16702.06
699.01	16428.22
699.14	16304.17
699.27	16320.56
699.40	16088.84
699.54	16205.87
699.67	16116.93
699.80	15815.00
699.94	15880.53
700.07	16418.86
700.20	15564.56
700.34	15740.10
700.47	15578.61
700.60	15772.87
700.73	15634.78
700.87	15538.82
701.00	15393.70
701.13	15426.47
701.26	15056.67
701.40	15342.21
701.53	15101.14
701.66	15101.14
701.79	15026.24
701.93	15026.24
702.06	15033.26
702.19	14853.04
702.32	14927.94
702.46	15101.14
702.59	14827.29
702.72	14841.34
702.85	14759.42
702.99	14567.49
703.12	14501.96
703.25	14403.66
703.38	14263.22
703.51	14466.85
703.65	14118.11
703.78	13870.01
703.91	14059.60
704.04	13774.05
704.17	13907.46
704.31	13921.51
704.44	13596.17
704.57	13469.78
704.70	13441.70
704.83	13586.81
704.96	13530.64
705.10	13331.69
705.23	13195.94
>>>>>End Processed Spectral Data<<<<<
