SpectraSuite Data File
++++++++++++++++++++++++++++++++++++
Date: Fri Oct 25 10:47:10 EDT 2013
User: price-jones
Dark Spectrum Present: No
Reference Spectrum Present: No
Number of Sampled Component Spectra: 1
Spectrometers: USB2+H05261
Integration Time (usec): 100000 (USB2+H05261)
Spectra Averaged: 1 (USB2+H05261)
Boxcar Smoothing: 0 (USB2+H05261)
Correct for Electrical Dark: No (USB2+H05261)
Strobe/Lamp Enabled: No (USB2+H05261)
Correct for Detector Non-linearity: No (USB2+H05261)
Correct for Stray Light: No (USB2+H05261)
Number of Pixels in Processed Spectrum: 2048
>>>>>Begin Processed Spectral Data<<<<<
365.73	212.99
365.92	212.99
366.12	212.99
366.32	4.68
366.52	63.19
366.72	79.58
366.91	25.75
367.11	0.00
367.31	32.77
367.51	81.92
367.70	161.50
367.90	79.58
368.10	14.04
368.30	77.24
368.49	0.00
368.69	124.05
368.89	112.35
369.09	32.77
369.28	4.68
369.48	81.92
369.68	114.69
369.87	79.58
370.07	60.85
370.27	180.22
370.47	215.33
370.66	353.42
370.86	465.77
371.06	435.34
371.25	421.30
371.45	461.09
371.65	479.81
371.84	435.34
372.04	416.62
372.24	440.02
372.44	456.40
372.63	430.66
372.83	571.09
373.03	519.60
373.22	524.28
373.42	507.90
373.62	531.30
373.81	526.62
374.01	580.45
374.21	587.47
374.40	512.58
374.60	538.32
374.79	559.39
374.99	468.11
375.19	606.20
375.38	566.41
375.58	641.31
375.78	580.45
375.97	664.71
376.17	648.33
376.37	559.39
376.56	608.54
376.76	592.16
376.95	505.56
377.15	676.41
377.35	622.58
377.54	582.79
377.74	641.31
377.93	545.34
378.13	585.13
378.33	524.28
378.52	645.99
378.72	643.65
378.91	615.56
379.11	627.26
379.31	662.37
379.50	641.31
379.70	688.12
379.89	671.73
380.09	627.26
380.28	608.54
380.48	653.01
380.68	678.76
380.87	667.05
381.07	667.05
381.26	781.74
381.46	669.39
381.65	617.90
381.85	519.60
382.04	660.03
382.24	711.52
382.43	741.95
382.63	641.31
382.83	674.07
383.02	734.93
383.22	793.44
383.41	690.46
383.61	660.03
383.80	744.29
384.00	760.67
384.19	683.44
384.39	805.14
384.58	723.23
384.78	744.29
384.97	798.12
385.17	727.91
385.36	744.29
385.56	777.06
385.75	774.72
385.95	645.99
386.14	795.78
386.34	765.36
386.53	730.25
386.72	763.01
386.92	898.77
387.11	704.50
387.31	774.72
387.50	739.61
387.70	805.14
387.89	765.36
388.09	809.83
388.28	802.80
388.48	830.89
388.67	847.27
388.86	896.43
389.06	896.43
389.25	901.11
389.45	919.83
389.64	840.25
389.84	856.64
390.03	882.38
390.22	889.40
390.42	910.47
390.61	905.79
390.81	880.04
391.00	896.43
391.19	905.79
391.39	894.08
391.58	933.87
391.78	910.47
391.97	870.68
392.16	980.68
392.36	1011.11
392.55	1004.09
392.75	976.00
392.94	954.94
393.13	959.62
393.33	957.28
393.52	950.26
393.71	959.62
393.91	1071.97
394.10	968.98
394.29	929.19
394.49	1022.81
394.68	1086.01
394.88	1048.56
395.07	1097.71
395.26	1076.65
395.46	1018.13
395.65	1104.73
395.84	1109.41
396.04	1238.14
396.23	1160.91
396.42	1076.65
396.62	1025.15
396.81	1116.44
397.00	1083.67
397.19	1114.10
397.39	1200.69
397.58	1238.14
397.77	1261.55
397.97	1181.97
398.16	1240.48
398.35	1214.74
398.55	1299.00
398.74	1320.06
398.93	1458.15
399.12	1261.55
399.32	1289.64
399.51	1308.36
399.70	1380.92
399.90	1376.24
400.09	1378.58
400.28	1350.49
400.47	1406.66
400.67	1467.52
400.86	1310.70
401.05	1511.99
401.24	1462.83
401.44	1467.52
401.63	1387.94
401.82	1521.35
402.01	1430.07
402.21	1469.86
402.40	1509.65
402.59	1479.22
402.78	1528.37
402.97	1455.81
403.17	1507.30
403.36	1558.80
403.55	1542.41
403.74	1563.48
403.93	1596.25
404.13	1619.65
404.32	1661.78
404.51	1612.63
404.70	1664.12
404.89	1675.82
405.09	1739.02
405.28	1746.04
405.47	1647.74
405.66	1732.00
405.85	1675.82
406.05	1736.68
406.24	1785.83
406.43	1753.06
406.62	1811.57
406.81	1783.49
407.00	1811.57
407.20	1809.23
407.39	1797.53
407.58	1846.68
407.77	1895.83
407.96	1959.03
408.15	1935.62
408.34	1867.75
408.54	1952.01
408.73	1905.20
408.92	1952.01
409.11	1994.14
409.30	2010.52
409.49	2040.95
409.68	1961.37
409.87	1987.11
410.07	2064.35
410.26	2045.63
410.45	2015.20
410.64	2157.97
410.83	2054.99
411.02	2218.83
411.21	2099.46
411.40	2228.19
411.59	2204.78
411.78	2260.96
411.98	2251.60
412.17	2169.68
412.36	2314.79
412.55	2392.03
412.74	2363.94
412.93	2335.85
413.12	2256.28
413.31	2438.84
413.50	2502.03
413.69	2420.11
413.88	2579.27
414.07	2614.38
414.26	2583.95
414.45	2593.31
414.64	2558.21
414.83	2605.02
415.02	2672.89
415.22	2558.21
415.41	2705.66
415.60	2771.19
415.79	2750.13
415.98	2766.51
416.17	2899.92
416.36	2764.17
416.55	2876.52
416.74	2761.83
416.93	2883.54
417.12	2928.01
417.31	2909.29
417.50	2916.31
417.69	2918.65
417.88	2972.48
418.07	2946.73
418.26	3155.04
418.45	3220.58
418.64	3047.38
418.83	3171.43
419.02	3019.29
419.21	3073.12
419.39	3098.87
419.58	3150.36
419.77	3040.36
419.96	3145.68
420.15	3183.13
420.34	3222.92
420.53	3258.03
420.72	3361.01
420.91	3407.82
421.10	3269.73
421.29	3372.71
421.48	3339.94
421.67	3323.56
421.86	3454.63
422.05	3339.94
422.24	3236.96
422.43	3304.84
422.61	3372.71
422.80	3358.67
422.99	3403.14
423.18	3543.57
423.37	3534.21
423.56	3372.71
423.75	3602.08
423.94	3384.41
424.13	3234.62
424.32	3372.71
424.50	3475.70
424.69	3597.40
424.88	3653.58
425.07	3440.59
425.26	3398.46
425.45	3475.70
425.64	3330.58
425.83	3400.80
426.01	3531.87
426.20	3442.93
426.39	3728.47
426.58	3456.97
426.77	3527.19
426.96	3545.91
427.15	3442.93
427.33	3695.71
427.52	3655.92
427.71	3665.28
427.90	3602.08
428.09	3620.81
428.28	3618.47
428.46	3676.98
428.65	3742.52
428.84	3808.05
429.03	3920.40
429.22	3653.58
429.40	3751.88
429.59	3775.28
429.78	3639.53
429.97	3604.42
430.16	3676.98
430.34	3847.84
430.53	3779.97
430.72	3763.58
430.91	3859.54
431.10	3824.44
431.28	4023.38
431.47	4074.87
431.66	4117.00
431.85	4140.41
432.03	3911.04
432.22	4159.13
432.41	4058.49
432.60	4196.58
432.79	4283.18
432.97	4138.07
433.16	4086.58
433.35	4159.13
433.54	4154.45
433.72	4170.83
433.91	4217.65
434.10	4222.33
434.28	4168.49
434.47	4329.99
434.66	4322.97
434.85	4285.52
435.03	4428.29
435.22	4386.16
435.41	4550.00
435.59	4259.78
435.78	4486.81
435.97	4400.21
436.16	4484.47
436.34	4503.19
436.53	4430.63
436.72	4683.41
436.90	4407.23
437.09	4571.07
437.28	4395.53
437.46	4594.47
437.65	4557.02
437.84	4573.41
438.02	4713.84
438.21	4674.05
438.40	4652.98
438.58	4795.76
438.77	4844.91
438.96	4830.87
439.14	4954.91
439.33	4840.23
439.52	4800.44
439.70	5022.79
439.89	5219.39
440.08	5015.77
440.26	5041.51
440.45	4938.53
440.63	4975.98
440.82	5200.67
441.01	5191.31
441.19	5203.01
441.38	5315.36
441.57	5310.68
441.75	5380.89
441.94	5535.37
442.12	5596.22
442.31	5654.73
442.50	5518.98
442.68	5504.94
442.87	5577.50
443.05	5511.96
443.24	5678.14
443.43	5781.12
443.61	5706.23
443.80	5746.02
443.98	5603.24
444.17	5413.66
444.35	5771.76
444.54	5717.93
444.73	5839.64
444.91	5570.48
445.10	5706.23
445.28	5760.06
445.47	5497.92
445.65	5633.67
445.84	5818.57
446.02	5738.99
446.21	5886.45
446.39	5738.99
446.58	5961.34
446.77	5832.62
446.95	5811.55
447.14	5895.81
447.32	5818.57
447.51	5966.03
447.69	5860.70
447.88	5820.91
448.06	5846.66
448.25	5888.79
448.43	5898.15
448.62	5783.46
448.80	5926.24
448.99	6022.20
449.17	5959.00
449.36	5905.17
449.54	6092.41
449.73	6328.81
449.91	6104.12
450.10	6239.87
450.28	6193.06
450.46	6354.55
450.65	6249.23
450.83	6179.01
451.02	6300.72
451.20	6326.47
451.39	6312.42
451.57	6195.40
451.76	6277.32
451.94	6361.58
452.13	6595.63
452.31	6382.64
452.49	6204.76
452.68	6244.55
452.86	6441.15
453.05	6420.09
453.23	6509.03
453.42	6480.94
453.60	6389.66
453.78	6555.84
453.97	6427.11
454.15	6614.35
454.34	6581.59
454.52	6745.42
454.70	6827.34
454.89	6775.85
455.07	6616.69
455.26	6712.66
455.44	6836.70
455.62	6743.08
455.81	6693.93
455.99	6808.62
456.17	6932.67
456.36	6883.52
456.54	6820.32
456.73	6923.30
456.91	7105.87
457.09	7089.48
457.28	7293.11
457.46	7215.87
457.64	7155.02
457.83	7089.48
458.01	7131.61
458.19	7183.10
458.38	7148.00
458.56	7470.99
458.74	7419.50
458.93	7391.41
459.11	7325.88
459.29	7365.67
459.48	7339.92
459.66	7269.70
459.84	7358.64
460.03	7566.95
460.21	7445.24
460.39	7597.38
460.57	7604.40
460.76	7573.97
460.94	7712.07
461.12	7611.42
461.31	7660.57
461.49	7588.02
461.67	7592.70
461.85	7744.83
462.04	7702.70
462.22	8341.67
462.40	7929.74
462.59	7934.42
462.77	7840.79
462.95	7957.82
463.13	7798.66
463.32	7824.41
463.50	8131.02
463.68	8032.72
463.86	7990.59
464.05	7925.05
464.23	7784.62
464.41	7868.88
464.59	8002.29
464.78	8205.92
464.96	8140.38
465.14	7997.61
465.32	7953.14
465.50	8217.62
465.69	8189.53
465.87	8231.66
466.05	7950.80
466.23	8236.35
466.41	8318.26
466.60	8446.99
466.78	8093.57
466.96	8308.90
467.14	8332.31
467.32	8432.95
467.51	8479.76
467.69	8161.45
467.87	8161.45
468.05	8439.97
468.23	8341.67
468.41	8454.02
468.60	8538.27
468.78	8477.42
468.96	8461.04
469.14	8706.79
469.32	8699.77
469.50	8599.13
469.69	8711.47
469.87	8760.63
470.05	8975.95
470.23	8821.48
470.41	8540.61
470.59	8861.27
470.77	8802.75
470.95	8980.64
471.14	9034.47
471.32	8980.64
471.50	9191.28
471.68	9235.75
471.86	9121.07
472.04	8926.80
472.22	9411.29
472.40	9104.68
472.58	9217.03
472.77	9579.81
472.95	9275.54
473.13	9671.09
473.31	9364.48
473.49	9474.49
473.67	9453.42
473.85	9589.17
474.03	9799.82
474.21	9745.99
474.39	9914.51
474.57	9905.15
474.75	9935.57
474.93	9949.62
475.12	10043.24
475.30	10057.28
475.48	9916.85
475.66	10296.02
475.84	10216.44
476.02	10024.51
476.20	10174.31
476.38	10546.45
476.56	10525.39
476.74	10583.90
476.92	10567.52
477.10	10579.22
477.28	10707.95
477.46	10775.83
477.64	10729.02
477.82	10949.03
478.00	11091.80
478.18	11248.61
478.36	11192.44
478.54	11276.70
478.72	11405.43
478.90	11571.61
479.08	11702.68
479.26	11705.02
479.44	11882.90
479.62	12018.65
479.80	12084.19
479.98	11969.50
480.16	12292.49
480.34	12030.35
480.52	12318.24
480.70	12191.85
480.88	12018.65
481.06	12528.89
481.24	12437.61
481.41	12772.30
481.59	12716.13
481.77	13090.62
481.95	12805.07
482.13	13142.11
482.31	12823.80
482.49	13266.16
482.67	13511.91
482.85	13490.85
483.03	13497.87
483.21	13645.32
483.39	13895.76
483.57	13858.31
483.74	13987.04
483.92	14024.49
484.10	13928.53
484.28	14225.78
484.46	14406.00
484.64	14822.61
484.82	14333.44
485.00	14548.77
485.18	14920.92
485.35	15133.90
485.53	14848.36
485.71	14897.51
485.89	15026.24
486.07	15138.58
486.25	14960.70
486.43	15344.55
486.61	15440.51
486.78	15880.53
486.96	15978.84
487.14	16102.89
487.32	16072.46
487.50	16105.23
487.68	16545.25
487.85	16360.34
488.03	16723.13
488.21	16627.17
488.39	16681.00
488.57	17114.00
488.75	17153.79
488.92	17298.90
489.10	17123.36
489.28	17495.50
489.46	17554.02
489.64	17841.90
489.81	18082.98
489.99	17982.34
490.17	18441.08
490.35	18370.86
490.53	18429.38
490.70	18555.77
490.88	18302.99
491.06	18675.13
491.24	18714.92
491.41	18764.07
491.59	19173.67
491.77	18853.02
491.95	19168.99
492.13	19459.21
492.30	19716.67
492.48	19454.53
492.66	19538.79
492.84	19765.82
493.01	19910.94
493.19	20053.71
493.37	20528.84
493.54	20411.81
493.72	20201.16
493.90	20421.17
494.08	20498.41
494.25	20821.41
494.43	20910.35
494.61	21200.57
494.79	21205.25
494.96	21364.41
495.14	21102.27
495.32	21453.35
495.49	21750.60
495.67	21731.87
495.85	21841.88
496.02	21909.75
496.20	21905.07
496.38	21942.52
496.55	22223.39
496.73	22820.22
496.91	22216.36
497.09	22349.78
497.26	22548.72
497.44	22689.15
497.62	23131.51
497.79	22958.31
497.97	22946.61
498.14	23384.29
498.32	23424.08
498.50	23323.44
498.67	23704.95
498.85	24009.22
499.03	24016.24
499.20	23817.29
499.38	23917.93
499.56	23999.85
499.73	23983.47
499.91	24009.22
500.08	24570.94
500.26	24154.33
500.44	24168.37
500.61	24245.61
500.79	24762.87
500.97	24634.14
501.14	25219.27
501.32	24755.85
501.49	24814.36
501.67	24922.02
501.84	25057.78
502.02	24996.92
502.20	25678.02
502.37	25460.35
502.55	25172.46
502.72	25944.84
502.90	25708.44
503.07	25570.35
503.25	25879.30
503.43	25603.12
503.60	26043.14
503.78	25848.88
503.95	25766.96
504.13	26401.24
504.30	26354.43
504.48	26192.94
504.65	26331.03
504.83	26583.80
505.01	26684.45
505.18	26260.81
505.36	26745.30
505.53	27103.40
505.71	27077.66
505.88	27103.40
506.06	26883.39
506.23	27372.57
506.41	27395.97
506.58	26967.65
506.76	27653.43
506.93	27395.97
507.11	27623.00
507.28	27510.66
507.46	27508.32
507.63	27906.21
507.81	27922.59
507.98	27733.01
508.16	27772.80
508.33	28189.41
508.50	28278.35
508.68	28285.37
508.85	28905.62
509.03	28402.40
509.20	28615.39
509.38	28865.83
509.55	28477.30
509.73	28917.32
509.90	29060.09
510.08	29188.82
510.25	28716.03
510.42	29336.27
510.60	28748.80
510.77	29570.33
510.95	29406.49
511.12	29305.85
511.30	29247.33
511.47	29404.15
511.64	29811.40
511.82	29446.28
511.99	29507.13
512.17	29982.26
512.34	29799.70
512.51	29907.37
512.69	30195.25
512.86	30106.31
513.04	30607.19
513.21	30195.25
513.38	30331.00
513.56	30218.66
513.73	30183.55
513.90	30567.40
514.08	30396.54
514.25	30649.32
514.43	30876.35
514.60	30824.86
514.77	30932.52
514.95	30972.31
515.12	31040.18
515.29	31318.71
515.47	31211.04
515.64	31255.51
515.81	30948.90
515.99	31590.21
516.16	31112.74
516.33	31601.91
516.51	31414.67
516.68	31168.91
516.85	31475.52
517.03	31810.22
517.20	31817.24
517.37	31800.86
517.54	31711.92
517.72	32189.39
517.89	32196.41
518.06	32100.45
518.24	31618.30
518.41	32273.65
518.58	31854.69
518.75	31910.86
518.93	32432.80
519.10	32517.06
519.27	32606.00
519.45	32477.27
519.62	32498.34
519.79	33144.33
519.96	33205.18
520.14	33024.96
520.31	32989.85
520.48	33120.92
520.65	33338.59
520.83	33113.90
521.00	33256.67
521.17	33860.53
521.34	33266.03
521.52	33675.63
521.69	33221.56
521.86	33738.82
522.03	33795.00
522.20	34073.52
522.38	33621.80
522.55	33949.47
522.72	33975.22
522.89	33844.15
523.07	34174.16
523.24	33986.92
523.41	34181.18
523.58	34195.23
523.75	34469.07
523.92	34445.66
524.10	35063.57
524.27	34499.50
524.44	34352.04
524.61	34511.20
524.78	34693.76
524.96	34873.98
525.13	35248.47
525.30	35164.21
525.47	35180.59
525.64	35035.48
525.81	35040.16
525.98	35365.49
526.16	35131.44
526.33	35133.78
526.50	35262.51
526.67	34904.41
526.84	35482.52
527.01	35234.42
527.18	35248.47
527.36	35438.05
527.53	35615.93
527.70	36084.04
527.87	36395.33
528.04	35557.42
528.21	35941.27
528.38	36346.18
528.55	35667.42
528.72	36327.45
528.89	36301.71
529.07	36369.58
529.24	35985.74
529.41	36360.22
529.58	36378.95
529.75	35999.78
529.92	36608.32
530.09	36318.09
530.26	36774.50
530.43	36568.53
530.60	36533.42
530.77	36580.23
530.94	36650.45
531.11	36758.11
531.28	36706.62
531.46	37022.59
531.63	36837.69
531.80	37275.37
531.97	37022.59
532.14	36809.61
532.31	36685.56
532.48	37312.82
532.65	37708.37
532.82	37193.45
532.99	37329.20
533.16	37160.69
533.33	37598.37
533.50	37270.69
533.67	37551.56
533.84	37488.36
534.01	37647.52
534.18	37282.39
534.35	37764.54
534.52	37659.22
534.69	38080.52
534.86	37813.70
535.03	37628.79
535.20	37912.00
535.37	38155.41
535.54	38195.20
535.71	38108.60
535.88	38270.10
536.05	38258.40
536.22	38267.76
536.38	38700.76
536.55	38375.42
536.72	38567.35
536.89	38333.29
537.06	38478.41
537.23	38803.74
537.40	38508.83
537.57	38373.08
537.74	38719.48
537.91	38808.42
538.08	39126.74
538.25	38321.59
538.42	38775.66
538.59	39150.14
538.75	38745.23
538.92	38899.70
539.09	38799.06
539.26	39030.77
539.43	38822.47
539.60	39168.87
539.77	38909.07
539.94	39108.01
540.11	39103.33
540.28	38998.01
540.44	39154.82
540.61	39016.73
540.78	38967.58
540.95	39533.99
541.12	39421.64
541.29	39100.99
541.46	39447.39
541.62	39906.13
541.79	39866.34
541.96	39143.12
542.13	38981.62
542.30	40189.34
542.47	39438.03
542.63	40039.54
542.80	40369.56
542.97	40411.69
543.14	40367.22
543.31	40170.61
543.48	40418.71
543.64	40863.41
543.81	40715.96
543.98	40201.04
544.15	40509.99
544.32	40601.27
544.48	40498.29
544.65	40435.10
544.82	40573.19
544.99	40404.67
545.16	40652.76
545.32	40603.61
545.49	40641.06
545.66	40701.92
545.83	40570.85
546.00	40893.84
546.16	40608.29
546.33	40662.13
546.50	40322.75
546.67	41144.28
546.83	40800.22
547.00	41205.13
547.17	40809.58
547.34	40858.73
547.50	41146.62
547.67	41308.11
547.84	41022.57
548.00	41418.12
548.17	41574.94
548.34	41406.42
548.51	41490.68
548.67	41446.21
548.84	41209.81
549.01	41523.44
549.18	41216.83
549.34	41600.68
549.51	41687.28
549.68	41975.17
549.84	41596.00
550.01	41539.83
550.18	41195.77
550.34	41745.80
550.51	41736.43
550.68	41184.07
550.84	41455.57
551.01	41638.13
551.18	41593.66
551.34	41724.73
551.51	42108.58
551.68	42284.12
551.84	42033.68
552.01	42115.60
552.18	42101.56
552.34	42064.11
552.51	42490.09
552.68	41893.25
552.84	42043.04
553.01	42422.21
553.18	42010.28
553.34	42506.47
553.51	42089.85
553.67	42078.15
553.84	42155.39
554.01	42433.91
554.17	42618.81
554.34	42579.03
554.51	42574.34
554.67	42522.85
554.84	42490.09
555.00	42499.45
555.17	42408.17
555.33	42576.69
555.50	42616.47
555.67	42855.21
555.83	43217.99
556.00	42684.35
556.16	43232.04
556.33	42953.51
556.50	42719.46
556.66	43110.33
556.83	42333.27
556.99	42770.95
557.16	42993.30
557.32	43260.12
557.49	42618.81
557.65	42548.60
557.82	42937.13
557.98	42852.87
558.15	42714.78
558.32	43524.60
558.48	42878.61
558.65	43023.73
558.81	43438.00
558.98	43203.95
559.14	43426.30
559.31	42923.08
559.47	42801.38
559.64	43761.00
559.80	43435.66
559.97	43489.49
560.13	43152.46
560.30	43002.66
560.46	43246.08
560.63	43557.37
560.79	43859.30
560.96	43672.06
561.12	43423.96
561.29	43292.89
561.45	43557.37
561.61	43370.13
561.78	43416.94
561.94	43166.50
562.11	43227.35
562.27	43353.74
562.44	43611.20
562.60	43627.59
562.77	43861.64
562.93	43831.21
563.10	43702.48
563.26	43295.23
563.42	43709.50
563.59	43695.46
563.75	43819.51
563.92	43543.33
564.08	43199.27
564.24	43634.61
564.41	43459.07
564.57	43393.53
564.74	43838.23
564.90	43796.10
565.07	43789.08
565.23	43739.93
565.39	43693.12
565.56	43328.00
565.72	43882.70
565.88	43952.92
566.05	43728.23
566.21	43889.73
566.38	43814.83
566.54	44006.75
566.70	43854.62
566.87	44032.50
567.03	43765.68
567.19	44238.47
567.36	43978.67
567.52	44004.41
567.68	43969.30
567.85	43714.19
568.01	44322.72
568.17	43693.12
568.34	44238.47
568.50	44069.95
568.66	44074.63
568.83	44004.41
568.99	43903.77
569.15	44264.21
569.32	43856.96
569.48	43803.13
569.64	44376.56
569.81	44634.02
569.97	44194.00
570.13	44301.66
570.30	43667.37
570.46	44048.88
570.62	43711.84
570.78	43943.56
570.95	43824.19
571.11	44184.63
571.27	44184.63
571.43	43964.62
571.60	44065.27
571.76	44233.78
571.92	44079.31
572.09	43789.08
572.25	44474.86
572.41	44168.25
572.57	44278.25
572.74	44676.15
572.90	44589.55
573.06	44133.14
573.22	44137.82
573.38	44144.84
573.55	43735.25
573.71	44570.82
573.87	44194.00
574.03	43924.83
574.20	44006.75
574.36	44479.54
574.52	44449.11
574.68	44648.06
574.84	44140.16
575.01	44399.96
575.17	44336.77
575.33	43849.94
575.49	44282.94
575.65	44538.05
575.82	44769.77
575.98	44491.24
576.14	44652.74
576.30	44563.80
576.46	44629.34
576.62	44327.41
576.79	44254.85
576.95	43948.24
577.11	44409.32
577.27	44722.96
577.43	44423.37
577.59	44020.80
577.75	44222.08
577.92	43950.58
578.08	44044.20
578.24	43643.97
578.40	44027.82
578.56	44388.26
578.72	44577.84
578.88	44844.66
579.04	44664.44
579.21	44491.24
579.37	43997.39
579.53	44149.53
579.69	44198.68
579.85	44109.74
580.01	44519.33
580.17	44254.85
580.33	44706.57
580.49	44563.80
580.65	44378.90
580.82	44524.01
580.98	44435.07
581.14	44325.07
581.30	44406.98
581.46	44528.69
581.62	44444.43
581.78	44641.04
581.94	44945.31
582.10	44538.05
582.26	44446.77
582.42	44404.64
582.58	44758.06
582.74	44254.85
582.90	44254.85
583.06	44566.14
583.22	44795.51
583.38	44559.12
583.54	44655.08
583.70	43952.92
583.86	44109.74
584.02	43988.03
584.18	44818.92
584.34	44219.74
584.50	43973.98
584.66	44512.31
584.82	44486.56
584.98	44662.10
585.14	44528.69
585.30	44598.91
585.46	44666.78
585.62	44603.59
585.78	44381.24
585.94	43938.88
586.10	44023.14
586.26	44399.96
586.42	44767.43
586.58	44807.22
586.74	44587.21
586.90	44325.07
587.06	44559.12
587.22	44261.87
587.38	44519.33
587.54	44980.42
587.70	45076.38
587.86	44975.73
588.02	44601.25
588.18	44460.82
588.34	44584.86
588.49	44355.49
588.65	43978.67
588.81	44329.75
588.97	44500.61
589.13	44198.68
589.29	44350.81
589.45	44584.86
589.61	44760.40
589.77	44741.68
589.93	44818.92
590.08	44598.91
590.24	44622.31
590.40	44837.64
590.56	44875.09
590.72	44383.58
590.88	44832.96
591.04	45013.18
591.20	45158.30
591.35	44978.07
591.51	45551.51
591.67	45057.65
591.83	45029.57
591.99	44552.10
592.15	44659.76
592.31	44992.12
592.46	44484.22
592.62	44725.30
592.78	45116.17
592.94	44767.43
593.10	44561.46
593.26	44755.72
593.41	44879.77
593.57	44996.80
593.73	44996.80
593.89	44746.36
594.05	44629.34
594.20	45240.21
594.36	45347.88
594.52	44912.54
594.68	45081.06
594.84	45305.75
594.99	45401.71
595.15	44980.42
595.31	45560.87
595.47	45265.96
595.62	45097.44
595.78	44910.20
595.94	45193.40
596.10	45109.14
596.25	44945.31
596.41	45059.99
596.57	44664.44
596.73	45022.54
596.88	44741.68
597.04	44870.41
597.20	45357.24
597.36	45085.74
597.51	45041.27
597.67	45062.33
597.83	45034.25
597.99	44849.35
598.14	44837.64
598.30	44748.70
598.46	44830.62
598.61	44781.47
598.77	44807.22
598.93	45184.04
599.09	45024.89
599.24	45270.64
599.40	44985.10
599.56	45141.91
599.71	45092.76
599.87	45132.55
600.03	45315.11
600.18	45373.63
600.34	44879.77
600.50	44968.71
600.65	45310.43
600.81	45170.00
600.97	45326.81
601.12	45411.07
601.28	45263.62
601.44	44971.05
601.59	45130.21
601.75	44975.73
601.91	45081.06
602.06	45130.21
602.22	45083.40
602.37	45038.93
602.53	45095.10
602.69	45336.18
602.84	44839.98
603.00	44673.81
603.16	44612.95
603.31	44638.70
603.47	44884.45
603.62	44896.16
603.78	44914.88
603.94	44734.66
604.09	45378.31
604.25	45106.80
604.40	45165.32
604.56	44987.44
604.71	45127.87
604.87	45041.27
605.03	44921.90
605.18	44947.65
605.34	45160.64
605.49	44978.07
605.65	45191.06
605.80	44725.30
605.96	45436.82
606.12	45029.57
606.27	45090.42
606.43	44774.45
606.58	44959.35
606.74	44346.13
606.89	44692.53
607.05	44921.90
607.20	44945.31
607.36	44598.91
607.51	45525.76
607.67	44744.02
607.82	45263.62
607.98	44746.36
608.13	44830.62
608.29	44765.09
608.44	44865.73
608.60	44601.25
608.75	44456.14
608.91	44304.00
609.06	45003.82
609.22	44500.61
609.37	44170.59
609.53	44596.57
609.68	44353.15
609.84	44512.31
609.99	44940.63
610.15	44481.88
610.30	44542.74
610.46	44208.04
610.61	44364.85
610.76	44355.49
610.92	44465.50
611.07	44002.07
611.23	44128.46
611.38	44128.46
611.54	44149.53
611.69	44198.68
611.84	44336.77
612.00	44123.78
612.15	44135.48
612.31	44343.79
612.46	44229.10
612.62	44240.81
612.77	44273.57
612.92	44847.00
613.08	44509.97
613.23	44392.94
613.39	44245.49
613.54	43936.54
613.69	44184.63
613.85	44076.97
614.00	44364.85
614.15	44292.30
614.31	44243.15
614.46	44161.23
614.62	44102.71
614.77	43819.51
614.92	43791.42
615.08	43882.70
615.23	44100.37
615.38	43969.30
615.54	43592.48
615.69	43615.88
615.84	43716.53
616.00	43686.10
616.15	43768.02
616.30	44037.18
616.46	43473.11
616.61	43536.30
616.76	43838.23
616.92	43147.78
617.07	43398.21
617.22	43952.92
617.37	43650.99
617.53	44114.42
617.68	43700.14
617.83	43831.21
617.99	43971.64
618.14	43805.47
618.29	43543.33
618.45	43285.87
618.60	43569.07
618.75	43344.38
618.90	43786.74
619.06	43669.72
619.21	43639.29
619.36	43601.84
619.51	43927.17
619.67	43304.59
619.82	43430.98
619.97	43274.16
620.12	43098.62
620.28	43405.23
620.43	42843.51
620.58	42866.91
620.73	42911.38
620.89	42960.53
621.04	43503.54
621.19	43063.52
621.34	42635.20
621.49	42878.61
621.65	43065.86
621.80	43021.39
621.95	42703.07
622.10	43325.66
622.25	42600.09
622.41	42644.56
622.56	43065.86
622.71	42792.01
622.86	42768.61
623.01	42920.74
623.16	42712.44
623.32	42976.92
623.47	43131.39
623.62	42843.51
623.77	42593.07
623.92	42548.60
624.07	42749.88
624.23	42473.70
624.38	42752.23
624.53	42487.74
624.68	42473.70
624.83	42677.33
624.98	42689.03
625.13	42108.58
625.29	42557.96
625.44	42564.98
625.59	41989.21
625.74	41762.18
625.89	41984.53
626.04	42239.65
626.19	42033.68
626.34	42174.11
626.49	42216.24
626.65	41991.55
626.80	42485.40
626.95	41748.14
627.10	42139.00
627.25	41577.28
627.40	41996.23
627.55	41530.47
627.70	41308.11
627.85	41813.67
628.00	41853.46
628.15	42326.25
628.30	41869.84
628.45	42197.52
628.60	41944.74
628.76	42101.56
628.91	42134.32
629.06	42003.25
629.21	41296.41
629.36	41474.29
629.51	41383.01
629.66	41195.77
629.81	41294.07
629.96	41336.20
630.11	41516.42
630.26	41633.45
630.41	41776.22
630.56	41439.18
630.71	41816.01
630.86	41336.20
631.01	41565.57
631.16	41399.40
631.31	41425.14
631.46	40877.46
631.61	41242.58
631.76	41207.47
631.91	41432.16
632.06	41324.50
632.21	41315.14
632.36	41022.57
632.51	40992.14
632.66	41209.81
632.81	40432.75
632.96	40807.24
633.10	41153.64
633.25	40851.71
633.40	40758.09
633.55	41518.76
633.70	40701.92
633.85	40722.98
634.00	40975.76
634.15	41097.47
634.30	41081.08
634.45	40994.48
634.60	40802.56
634.75	40517.01
634.90	40559.14
635.05	40832.99
635.19	40650.42
635.34	40814.26
635.49	40978.10
635.64	40528.72
635.79	40210.40
635.94	40170.61
636.09	40491.27
636.24	40257.21
636.39	40229.13
636.53	40121.46
636.68	40598.93
636.83	40275.94
636.98	40411.69
637.13	40203.38
637.28	40355.52
637.43	40563.82
637.57	40678.51
637.72	39573.78
637.87	40517.01
638.02	40294.66
638.17	40446.80
638.32	40282.96
638.46	39782.09
638.61	40208.06
638.76	39831.24
638.91	40191.68
639.06	39786.77
639.20	39990.39
639.35	40554.46
639.50	39796.13
639.65	39929.54
639.80	40362.54
639.94	40126.14
640.09	39632.29
640.24	39625.27
640.39	39449.73
640.54	39398.24
640.68	39576.12
640.83	39583.14
640.98	39746.98
641.13	39405.26
641.27	39503.56
641.42	39438.03
641.57	39810.17
641.72	39945.92
641.86	39332.70
642.01	39412.28
642.16	39086.95
642.31	38979.28
642.45	39388.88
642.60	39056.52
642.75	39281.21
642.90	38892.68
643.04	39119.71
643.19	39543.35
643.34	39466.11
643.48	39157.16
643.63	39433.35
643.78	39096.31
643.93	39372.49
644.07	38850.55
644.22	38550.96
644.37	38703.10
644.51	38836.51
644.66	39250.78
644.81	39262.49
644.95	39093.97
645.10	39255.46
645.25	39386.54
645.39	39136.10
645.54	39260.15
645.69	39014.39
645.83	38438.62
645.98	38684.37
646.13	38813.10
646.27	39110.35
646.42	39133.76
646.57	38775.66
646.71	38951.20
646.86	38660.97
647.00	39063.54
647.15	39206.31
647.30	38733.53
647.44	38845.87
647.59	38621.18
647.74	38646.93
647.88	38403.51
648.03	39051.84
648.17	38600.12
648.32	38340.32
648.47	38160.09
648.61	38239.67
648.76	38424.57
648.90	38527.56
649.05	38394.15
649.20	38476.07
649.34	38998.01
649.49	37844.12
649.63	38513.52
649.78	38590.75
649.92	38064.13
650.07	38356.70
650.21	37965.83
650.36	38396.49
650.51	38216.27
650.65	38501.81
650.80	38459.68
650.94	38225.63
651.09	38462.02
651.23	38110.94
651.38	38190.52
651.52	37661.56
651.67	38220.95
651.81	37886.25
651.96	37954.13
652.10	37947.11
652.25	37708.37
652.39	37518.79
652.54	37771.57
652.68	37933.06
652.83	37897.95
652.97	38141.37
653.12	37998.60
653.26	37827.74
653.41	37584.32
653.55	37881.57
653.70	37254.31
653.84	37591.34
653.99	37858.17
654.13	38188.18
654.27	37399.42
654.42	37469.64
654.56	37701.35
654.71	38106.26
654.85	37851.14
655.00	37368.99
655.14	36861.10
655.29	37383.04
655.43	36828.33
655.57	37022.59
655.72	37160.69
655.86	37205.16
656.01	36875.14
656.15	37268.35
656.30	37301.12
656.44	36683.22
656.58	37151.32
656.73	37003.87
656.87	36910.25
657.01	36732.37
657.16	37240.26
657.30	36933.65
657.45	36580.23
657.59	36699.60
657.73	36645.77
657.88	37179.41
658.02	36535.76
658.16	37226.22
658.31	36744.07
658.45	36957.06
658.60	36715.98
658.74	36713.64
658.88	36631.72
659.03	36123.83
659.17	36383.63
659.31	36753.43
659.46	36259.58
659.60	36498.31
659.74	36299.37
659.89	35714.23
660.03	36250.22
660.17	36598.96
660.32	36308.73
660.46	36299.37
660.60	36598.96
660.74	36194.04
660.89	35999.78
661.03	35789.13
661.17	35747.00
661.32	35730.62
661.46	35297.62
661.60	35463.80
661.74	35674.45
661.89	35459.12
662.03	35456.78
662.17	35311.66
662.31	35213.36
662.46	35620.61
662.60	35896.80
662.74	35456.78
662.88	35082.29
663.03	35262.51
663.17	35236.77
663.31	34820.15
663.45	35278.89
663.60	35461.46
663.74	34761.64
663.88	34934.84
664.02	34534.60
664.17	34906.75
664.31	34672.70
664.45	34396.51
664.59	34934.84
664.73	34581.42
664.88	34525.24
665.02	34553.33
665.16	34651.63
665.30	34197.57
665.44	34462.05
665.59	34384.81
665.73	34178.84
665.87	34043.09
666.01	34319.28
666.15	34132.03
666.29	33914.36
666.44	34363.75
666.58	34176.50
666.72	34031.39
666.86	34052.45
667.00	33862.87
667.14	33811.38
667.28	34192.89
667.43	33614.77
667.57	33474.34
667.71	33497.75
667.85	33333.91
667.99	33607.75
668.13	33324.55
668.27	33584.35
668.41	33544.56
668.56	32999.21
668.70	33411.15
668.84	33357.32
668.98	32921.98
669.12	33401.79
669.26	33277.74
669.40	32914.95
669.54	33041.34
669.68	33193.48
669.82	32786.22
669.96	32985.17
670.10	32603.66
670.25	32720.69
670.39	32788.56
670.53	32940.70
670.67	32493.66
670.81	32280.67
670.95	32718.35
671.09	32666.86
671.23	32332.16
671.37	32343.86
671.51	32615.37
671.65	32156.62
671.79	32123.85
671.93	31999.80
672.07	32180.03
672.21	32053.64
672.35	32044.27
672.49	32063.00
672.63	31744.69
672.77	31627.66
672.91	31927.25
673.05	32067.68
673.19	31459.14
673.33	31241.47
673.47	31307.01
673.61	31140.83
673.75	30700.81
673.89	30979.33
674.03	30855.28
674.17	30881.03
674.31	31072.95
674.45	30735.92
674.59	30925.50
674.73	30974.65
674.87	30871.67
675.01	30792.09
675.15	30958.27
675.29	31072.95
675.43	30759.32
675.56	30497.18
675.70	30260.79
675.84	30288.87
675.98	29322.23
676.12	30010.35
676.26	29703.74
676.40	30171.85
676.54	29687.36
676.68	29886.30
676.82	29104.56
676.96	29472.03
677.10	29500.11
677.23	29233.29
677.37	29380.74
677.51	29369.04
677.65	29006.26
677.79	28669.22
677.93	28943.06
678.07	28959.45
678.21	28615.39
678.34	28470.28
678.48	28669.22
678.62	28517.09
678.76	28458.57
678.90	28292.40
679.04	28325.16
679.18	28360.27
679.31	28119.20
679.45	28011.53
679.59	27936.63
679.73	27630.02
679.87	27744.71
680.00	27524.70
680.14	27433.42
680.28	27838.33
680.42	27424.06
680.56	27374.91
680.70	27278.94
680.83	27300.01
680.97	27016.80
681.11	26644.66
681.25	26843.60
681.39	26485.50
681.52	27101.06
681.66	26668.06
681.80	26651.68
681.94	26726.58
682.07	26265.49
682.21	26412.95
682.35	26426.99
682.49	26637.64
682.62	26417.63
682.76	26134.42
682.90	26061.87
683.04	25755.26
683.17	25977.61
683.31	25572.69
683.45	25846.54
683.59	25474.39
683.72	25507.16
683.86	25085.86
684.00	25188.85
684.13	25364.39
684.27	25268.42
684.41	24992.24
684.55	25076.50
684.68	24643.50
684.82	24905.64
684.96	24882.24
685.09	24709.04
685.23	24549.88
685.37	24826.06
685.50	24449.24
685.64	24180.07
685.78	24423.49
685.91	24072.41
686.05	24175.39
686.19	24098.16
686.32	23714.31
686.46	23611.32
686.60	23604.30
686.73	23529.41
686.87	23616.01
687.01	23321.10
687.14	23089.38
687.28	23431.10
687.42	23178.33
687.55	23028.53
687.69	23147.90
687.82	23098.75
687.96	22757.03
688.10	22539.36
688.23	22899.80
688.37	22602.55
688.50	22298.28
688.64	22504.25
688.78	22260.84
688.91	22022.10
689.05	22260.84
689.18	21888.69
689.32	21549.31
689.46	22003.38
689.59	21968.27
689.73	22038.48
689.86	21443.99
690.00	21881.67
690.13	21612.51
690.27	21474.42
690.41	21645.27
690.54	21076.52
690.68	21128.02
690.81	20926.73
690.95	21053.12
691.08	20786.30
691.22	20879.92
691.35	20861.19
691.49	21128.02
691.62	20802.68
691.76	20683.31
691.89	20498.41
692.03	20608.42
692.16	20112.22
692.30	20091.16
692.43	20308.83
692.57	19915.62
692.70	19910.94
692.84	19950.73
692.97	19634.75
693.11	19777.53
693.24	19749.44
693.38	19611.35
693.51	19583.26
693.65	19679.22
693.78	19700.29
693.92	19520.07
694.05	19424.11
694.19	19178.35
694.32	18972.38
694.45	19166.65
694.59	18750.03
694.72	18644.71
694.86	18677.48
694.99	18745.35
695.13	18930.25
695.26	18359.16
695.39	18118.09
695.53	18317.03
695.66	18267.88
695.80	18300.65
695.93	18305.33
696.07	18045.53
696.20	17891.06
696.33	18092.34
696.47	17951.91
696.60	18092.34
696.73	17802.11
696.87	17809.14
697.00	17528.27
697.14	17600.83
697.27	17549.34
697.40	17603.17
697.54	17294.22
697.67	17558.70
697.80	17039.10
697.94	17275.49
698.07	16875.26
698.21	16879.94
698.34	16947.82
698.47	16847.18
698.61	16559.29
698.74	16629.51
698.87	16592.06
699.01	16294.81
699.14	16224.59
699.27	16362.69
699.40	16535.88
699.54	16194.17
699.67	16032.67
699.80	16177.78
699.94	16116.93
700.07	15866.49
700.20	15913.30
700.34	15758.83
700.47	16002.24
700.60	16044.37
700.73	15857.13
700.87	15826.70
701.00	15630.10
701.13	15382.00
701.26	15489.67
701.40	15218.16
701.53	15152.63
701.66	15117.52
701.79	15176.03
701.93	15112.84
702.06	14913.89
702.19	14703.25
702.32	14930.28
702.46	14717.29
702.59	14778.14
702.72	14759.42
702.85	14368.55
702.99	14356.85
703.12	14759.42
703.25	14572.18
703.38	14539.41
703.51	14167.26
703.65	14216.41
703.78	13933.21
703.91	13942.57
704.04	13970.66
704.17	13926.19
704.31	13968.32
704.44	13441.70
704.57	13490.85
704.70	13385.52
704.83	13591.49
704.96	13703.84
705.10	13963.64
705.23	13696.82
>>>>>End Processed Spectral Data<<<<<
