SpectraSuite Data File
++++++++++++++++++++++++++++++++++++
Date: Fri Oct 25 11:34:23 EDT 2013
User: price-jones
Dark Spectrum Present: No
Reference Spectrum Present: No
Number of Sampled Component Spectra: 1
Spectrometers: USB2+H05261
Integration Time (usec): 100000 (USB2+H05261)
Spectra Averaged: 1 (USB2+H05261)
Boxcar Smoothing: 0 (USB2+H05261)
Correct for Electrical Dark: No (USB2+H05261)
Strobe/Lamp Enabled: No (USB2+H05261)
Correct for Detector Non-linearity: No (USB2+H05261)
Correct for Stray Light: No (USB2+H05261)
Number of Pixels in Processed Spectrum: 2048
>>>>>Begin Processed Spectral Data<<<<<
365.73	306.61
365.92	306.61
366.12	306.61
366.32	198.95
366.52	161.50
366.72	238.73
366.91	170.86
367.11	264.48
367.31	135.75
367.51	177.88
367.70	121.71
367.90	161.50
368.10	252.78
368.30	102.98
368.49	182.56
368.69	217.67
368.89	175.54
369.09	184.90
369.28	149.79
369.48	236.39
369.68	266.82
369.87	166.18
370.07	231.71
370.27	269.16
370.47	348.74
370.66	437.68
370.86	503.22
371.06	566.41
371.25	521.94
371.45	566.41
371.65	575.77
371.84	554.71
372.04	512.58
372.24	580.45
372.44	512.58
372.63	662.37
372.83	613.22
373.03	552.37
373.22	606.20
373.42	697.48
373.62	645.99
373.81	627.26
374.01	683.44
374.21	716.20
374.40	599.18
374.60	704.50
374.79	629.60
374.99	669.39
375.19	571.09
375.38	634.29
375.58	636.63
375.78	697.48
375.97	599.18
376.17	709.18
376.37	641.31
376.56	606.20
376.76	748.97
376.95	667.05
377.15	634.29
377.35	681.10
377.54	748.97
377.74	704.50
377.93	765.36
378.13	655.35
378.33	709.18
378.52	706.84
378.72	741.95
378.91	704.50
379.11	725.57
379.31	723.23
379.50	727.91
379.70	697.48
379.89	791.10
380.09	690.46
380.28	667.05
380.48	676.41
380.68	669.39
380.87	716.20
381.07	753.65
381.26	734.93
381.46	713.86
381.65	697.48
381.85	786.42
382.04	744.29
382.24	737.27
382.43	821.53
382.63	781.74
382.83	706.84
383.02	788.76
383.22	777.06
383.41	856.64
383.61	826.21
383.80	720.88
384.00	779.40
384.19	814.51
384.39	835.57
384.58	863.66
384.78	765.36
384.97	828.55
385.17	830.89
385.36	828.55
385.56	716.20
385.75	765.36
385.95	837.91
386.14	856.64
386.34	863.66
386.53	779.40
386.72	873.02
386.92	947.92
387.11	884.72
387.31	896.43
387.50	938.55
387.70	854.30
387.89	826.21
388.09	809.83
388.28	912.81
388.48	947.92
388.67	912.81
388.86	891.74
389.06	966.64
389.25	861.32
389.45	997.07
389.64	936.21
389.84	858.98
390.03	966.64
390.22	931.53
390.42	945.58
390.61	929.19
390.81	891.74
391.00	999.41
391.19	1034.52
391.39	1013.45
391.58	997.07
391.78	994.73
391.97	1062.60
392.16	1029.84
392.36	1015.79
392.55	957.28
392.75	1109.41
392.94	1025.15
393.13	1015.79
393.33	1011.11
393.52	1057.92
393.71	1018.13
393.91	1086.01
394.10	1029.84
394.29	1093.03
394.49	1109.41
394.68	1109.41
394.88	1088.35
395.07	1053.24
395.26	1128.14
395.46	1090.69
395.65	1146.86
395.84	1212.40
396.04	1132.82
396.23	1174.95
396.42	1132.82
396.62	1249.85
396.81	1165.59
397.00	1233.46
397.19	1235.80
397.39	1149.20
397.58	1282.61
397.77	1221.76
397.97	1212.40
398.16	1247.51
398.35	1203.04
398.55	1167.93
398.74	1170.27
398.93	1277.93
399.12	1226.44
399.32	1247.51
399.51	1294.32
399.70	1357.51
399.90	1268.57
400.09	1336.45
400.28	1231.12
400.47	1212.40
400.67	1420.71
400.86	1448.79
401.05	1390.28
401.24	1451.13
401.44	1324.74
401.63	1465.18
401.82	1401.98
402.01	1430.07
402.21	1469.86
402.40	1378.58
402.59	1474.54
402.78	1413.68
402.97	1474.54
403.17	1409.00
403.36	1516.67
403.55	1619.65
403.74	1502.62
403.93	1537.73
404.13	1486.24
404.32	1556.46
404.51	1497.94
404.70	1643.06
404.89	1586.88
405.09	1659.44
405.28	1633.69
405.47	1638.38
405.66	1654.76
405.85	1678.16
406.05	1638.38
406.24	1703.91
406.43	1657.10
406.62	1673.48
406.81	1727.32
407.00	1739.02
407.20	1671.14
407.39	1671.14
407.58	1741.36
407.77	1832.64
407.96	1802.21
408.15	1874.77
408.34	1823.28
408.54	1942.64
408.73	1874.77
408.92	1959.03
409.11	1935.62
409.30	1973.07
409.49	1989.46
409.68	1893.49
409.87	1860.73
410.07	1966.05
410.26	1966.05
410.45	2054.99
410.64	2043.29
410.83	2043.29
411.02	2125.21
411.21	2087.76
411.40	2172.02
411.59	2115.84
411.78	2143.93
411.98	2125.21
412.17	2181.38
412.36	2134.57
412.55	2258.62
412.74	2223.51
412.93	2267.98
413.12	2169.68
413.31	2277.34
413.50	2356.92
413.69	2207.13
413.88	2300.75
414.07	2445.86
414.26	2422.45
414.45	2436.50
414.64	2408.41
414.83	2513.74
415.02	2530.12
415.22	2562.89
415.41	2523.10
415.60	2602.68
415.79	2544.16
415.98	2534.80
416.17	2518.42
416.36	2640.12
416.55	2642.46
416.74	2733.75
416.93	2759.49
417.12	2775.88
417.31	2747.79
417.50	2759.49
417.69	2846.09
417.88	2752.47
418.07	2780.56
418.26	2871.84
418.45	2904.60
418.64	3075.46
418.83	2942.05
419.02	2930.35
419.21	2913.97
419.39	3014.61
419.58	2977.16
419.77	2836.73
419.96	2998.23
420.15	3211.22
420.34	3087.17
420.53	3096.53
420.72	3096.53
420.91	3108.23
421.10	3108.23
421.29	3152.70
421.48	3101.21
421.67	3166.74
421.86	3222.92
422.05	3215.90
422.24	3157.38
422.43	3201.85
422.61	3208.87
422.80	3126.96
422.99	3241.64
423.18	3243.98
423.37	3361.01
423.56	3243.98
423.75	3229.94
423.94	3169.09
424.13	3110.57
424.32	3166.74
424.50	3141.00
424.69	3375.05
424.88	3461.65
425.07	3323.56
425.26	3248.66
425.45	3293.13
425.64	3316.54
425.83	3307.18
426.01	3405.48
426.20	3452.29
426.39	3351.65
426.58	3318.88
426.77	3370.37
426.96	3377.39
427.15	3524.85
427.33	3447.61
427.52	3407.82
427.71	3442.93
427.90	3370.37
428.09	3506.12
428.28	3463.99
428.46	3569.32
428.65	3510.80
428.84	3674.64
429.03	3616.13
429.22	3665.28
429.40	3531.87
429.59	3653.58
429.78	3501.44
429.97	3513.14
430.16	3588.04
430.34	3740.18
430.53	3630.17
430.72	3681.66
430.91	3864.22
431.10	3665.28
431.28	3840.82
431.47	3871.25
431.66	3871.25
431.85	3719.11
432.03	4016.36
432.22	3920.40
432.41	3995.29
432.60	3983.59
432.79	3913.38
432.97	3950.82
433.16	4058.49
433.35	3962.53
433.54	4063.17
433.72	4100.62
433.91	4079.55
434.10	4229.35
434.28	4074.87
434.47	4091.26
434.66	4283.18
434.85	4205.94
435.03	4119.34
435.22	4159.13
435.41	4201.26
435.59	4208.28
435.78	4210.62
435.97	4308.93
436.16	4212.96
436.34	4173.18
436.53	4285.52
436.72	4418.93
436.90	4238.71
437.09	4283.18
437.28	4311.27
437.46	4304.25
437.65	4393.19
437.84	4585.11
438.02	4437.66
438.21	4465.74
438.40	4395.53
438.58	4662.35
438.77	4681.07
438.96	4528.94
439.14	4767.67
439.33	4732.56
439.52	4732.56
439.70	4704.48
439.89	4908.10
440.08	4894.06
440.26	4788.74
440.45	4753.63
440.63	4868.31
440.82	5018.11
441.01	4975.98
441.19	5130.45
441.38	5008.75
441.57	4966.62
441.75	5102.37
441.94	5373.87
442.12	5291.95
442.31	5256.84
442.50	5336.42
442.68	5167.90
442.87	5315.36
443.05	5287.27
443.24	5401.96
443.43	5315.36
443.61	5465.15
443.80	5551.75
443.98	5327.06
444.17	4980.66
444.35	5228.76
444.54	5507.28
444.73	5504.94
444.91	5439.40
445.10	5397.28
445.28	5516.64
445.47	5418.34
445.65	5322.38
445.84	5266.21
446.02	5427.70
446.21	5645.37
446.39	5425.36
446.58	5472.17
446.77	5486.22
446.95	5390.25
447.14	5394.93
447.32	5533.03
447.51	5547.07
447.69	5736.65
447.88	5659.42
448.06	5652.39
448.25	5633.67
448.43	5582.18
448.62	5640.69
448.80	5631.33
448.99	5680.48
449.17	5671.12
449.36	5753.04
449.54	5839.64
449.73	5874.74
449.91	5893.47
450.10	5940.28
450.28	6083.05
450.46	5923.90
450.65	5963.68
450.83	5956.66
451.02	5970.71
451.20	6052.63
451.39	6022.20
451.57	6043.26
451.76	5706.23
451.94	5982.41
452.13	6132.20
452.31	5942.62
452.49	5968.37
452.68	6235.19
452.86	6183.70
453.05	6239.87
453.23	6200.08
453.42	6216.46
453.60	6038.58
453.78	6150.93
453.97	6125.18
454.15	6169.65
454.34	6099.44
454.52	6263.27
454.70	6389.66
454.89	6260.93
455.07	6413.07
455.26	6375.62
455.44	6520.73
455.62	6366.26
455.81	6572.22
455.99	6497.33
456.17	6612.01
456.36	6434.13
456.54	6513.71
456.73	6614.35
456.91	6817.98
457.09	6736.06
457.28	6946.71
457.46	6675.21
457.64	6803.94
457.83	6771.17
458.01	6801.60
458.19	6860.11
458.38	6768.83
458.56	6829.68
458.74	6913.94
458.93	6986.50
459.11	6888.20
459.29	6897.56
459.48	6937.35
459.66	7098.84
459.84	7082.46
460.03	7220.55
460.21	7183.10
460.39	6981.82
460.57	7169.06
460.76	7281.41
460.94	7232.26
461.12	7220.55
461.31	7225.23
461.49	7337.58
461.67	7377.37
461.85	7538.87
462.04	7248.64
462.22	7810.37
462.40	7344.60
462.59	7438.22
462.77	7559.93
462.95	7494.40
463.13	7440.56
463.32	7506.10
463.50	7691.00
463.68	7803.35
463.86	7634.83
464.05	7545.89
464.23	7613.76
464.41	7590.36
464.59	7534.18
464.78	7815.05
464.96	7691.00
465.14	7632.49
465.32	7693.34
465.50	7843.14
465.69	7983.57
465.87	7894.63
466.05	7782.28
466.23	7868.88
466.41	7845.48
466.60	7953.14
466.78	7878.24
466.96	7798.66
467.14	7885.26
467.32	7978.89
467.51	8093.57
467.69	7843.14
467.87	7882.92
468.05	7843.14
468.23	8093.57
468.41	7901.65
468.60	8203.58
468.78	8140.38
468.96	8116.98
469.14	8180.17
469.32	8318.26
469.50	8177.83
469.69	8484.44
469.87	8315.92
470.05	8552.32
470.23	8334.65
470.41	8402.52
470.59	8463.38
470.77	8358.05
470.95	8547.64
471.14	8557.00
471.32	8306.56
471.50	8884.67
471.68	8840.20
471.86	8575.72
472.04	8940.85
472.22	8926.80
472.40	8713.81
472.58	8765.31
472.77	8940.85
472.95	8849.57
473.13	9277.88
473.31	8957.23
473.49	9238.09
473.67	9116.39
473.85	9352.78
474.03	9458.10
474.21	9327.03
474.39	9312.99
474.57	9207.67
474.75	9500.23
474.93	9528.32
475.12	9437.04
475.30	9610.24
475.48	9565.77
475.66	9804.50
475.84	9687.48
476.02	9647.69
476.20	9731.95
476.38	9970.68
476.56	10223.46
476.74	10008.13
476.92	10300.70
477.10	10153.24
477.28	10312.40
477.46	10473.90
477.64	10373.25
477.82	10642.42
478.00	10600.29
478.18	10684.55
478.36	10759.44
478.54	10689.23
478.72	11052.01
478.90	10890.51
479.08	11206.48
479.26	11290.74
479.44	11154.99
479.62	11288.40
479.80	11576.29
479.98	11421.81
480.16	11892.26
480.34	11632.46
480.52	11655.87
480.70	11892.26
480.88	11510.75
481.06	11793.96
481.24	12053.76
481.41	12152.06
481.59	12332.28
481.77	12266.75
481.95	12510.16
482.13	12613.15
482.31	12554.63
482.49	12610.81
482.67	12599.10
482.85	12858.90
483.03	13050.83
483.21	13083.59
483.39	13439.36
483.57	13350.42
483.74	13352.76
483.92	13554.04
484.10	13390.20
484.28	14012.79
484.46	13584.47
484.64	14026.83
484.82	13778.73
485.00	14036.19
485.18	14171.94
485.35	14574.52
485.53	14586.22
485.71	14408.34
485.89	14633.03
486.07	14944.32
486.25	14703.25
486.43	14913.89
486.61	15183.06
486.78	15096.46
486.96	15122.20
487.14	15250.93
487.32	15426.47
487.50	15714.36
487.68	15616.05
487.85	16018.63
488.03	16201.19
488.21	16271.40
488.39	16278.43
488.57	16318.22
488.75	16585.04
488.92	16549.93
489.10	16919.73
489.28	16905.69
489.46	17291.88
489.64	17125.70
489.81	17591.47
489.99	17385.50
490.17	17460.40
490.35	17640.62
490.53	17633.60
490.70	17734.24
490.88	17689.77
491.06	18097.02
491.24	18195.32
491.41	18225.75
491.59	18403.63
491.77	18581.51
491.95	18712.58
492.13	18845.99
492.30	18902.17
492.48	19002.81
492.66	18862.38
492.84	19335.17
493.01	19232.18
493.19	19398.36
493.37	19410.06
493.54	19658.16
493.72	20088.82
493.90	19810.29
494.08	20079.46
494.25	20264.36
494.43	20400.11
494.61	20201.16
494.79	20168.40
494.96	20278.40
495.14	20587.35
495.32	20802.68
495.49	20765.23
495.67	20978.22
495.85	21289.51
496.02	21322.28
496.20	21640.59
496.38	21369.09
496.55	21493.14
496.73	22192.96
496.91	21895.71
497.09	21891.03
497.26	21914.44
497.44	22141.47
497.62	22005.72
497.79	22401.27
497.97	22532.34
498.14	22780.43
498.32	22939.59
498.50	22785.12
498.67	22904.48
498.85	22944.27
499.03	22904.48
499.20	23206.41
499.38	23304.71
499.56	23337.48
499.73	23573.88
499.91	23695.58
500.08	23646.43
500.26	23660.48
500.44	23828.99
500.61	23768.14
500.79	23527.06
500.97	24280.72
501.14	24470.30
501.32	24540.52
501.49	24357.96
501.67	24545.20
501.84	24624.78
502.02	24521.79
502.20	24805.00
502.37	24582.65
502.55	24774.57
502.72	24893.94
502.90	25120.97
503.07	24980.54
503.25	25373.75
503.43	24968.84
503.60	24964.15
503.78	25303.53
503.95	25207.57
504.13	25626.53
504.30	25539.93
504.48	25619.50
504.65	25858.24
504.83	25802.07
505.01	25806.75
505.18	26141.44
505.36	26216.34
505.53	26398.90
505.71	26532.31
505.88	26607.21
506.06	26551.04
506.23	26370.82
506.41	26642.32
506.58	26618.91
506.76	26438.69
506.93	26719.56
507.11	26546.36
507.28	27012.12
507.46	27190.00
507.63	26836.58
507.81	27082.34
507.98	26787.43
508.16	27311.71
508.33	27267.24
508.50	27208.73
508.68	27613.64
508.85	27782.16
509.03	27756.41
509.20	27838.33
509.38	28201.11
509.55	28027.92
509.73	28032.60
509.90	28231.54
510.08	28226.86
510.25	28343.89
510.42	28437.51
510.60	28411.76
510.77	28727.74
510.95	29106.90
511.12	28655.18
511.30	28671.56
511.47	29078.82
511.64	28959.45
511.82	29048.39
511.99	28996.90
512.17	28940.72
512.34	28868.17
512.51	29778.64
512.69	29352.66
512.86	29792.68
513.04	29699.06
513.21	29474.37
513.38	29930.77
513.56	29820.77
513.73	29717.78
513.90	30164.82
514.08	29912.05
514.25	29963.54
514.43	30450.37
514.60	30115.67
514.77	30082.91
514.95	30682.08
515.12	30419.94
515.29	30546.33
515.47	30731.23
515.64	30792.09
515.81	30171.85
515.99	30558.03
516.16	31189.98
516.33	31117.42
516.51	31058.91
516.68	30986.35
516.85	31318.71
517.03	31534.04
517.20	31494.25
517.37	31454.46
517.54	31466.16
517.72	31510.63
517.89	31644.04
518.06	31498.93
518.24	31969.38
518.41	31594.89
518.58	31325.73
518.75	31880.44
518.93	31995.12
519.10	32030.23
519.27	31974.06
519.45	31927.25
519.62	32329.82
519.79	32222.16
519.96	31917.89
520.14	32362.59
520.31	32290.03
520.48	32397.70
520.65	32428.12
520.83	32978.15
521.00	33151.35
521.17	33071.77
521.34	33055.39
521.52	33301.14
521.69	33123.26
521.86	33158.37
522.03	33172.41
522.20	33446.26
522.38	34082.88
522.55	33469.66
522.72	33762.23
522.89	33591.37
523.07	33998.62
523.24	33560.94
523.41	33888.62
523.58	33727.12
523.75	34188.21
523.92	33935.43
524.10	34038.41
524.27	34370.77
524.44	34141.39
524.61	34300.55
524.78	34197.57
524.96	34326.30
525.13	34843.56
525.30	34656.31
525.47	34911.43
525.64	34448.00
525.81	34969.94
525.98	35236.77
526.16	34614.18
526.33	34689.08
526.50	35182.93
526.67	35021.44
526.84	35122.08
527.01	35271.87
527.18	35454.44
527.36	35101.01
527.53	35225.06
527.70	35641.68
527.87	35779.77
528.04	35101.01
528.21	35482.52
528.38	35454.44
528.55	35854.67
528.72	35646.36
528.89	36107.44
529.07	35866.37
529.24	35681.47
529.41	35761.05
529.58	35896.80
529.75	36163.62
529.92	35817.22
530.09	36140.21
530.26	36231.49
530.43	36355.54
530.60	36116.81
530.77	36116.81
530.94	36236.17
531.11	36287.67
531.28	36589.59
531.46	36065.31
531.63	36844.71
531.80	36486.61
531.97	36935.99
532.14	36680.88
532.31	36620.02
532.48	37031.96
532.65	36680.88
532.82	36943.02
532.99	37017.91
533.16	37020.25
533.33	37216.86
533.50	37436.87
533.67	37338.57
533.84	36816.63
534.01	37539.85
534.18	36919.61
534.35	37787.95
534.52	37724.75
534.69	37998.60
534.86	37551.56
535.03	37715.39
535.20	37853.48
535.37	38380.10
535.54	38033.71
535.71	37806.67
535.88	37860.51
536.05	37748.16
536.22	38087.54
536.38	38298.19
536.55	37947.11
536.72	38218.61
536.89	38314.57
537.06	38415.21
537.23	38670.33
537.40	38438.62
537.57	37794.97
537.74	38527.56
537.91	38855.23
538.08	38829.49
538.25	38422.23
538.42	38738.21
538.59	39056.52
538.75	38466.70
538.92	39407.60
539.09	38698.42
539.26	38721.82
539.43	38909.07
539.60	39154.82
539.77	39182.91
539.94	39515.26
540.11	38925.45
540.28	39639.31
540.44	39358.45
540.61	39077.58
540.78	39096.31
540.95	39175.89
541.12	39356.11
541.29	38852.89
541.46	39145.46
541.62	39711.87
541.79	39639.31
541.96	39061.20
542.13	39531.65
542.30	39835.92
542.47	39583.14
542.63	39604.20
542.80	40261.90
542.97	39906.13
543.14	40257.21
543.31	40055.93
543.48	40011.46
543.64	40680.85
543.81	40156.57
543.98	40065.29
544.15	40631.70
544.32	40870.43
544.48	41106.83
544.65	40547.44
544.82	40444.46
544.99	40320.41
545.16	40706.60
545.32	41022.57
545.49	40989.80
545.66	40818.94
545.83	41282.37
546.00	41219.17
546.16	40711.28
546.33	40865.75
546.50	40973.42
546.67	41502.38
546.83	40828.30
547.00	40673.83
547.17	40713.62
547.34	41137.26
547.50	41418.12
547.67	41979.85
547.84	40938.31
548.00	41261.30
548.17	41464.93
548.34	41429.82
548.51	41949.42
548.67	41631.11
548.84	41504.72
549.01	41736.43
549.18	41825.37
549.34	41764.52
549.51	41930.70
549.68	41748.14
549.84	41881.55
550.01	41675.58
550.18	41834.74
550.34	41860.48
550.51	42073.47
550.68	41907.29
550.84	41874.52
551.01	42452.64
551.18	41977.51
551.34	42307.52
551.51	42164.75
551.68	42171.77
551.84	42162.41
552.01	41771.54
552.18	42131.98
552.34	42188.16
552.51	42562.64
552.68	42197.52
552.84	42422.21
553.01	42747.54
553.18	42529.87
553.34	42637.54
553.51	42263.05
553.67	42792.01
553.84	42480.72
554.01	42363.70
554.17	42946.49
554.34	42733.50
554.51	43075.22
554.67	42855.21
554.84	42962.87
555.00	42569.66
555.17	42988.62
555.33	42916.06
555.50	43098.62
555.67	43222.67
555.83	43007.34
556.00	43110.33
556.16	43466.09
556.33	43297.57
556.50	43386.51
556.66	43540.99
556.83	43107.99
556.99	43416.94
557.16	43185.22
557.32	43477.79
557.49	43363.11
557.65	43110.33
557.82	43756.32
557.98	43552.69
558.15	43428.64
558.32	43730.57
558.48	43257.78
558.65	43419.28
558.81	43388.85
558.98	43529.28
559.14	43700.14
559.31	43629.93
559.47	43599.50
559.64	43594.82
559.80	43419.28
559.97	43594.82
560.13	43086.92
560.30	43643.97
560.46	43948.24
560.63	43988.03
560.79	43938.88
560.96	44102.71
561.12	43948.24
561.29	43723.55
561.45	43786.74
561.61	44020.80
561.78	44254.85
561.94	44268.89
562.11	44109.74
562.27	43700.14
562.44	44254.85
562.60	43992.71
562.77	44102.71
562.93	44268.89
563.10	44273.57
563.26	44004.41
563.42	44542.74
563.59	44121.44
563.75	44018.46
563.92	43957.60
564.08	44182.29
564.24	44053.56
564.41	44032.50
564.57	44264.21
564.74	44442.09
564.90	44231.44
565.07	44559.12
565.23	44168.25
565.39	44425.71
565.56	44802.53
565.72	44629.34
565.88	44264.21
566.05	44098.03
566.21	44465.50
566.38	44598.91
566.54	44715.93
566.70	44755.72
566.87	44961.69
567.03	44257.19
567.19	44612.95
567.36	44542.74
567.52	45034.25
567.68	45045.95
567.85	44910.20
568.01	44748.70
568.17	44680.83
568.34	44669.12
568.50	44898.50
568.66	44844.66
568.83	44657.42
568.99	44645.72
569.15	44425.71
569.32	44650.40
569.48	44498.26
569.64	45411.07
569.81	44751.04
569.97	44921.90
570.13	45162.98
570.30	44664.44
570.46	44751.04
570.62	44954.67
570.78	44907.86
570.95	44790.83
571.11	45120.85
571.27	44645.72
571.43	44825.94
571.60	44751.04
571.76	44484.22
571.92	44734.66
572.09	44573.16
572.25	44949.99
572.41	44612.95
572.57	44746.36
572.74	45338.52
572.90	45258.94
573.06	45113.83
573.22	45439.16
573.38	45184.04
573.55	45415.76
573.71	45361.92
573.87	45666.19
574.03	45165.32
574.20	45275.32
574.36	45085.74
574.52	45097.44
574.68	45280.00
574.84	45336.18
575.01	45111.49
575.17	45474.27
575.33	45167.66
575.49	44973.39
575.65	45591.30
575.82	45165.32
575.98	45446.18
576.14	45659.17
576.30	45467.25
576.46	45265.96
576.62	45057.65
576.79	45333.84
576.95	45081.06
577.11	45560.87
577.27	45392.35
577.43	45563.21
577.59	45179.36
577.75	44912.54
577.92	45193.40
578.08	45125.53
578.24	45329.16
578.40	45567.89
578.56	45736.41
578.72	45343.20
578.88	45560.87
579.04	45460.23
579.21	45141.91
579.37	45366.60
579.53	45317.45
579.69	45542.14
579.85	45055.31
580.01	45614.70
580.17	45361.92
580.33	45666.19
580.49	45420.44
580.65	45907.27
580.82	45205.11
580.98	45642.79
581.14	45184.04
581.30	45113.83
581.46	45298.73
581.62	45296.39
581.78	45116.17
581.94	45556.19
582.10	45317.45
582.26	45418.10
582.42	45574.91
582.58	45502.35
582.74	45584.27
582.90	45141.91
583.06	45823.01
583.22	45294.05
583.38	45549.17
583.54	45799.60
583.70	45617.04
583.86	45406.39
584.02	45036.59
584.18	45823.01
584.34	45214.47
584.50	45933.01
584.66	45766.84
584.82	45340.86
584.98	46326.22
585.14	45886.20
585.30	45890.88
585.46	45715.34
585.62	45581.93
585.78	45968.12
585.94	45076.38
586.10	45808.96
586.26	45652.15
586.42	45492.99
586.58	45677.90
586.74	45308.09
586.90	45670.87
587.06	45165.32
587.22	45928.33
587.38	45722.37
587.54	46171.75
587.70	45839.39
587.86	45881.52
588.02	45940.04
588.18	45830.03
588.34	45542.14
588.49	45638.11
588.65	45500.01
588.81	46103.87
588.97	45935.35
589.13	45612.36
589.29	45841.73
589.45	45820.67
589.61	46075.79
589.77	46188.13
589.93	45750.45
590.08	45815.99
590.24	45968.12
590.40	46389.42
590.56	46476.02
590.72	46050.04
590.88	45656.83
591.04	45785.56
591.20	46127.28
591.35	46326.22
591.51	46410.48
591.67	46225.58
591.83	46103.87
591.99	46532.19
592.15	45844.07
592.31	46033.66
592.46	45759.81
592.62	45909.61
592.78	46087.49
592.94	46567.30
593.10	46230.26
593.26	46394.10
593.41	46349.63
593.57	46113.23
593.73	46330.90
593.89	46733.48
594.05	46717.09
594.20	46314.52
594.36	46618.79
594.52	46447.93
594.68	46277.07
594.84	46419.84
594.99	47271.80
595.15	45984.51
595.31	46562.62
595.47	46670.28
595.62	45904.93
595.78	46256.01
595.94	46176.43
596.10	46204.52
596.25	46204.52
596.41	46698.37
596.57	46199.83
596.73	46431.55
596.88	46298.14
597.04	45956.42
597.20	46756.88
597.36	46241.96
597.51	46562.62
597.67	45902.59
597.83	46045.36
597.99	46642.20
598.14	46361.33
598.30	46506.44
598.46	46962.85
598.61	46691.35
598.77	46291.12
598.93	46759.22
599.09	46780.29
599.24	46504.10
599.40	46705.39
599.56	46808.37
599.71	46932.42
599.87	46857.52
600.03	46897.31
600.18	46630.49
600.34	46550.91
600.50	46684.33
600.65	46597.73
600.81	46726.46
600.97	46419.84
601.12	46878.59
601.28	46389.42
601.44	46349.63
601.59	46571.98
601.75	46124.94
601.91	46773.27
602.06	46677.30
602.22	47154.77
602.37	46450.27
602.53	46485.38
602.69	46368.35
602.84	46513.47
603.00	46377.72
603.16	46171.75
603.31	46705.39
603.47	46782.63
603.62	46394.10
603.78	46892.63
603.94	46492.40
604.09	46618.79
604.25	46440.91
604.40	46487.72
604.56	46726.46
604.71	46710.07
604.87	46464.32
605.03	46799.01
605.18	46667.94
605.34	47091.58
605.49	46658.58
605.65	46321.54
605.80	46246.65
605.96	46628.15
606.12	46298.14
606.27	46756.88
606.43	46031.32
606.58	46349.63
606.74	46595.38
606.89	46298.14
607.05	46522.83
607.20	46387.08
607.36	46459.63
607.51	46389.42
607.67	46445.59
607.82	46244.30
607.98	46632.83
608.13	46532.19
608.29	46532.19
608.44	46478.36
608.60	46625.81
608.75	46480.70
608.91	46019.61
609.06	46000.89
609.22	45862.80
609.37	45851.09
609.53	46794.33
609.68	46361.33
609.84	46312.18
609.99	46272.39
610.15	46703.05
610.30	46204.52
610.46	46415.16
610.61	46459.63
610.76	46637.51
610.92	46181.11
611.07	46373.03
611.23	46134.30
611.38	46122.60
611.54	45832.37
611.69	46483.04
611.84	46347.29
612.00	46010.25
612.15	45741.09
612.31	46288.77
612.46	46000.89
612.62	45961.10
612.77	45790.24
612.92	46092.17
613.08	45846.41
613.23	46162.39
613.39	45755.13
613.54	45570.23
613.69	46021.95
613.85	45815.99
614.00	45963.44
614.15	46153.02
614.31	46054.72
614.46	45940.04
614.62	45677.90
614.77	45687.26
614.92	45727.05
615.08	45881.52
615.23	46061.74
615.38	45626.40
615.54	45607.68
615.69	45551.51
615.84	45443.84
616.00	45815.99
616.15	45865.14
616.30	45373.63
616.46	45727.05
616.61	45600.66
616.76	45748.11
616.92	45558.53
617.07	45591.30
617.22	45717.68
617.37	45312.77
617.53	45563.21
617.68	45432.14
617.83	45595.98
617.99	46045.36
618.14	45570.23
618.29	45605.34
618.45	45492.99
618.60	45303.41
618.75	45406.39
618.90	45560.87
619.06	45504.70
619.21	45102.12
619.36	45619.38
619.51	45034.25
619.67	45008.50
619.82	44917.22
619.97	45249.58
620.12	45064.67
620.28	44818.92
620.43	45422.78
620.58	45193.40
620.73	45361.92
620.89	45420.44
621.04	45305.75
621.19	45141.91
621.34	44641.04
621.49	44809.56
621.65	45214.47
621.80	45434.48
621.95	45193.40
622.10	45148.93
622.25	44678.49
622.41	44973.39
622.56	44715.93
622.71	45024.89
622.86	44727.64
623.01	44907.86
623.16	45071.70
623.32	45022.54
623.47	45127.87
623.62	45144.25
623.77	44687.85
623.92	44940.63
624.07	44615.29
624.23	44882.11
624.38	45261.28
624.53	44605.93
624.68	44563.80
624.83	44268.89
624.98	44563.80
625.13	44219.74
625.29	44617.63
625.44	44259.53
625.59	44584.86
625.74	44285.28
625.89	43863.98
626.04	44168.25
626.19	44121.44
626.34	44182.29
626.49	44215.06
626.65	43833.55
626.80	43985.69
626.95	44163.57
627.10	43894.41
627.25	44495.92
627.40	43952.92
627.55	44011.43
627.70	43880.36
627.85	44240.81
628.00	44086.33
628.15	44582.52
628.30	43655.67
628.45	43510.56
628.60	43545.67
628.76	43997.39
628.91	43852.28
629.06	44016.11
629.21	43391.19
629.36	43522.26
629.51	43910.79
629.66	43915.47
629.81	43545.67
629.96	43697.80
630.11	43859.30
630.26	43442.68
630.41	43356.08
630.56	43498.86
630.71	43505.88
630.86	43524.60
631.01	43412.26
631.16	43241.40
631.31	43423.96
631.46	43416.94
631.61	43915.47
631.76	43674.40
631.91	43634.61
632.06	43995.05
632.21	43819.51
632.36	43508.22
632.51	43105.65
632.66	43147.78
632.81	43157.14
632.96	43096.28
633.10	42988.62
633.25	43672.06
633.40	43217.99
633.55	43194.59
633.70	43494.18
633.85	42969.90
634.00	42890.32
634.15	42941.81
634.30	42796.70
634.45	42916.06
634.60	42663.28
634.75	43248.42
634.90	43299.91
635.05	43035.43
635.19	42939.47
635.34	42567.32
635.49	42944.15
635.64	43021.39
635.79	42859.89
635.94	42822.44
636.09	43000.32
636.24	42850.53
636.39	43000.32
636.53	43065.86
636.68	42497.11
636.83	42167.09
636.98	42777.97
637.13	42529.87
637.28	42398.80
637.43	42609.45
637.57	42501.79
637.72	42553.28
637.87	42260.71
638.02	42220.92
638.17	42539.24
638.32	42590.73
638.46	41921.34
638.61	42066.45
638.76	42216.24
638.91	42288.80
639.06	42183.48
639.20	41949.42
639.35	42059.43
639.50	42003.25
639.65	42373.06
639.80	42422.21
639.94	42483.06
640.09	42103.90
640.24	42209.22
640.39	41687.28
640.54	41418.12
640.68	41975.17
640.83	42394.12
640.98	41970.49
641.13	41698.98
641.27	42012.62
641.42	41722.39
641.57	41944.74
641.72	41738.77
641.86	41563.23
642.01	41546.85
642.16	41233.22
642.31	41123.21
642.45	41958.78
642.60	41691.96
642.75	41574.94
642.90	41694.30
643.04	41771.54
643.19	41265.99
643.34	41392.37
643.48	41146.62
643.63	41315.14
643.78	41324.50
643.93	42078.15
644.07	41902.61
644.22	41404.08
644.37	41242.58
644.51	41539.83
644.66	41785.58
644.81	41610.04
644.95	41724.73
645.10	41202.79
645.25	41397.06
645.39	41174.70
645.54	41116.19
645.69	40678.51
645.83	41277.69
645.98	40966.40
646.13	40715.96
646.27	41099.81
646.42	40671.49
646.57	41069.38
646.71	41069.38
646.86	41158.32
647.00	40809.58
647.15	41242.58
647.30	41221.52
647.44	40652.76
647.59	40985.12
647.74	40851.71
647.88	41083.42
648.03	40680.85
648.17	41024.91
648.32	41134.92
648.47	41111.51
648.61	40582.55
648.76	40662.13
648.90	40858.73
649.05	40844.69
649.20	40830.65
649.34	40701.92
649.49	40795.54
649.63	40823.62
649.78	40746.39
649.92	40811.92
650.07	40910.22
650.21	40825.96
650.36	40676.17
650.51	40451.48
650.65	40919.59
650.80	40795.54
650.94	40751.07
651.09	40587.23
651.23	40481.91
651.38	40151.89
651.52	40137.85
651.67	40566.16
651.81	40020.82
651.96	40266.58
652.10	40013.80
652.25	40081.67
652.39	40119.12
652.54	39983.37
652.68	39714.21
652.83	40549.78
652.97	40552.12
653.12	39894.43
653.26	39793.79
653.41	40013.80
653.55	39510.58
653.70	40378.92
653.84	39992.73
653.99	40013.80
654.13	39566.76
654.27	39847.62
654.42	39786.77
654.56	39676.76
654.71	39997.41
654.85	40095.72
655.00	39627.61
655.14	39974.01
655.29	39782.09
655.43	40076.99
655.57	39431.01
655.72	39358.45
655.86	39309.30
656.01	39220.36
656.15	39461.43
656.30	39157.16
656.44	39398.24
656.58	39241.42
656.73	39728.25
656.87	38878.64
657.01	39044.82
657.16	39536.33
657.30	38888.00
657.45	39140.78
657.59	38820.13
657.73	39250.78
657.88	39318.66
658.02	38993.32
658.16	39622.93
658.31	39068.22
658.45	38827.15
658.60	38829.49
658.74	38918.43
658.88	39145.46
659.03	38890.34
659.17	38754.59
659.31	38485.43
659.46	38990.98
659.60	39115.03
659.74	38829.49
659.89	38384.79
660.03	38127.33
660.17	38876.30
660.32	38494.79
660.46	38211.59
660.60	37844.12
660.74	38492.45
660.89	38443.30
661.03	37773.91
661.17	38253.72
661.32	38122.65
661.46	37647.52
661.60	38157.75
661.74	37855.82
661.89	37668.58
662.03	38129.67
662.17	37490.70
662.31	37682.62
662.46	38195.20
662.60	37837.10
662.74	37247.29
662.88	37134.94
663.03	37392.40
663.17	37160.69
663.31	37305.80
663.45	37364.31
663.60	37574.96
663.74	37031.96
663.88	37116.22
664.02	36762.79
664.17	37652.20
664.31	37249.63
664.45	37048.34
664.59	36966.42
664.73	37191.11
664.88	37020.25
665.02	36989.83
665.16	36907.91
665.30	37266.01
665.44	36807.26
665.59	36854.08
665.73	36411.71
665.87	36503.00
666.01	36746.41
666.15	36556.83
666.29	36156.60
666.44	36605.98
666.58	36208.09
666.72	36013.82
666.86	36149.57
667.00	35655.72
667.14	35983.40
667.28	36587.25
667.43	36163.62
667.57	36201.07
667.71	35999.78
667.85	36315.75
667.99	35920.20
668.13	35564.44
668.27	35321.02
668.41	35496.56
668.56	35103.35
668.70	35222.72
668.84	35213.36
668.98	35564.44
669.12	35473.16
669.26	35079.95
669.40	35187.61
669.54	35278.89
669.68	34740.57
669.82	35283.58
669.96	34462.05
670.10	34235.02
670.25	34766.32
670.39	34562.69
670.53	34761.64
670.67	34499.50
670.81	34492.47
670.95	34726.53
671.09	34368.43
671.23	34237.36
671.37	34696.10
671.51	34478.43
671.65	33816.06
671.79	33717.76
671.93	34408.22
672.07	34078.20
672.21	33872.23
672.35	33266.03
672.49	33804.36
672.63	33649.88
672.77	33525.83
672.91	33434.55
673.05	33151.35
673.19	33577.33
673.33	32786.22
673.47	33350.29
673.61	32498.34
673.75	32730.05
673.89	32900.91
674.03	32748.78
674.17	33165.39
674.31	32809.63
674.45	32313.44
674.59	32484.30
674.73	32945.38
674.87	32496.00
675.01	32268.97
675.15	31742.35
675.29	32184.71
675.43	31913.20
675.56	31978.74
675.70	31665.11
675.84	31744.69
675.98	31009.76
676.12	31627.66
676.26	31775.11
676.40	31323.39
676.54	31314.03
676.68	31042.53
676.82	30593.14
676.96	31386.58
677.10	31096.36
677.23	31180.62
677.37	31075.29
677.51	30883.37
677.65	30885.71
677.79	30937.20
677.93	30731.23
678.07	30621.23
678.21	30281.85
678.34	30113.33
678.48	30326.32
678.62	29811.40
678.76	30146.10
678.90	29984.60
679.04	30059.50
679.18	29879.28
679.31	29362.02
679.45	29551.60
679.59	29572.67
679.73	29490.75
679.87	29027.32
680.00	28959.45
680.14	28645.82
680.28	29120.95
680.42	28919.66
680.56	29062.43
680.70	28570.92
680.83	28341.55
680.97	28411.76
681.11	28334.53
681.25	28051.32
681.39	28243.24
681.52	27796.20
681.66	27672.15
681.80	27445.12
681.94	27475.55
682.07	27665.13
682.21	27475.55
682.35	27681.52
682.49	27117.45
682.62	27082.34
682.76	27433.42
682.90	27297.67
683.04	27227.45
683.17	27213.41
683.31	26932.54
683.45	26611.89
683.59	26782.75
683.72	26506.57
683.86	26492.52
684.00	26188.25
684.13	26363.79
684.27	26211.66
684.41	26115.70
684.55	25935.48
684.68	26075.91
684.82	25853.56
684.96	25872.28
685.09	25591.42
685.23	25687.38
685.37	26033.78
685.50	25872.28
685.64	25743.55
685.78	25544.61
685.91	25041.39
686.05	25127.99
686.19	24636.48
686.32	24659.88
686.46	24287.74
686.60	24524.13
686.73	24549.88
686.87	24348.59
687.01	24624.78
687.14	24507.75
687.28	24184.76
687.42	24198.80
687.55	23754.10
687.69	24020.92
687.82	23812.61
687.96	24294.76
688.10	23789.20
688.23	23747.08
688.37	23793.89
688.50	23873.46
688.64	23583.24
688.78	23648.77
688.91	23470.89
689.05	23173.64
689.18	22953.63
689.32	22857.67
689.46	22628.30
689.59	22785.12
689.73	22864.69
689.86	23023.85
690.00	22829.59
690.13	22658.73
690.27	22302.96
690.41	22862.35
690.54	22183.60
690.68	22010.40
690.81	22202.32
690.95	22129.77
691.08	21717.83
691.22	21523.57
691.35	21439.31
691.49	21788.05
691.62	21762.30
691.76	21139.72
691.89	21525.91
692.03	20879.92
692.16	21067.16
692.30	21001.63
692.43	20961.84
692.57	20346.28
692.70	20734.81
692.84	20720.76
692.97	20673.95
693.11	20465.64
693.24	20372.02
693.38	20128.61
693.51	20161.37
693.65	19896.89
693.78	19683.91
693.92	19868.81
694.05	19910.94
694.19	19424.11
694.32	19754.12
694.45	20004.56
694.59	19704.97
694.72	19599.65
694.86	19138.56
694.99	19042.60
695.13	19126.86
695.26	18995.79
695.39	18743.01
695.53	18972.38
695.66	19026.21
695.80	18988.77
695.93	19096.43
696.07	18565.13
696.20	18127.45
696.33	18097.02
696.47	18284.26
696.60	18022.12
696.73	18005.74
696.87	17820.84
697.00	18190.64
697.14	18167.24
697.27	17680.41
697.40	17589.13
697.54	17624.23
697.67	17593.81
697.80	17921.48
697.94	17825.52
698.07	17294.22
698.21	17263.79
698.34	17399.54
698.47	17289.54
698.61	16725.47
698.74	16737.17
698.87	16893.99
699.01	16673.98
699.14	16556.95
699.27	16624.83
699.40	16496.10
699.54	16540.57
699.67	16652.91
699.80	16395.45
699.94	16308.85
700.07	16304.17
700.20	16212.89
700.34	16023.31
700.47	15796.28
700.60	16070.12
700.73	15922.66
700.87	15630.10
701.00	15777.55
701.13	15473.28
701.26	15557.54
701.40	15253.27
701.53	15379.66
701.66	15290.72
701.79	15185.40
701.93	15180.71
702.06	15302.42
702.19	14897.51
702.32	14979.43
702.46	15164.33
702.59	15059.01
702.72	14743.03
702.85	14586.22
702.99	15009.86
703.12	14466.85
703.25	14333.44
703.38	14434.08
703.51	14649.41
703.65	14216.41
703.78	14178.97
703.91	14008.11
704.04	14012.79
704.17	13900.44
704.31	13734.26
704.44	13816.18
704.57	13855.97
704.70	13921.51
704.83	13397.23
704.96	13366.80
705.10	13193.60
705.23	13394.89
>>>>>End Processed Spectral Data<<<<<
