SpectraSuite Data File
++++++++++++++++++++++++++++++++++++
Date: Fri Oct 25 11:33:53 EDT 2013
User: price-jones
Dark Spectrum Present: No
Reference Spectrum Present: No
Number of Sampled Component Spectra: 1
Spectrometers: USB2+H05261
Integration Time (usec): 100000 (USB2+H05261)
Spectra Averaged: 1 (USB2+H05261)
Boxcar Smoothing: 0 (USB2+H05261)
Correct for Electrical Dark: No (USB2+H05261)
Strobe/Lamp Enabled: No (USB2+H05261)
Correct for Detector Non-linearity: No (USB2+H05261)
Correct for Stray Light: No (USB2+H05261)
Number of Pixels in Processed Spectrum: 2048
>>>>>Begin Processed Spectral Data<<<<<
365.73	236.39
365.92	236.39
366.12	236.39
366.32	212.99
366.52	128.73
366.72	215.33
366.91	140.43
367.11	182.56
367.31	159.16
367.51	220.01
367.70	241.08
367.90	238.73
368.10	177.88
368.30	152.13
368.49	161.50
368.69	180.22
368.89	210.65
369.09	276.18
369.28	264.48
369.48	285.55
369.68	184.90
369.87	215.33
370.07	210.65
370.27	238.73
370.47	297.25
370.66	507.90
370.86	500.87
371.06	599.18
371.25	622.58
371.45	550.03
371.65	638.97
371.84	613.22
372.04	507.90
372.24	608.54
372.44	653.01
372.63	608.54
372.83	624.92
373.03	596.84
373.22	596.84
373.42	676.41
373.62	660.03
373.81	627.26
374.01	664.71
374.21	599.18
374.40	685.78
374.60	711.52
374.79	610.88
374.99	615.56
375.19	643.65
375.38	671.73
375.58	688.12
375.78	566.41
375.97	788.76
376.17	727.91
376.37	622.58
376.56	592.16
376.76	580.45
376.95	699.82
377.15	711.52
377.35	704.50
377.54	702.16
377.74	671.73
377.93	683.44
378.13	713.86
378.33	678.76
378.52	678.76
378.72	856.64
378.91	720.88
379.11	648.33
379.31	763.01
379.50	751.31
379.70	802.80
379.89	751.31
380.09	704.50
380.28	753.65
380.48	697.48
380.68	674.07
380.87	765.36
381.07	704.50
381.26	723.23
381.46	725.57
381.65	706.84
381.85	746.63
382.04	758.33
382.24	791.10
382.43	784.08
382.63	821.53
382.83	788.76
383.02	805.14
383.22	873.02
383.41	812.17
383.61	802.80
383.80	812.17
384.00	748.97
384.19	809.83
384.39	814.51
384.58	758.33
384.78	772.38
384.97	791.10
385.17	847.27
385.36	844.93
385.56	795.78
385.75	830.89
385.95	798.12
386.14	898.77
386.34	873.02
386.53	940.90
386.72	847.27
386.92	854.30
387.11	854.30
387.31	816.85
387.50	880.04
387.70	887.06
387.89	814.51
388.09	875.36
388.28	866.00
388.48	894.08
388.67	971.32
388.86	896.43
389.06	985.37
389.25	943.24
389.45	980.68
389.64	903.45
389.84	933.87
390.03	961.96
390.22	919.83
390.42	959.62
390.61	866.00
390.81	933.87
391.00	903.45
391.19	980.68
391.39	992.39
391.58	1043.88
391.78	1027.50
391.97	1013.45
392.16	945.58
392.36	1060.26
392.55	987.71
392.75	1118.78
392.94	964.30
393.13	1097.71
393.33	985.37
393.52	1018.13
393.71	1090.69
393.91	1086.01
394.10	1102.39
394.29	1153.88
394.49	1078.99
394.68	1086.01
394.88	1111.75
395.07	1177.29
395.26	1156.22
395.46	1118.78
395.65	1081.33
395.84	1184.31
396.04	1233.46
396.23	1139.84
396.42	1193.67
396.62	1247.51
396.81	1090.69
397.00	1287.29
397.19	1210.06
397.39	1184.31
397.58	1282.61
397.77	1277.93
397.97	1254.53
398.16	1205.38
398.35	1268.57
398.55	1240.48
398.74	1247.51
398.93	1345.81
399.12	1282.61
399.32	1249.85
399.51	1310.70
399.70	1334.11
399.90	1291.98
400.09	1310.70
400.28	1348.15
400.47	1401.98
400.67	1500.28
400.86	1383.26
401.05	1416.02
401.24	1444.11
401.44	1451.13
401.63	1455.81
401.82	1425.39
402.01	1416.02
402.21	1437.09
402.40	1547.09
402.59	1462.83
402.78	1495.60
402.97	1394.96
403.17	1390.28
403.36	1591.56
403.55	1659.44
403.74	1556.46
403.93	1692.21
404.13	1629.01
404.32	1591.56
404.51	1631.35
404.70	1577.52
404.89	1659.44
405.09	1790.51
405.28	1673.48
405.47	1678.16
405.66	1710.93
405.85	1682.85
406.05	1666.46
406.24	1762.42
406.43	1706.25
406.62	1783.49
406.81	1853.70
407.00	1739.02
407.20	1778.81
407.39	1792.85
407.58	1767.10
407.77	1811.57
407.96	1949.67
408.15	1811.57
408.34	1928.60
408.54	1881.79
408.73	1844.34
408.92	1998.82
409.11	1973.07
409.30	1973.07
409.49	2019.88
409.68	1961.37
409.87	2029.24
410.07	2022.22
410.26	2094.78
410.45	2108.82
410.64	2031.58
410.83	2080.74
411.02	2104.14
411.21	2190.74
411.40	2134.57
411.59	2190.74
411.78	2181.38
411.98	2139.25
412.17	2286.70
412.36	2312.45
412.55	2270.32
412.74	2249.25
412.93	2289.04
413.12	2296.07
413.31	2380.32
413.50	2352.24
413.69	2321.81
413.88	2462.24
414.07	2401.39
414.26	2595.65
414.45	2473.95
414.64	2511.39
414.83	2609.70
415.02	2516.08
415.22	2708.00
415.41	2595.65
415.60	2628.42
415.79	2710.34
415.98	2647.15
416.17	2689.28
416.36	2752.47
416.55	2782.90
416.74	2867.16
416.93	2759.49
417.12	2759.49
417.31	2860.13
417.50	2867.16
417.69	2892.90
417.88	2965.46
418.07	2871.84
418.26	2944.39
418.45	2869.50
418.64	3026.31
418.83	3082.49
419.02	3045.04
419.21	3096.53
419.39	3002.91
419.58	3009.93
419.77	2979.50
419.96	3192.49
420.15	3171.43
420.34	3033.33
420.53	3267.39
420.72	3251.00
420.91	3089.51
421.10	3262.71
421.29	3332.92
421.48	3171.43
421.67	3297.81
421.86	3283.77
422.05	3288.45
422.24	3262.71
422.43	3229.94
422.61	3293.13
422.80	3393.78
422.99	3342.28
423.18	3302.50
423.37	3407.82
423.56	3339.94
423.75	3524.85
423.94	3330.58
424.13	3192.49
424.32	3281.43
424.50	3480.38
424.69	3527.19
424.88	3431.23
425.07	3398.46
425.26	3311.86
425.45	3290.79
425.64	3398.46
425.83	3440.59
426.01	3361.01
426.20	3323.56
426.39	3501.44
426.58	3578.68
426.77	3466.33
426.96	3630.17
427.15	3531.87
427.33	3438.25
427.52	3583.36
427.71	3550.59
427.90	3634.85
428.09	3627.83
428.28	3595.06
428.46	3719.11
428.65	3566.98
428.84	3655.92
429.03	3768.26
429.22	3646.55
429.40	3803.37
429.59	3733.15
429.78	3574.00
429.97	3557.61
430.16	3691.02
430.34	3882.95
430.53	3772.94
430.72	3808.05
430.91	4009.34
431.10	3845.50
431.28	3936.78
431.47	3878.27
431.66	4011.68
431.85	3971.89
432.03	4126.36
432.22	4088.92
432.41	3985.93
432.60	3974.23
432.79	4128.70
432.97	4070.19
433.16	4175.52
433.35	4180.20
433.54	4217.65
433.72	4273.82
433.91	4124.02
434.10	4224.67
434.28	4156.79
434.47	4250.41
434.66	4219.99
434.85	4271.48
435.03	4257.43
435.22	4283.18
435.41	4381.48
435.59	4367.44
435.78	4475.10
435.97	4475.10
436.16	4381.48
436.34	4465.74
436.53	4456.38
436.72	4517.23
436.90	4339.35
437.09	4470.42
437.28	4395.53
437.46	4573.41
437.65	4709.16
437.84	4610.86
438.02	4519.57
438.21	4720.86
438.40	4692.77
438.58	4786.40
438.77	4758.31
438.96	4772.35
439.14	4774.69
439.33	4732.56
439.52	5048.54
439.70	4947.89
439.89	5008.75
440.08	5008.75
440.26	4975.98
440.45	4968.96
440.63	5064.92
440.82	5071.94
441.01	5109.39
441.19	5247.48
441.38	5252.16
441.57	5303.65
441.75	5277.91
441.94	5472.17
442.12	5444.09
442.31	5453.45
442.50	5437.06
442.68	5324.72
442.87	5472.17
443.05	5563.45
443.24	5624.31
443.43	5526.00
443.61	5488.56
443.80	5584.52
443.98	5280.25
444.17	5362.17
444.35	5441.75
444.54	5561.11
444.73	5537.71
444.91	5521.32
445.10	5795.17
445.28	5727.29
445.47	5568.13
445.65	5753.04
445.84	5607.92
446.02	5746.02
446.21	5596.22
446.39	5547.07
446.58	5795.17
446.77	5736.65
446.95	5636.01
447.14	5654.73
447.32	5738.99
447.51	5785.80
447.69	5682.82
447.88	5886.45
448.06	5689.84
448.25	5757.72
448.43	5703.89
448.62	5750.70
448.80	5844.32
448.99	5870.06
449.17	5935.60
449.36	5989.43
449.54	5987.09
449.73	5989.43
449.91	6057.31
450.10	6003.47
450.28	5998.79
450.46	6174.33
450.65	5926.24
450.83	5923.90
451.02	6122.84
451.20	6216.46
451.39	6146.25
451.57	6097.10
451.76	6155.61
451.94	6331.15
452.13	6256.25
452.31	6143.91
452.49	6190.72
452.68	6279.66
452.86	6260.93
453.05	6448.18
453.23	6328.81
453.42	6230.51
453.60	6354.55
453.78	6485.62
453.97	6296.04
454.15	6427.11
454.34	6253.91
454.52	6511.37
454.70	6509.03
454.89	6485.62
455.07	6604.99
455.26	6707.98
455.44	6733.72
455.62	6626.06
455.81	6686.91
455.99	6733.72
456.17	6661.16
456.36	6670.53
456.54	6974.80
456.73	6803.94
456.91	6864.79
457.09	7007.56
457.28	7098.84
457.46	6874.15
457.64	6820.32
457.83	7054.37
458.01	6932.67
458.19	7192.47
458.38	7101.19
458.56	7000.54
458.74	7173.74
458.93	7197.15
459.11	7260.34
459.29	7183.10
459.48	7145.66
459.66	7122.25
459.84	7225.23
460.03	7447.58
460.21	7283.75
460.39	7246.30
460.57	7492.05
460.76	7487.37
460.94	7386.73
461.12	7566.95
461.31	7559.93
461.49	7548.23
461.67	7524.82
461.85	7552.91
462.04	7513.12
462.22	7943.78
462.40	7639.51
462.59	7705.04
462.77	7698.02
462.95	7693.34
463.13	7868.88
463.32	7943.78
463.50	8035.06
463.68	8011.65
463.86	7756.54
464.05	7833.77
464.23	7777.60
464.41	8203.58
464.59	7836.11
464.78	7999.95
464.96	7864.20
465.14	7836.11
465.32	8051.44
465.50	8016.33
465.69	8191.88
465.87	8154.43
466.05	8002.29
466.23	8065.49
466.41	8056.12
466.60	8463.38
466.78	8016.33
466.96	8250.39
467.14	8393.16
467.32	8147.40
467.51	8477.42
467.69	8121.66
467.87	8154.43
468.05	8301.88
468.23	8201.24
468.41	8311.24
468.60	8435.29
468.78	8367.42
468.96	8454.02
469.14	8430.61
469.32	8451.67
469.50	8360.39
469.69	8727.86
469.87	8664.66
470.05	8547.64
470.23	8610.83
470.41	8774.67
470.59	8823.82
470.77	8624.87
470.95	8634.24
471.14	9205.33
471.32	8856.59
471.50	8849.57
471.68	8940.85
471.86	9109.36
472.04	8985.32
472.22	9298.95
472.40	8912.76
472.58	9198.31
472.77	9327.03
472.95	9334.06
473.13	9511.94
473.31	9289.59
473.49	9362.14
473.67	9336.40
473.85	9387.89
474.03	9729.61
474.21	9547.05
474.39	9783.44
474.57	9619.60
474.75	9919.19
474.93	10036.22
475.12	10012.81
475.30	9830.25
475.48	9858.34
475.66	10029.20
475.84	9839.61
476.02	10190.69
476.20	10265.59
476.38	10305.38
476.56	10614.33
476.74	10473.90
476.92	10471.56
477.10	10499.64
477.28	10597.95
477.46	10501.98
477.64	10759.44
477.82	11087.12
478.00	11332.87
478.18	10946.69
478.36	11152.65
478.54	11272.02
478.72	11227.55
478.90	11426.50
479.08	11555.22
479.26	11606.72
479.44	11536.50
479.62	11733.11
479.80	11761.19
479.98	11920.35
480.16	12269.09
480.34	11992.90
480.52	12212.92
480.70	12058.44
480.88	12077.16
481.06	12156.74
481.24	12477.40
481.41	12648.26
481.59	12498.46
481.77	12725.49
481.95	12957.21
482.13	12968.91
482.31	12886.99
482.49	13603.19
482.67	13240.41
482.85	13308.29
483.03	13350.42
483.21	13650.00
483.39	13586.81
483.57	13261.48
483.74	13987.04
483.92	14078.32
484.10	14017.47
484.28	14279.61
484.46	14455.15
484.64	14604.94
484.82	14391.95
485.00	14920.92
485.18	14930.28
485.35	15066.03
485.53	14792.19
485.71	15122.20
485.89	15438.17
486.07	15054.33
486.25	15440.51
486.43	15382.00
486.61	15660.52
486.78	15880.53
486.96	15768.19
487.14	16177.78
487.32	16063.10
487.50	16149.70
487.68	16245.66
487.85	16659.93
488.03	16875.26
488.21	16886.97
488.39	16802.71
488.57	17022.72
488.75	17118.68
488.92	17181.87
489.10	17521.25
489.28	17308.26
489.46	17675.73
489.64	17970.63
489.81	18019.78
489.99	18178.94
490.17	17818.50
490.35	18279.58
490.53	18630.66
490.70	18588.53
490.88	18560.45
491.06	18876.42
491.24	18787.48
491.41	18965.36
491.59	19227.50
491.77	18958.34
491.95	19199.41
492.13	19360.91
492.30	19543.47
492.48	19796.25
492.66	19522.41
492.84	19988.18
493.01	19983.49
493.19	20336.91
493.37	20198.82
493.54	20348.62
493.72	20594.37
493.90	20156.69
494.08	20896.30
494.25	21245.04
494.43	21083.55
494.61	21156.10
494.79	21095.25
494.96	21263.77
495.14	21535.27
495.32	21380.79
495.49	21642.93
495.67	21848.90
495.85	21759.96
496.02	21930.82
496.20	22419.99
496.38	22293.60
496.55	22434.03
496.73	22649.36
496.91	22616.60
497.09	22785.12
497.26	22632.98
497.44	22845.97
497.62	22920.87
497.79	23222.80
497.97	22860.01
498.14	23569.19
498.32	23344.50
498.50	23304.71
498.67	23800.91
498.85	23494.30
499.03	24215.18
499.20	23908.57
499.38	24159.01
499.56	24369.66
499.73	24177.73
499.91	24713.72
500.08	24657.54
500.26	24439.87
500.44	24816.70
500.61	24706.70
500.79	24687.97
500.97	24645.84
501.14	25200.55
501.32	25163.10
501.49	25032.03
501.67	25245.02
501.84	25603.12
502.02	25549.29
502.20	25233.32
502.37	25436.94
502.55	25696.74
502.72	25720.15
502.90	25680.36
503.07	25603.12
503.25	25984.63
503.43	25790.36
503.60	26314.64
503.78	26520.61
503.95	26377.84
504.13	26143.78
504.30	26738.28
504.48	26618.91
504.65	26775.73
504.83	26544.02
505.01	27007.44
505.18	27126.81
505.36	27515.34
505.53	26967.65
505.71	27208.73
505.88	27260.22
506.06	27384.27
506.23	27529.38
506.41	27063.61
506.58	27332.78
506.76	27728.33
506.93	27852.38
507.11	27810.25
507.28	28329.84
507.46	28203.46
507.63	27999.83
507.81	28299.42
507.98	28364.95
508.16	28467.94
508.33	28240.90
508.50	28416.44
508.68	28521.77
508.85	28364.95
509.03	28643.48
509.20	29120.95
509.38	28978.17
509.55	29160.73
509.73	29392.45
509.90	29230.95
510.08	29233.29
510.25	29415.85
510.42	29378.40
510.60	29546.92
510.77	29614.80
510.95	29986.94
511.12	29771.61
511.30	29762.25
511.47	29881.62
511.64	29905.02
511.82	30199.93
511.99	30078.22
512.17	30412.92
512.34	29986.94
512.51	30635.27
512.69	30848.26
512.86	30808.47
513.04	30822.51
513.21	30705.49
513.38	31103.38
513.56	31201.68
513.73	31171.25
513.90	30986.35
514.08	31115.08
514.25	31140.83
514.43	31419.35
514.60	31519.99
514.77	31800.86
514.95	31536.38
515.12	31857.03
515.29	31463.82
515.47	31409.99
515.64	31637.02
515.81	31779.79
515.99	32196.41
516.16	32297.05
516.33	32112.15
516.51	32205.77
516.68	32140.24
516.85	32243.22
517.03	32549.83
517.20	32730.05
517.37	32910.27
517.54	32795.59
517.72	32697.28
517.89	32584.94
518.06	32601.32
518.24	32985.17
518.41	33088.15
518.58	32753.46
518.75	32751.12
518.93	33092.83
519.10	33097.52
519.27	33347.95
519.45	33376.04
519.62	33528.17
519.79	33743.50
519.96	33324.55
520.14	33507.11
520.31	33553.92
520.48	33820.74
520.65	33780.95
520.83	34284.17
521.00	34195.23
521.17	33858.19
521.34	34438.64
521.52	34370.77
521.69	34787.38
521.86	34616.52
522.03	34684.40
522.20	34576.73
522.38	35220.38
522.55	35154.85
522.72	34445.66
522.89	34866.96
523.07	35239.11
523.24	34719.51
523.41	35079.95
523.58	34653.97
523.75	35040.16
523.92	34670.36
524.10	35590.19
524.27	35431.03
524.44	35522.31
524.61	35967.01
524.78	35489.54
524.96	35426.35
525.13	35526.99
525.30	35894.46
525.47	35524.65
525.64	35999.78
525.81	36055.95
525.98	36226.81
526.16	36002.12
526.33	36201.07
526.50	36428.10
526.67	36046.59
526.84	36105.10
527.01	36236.17
527.18	36737.05
527.36	36690.24
527.53	36730.03
527.70	37331.54
527.87	36931.31
528.04	36964.08
528.21	37188.77
528.38	37354.95
528.55	36959.40
528.72	37209.84
528.89	36385.97
529.07	37102.17
529.24	36732.37
529.41	38024.34
529.58	36641.09
529.75	37240.26
529.92	37170.05
530.09	37511.77
530.26	37397.08
530.43	37794.97
530.60	37731.78
530.77	37521.13
530.94	37867.53
531.11	37567.94
531.28	37759.86
531.46	38038.39
531.63	37935.40
531.80	38103.92
531.97	38108.60
532.14	38244.35
532.31	37991.58
532.48	38185.84
532.65	38717.14
532.82	38256.06
532.99	38611.82
533.16	38258.40
533.33	38462.02
533.50	38469.04
533.67	37933.06
533.84	38532.24
534.01	38850.55
534.18	38815.44
534.35	39033.11
534.52	38993.32
534.69	38995.67
534.86	38857.57
535.03	38787.36
535.20	39494.20
535.37	39313.98
535.54	39351.43
535.71	39283.55
535.88	39215.68
536.05	39086.95
536.22	39583.14
536.38	39543.35
536.55	39721.23
536.72	39407.60
536.89	39508.24
537.06	39686.12
537.23	39873.37
537.40	39566.76
537.57	39608.89
537.74	39922.52
537.91	40210.40
538.08	40135.51
538.25	39761.02
538.42	39620.59
538.59	40027.84
538.75	40093.38
538.92	40404.67
539.09	40472.54
539.26	40130.83
539.43	39999.76
539.60	40219.77
539.77	40390.62
539.94	40748.73
540.11	40512.33
540.28	40722.98
540.44	40297.00
540.61	40830.65
540.78	40456.16
540.95	40524.04
541.12	40858.73
541.29	40863.41
541.46	40390.62
541.62	41127.89
541.79	40994.48
541.96	40627.02
542.13	40055.93
542.30	40800.22
542.47	41017.89
542.63	41200.45
542.80	41263.64
542.97	41366.63
543.14	41813.67
543.31	41771.54
543.48	41240.24
543.64	42031.34
543.81	41523.44
543.98	41745.80
544.15	41560.89
544.32	41759.84
544.48	41956.44
544.65	41958.78
544.82	41862.82
544.99	42181.13
545.16	41855.80
545.32	41666.22
545.49	42066.45
545.66	43040.11
545.83	42012.62
546.00	42539.24
546.16	42281.78
546.33	42328.59
546.50	42110.92
546.67	42447.96
546.83	42216.24
547.00	42272.42
547.17	42014.96
547.34	42635.20
547.50	42567.32
547.67	42967.55
547.84	42520.51
548.00	42969.90
548.17	43152.46
548.34	42862.23
548.51	43213.31
548.67	43068.20
548.84	43147.78
549.01	42735.84
549.18	43049.47
549.34	43356.08
549.51	43299.91
549.68	43416.94
549.84	42815.42
550.01	43601.84
550.18	42689.03
550.34	43524.60
550.51	43693.12
550.68	43267.14
550.84	43255.44
551.01	44142.50
551.18	43580.78
551.34	43337.36
551.51	43906.11
551.68	43679.08
551.84	43393.53
552.01	43426.30
552.18	43583.12
552.34	43423.96
552.51	43585.46
552.68	43693.12
552.84	44046.54
553.01	43672.06
553.18	43585.46
553.34	43924.83
553.51	43407.58
553.67	43952.92
553.84	44184.63
554.01	44172.93
554.17	43983.35
554.34	44362.51
554.51	44140.16
554.67	44783.81
554.84	44376.56
555.00	44339.11
555.17	44493.58
555.33	44538.05
555.50	44053.56
555.67	44465.50
555.83	44149.53
556.00	45069.36
556.16	44957.01
556.33	44774.45
556.50	44940.63
556.66	44795.51
556.83	44477.20
556.99	44966.37
557.16	44790.83
557.32	45078.72
557.49	44851.69
557.65	44802.53
557.82	45258.94
557.98	44940.63
558.15	44762.75
558.32	45102.12
558.48	44821.26
558.65	44811.90
558.81	45324.47
558.98	44622.31
559.14	44825.94
559.31	44903.18
559.47	45247.24
559.64	44776.79
559.80	45420.44
559.97	45422.78
560.13	44727.64
560.30	45291.71
560.46	45483.63
560.63	45261.28
560.79	45031.91
560.96	45696.62
561.12	45504.70
561.29	45492.99
561.45	45146.59
561.61	45399.37
561.78	45366.60
561.94	45408.73
562.11	45703.64
562.27	45949.40
562.44	45345.54
562.60	45680.24
562.77	45603.00
562.93	45181.70
563.10	46026.63
563.26	45558.53
563.42	45792.58
563.59	45453.20
563.75	45605.34
563.92	45490.65
564.08	45771.52
564.24	45621.72
564.41	45928.33
564.57	45975.14
564.74	45734.07
564.90	45684.92
565.07	45350.22
565.23	45610.02
565.39	45832.37
565.56	45879.18
565.72	45588.95
565.88	46239.62
566.05	46153.02
566.21	46007.91
566.38	46181.11
566.54	45839.39
566.70	45991.53
566.87	45867.48
567.03	45977.48
567.19	46092.17
567.36	46087.49
567.52	45977.48
567.68	46319.20
567.85	46066.42
568.01	46433.89
568.17	46162.39
568.34	46396.44
568.50	46452.61
568.66	46085.15
568.83	46138.98
568.99	45862.80
569.15	45776.20
569.32	45984.51
569.48	46178.77
569.64	46361.33
569.81	46635.17
569.97	46251.33
570.13	46925.40
570.30	45965.78
570.46	46415.16
570.62	46576.66
570.78	46632.83
570.95	46569.64
571.11	46361.33
571.27	46272.39
571.43	45956.42
571.60	46738.16
571.76	46611.77
571.92	46532.19
572.09	46543.89
572.25	46478.36
572.41	46344.95
572.57	46288.77
572.74	46733.48
572.90	46433.89
573.06	46689.01
573.22	47026.04
573.38	46717.09
573.55	46852.84
573.71	47063.49
573.87	46560.28
574.03	46780.29
574.20	46976.89
574.36	46567.30
574.52	46738.16
574.68	46693.69
574.84	46979.23
575.01	46717.09
575.17	46913.70
575.33	46583.68
575.49	46700.71
575.65	47049.45
575.82	46593.04
575.98	46564.96
576.14	46803.69
576.30	46904.34
576.46	46808.37
576.62	46703.05
576.79	46670.28
576.95	46534.53
577.11	46487.72
577.27	47232.01
577.43	46820.08
577.59	47033.07
577.75	46677.30
577.92	46103.87
578.08	46651.56
578.24	46911.36
578.40	46773.27
578.56	47189.88
578.72	47086.90
578.88	47019.02
579.04	47007.32
579.21	46990.94
579.37	47110.30
579.53	46859.87
579.69	46909.02
579.85	47107.96
580.01	46745.18
580.17	47477.77
580.33	47150.09
580.49	46330.90
580.65	46674.96
580.82	46890.29
580.98	46845.82
581.14	46747.52
581.30	47117.32
581.46	46974.55
581.62	46623.47
581.78	46714.75
581.94	46864.55
582.10	46827.10
582.26	47260.10
582.42	46988.60
582.58	47175.84
582.74	47224.99
582.90	47100.94
583.06	46876.25
583.22	46653.90
583.38	46890.29
583.54	47119.66
583.70	47164.14
583.86	47033.07
584.02	47131.37
584.18	47194.56
584.34	47356.06
584.50	47510.53
584.66	47014.34
584.82	47433.30
584.98	47723.52
585.14	47143.07
585.30	47171.16
585.46	47112.64
585.62	46913.70
585.78	47435.64
585.94	47040.09
586.10	46866.89
586.26	46997.96
586.42	47000.30
586.58	47320.95
586.74	47136.05
586.90	47309.25
587.06	46979.23
587.22	47578.41
587.38	47004.98
587.54	47650.97
587.70	47807.78
587.86	47009.66
588.02	47023.70
588.18	46878.59
588.34	47400.53
588.49	47297.55
588.65	46864.55
588.81	47608.84
588.97	47437.98
589.13	47559.69
589.29	47061.15
589.45	47653.31
589.61	47550.32
589.77	47473.09
589.93	47276.48
590.08	47540.96
590.24	47489.47
590.40	47643.94
590.56	47833.53
590.72	47519.90
590.88	46997.96
591.04	47213.29
591.20	47639.26
591.35	47700.12
591.51	48072.26
591.67	47906.08
591.83	47859.27
591.99	47697.78
592.15	47196.90
592.31	47405.21
592.46	47353.72
592.62	47327.97
592.78	47508.19
592.94	47770.33
593.10	48311.00
593.26	47980.98
593.41	47819.49
593.57	47721.18
593.73	48009.07
593.89	48144.82
594.05	47852.25
594.20	47777.36
594.36	48456.11
594.52	47854.59
594.68	47657.99
594.84	47482.45
594.99	48273.55
595.15	47962.26
595.31	47936.51
595.47	47618.20
595.62	47800.76
595.78	47985.66
595.94	48135.46
596.10	47845.23
596.25	47854.59
596.41	48179.93
596.57	47838.21
596.73	48053.54
596.88	47901.40
597.04	47636.92
597.20	47910.77
597.36	48039.50
597.51	48116.73
597.67	48198.65
597.83	47690.76
597.99	47959.92
598.14	48119.07
598.30	47838.21
598.46	48362.49
598.61	48278.23
598.77	47915.45
598.93	48631.65
599.09	48032.47
599.24	48575.48
599.40	47772.67
599.56	48161.20
599.71	48222.06
599.87	48374.19
600.03	48114.39
600.18	48098.01
600.34	48189.29
600.50	47952.90
600.65	47988.00
600.81	48545.05
600.97	48282.91
601.12	48126.10
601.28	47980.98
601.44	48156.52
601.59	48144.82
601.75	47751.61
601.91	48481.86
602.06	47908.43
602.22	48406.96
602.37	47990.34
602.53	48121.41
602.69	48404.62
602.84	47838.21
603.00	47831.19
603.16	47915.45
603.31	48203.33
603.47	48060.56
603.62	47976.30
603.78	48458.45
603.94	47957.58
604.09	47899.06
604.25	47969.28
604.40	47732.89
604.56	47819.49
604.71	48247.80
604.87	48095.67
605.03	48004.39
605.18	47791.40
605.34	48362.49
605.49	47782.04
605.65	48154.18
605.80	47999.71
605.96	47650.97
606.12	47985.66
606.27	47957.58
606.43	47491.81
606.58	48095.67
606.74	47650.97
606.89	47784.38
607.05	48357.81
607.20	48332.06
607.36	47739.91
607.51	47480.11
607.67	47826.51
607.82	47775.02
607.98	47665.01
608.13	47732.89
608.29	47812.46
608.44	47728.20
608.60	47428.62
608.75	47751.61
608.91	47660.33
609.06	47770.33
609.22	48095.67
609.37	47498.83
609.53	48098.01
609.68	48093.33
609.84	47732.89
609.99	47505.85
610.15	47419.25
610.30	47669.69
610.46	47924.81
610.61	47447.34
610.76	47655.65
610.92	47166.48
611.07	47564.37
611.23	47576.07
611.38	47936.51
611.54	47835.87
611.69	47789.06
611.84	47632.24
612.00	47716.50
612.15	47547.98
612.31	47732.89
612.46	46899.65
612.62	47526.92
612.77	47363.08
612.92	48058.22
613.08	47421.59
613.23	47622.88
613.39	47690.76
613.54	47365.42
613.69	47894.38
613.85	47370.10
614.00	47501.17
614.15	47681.39
614.31	47290.52
614.46	47023.70
614.62	47075.19
614.77	46948.81
614.92	47255.42
615.08	47416.91
615.23	47201.58
615.38	47386.49
615.54	47145.41
615.69	47484.79
615.84	47100.94
616.00	47283.50
616.15	47374.78
616.30	47271.80
616.46	46700.71
616.61	47250.74
616.76	47346.70
616.92	47274.14
617.07	46911.36
617.22	47311.59
617.37	46237.28
617.53	46997.96
617.68	46852.84
617.83	46932.42
617.99	47346.70
618.14	47100.94
618.29	46763.90
618.45	46665.60
618.60	47084.56
618.75	46405.80
618.90	46780.29
619.06	46855.18
619.21	46892.63
619.36	47131.37
619.51	46766.24
619.67	46691.35
619.82	46932.42
619.97	47072.85
620.12	47042.43
620.28	46553.26
620.43	47203.92
620.58	46817.74
620.73	47140.73
620.89	46902.00
621.04	46784.97
621.19	46756.88
621.34	46497.08
621.49	46656.24
621.65	46447.93
621.80	46780.29
621.95	46445.59
622.10	46541.55
622.25	46454.95
622.41	46550.91
622.56	46344.95
622.71	46487.72
622.86	46408.14
623.01	46454.95
623.16	46316.86
623.32	46040.68
623.47	46134.30
623.62	46178.77
623.77	46248.99
623.92	46241.96
624.07	46281.75
624.23	46609.43
624.38	46300.48
624.53	46300.48
624.68	45949.40
624.83	46131.96
624.98	46160.05
625.13	45483.63
625.29	45516.40
625.44	45865.14
625.59	45921.31
625.74	46167.07
625.89	45724.71
626.04	45904.93
626.19	45954.08
626.34	45790.24
626.49	45436.82
626.65	45897.91
626.80	45659.17
626.95	45432.14
627.10	45280.00
627.25	45975.14
627.40	45799.60
627.55	45876.84
627.70	45521.08
627.85	45858.12
628.00	45549.17
628.15	45595.98
628.30	45553.85
628.45	45673.21
628.60	45155.96
628.76	45385.33
628.91	45282.34
629.06	45003.82
629.21	45865.14
629.36	45024.89
629.51	45455.54
629.66	45319.79
629.81	45607.68
629.96	45251.92
630.11	45467.25
630.26	45127.87
630.41	45242.56
630.56	45001.48
630.71	45364.26
630.86	45167.66
631.01	44678.49
631.16	45123.19
631.31	44938.29
631.46	44814.24
631.61	45401.71
631.76	45013.18
631.91	44722.96
632.06	45581.93
632.21	45083.40
632.36	45116.17
632.51	44292.30
632.66	44994.46
632.81	45024.89
632.96	44685.51
633.10	44619.97
633.25	44832.96
633.40	44786.15
633.55	45233.19
633.70	44823.60
633.85	44381.24
634.00	44603.59
634.15	44484.22
634.30	44622.31
634.45	44289.96
634.60	44825.94
634.75	45006.16
634.90	44411.67
635.05	44748.70
635.19	44818.92
635.34	44449.11
635.49	44245.49
635.64	44467.84
635.79	44369.54
635.94	44177.61
636.09	44779.13
636.24	44114.42
636.39	44495.92
636.53	43983.35
636.68	44341.45
636.83	43952.92
636.98	44261.87
637.13	44081.65
637.28	43938.88
637.43	44156.55
637.57	44385.92
637.72	44030.16
637.87	43543.33
638.02	43901.43
638.17	43969.30
638.32	43482.47
638.46	43700.14
638.61	43910.79
638.76	43828.87
638.91	43643.97
639.06	43423.96
639.20	43278.85
639.35	43480.13
639.50	43508.22
639.65	43721.21
639.80	43716.53
639.94	44596.57
640.09	43800.79
640.24	43655.67
640.39	42955.85
640.54	43225.01
640.68	43564.39
640.83	43608.86
640.98	43438.00
641.13	43468.43
641.27	43770.36
641.42	43608.86
641.57	43377.15
641.72	43402.89
641.86	43377.15
642.01	43182.88
642.16	43510.56
642.31	42682.01
642.45	43285.87
642.60	42691.37
642.75	43377.15
642.90	42934.79
643.04	43316.29
643.19	42976.92
643.34	43051.81
643.48	42405.83
643.63	42883.30
643.78	42958.19
643.93	43000.32
644.07	43199.27
644.22	42827.12
644.37	42614.13
644.51	43136.07
644.66	43253.10
644.81	42696.05
644.95	42859.89
645.10	42658.60
645.25	42890.32
645.39	42796.70
645.54	42885.64
645.69	42417.53
645.83	42110.92
645.98	42424.55
646.13	42642.22
646.27	42576.69
646.42	42139.00
646.57	42047.72
646.71	42742.86
646.86	42857.55
647.00	42492.43
647.15	42614.13
647.30	42387.10
647.44	42108.58
647.59	42499.45
647.74	41963.46
647.88	42515.83
648.03	42464.34
648.17	42574.34
648.32	42429.23
648.47	42567.32
648.61	41731.75
648.76	42195.18
648.90	42176.45
649.05	42157.73
649.20	42232.63
649.34	42291.14
649.49	42045.38
649.63	42230.29
649.78	41867.50
649.92	42490.09
650.07	42555.62
650.21	42539.24
650.36	42653.92
650.51	41963.46
650.65	42396.46
650.80	41897.93
650.94	42171.77
651.09	42003.25
651.23	41408.76
651.38	41397.06
651.52	41750.48
651.67	41455.57
651.81	41626.43
651.96	41684.94
652.10	41301.09
652.25	41387.69
652.39	41764.52
652.54	41450.89
652.68	40992.14
652.83	41689.62
652.97	41731.75
653.12	41392.37
653.26	41448.55
653.41	41570.25
653.55	41577.28
653.70	41539.83
653.84	41486.00
653.99	41684.94
654.13	41453.23
654.27	41106.83
654.42	41558.55
654.56	41312.80
654.71	41457.91
654.85	41979.85
655.00	41015.55
655.14	41509.40
655.29	41574.94
655.43	41670.90
655.57	41134.92
655.72	40832.99
655.86	40781.49
656.01	40753.41
656.15	40816.60
656.30	40973.42
656.44	40938.31
656.58	40966.40
656.73	41041.29
656.87	40835.33
657.01	40760.43
657.16	40966.40
657.30	40844.69
657.45	40877.46
657.59	40610.64
657.73	40259.55
657.88	40142.53
658.02	40573.19
658.16	40732.34
658.31	40669.15
658.45	40339.13
658.60	40301.68
658.74	40224.45
658.88	40641.06
659.03	40531.06
659.17	40505.31
659.31	40100.40
659.46	40172.96
659.60	40079.33
659.74	40088.70
659.89	40069.97
660.03	39856.98
660.17	40222.11
660.32	39807.83
660.46	39533.99
660.60	39484.84
660.74	39548.03
660.89	40098.06
661.03	39538.67
661.17	39456.75
661.32	39526.97
661.46	39566.76
661.60	39613.57
661.74	39730.59
661.89	39227.38
662.03	39739.96
662.17	39021.41
662.31	39311.64
662.46	39232.06
662.60	39323.34
662.74	38920.77
662.88	39014.39
663.03	38869.28
663.17	38403.51
663.31	38653.95
663.45	38979.28
663.60	38759.27
663.74	38426.92
663.88	38794.38
664.02	38485.43
664.17	38820.13
664.31	38586.07
664.45	38286.48
664.59	38340.32
664.73	38258.40
664.88	38464.36
665.02	37837.10
665.16	37628.79
665.30	38251.38
665.44	38576.71
665.59	37860.51
665.73	38007.96
665.87	37338.57
666.01	37848.80
666.15	37635.81
666.29	37560.92
666.44	37816.04
666.58	37766.88
666.72	37659.22
666.86	37717.73
667.00	37680.28
667.14	37464.96
667.28	37724.75
667.43	37010.89
667.57	37633.47
667.71	37343.25
667.85	37111.53
667.99	37130.26
668.13	36851.73
668.27	36804.92
668.41	37106.85
668.56	36538.10
668.70	36825.99
668.84	36411.71
668.98	36699.60
669.12	36554.49
669.26	36575.55
669.40	36519.38
669.54	36676.19
669.68	36266.60
669.82	36098.08
669.96	36140.21
670.10	35833.60
670.25	35693.17
670.39	35629.98
670.53	36086.38
670.67	36079.36
670.81	35882.75
670.95	35943.61
671.09	35924.88
671.23	35204.00
671.37	35517.63
671.51	35625.29
671.65	35473.16
671.79	35618.27
671.93	35412.31
672.07	35454.44
672.21	35519.97
672.35	35030.80
672.49	34829.51
672.63	35131.44
672.77	34714.83
672.91	34607.16
673.05	34719.51
673.19	34649.29
673.33	34543.97
673.47	34520.56
673.61	34384.81
673.75	34436.30
673.89	34487.79
674.03	34270.12
674.17	33972.88
674.31	34237.36
674.45	33525.83
674.59	33996.28
674.73	33944.79
674.87	33626.48
675.01	33750.52
675.15	33577.33
675.29	33373.70
675.43	33422.85
675.56	33654.56
675.70	33202.84
675.84	33062.41
675.98	32088.74
676.12	32617.71
676.26	32947.72
676.40	32980.49
676.54	32528.77
676.68	32580.26
676.82	31962.36
676.96	32573.24
677.10	32364.93
677.23	32601.32
677.37	32268.97
677.51	31899.16
677.65	31868.73
677.79	31864.05
677.93	31835.97
678.07	31835.97
678.21	31573.83
678.34	31349.14
678.48	31414.67
678.62	31534.04
678.76	31075.29
678.90	31243.81
679.04	30773.36
679.18	30918.48
679.31	30555.69
679.45	30581.44
679.59	30429.30
679.73	30639.95
679.87	30260.79
680.00	30551.01
680.14	30525.27
680.28	30431.65
680.42	30316.96
680.56	29993.97
680.70	29701.40
680.83	29806.72
680.97	29605.44
681.11	29586.71
681.25	29394.79
681.39	29544.58
681.52	28884.55
681.66	29228.61
681.80	28755.82
681.94	28814.34
682.07	28318.14
682.21	28655.18
682.35	28486.66
682.49	28456.23
682.62	28371.97
682.76	28589.64
682.90	28217.50
683.04	28182.39
683.17	28299.42
683.31	28133.24
683.45	27857.06
683.59	27697.90
683.72	27377.25
683.86	27445.12
684.00	27372.57
684.13	27618.32
684.27	26902.12
684.41	27084.68
684.55	26869.35
684.68	27215.75
684.82	26539.33
684.96	26902.12
685.09	26827.22
685.23	26480.82
685.37	27056.59
685.50	26984.04
685.64	26717.22
685.78	26541.68
685.91	26206.98
686.05	25937.82
686.19	25626.53
686.32	25907.39
686.46	25312.89
686.60	25446.30
686.73	25504.82
686.87	25549.29
687.01	25326.94
687.14	25268.42
687.28	25387.79
687.42	25200.55
687.55	25326.94
687.69	24992.24
687.82	25032.03
687.96	24669.25
688.10	24872.87
688.23	24652.86
688.37	24402.43
688.50	24692.65
688.64	24245.61
688.78	24718.40
688.91	24390.72
689.05	24254.97
689.18	24002.19
689.32	23681.54
689.46	23351.52
689.59	23246.20
689.73	24189.44
689.86	23892.19
690.00	23424.08
690.13	23667.50
690.27	23112.79
690.41	23435.78
690.54	23173.64
690.68	22817.88
690.81	22904.48
690.95	22574.47
691.08	22448.08
691.22	22717.24
691.35	22050.19
691.49	22532.34
691.62	22434.03
691.76	22221.05
691.89	21879.33
692.03	21902.73
692.16	21876.99
692.30	21994.01
692.43	21699.11
692.57	21640.59
692.70	21551.65
692.84	21132.70
692.97	20999.29
693.11	21125.68
693.24	21163.12
693.38	21013.33
693.51	20950.14
693.65	20695.02
693.78	20725.44
693.92	20959.50
694.05	20585.01
694.19	20709.06
694.32	20751.19
694.45	20421.17
694.59	20428.20
694.72	20517.14
694.86	19906.26
694.99	20266.70
695.13	19719.01
695.26	19723.69
695.39	19606.67
695.53	19606.67
695.66	19435.81
695.80	19339.85
695.93	19426.45
696.07	19400.70
696.20	19108.13
696.33	18916.21
696.47	19061.32
696.60	18967.70
696.73	19068.34
696.87	18792.16
697.00	18743.01
697.14	18441.08
697.27	18506.62
697.40	18211.71
697.54	18310.01
697.67	18438.74
697.80	18443.42
697.94	18288.95
698.07	18204.69
698.21	18019.78
698.34	17738.92
698.47	17591.47
698.61	17191.23
698.74	17294.22
698.87	17352.73
699.01	17188.89
699.14	17142.08
699.27	17371.46
699.40	17355.07
699.54	17202.94
699.67	17270.81
699.80	16833.13
699.94	16842.50
700.07	16699.72
700.20	16863.56
700.34	16718.45
700.47	16762.92
700.60	16683.34
700.73	16624.83
700.87	16325.24
701.00	16175.44
701.13	16145.02
701.26	16042.03
701.40	16100.55
701.53	15744.78
701.66	15976.50
701.79	15999.90
701.93	15503.71
702.06	15386.68
702.19	15396.04
702.32	15510.73
702.46	15569.24
702.59	15527.11
702.72	15543.50
702.85	15482.64
702.99	15136.24
703.12	15206.46
703.25	15014.54
703.38	14939.64
703.51	14686.86
703.65	14576.86
703.78	14384.93
703.91	14204.71
704.04	14487.92
704.17	14246.84
704.31	14415.36
704.44	14401.32
704.57	14295.99
704.70	14377.91
704.83	13933.21
704.96	14038.53
705.10	13750.65
705.23	13881.72
>>>>>End Processed Spectral Data<<<<<
