SpectraSuite Data File
++++++++++++++++++++++++++++++++++++
Date: Fri Oct 25 10:43:58 EDT 2013
User: price-jones
Dark Spectrum Present: No
Reference Spectrum Present: No
Number of Sampled Component Spectra: 1
Spectrometers: USB2+H05261
Integration Time (usec): 100000 (USB2+H05261)
Spectra Averaged: 1 (USB2+H05261)
Boxcar Smoothing: 0 (USB2+H05261)
Correct for Electrical Dark: No (USB2+H05261)
Strobe/Lamp Enabled: No (USB2+H05261)
Correct for Detector Non-linearity: No (USB2+H05261)
Correct for Stray Light: No (USB2+H05261)
Number of Pixels in Processed Spectrum: 2048
>>>>>Begin Processed Spectral Data<<<<<
365.73	124.05
365.92	124.05
366.12	124.05
366.32	95.96
366.52	86.60
366.72	2.34
366.91	14.04
367.11	18.72
367.31	63.19
367.51	0.00
367.70	23.41
367.90	84.26
368.10	0.00
368.30	4.68
368.49	0.00
368.69	32.77
368.89	49.15
369.09	4.68
369.28	0.00
369.48	0.00
369.68	70.22
369.87	107.66
370.07	110.01
370.27	102.98
370.47	187.24
370.66	433.00
370.86	435.34
371.06	444.70
371.25	472.79
371.45	517.26
371.65	477.47
371.84	437.68
372.04	510.24
372.24	514.92
372.44	526.62
372.63	510.24
372.83	479.81
373.03	538.32
373.22	484.49
373.42	603.86
373.62	510.24
373.81	505.56
374.01	535.98
374.21	575.77
374.40	599.18
374.60	613.22
374.79	564.07
374.99	575.77
375.19	634.29
375.38	582.79
375.58	629.60
375.78	627.26
375.97	624.92
376.17	676.41
376.37	582.79
376.56	615.56
376.76	622.58
376.95	678.76
377.15	720.88
377.35	578.11
377.54	657.69
377.74	683.44
377.93	697.48
378.13	592.16
378.33	697.48
378.52	641.31
378.72	615.56
378.91	655.35
379.11	571.09
379.31	690.46
379.50	641.31
379.70	709.18
379.89	650.67
380.09	660.03
380.28	685.78
380.48	730.25
380.68	699.82
380.87	720.88
381.07	755.99
381.26	746.63
381.46	725.57
381.65	746.63
381.85	650.67
382.04	697.48
382.24	711.52
382.43	676.41
382.63	674.07
382.83	678.76
383.02	746.63
383.22	828.55
383.41	732.59
383.61	791.10
383.80	795.78
384.00	753.65
384.19	858.98
384.39	669.39
384.58	828.55
384.78	779.40
384.97	793.44
385.17	753.65
385.36	823.87
385.56	807.48
385.75	828.55
385.95	880.04
386.14	861.32
386.34	896.43
386.53	905.79
386.72	772.38
386.92	809.83
387.11	786.42
387.31	795.78
387.50	800.46
387.70	889.40
387.89	901.11
388.09	833.23
388.28	833.23
388.48	971.32
388.67	1018.13
388.86	833.23
389.06	966.64
389.25	1104.73
389.45	976.00
389.64	994.73
389.84	1062.60
390.03	1018.13
390.22	1060.26
390.42	1008.77
390.61	1034.52
390.81	978.34
391.00	1074.31
391.19	1205.38
391.39	1102.39
391.58	1107.07
391.78	1050.90
391.97	1064.94
392.16	1064.94
392.36	1130.48
392.55	1163.25
392.75	1004.09
392.94	1067.28
393.13	908.13
393.33	1043.88
393.52	1067.28
393.71	1186.65
393.91	1107.07
394.10	1055.58
394.29	1181.97
394.49	1132.82
394.68	1291.98
394.88	1263.89
395.07	1270.91
395.26	1104.73
395.46	1240.48
395.65	1172.61
395.84	1296.66
396.04	1289.64
396.23	1167.93
396.42	1233.46
396.62	1221.76
396.81	1291.98
397.00	1266.23
397.19	1299.00
397.39	1313.04
397.58	1430.07
397.77	1409.00
397.97	1465.18
398.16	1423.05
398.35	1469.86
398.55	1481.56
398.74	1476.88
398.93	1535.39
399.12	1582.20
399.32	1432.41
399.51	1469.86
399.70	1661.78
399.90	1519.01
400.09	1657.10
400.28	1568.16
400.47	1762.42
400.67	1673.48
400.86	1713.27
401.05	1640.72
401.24	1741.36
401.44	1722.63
401.63	1748.38
401.82	1757.74
402.01	1722.63
402.21	1762.42
402.40	1813.92
402.59	1776.47
402.78	1816.26
402.97	1895.83
403.17	1743.70
403.36	1863.07
403.55	1926.26
403.74	1893.49
403.93	1846.68
404.13	1820.94
404.32	1907.54
404.51	1961.37
404.70	1970.73
404.89	1916.90
405.09	1973.07
405.28	1982.43
405.47	1952.01
405.66	1952.01
405.85	2078.40
406.05	2071.37
406.24	2108.82
406.43	2125.21
406.62	2141.59
406.81	2143.93
407.00	2101.80
407.20	2134.57
407.39	2200.10
407.58	2275.00
407.77	2342.88
407.96	2242.23
408.15	2300.75
408.34	2200.10
408.54	2209.47
408.73	2303.09
408.92	2303.09
409.11	2361.60
409.30	2356.92
409.49	2296.07
409.68	2289.04
409.87	2286.70
410.07	2370.96
410.26	2406.07
410.45	2422.45
410.64	2502.03
410.83	2551.18
411.02	2583.95
411.21	2530.12
411.40	2691.62
411.59	2693.96
411.78	2719.70
411.98	2647.15
412.17	2600.34
412.36	2724.38
412.55	2752.47
412.74	2806.30
412.93	2892.90
413.12	2771.19
413.31	2956.10
413.50	2897.58
413.69	2771.19
413.88	2993.55
414.07	3070.78
414.26	3173.77
414.45	3129.30
414.64	2944.39
414.83	3148.02
415.02	3105.89
415.22	3133.98
415.41	3169.09
415.60	3248.66
415.79	3349.31
415.98	3302.50
416.17	3220.58
416.36	3204.19
416.55	3323.56
416.74	3379.73
416.93	3258.03
417.12	3356.33
417.31	3346.97
417.50	3346.97
417.69	3588.04
417.88	3379.73
418.07	3522.51
418.26	3412.50
418.45	3531.87
418.64	3667.62
418.83	3623.15
419.02	3627.83
419.21	3653.58
419.39	3599.74
419.58	3749.54
419.77	3782.31
419.96	3754.22
420.15	3861.88
420.34	3777.62
420.53	3791.67
420.72	3922.74
420.91	3845.50
421.10	3922.74
421.29	4002.32
421.48	3990.61
421.67	3920.40
421.86	3941.46
422.05	3861.88
422.24	3740.18
422.43	3756.56
422.61	3981.25
422.80	3960.19
422.99	3988.27
423.18	3960.19
423.37	4002.32
423.56	3995.29
423.75	3946.14
423.94	3894.65
424.13	3784.65
424.32	3805.71
424.50	3946.14
424.69	3875.93
424.88	4004.66
425.07	4009.34
425.26	3896.99
425.45	3866.56
425.64	3889.97
425.83	4023.38
426.01	4231.69
426.20	4025.72
426.39	4184.88
426.58	3906.35
426.77	4070.19
426.96	3974.23
427.15	3978.91
427.33	4109.98
427.52	4049.13
427.71	4236.37
427.90	4107.64
428.09	4215.30
428.28	4201.26
428.46	4231.69
428.65	4109.98
428.84	4444.68
429.03	4402.55
429.22	4217.65
429.40	4114.66
429.59	4250.41
429.78	4084.23
429.97	4053.81
430.16	4028.06
430.34	4070.19
430.53	4154.45
430.72	4322.97
430.91	4351.06
431.10	4411.91
431.28	4643.62
431.47	4674.05
431.66	4732.56
431.85	4578.09
432.03	4622.56
432.22	4887.04
432.41	4755.97
432.60	4685.75
432.79	4704.48
432.97	4716.18
433.16	4720.86
433.35	4697.46
433.54	4732.56
433.72	4777.03
433.91	4641.28
434.10	4819.16
434.28	4901.08
434.47	5011.09
434.66	4940.87
434.85	4870.65
435.03	4966.62
435.22	4994.70
435.41	5249.82
435.59	5039.17
435.78	5219.39
435.97	5210.03
436.16	5195.99
436.34	5212.37
436.53	5352.81
436.72	5511.96
436.90	5191.31
437.09	5334.08
437.28	5315.36
437.46	5231.10
437.65	5399.62
437.84	5376.21
438.02	5149.18
438.21	5224.08
438.40	5263.86
438.58	5490.90
438.77	5423.02
438.96	5570.48
439.14	5741.33
439.33	5657.07
439.52	5722.61
439.70	5748.36
439.89	5628.99
440.08	5898.15
440.26	5769.42
440.45	5820.91
440.63	5998.79
440.82	5989.43
441.01	5827.93
441.19	6064.33
441.38	6263.27
441.57	6214.12
441.75	6282.00
441.94	6450.52
442.12	6403.71
442.31	6532.44
442.50	6399.02
442.68	6422.43
442.87	6441.15
443.05	6394.34
443.24	6722.02
443.43	6532.44
443.61	6420.09
443.80	6679.89
443.98	6469.24
444.17	6244.55
444.35	6717.34
444.54	6729.04
444.73	6658.82
444.91	6555.84
445.10	6628.40
445.28	6445.84
445.47	6520.73
445.65	6560.52
445.84	6532.44
446.02	6626.06
446.21	6499.67
446.39	6602.65
446.58	6808.62
446.77	6665.85
446.95	6707.98
447.14	6719.68
447.32	6846.07
447.51	6626.06
447.69	6911.60
447.88	6803.94
448.06	6895.22
448.25	6841.39
448.43	6736.06
448.62	6633.08
448.80	6848.41
448.99	6874.15
449.17	6890.54
449.36	6956.07
449.54	7213.53
449.73	7349.28
449.91	7199.49
450.10	7176.08
450.28	7328.22
450.46	7410.14
450.65	7447.58
450.83	7318.86
451.02	7337.58
451.20	7489.71
451.39	7321.20
451.57	7309.49
451.76	7311.83
451.94	7339.92
452.13	7339.92
452.31	7389.07
452.49	7206.51
452.68	7297.79
452.86	7307.15
453.05	7410.14
453.23	7595.04
453.42	7515.46
453.60	7384.39
453.78	7726.11
453.97	7358.64
454.15	7597.38
454.34	7489.71
454.52	7695.68
454.70	7651.21
454.89	7943.78
455.07	7852.50
455.26	7669.94
455.44	7946.12
455.62	7826.75
455.81	7805.69
455.99	8002.29
456.17	7925.05
456.36	8119.32
456.54	7955.48
456.73	8159.11
456.91	8241.03
457.09	8236.35
457.28	8376.78
457.46	8196.56
457.64	8353.37
457.83	8248.05
458.01	8114.64
458.19	8278.47
458.38	8348.69
458.56	8458.70
458.74	8388.48
458.93	8315.92
459.11	8437.63
459.29	8510.19
459.48	8470.40
459.66	8423.59
459.84	8798.07
460.03	8870.63
460.21	8713.81
460.39	8575.72
460.57	8552.32
460.76	8552.32
460.94	8669.34
461.12	8599.13
461.31	8931.48
461.49	8795.73
461.67	8840.20
461.85	8980.64
462.04	8777.01
462.22	9088.30
462.40	9034.47
462.59	9212.35
462.77	8945.53
462.95	9020.42
463.13	9111.71
463.32	8865.95
463.50	9156.18
463.68	9139.79
463.86	9062.55
464.05	8978.30
464.23	9074.26
464.41	9277.88
464.59	9165.54
464.78	9334.06
464.96	9214.69
465.14	9125.75
465.32	9167.88
465.50	9427.68
465.69	9481.51
465.87	9451.08
466.05	9259.16
466.23	9310.65
466.41	9401.93
466.60	9530.66
466.78	9238.09
466.96	9474.49
467.14	9469.81
467.32	9481.51
467.51	9664.07
467.69	9514.28
467.87	9626.62
468.05	9696.84
468.23	9738.97
468.41	9671.09
468.60	9579.81
468.78	9785.78
468.96	9724.93
469.14	9825.57
469.32	9729.61
469.50	9600.88
469.69	9717.90
469.87	10022.17
470.05	9905.15
470.23	9987.07
470.41	9848.97
470.59	10005.79
470.77	10115.80
470.95	10012.81
471.14	10230.48
471.32	10359.21
471.50	10691.57
471.68	10614.33
471.86	10377.94
472.04	10455.17
472.22	10988.82
472.40	10321.76
472.58	10382.62
472.77	10558.16
472.95	10752.42
473.13	10892.85
473.31	10724.33
473.49	10647.10
473.67	10808.59
473.85	10824.98
474.03	11162.01
474.21	11236.91
474.39	11178.40
474.57	11150.31
474.75	11438.20
474.93	11548.20
475.12	11229.89
475.30	11496.71
475.48	11335.21
475.66	11428.84
475.84	11360.96
476.02	11480.33
476.20	11747.15
476.38	11918.01
476.56	12173.13
476.74	12032.69
476.92	12009.29
477.10	11939.07
477.28	12280.79
477.46	12369.73
477.64	12336.96
477.82	12603.78
478.00	12879.97
478.18	12856.56
478.36	12776.98
478.54	12821.45
478.72	12910.40
478.90	13125.72
479.08	13376.16
479.26	13378.50
479.44	13359.78
479.62	13399.57
479.80	13458.08
479.98	13731.92
480.16	14022.15
480.34	13954.27
480.52	13975.34
480.70	14178.97
480.88	14045.55
481.06	14036.19
481.24	14328.76
481.41	14506.64
481.59	14635.37
481.77	14611.96
481.95	14703.25
482.13	15009.86
482.31	14750.06
482.49	15122.20
482.67	15096.46
482.85	15459.24
483.03	15272.00
483.21	15417.11
483.39	15749.46
483.57	15545.84
483.74	15571.58
483.92	15908.62
484.10	15765.85
484.28	15974.16
484.46	16369.71
484.64	16573.33
484.82	16203.53
485.00	16526.52
485.18	16493.76
485.35	16851.86
485.53	16374.39
485.71	16608.44
485.89	16540.57
486.07	16575.67
486.25	16798.02
486.43	17156.13
486.61	17467.42
486.78	17338.69
486.96	17586.79
487.14	18026.81
487.32	18225.75
487.50	18314.69
487.68	18302.99
487.85	18740.67
488.03	18757.05
488.21	19124.52
488.39	18789.82
488.57	19140.90
488.75	19009.83
488.92	19487.30
489.10	19658.16
489.28	19889.87
489.46	20271.38
489.64	19775.19
489.81	20390.75
489.99	20372.02
490.17	20521.82
490.35	20634.16
490.53	20643.52
490.70	20762.89
490.88	20751.19
491.06	21228.66
491.24	20999.29
491.41	21109.29
491.59	20973.54
491.77	21256.75
491.95	21326.96
492.13	21537.61
492.30	21771.66
492.48	22005.72
492.66	22169.55
492.84	22356.80
493.01	22728.94
493.19	22228.07
493.37	22445.74
493.54	22616.60
493.72	22960.66
493.90	23115.13
494.08	23276.63
494.25	23620.69
494.43	23824.31
494.61	23828.99
494.79	23679.20
494.96	24114.54
495.14	23857.08
495.32	24280.72
495.49	24269.01
495.67	24180.07
495.85	24697.33
496.02	24807.34
496.20	24606.05
496.38	24463.28
496.55	24917.34
496.73	25324.60
496.91	25099.90
497.09	25078.84
497.26	25273.10
497.44	25373.75
497.62	25453.33
497.79	25820.79
497.97	25570.35
498.14	25757.60
498.32	26120.38
498.50	26085.27
498.67	26527.63
498.85	26309.96
499.03	26632.96
499.20	26717.22
499.38	26712.53
499.56	27089.36
499.73	26614.23
499.91	26682.11
500.08	26995.74
500.26	26686.79
500.44	27129.15
500.61	27253.20
500.79	27012.12
500.97	27290.65
501.14	27260.22
501.32	27353.84
501.49	27625.34
501.67	27615.98
501.84	27749.39
502.02	27861.74
502.20	28411.76
502.37	28533.47
502.55	28306.44
502.72	28528.79
502.90	28332.18
503.07	28072.39
503.25	28659.86
503.43	28268.99
503.60	28671.56
503.78	28496.02
503.95	28657.52
504.13	28739.44
504.30	28959.45
504.48	29069.45
504.65	29097.54
504.83	29270.74
505.01	29724.80
505.18	29441.60
505.36	29916.73
505.53	29986.94
505.71	29907.37
505.88	30153.12
506.06	29930.77
506.23	29902.68
506.41	30061.84
506.58	30490.16
506.76	30703.15
506.93	30632.93
507.11	30403.56
507.28	30441.01
507.46	30419.94
507.63	30553.35
507.81	30850.60
507.98	30405.90
508.16	30888.05
508.33	30976.99
508.50	30960.61
508.68	31335.09
508.85	31793.84
509.03	31555.10
509.20	31498.93
509.38	31814.90
509.55	31601.91
509.73	31512.97
509.90	32077.04
510.08	31674.47
510.25	31550.42
510.42	32584.94
510.60	32306.41
510.77	32444.51
510.95	32081.72
511.12	32493.66
511.30	32385.99
511.47	33013.26
511.64	33090.49
511.82	33095.18
511.99	32634.09
512.17	32629.41
512.34	32556.85
512.51	32884.53
512.69	33039.00
512.86	32903.25
513.04	33369.02
513.21	33413.49
513.38	33015.60
513.56	33322.21
513.73	33116.24
513.90	33638.18
514.08	33483.70
514.25	33912.02
514.43	33668.61
514.60	33907.34
514.77	34089.90
514.95	34242.04
515.12	34064.16
515.29	34239.70
515.47	34227.99
515.64	34579.07
515.81	34108.63
515.99	34347.36
516.16	34181.18
516.33	34066.50
516.51	34298.21
516.68	33694.35
516.85	33567.96
517.03	33701.37
517.20	34452.69
517.37	34721.85
517.54	34841.21
517.72	34668.02
517.89	34417.58
518.06	34410.56
518.24	34309.91
518.41	34824.83
518.58	34892.71
518.75	35023.78
518.93	35271.87
519.10	35306.98
519.27	35349.11
519.45	35484.86
519.62	35693.17
519.79	35716.58
519.96	35679.13
520.14	35981.06
520.31	35655.72
520.48	35852.33
520.65	35896.80
520.83	36271.28
521.00	36353.20
521.17	36666.83
521.34	36264.26
521.52	36488.95
521.69	36577.89
521.86	36371.92
522.03	36711.30
522.20	36519.38
522.38	37006.21
522.55	37160.69
522.72	36830.67
522.89	36935.99
523.07	36769.82
523.24	37312.82
523.41	37471.98
523.58	37507.08
523.75	37640.50
523.92	37364.31
524.10	37635.81
524.27	37521.13
524.44	37928.38
524.61	37965.83
524.78	38192.86
524.96	37720.07
525.13	38431.60
525.30	38490.11
525.47	38675.01
525.64	38445.64
525.81	38068.81
525.98	38047.75
526.16	37907.32
526.33	37708.37
526.50	37890.93
526.67	37965.83
526.84	37792.63
527.01	37916.68
527.18	38576.71
527.36	38675.01
527.53	38747.57
527.70	39012.05
527.87	38614.16
528.04	38738.21
528.21	38876.30
528.38	38836.51
528.55	38979.28
528.72	39042.48
528.89	39641.65
529.07	39091.63
529.24	39154.82
529.41	39239.08
529.58	39023.75
529.75	39077.58
529.92	39292.91
530.09	39580.80
530.26	39395.90
530.43	40011.46
530.60	39559.73
530.77	40025.50
530.94	40275.94
531.11	39765.70
531.28	39957.63
531.46	40093.38
531.63	40034.86
531.80	39833.58
531.97	40074.65
532.14	40044.23
532.31	39208.65
532.48	39828.90
532.65	39997.41
532.82	39892.09
532.99	40264.24
533.16	40580.21
533.33	40540.42
533.50	40706.60
533.67	40425.73
533.84	40226.79
534.01	40339.13
534.18	40545.10
534.35	40641.06
534.52	40942.99
534.69	40683.19
534.86	41490.68
535.03	41022.57
535.20	41078.74
535.37	41347.90
535.54	41373.65
535.71	40823.62
535.88	41045.97
536.05	41514.08
536.22	41450.89
536.38	41249.60
536.55	41347.90
536.72	41010.87
536.89	41216.83
537.06	41071.72
537.23	41441.53
537.40	41081.08
537.57	41497.70
537.74	41830.05
537.91	41893.25
538.08	41603.02
538.25	41563.23
538.42	41893.25
538.59	41958.78
538.75	41446.21
538.92	41715.37
539.09	41916.65
539.26	41837.08
539.43	42078.15
539.60	41483.66
539.77	41951.76
539.94	42061.77
540.11	41888.57
540.28	41991.55
540.44	42188.16
540.61	41645.15
540.78	41748.14
540.95	42148.37
541.12	41888.57
541.29	42085.17
541.46	41956.44
541.62	42403.49
541.79	42604.77
541.96	42043.04
542.13	41771.54
542.30	42698.39
542.47	42724.14
542.63	42440.93
542.80	42366.04
542.97	42784.99
543.14	43384.17
543.31	43304.59
543.48	43084.58
543.64	43311.61
543.81	43695.46
543.98	43337.36
544.15	43353.74
544.32	43349.06
544.48	43973.98
544.65	43304.59
544.82	44018.46
544.99	43498.86
545.16	43019.05
545.32	43438.00
545.49	43812.49
545.66	43838.23
545.83	43924.83
546.00	43718.87
546.16	43653.33
546.33	43587.80
546.50	42988.62
546.67	44020.80
546.83	43927.17
547.00	44161.23
547.17	43803.13
547.34	43519.92
547.50	44006.75
547.67	44011.43
547.84	44165.91
548.00	44107.40
548.17	44299.32
548.34	44060.58
548.51	44425.71
548.67	44210.38
548.84	44542.74
549.01	44128.46
549.18	43950.58
549.34	44091.01
549.51	44367.20
549.68	44409.32
549.84	44243.15
550.01	44793.17
550.18	44402.30
550.34	44395.28
550.51	44481.88
550.68	44643.38
550.84	43922.49
551.01	44608.27
551.18	44282.94
551.34	44526.35
551.51	44935.95
551.68	45071.70
551.84	44989.78
552.01	44357.83
552.18	44659.76
552.34	44683.17
552.51	44954.67
552.68	44355.49
552.84	44788.49
553.01	45340.86
553.18	44706.57
553.34	44704.23
553.51	44734.66
553.67	44739.34
553.84	45153.62
554.01	45167.66
554.17	45345.54
554.34	45022.54
554.51	45315.11
554.67	45326.81
554.84	45141.91
555.00	45254.26
555.17	45237.87
555.33	45287.03
555.50	45315.11
555.67	44966.37
555.83	45553.85
556.00	45207.45
556.16	45565.55
556.33	45226.17
556.50	45151.27
556.66	45595.98
556.83	45457.88
556.99	45418.10
557.16	45287.03
557.32	45284.68
557.49	45530.44
557.65	45221.49
557.82	45270.64
557.98	45340.86
558.15	45881.52
558.32	45820.67
558.48	45720.02
558.65	45406.39
558.81	45399.37
558.98	45350.22
559.14	45563.21
559.31	45537.46
559.47	45631.08
559.64	45516.40
559.80	45797.26
559.97	45628.74
560.13	45326.81
560.30	45741.09
560.46	46026.63
560.63	46066.42
560.79	45921.31
560.96	46190.47
561.12	45825.35
561.29	45720.02
561.45	45666.19
561.61	45675.55
561.78	45687.26
561.94	45698.96
562.11	45603.00
562.27	45713.00
562.44	45837.05
562.60	46073.45
562.77	46028.98
562.93	45872.16
563.10	46054.72
563.26	45673.21
563.42	46012.59
563.59	45827.69
563.75	45677.90
563.92	46150.68
564.08	46604.75
564.24	46183.45
564.41	45818.33
564.57	46239.62
564.74	46071.10
564.90	46143.66
565.07	46225.58
565.23	45872.16
565.39	46270.05
565.56	45972.80
565.72	45815.99
565.88	45769.18
566.05	45825.35
566.21	46272.39
566.38	46014.93
566.54	46064.08
566.70	46398.78
566.87	46504.10
567.03	46181.11
567.19	46534.53
567.36	46211.54
567.52	46415.16
567.68	46337.93
567.85	46195.15
568.01	46270.05
568.17	46026.63
568.34	46454.95
568.50	46436.23
568.66	46258.35
568.83	46298.14
568.99	46501.76
569.15	46344.95
569.32	46625.81
569.48	45708.32
569.64	46160.05
569.81	46377.72
569.97	46295.80
570.13	46401.12
570.30	46021.95
570.46	45867.48
570.62	46143.66
570.78	46000.89
570.95	45848.75
571.11	46045.36
571.27	46335.59
571.43	46408.14
571.60	46197.49
571.76	46078.13
571.92	46810.71
572.09	46471.34
572.25	46234.94
572.41	46513.47
572.57	46834.12
572.74	46838.80
572.90	46295.80
573.06	46354.31
573.22	46370.69
573.38	46630.49
573.55	46513.47
573.71	46600.07
573.87	46445.59
574.03	46387.08
574.20	46522.83
574.36	46246.65
574.52	46452.61
574.68	46569.64
574.84	46534.53
575.01	46272.39
575.17	46263.03
575.33	46195.15
575.49	46347.29
575.65	46270.05
575.82	46443.25
575.98	46520.49
576.14	46333.24
576.30	46691.35
576.46	46117.92
576.62	46237.28
576.79	46440.91
576.95	46443.25
577.11	46483.04
577.27	46335.59
577.43	46466.66
577.59	46230.26
577.75	46326.22
577.92	46024.29
578.08	46080.47
578.24	45998.55
578.40	46340.27
578.56	47012.00
578.72	46674.96
578.88	46672.62
579.04	46700.71
579.21	46560.28
579.37	46138.98
579.53	47004.98
579.69	46595.38
579.85	46389.42
580.01	46232.60
580.17	46700.71
580.33	46635.17
580.49	46944.12
580.65	46457.29
580.82	46529.85
580.98	46319.20
581.14	46307.50
581.30	47030.72
581.46	46707.73
581.62	46845.82
581.78	46438.57
581.94	46817.74
582.10	46569.64
582.26	46579.00
582.42	46398.78
582.58	46834.12
582.74	46499.42
582.90	46541.55
583.06	46941.78
583.22	46724.11
583.38	46513.47
583.54	46890.29
583.70	46667.94
583.86	46841.14
584.02	46312.18
584.18	46408.14
584.34	46330.90
584.50	46520.49
584.66	46384.74
584.82	46749.86
584.98	46300.48
585.14	46670.28
585.30	46712.41
585.46	46618.79
585.62	46270.05
585.78	46312.18
585.94	46246.65
586.10	46363.67
586.26	46096.85
586.42	46639.86
586.58	46700.71
586.74	46653.90
586.90	46351.97
587.06	46436.23
587.22	46820.08
587.38	46424.53
587.54	46590.70
587.70	46546.23
587.86	46632.83
588.02	46674.96
588.18	46674.96
588.34	46415.16
588.49	46281.75
588.65	46124.94
588.81	46321.54
588.97	45965.78
589.13	46293.46
589.29	46246.65
589.45	46279.41
589.61	46396.44
589.77	46719.43
589.93	47171.16
590.08	46579.00
590.24	47086.90
590.40	46955.83
590.56	47054.13
590.72	46457.29
590.88	46466.66
591.04	46347.29
591.20	47019.02
591.35	47042.43
591.51	46974.55
591.67	46611.77
591.83	47096.26
591.99	46864.55
592.15	47037.75
592.31	46520.49
592.46	46831.78
592.62	46902.00
592.78	46965.19
592.94	46670.28
593.10	46684.33
593.26	46593.04
593.41	46855.18
593.57	46773.27
593.73	46969.87
593.89	46932.42
594.05	46691.35
594.20	46855.18
594.36	46670.28
594.52	46377.72
594.68	46777.95
594.84	46784.97
594.99	46639.86
595.15	46600.07
595.31	46639.86
595.47	46803.69
595.62	46588.36
595.78	46773.27
595.94	47133.71
596.10	46693.69
596.25	46988.60
596.41	46789.65
596.57	46499.42
596.73	46576.66
596.88	46405.80
597.04	46356.65
597.20	46433.89
597.36	46759.22
597.51	47243.71
597.67	46946.47
597.83	46618.79
597.99	47189.88
598.14	46829.44
598.30	46724.11
598.46	46735.82
598.61	46497.08
598.77	46534.53
598.93	46607.09
599.09	46925.40
599.24	47327.97
599.40	47002.64
599.56	46710.07
599.71	46550.91
599.87	47175.84
600.03	46532.19
600.18	46433.89
600.34	46508.79
600.50	46820.08
600.65	47014.34
600.81	46892.63
600.97	47000.30
601.12	47288.18
601.28	46681.98
601.44	46309.84
601.59	46777.95
601.75	46061.74
601.91	46976.89
602.06	46543.89
602.22	46777.95
602.37	46707.73
602.53	46742.84
602.69	46553.26
602.84	47065.83
603.00	46686.67
603.16	46653.90
603.31	46801.35
603.47	46794.33
603.62	46789.65
603.78	46600.07
603.94	46829.44
604.09	46754.54
604.25	46609.43
604.40	46777.95
604.56	46550.91
604.71	46932.42
604.87	46625.81
605.03	46813.05
605.18	46368.35
605.34	46721.77
605.49	46199.83
605.65	46611.77
605.80	46696.03
605.96	46342.61
606.12	46621.13
606.27	46618.79
606.43	46534.53
606.58	46672.62
606.74	46644.54
606.89	46513.47
607.05	46515.81
607.20	46454.95
607.36	46653.90
607.51	46883.27
607.67	46190.47
607.82	46389.42
607.98	46660.92
608.13	46342.61
608.29	46328.56
608.44	46178.77
608.60	46389.42
608.75	46581.34
608.91	46469.00
609.06	46361.33
609.22	46398.78
609.37	46047.70
609.53	46298.14
609.68	46356.65
609.84	46038.34
609.99	46211.54
610.15	45783.22
610.30	46050.04
610.46	45928.33
610.61	45780.88
610.76	46138.98
610.92	46248.99
611.07	46340.27
611.23	46066.42
611.38	46316.86
611.54	45865.14
611.69	45509.38
611.84	45998.55
612.00	45668.53
612.15	45790.24
612.31	45993.87
612.46	45818.33
612.62	46241.96
612.77	45675.55
612.92	46291.12
613.08	45858.12
613.23	45743.43
613.39	45698.96
613.54	45457.88
613.69	45429.80
613.85	45617.04
614.00	45584.27
614.15	45750.45
614.31	46026.63
614.46	46113.23
614.62	45755.13
614.77	46021.95
614.92	45500.01
615.08	45373.63
615.23	45174.68
615.38	45354.90
615.54	45361.92
615.69	45186.38
615.84	45027.23
616.00	45251.92
616.15	45261.28
616.30	45064.67
616.46	45038.93
616.61	45111.49
616.76	45425.12
616.92	44849.35
617.07	44800.19
617.22	44952.33
617.37	45015.52
617.53	45380.65
617.68	45282.34
617.83	45123.19
617.99	44952.33
618.14	44896.16
618.29	44905.52
618.45	44933.60
618.60	44774.45
618.75	44706.57
618.90	44992.12
619.06	44690.19
619.21	44940.63
619.36	45399.37
619.51	44715.93
619.67	44690.19
619.82	44699.55
619.97	44994.46
620.12	44636.36
620.28	44430.39
620.43	44538.05
620.58	44818.92
620.73	44505.29
620.89	44460.82
621.04	44582.52
621.19	44201.02
621.34	44851.69
621.49	44350.81
621.65	44825.94
621.80	44804.88
621.95	44395.28
622.10	44568.48
622.25	44065.27
622.41	44123.78
622.56	44491.24
622.71	43997.39
622.86	44201.02
623.01	44479.54
623.16	44718.28
623.32	44439.75
623.47	44357.83
623.62	44493.58
623.77	43955.26
623.92	44095.69
624.07	44399.96
624.23	43805.47
624.38	43697.80
624.53	43693.12
624.68	43662.69
624.83	43903.77
624.98	43852.28
625.13	43573.75
625.29	43817.17
625.44	43599.50
625.59	43178.20
625.74	42897.34
625.89	43391.19
626.04	43353.74
626.19	43770.36
626.34	43562.05
626.49	43086.92
626.65	43643.97
626.80	43405.23
626.95	43447.36
627.10	43353.74
627.25	43461.41
627.40	43246.08
627.55	43477.79
627.70	42607.11
627.85	43112.67
628.00	43583.12
628.15	43180.54
628.30	43075.22
628.45	42775.63
628.60	43007.34
628.76	43442.68
628.91	43007.34
629.06	42981.60
629.21	43040.11
629.36	42848.19
629.51	42366.04
629.66	42759.25
629.81	43005.00
629.96	42916.06
630.11	42572.00
630.26	43206.29
630.41	43131.39
630.56	42714.78
630.71	42946.49
630.86	43063.52
631.01	42443.27
631.16	42611.79
631.31	42323.91
631.46	42295.82
631.61	42506.47
631.76	42747.54
631.91	42459.66
632.06	42635.20
632.21	42520.51
632.36	42689.03
632.51	42073.47
632.66	42164.75
632.81	42204.54
632.96	42457.32
633.10	42197.52
633.25	42141.35
633.40	42103.90
633.55	42396.46
633.70	42080.49
633.85	41876.86
634.00	42218.58
634.15	41581.96
634.30	42335.61
634.45	42064.11
634.60	42136.66
634.75	42129.64
634.90	42110.92
635.05	41731.75
635.19	41574.94
635.34	42284.12
635.49	41853.46
635.64	41858.14
635.79	41813.67
635.94	41373.65
636.09	41731.75
636.24	41684.94
636.39	41230.88
636.53	41565.57
636.68	41324.50
636.83	41493.02
636.98	41727.07
637.13	41722.39
637.28	41710.69
637.43	41663.88
637.57	41757.50
637.72	41408.76
637.87	41397.06
638.02	41139.60
638.17	41392.37
638.32	41404.08
638.46	41254.28
638.61	41354.93
638.76	41617.07
638.91	41233.22
639.06	41113.85
639.20	40718.30
639.35	41497.70
639.50	41443.87
639.65	41134.92
639.80	41289.39
639.94	41036.61
640.09	40989.80
640.24	41235.56
640.39	40437.44
640.54	40783.83
640.68	41275.35
640.83	40622.34
640.98	40917.25
641.13	40631.70
641.27	41221.52
641.42	40547.44
641.57	40575.53
641.72	40573.19
641.86	40381.26
642.01	40437.44
642.16	40084.01
642.31	40217.43
642.45	40898.52
642.60	39999.76
642.75	40289.98
642.90	40222.11
643.04	40563.82
643.19	40521.69
643.34	40311.05
643.48	40215.08
643.63	40491.27
643.78	40135.51
643.93	40203.38
644.07	40390.62
644.22	40350.84
644.37	39608.89
644.51	40236.15
644.66	39796.13
644.81	39810.17
644.95	40055.93
645.10	40037.20
645.25	40430.41
645.39	40458.50
645.54	40402.33
645.69	39386.54
645.83	39917.84
645.98	39580.80
646.13	39620.59
646.27	40151.89
646.42	39646.33
646.57	39562.08
646.71	39962.31
646.86	39620.59
647.00	39601.86
647.15	39592.50
647.30	39686.12
647.44	39222.70
647.59	39089.29
647.74	39449.73
647.88	39541.01
648.03	39604.20
648.17	39728.25
648.32	39372.49
648.47	39826.56
648.61	39597.18
648.76	39627.61
648.90	39182.91
649.05	39454.41
649.20	39056.52
649.34	39489.52
649.49	39119.71
649.63	38871.62
649.78	39445.05
649.92	39161.84
650.07	39321.00
650.21	39100.99
650.36	39421.64
650.51	39225.04
650.65	40025.50
650.80	39768.04
650.94	39473.13
651.09	39255.46
651.23	39014.39
651.38	39075.24
651.52	38499.47
651.67	38960.56
651.81	38927.79
651.96	38934.81
652.10	38864.60
652.25	38679.69
652.39	39103.33
652.54	38632.88
652.68	38380.10
652.83	38649.27
652.97	38815.44
653.12	38576.71
653.26	38513.52
653.41	38611.82
653.55	38572.03
653.70	38693.74
653.84	38471.39
653.99	38550.96
654.13	38136.69
654.27	38403.51
654.42	38363.72
654.56	38036.05
654.71	38267.76
654.85	38419.89
655.00	38246.69
655.14	38089.88
655.29	37715.39
655.43	38160.09
655.57	37806.67
655.72	37830.08
655.86	37188.77
656.01	37563.26
656.15	37567.94
656.30	37509.43
656.44	37226.22
656.58	37790.29
656.73	37900.29
656.87	37776.25
657.01	37607.73
657.16	37703.69
657.30	37420.48
657.45	37434.53
657.59	37266.01
657.73	37638.15
657.88	37528.15
658.02	37935.40
658.16	37799.65
658.31	37614.75
658.45	37813.70
658.60	37549.21
658.74	37633.47
658.88	37563.26
659.03	37113.87
659.17	37340.91
659.31	37064.72
659.46	37380.70
659.60	36966.42
659.74	37326.86
659.89	37099.83
660.03	36994.51
660.17	36891.52
660.32	37310.48
660.46	37383.04
660.60	36917.27
660.74	37132.60
660.89	37020.25
661.03	36285.33
661.17	36844.71
661.32	36367.24
661.46	36861.10
661.60	36524.06
661.74	36676.19
661.89	36781.52
662.03	36629.38
662.17	36252.56
662.31	36467.89
662.46	36849.39
662.60	36664.49
662.74	36699.60
662.88	36224.47
663.03	36140.21
663.17	36151.91
663.31	36325.11
663.45	36081.70
663.60	36016.16
663.74	35782.11
663.88	35491.88
664.02	35754.02
664.17	35885.09
664.31	35590.19
664.45	35138.46
664.59	35669.76
664.73	35360.81
664.88	35648.70
665.02	35435.71
665.16	35534.01
665.30	34969.94
665.44	34969.94
665.59	35225.06
665.73	35505.93
665.87	34651.63
666.01	34827.17
666.15	35199.32
666.29	35161.87
666.44	35482.52
666.58	34703.12
666.72	34944.20
666.86	34789.72
667.00	34904.41
667.14	34171.82
667.28	34525.24
667.43	34707.80
667.57	34604.82
667.71	34579.07
667.85	34820.15
667.99	34363.75
668.13	34178.84
668.27	34108.63
668.41	34415.24
668.56	34302.89
668.70	34155.44
668.84	34150.76
668.98	33270.72
669.12	34015.01
669.26	33951.81
669.40	33956.49
669.54	33582.01
669.68	33947.13
669.82	33811.38
669.96	33443.91
670.10	33553.92
670.25	33694.35
670.39	33390.08
670.53	33165.39
670.67	33088.15
670.81	33139.65
670.95	33134.96
671.09	33188.80
671.23	33296.46
671.37	32844.74
671.51	32718.35
671.65	32542.81
671.79	32393.01
671.93	32638.77
672.07	32893.89
672.21	32821.33
672.35	32378.97
672.49	32797.93
672.63	32545.15
672.77	32177.68
672.91	32084.06
673.05	32439.82
673.19	31997.46
673.33	32074.70
673.47	32006.83
673.61	31840.65
673.75	31695.53
673.89	31527.02
674.03	31239.13
674.17	32240.88
674.31	31456.80
674.45	31669.79
674.59	31658.09
674.73	31716.60
674.87	31737.66
675.01	31424.03
675.15	30888.05
675.29	30944.22
675.43	31077.63
675.56	31084.65
675.70	30749.96
675.84	31037.84
675.98	29624.16
676.12	30974.65
676.26	30675.06
676.40	30808.47
676.54	30771.02
676.68	30836.56
676.82	29951.84
676.96	30431.65
677.10	30188.23
677.23	30012.69
677.37	29872.26
677.51	30129.72
677.65	29692.04
677.79	29132.65
677.93	29355.00
678.07	29385.43
678.21	29106.90
678.34	29165.42
678.48	28968.81
678.62	28636.45
678.76	28849.44
678.90	28460.91
679.04	28645.82
679.18	28697.31
679.31	28371.97
679.45	28552.20
679.59	28259.63
679.73	28240.90
679.87	28587.30
680.00	28371.97
680.14	28215.16
680.28	27857.06
680.42	27955.36
680.56	28079.41
680.70	28283.03
680.83	28224.52
680.97	27634.71
681.11	27653.43
681.25	27552.79
681.39	27417.04
681.52	27461.51
681.66	27058.93
681.80	27178.30
681.94	27082.34
682.07	26913.82
682.21	26635.30
682.35	26721.90
682.49	26913.82
682.62	26565.08
682.76	26464.44
682.90	26494.86
683.04	26359.11
683.17	26485.50
683.31	26026.76
683.45	26099.31
683.59	25933.14
683.72	26005.69
683.86	25923.77
684.00	26054.84
684.13	25862.92
684.27	25418.22
684.41	25373.75
684.55	25130.33
684.68	25469.71
684.82	25266.08
684.96	25144.38
685.09	25006.28
685.23	24720.74
685.37	24966.49
685.50	25249.70
685.64	24800.32
685.78	24734.78
685.91	24397.74
686.05	24456.26
686.19	23941.34
686.32	24191.78
686.46	23723.67
686.60	23293.01
686.73	23449.83
686.87	23285.99
687.01	23431.10
687.14	23087.04
687.28	23253.22
687.42	23358.55
687.55	23421.74
687.69	23700.26
687.82	23274.29
687.96	23274.29
688.10	23000.44
688.23	22787.46
688.37	22616.60
688.50	22534.68
688.64	22806.18
688.78	22909.16
688.91	22654.05
689.05	22532.34
689.18	22249.13
689.32	22272.54
689.46	22497.23
689.59	22506.59
689.73	22319.35
689.86	22113.38
690.00	21926.14
690.13	21893.37
690.27	21570.38
690.41	21652.30
690.54	21333.98
690.68	21591.44
690.81	21359.73
690.95	21514.20
691.08	21116.31
691.22	21516.54
691.35	20917.37
691.49	21394.84
691.62	21198.23
691.76	21106.95
691.89	21125.68
692.03	20879.92
692.16	20739.49
692.30	20779.28
692.43	20210.53
692.57	20238.61
692.70	20250.32
692.84	20233.93
692.97	20063.07
693.11	19924.98
693.24	20084.14
693.38	19686.25
693.51	19868.81
693.65	19803.27
693.78	19840.72
693.92	19763.48
694.05	19412.40
694.19	19293.04
694.32	19686.25
694.45	19393.68
694.59	18977.06
694.72	18965.36
694.86	19073.03
694.99	18771.10
695.13	18759.39
695.26	18745.35
695.39	18654.07
695.53	19054.30
695.66	19066.00
695.80	18754.71
695.93	18787.48
696.07	18586.19
696.20	18373.21
696.33	18420.02
696.47	18258.52
696.60	18195.32
696.73	18045.53
696.87	18068.94
697.00	18122.77
697.14	17916.80
697.27	17355.07
697.40	17446.35
697.54	17511.89
697.67	17570.40
697.80	17142.08
697.94	17455.72
698.07	17317.62
698.21	16926.75
698.34	17202.94
698.47	16912.71
698.61	17001.65
698.74	17104.64
698.87	16999.31
699.01	16706.74
699.14	16475.03
699.27	16379.07
699.40	16486.73
699.54	16196.51
699.67	16620.14
699.80	16439.92
699.94	15939.05
700.07	16259.70
700.20	16280.77
700.34	16301.83
700.47	16269.06
700.60	16395.45
700.73	15857.13
700.87	15882.88
701.00	15597.33
701.13	15639.46
701.26	15445.20
701.40	15522.43
701.53	15337.53
701.66	15201.78
701.79	15339.87
701.93	15187.74
702.06	14951.34
702.19	15026.24
702.32	14876.44
702.46	14899.85
702.59	15112.84
702.72	14743.03
702.85	15012.20
702.99	14766.44
703.12	14548.77
703.25	14576.86
703.38	14352.16
703.51	14553.45
703.65	14530.05
703.78	14487.92
703.91	13965.98
704.04	14328.76
704.17	14380.25
704.31	13921.51
704.44	13790.44
704.57	14111.09
704.70	13965.98
704.83	14015.13
704.96	13596.17
705.10	13839.59
705.23	13778.73
>>>>>End Processed Spectral Data<<<<<
