SpectraSuite Data File
++++++++++++++++++++++++++++++++++++
Date: Fri Oct 25 10:48:17 EDT 2013
User: price-jones
Dark Spectrum Present: No
Reference Spectrum Present: No
Number of Sampled Component Spectra: 1
Spectrometers: USB2+H05261
Integration Time (usec): 100000 (USB2+H05261)
Spectra Averaged: 1 (USB2+H05261)
Boxcar Smoothing: 0 (USB2+H05261)
Correct for Electrical Dark: No (USB2+H05261)
Strobe/Lamp Enabled: No (USB2+H05261)
Correct for Detector Non-linearity: No (USB2+H05261)
Correct for Stray Light: No (USB2+H05261)
Number of Pixels in Processed Spectrum: 2048
>>>>>Begin Processed Spectral Data<<<<<
365.73	187.24
365.92	187.24
366.12	187.24
366.32	51.49
366.52	28.09
366.72	39.79
366.91	0.00
367.11	51.49
367.31	42.13
367.51	105.32
367.70	28.09
367.90	72.56
368.10	0.00
368.30	32.77
368.49	84.26
368.69	16.38
368.89	117.03
369.09	37.45
369.28	77.24
369.48	49.15
369.68	32.77
369.87	133.41
370.07	100.64
370.27	128.73
370.47	245.76
370.66	416.62
370.86	442.36
371.06	507.90
371.25	531.30
371.45	482.15
371.65	543.00
371.84	510.24
372.04	463.43
372.24	531.30
372.44	491.51
372.63	550.03
372.83	571.09
373.03	528.96
373.22	528.96
373.42	606.20
373.62	613.22
373.81	610.88
374.01	657.69
374.21	561.73
374.40	552.37
374.60	648.33
374.79	578.11
374.99	592.16
375.19	662.37
375.38	524.28
375.58	657.69
375.78	655.35
375.97	608.54
376.17	692.80
376.37	667.05
376.56	664.71
376.76	615.56
376.95	575.77
377.15	683.44
377.35	587.47
377.54	655.35
377.74	601.52
377.93	678.76
378.13	669.39
378.33	669.39
378.52	711.52
378.72	683.44
378.91	669.39
379.11	699.82
379.31	744.29
379.50	671.73
379.70	674.07
379.89	711.52
380.09	725.57
380.28	662.37
380.48	727.91
380.68	688.12
380.87	681.10
381.07	716.20
381.26	765.36
381.46	674.07
381.65	758.33
381.85	723.23
382.04	739.61
382.24	746.63
382.43	699.82
382.63	784.08
382.83	690.46
383.02	758.33
383.22	814.51
383.41	795.78
383.61	748.97
383.80	851.96
384.00	805.14
384.19	903.45
384.39	849.61
384.58	828.55
384.78	858.98
384.97	791.10
385.17	706.84
385.36	809.83
385.56	851.96
385.75	819.19
385.95	784.08
386.14	793.44
386.34	856.64
386.53	788.76
386.72	908.13
386.92	844.93
387.11	896.43
387.31	858.98
387.50	870.68
387.70	908.13
387.89	926.85
388.09	999.41
388.28	912.81
388.48	1015.79
388.67	819.19
388.86	894.08
389.06	880.04
389.25	1006.43
389.45	994.73
389.64	1015.79
389.84	987.71
390.03	966.64
390.22	1015.79
390.42	1004.09
390.61	1036.86
390.81	1071.97
391.00	1069.62
391.19	1074.31
391.39	1097.71
391.58	1118.78
391.78	1071.97
391.97	1011.11
392.16	1043.88
392.36	1116.44
392.55	1041.54
392.75	1004.09
392.94	980.68
393.13	1036.86
393.33	978.34
393.52	1060.26
393.71	1142.18
393.91	1111.75
394.10	1142.18
394.29	1090.69
394.49	1102.39
394.68	1242.82
394.88	1123.46
395.07	1291.98
395.26	1245.16
395.46	1294.32
395.65	1343.47
395.84	1261.55
396.04	1334.11
396.23	1245.16
396.42	1144.52
396.62	1151.54
396.81	1270.91
397.00	1235.80
397.19	1291.98
397.39	1289.64
397.58	1376.24
397.77	1376.24
397.97	1441.77
398.16	1406.66
398.35	1390.28
398.55	1376.24
398.74	1521.35
398.93	1565.82
399.12	1462.83
399.32	1497.94
399.51	1636.03
399.70	1626.67
399.90	1425.39
400.09	1584.54
400.28	1645.40
400.47	1610.29
400.67	1647.74
400.86	1605.61
401.05	1631.35
401.24	1610.29
401.44	1631.35
401.63	1699.23
401.82	1657.10
402.01	1647.74
402.21	1717.95
402.40	1746.04
402.59	1732.00
402.78	1762.42
402.97	1865.41
403.17	1797.53
403.36	1778.81
403.55	1739.02
403.74	1818.60
403.93	1809.23
404.13	1839.66
404.32	1895.83
404.51	1921.58
404.70	1928.60
404.89	1947.33
405.09	2043.29
405.28	1963.71
405.47	1968.39
405.66	1947.33
405.85	1961.37
406.05	1937.96
406.24	1926.26
406.43	1961.37
406.62	2040.95
406.81	2160.31
407.00	2174.36
407.20	2120.53
407.39	2129.89
407.58	2249.25
407.77	2111.16
407.96	2143.93
408.15	2291.38
408.34	2160.31
408.54	2286.70
408.73	2230.53
408.92	2340.54
409.11	2235.21
409.30	2230.53
409.49	2347.56
409.68	2230.53
409.87	2174.36
410.07	2298.41
410.26	2356.92
410.45	2417.77
410.64	2420.11
410.83	2438.84
411.02	2471.61
411.21	2637.78
411.40	2607.36
411.59	2602.68
411.78	2579.27
411.98	2562.89
412.17	2693.96
412.36	2717.36
412.55	2551.18
412.74	2768.85
412.93	2647.15
413.12	2722.04
413.31	2892.90
413.50	2796.94
413.69	2857.79
413.88	2853.11
414.07	2920.99
414.26	2965.46
414.45	2960.78
414.64	2953.76
414.83	3042.70
415.02	2974.82
415.22	3155.04
415.41	3162.06
415.60	3180.79
415.79	3318.88
415.98	3396.12
416.17	3258.03
416.36	3276.75
416.55	3361.01
416.74	3304.84
416.93	3194.83
417.12	3307.18
417.31	3304.84
417.50	3368.03
417.69	3405.48
417.88	3419.52
418.07	3307.18
418.26	3456.97
418.45	3300.16
418.64	3653.58
418.83	3588.04
419.02	3566.98
419.21	3559.95
419.39	3581.02
419.58	3583.36
419.77	3562.30
419.96	3812.73
420.15	3770.60
420.34	3733.15
420.53	3655.92
420.72	3681.66
420.91	3796.35
421.10	3847.84
421.29	3751.88
421.48	3878.27
421.67	3840.82
421.86	3728.47
422.05	3859.54
422.24	3763.58
422.43	3784.65
422.61	3882.95
422.80	3957.85
422.99	3779.97
423.18	3850.18
423.37	4077.21
423.56	3908.69
423.75	3925.08
423.94	3887.63
424.13	3620.81
424.32	3765.92
424.50	3992.95
424.69	3960.19
424.88	4140.41
425.07	3850.18
425.26	3950.82
425.45	3969.55
425.64	3929.76
425.83	3922.74
426.01	3992.95
426.20	3878.27
426.39	4112.32
426.58	3922.74
426.77	3960.19
426.96	3971.89
427.15	3978.91
427.33	3953.16
427.52	4039.76
427.71	4053.81
427.90	4086.58
428.09	4021.04
428.28	4177.86
428.46	4177.86
428.65	4081.89
428.84	4262.12
429.03	4395.53
429.22	4032.74
429.40	4304.25
429.59	4063.17
429.78	3978.91
429.97	3929.76
430.16	4119.34
430.34	4058.49
430.53	4212.96
430.72	4095.94
430.91	4229.35
431.10	4255.09
431.28	4557.02
431.47	4603.83
431.66	4568.73
431.85	4498.51
432.03	4624.90
432.22	4849.59
432.41	4575.75
432.60	4746.61
432.79	4844.91
432.97	4748.95
433.16	4631.92
433.35	4774.69
433.54	4704.48
433.72	4695.11
433.91	4571.07
434.10	4922.15
434.28	4662.35
434.47	4795.76
434.66	4847.25
434.85	4755.97
435.03	4952.57
435.22	4856.61
435.41	5062.58
435.59	5107.05
435.78	5093.01
435.97	5060.24
436.16	5151.52
436.34	5128.11
436.53	5085.98
436.72	5050.88
436.90	5032.15
437.09	5067.26
437.28	5046.20
437.46	5050.88
437.65	5247.48
437.84	5179.61
438.02	5273.23
438.21	5200.67
438.40	5149.18
438.58	5418.34
438.77	5282.59
438.96	5397.28
439.14	5439.40
439.33	5568.13
439.52	5738.99
439.70	5671.12
439.89	5788.14
440.08	5596.22
440.26	5832.62
440.45	5680.48
440.63	5975.39
440.82	5799.85
441.01	5809.21
441.19	6150.93
441.38	6008.16
441.57	5989.43
441.75	6225.82
441.94	6319.45
442.12	6256.25
442.31	6399.02
442.50	6333.49
442.68	6253.91
442.87	6289.02
443.05	6291.36
443.24	6518.39
443.43	6232.85
443.61	6487.96
443.80	6459.88
443.98	6272.64
444.17	6099.44
444.35	6499.67
444.54	6544.14
444.73	6331.15
444.91	6415.41
445.10	6553.50
445.28	6431.79
445.47	6548.82
445.65	6555.84
445.84	6462.22
446.02	6286.68
446.21	6555.84
446.39	6408.39
446.58	6555.84
446.77	6609.67
446.95	6527.75
447.14	6736.06
447.32	6724.36
447.51	6530.09
447.69	6583.93
447.88	6621.38
448.06	6672.87
448.25	6686.91
448.43	6785.21
448.62	6778.19
448.80	6593.29
448.99	6773.51
449.17	6719.68
449.36	6803.94
449.54	7136.29
449.73	6878.83
449.91	7000.54
450.10	7019.27
450.28	7096.50
450.46	7101.19
450.65	7026.29
450.83	7077.78
451.02	6906.92
451.20	7138.63
451.39	7232.26
451.57	7089.48
451.76	7138.63
451.94	7286.09
452.13	7190.13
452.31	7063.74
452.49	6920.96
452.68	7241.62
452.86	7075.44
453.05	7227.57
453.23	7328.22
453.42	7272.04
453.60	7314.17
453.78	7454.61
453.97	7250.98
454.15	7293.11
454.34	7311.83
454.52	7454.61
454.70	7482.69
454.89	7325.88
455.07	7391.41
455.26	7595.04
455.44	7700.36
455.62	7698.02
455.81	7625.47
455.99	7875.90
456.17	7730.79
456.36	7805.69
456.54	7829.09
456.73	8107.62
456.91	8074.85
457.09	7992.93
457.28	8013.99
457.46	7885.26
457.64	8159.11
457.83	8105.28
458.01	7871.22
458.19	8058.46
458.38	8042.08
458.56	8315.92
458.74	7983.57
458.93	8208.26
459.11	8107.62
459.29	8219.96
459.48	8039.74
459.66	8236.35
459.84	8311.24
460.03	8524.23
460.21	8222.30
460.39	8362.73
460.57	8484.44
460.76	8786.37
460.94	8549.98
461.12	8596.79
461.31	8617.85
461.49	8631.90
461.67	8767.65
461.85	8847.22
462.04	8737.22
462.22	9008.72
462.40	8791.05
462.59	8891.70
462.77	8786.37
462.95	8854.25
463.13	8856.59
463.32	8982.98
463.50	8891.70
463.68	9060.21
463.86	8879.99
464.05	8940.85
464.23	8957.23
464.41	8987.66
464.59	8807.44
464.78	9088.30
464.96	8980.64
465.14	9149.15
465.32	9160.86
465.50	9226.39
465.69	9385.55
465.87	8938.51
466.05	9121.07
466.23	9195.96
466.41	9324.69
466.60	9275.54
466.78	9245.12
466.96	9298.95
467.14	9465.13
467.32	9324.69
467.51	9516.62
467.69	9107.02
467.87	9404.27
468.05	9591.52
468.23	9373.85
468.41	9390.23
468.60	9439.38
468.78	9453.42
468.96	9525.98
469.14	9741.31
469.32	9659.39
469.50	9394.91
469.69	9771.74
469.87	9743.65
470.05	9832.59
470.23	9708.54
470.41	9811.53
470.59	9942.60
470.77	9980.04
470.95	10057.28
471.14	10033.88
471.32	9544.70
471.50	10033.88
471.68	10183.67
471.86	10314.74
472.04	10228.14
472.22	10602.63
472.40	10171.97
472.58	10384.96
472.77	10338.15
472.95	10324.10
473.13	10761.78
473.31	10342.83
473.49	10527.73
473.67	10546.45
473.85	10525.39
474.03	11110.52
474.21	10857.75
474.39	11108.18
474.57	10832.00
474.75	11152.65
474.93	11119.89
475.12	11061.37
475.30	11208.83
475.48	11192.44
475.66	11330.53
475.84	11225.21
476.02	11566.93
476.20	11304.79
476.38	11625.44
476.56	11655.87
476.74	11597.35
476.92	11562.25
477.10	11793.96
477.28	11976.52
477.46	11875.88
477.64	12180.15
477.82	12154.40
478.00	12437.61
478.18	12395.48
478.36	12547.61
478.54	12362.71
478.72	12666.98
478.90	12861.24
479.08	12905.71
479.26	13121.04
479.44	13156.15
479.62	13195.94
479.80	13331.69
479.98	13467.44
480.16	13729.58
480.34	13600.85
480.52	13661.71
480.70	13504.89
480.88	13486.17
481.06	13816.18
481.24	14080.66
481.41	14272.59
481.59	14504.30
481.77	14523.02
481.95	14279.61
482.13	14263.22
482.31	14441.11
482.49	14911.55
482.67	14902.19
482.85	14738.35
483.03	14885.81
483.21	15405.41
483.39	15236.89
483.57	15454.56
483.74	15618.39
483.92	15606.69
484.10	15365.62
484.28	15812.66
484.46	15960.11
484.64	16250.34
484.82	16137.99
485.00	16163.74
485.18	16526.52
485.35	16673.98
485.53	16430.56
485.71	16348.64
485.89	16479.71
486.07	16381.41
486.25	16688.02
486.43	16823.77
486.61	16982.93
486.78	17146.76
486.96	17345.71
487.14	17745.94
487.32	17900.42
487.50	17996.38
487.68	18118.09
487.85	18033.83
488.03	18338.10
488.21	18803.86
488.39	18579.17
488.57	18497.25
488.75	18649.39
488.92	18958.34
489.10	19157.28
489.28	19070.68
489.46	19768.16
489.64	19545.81
489.81	19957.75
489.99	20215.21
490.17	20037.33
490.35	20402.45
490.53	20367.34
490.70	20449.26
490.88	20451.60
491.06	20739.49
491.24	20753.53
491.41	20812.04
491.59	20535.86
491.77	20582.67
491.95	21083.55
492.13	21226.32
492.30	21542.29
492.48	21727.19
492.66	21549.31
492.84	21708.47
493.01	22092.32
493.19	21813.79
493.37	22146.15
493.54	22038.48
493.72	22565.10
493.90	22775.75
494.08	23035.55
494.25	23061.30
494.43	23157.26
494.61	23316.42
494.79	23220.45
494.96	23110.45
495.14	23442.81
495.32	23627.71
495.49	23791.55
495.67	23800.91
495.85	23669.84
496.02	24269.01
496.20	24472.64
496.38	24056.03
496.55	24346.25
496.73	25001.60
496.91	24830.74
497.09	24744.14
497.26	25111.61
497.44	25010.96
497.62	24975.86
497.79	25357.36
497.97	24865.85
498.14	25179.48
498.32	25455.67
498.50	25977.61
498.67	26174.21
498.85	25940.16
499.03	26441.03
499.20	26103.99
499.38	26349.75
499.56	26312.30
499.73	26309.96
499.91	26394.22
500.08	26560.40
500.26	26012.71
500.44	26586.15
500.61	26852.97
500.79	26712.53
500.97	26845.94
501.14	27449.80
501.32	27164.26
501.49	27082.34
501.67	27498.95
501.84	27101.06
502.02	27529.38
502.20	27569.17
502.37	27648.75
502.55	27695.56
502.72	28306.44
502.90	28011.53
503.07	27814.93
503.25	28166.01
503.43	27814.93
503.60	28023.23
503.78	28198.77
503.95	28077.07
504.13	28498.36
504.30	28276.01
504.48	28386.02
504.65	28882.21
504.83	29331.59
505.01	29062.43
505.18	28847.10
505.36	29275.42
505.53	29621.82
505.71	29783.32
505.88	29645.23
506.06	29359.68
506.23	29436.92
506.41	29565.65
506.58	29701.40
506.76	29642.88
506.93	29888.64
507.11	29923.75
507.28	30026.73
507.46	29933.11
507.63	30017.37
507.81	30045.46
507.98	29874.60
508.16	30277.17
508.33	30223.34
508.50	30934.86
508.68	30761.66
508.85	31328.07
509.03	30904.43
509.20	31335.09
509.38	31316.37
509.55	31049.55
509.73	30953.58
509.90	31271.90
510.08	31349.14
510.25	31307.01
510.42	31372.54
510.60	31791.50
510.77	31599.57
510.95	31934.27
511.12	31732.98
511.30	32208.11
511.47	32177.68
511.64	32561.53
511.82	32318.12
511.99	32135.56
512.17	32697.28
512.34	32367.27
512.51	32467.91
512.69	32521.74
512.86	32783.88
513.04	32980.49
513.21	33378.38
513.38	33074.11
513.56	32840.06
513.73	32811.97
513.90	32994.53
514.08	33003.89
514.25	33692.01
514.43	33261.35
514.60	33024.96
514.77	33462.64
514.95	33699.03
515.12	33979.90
515.29	33516.47
515.47	33464.98
515.64	34031.39
515.81	33710.74
515.99	33694.35
516.16	33680.31
516.33	33034.32
516.51	33699.03
516.68	33429.87
516.85	33453.28
517.03	33642.86
517.20	34022.03
517.37	34335.66
517.54	34347.36
517.72	34263.10
517.89	34199.91
518.06	33991.60
518.24	34218.63
518.41	34621.20
518.58	34529.92
518.75	34349.70
518.93	34455.03
519.10	34986.33
519.27	35182.93
519.45	34813.13
519.62	35311.66
519.79	35314.00
519.96	35276.55
520.14	35428.69
520.31	35232.08
520.48	35955.31
520.65	35438.05
520.83	35754.02
521.00	35859.35
521.17	35852.33
521.34	36004.46
521.52	36367.24
521.69	36435.12
521.86	36673.85
522.03	36151.91
522.20	36615.34
522.38	36685.56
522.55	36287.67
522.72	36624.70
522.89	36507.68
523.07	36435.12
523.24	36538.10
523.41	36952.38
523.58	36954.72
523.75	36872.80
523.92	37111.53
524.10	37053.02
524.27	37748.16
524.44	37256.65
524.61	37556.24
524.78	37427.51
524.96	37642.84
525.13	37710.71
525.30	38284.14
525.47	37928.38
525.64	37432.19
525.81	37691.99
525.98	37603.05
526.16	37376.01
526.33	37345.59
526.50	37806.67
526.67	37462.61
526.84	37928.38
527.01	37380.70
527.18	37551.56
527.36	37930.72
527.53	38312.23
527.70	38590.75
527.87	38527.56
528.04	38359.04
528.21	38541.60
528.38	38675.01
528.55	38550.96
528.72	39056.52
528.89	39325.68
529.07	39278.87
529.24	38735.87
529.41	38969.92
529.58	38747.57
529.75	38749.91
529.92	39330.36
530.09	39079.92
530.26	39150.14
530.43	39356.11
530.60	39707.19
530.77	39491.86
530.94	39569.10
531.11	39545.69
531.28	39632.29
531.46	39613.57
531.63	39842.94
531.80	39192.27
531.97	39349.09
532.14	39777.40
532.31	39480.16
532.48	39573.78
532.65	39840.60
532.82	39365.47
532.99	39920.18
533.16	39845.28
533.33	40009.12
533.50	40526.38
533.67	40332.11
533.84	39885.07
534.01	39868.69
534.18	40449.14
534.35	40755.75
534.52	40240.83
534.69	40467.86
534.86	40460.84
535.03	40505.31
535.20	41106.83
535.37	40641.06
535.54	40994.48
535.71	40318.07
535.88	40620.00
536.05	40126.14
536.22	40664.47
536.38	40882.14
536.55	40884.48
536.72	41022.57
536.89	41034.27
537.06	40816.60
537.23	41420.46
537.40	41310.46
537.57	41406.42
537.74	41233.22
537.91	41471.95
538.08	41216.83
538.25	41118.53
538.42	41207.47
538.59	41834.74
538.75	41322.16
538.92	41659.20
539.09	41914.31
539.26	41347.90
539.43	41736.43
539.60	41652.17
539.77	40980.44
539.94	41911.97
540.11	41916.65
540.28	41448.55
540.44	41275.35
540.61	41626.43
540.78	41666.22
540.95	41563.23
541.12	41558.55
541.29	42031.34
541.46	42328.59
541.62	42045.38
541.79	42590.73
541.96	41666.22
542.13	41961.12
542.30	42359.02
542.47	42258.37
542.63	42525.19
542.80	42377.74
542.97	43100.97
543.14	42864.57
543.31	42916.06
543.48	42789.67
543.64	43466.09
543.81	43452.05
543.98	42866.91
544.15	42918.40
544.32	43112.67
544.48	43089.26
544.65	43098.62
544.82	43232.04
544.99	42768.61
545.16	43433.32
545.32	43068.20
545.49	43255.44
545.66	43253.10
545.83	43728.23
546.00	43662.69
546.16	43220.33
546.33	43384.17
546.50	43100.97
546.67	43358.42
546.83	43086.92
547.00	43335.02
547.17	43501.20
547.34	43136.07
547.50	43615.88
547.67	43910.79
547.84	43693.12
548.00	43746.95
548.17	43749.29
548.34	43416.94
548.51	44013.77
548.67	44233.78
548.84	44114.42
549.01	43854.62
549.18	44105.06
549.34	43615.88
549.51	44142.50
549.68	43999.73
549.84	44325.07
550.01	44294.64
550.18	43842.92
550.34	44603.59
550.51	43782.06
550.68	44041.86
550.84	43803.13
551.01	44060.58
551.18	44179.95
551.34	44516.99
551.51	44456.14
551.68	44669.12
551.84	44891.48
552.01	44051.22
552.18	44608.27
552.34	44313.36
552.51	44935.95
552.68	44648.06
552.84	44818.92
553.01	44891.48
553.18	44676.15
553.34	44196.34
553.51	44608.27
553.67	44451.45
553.84	44999.14
554.01	44905.52
554.17	45008.50
554.34	45170.00
554.51	44893.82
554.67	45172.34
554.84	44889.13
555.00	44802.53
555.17	44346.13
555.33	45095.10
555.50	45090.42
555.67	44947.65
555.83	45015.52
556.00	45188.72
556.16	45689.60
556.33	45170.00
556.50	44900.84
556.66	45144.25
556.83	45177.02
556.99	45544.48
557.16	45216.81
557.32	45352.56
557.49	45448.52
557.65	44898.50
557.82	45207.45
557.98	45193.40
558.15	45338.52
558.32	45359.58
558.48	45216.81
558.65	45605.34
558.81	44774.45
558.98	44978.07
559.14	45153.62
559.31	45202.77
559.47	45626.40
559.64	45734.07
559.80	46028.98
559.97	46005.57
560.13	45247.24
560.30	45364.26
560.46	45368.94
560.63	45415.76
560.79	45500.01
560.96	45705.98
561.12	45574.91
561.29	45846.41
561.45	45862.80
561.61	45710.66
561.78	45642.79
561.94	45677.90
562.11	45808.96
562.27	45378.31
562.44	45794.92
562.60	46176.43
562.77	46050.04
562.93	45593.64
563.10	45993.87
563.26	45661.51
563.42	45720.02
563.59	45933.01
563.75	45930.67
563.92	45909.61
564.08	45806.62
564.24	46497.08
564.41	46162.39
564.57	45729.39
564.74	45944.72
564.90	45893.22
565.07	45949.40
565.23	45902.59
565.39	45886.20
565.56	46066.42
565.72	45970.46
565.88	46160.05
566.05	45993.87
566.21	45839.39
566.38	46078.13
566.54	45792.58
566.70	46340.27
566.87	46234.94
567.03	46302.82
567.19	46794.33
567.36	46490.06
567.52	46012.59
567.68	46534.53
567.85	46026.63
568.01	46026.63
568.17	46155.36
568.34	46251.33
568.50	45886.20
568.66	45986.85
568.83	46373.03
568.99	45944.72
569.15	46195.15
569.32	45890.88
569.48	45911.95
569.64	46342.61
569.81	46082.81
569.97	46461.97
570.13	46000.89
570.30	46028.98
570.46	45605.34
570.62	46087.49
570.78	46342.61
570.95	46223.24
571.11	46251.33
571.27	46246.65
571.43	46246.65
571.60	46431.55
571.76	45930.67
571.92	46433.89
572.09	46454.95
572.25	46300.48
572.41	46080.47
572.57	46274.73
572.74	46445.59
572.90	46314.52
573.06	46206.86
573.22	46326.22
573.38	46557.94
573.55	46300.48
573.71	46511.13
573.87	46110.89
574.03	46192.81
574.20	46391.76
574.36	46543.89
574.52	46698.37
574.68	46368.35
574.84	46625.81
575.01	46288.77
575.17	46873.91
575.33	45965.78
575.49	46490.06
575.65	46611.77
575.82	46457.29
575.98	46050.04
576.14	46864.55
576.30	46464.32
576.46	45998.55
576.62	46464.32
576.79	46461.97
576.95	45724.71
577.11	46403.46
577.27	46227.92
577.43	46335.59
577.59	46483.04
577.75	46469.00
577.92	46195.15
578.08	46291.12
578.24	46052.38
578.40	46387.08
578.56	46351.97
578.72	46342.61
578.88	46555.60
579.04	46562.62
579.21	46192.81
579.37	46307.50
579.53	46571.98
579.69	46263.03
579.85	46607.09
580.01	46387.08
580.17	46555.60
580.33	46752.20
580.49	46803.69
580.65	46784.97
580.82	46480.70
580.98	46314.52
581.14	46600.07
581.30	46569.64
581.46	46742.84
581.62	46450.27
581.78	46735.82
581.94	46784.97
582.10	46770.93
582.26	46525.17
582.42	46995.62
582.58	46988.60
582.74	46281.75
582.90	46515.81
583.06	46738.16
583.22	46756.88
583.38	46976.89
583.54	47033.07
583.70	46836.46
583.86	46354.31
584.02	45947.06
584.18	46763.90
584.34	46607.09
584.50	46230.26
584.66	46756.88
584.82	46138.98
584.98	46674.96
585.14	46644.54
585.30	46279.41
585.46	46766.24
585.62	46328.56
585.78	46241.96
585.94	46272.39
586.10	46415.16
586.26	46382.40
586.42	46586.02
586.58	46553.26
586.74	46480.70
586.90	46436.23
587.06	46150.68
587.22	46483.04
587.38	46241.96
587.54	46850.50
587.70	46756.88
587.86	46546.23
588.02	46586.02
588.18	46459.63
588.34	46410.48
588.49	46120.26
588.65	46031.32
588.81	46174.09
588.97	46454.95
589.13	46089.83
589.29	46101.53
589.45	46469.00
589.61	46745.18
589.77	46693.69
589.93	47124.35
590.08	47096.26
590.24	46754.54
590.40	46557.94
590.56	46639.86
590.72	46485.38
590.88	46443.25
591.04	46541.55
591.20	46724.11
591.35	46735.82
591.51	46934.76
591.67	46733.48
591.83	46632.83
591.99	46595.38
592.15	46820.08
592.31	46768.58
592.46	47189.88
592.62	46780.29
592.78	46869.23
592.94	46834.12
593.10	46429.21
593.26	46974.55
593.41	46478.36
593.57	46787.31
593.73	46401.12
593.89	46890.29
594.05	46501.76
594.20	46532.19
594.36	46609.43
594.52	46904.34
594.68	46731.14
594.84	46728.80
594.99	46951.15
595.15	47316.27
595.31	47213.29
595.47	46415.16
595.62	46848.16
595.78	46981.57
595.94	47014.34
596.10	46852.84
596.25	47173.50
596.41	46887.95
596.57	46777.95
596.73	46651.56
596.88	46543.89
597.04	47072.85
597.20	46983.91
597.36	46780.29
597.51	47171.16
597.67	47061.15
597.83	46642.20
597.99	47112.64
598.14	47016.68
598.30	46384.74
598.46	46511.13
598.61	46822.42
598.77	46548.57
598.93	46576.66
599.09	46817.74
599.24	47283.50
599.40	47040.09
599.56	46892.63
599.71	46925.40
599.87	47150.09
600.03	46476.02
600.18	46597.73
600.34	46831.78
600.50	46845.82
600.65	46773.27
600.81	46986.25
600.97	47159.45
601.12	47100.94
601.28	46906.68
601.44	46824.76
601.59	46686.67
601.75	46843.48
601.91	46810.71
602.06	46499.42
602.22	47152.43
602.37	46490.06
602.53	46770.93
602.69	47210.95
602.84	46897.31
603.00	46784.97
603.16	46972.21
603.31	47089.24
603.47	46597.73
603.62	46862.21
603.78	47112.64
603.94	46859.87
604.09	46967.53
604.25	46930.08
604.40	46628.15
604.56	46876.25
604.71	46960.51
604.87	46817.74
605.03	46923.06
605.18	46810.71
605.34	46541.55
605.49	46349.63
605.65	46810.71
605.80	46600.07
605.96	46644.54
606.12	46824.76
606.27	46611.77
606.43	46401.12
606.58	47002.64
606.74	46188.13
606.89	46656.24
607.05	46780.29
607.20	46660.92
607.36	46958.17
607.51	46691.35
607.67	46539.21
607.82	46429.21
607.98	46635.17
608.13	46593.04
608.29	46581.34
608.44	45928.33
608.60	45705.98
608.75	45975.14
608.91	45972.80
609.06	46272.39
609.22	46480.70
609.37	45879.18
609.53	46637.51
609.68	46230.26
609.84	46431.55
609.99	45925.99
610.15	46150.68
610.30	46054.72
610.46	46176.43
610.61	45949.40
610.76	46028.98
610.92	46148.34
611.07	46157.70
611.23	45888.54
611.38	45808.96
611.54	45895.56
611.69	45748.11
611.84	45574.91
612.00	45713.00
612.15	45902.59
612.31	45968.12
612.46	46181.11
612.62	45914.29
612.77	46028.98
612.92	46452.61
613.08	45895.56
613.23	45717.68
613.39	45722.37
613.54	45200.43
613.69	45984.51
613.85	45673.21
614.00	45804.28
614.15	46129.62
614.31	45904.93
614.46	45874.50
614.62	45551.51
614.77	45209.79
614.92	45312.77
615.08	45614.70
615.23	45888.54
615.38	45727.05
615.54	45382.99
615.69	45504.70
615.84	45017.86
616.00	45446.18
616.15	45523.42
616.30	45607.68
616.46	45062.33
616.61	45045.95
616.76	45375.97
616.92	45268.30
617.07	45223.83
617.22	44807.22
617.37	44851.69
617.53	45841.73
617.68	45184.04
617.83	45621.72
617.99	45485.97
618.14	45343.20
618.29	45055.31
618.45	45177.02
618.60	44858.71
618.75	45116.17
618.90	45167.66
619.06	45247.24
619.21	45645.13
619.36	45642.79
619.51	44928.92
619.67	44952.33
619.82	45162.98
619.97	45109.14
620.12	44626.99
620.28	44582.52
620.43	44767.43
620.58	44711.25
620.73	44828.28
620.89	44739.34
621.04	44762.75
621.19	44729.98
621.34	44683.17
621.49	44554.44
621.65	44535.71
621.80	44900.84
621.95	44301.66
622.10	44540.39
622.25	44367.20
622.41	44573.16
622.56	44453.79
622.71	44634.02
622.86	44580.18
623.01	44320.38
623.16	44673.81
623.32	44666.78
623.47	44842.32
623.62	44423.37
623.77	44477.20
623.92	44065.27
624.07	44285.28
624.23	43887.39
624.38	44172.93
624.53	43828.87
624.68	44088.67
624.83	43920.15
624.98	44339.11
625.13	44074.63
625.29	43702.48
625.44	44238.47
625.59	43662.69
625.74	43742.27
625.89	43557.37
626.04	43533.96
626.19	43707.16
626.34	43817.17
626.49	43349.06
626.65	44016.11
626.80	43957.60
626.95	43372.47
627.10	43395.87
627.25	43505.88
627.40	42923.08
627.55	43358.42
627.70	42740.52
627.85	43030.75
628.00	43374.81
628.15	43749.29
628.30	43414.60
628.45	43178.20
628.60	43508.22
628.76	43070.54
628.91	43145.44
629.06	42911.38
629.21	42976.92
629.36	43157.14
629.51	43072.88
629.66	43330.34
629.81	42398.80
629.96	43049.47
630.11	43196.93
630.26	43000.32
630.41	42986.28
630.56	42731.16
630.71	42885.64
630.86	42993.30
631.01	42738.18
631.16	42490.09
631.31	42469.02
631.46	42347.31
631.61	42522.85
631.76	42635.20
631.91	42394.12
632.06	42682.01
632.21	42653.92
632.36	42981.60
632.51	42780.31
632.66	42679.67
632.81	42328.59
632.96	42609.45
633.10	42117.94
633.25	42394.12
633.40	42309.86
633.55	42658.60
633.70	42745.20
633.85	42511.15
634.00	42429.23
634.15	42087.51
634.30	42522.85
634.45	42096.88
634.60	41998.57
634.75	42450.30
634.90	41670.90
635.05	42117.94
635.19	42246.67
635.34	42267.73
635.49	42183.48
635.64	41673.24
635.79	41855.80
635.94	41661.54
636.09	42241.99
636.24	41860.48
636.39	41820.69
636.53	41383.01
636.68	41757.50
636.83	41876.86
636.98	42281.78
637.13	41291.73
637.28	41930.70
637.43	42234.97
637.57	41776.22
637.72	41904.95
637.87	41797.29
638.02	41373.65
638.17	41242.58
638.32	41748.14
638.46	41633.45
638.61	41371.31
638.76	41345.56
638.91	41652.17
639.06	41567.91
639.20	41509.40
639.35	41855.80
639.50	41387.69
639.65	41551.53
639.80	41373.65
639.94	41146.62
640.09	41441.53
640.24	41242.58
640.39	41048.32
640.54	41029.59
640.68	40704.26
640.83	41165.34
640.98	41069.38
641.13	41043.63
641.27	41273.01
641.42	41326.84
641.57	40718.30
641.72	41247.26
641.86	40437.44
642.01	40378.92
642.16	40872.78
642.31	40210.40
642.45	40549.78
642.60	40196.36
642.75	40322.75
642.90	40875.12
643.04	40701.92
643.19	40739.36
643.34	40414.03
643.48	40837.67
643.63	40549.78
643.78	40360.20
643.93	40704.26
644.07	40364.88
644.22	40203.38
644.37	40271.26
644.51	39903.79
644.66	40304.02
644.81	40533.40
644.95	40753.41
645.10	40437.44
645.25	40631.70
645.39	40699.58
645.54	40725.32
645.69	39938.90
645.83	40119.12
645.98	40383.60
646.13	40683.19
646.27	40247.85
646.42	40100.40
646.57	40055.93
646.71	39899.11
646.86	40016.14
647.00	39906.13
647.15	39913.16
647.30	40039.54
647.44	40058.27
647.59	40084.01
647.74	39861.66
647.88	39115.03
648.03	39831.24
648.17	39636.97
648.32	39501.22
648.47	39920.18
648.61	39473.13
648.76	39938.90
648.90	39636.97
649.05	39922.52
649.20	39606.55
649.34	39887.41
649.49	39379.51
649.63	39838.26
649.78	39615.91
649.92	39618.25
650.07	39988.05
650.21	39529.31
650.36	39210.99
650.51	39634.63
650.65	39791.45
650.80	39798.47
650.94	39604.20
651.09	39676.76
651.23	39222.70
651.38	39325.68
651.52	39234.40
651.67	39084.61
651.81	39641.65
651.96	39026.09
652.10	39414.62
652.25	38785.02
652.39	38932.47
652.54	38937.15
652.68	38918.43
652.83	38703.10
652.97	39119.71
653.12	38775.66
653.26	38691.40
653.41	38948.85
653.55	38438.62
653.70	38967.58
653.84	38553.30
653.99	38920.77
654.13	38780.34
654.27	38909.07
654.42	38808.42
654.56	38672.67
654.71	38939.49
654.85	38494.79
655.00	37912.00
655.14	38213.93
655.29	38157.75
655.43	38618.84
655.57	38073.49
655.72	37809.01
655.86	38188.18
656.01	37935.40
656.15	38230.31
656.30	37809.01
656.44	37816.04
656.58	37956.47
656.73	37640.50
656.87	37979.87
657.01	37949.45
657.16	37926.04
657.30	37907.32
657.45	37989.24
657.59	38026.68
657.73	37551.56
657.88	38057.11
658.02	37830.08
658.16	37631.13
658.31	37956.47
658.45	38012.64
658.60	38136.69
658.74	38007.96
658.88	37801.99
659.03	37326.86
659.17	37308.14
659.31	37633.47
659.46	37415.80
659.60	37855.82
659.74	37600.71
659.89	37544.53
660.03	37242.60
660.17	37528.15
660.32	37198.13
660.46	37553.90
660.60	37691.99
660.74	37371.33
660.89	37134.94
661.03	36535.76
661.17	36840.03
661.32	36488.95
661.46	36730.03
661.60	36858.76
661.74	36758.11
661.89	36727.69
662.03	36713.64
662.17	36622.36
662.31	36142.55
662.46	36673.85
662.60	36669.17
662.74	36322.77
662.88	36425.76
663.03	36453.84
663.17	36421.08
663.31	36114.47
663.45	36369.58
663.60	36615.34
663.74	36065.31
663.88	36259.58
664.02	35817.22
664.17	36023.19
664.31	35807.86
664.45	35784.45
664.59	35885.09
664.73	35978.72
664.88	36140.21
665.02	35576.14
665.16	36154.26
665.30	35894.46
665.44	35524.65
665.59	35138.46
665.73	35232.08
665.87	35349.11
666.01	35056.54
666.15	35339.75
666.29	35564.44
666.44	35634.66
666.58	35063.57
666.72	35079.95
666.86	35129.10
667.00	35349.11
667.14	34983.99
667.28	35054.20
667.43	34209.27
667.57	34789.72
667.71	34794.40
667.85	34675.04
667.99	34405.88
668.13	34202.25
668.27	34504.18
668.41	34644.61
668.56	34536.94
668.70	34085.22
668.84	34075.86
668.98	34197.57
669.12	34244.38
669.26	34309.91
669.40	34085.22
669.54	34003.30
669.68	33937.77
669.82	33879.25
669.96	33923.72
670.10	33619.46
670.25	33708.40
670.39	34005.64
670.53	33574.98
670.67	33205.18
670.81	33811.38
670.95	33900.32
671.09	33905.00
671.23	33303.48
671.37	33340.93
671.51	33282.42
671.65	33226.24
671.79	33043.68
671.93	32898.57
672.07	33130.28
672.21	33057.73
672.35	32926.66
672.49	32737.07
672.63	32985.17
672.77	32643.45
672.91	32966.45
673.05	32446.85
673.19	32151.94
673.33	32704.31
673.47	32320.46
673.61	32048.96
673.75	32037.25
673.89	31651.06
674.03	31814.90
674.17	31765.75
674.31	31754.05
674.45	31718.94
674.59	31459.14
674.73	31915.54
674.87	31590.21
675.01	32311.10
675.15	31611.28
675.29	31606.59
675.43	31466.16
675.56	31393.61
675.70	31260.20
675.84	31119.76
675.98	30508.88
676.12	31007.42
676.26	30721.87
676.40	30820.17
676.54	30740.60
676.68	30555.69
676.82	29912.05
676.96	30384.83
677.10	30375.47
677.23	29778.64
677.37	29832.47
677.51	30307.60
677.65	30059.50
677.79	29958.86
677.93	29703.74
678.07	29699.06
678.21	29523.52
678.34	29535.22
678.48	29099.88
678.62	29479.05
678.76	28961.79
678.90	29242.65
679.04	29277.76
679.18	29132.65
679.31	29006.26
679.45	28889.23
679.59	28783.91
679.73	28409.42
679.87	28559.22
680.00	28875.19
680.14	28519.43
680.28	28238.56
680.42	27983.44
680.56	27948.34
680.70	28060.68
680.83	28051.32
680.97	28091.11
681.11	27819.61
681.25	27524.70
681.39	27927.27
681.52	27725.99
681.66	27632.36
681.80	27498.95
681.94	27433.42
682.07	27108.08
682.21	27129.15
682.35	26745.30
682.49	27288.31
682.62	27033.19
682.76	26939.57
682.90	26527.63
683.04	26532.31
683.17	26607.21
683.31	26244.43
683.45	26466.78
683.59	26059.52
683.72	26101.65
683.86	26005.69
684.00	25905.05
684.13	25979.95
684.27	25898.03
684.41	25736.53
684.55	25263.74
684.68	25504.82
684.82	25413.54
684.96	25233.32
685.09	25249.70
685.23	25268.42
685.37	25015.65
685.50	24989.90
685.64	25013.31
685.78	24816.70
685.91	24854.15
686.05	24982.88
686.19	24634.14
686.32	24940.75
686.46	24671.59
686.60	23948.36
686.73	23892.19
686.87	23690.90
687.01	23686.22
687.14	23557.49
687.28	23559.83
687.42	23711.97
687.55	23487.28
687.69	23550.47
687.82	23269.61
687.96	23498.98
688.10	23604.30
688.23	23208.75
688.37	22981.72
688.50	22845.97
688.64	22721.92
688.78	22569.79
688.91	22579.15
689.05	22719.58
689.18	22403.61
689.32	22328.71
689.46	22574.47
689.59	22654.05
689.73	22527.66
689.86	22185.94
690.00	22396.59
690.13	22192.96
690.27	22267.86
690.41	22050.19
690.54	21846.56
690.68	21628.89
690.81	21806.77
690.95	21429.94
691.08	21500.16
691.22	21738.90
691.35	21149.08
691.49	21696.77
691.62	21362.07
691.76	21214.62
691.89	20964.18
692.03	20936.09
692.16	21329.30
692.30	21123.33
692.43	20580.33
692.57	20833.11
692.70	20779.28
692.84	20695.02
692.97	20458.62
693.11	20119.24
693.24	20175.42
693.38	20030.30
693.51	19915.62
693.65	20119.24
693.78	20334.57
693.92	20070.09
694.05	19789.23
694.19	19405.38
694.32	19468.58
694.45	19566.88
694.59	19407.72
694.72	19527.09
694.86	19112.81
694.99	19269.63
695.13	19016.85
695.26	18888.12
695.39	18932.59
695.53	18937.27
695.66	18810.89
695.80	18953.66
695.93	18721.95
696.07	18743.01
696.20	18719.60
696.33	18478.53
696.47	18511.30
696.60	18106.38
696.73	18328.74
696.87	18340.44
697.00	18274.90
697.14	17989.36
697.27	17909.78
697.40	17860.63
697.54	17839.56
697.67	17610.19
697.80	17682.75
697.94	17326.99
698.07	17626.57
698.21	17399.54
698.34	17322.30
698.47	17198.26
698.61	16847.18
698.74	17022.72
698.87	17088.25
699.01	17015.69
699.14	16566.31
699.27	16835.47
699.40	16718.45
699.54	16603.76
699.67	16245.66
699.80	16659.93
699.94	16538.23
700.07	16397.79
700.20	16404.81
700.34	16250.34
700.47	16102.89
700.60	16311.19
700.73	16320.56
700.87	15962.45
701.00	15943.73
701.13	15934.37
701.26	15590.31
701.40	15721.38
701.53	15293.06
701.66	15496.69
701.79	15269.66
701.93	15349.23
702.06	15262.63
702.19	15098.80
702.32	15243.91
702.46	15122.20
702.59	15098.80
702.72	15059.01
702.85	15164.33
702.99	15133.90
703.12	15232.21
703.25	14661.12
703.38	14874.10
703.51	14647.07
703.65	14492.60
703.78	14593.24
703.91	14677.50
704.04	14551.11
704.17	14473.87
704.31	14202.37
704.44	14066.62
704.57	14099.39
704.70	14071.30
704.83	14050.24
704.96	14127.47
705.10	14153.22
705.23	14413.02
>>>>>End Processed Spectral Data<<<<<
