SpectraSuite Data File
++++++++++++++++++++++++++++++++++++
Date: Fri Oct 25 10:47:10 EDT 2013
User: price-jones
Dark Spectrum Present: No
Reference Spectrum Present: No
Number of Sampled Component Spectra: 1
Spectrometers: USB2+H05261
Integration Time (usec): 100000 (USB2+H05261)
Spectra Averaged: 1 (USB2+H05261)
Boxcar Smoothing: 0 (USB2+H05261)
Correct for Electrical Dark: No (USB2+H05261)
Strobe/Lamp Enabled: No (USB2+H05261)
Correct for Detector Non-linearity: No (USB2+H05261)
Correct for Stray Light: No (USB2+H05261)
Number of Pixels in Processed Spectrum: 2048
>>>>>Begin Processed Spectral Data<<<<<
365.73	121.71
365.92	121.71
366.12	121.71
366.32	46.81
366.52	25.75
366.72	126.39
366.91	74.90
367.11	39.79
367.31	28.09
367.51	65.54
367.70	2.34
367.90	9.36
368.10	18.72
368.30	65.54
368.49	18.72
368.69	32.77
368.89	86.60
369.09	65.54
369.28	110.01
369.48	72.56
369.68	53.83
369.87	124.05
370.07	51.49
370.27	168.52
370.47	161.50
370.66	311.29
370.86	451.72
371.06	407.25
371.25	486.83
371.45	407.25
371.65	402.57
371.84	428.32
372.04	423.64
372.24	463.43
372.44	451.72
372.63	425.98
372.83	444.70
373.03	493.85
373.22	533.64
373.42	491.51
373.62	505.56
373.81	479.81
374.01	601.52
374.21	554.71
374.40	526.62
374.60	552.37
374.79	528.96
374.99	528.96
375.19	491.51
375.38	620.24
375.58	552.37
375.78	601.52
375.97	561.73
376.17	578.11
376.37	531.30
376.56	533.64
376.76	547.69
376.95	575.77
377.15	552.37
377.35	648.33
377.54	627.26
377.74	561.73
377.93	578.11
378.13	594.50
378.33	645.99
378.52	610.88
378.72	613.22
378.91	617.90
379.11	617.90
379.31	606.20
379.50	568.75
379.70	753.65
379.89	561.73
380.09	545.34
380.28	641.31
380.48	650.67
380.68	660.03
380.87	678.76
381.07	706.84
381.26	727.91
381.46	655.35
381.65	692.80
381.85	748.97
382.04	641.31
382.24	765.36
382.43	641.31
382.63	734.93
382.83	699.82
383.02	695.14
383.22	725.57
383.41	676.41
383.61	730.25
383.80	781.74
384.00	730.25
384.19	716.20
384.39	716.20
384.58	720.88
384.78	786.42
384.97	744.29
385.17	758.33
385.36	774.72
385.56	781.74
385.75	784.08
385.95	716.20
386.14	727.91
386.34	795.78
386.53	807.48
386.72	753.65
386.92	765.36
387.11	727.91
387.31	795.78
387.50	849.61
387.70	774.72
387.89	816.85
388.09	812.17
388.28	765.36
388.48	868.34
388.67	802.80
388.86	866.00
389.06	856.64
389.25	910.47
389.45	866.00
389.64	851.96
389.84	877.70
390.03	875.36
390.22	821.53
390.42	851.96
390.61	840.25
390.81	889.40
391.00	894.08
391.19	1018.13
391.39	961.96
391.58	950.26
391.78	894.08
391.97	987.71
392.16	964.30
392.36	1025.15
392.55	1008.77
392.75	912.81
392.94	1011.11
393.13	915.15
393.33	901.11
393.52	1032.18
393.71	1015.79
393.91	964.30
394.10	1022.81
394.29	1034.52
394.49	1055.58
394.68	1083.67
394.88	1071.97
395.07	1095.37
395.26	1109.41
395.46	1104.73
395.65	1078.99
395.84	1170.27
396.04	1200.69
396.23	1086.01
396.42	1104.73
396.62	1104.73
396.81	1153.88
397.00	1128.14
397.19	1188.99
397.39	1228.78
397.58	1284.95
397.77	1198.35
397.97	1170.27
398.16	1252.19
398.35	1380.92
398.55	1219.42
398.74	1233.46
398.93	1299.00
399.12	1254.53
399.32	1291.98
399.51	1357.51
399.70	1324.74
399.90	1350.49
400.09	1432.41
400.28	1364.53
400.47	1291.98
400.67	1371.55
400.86	1322.40
401.05	1439.43
401.24	1439.43
401.44	1348.15
401.63	1432.41
401.82	1502.62
402.01	1432.41
402.21	1488.58
402.40	1444.11
402.59	1474.54
402.78	1425.39
402.97	1474.54
403.17	1460.49
403.36	1570.50
403.55	1577.52
403.74	1603.27
403.93	1607.95
404.13	1643.06
404.32	1540.07
404.51	1694.55
404.70	1636.03
404.89	1607.95
405.09	1666.46
405.28	1724.97
405.47	1612.63
405.66	1727.32
405.85	1689.87
406.05	1710.93
406.24	1724.97
406.43	1753.06
406.62	1809.23
406.81	1928.60
407.00	1842.00
407.20	1823.28
407.39	1781.15
407.58	1853.70
407.77	1886.47
407.96	1947.33
408.15	1872.43
408.34	1888.81
408.54	1912.22
408.73	1879.45
408.92	2017.54
409.11	1973.07
409.30	2050.31
409.49	1973.07
409.68	1923.92
409.87	1977.75
410.07	2069.03
410.26	2165.00
410.45	2108.82
410.64	2101.80
410.83	2160.31
411.02	2071.37
411.21	2277.34
411.40	2099.46
411.59	2265.64
411.78	2289.04
411.98	2235.21
412.17	2338.20
412.36	2342.88
412.55	2204.78
412.74	2349.90
412.93	2422.45
413.12	2319.47
413.31	2506.71
413.50	2450.54
413.69	2366.28
413.88	2497.35
414.07	2600.34
414.26	2520.76
414.45	2595.65
414.64	2527.78
414.83	2658.85
415.02	2708.00
415.22	2754.81
415.41	2801.62
415.60	2626.08
415.79	2871.84
415.98	2787.58
416.17	2782.90
416.36	2768.85
416.55	2803.96
416.74	2857.79
416.93	2712.68
417.12	2904.60
417.31	2972.48
417.50	2827.37
417.69	2946.73
417.88	3056.74
418.07	3000.57
418.26	3012.27
418.45	2942.05
418.64	3122.27
418.83	3094.19
419.02	3047.38
419.21	3201.85
419.39	3192.49
419.58	3030.99
419.77	3141.00
419.96	3150.36
420.15	3164.40
420.34	3187.81
420.53	3353.99
420.72	3309.52
420.91	3206.53
421.10	3260.37
421.29	3368.03
421.48	3389.10
421.67	3339.94
421.86	3236.96
422.05	3279.09
422.24	3274.41
422.43	3435.91
422.61	3424.20
422.80	3501.44
422.99	3325.90
423.18	3456.97
423.37	3581.02
423.56	3421.86
423.75	3431.23
423.94	3487.40
424.13	3251.00
424.32	3136.32
424.50	3531.87
424.69	3592.72
424.88	3569.32
425.07	3583.36
425.26	3361.01
425.45	3375.05
425.64	3433.57
425.83	3499.10
426.01	3449.95
426.20	3501.44
426.39	3522.51
426.58	3410.16
426.77	3463.99
426.96	3487.40
427.15	3616.13
427.33	3531.87
427.52	3623.15
427.71	3742.52
427.90	3503.78
428.09	3754.22
428.28	3630.17
428.46	3616.13
428.65	3665.28
428.84	3810.39
429.03	3911.04
429.22	3655.92
429.40	3702.73
429.59	3779.97
429.78	3618.47
429.97	3625.49
430.16	3684.00
430.34	3826.78
430.53	3709.75
430.72	3826.78
430.91	3794.01
431.10	3796.35
431.28	3946.14
431.47	3969.55
431.66	4114.66
431.85	3946.14
432.03	3953.16
432.22	4107.64
432.41	4091.26
432.60	4126.36
432.79	4166.15
432.97	4196.58
433.16	4145.09
433.35	4044.45
433.54	4081.89
433.72	4114.66
433.91	4205.94
434.10	4276.16
434.28	4196.58
434.47	4311.27
434.66	4355.74
434.85	4344.03
435.03	4461.06
435.22	4301.90
435.41	4524.26
435.59	4505.53
435.78	4418.93
435.97	4475.10
436.16	4526.60
436.34	4540.64
436.53	4423.61
436.72	4571.07
436.90	4578.09
437.09	4615.54
437.28	4671.71
437.46	4641.28
437.65	4524.26
437.84	4638.94
438.02	4472.76
438.21	4648.30
438.40	4550.00
438.58	4809.80
438.77	4730.22
438.96	4786.40
439.14	4840.23
439.33	4957.25
439.52	4880.02
439.70	5011.09
439.89	5102.37
440.08	5090.67
440.26	4975.98
440.45	5172.58
440.63	5055.56
440.82	5273.23
441.01	5214.71
441.19	5252.16
441.38	5298.97
441.57	5313.02
441.75	5383.23
441.94	5593.88
442.12	5507.28
442.31	5563.45
442.50	5488.56
442.68	5614.95
442.87	5455.79
443.05	5469.83
443.24	5614.95
443.43	5685.16
443.61	5579.84
443.80	5771.76
443.98	5577.50
444.17	5317.70
444.35	5708.57
444.54	5664.10
444.73	6001.13
444.91	5844.32
445.10	5804.53
445.28	5767.08
445.47	5561.11
445.65	5783.46
445.84	5767.08
446.02	5820.91
446.21	5710.91
446.39	5755.38
446.58	5820.91
446.77	5799.85
446.95	5767.08
447.14	5802.19
447.32	5844.32
447.51	5816.23
447.69	5832.62
447.88	5856.02
448.06	5912.19
448.25	5949.64
448.43	5858.36
448.62	5839.64
448.80	5830.27
448.99	5907.51
449.17	5996.45
449.36	5912.19
449.54	6118.16
449.73	6162.63
449.91	6225.82
450.10	6073.69
450.28	6282.00
450.46	6328.81
450.65	6246.89
450.83	6221.14
451.02	6148.59
451.20	6267.95
451.39	6293.70
451.57	6221.14
451.76	6321.79
451.94	6237.53
452.13	6342.85
452.31	6265.61
452.49	6256.25
452.68	6384.98
452.86	6399.02
453.05	6410.73
453.23	6544.14
453.42	6300.72
453.60	6450.52
453.78	6499.67
453.97	6511.37
454.15	6520.73
454.34	6574.56
454.52	6609.67
454.70	6588.61
454.89	6534.78
455.07	6738.40
455.26	6649.46
455.44	6801.60
455.62	6722.02
455.81	6729.04
455.99	6951.39
456.17	6932.67
456.36	6977.14
456.54	7054.37
456.73	6864.79
456.91	7197.15
457.09	7068.42
457.28	7403.11
457.46	7155.02
457.64	7143.32
457.83	7157.36
458.01	7162.04
458.19	7307.15
458.38	7133.95
458.56	7349.28
458.74	7171.40
458.93	7293.11
459.11	7353.96
459.29	7346.94
459.48	7325.88
459.66	7372.69
459.84	7459.29
460.03	7478.01
460.21	7644.19
460.39	7513.12
460.57	7456.95
460.76	7492.05
460.94	7534.18
461.12	7648.87
461.31	7672.28
461.49	7595.04
461.67	7440.56
461.85	7786.96
462.04	7496.74
462.22	8102.93
462.40	7850.16
462.59	7810.37
462.77	7843.14
462.95	7962.50
463.13	7868.88
463.32	7978.89
463.50	7964.84
463.68	7721.43
463.86	8086.55
464.05	7857.18
464.23	7976.55
464.41	8002.29
464.59	7971.86
464.78	8060.80
464.96	8074.85
465.14	7983.57
465.32	8088.89
465.50	8081.87
465.69	8320.60
465.87	8304.22
466.05	8074.85
466.23	8329.97
466.41	8304.22
466.60	8238.69
466.78	8184.85
466.96	8049.10
467.14	8210.60
467.32	8306.56
467.51	8418.91
467.69	8142.72
467.87	8512.53
468.05	8425.93
468.23	8308.90
468.41	8224.64
468.60	8304.22
468.78	8510.19
468.96	8475.08
469.14	8416.57
469.32	8725.52
469.50	8451.67
469.69	8702.11
469.87	8641.26
470.05	8730.20
470.23	8826.16
470.41	8762.97
470.59	8791.05
470.77	8596.79
470.95	8896.38
471.14	8968.93
471.32	8896.38
471.50	9247.46
471.68	9191.28
471.86	9111.71
472.04	9111.71
472.22	9507.26
472.40	9060.21
472.58	9294.27
472.77	9563.43
472.95	9423.00
473.13	9776.42
473.31	9584.49
473.49	9277.88
473.67	9310.65
473.85	9603.22
474.03	9736.63
474.21	9708.54
474.39	9685.14
474.57	9820.89
474.75	9966.00
474.93	9884.08
475.12	9825.57
475.30	10120.48
475.48	10005.79
475.66	10019.83
475.84	10106.43
476.02	10242.18
476.20	10225.80
476.38	10324.10
476.56	10590.92
476.74	10438.79
476.92	10562.84
477.10	10665.82
477.28	10754.76
477.46	10766.46
477.64	10684.55
477.82	11061.37
478.00	11281.38
478.18	11199.46
478.36	11222.87
478.54	11325.85
478.72	11194.78
478.90	11569.27
479.08	11480.33
479.26	11726.08
479.44	11798.64
479.62	11826.73
479.80	11791.62
479.98	11948.43
480.16	12233.98
480.34	12212.92
480.52	12187.17
480.70	12245.68
480.88	12147.38
481.06	12442.29
481.24	12259.73
481.41	12442.29
481.59	12971.25
481.77	12849.54
481.95	12898.69
482.13	12898.69
482.31	12999.34
482.49	13226.37
482.67	13174.88
482.85	13504.89
483.03	13561.06
483.21	13378.50
483.39	13874.70
483.57	13935.55
483.74	14043.21
483.92	14094.71
484.10	13839.59
484.28	14223.44
484.46	14036.19
484.64	14820.27
484.82	14345.14
485.00	14878.79
485.18	14892.83
485.35	14906.87
485.53	14801.55
485.71	14789.85
485.89	15260.29
486.07	15103.48
486.25	15269.66
486.43	15344.55
486.61	15522.43
486.78	15576.27
486.96	15655.84
487.14	16091.18
487.32	16011.60
487.50	16381.41
487.68	16386.09
487.85	16634.19
488.03	16554.61
488.21	16819.09
488.39	16793.34
488.57	17020.38
488.75	16886.97
488.92	17287.20
489.10	17535.29
489.28	17652.32
489.46	17673.39
489.64	17624.23
489.81	18090.00
489.99	18148.51
490.17	18235.11
490.35	18380.23
490.53	18359.16
490.70	18218.73
490.88	18422.36
491.06	18850.67
491.24	18752.37
491.41	18705.56
491.59	18803.86
491.77	18747.69
491.95	19080.05
492.13	19220.48
492.30	19311.76
492.48	19583.26
492.66	20072.43
492.84	19606.67
493.01	20149.67
493.19	19864.13
493.37	20039.67
493.54	20465.64
493.72	20168.40
493.90	20451.60
494.08	20517.14
494.25	20753.53
494.43	20594.37
494.61	21165.46
494.79	21025.03
494.96	20854.17
495.14	21256.75
495.32	21209.93
495.49	21469.73
495.67	21626.55
495.85	21926.14
496.02	21869.97
496.20	22022.10
496.38	22087.64
496.55	22162.53
496.73	22759.37
496.91	22583.83
497.09	22382.54
497.26	22506.59
497.44	22632.98
497.62	22738.30
497.79	23396.00
497.97	22787.46
498.14	23115.13
498.32	23082.36
498.50	23180.67
498.67	23559.83
498.85	23438.12
499.03	24006.87
499.20	24006.87
499.38	24056.03
499.56	23681.54
499.73	24177.73
499.91	23927.30
500.08	24290.08
500.26	24123.90
500.44	24730.10
500.61	24467.96
500.79	24421.15
500.97	24400.08
501.14	24730.10
501.32	24868.19
501.49	24828.40
501.67	25165.44
501.84	25160.76
502.02	25027.35
502.20	25163.10
502.37	25291.83
502.55	25046.07
502.72	25254.38
502.90	25701.42
503.07	25413.54
503.25	25481.41
503.43	25528.22
503.60	25825.47
503.78	26010.37
503.95	26148.46
504.13	26085.27
504.30	26216.34
504.48	26047.82
504.65	26794.45
504.83	26466.78
505.01	26759.34
505.18	26300.60
505.36	26965.31
505.53	26869.35
505.71	27047.23
505.88	27234.47
506.06	26810.84
506.23	27178.30
506.41	26789.77
506.58	27051.91
506.76	27274.26
506.93	27213.41
507.11	27569.17
507.28	27370.22
507.46	27049.57
507.63	27311.71
507.81	27620.66
507.98	27875.78
508.16	27985.79
508.33	27707.26
508.50	27957.70
508.68	28184.73
508.85	28294.74
509.03	28353.25
509.20	28369.63
509.38	28683.27
509.55	28835.40
509.73	29027.32
509.90	28713.69
510.08	28439.85
510.25	28678.58
510.42	29525.86
510.60	28851.78
510.77	28952.43
510.95	29338.62
511.12	29085.84
511.30	29256.70
511.47	29624.16
511.64	29703.74
511.82	29851.19
511.99	29717.78
512.17	29523.52
512.34	29886.30
512.51	29968.22
512.69	29890.98
512.86	30199.93
513.04	30185.89
513.21	30068.86
513.38	29996.31
513.56	30522.93
513.73	30338.02
513.90	30869.33
514.08	30368.45
514.25	30845.92
514.43	30558.03
514.60	30375.47
514.77	30422.28
514.95	30932.52
515.12	31154.87
515.29	30864.64
515.47	30916.14
515.64	31417.01
515.81	31204.02
515.99	31257.85
516.16	31299.98
516.33	31449.78
516.51	31482.55
516.68	30925.50
516.85	31194.66
517.03	31770.43
517.20	31400.63
517.37	31594.89
517.54	31810.22
517.72	32226.84
517.89	31903.84
518.06	31971.72
518.24	31730.64
518.41	31922.57
518.58	31887.46
518.75	32245.56
518.93	32779.20
519.10	32505.36
519.27	32341.52
519.45	32629.41
519.62	32477.27
519.79	32828.35
519.96	32952.40
520.14	33139.65
520.31	32708.99
520.48	33235.61
520.65	33017.94
520.83	33443.91
521.00	33235.61
521.17	33387.74
521.34	33338.59
521.52	32840.06
521.69	33502.43
521.86	33717.76
522.03	33748.18
522.20	33582.01
522.38	34099.26
522.55	34192.89
522.72	34050.11
522.89	33759.89
523.07	34036.07
523.24	33755.21
523.41	34092.24
523.58	34242.04
523.75	34455.03
523.92	34419.92
524.10	34646.95
524.27	34920.79
524.44	34726.53
524.61	34609.50
524.78	34794.40
524.96	34843.56
525.13	34916.11
525.30	34895.05
525.47	34902.07
525.64	35016.75
525.81	35016.75
525.98	35028.46
526.16	35115.06
526.33	35187.61
526.50	35548.06
526.67	35402.94
526.84	35112.72
527.01	35161.87
527.18	35304.64
527.36	35519.97
527.53	35660.40
527.70	35810.20
527.87	35981.06
528.04	35945.95
528.21	36093.40
528.38	35943.61
528.55	35772.75
528.72	36533.42
528.89	36170.64
529.07	36088.72
529.24	35880.41
529.41	36240.86
529.58	36348.52
529.75	35646.36
529.92	36350.86
530.09	36409.37
530.26	36414.05
530.43	36706.62
530.60	36034.89
530.77	36355.54
530.94	36830.67
531.11	36601.30
531.28	36837.69
531.46	37160.69
531.63	37153.66
531.80	37186.43
531.97	36786.20
532.14	36835.35
532.31	36247.88
532.48	36655.13
532.65	37090.47
532.82	37111.53
532.99	37228.56
533.16	36959.40
533.33	36809.61
533.50	37565.60
533.67	37507.08
533.84	36987.49
534.01	38211.59
534.18	37474.32
534.35	37694.33
534.52	37649.86
534.69	37479.00
534.86	37411.12
535.03	37745.82
535.20	37832.42
535.37	37876.89
535.54	38195.20
535.71	38263.08
535.88	37514.11
536.05	38108.60
536.22	38115.62
536.38	38230.31
536.55	38192.86
536.72	38284.14
536.89	37677.94
537.06	38216.27
537.23	38607.14
537.40	38321.59
537.57	37968.17
537.74	38581.39
537.91	38838.85
538.08	38895.02
538.25	38548.62
538.42	38953.54
538.59	39210.99
538.75	38822.47
538.92	38522.88
539.09	38808.42
539.26	38658.63
539.43	38504.15
539.60	38775.66
539.77	38918.43
539.94	38829.49
540.11	39040.14
540.28	39049.50
540.44	38836.51
540.61	39037.80
540.78	38742.89
540.95	39512.92
541.12	38920.77
541.29	39414.62
541.46	39065.88
541.62	39655.70
541.79	39243.76
541.96	39318.66
542.13	39552.71
542.30	39463.77
542.47	39632.29
542.63	39852.30
542.80	39875.71
542.97	40032.52
543.14	40353.18
543.31	40315.73
543.48	40058.27
543.64	40818.94
543.81	40058.27
543.98	40411.69
544.15	40250.19
544.32	40184.66
544.48	40811.92
544.65	40322.75
544.82	40886.82
544.99	40294.66
545.16	40582.55
545.32	40348.50
545.49	40734.68
545.66	41001.50
545.83	40444.46
546.00	40779.15
546.16	40725.32
546.33	40603.61
546.50	40643.40
546.67	40875.12
546.83	40451.48
547.00	40898.52
547.17	40737.02
547.34	40652.76
547.50	40828.30
547.67	41448.55
547.84	40795.54
548.00	41668.56
548.17	41378.33
548.34	40889.16
548.51	41567.91
548.67	41144.28
548.84	41476.63
549.01	41015.55
549.18	41694.30
549.34	41298.75
549.51	41212.15
549.68	41837.08
549.84	41380.67
550.01	41415.78
550.18	41305.77
550.34	41600.68
550.51	41408.76
550.68	41310.46
550.84	41090.44
551.01	41876.86
551.18	41766.86
551.34	42284.12
551.51	41773.88
551.68	41949.42
551.84	41743.45
552.01	42178.79
552.18	41860.48
552.34	41727.07
552.51	42447.96
552.68	41928.36
552.84	42005.59
553.01	42124.96
553.18	42040.70
553.34	42005.59
553.51	41790.27
553.67	42085.17
553.84	42522.85
554.01	42499.45
554.17	42330.93
554.34	42583.71
554.51	42572.00
554.67	42632.86
554.84	42677.33
555.00	42581.37
555.17	42155.39
555.33	42237.31
555.50	42335.61
555.67	42295.82
555.83	42731.16
556.00	42651.58
556.16	42742.86
556.33	42487.74
556.50	42628.18
556.66	42810.74
556.83	42738.18
556.99	42810.74
557.16	42869.25
557.32	43131.39
557.49	42452.64
557.65	42972.24
557.82	42766.27
557.98	42639.88
558.15	43140.75
558.32	42632.86
558.48	42597.75
558.65	43246.08
558.81	42878.61
558.98	43122.03
559.14	43166.50
559.31	43122.03
559.47	43316.29
559.64	43164.16
559.80	43445.02
559.97	42953.51
560.13	42976.92
560.30	43129.05
560.46	42911.38
560.63	43098.62
560.79	43091.60
560.96	43468.43
561.12	43679.08
561.29	42707.76
561.45	43077.56
561.61	43262.46
561.78	43037.77
561.94	43136.07
562.11	43344.38
562.27	42965.21
562.44	43306.93
562.60	43739.93
562.77	43414.60
562.93	43253.10
563.10	43899.09
563.26	43452.05
563.42	43583.12
563.59	43793.76
563.75	43416.94
563.92	43540.99
564.08	43325.66
564.24	43950.58
564.41	44009.09
564.57	43702.48
564.74	43482.47
564.90	43641.63
565.07	43665.03
565.23	43271.82
565.39	43353.74
565.56	43906.11
565.72	43550.35
565.88	43484.81
566.05	43732.91
566.21	43866.32
566.38	43587.80
566.54	43590.14
566.70	43606.52
566.87	44030.16
567.03	43950.58
567.19	43650.99
567.36	44095.69
567.52	43845.26
567.68	44294.64
567.85	43536.30
568.01	43978.67
568.17	43398.21
568.34	43997.39
568.50	44226.76
568.66	44009.09
568.83	43665.03
568.99	43807.81
569.15	44219.74
569.32	43709.50
569.48	43962.28
569.64	44205.70
569.81	44224.42
569.97	43688.44
570.13	44156.55
570.30	43531.62
570.46	43606.52
570.62	43559.71
570.78	44051.22
570.95	43372.47
571.11	44144.84
571.27	43723.55
571.43	44374.22
571.60	44044.20
571.76	44053.56
571.92	44107.40
572.09	44034.84
572.25	44107.40
572.41	43885.04
572.57	44091.01
572.74	44570.82
572.90	44575.50
573.06	44156.55
573.22	44133.14
573.38	43973.98
573.55	43885.04
573.71	44446.77
573.87	43969.30
574.03	43744.61
574.20	44198.68
574.36	43852.28
574.52	44273.57
574.68	44243.15
574.84	44275.91
575.01	44020.80
575.17	44069.95
575.33	44112.08
575.49	43887.39
575.65	44769.77
575.82	44259.53
575.98	44327.41
576.14	44608.27
576.30	44779.13
576.46	43672.06
576.62	44259.53
576.79	44275.91
576.95	44133.14
577.11	44205.70
577.27	44184.63
577.43	44343.79
577.59	44512.31
577.75	44069.95
577.92	43856.96
578.08	43936.54
578.24	43952.92
578.40	44229.10
578.56	44278.25
578.72	44343.79
578.88	44343.79
579.04	44484.22
579.21	43995.05
579.37	44418.69
579.53	44098.03
579.69	43934.20
579.85	44304.00
580.01	44334.43
580.17	44257.19
580.33	44706.57
580.49	44388.26
580.65	44737.00
580.82	44016.11
580.98	44318.04
581.14	43931.86
581.30	44556.78
581.46	44081.65
581.62	44694.87
581.78	44374.22
581.94	44498.26
582.10	44762.75
582.26	44376.56
582.42	44217.40
582.58	44603.59
582.74	44224.42
582.90	44348.47
583.06	44917.22
583.22	44748.70
583.38	44818.92
583.54	44081.65
583.70	44465.50
583.86	44615.29
584.02	44390.60
584.18	44367.20
584.34	44680.83
584.50	44397.62
584.66	44456.14
584.82	44107.40
584.98	44987.44
585.14	44460.82
585.30	44605.93
585.46	44364.85
585.62	44428.05
585.78	44392.94
585.94	43573.75
586.10	44240.81
586.26	44088.67
586.42	44526.35
586.58	44355.49
586.74	44446.77
586.90	44130.80
587.06	44224.42
587.22	44437.41
587.38	44217.40
587.54	44938.29
587.70	44687.85
587.86	44559.12
588.02	44484.22
588.18	44821.26
588.34	44224.42
588.49	44142.50
588.65	44451.45
588.81	44299.32
588.97	44191.65
589.13	43838.23
589.29	44112.08
589.45	44493.58
589.61	44692.53
589.77	44659.76
589.93	44790.83
590.08	44729.98
590.24	44870.41
590.40	44931.26
590.56	44587.21
590.72	44765.09
590.88	44634.02
591.04	44622.31
591.20	45375.97
591.35	44907.86
591.51	45375.97
591.67	44493.58
591.83	44524.01
591.99	44556.78
592.15	44538.05
592.31	44439.75
592.46	44474.86
592.62	44547.42
592.78	44673.81
592.94	45329.16
593.10	44884.45
593.26	45010.84
593.41	44910.20
593.57	44931.26
593.73	44854.03
593.89	44636.36
594.05	44435.07
594.20	44858.71
594.36	45394.69
594.52	45146.59
594.68	44437.41
594.84	45052.97
594.99	44875.09
595.15	45017.86
595.31	45139.57
595.47	45024.89
595.62	45008.50
595.78	44793.17
595.94	45151.27
596.10	44776.79
596.25	44863.39
596.41	44832.96
596.57	44947.65
596.73	44751.04
596.88	44788.49
597.04	45223.83
597.20	44861.05
597.36	44659.76
597.51	44992.12
597.67	44844.66
597.83	45167.66
597.99	45270.64
598.14	44748.70
598.30	44575.50
598.46	44772.11
598.61	45251.92
598.77	44619.97
598.93	45382.99
599.09	44687.85
599.24	45340.86
599.40	44847.00
599.56	45186.38
599.71	45088.08
599.87	45240.21
600.03	44935.95
600.18	44954.67
600.34	44797.85
600.50	45029.57
600.65	44877.43
600.81	45151.27
600.97	45291.71
601.12	45254.26
601.28	45406.39
601.44	44626.99
601.59	44896.16
601.75	44727.64
601.91	44722.96
602.06	44954.67
602.22	44886.79
602.37	45230.85
602.53	45062.33
602.69	45130.21
602.84	44945.31
603.00	44683.17
603.16	44575.50
603.31	44865.73
603.47	45006.16
603.62	44744.02
603.78	44917.22
603.94	44804.88
604.09	45137.23
604.25	44839.98
604.40	44502.95
604.56	45268.30
604.71	44577.84
604.87	45155.96
605.03	44961.69
605.18	44884.45
605.34	44626.99
605.49	44662.10
605.65	44896.16
605.80	45167.66
605.96	45200.43
606.12	45062.33
606.27	45155.96
606.43	44767.43
606.58	44952.33
606.74	44753.38
606.89	44563.80
607.05	44788.49
607.20	44755.72
607.36	44858.71
607.51	44896.16
607.67	44776.79
607.82	44594.23
607.98	45137.23
608.13	44442.09
608.29	44722.96
608.44	44353.15
608.60	44444.43
608.75	44219.74
608.91	44449.11
609.06	44135.48
609.22	44608.27
609.37	44208.04
609.53	44505.29
609.68	44933.60
609.84	44758.06
609.99	44147.18
610.15	44432.73
610.30	44065.27
610.46	43978.67
610.61	44622.31
610.76	44004.41
610.92	44540.39
611.07	44229.10
611.23	44048.88
611.38	44137.82
611.54	44151.87
611.69	44009.09
611.84	43948.24
612.00	44278.25
612.15	43945.90
612.31	44158.89
612.46	44147.18
612.62	44502.95
612.77	44137.82
612.92	44179.95
613.08	44058.24
613.23	43742.27
613.39	43922.49
613.54	43934.20
613.69	43629.93
613.85	43889.73
614.00	44526.35
614.15	44348.47
614.31	43995.05
614.46	44203.36
614.62	43992.71
614.77	43629.93
614.92	43756.32
615.08	44210.38
615.23	43606.52
615.38	43590.14
615.54	43665.03
615.69	43491.83
615.84	43494.18
616.00	43643.97
616.15	43765.68
616.30	43803.13
616.46	43566.73
616.61	43650.99
616.76	43711.84
616.92	43203.95
617.07	43332.68
617.22	43337.36
617.37	43920.15
617.53	43737.59
617.68	43819.51
617.83	43491.83
617.99	43529.28
618.14	43686.10
618.29	43746.95
618.45	43318.64
618.60	43365.45
618.75	43487.15
618.90	43515.24
619.06	43393.53
619.21	43210.97
619.36	43498.86
619.51	42918.40
619.67	43412.26
619.82	43367.79
619.97	43480.13
620.12	43346.72
620.28	42637.54
620.43	42976.92
620.58	43299.91
620.73	43040.11
620.89	42969.90
621.04	43136.07
621.19	43491.83
621.34	42658.60
621.49	42871.59
621.65	42887.98
621.80	42752.23
621.95	42829.46
622.10	42885.64
622.25	42700.73
622.41	42454.98
622.56	42946.49
622.71	43180.54
622.86	42527.53
623.01	43124.37
623.16	43042.45
623.32	42454.98
623.47	42787.33
623.62	42864.57
623.77	42330.93
623.92	42632.86
624.07	42600.09
624.23	42616.47
624.38	42459.66
624.53	42326.25
624.68	42770.95
624.83	42569.66
624.98	42281.78
625.13	42593.07
625.29	42359.02
625.44	42328.59
625.59	42054.75
625.74	41935.38
625.89	41958.78
626.04	41724.73
626.19	41827.71
626.34	42492.43
626.49	42054.75
626.65	42253.69
626.80	42164.75
626.95	41923.68
627.10	42204.54
627.25	41776.22
627.40	41364.29
627.55	41649.83
627.70	41535.15
627.85	41401.74
628.00	41507.06
628.15	42251.35
628.30	42059.43
628.45	41963.46
628.60	41914.31
628.76	41893.25
628.91	42150.71
629.06	41841.76
629.21	41804.31
629.36	41308.11
629.51	41464.93
629.66	41338.54
629.81	41294.07
629.96	41509.40
630.11	41214.49
630.26	41478.97
630.41	41881.55
630.56	41294.07
630.71	41638.13
630.86	41469.61
631.01	41708.35
631.16	40973.42
631.31	41191.09
631.46	41003.85
631.61	41387.69
631.76	41193.43
631.91	41408.76
632.06	41240.24
632.21	41158.32
632.36	41179.39
632.51	40821.28
632.66	41237.90
632.81	40664.47
632.96	41010.87
633.10	40533.40
633.25	41036.61
633.40	40500.63
633.55	41123.21
633.70	41146.62
633.85	40545.10
634.00	40919.59
634.15	41053.00
634.30	40423.39
634.45	40556.80
634.60	40453.82
634.75	40989.80
634.90	40790.86
635.05	40886.82
635.19	40418.71
635.34	40753.41
635.49	40872.78
635.64	40107.42
635.79	40212.74
635.94	40187.00
636.09	40531.06
636.24	40505.31
636.39	39793.79
636.53	40524.04
636.68	40062.95
636.83	39754.00
636.98	40268.92
637.13	39969.33
637.28	40278.28
637.43	40339.13
637.57	40421.05
637.72	40432.75
637.87	40217.43
638.02	40505.31
638.17	40151.89
638.32	39974.01
638.46	39618.25
638.61	39854.64
638.76	39608.89
638.91	39744.64
639.06	40081.67
639.20	40065.29
639.35	40231.47
639.50	39856.98
639.65	39768.04
639.80	40004.44
639.94	40229.13
640.09	39866.34
640.24	39599.52
640.39	39241.42
640.54	40067.63
640.68	39475.48
640.83	39969.33
640.98	39260.15
641.13	39325.68
641.27	39435.69
641.42	39658.04
641.57	39672.08
641.72	39278.87
641.86	39445.05
642.01	39033.11
642.16	39536.33
642.31	38960.56
642.45	39220.36
642.60	39213.34
642.75	38969.92
642.90	38998.01
643.04	39594.84
643.19	39175.89
643.34	39203.97
643.48	39159.50
643.63	38869.28
643.78	39042.48
643.93	39112.69
644.07	39009.71
644.22	38965.24
644.37	38913.75
644.51	39152.48
644.66	38866.94
644.81	38813.10
644.95	38990.98
645.10	39138.44
645.25	39019.07
645.39	39065.88
645.54	39056.52
645.69	39009.71
645.83	38770.97
645.98	38370.74
646.13	38962.90
646.27	39005.03
646.42	38667.99
646.57	39002.69
646.71	38792.04
646.86	38778.00
647.00	38909.07
647.15	38312.23
647.30	38658.63
647.44	38806.08
647.59	38560.33
647.74	38567.35
647.88	38473.73
648.03	38466.70
648.17	38586.07
648.32	38047.75
648.47	38499.47
648.61	38342.66
648.76	38396.49
648.90	38628.20
649.05	38401.17
649.20	38284.14
649.34	38300.53
649.49	38333.29
649.63	38443.30
649.78	38436.28
649.92	38440.96
650.07	38576.71
650.21	37841.78
650.36	38330.95
650.51	37914.34
650.65	38246.69
650.80	38452.66
650.94	38410.53
651.09	38246.69
651.23	38075.84
651.38	37745.82
651.52	37551.56
651.67	38370.74
651.81	38117.96
651.96	37706.03
652.10	37736.46
652.25	37233.24
652.39	37359.63
652.54	37963.49
652.68	37855.82
652.83	37848.80
652.97	37619.43
653.12	37691.99
653.26	37752.84
653.41	37717.73
653.55	37675.60
653.70	37532.83
653.84	37053.02
653.99	37951.79
654.13	37916.68
654.27	37514.11
654.42	37626.45
654.56	37652.20
654.71	37448.57
654.85	37443.89
655.00	37628.79
655.14	37170.05
655.29	36811.95
655.43	37244.94
655.57	36774.50
655.72	36467.89
655.86	37212.18
656.01	36961.74
656.15	37015.57
656.30	37109.19
656.44	36477.25
656.58	36470.23
656.73	36587.25
656.87	36573.21
657.01	36671.51
657.16	36662.15
657.30	36486.61
657.45	36683.22
657.59	36861.10
657.73	36781.52
657.88	36533.42
658.02	36425.76
658.16	36580.23
658.31	36692.58
658.45	37038.98
658.60	36526.40
658.74	36390.65
658.88	36385.97
659.03	36149.57
659.17	36037.23
659.31	35894.46
659.46	35878.07
659.60	35967.01
659.74	36072.34
659.89	35445.07
660.03	35857.01
660.17	36311.07
660.32	36070.00
660.46	36065.31
660.60	36404.69
660.74	35955.31
660.89	35943.61
661.03	35262.51
661.17	35508.27
661.32	35386.56
661.46	36025.53
661.60	35421.67
661.74	35491.88
661.89	35775.09
662.03	35512.95
662.17	35562.10
662.31	35349.11
662.46	35859.35
662.60	35871.05
662.74	35381.88
662.88	35267.19
663.03	35372.52
663.17	35185.27
663.31	35079.95
663.45	35381.88
663.60	34831.85
663.74	35189.95
663.88	35086.97
664.02	35040.16
664.17	34469.07
664.31	34403.53
664.45	34731.21
664.59	34838.87
664.73	34932.50
664.88	34747.59
665.02	34569.71
665.16	34808.45
665.30	34611.84
665.44	34398.85
665.59	33951.81
665.73	34312.25
665.87	34033.73
666.01	34134.37
666.15	34141.39
666.29	34298.21
666.44	34227.99
666.58	34188.21
666.72	33890.96
666.86	34253.74
667.00	34366.09
667.14	33790.31
667.28	33738.82
667.43	33340.93
667.57	33544.56
667.71	33497.75
667.85	33687.33
667.99	33542.22
668.13	33905.00
668.27	33338.59
668.41	33530.51
668.56	33364.34
668.70	33476.68
668.84	33490.73
668.98	32931.34
669.12	33125.60
669.26	32994.53
669.40	33067.09
669.54	32690.26
669.68	32774.52
669.82	32840.06
669.96	32613.02
670.10	32723.03
670.25	32879.85
670.39	32751.12
670.53	32746.44
670.67	32533.45
670.81	32353.23
670.95	32868.14
671.09	32467.91
671.23	32423.44
671.37	32266.63
671.51	32287.69
671.65	32032.57
671.79	32161.30
671.93	31810.22
672.07	32063.00
672.21	31730.64
672.35	32102.79
672.49	32133.21
672.63	31580.85
672.77	31707.24
672.91	31498.93
673.05	31068.27
673.19	31089.34
673.33	31337.43
673.47	31110.40
673.61	31101.04
673.75	31035.50
673.89	30618.89
674.03	31299.98
674.17	30597.82
674.31	30761.66
674.45	30703.15
674.59	30953.58
674.73	31075.29
674.87	30913.80
675.01	30567.40
675.15	30656.34
675.29	30611.87
675.43	30632.93
675.56	30656.34
675.70	30183.55
675.84	30426.96
675.98	29628.84
676.12	30230.36
676.26	30000.99
676.40	29759.91
676.54	29717.78
676.68	29570.33
676.82	29413.51
676.96	29612.46
677.10	29090.52
677.23	28793.27
677.37	29249.67
677.51	29539.90
677.65	29254.36
677.79	28734.76
677.93	28645.82
678.07	28542.83
678.21	28870.51
678.34	28498.36
678.48	28414.10
678.62	28615.39
678.76	28290.06
678.90	28369.63
679.04	28112.17
679.18	28130.90
679.31	27658.11
679.45	28276.01
679.59	27569.17
679.73	27178.30
679.87	27470.87
680.00	27957.70
680.14	27562.15
680.28	27585.55
680.42	27131.49
680.56	27414.69
680.70	27267.24
680.83	27426.40
680.97	26962.97
681.11	27096.38
681.25	26705.51
681.39	26710.19
681.52	27028.51
681.66	26712.53
681.80	26827.22
681.94	26724.24
682.07	26850.63
682.21	26361.45
682.35	26473.80
682.49	26244.43
682.62	26057.18
682.76	25645.25
682.90	26249.11
683.04	25572.69
683.17	25827.81
683.31	25970.58
683.45	25766.96
683.59	25612.48
683.72	25333.96
683.86	24924.36
684.00	25230.98
684.13	25275.45
684.27	25362.04
684.41	25123.31
684.55	24830.74
684.68	25174.80
684.82	24608.39
684.96	24613.07
685.09	24809.68
685.23	24428.17
685.37	24257.31
685.50	24032.62
685.64	24046.66
685.78	24140.29
685.91	24299.44
686.05	24180.07
686.19	23529.41
686.32	23597.28
686.46	23878.15
686.60	23363.23
686.73	23229.82
686.87	23449.83
687.01	23253.22
687.14	23014.49
687.28	22934.91
687.42	23028.53
687.55	22993.42
687.69	23049.60
687.82	22721.92
687.96	22810.86
688.10	22595.53
688.23	22513.61
688.37	22569.79
688.50	21947.20
688.64	22031.46
688.78	22246.79
688.91	22061.89
689.05	21996.35
689.18	22068.91
689.32	21734.21
689.46	22019.76
689.59	22043.17
689.73	22143.81
689.86	21331.64
690.00	21734.21
690.13	21930.82
690.27	21439.31
690.41	21226.32
690.54	21387.82
690.68	20912.69
690.81	20908.01
690.95	20877.58
691.08	20652.89
691.22	20718.42
691.35	20762.89
691.49	20886.94
691.62	21053.12
691.76	20936.09
691.89	20482.03
692.03	20329.89
692.16	19992.86
692.30	20259.68
692.43	20280.74
692.57	20084.14
692.70	20123.93
692.84	19981.15
692.97	20067.75
693.11	19697.95
693.24	19709.65
693.38	19307.08
693.51	19463.90
693.65	19573.90
693.78	19777.53
693.92	19363.25
694.05	19164.31
694.19	19145.58
694.32	18899.83
694.45	18972.38
694.59	18897.49
694.72	18946.64
694.86	18892.80
694.99	18572.15
695.13	18728.97
695.26	18342.78
695.39	18263.20
695.53	18253.84
695.66	18139.15
695.80	18359.16
695.93	18050.21
696.07	18022.12
696.20	17926.16
696.33	17825.52
696.47	17809.14
696.60	17785.73
696.73	17626.57
696.87	17940.21
697.00	17558.70
697.14	17589.13
697.27	17654.66
697.40	17455.72
697.54	17322.30
697.67	17132.72
697.80	17067.19
697.94	17109.32
698.07	17240.39
698.21	17116.34
698.34	17282.52
698.47	16940.80
698.61	16875.26
698.74	16512.48
698.87	16559.29
699.01	16592.06
699.14	15971.82
699.27	16339.28
699.40	16475.03
699.54	15805.64
699.67	15845.43
699.80	15875.85
699.94	15969.48
700.07	16159.06
700.20	15723.72
700.34	15838.41
700.47	15686.27
700.60	15831.38
700.73	15840.75
700.87	15620.74
701.00	15386.68
701.13	15389.02
701.26	15527.11
701.40	15480.30
701.53	15414.77
701.66	14941.98
701.79	14951.34
701.93	14988.79
702.06	14855.38
702.19	14747.72
702.32	14939.64
702.46	14780.48
702.59	14410.68
702.72	14523.02
702.85	14572.18
702.99	14864.74
703.12	14675.16
703.25	14300.67
703.38	14347.48
703.51	14190.67
703.65	14099.39
703.78	14012.79
703.91	13984.70
704.04	14087.68
704.17	13991.72
704.31	13982.36
704.44	13872.36
704.57	13774.05
704.70	13458.08
704.83	13554.04
704.96	13415.95
705.10	13809.16
705.23	13652.34
>>>>>End Processed Spectral Data<<<<<
