SpectraSuite Data File
++++++++++++++++++++++++++++++++++++
Date: Fri Oct 25 10:44:02 EDT 2013
User: price-jones
Dark Spectrum Present: No
Reference Spectrum Present: No
Number of Sampled Component Spectra: 1
Spectrometers: USB2+H05261
Integration Time (usec): 100000 (USB2+H05261)
Spectra Averaged: 1 (USB2+H05261)
Boxcar Smoothing: 0 (USB2+H05261)
Correct for Electrical Dark: No (USB2+H05261)
Strobe/Lamp Enabled: No (USB2+H05261)
Correct for Detector Non-linearity: No (USB2+H05261)
Correct for Stray Light: No (USB2+H05261)
Number of Pixels in Processed Spectrum: 2048
>>>>>Begin Processed Spectral Data<<<<<
365.73	124.05
365.92	124.05
366.12	124.05
366.32	4.68
366.52	35.11
366.72	39.79
366.91	28.09
367.11	11.70
367.31	21.06
367.51	0.00
367.70	79.58
367.90	37.45
368.10	0.00
368.30	72.56
368.49	0.00
368.69	93.62
368.89	18.72
369.09	65.54
369.28	77.24
369.48	72.56
369.68	105.32
369.87	84.26
370.07	28.09
370.27	105.32
370.47	184.90
370.66	379.17
370.86	458.74
371.06	451.72
371.25	491.51
371.45	397.89
371.65	458.74
371.84	486.83
372.04	442.36
372.24	521.94
372.44	521.94
372.63	454.06
372.83	535.98
373.03	449.38
373.22	503.22
373.42	514.92
373.62	533.64
373.81	521.94
374.01	486.83
374.21	545.34
374.40	505.56
374.60	585.13
374.79	599.18
374.99	662.37
375.19	643.65
375.38	592.16
375.58	608.54
375.78	610.88
375.97	638.97
376.17	622.58
376.37	704.50
376.56	624.92
376.76	615.56
376.95	510.24
377.15	695.14
377.35	631.94
377.54	594.50
377.74	727.91
377.93	589.82
378.13	634.29
378.33	688.12
378.52	571.09
378.72	629.60
378.91	610.88
379.11	653.01
379.31	667.05
379.50	678.76
379.70	702.16
379.89	725.57
380.09	606.20
380.28	678.76
380.48	723.23
380.68	641.31
380.87	657.69
381.07	746.63
381.26	758.33
381.46	723.23
381.65	711.52
381.85	727.91
382.04	772.38
382.24	690.46
382.43	671.73
382.63	697.48
382.83	734.93
383.02	730.25
383.22	711.52
383.41	779.40
383.61	767.70
383.80	777.06
384.00	695.14
384.19	835.57
384.39	713.86
384.58	809.83
384.78	793.44
384.97	786.42
385.17	763.01
385.36	781.74
385.56	791.10
385.75	788.76
385.95	814.51
386.14	847.27
386.34	786.42
386.53	875.36
386.72	912.81
386.92	828.55
387.11	945.58
387.31	863.66
387.50	840.25
387.70	870.68
387.89	912.81
388.09	915.15
388.28	889.40
388.48	866.00
388.67	873.02
388.86	922.17
389.06	858.98
389.25	1001.75
389.45	938.55
389.64	1046.22
389.84	973.66
390.03	1048.56
390.22	1036.86
390.42	1102.39
390.61	1071.97
390.81	1090.69
391.00	1111.75
391.19	1111.75
391.39	1128.14
391.58	1128.14
391.78	1107.07
391.97	994.73
392.16	1102.39
392.36	1114.10
392.55	1013.45
392.75	1027.50
392.94	957.28
393.13	1041.54
393.33	973.66
393.52	1067.28
393.71	1163.25
393.91	1100.05
394.10	1118.78
394.29	1158.57
394.49	1132.82
394.68	1137.50
394.88	1254.53
395.07	1299.00
395.26	1294.32
395.46	1233.46
395.65	1294.32
395.84	1249.85
396.04	1266.23
396.23	1186.65
396.42	1170.27
396.62	1273.25
396.81	1130.48
397.00	1324.74
397.19	1306.02
397.39	1430.07
397.58	1390.28
397.77	1350.49
397.97	1465.18
398.16	1507.30
398.35	1554.12
398.55	1446.45
398.74	1582.20
398.93	1572.84
399.12	1495.60
399.32	1638.38
399.51	1603.27
399.70	1650.08
399.90	1626.67
400.09	1596.25
400.28	1626.67
400.47	1572.84
400.67	1614.97
400.86	1722.63
401.05	1629.01
401.24	1802.21
401.44	1724.97
401.63	1732.00
401.82	1739.02
402.01	1942.64
402.21	1739.02
402.40	1823.28
402.59	1776.47
402.78	1732.00
402.97	1776.47
403.17	1827.96
403.36	1872.43
403.55	1809.23
403.74	1919.24
403.93	1884.13
404.13	1996.48
404.32	1968.39
404.51	1874.77
404.70	2036.27
404.89	2019.88
405.09	1947.33
405.28	1956.69
405.47	1898.17
405.66	2036.27
405.85	1984.77
406.05	2040.95
406.24	1959.03
406.43	1989.46
406.62	2169.68
406.81	2076.06
407.00	2080.74
407.20	2085.42
407.39	2111.16
407.58	2317.13
407.77	2251.60
407.96	2258.62
408.15	2333.51
408.34	2293.72
408.54	2265.64
408.73	2260.96
408.92	2349.90
409.11	2363.94
409.30	2399.05
409.49	2415.43
409.68	2289.04
409.87	2286.70
410.07	2361.60
410.26	2469.27
410.45	2410.75
410.64	2520.76
410.83	2682.25
411.02	2616.72
411.21	2682.25
411.40	2616.72
411.59	2686.94
411.78	2656.51
411.98	2663.53
412.17	2708.00
412.36	2743.11
412.55	2740.77
412.74	2904.60
412.93	2796.94
413.12	2768.85
413.31	3030.99
413.50	3000.57
413.69	2913.97
413.88	2834.39
414.07	3028.65
414.26	3115.25
414.45	3038.02
414.64	3028.65
414.83	3059.08
415.02	3335.26
415.22	3143.34
415.41	3281.43
415.60	3290.79
415.79	3449.95
415.98	3471.01
416.17	3363.35
416.36	3302.50
416.55	3361.01
416.74	3485.06
416.93	3407.82
417.12	3339.94
417.31	3459.31
417.50	3396.12
417.69	3569.32
417.88	3552.93
418.07	3466.33
418.26	3545.91
418.45	3515.48
418.64	3772.94
418.83	3620.81
419.02	3733.15
419.21	3665.28
419.39	3644.21
419.58	3630.17
419.77	3782.31
419.96	3726.13
420.15	3843.16
420.34	3843.16
420.53	3726.13
420.72	4007.00
420.91	3948.48
421.10	3882.95
421.29	3976.57
421.48	3864.22
421.67	3934.44
421.86	3967.21
422.05	3999.98
422.24	3934.44
422.43	3953.16
422.61	4011.68
422.80	3927.42
422.99	4070.19
423.18	3997.64
423.37	4119.34
423.56	4070.19
423.75	4032.74
423.94	3955.51
424.13	3845.50
424.32	3864.22
424.50	4189.56
424.69	4161.47
424.88	4070.19
425.07	4032.74
425.26	3873.59
425.45	4091.26
425.64	4196.58
425.83	4053.81
426.01	4283.18
426.20	4142.75
426.39	4243.39
426.58	4018.70
426.77	4025.72
426.96	4053.81
427.15	4231.69
427.33	4219.99
427.52	4283.18
427.71	4217.65
427.90	4119.34
428.09	4369.78
428.28	4215.30
428.46	4180.20
428.65	4266.80
428.84	4402.55
429.03	4322.97
429.22	4081.89
429.40	4299.56
429.59	4379.14
429.78	4114.66
429.97	3999.98
430.16	4205.94
430.34	4264.46
430.53	4194.24
430.72	4318.29
430.91	4454.04
431.10	4332.33
431.28	4800.44
431.47	4812.14
431.66	4823.84
431.85	4594.47
432.03	4603.83
432.22	4760.65
432.41	4777.03
432.60	4898.74
432.79	4936.19
432.97	4774.69
433.16	4727.88
433.35	4793.42
433.54	4791.08
433.72	4770.01
433.91	4758.31
434.10	5090.67
434.28	4898.74
434.47	5043.85
434.66	4940.87
434.85	5074.28
435.03	5001.72
435.22	5156.20
435.41	5315.36
435.59	5287.27
435.78	5266.21
435.97	5167.90
436.16	5240.46
436.34	5277.91
436.53	5291.95
436.72	5373.87
436.90	5277.91
437.09	5369.19
437.28	5177.26
437.46	5280.25
437.65	5320.04
437.84	5296.63
438.02	5301.31
438.21	5514.30
438.40	5387.91
438.58	5455.79
438.77	5509.62
438.96	5685.16
439.14	5668.78
439.33	5863.04
439.52	5722.61
439.70	5769.42
439.89	5891.13
440.08	5753.04
440.26	5977.73
440.45	5879.43
440.63	6010.50
440.82	6125.18
441.01	6317.11
441.19	6279.66
441.38	6282.00
441.57	6277.32
441.75	6429.45
441.94	6289.02
442.12	6513.71
442.31	6373.28
442.50	6558.18
442.68	6361.58
442.87	6619.04
443.05	6429.45
443.24	6726.70
443.43	6574.56
443.61	6553.50
443.80	6745.42
443.98	6623.72
444.17	6527.75
444.35	6930.33
444.54	6839.05
444.73	6768.83
444.91	6775.85
445.10	6686.91
445.28	6665.85
445.47	6562.86
445.65	6726.70
445.84	6555.84
446.02	6808.62
446.21	6693.93
446.39	6869.47
446.58	6913.94
446.77	6897.56
446.95	6752.45
447.14	6778.19
447.32	6888.20
447.51	6827.34
447.69	6937.35
447.88	6832.02
448.06	6885.86
448.25	6775.85
448.43	7042.67
448.62	6841.39
448.80	6909.26
448.99	7178.42
449.17	6974.80
449.36	7155.02
449.54	7082.46
449.73	7213.53
449.91	7314.17
450.10	7248.64
450.28	7482.69
450.46	7468.65
450.65	7524.82
450.83	7623.12
451.02	7332.90
451.20	7515.46
451.39	7466.31
451.57	7307.15
451.76	7452.27
451.94	7468.65
452.13	7714.41
452.31	7536.52
452.49	7176.08
452.68	7442.90
452.86	7489.71
453.05	7604.40
453.23	7595.04
453.42	7363.33
453.60	7602.06
453.78	7702.70
453.97	7588.02
454.15	7569.29
454.34	7531.84
454.52	7801.01
454.70	7618.44
454.89	7763.56
455.07	7747.17
455.26	7826.75
455.44	7871.22
455.62	8018.68
455.81	7932.08
455.99	7976.55
456.17	8191.88
456.36	8046.76
456.54	8067.83
456.73	8177.83
456.91	8297.20
457.09	8486.78
457.28	8446.99
457.46	8198.90
457.64	8365.07
457.83	8336.99
458.01	8217.62
458.19	8512.53
458.38	8353.37
458.56	8470.40
458.74	8547.64
458.93	8561.68
459.11	8596.79
459.29	8360.39
459.48	8615.51
459.66	8638.92
459.84	8744.24
460.03	8732.54
460.21	8636.58
460.39	8596.79
460.57	8894.04
460.76	8786.37
460.94	8807.44
461.12	8858.93
461.31	9043.83
461.49	8938.51
461.67	8971.27
461.85	9095.32
462.04	9104.68
462.22	9582.15
462.40	9261.50
462.59	9247.46
462.77	9214.69
462.95	9345.76
463.13	9263.84
463.32	9137.45
463.50	9270.86
463.68	9357.46
463.86	9291.93
464.05	9195.96
464.23	9011.06
464.41	9195.96
464.59	9165.54
464.78	9357.46
464.96	9694.50
465.14	9207.67
465.32	9359.80
465.50	9593.86
465.69	9474.49
465.87	9483.85
466.05	9327.03
466.23	9256.82
466.41	9385.55
466.60	9635.99
466.78	9420.66
466.96	9540.02
467.14	9614.92
467.32	9774.08
467.51	9802.16
467.69	9348.10
467.87	9535.34
468.05	9668.75
468.23	9745.99
468.41	9769.40
468.60	9687.48
468.78	9867.70
468.96	9797.48
469.14	10078.35
469.32	10099.41
469.50	9905.15
469.69	9989.41
469.87	10333.47
470.05	10190.69
470.23	10246.87
470.41	10033.88
470.59	10303.04
470.77	10274.95
470.95	10307.72
471.14	10326.44
471.32	10331.12
471.50	10677.52
471.68	10717.31
471.86	10574.54
472.04	10684.55
472.22	11066.05
472.40	10387.30
472.58	10544.11
472.77	10644.76
472.95	11059.03
473.13	11288.40
473.31	10904.56
473.49	10740.72
473.67	10717.31
473.85	10876.47
474.03	11382.03
474.21	11410.11
474.39	11480.33
474.57	11187.76
474.75	11452.24
474.93	11517.78
475.12	11475.65
475.30	11789.28
475.48	11531.82
475.66	11716.72
475.84	11751.83
476.02	11595.01
476.20	11686.29
476.38	11789.28
476.56	11995.25
476.74	12283.13
476.92	12322.92
477.10	12212.92
477.28	12498.46
477.46	12491.44
477.64	12269.09
477.82	12786.35
478.00	13011.04
478.18	12952.52
478.36	12926.78
478.54	12999.34
478.72	12912.74
478.90	13509.57
479.08	13411.27
479.26	13568.09
479.44	13437.02
479.62	13678.09
479.80	13802.14
479.98	13837.25
480.16	13888.74
480.34	14029.17
480.52	13998.74
480.70	14345.14
480.88	14064.28
481.06	14197.69
481.24	14377.91
481.41	14438.76
481.59	14822.61
481.77	14803.89
481.95	15016.88
482.13	14970.07
482.31	15096.46
482.49	15686.27
482.67	15508.39
482.85	15262.63
483.03	15709.68
483.21	15934.37
483.39	15683.93
483.57	15875.85
483.74	15824.36
483.92	16039.69
484.10	16013.95
484.28	16407.16
484.46	16332.26
484.64	16776.96
484.82	16863.56
485.00	16533.54
485.18	16772.28
485.35	16905.69
485.53	16423.54
485.71	16402.47
485.89	16791.00
486.07	16926.75
486.25	17242.73
486.43	17209.96
486.61	17558.70
486.78	17605.51
486.96	17907.44
487.14	17977.65
487.32	18207.03
487.50	18370.86
487.68	18534.70
487.85	18904.51
488.03	18946.64
488.21	18724.29
488.39	18958.34
488.57	19087.07
488.75	19192.39
488.92	19342.19
489.10	19939.02
489.28	19826.68
489.46	20531.18
489.64	20421.17
489.81	20580.33
489.99	20697.36
490.17	20992.26
490.35	20922.05
490.53	21043.76
490.70	21020.35
490.88	21039.08
491.06	21310.58
491.24	21284.83
491.41	21521.23
491.59	21298.88
491.77	21209.93
491.95	21376.11
492.13	21944.86
492.30	21853.58
492.48	22169.55
492.66	22155.51
492.84	22288.92
493.01	22534.68
493.19	22658.73
493.37	22555.74
493.54	22951.29
493.72	23194.71
493.90	23510.68
494.08	23524.72
494.25	23955.38
494.43	23894.53
494.61	24182.42
494.79	24245.61
494.96	24084.11
495.14	24196.46
495.32	24400.08
495.49	24196.46
495.67	24311.14
495.85	25039.05
496.02	24870.53
496.20	25057.78
496.38	24961.81
496.55	25390.13
496.73	25806.75
496.91	25628.87
497.09	25872.28
497.26	25589.08
497.44	25469.71
497.62	26040.80
497.79	26279.54
497.97	25708.44
498.14	25811.43
498.32	26457.42
498.50	26331.03
498.67	26574.44
498.85	26822.54
499.03	27236.81
499.20	26920.84
499.38	26787.43
499.56	26991.06
499.73	27068.30
499.91	27276.60
500.08	27304.69
500.26	26969.99
500.44	27349.16
500.61	27543.42
500.79	27262.56
500.97	27665.13
501.14	27953.02
501.32	27651.09
501.49	27620.66
501.67	27779.82
501.84	27704.92
502.02	28140.26
502.20	28290.06
502.37	28617.73
502.55	28386.02
502.72	28943.06
502.90	28570.92
503.07	28893.91
503.25	29057.75
503.43	28584.96
503.60	28379.00
503.78	28985.19
503.95	29085.84
504.13	28936.04
504.30	29401.81
504.48	29621.82
504.65	29582.03
504.83	29631.18
505.01	29937.79
505.18	29879.28
505.36	30148.44
505.53	29935.45
505.71	30387.18
505.88	30380.15
506.06	30185.89
506.23	30235.04
506.41	30340.36
506.58	30644.63
506.76	30480.80
506.93	30969.97
507.11	30890.39
507.28	30630.59
507.46	30850.60
507.63	30583.78
507.81	30792.09
507.98	31140.83
508.16	31180.62
508.33	30848.26
508.50	31569.15
508.68	31747.03
508.85	31864.05
509.03	31463.82
509.20	31798.52
509.38	32231.52
509.55	32034.91
509.73	31910.86
509.90	32418.76
510.08	31887.46
510.25	32095.77
510.42	32381.31
510.60	32449.19
510.77	32577.92
510.95	32676.22
511.12	32648.13
511.30	32659.84
511.47	33457.96
511.64	32671.54
511.82	33158.37
511.99	32772.18
512.17	33209.86
512.34	33118.58
512.51	33177.09
512.69	33397.10
512.86	33507.11
513.04	33542.22
513.21	33720.10
513.38	33443.91
513.56	33558.60
513.73	33556.26
513.90	33638.18
514.08	33832.44
514.25	33809.04
514.43	34059.48
514.60	34373.11
514.77	34157.78
514.95	34274.80
515.12	34017.35
515.29	34314.59
515.47	34595.46
515.64	34927.81
515.81	34593.12
515.99	34242.04
516.16	34499.50
516.33	34410.56
516.51	34235.02
516.68	33502.43
516.85	33724.78
517.03	33954.15
517.20	34546.31
517.37	34644.61
517.54	35229.74
517.72	34834.19
517.89	34703.12
518.06	34583.76
518.24	35054.20
518.41	35463.80
518.58	35768.07
518.75	35400.60
518.93	35283.58
519.10	35510.61
519.27	35606.57
519.45	35379.54
519.62	36385.97
519.79	36081.70
519.96	36280.64
520.14	36219.79
520.31	35620.61
520.48	36343.84
520.65	36350.86
520.83	36943.02
521.00	36577.89
521.17	36528.74
521.34	36804.92
521.52	36818.97
521.69	36903.23
521.86	36882.16
522.03	37198.13
522.20	37060.04
522.38	37165.37
522.55	37181.75
522.72	37167.71
522.89	37326.86
523.07	37104.51
523.24	37544.53
523.41	37928.38
523.58	37467.30
523.75	38216.27
523.92	37972.85
524.10	38019.66
524.27	37846.46
524.44	38202.22
524.61	38368.40
524.78	38476.07
524.96	38281.80
525.13	38071.15
525.30	38555.64
525.47	38965.24
525.64	38410.53
525.81	38251.38
525.98	38307.55
526.16	37895.61
526.33	38155.41
526.50	38246.69
526.67	37986.89
526.84	37848.80
527.01	38164.78
527.18	38490.11
527.36	38932.47
527.53	38799.06
527.70	38880.98
527.87	38836.51
528.04	38953.54
528.21	38866.94
528.38	39402.92
528.55	39819.53
528.72	39695.49
528.89	39908.47
529.07	39325.68
529.24	39585.48
529.41	39828.90
529.58	39775.06
529.75	39122.05
529.92	39707.19
530.09	39597.18
530.26	39992.73
530.43	40238.49
530.60	40175.30
530.77	40032.52
530.94	40699.58
531.11	40158.91
531.28	40257.21
531.46	40596.59
531.63	39990.39
531.80	40486.59
531.97	39922.52
532.14	39988.05
532.31	39697.83
532.48	40224.45
532.65	40123.80
532.82	40245.51
532.99	40664.47
533.16	40463.18
533.33	41031.93
533.50	41003.85
533.67	40840.01
533.84	40524.04
534.01	40959.38
534.18	40863.41
534.35	41170.02
534.52	40802.56
534.69	41219.17
534.86	41193.43
535.03	40994.48
535.20	41308.11
535.37	41703.67
535.54	41495.36
535.71	41331.52
535.88	41638.13
536.05	41443.87
536.22	41509.40
536.38	41633.45
536.55	40968.74
536.72	41549.19
536.89	41153.64
537.06	41427.48
537.23	41858.14
537.40	41752.82
537.57	42218.58
537.74	41928.36
537.91	42471.36
538.08	41942.40
538.25	42124.96
538.42	41530.47
538.59	41844.10
538.75	41764.52
538.92	41888.57
539.09	42021.98
539.26	41904.95
539.43	42174.11
539.60	42094.53
539.77	41748.14
539.94	42216.24
540.11	41961.12
540.28	41860.48
540.44	42351.99
540.61	42080.49
540.78	42047.72
540.95	42202.20
541.12	41986.87
541.29	42232.63
541.46	42447.96
541.62	42768.61
541.79	42923.08
541.96	42281.78
542.13	42684.35
542.30	42581.37
542.47	42698.39
542.63	42871.59
542.80	43129.05
542.97	43199.27
543.14	43672.06
543.31	43576.09
543.48	43239.06
543.64	43543.33
543.81	43615.88
543.98	43643.97
544.15	43475.45
544.32	43737.59
544.48	43784.40
544.65	43505.88
544.82	43634.61
544.99	43768.02
545.16	43569.07
545.32	43512.90
545.49	44222.08
545.66	43772.70
545.83	43856.96
546.00	44362.51
546.16	43847.60
546.33	43922.49
546.50	43475.45
546.67	44165.91
546.83	43749.29
547.00	44034.84
547.17	43796.10
547.34	43906.11
547.50	43927.17
547.67	44362.51
547.84	43920.15
548.00	44673.81
548.17	44547.42
548.34	44411.67
548.51	44645.72
548.67	44804.88
548.84	44418.69
549.01	44481.88
549.18	44168.25
549.34	44566.14
549.51	44500.61
549.68	44516.99
549.84	44868.07
550.01	45240.21
550.18	44509.97
550.34	44493.58
550.51	44687.85
550.68	44430.39
550.84	44268.89
551.01	44793.17
551.18	44739.34
551.34	44573.16
551.51	45029.57
551.68	45106.80
551.84	45006.16
552.01	44615.29
552.18	45439.16
552.34	44802.53
552.51	45151.27
552.68	44921.90
552.84	45312.77
553.01	45308.09
553.18	45186.38
553.34	45017.86
553.51	45034.25
553.67	45308.09
553.84	45338.52
554.01	45340.86
554.17	45502.35
554.34	45652.15
554.51	45223.83
554.67	45965.78
554.84	45989.19
555.00	45652.15
555.17	44966.37
555.33	45638.11
555.50	45390.01
555.67	45415.76
555.83	45820.67
556.00	45436.82
556.16	46164.73
556.33	45441.50
556.50	45350.22
556.66	45806.62
556.83	45603.00
556.99	45687.26
557.16	45832.37
557.32	45855.78
557.49	45773.86
557.65	45373.63
557.82	45682.58
557.98	45457.88
558.15	45591.30
558.32	45963.44
558.48	45703.64
558.65	45888.54
558.81	45666.19
558.98	45731.73
559.14	45485.97
559.31	45617.04
559.47	46110.89
559.64	46251.33
559.80	46248.99
559.97	45958.76
560.13	45918.97
560.30	45731.73
560.46	46204.52
560.63	45907.27
560.79	46028.98
560.96	46127.28
561.12	45745.77
561.29	46014.93
561.45	46178.77
561.61	45748.11
561.78	45979.82
561.94	46031.32
562.11	45675.55
562.27	45844.07
562.44	46080.47
562.60	46349.63
562.77	46424.53
562.93	46431.55
563.10	46515.81
563.26	45996.21
563.42	46209.20
563.59	45858.12
563.75	46089.83
563.92	46373.03
564.08	46192.81
564.24	46136.64
564.41	46761.56
564.57	46239.62
564.74	46117.92
564.90	46579.00
565.07	45970.46
565.23	46302.82
565.39	46232.60
565.56	46670.28
565.72	46253.67
565.88	46454.95
566.05	46213.88
566.21	46632.83
566.38	46302.82
566.54	46368.35
566.70	46490.06
566.87	46520.49
567.03	46361.33
567.19	47168.82
567.36	46188.13
567.52	46515.81
567.68	46579.00
567.85	46422.19
568.01	46588.36
568.17	46440.91
568.34	46492.40
568.50	46653.90
568.66	46548.57
568.83	46429.21
568.99	46171.75
569.15	46499.42
569.32	46422.19
569.48	46300.48
569.64	46492.40
569.81	46417.50
569.97	46564.96
570.13	46696.03
570.30	45916.63
570.46	46050.04
570.62	46050.04
570.78	45818.33
570.95	46134.30
571.11	46717.09
571.27	46309.84
571.43	46440.91
571.60	46583.68
571.76	46363.67
571.92	46934.76
572.09	46639.86
572.25	46286.43
572.41	46382.40
572.57	47012.00
572.74	47206.26
572.90	46497.08
573.06	46782.63
573.22	46656.24
573.38	46686.67
573.55	46394.10
573.71	46637.51
573.87	46597.73
574.03	46461.97
574.20	46712.41
574.36	46443.25
574.52	46241.96
574.68	46590.70
574.84	46424.53
575.01	46588.36
575.17	46747.52
575.33	46635.17
575.49	46305.16
575.65	46665.60
575.82	46824.76
575.98	46707.73
576.14	46923.06
576.30	46951.15
576.46	46995.62
576.62	46937.10
576.79	46897.31
576.95	46485.38
577.11	46646.88
577.27	46663.26
577.43	46883.27
577.59	46639.86
577.75	46703.05
577.92	46183.45
578.08	46033.66
578.24	46726.46
578.40	46780.29
578.56	46939.44
578.72	46569.64
578.88	46646.88
579.04	46946.47
579.21	46380.06
579.37	46557.94
579.53	46499.42
579.69	46866.89
579.85	46862.21
580.01	46997.96
580.17	47019.02
580.33	46894.97
580.49	46642.20
580.65	46799.01
580.82	46724.11
580.98	46600.07
581.14	46085.15
581.30	47185.20
581.46	46801.35
581.62	47215.63
581.78	46838.80
581.94	46906.68
582.10	46529.85
582.26	46801.35
582.42	47026.04
582.58	47012.00
582.74	46504.10
582.90	46794.33
583.06	47187.54
583.22	47004.98
583.38	47196.90
583.54	47075.19
583.70	47426.28
583.86	47449.68
584.02	47030.72
584.18	46754.54
584.34	46791.99
584.50	46934.76
584.66	46684.33
584.82	46513.47
584.98	47138.39
585.14	46731.14
585.30	46550.91
585.46	46745.18
585.62	46248.99
585.78	46820.08
585.94	46609.43
586.10	46789.65
586.26	46555.60
586.42	47129.03
586.58	47196.90
586.74	46595.38
586.90	46546.23
587.06	46710.07
587.22	47016.68
587.38	46658.58
587.54	46948.81
587.70	46976.89
587.86	46927.74
588.02	46815.40
588.18	46653.90
588.34	46499.42
588.49	46036.00
588.65	46412.82
588.81	46382.40
588.97	46342.61
589.13	46726.46
589.29	46384.74
589.45	46735.82
589.61	46286.43
589.77	46808.37
589.93	47016.68
590.08	46930.08
590.24	47114.98
590.40	47344.36
590.56	47309.25
590.72	46983.91
590.88	46775.61
591.04	47056.47
591.20	47318.61
591.35	47185.20
591.51	47302.23
591.67	47304.57
591.83	47049.45
591.99	46712.41
592.15	47037.75
592.31	47124.35
592.46	46700.71
592.62	47040.09
592.78	46754.54
592.94	47281.16
593.10	47051.79
593.26	47346.70
593.41	46883.27
593.57	46892.63
593.73	46698.37
593.89	46941.78
594.05	47072.85
594.20	46646.88
594.36	46571.98
594.52	46810.71
594.68	47175.84
594.84	46487.72
594.99	47426.28
595.15	46719.43
595.31	47232.01
595.47	46864.55
595.62	47049.45
595.78	46703.05
595.94	47232.01
596.10	47426.28
596.25	47033.07
596.41	46827.10
596.57	46878.59
596.73	47463.72
596.88	46649.22
597.04	46700.71
597.20	46787.31
597.36	47213.29
597.51	46951.15
597.67	47372.44
597.83	46691.35
597.99	47224.99
598.14	46897.31
598.30	47122.01
598.46	46466.66
598.61	46990.94
598.77	47154.77
598.93	46838.80
599.09	47299.89
599.24	47122.01
599.40	47297.55
599.56	46775.61
599.71	46960.51
599.87	47342.02
600.03	46843.48
600.18	47037.75
600.34	46885.61
600.50	47152.43
600.65	46525.17
600.81	47217.97
600.97	46941.78
601.12	47019.02
601.28	47133.71
601.44	46368.35
601.59	46869.23
601.75	46691.35
601.91	47093.92
602.06	46714.75
602.22	46923.06
602.37	46871.57
602.53	47063.49
602.69	47166.48
602.84	46979.23
603.00	46822.42
603.16	46955.83
603.31	47215.63
603.47	47021.36
603.62	47075.19
603.78	46965.19
603.94	46920.72
604.09	47421.59
604.25	47154.77
604.40	46759.22
604.56	46894.97
604.71	47325.63
604.87	46829.44
605.03	46934.76
605.18	46569.64
605.34	46740.50
605.49	46464.32
605.65	46923.06
605.80	46770.93
605.96	46845.82
606.12	46976.89
606.27	47257.76
606.43	46735.82
606.58	46981.57
606.74	46674.96
606.89	46450.27
607.05	46738.16
607.20	46871.57
607.36	46656.24
607.51	46766.24
607.67	46583.68
607.82	46632.83
607.98	46461.97
608.13	46342.61
608.29	46454.95
608.44	46529.85
608.60	46377.72
608.75	46623.47
608.91	46836.46
609.06	46288.77
609.22	46431.55
609.37	46267.71
609.53	46382.40
609.68	46316.86
609.84	46101.53
609.99	46464.32
610.15	46021.95
610.30	46157.70
610.46	45818.33
610.61	46321.54
610.76	46202.18
610.92	46794.33
611.07	46541.55
611.23	46115.58
611.38	46234.94
611.54	45827.69
611.69	45883.86
611.84	46021.95
612.00	46005.57
612.15	46171.75
612.31	46211.54
612.46	46405.80
612.62	45933.01
612.77	45865.14
612.92	46403.46
613.08	45668.53
613.23	45855.78
613.39	45930.67
613.54	45509.38
613.69	45752.79
613.85	45743.43
614.00	45574.91
614.15	45865.14
614.31	45825.35
614.46	46115.58
614.62	46197.49
614.77	45614.70
614.92	45600.66
615.08	45792.58
615.23	45745.77
615.38	45530.44
615.54	45207.45
615.69	45567.89
615.84	45514.06
616.00	45624.06
616.15	45492.99
616.30	45399.37
616.46	45305.75
616.61	45092.76
616.76	45041.27
616.92	44851.69
617.07	45052.97
617.22	44921.90
617.37	45340.86
617.53	45446.18
617.68	45518.74
617.83	45256.60
617.99	44992.12
618.14	45207.45
618.29	45404.05
618.45	45109.14
618.60	45247.24
618.75	45076.38
618.90	44793.17
619.06	44964.03
619.21	44729.98
619.36	45006.16
619.51	45207.45
619.67	44699.55
619.82	44898.50
619.97	45113.83
620.12	44512.31
620.28	44439.75
620.43	44949.99
620.58	44879.77
620.73	44856.37
620.89	44940.63
621.04	44903.18
621.19	45029.57
621.34	44816.58
621.49	44360.17
621.65	44540.39
621.80	44863.39
621.95	44755.72
622.10	44605.93
622.25	44257.19
622.41	44498.26
622.56	44472.52
622.71	44821.26
622.86	44404.64
623.01	44575.50
623.16	44327.41
623.32	44376.56
623.47	44493.58
623.62	44102.71
623.77	43992.71
623.92	44858.71
624.07	44388.26
624.23	43889.73
624.38	44046.54
624.53	44236.12
624.68	43690.78
624.83	44329.75
624.98	44140.16
625.13	43868.66
625.29	43835.89
625.44	43821.85
625.59	43634.61
625.74	43622.90
625.89	43454.39
626.04	43548.01
626.19	43571.41
626.34	43842.92
626.49	43477.79
626.65	43456.73
626.80	44215.06
626.95	43215.65
627.10	43358.42
627.25	43285.87
627.40	42829.46
627.55	43201.61
627.70	43157.14
627.85	43096.28
628.00	43086.92
628.15	43573.75
628.30	43189.91
628.45	43475.45
628.60	43540.99
628.76	43058.84
628.91	43171.18
629.06	43077.56
629.21	42529.87
629.36	42677.33
629.51	42930.11
629.66	42391.78
629.81	42993.30
629.96	42803.72
630.11	42967.55
630.26	43407.58
630.41	42841.17
630.56	43222.67
630.71	43311.61
630.86	42590.73
631.01	42726.48
631.16	42677.33
631.31	42429.23
631.46	42089.85
631.61	42572.00
631.76	42377.74
631.91	42597.75
632.06	42808.40
632.21	42553.28
632.36	42871.59
632.51	42274.76
632.66	42628.18
632.81	42492.43
632.96	42227.95
633.10	41926.02
633.25	42527.53
633.40	42323.91
633.55	42555.62
633.70	42265.39
633.85	42094.53
634.00	42265.39
634.15	42052.41
634.30	41563.23
634.45	42429.23
634.60	41890.91
634.75	42141.35
634.90	41977.51
635.05	41605.36
635.19	41888.57
635.34	42164.75
635.49	42438.59
635.64	42220.92
635.79	41916.65
635.94	41965.81
636.09	41542.17
636.24	42101.56
636.39	42059.43
636.53	41516.42
636.68	41511.74
636.83	41684.94
636.98	41766.86
637.13	41167.68
637.28	42003.25
637.43	41357.27
637.57	41879.21
637.72	41785.58
637.87	41649.83
638.02	41825.37
638.17	41668.56
638.32	41633.45
638.46	41766.86
638.61	41455.57
638.76	41532.81
638.91	41713.03
639.06	41249.60
639.20	41687.28
639.35	41626.43
639.50	41471.95
639.65	41340.88
639.80	41338.54
639.94	41614.72
640.09	41352.58
640.24	40781.49
640.39	41041.29
640.54	40982.78
640.68	41041.29
640.83	40996.82
640.98	41153.64
641.13	40488.93
641.27	40982.78
641.42	41137.26
641.57	40861.07
641.72	40793.20
641.86	40622.34
642.01	40479.57
642.16	40559.14
642.31	40744.05
642.45	40486.59
642.60	40299.34
642.75	40842.35
642.90	40196.36
643.04	40507.65
643.19	40882.14
643.34	40870.43
643.48	40603.61
643.63	40620.00
643.78	40549.78
643.93	40233.81
644.07	40175.30
644.22	40154.23
644.37	40278.28
644.51	40116.78
644.66	40669.15
644.81	40098.06
644.95	40589.57
645.10	39999.76
645.25	40034.86
645.39	40191.68
645.54	40533.40
645.69	40074.65
645.83	39962.31
645.98	39798.47
646.13	39817.19
646.27	39817.19
646.42	39714.21
646.57	39922.52
646.71	39796.13
646.86	40027.84
647.00	40573.19
647.15	39878.05
647.30	39154.82
647.44	39725.91
647.59	39910.82
647.74	39590.16
647.88	39639.31
648.03	39742.30
648.17	39859.32
648.32	39395.90
648.47	39545.69
648.61	39386.54
648.76	40067.63
648.90	39370.15
649.05	39447.39
649.20	39276.53
649.34	39515.26
649.49	39243.76
649.63	39267.17
649.78	39508.24
649.92	39267.17
650.07	39714.21
650.21	39098.65
650.36	39386.54
650.51	39325.68
650.65	39814.85
650.80	39110.35
650.94	39421.64
651.09	39435.69
651.23	39058.86
651.38	39299.94
651.52	38529.90
651.67	39515.26
651.81	39023.75
651.96	38909.07
652.10	38785.02
652.25	38815.44
652.39	38670.33
652.54	39068.22
652.68	38841.19
652.83	39295.25
652.97	39108.01
653.12	39136.10
653.26	38576.71
653.41	38581.39
653.55	38630.54
653.70	38607.14
653.84	38862.26
653.99	38653.95
654.13	38279.46
654.27	38251.38
654.42	38295.85
654.56	38078.18
654.71	38579.05
654.85	38438.62
655.00	38321.59
655.14	37755.18
655.29	38253.72
655.43	37710.71
655.57	37537.51
655.72	38017.32
655.86	37675.60
656.01	37626.45
656.15	37603.05
656.30	37827.74
656.44	37579.64
656.58	37834.76
656.73	38251.38
656.87	37722.41
657.01	37853.48
657.16	37841.78
657.30	37404.10
657.45	37439.21
657.59	37680.28
657.73	37556.24
657.88	37804.33
658.02	38113.28
658.16	38003.28
658.31	37605.39
658.45	37759.86
658.60	37532.83
658.74	37727.10
658.88	37900.29
659.03	37273.03
659.17	37113.87
659.31	37453.25
659.46	37078.77
659.60	37198.13
659.74	37998.60
659.89	36900.89
660.03	36772.16
660.17	37163.03
660.32	37326.86
660.46	37514.11
660.60	37027.28
660.74	36723.01
660.89	37221.54
661.03	36598.96
661.17	36566.19
661.32	36624.70
661.46	36945.36
661.60	36978.12
661.74	36552.15
661.89	36933.65
662.03	36622.36
662.17	36280.64
662.31	36435.12
662.46	36938.33
662.60	36610.66
662.74	36634.06
662.88	36100.42
663.03	36430.44
663.17	36053.61
663.31	36048.93
663.45	36046.59
663.60	36395.33
663.74	35969.35
663.88	35950.63
664.02	35709.55
664.17	36137.87
664.31	35772.75
664.45	35915.52
664.59	35236.77
664.73	35498.91
664.88	35782.11
665.02	35534.01
665.16	35433.37
665.30	35328.05
665.44	35314.00
665.59	34960.58
665.73	35302.30
665.87	35477.84
666.01	35328.05
666.15	35550.40
666.29	35108.04
666.44	35571.46
666.58	35061.22
666.72	34525.24
666.86	34803.77
667.00	35014.41
667.14	34529.92
667.28	34752.27
667.43	34132.03
667.57	34539.29
667.71	34895.05
667.85	34597.80
667.99	34869.30
668.13	34696.10
668.27	34440.98
668.41	34677.38
668.56	34143.74
668.70	34036.07
668.84	34092.24
668.98	33453.28
669.12	34017.35
669.26	33701.37
669.40	34073.52
669.54	33790.31
669.68	33741.16
669.82	33748.18
669.96	33340.93
670.10	33383.06
670.25	33511.79
670.39	33352.63
670.53	33139.65
670.67	33577.33
670.81	33846.49
670.95	33104.54
671.09	33247.31
671.23	32865.80
671.37	32748.78
671.51	32783.88
671.65	32800.27
671.79	32968.79
671.93	32664.52
672.07	33294.12
672.21	32659.84
672.35	32601.32
672.49	32629.41
672.63	32655.15
672.77	32404.72
672.91	32596.64
673.05	32245.56
673.19	32287.69
673.33	32336.84
673.47	31735.32
673.61	31992.78
673.75	31803.20
673.89	31716.60
674.03	31725.96
674.17	32208.11
674.31	31503.61
674.45	31903.84
674.59	31641.70
674.73	31852.35
674.87	31765.75
675.01	31075.29
675.15	31199.34
675.29	31295.30
675.43	31438.08
675.56	31112.74
675.70	31211.04
675.84	31077.63
675.98	30068.86
676.12	30855.28
676.26	30948.90
676.40	31115.08
676.54	30827.20
676.68	30941.88
676.82	30277.17
676.96	30345.05
677.10	30122.69
677.23	30134.40
677.37	29937.79
677.51	29755.23
677.65	29989.28
677.79	29401.81
677.93	29752.89
678.07	29413.51
678.21	28828.38
678.34	29076.48
678.48	28985.19
678.62	28732.42
678.76	29032.00
678.90	28971.15
679.04	28690.29
679.18	28734.76
679.31	28650.50
679.45	28402.40
679.59	28552.20
679.73	28236.22
679.87	28109.83
680.00	28496.02
680.14	28013.87
680.28	28084.09
680.42	28041.96
680.56	27754.07
680.70	27700.24
680.83	28238.56
680.97	27896.85
681.11	27821.95
681.25	27508.32
681.39	27438.10
681.52	27271.92
681.66	27246.18
681.80	27278.94
681.94	26972.33
682.07	26967.65
682.21	26436.35
682.35	27199.37
682.49	26937.23
682.62	26899.78
682.76	26595.51
682.90	26277.19
683.04	26459.76
683.17	26396.56
683.31	26214.00
683.45	26256.13
683.59	25820.79
683.72	25837.17
683.86	26202.30
684.00	26094.63
684.13	25858.24
684.27	25799.73
684.41	25500.14
684.55	25418.22
684.68	25511.84
684.82	25521.20
684.96	25362.04
685.09	25359.70
685.23	25245.02
685.37	25287.15
685.50	25092.88
685.64	25039.05
685.78	24582.65
685.91	24474.98
686.05	24594.35
686.19	24318.17
686.32	24280.72
686.46	24027.94
686.60	23281.31
686.73	23337.48
686.87	23391.31
687.01	23173.64
687.14	23260.24
687.28	23065.98
687.42	23410.04
687.55	23374.93
687.69	23229.82
687.82	22920.87
687.96	23192.37
688.10	23122.15
688.23	22764.05
688.37	22750.01
688.50	22551.06
688.64	23096.41
688.78	22593.19
688.91	22539.36
689.05	22621.28
689.18	22649.36
689.32	22045.51
689.46	22345.09
689.59	22464.46
689.73	22443.40
689.86	21874.65
690.00	21717.83
690.13	22204.66
690.27	21886.35
690.41	21909.75
690.54	21500.16
690.68	21565.70
690.81	21420.58
690.95	21305.90
691.08	21408.88
691.22	21380.79
691.35	21350.37
691.49	21177.17
691.62	21018.01
691.76	21326.96
691.89	20917.37
692.03	20933.75
692.16	20980.56
692.30	20751.19
692.43	20699.70
692.57	20470.33
692.70	20173.08
692.84	20233.93
692.97	20147.33
693.11	20198.82
693.24	20065.41
693.38	19950.73
693.51	19859.45
693.65	20006.90
693.78	19728.38
693.92	19805.61
694.05	19775.19
694.19	19669.86
694.32	19126.86
694.45	19489.64
694.59	19136.22
694.72	19396.02
694.86	19145.58
694.99	19051.96
695.13	18941.96
695.26	19124.52
695.39	19044.94
695.53	18822.59
695.66	18881.10
695.80	18721.95
695.93	18593.22
696.07	18569.81
696.20	18356.82
696.33	18445.76
696.47	18675.13
696.60	18228.09
696.73	17996.38
696.87	17909.78
697.00	17916.80
697.14	18111.07
697.27	17687.43
697.40	17886.37
697.54	17652.32
697.67	17329.33
697.80	17439.33
697.94	17451.03
698.07	17118.68
698.21	17177.19
698.34	17123.36
698.47	17046.12
698.61	16669.30
698.74	17006.33
698.87	16875.26
699.01	16507.80
699.14	16460.99
699.27	16517.16
699.40	16610.78
699.54	16334.60
699.67	16198.85
699.80	16301.83
699.94	16184.80
700.07	16369.71
700.20	16475.03
700.34	15939.05
700.47	16259.70
700.60	16262.04
700.73	16259.70
700.87	15927.35
701.00	15878.19
701.13	15756.49
701.26	15545.84
701.40	15503.71
701.53	15620.74
701.66	15325.83
701.79	15108.16
701.93	15330.51
702.06	15070.71
702.19	15042.62
702.32	15082.41
702.46	15255.61
702.59	14974.75
702.72	14846.02
702.85	14871.76
702.99	15033.26
703.12	14670.48
703.25	14754.74
703.38	14562.81
703.51	14504.30
703.65	14359.19
703.78	14354.51
703.91	13752.99
704.04	14204.71
704.17	14019.81
704.31	13970.66
704.44	14185.99
704.57	14141.52
704.70	14146.20
704.83	13912.14
704.96	13760.01
705.10	14017.47
705.23	13762.35
>>>>>End Processed Spectral Data<<<<<
