SpectraSuite Data File
++++++++++++++++++++++++++++++++++++
Date: Fri Oct 25 10:43:25 EDT 2013
User: price-jones
Dark Spectrum Present: No
Reference Spectrum Present: No
Number of Sampled Component Spectra: 1
Spectrometers: USB2+H05261
Integration Time (usec): 100000 (USB2+H05261)
Spectra Averaged: 1 (USB2+H05261)
Boxcar Smoothing: 0 (USB2+H05261)
Correct for Electrical Dark: No (USB2+H05261)
Strobe/Lamp Enabled: No (USB2+H05261)
Correct for Detector Non-linearity: No (USB2+H05261)
Correct for Stray Light: No (USB2+H05261)
Number of Pixels in Processed Spectrum: 2048
>>>>>Begin Processed Spectral Data<<<<<
365.73	117.03
365.92	117.03
366.12	117.03
366.32	49.15
366.52	0.00
366.72	88.94
366.91	0.00
367.11	37.45
367.31	4.68
367.51	14.04
367.70	39.79
367.90	58.51
368.10	88.94
368.30	0.00
368.49	86.60
368.69	67.88
368.89	0.00
369.09	42.13
369.28	117.03
369.48	84.26
369.68	65.54
369.87	100.64
370.07	65.54
370.27	152.13
370.47	124.05
370.66	374.49
370.86	383.85
371.06	407.25
371.25	507.90
371.45	437.68
371.65	458.74
371.84	449.38
372.04	468.11
372.24	486.83
372.44	383.85
372.63	521.94
372.83	554.71
373.03	543.00
373.22	475.13
373.42	423.64
373.62	538.32
373.81	557.05
374.01	538.32
374.21	610.88
374.40	498.53
374.60	606.20
374.79	566.41
374.99	505.56
375.19	627.26
375.38	533.64
375.58	526.62
375.78	601.52
375.97	582.79
376.17	650.67
376.37	571.09
376.56	608.54
376.76	561.73
376.95	533.64
377.15	582.79
377.35	582.79
377.54	603.86
377.74	594.50
377.93	594.50
378.13	636.63
378.33	631.94
378.52	650.67
378.72	699.82
378.91	613.22
379.11	662.37
379.31	636.63
379.50	622.58
379.70	753.65
379.89	699.82
380.09	669.39
380.28	697.48
380.48	690.46
380.68	744.29
380.87	601.52
381.07	657.69
381.26	760.67
381.46	725.57
381.65	648.33
381.85	695.14
382.04	704.50
382.24	741.95
382.43	660.03
382.63	688.12
382.83	627.26
383.02	784.08
383.22	767.70
383.41	624.92
383.61	699.82
383.80	784.08
384.00	767.70
384.19	767.70
384.39	814.51
384.58	772.38
384.78	791.10
384.97	779.40
385.17	800.46
385.36	851.96
385.56	732.59
385.75	734.93
385.95	718.54
386.14	833.23
386.34	807.48
386.53	809.83
386.72	765.36
386.92	933.87
387.11	926.85
387.31	931.53
387.50	837.91
387.70	847.27
387.89	835.57
388.09	870.68
388.28	856.64
388.48	961.96
388.67	978.34
388.86	945.58
389.06	943.24
389.25	889.40
389.45	901.11
389.64	894.08
389.84	1020.47
390.03	1006.43
390.22	943.24
390.42	1006.43
390.61	842.59
390.81	947.92
391.00	910.47
391.19	1001.75
391.39	1001.75
391.58	1057.92
391.78	971.32
391.97	1048.56
392.16	1046.22
392.36	936.21
392.55	980.68
392.75	1041.54
392.94	903.45
393.13	1020.47
393.33	940.90
393.52	1015.79
393.71	1174.95
393.91	1053.24
394.10	1001.75
394.29	1050.90
394.49	1151.54
394.68	1313.04
394.88	1069.62
395.07	1228.78
395.26	1167.93
395.46	1212.40
395.65	1219.42
395.84	1275.59
396.04	1214.74
396.23	1172.61
396.42	1139.84
396.62	1231.12
396.81	1238.14
397.00	1167.93
397.19	1282.61
397.39	1247.51
397.58	1401.98
397.77	1320.06
397.97	1350.49
398.16	1425.39
398.35	1497.94
398.55	1324.74
398.74	1441.77
398.93	1582.20
399.12	1509.65
399.32	1472.20
399.51	1451.13
399.70	1542.41
399.90	1481.56
400.09	1526.03
400.28	1589.22
400.47	1558.80
400.67	1582.20
400.86	1540.07
401.05	1624.33
401.24	1666.46
401.44	1626.67
401.63	1699.23
401.82	1694.55
402.01	1652.42
402.21	1753.06
402.40	1713.27
402.59	1696.89
402.78	1795.19
402.97	1729.66
403.17	1769.44
403.36	1708.59
403.55	1825.62
403.74	1809.23
403.93	1818.60
404.13	1844.34
404.32	1895.83
404.51	1795.19
404.70	1790.51
404.89	1849.02
405.09	1881.79
405.28	1898.17
405.47	1952.01
405.66	2066.69
405.85	1865.41
406.05	1865.41
406.24	2012.86
406.43	2003.50
406.62	1863.07
406.81	2094.78
407.00	2052.65
407.20	2057.33
407.39	2019.88
407.58	2036.27
407.77	2153.29
407.96	2197.76
408.15	2157.97
408.34	2033.93
408.54	2176.70
408.73	2216.49
408.92	2202.44
409.11	2181.38
409.30	2162.66
409.49	2249.25
409.68	2162.66
409.87	2230.53
410.07	2232.87
410.26	2363.94
410.45	2286.70
410.64	2389.69
410.83	2408.41
411.02	2375.64
411.21	2513.74
411.40	2406.07
411.59	2537.14
411.78	2455.22
411.98	2469.27
412.17	2546.50
412.36	2623.74
412.55	2581.61
412.74	2754.81
412.93	2710.34
413.12	2642.46
413.31	2860.13
413.50	2771.19
413.69	2832.05
413.88	2768.85
414.07	2759.49
414.26	2839.07
414.45	2796.94
414.64	2899.92
414.83	2916.31
415.02	2785.24
415.22	3000.57
415.41	3016.95
415.60	3038.02
415.79	3049.72
415.98	3178.45
416.17	3206.53
416.36	3063.76
416.55	3117.59
416.74	3148.02
416.93	3269.73
417.12	3255.69
417.31	3201.85
417.50	3159.72
417.69	3286.11
417.88	3318.88
418.07	3321.22
418.26	3475.70
418.45	3304.84
418.64	3506.12
418.83	3529.53
419.02	3499.10
419.21	3513.14
419.39	3503.78
419.58	3431.23
419.77	3447.61
419.96	3597.40
420.15	3566.98
420.34	3641.87
420.53	3524.85
420.72	3655.92
420.91	3749.54
421.10	3763.58
421.29	3779.97
421.48	3735.50
421.67	3836.14
421.86	3775.28
422.05	3576.34
422.24	3758.90
422.43	3754.22
422.61	3765.92
422.80	3744.86
422.99	3864.22
423.18	3805.71
423.37	3852.52
423.56	3840.82
423.75	3831.46
423.94	3861.88
424.13	3625.49
424.32	3627.83
424.50	3934.44
424.69	3932.10
424.88	4067.85
425.07	3847.84
425.26	3892.31
425.45	3836.14
425.64	3808.05
425.83	3819.75
426.01	3878.27
426.20	3901.67
426.39	3925.08
426.58	3768.26
426.77	3866.56
426.96	3770.60
427.15	3824.44
427.33	3864.22
427.52	3885.29
427.71	4039.76
427.90	3936.78
428.09	4067.85
428.28	4046.79
428.46	4074.87
428.65	3962.53
428.84	4007.00
429.03	4189.56
429.22	4058.49
429.40	4067.85
429.59	4126.36
429.78	3985.93
429.97	3761.24
430.16	4007.00
430.34	3971.89
430.53	4007.00
430.72	4140.41
430.91	4194.24
431.10	4100.62
431.28	4339.35
431.47	4580.43
431.66	4517.23
431.85	4440.00
432.03	4402.55
432.22	4648.30
432.41	4519.57
432.60	4435.32
432.79	4676.39
432.97	4727.88
433.16	4681.07
433.35	4482.13
433.54	4688.09
433.72	4575.75
433.91	4510.21
434.10	4746.61
434.28	4704.48
434.47	4812.14
434.66	4884.70
434.85	4737.24
435.03	4833.21
435.22	5022.79
435.41	5067.26
435.59	5121.09
435.78	4910.44
435.97	5078.96
436.16	4929.17
436.34	5076.62
436.53	4896.40
436.72	5097.69
436.90	4994.70
437.09	5111.73
437.28	5004.07
437.46	5055.56
437.65	5011.09
437.84	4992.36
438.02	5074.28
438.21	5015.77
438.40	5025.13
438.58	5123.43
438.77	5123.43
438.96	5331.74
439.14	5420.68
439.33	5425.36
439.52	5497.92
439.70	5479.19
439.89	5540.05
440.08	5633.67
440.26	5544.73
440.45	5584.52
440.63	5715.59
440.82	5804.53
441.01	5753.04
441.19	5825.59
441.38	6061.99
441.57	5973.05
441.75	5898.15
441.94	6076.03
442.12	6052.63
442.31	6244.55
442.50	6066.67
442.68	6188.38
442.87	6139.23
443.05	6289.02
443.24	6307.74
443.43	6331.15
443.61	6097.10
443.80	6352.21
443.98	6113.48
444.17	6043.26
444.35	6420.09
444.54	6595.63
444.73	6466.90
444.91	6417.75
445.10	6377.96
445.28	6333.49
445.47	6312.42
445.65	6300.72
445.84	6256.25
446.02	6403.71
446.21	6359.24
446.39	6307.74
446.58	6553.50
446.77	6406.05
446.95	6324.13
447.14	6511.37
447.32	6902.24
447.51	6525.41
447.69	6567.54
447.88	6520.73
448.06	6553.50
448.25	6588.61
448.43	6682.23
448.62	6600.31
448.80	6696.27
448.99	6661.16
449.17	6794.58
449.36	6736.06
449.54	6686.91
449.73	6937.35
449.91	6815.64
450.10	6998.20
450.28	7026.29
450.46	6895.22
450.65	7117.57
450.83	7023.95
451.02	7094.16
451.20	7220.55
451.39	7131.61
451.57	7019.27
451.76	6878.83
451.94	7103.53
452.13	6902.24
452.31	7157.36
452.49	6661.16
452.68	7159.70
452.86	7101.19
453.05	7117.57
453.23	7215.87
453.42	7059.06
453.60	7344.60
453.78	7527.16
453.97	7171.40
454.15	7206.51
454.34	7250.98
454.52	7318.86
454.70	7405.46
454.89	7588.02
455.07	7414.82
455.26	7499.08
455.44	7447.58
455.62	7335.24
455.81	7456.95
455.99	7461.63
456.17	7522.48
456.36	7693.34
456.54	7777.60
456.73	7791.64
456.91	7939.10
457.09	8035.06
457.28	8044.42
457.46	7751.85
457.64	8023.36
457.83	7971.86
458.01	7723.77
458.19	7971.86
458.38	8084.21
458.56	8166.13
458.74	8119.32
458.93	8044.42
459.11	8058.46
459.29	8114.64
459.48	8219.96
459.66	8189.53
459.84	8105.28
460.03	8147.40
460.21	8191.88
460.39	8308.90
460.57	8280.82
460.76	8231.66
460.94	8629.56
461.12	8376.78
461.31	8404.86
461.49	8446.99
461.67	8376.78
461.85	8470.40
462.04	8697.43
462.22	8926.80
462.40	8765.31
462.59	8777.01
462.77	8758.28
462.95	8599.13
463.13	8559.34
463.32	8634.24
463.50	8833.18
463.68	8805.10
463.86	8669.34
464.05	8788.71
464.23	8620.19
464.41	8943.19
464.59	8559.34
464.78	8964.25
464.96	8826.16
465.14	8842.54
465.32	9172.56
465.50	9092.98
465.69	9186.60
465.87	8990.00
466.05	9004.04
466.23	8968.93
466.41	9043.83
466.60	9092.98
466.78	9188.94
466.96	9088.30
467.14	9277.88
467.32	9205.33
467.51	9195.96
467.69	8891.70
467.87	9142.13
468.05	9247.46
468.23	9125.75
468.41	9315.33
468.60	9366.82
468.78	9385.55
468.96	9404.27
469.14	9668.75
469.32	9446.40
469.50	9181.92
469.69	9600.88
469.87	9593.86
470.05	9518.96
470.23	9462.79
470.41	9692.16
470.59	9832.59
470.77	9659.39
470.95	9760.03
471.14	9958.98
471.32	9703.86
471.50	10050.26
471.68	10178.99
471.86	10274.95
472.04	10068.98
472.22	10382.62
472.40	9937.91
472.58	10155.58
472.77	10317.08
472.95	10347.51
473.13	10773.49
473.31	10436.45
473.49	9987.07
473.67	10368.57
473.85	10347.51
474.03	10736.04
474.21	10853.06
474.39	10771.15
474.57	10710.29
474.75	10946.69
474.93	11070.73
475.12	10876.47
475.30	10995.84
475.48	11154.99
475.66	11117.54
475.84	10839.02
476.02	10906.90
476.20	11236.91
476.38	11520.12
476.56	11747.15
476.74	11595.01
476.92	11459.26
477.10	11747.15
477.28	12046.74
477.46	11800.98
477.64	12072.48
477.82	11756.51
478.00	12222.28
478.18	12226.96
478.36	12278.45
478.54	12358.03
478.72	12432.93
478.90	12645.91
479.08	12798.05
479.26	12945.50
479.44	12947.84
479.62	13170.19
479.80	12940.82
479.98	13104.66
480.16	13207.64
480.34	13090.62
480.52	13514.25
480.70	13540.00
480.88	13132.75
481.06	13387.86
481.24	13497.87
481.41	13900.44
481.59	14029.17
481.77	14118.11
481.95	13970.66
482.13	14085.34
482.31	14281.95
482.49	14530.05
482.67	14675.16
482.85	14757.08
483.03	14785.16
483.21	15042.62
483.39	15091.77
483.57	15028.58
483.74	15206.46
483.92	15328.17
484.10	15283.70
484.28	15461.58
484.46	15796.28
484.64	16053.73
484.82	15889.90
485.00	15564.56
485.18	16156.72
485.35	16348.64
485.53	15747.12
485.71	15946.07
485.89	15932.03
486.07	16100.55
486.25	16210.55
486.43	16526.52
486.61	16683.34
486.78	16868.24
486.96	17209.96
487.14	17324.65
487.32	17338.69
487.50	17486.14
487.68	17963.61
487.85	17951.91
488.03	18080.64
488.21	18214.05
488.39	18001.06
488.57	18319.37
488.75	18192.98
488.92	18633.00
489.10	18838.97
489.28	19061.32
489.46	19159.63
489.64	19316.44
489.81	19777.53
489.99	19506.02
490.17	19573.90
490.35	19887.53
490.53	19948.39
490.70	19805.61
490.88	20102.86
491.06	20341.60
491.24	20376.70
491.41	20348.62
491.59	20439.90
491.77	20226.91
491.95	20627.14
492.13	20795.66
492.30	20847.15
492.48	21228.66
492.66	21235.68
492.84	21298.88
493.01	21537.61
493.19	21736.56
493.37	21570.38
493.54	21752.94
493.72	22050.19
493.90	21912.10
494.08	22305.31
494.25	22419.99
494.43	22970.02
494.61	22843.63
494.79	22885.76
494.96	22738.30
495.14	23047.26
495.32	23108.11
495.49	23145.56
495.67	23576.22
495.85	23786.86
496.02	23775.16
496.20	24032.62
496.38	23662.82
496.55	24247.95
496.73	24374.34
496.91	24444.56
497.09	24388.38
497.26	24458.60
497.44	24554.56
497.62	24748.82
497.79	24966.49
497.97	24643.50
498.14	25017.99
498.32	24989.90
498.50	24847.13
498.67	25631.21
498.85	25706.10
499.03	25790.36
499.20	25830.15
499.38	26022.08
499.56	25820.79
499.73	26052.50
499.91	26143.78
500.08	26218.68
500.26	26094.63
500.44	25986.97
500.61	25979.95
500.79	26237.41
500.97	26164.85
501.14	26787.43
501.32	26354.43
501.49	26368.48
501.67	26576.78
501.84	26733.60
502.02	26710.19
502.20	27140.85
502.37	27220.43
502.55	27454.48
502.72	27208.73
502.90	27580.87
503.07	27398.31
503.25	27562.15
503.43	27253.20
503.60	27482.57
503.78	27482.57
503.95	27686.20
504.13	27805.56
504.30	28250.27
504.48	28390.70
504.65	28369.63
504.83	28624.75
505.01	28671.56
505.18	28872.85
505.36	28865.83
505.53	28900.94
505.71	29165.42
505.88	29090.52
506.06	28797.95
506.23	28971.15
506.41	28947.75
506.58	29160.73
506.76	29219.25
506.93	29511.81
507.11	29460.32
507.28	29567.99
507.46	29511.81
507.63	29579.69
507.81	29397.13
507.98	29537.56
508.16	30080.56
508.33	30265.47
508.50	30202.27
508.68	29921.41
508.85	30518.25
509.03	30513.56
509.20	30632.93
509.38	30162.48
509.55	30588.46
509.73	30796.77
509.90	31119.76
510.08	30965.29
510.25	30796.77
510.42	30787.41
510.60	31421.69
510.77	31180.62
510.95	31297.64
511.12	31402.97
511.30	31297.64
511.47	31445.10
511.64	31838.31
511.82	32170.66
511.99	31541.06
512.17	31952.99
512.34	31646.38
512.51	31770.43
512.69	32100.45
512.86	32037.25
513.04	32334.50
513.21	32198.75
513.38	32184.71
513.56	32175.34
513.73	31948.31
513.90	32786.22
514.08	32519.40
514.25	32620.05
514.43	32643.45
514.60	32659.84
514.77	32655.15
514.95	32685.58
515.12	32641.11
515.29	32882.19
515.47	33397.10
515.64	33820.74
515.81	33120.92
515.99	33333.91
516.16	33064.75
516.33	32671.54
516.51	33146.67
516.68	32856.44
516.85	32807.29
517.03	33296.46
517.20	33120.92
517.37	33958.83
517.54	33963.51
517.72	33469.66
517.89	33064.75
518.06	33464.98
518.24	33970.54
518.41	33350.29
518.58	33895.64
518.75	33701.37
518.93	34558.01
519.10	33659.24
519.27	34363.75
519.45	34682.06
519.62	34817.81
519.79	34462.05
519.96	34878.66
520.14	35105.70
520.31	34513.54
520.48	34792.06
520.65	35058.88
520.83	35398.26
521.00	35147.82
521.17	35316.34
521.34	35271.87
521.52	35871.05
521.69	35709.55
521.86	35377.20
522.03	35452.09
522.20	35915.52
522.38	35782.11
522.55	35632.32
522.72	35538.69
522.89	35475.50
523.07	36446.82
523.24	35988.08
523.41	36395.33
523.58	36032.55
523.75	36723.01
523.92	36315.75
524.10	36437.46
524.27	36833.01
524.44	36968.76
524.61	36907.91
524.78	36701.94
524.96	37141.96
525.13	36961.74
525.30	37113.87
525.47	37277.71
525.64	36673.85
525.81	37081.11
525.98	36921.95
526.16	36699.60
526.33	36690.24
526.50	36636.41
526.67	36690.24
526.84	36893.86
527.01	37310.48
527.18	37078.77
527.36	37647.52
527.53	37507.08
527.70	37893.27
527.87	37481.34
528.04	37792.63
528.21	37902.64
528.38	37797.31
528.55	37916.68
528.72	38412.87
528.89	38293.50
529.07	38398.83
529.24	38043.07
529.41	37923.70
529.58	38050.09
529.75	37872.21
529.92	38574.37
530.09	38321.59
530.26	38478.41
530.43	38653.95
530.60	38590.75
530.77	38487.77
530.94	39019.07
531.11	38546.28
531.28	38789.70
531.46	38843.53
531.63	39068.22
531.80	38827.15
531.97	38740.55
532.14	38848.21
532.31	38705.44
532.48	38394.15
532.65	39143.12
532.82	38988.64
532.99	39091.63
533.16	39182.91
533.33	39222.70
533.50	39629.95
533.67	39468.45
533.84	38738.21
534.01	39636.97
534.18	39075.24
534.35	39580.80
534.52	39758.68
534.69	39861.66
534.86	39959.97
535.03	39718.89
535.20	40161.25
535.37	39859.32
535.54	39981.03
535.71	40421.05
535.88	40095.72
536.05	40566.16
536.22	40568.51
536.38	39969.33
536.55	39950.60
536.72	40329.77
536.89	39819.53
537.06	40332.11
537.23	40187.00
537.40	40620.00
537.57	40650.42
537.74	40535.74
537.91	40816.60
538.08	40486.59
538.25	39915.50
538.42	40512.33
538.59	40800.22
538.75	40683.19
538.92	40395.31
539.09	41193.43
539.26	40542.76
539.43	41104.49
539.60	40828.30
539.77	40631.70
539.94	40947.67
540.11	40882.14
540.28	40971.08
540.44	40830.65
540.61	41223.86
540.78	40758.09
540.95	40816.60
541.12	40751.07
541.29	40961.72
541.46	41460.25
541.62	41359.61
541.79	41518.76
541.96	40746.39
542.13	40896.18
542.30	41317.48
542.47	41450.89
542.63	41160.66
542.80	41663.88
542.97	41605.36
543.14	42103.90
543.31	42117.94
543.48	41663.88
543.64	42256.03
543.81	42347.31
543.98	42277.10
544.15	42394.12
544.32	42541.58
544.48	42483.06
544.65	42534.56
544.82	42323.91
544.99	41986.87
545.16	42281.78
545.32	41748.14
545.49	42850.53
545.66	42909.04
545.83	42782.65
546.00	42536.90
546.16	42639.88
546.33	42305.18
546.50	42223.26
546.67	42649.24
546.83	42019.64
547.00	42314.55
547.17	42485.40
547.34	42529.87
547.50	42431.57
547.67	42560.30
547.84	42965.21
548.00	42848.19
548.17	42859.89
548.34	42855.21
548.51	43002.66
548.67	43320.98
548.84	42822.44
549.01	43075.22
549.18	43253.10
549.34	42913.72
549.51	43068.20
549.68	43091.60
549.84	43236.72
550.01	43147.78
550.18	43159.48
550.34	43374.81
550.51	43182.88
550.68	43098.62
550.84	42728.82
551.01	43536.30
551.18	43150.12
551.34	43302.25
551.51	43805.47
551.68	43445.02
551.84	43587.80
552.01	43213.31
552.18	43779.72
552.34	43208.63
552.51	43634.61
552.68	43674.40
552.84	44072.29
553.01	44215.06
553.18	43665.03
553.34	44168.25
553.51	43789.08
553.67	43618.22
553.84	44437.41
554.01	43782.06
554.17	43821.85
554.34	44416.35
554.51	43988.03
554.67	44254.85
554.84	44156.55
555.00	43894.41
555.17	44025.48
555.33	43875.68
555.50	44037.18
555.67	44126.12
555.83	43999.73
556.00	44135.48
556.16	44392.94
556.33	44186.97
556.50	43990.37
556.66	44278.25
556.83	43697.80
556.99	44381.24
557.16	44161.23
557.32	44512.31
557.49	44573.16
557.65	44421.03
557.82	44334.43
557.98	44119.10
558.15	44634.02
558.32	44495.92
558.48	44493.58
558.65	44645.72
558.81	43856.96
558.98	44446.77
559.14	44240.81
559.31	44563.80
559.47	44449.11
559.64	44170.59
559.80	44641.04
559.97	45006.16
560.13	44151.87
560.30	44406.98
560.46	44879.77
560.63	44634.02
560.79	44945.31
560.96	45048.29
561.12	44753.38
561.29	44397.62
561.45	44591.89
561.61	44514.65
561.78	44706.57
561.94	44683.17
562.11	44634.02
562.27	44631.68
562.44	45151.27
562.60	45228.51
562.77	44814.24
562.93	45083.40
563.10	45322.13
563.26	44680.83
563.42	45544.48
563.59	45228.51
563.75	44839.98
563.92	44875.09
564.08	45134.89
564.24	45162.98
564.41	45443.84
564.57	45165.32
564.74	45064.67
564.90	44596.57
565.07	45291.71
565.23	45090.42
565.39	44704.23
565.56	44828.28
565.72	45148.93
565.88	45216.81
566.05	45247.24
566.21	45141.91
566.38	44832.96
566.54	45258.94
566.70	45361.92
566.87	45703.64
567.03	44898.50
567.19	45701.30
567.36	45425.12
567.52	45485.97
567.68	45310.43
567.85	44910.20
568.01	45102.12
568.17	45275.32
568.34	45371.28
568.50	45146.59
568.66	44994.46
568.83	45167.66
568.99	45235.53
569.15	44942.97
569.32	44711.25
569.48	45177.02
569.64	45476.61
569.81	45591.30
569.97	45413.41
570.13	44994.46
570.30	44865.73
570.46	45057.65
570.62	44863.39
570.78	44828.28
570.95	44971.05
571.11	45184.04
571.27	44737.00
571.43	44865.73
571.60	45324.47
571.76	44823.60
571.92	45425.12
572.09	45535.12
572.25	45303.41
572.41	45464.91
572.57	45380.65
572.74	45937.69
572.90	45336.18
573.06	45881.52
573.22	45560.87
573.38	45647.47
573.55	45083.40
573.71	45336.18
573.87	45542.14
574.03	45038.93
574.20	45591.30
574.36	45432.14
574.52	45617.04
574.68	45628.74
574.84	45256.60
575.01	45600.66
575.17	45455.54
575.33	45268.30
575.49	45188.72
575.65	45420.44
575.82	45804.28
575.98	44854.03
576.14	45551.51
576.30	45708.32
576.46	45722.37
576.62	45319.79
576.79	45329.16
576.95	45422.78
577.11	45523.42
577.27	45797.26
577.43	45179.36
577.59	45216.81
577.75	45619.38
577.92	45492.99
578.08	45254.26
578.24	44783.81
578.40	45162.98
578.56	45338.52
578.72	45652.15
578.88	45570.23
579.04	45315.11
579.21	45067.02
579.37	45322.13
579.53	45600.66
579.69	45263.62
579.85	45928.33
580.01	45326.81
580.17	45324.47
580.33	45420.44
580.49	45331.50
580.65	45689.60
580.82	45549.17
580.98	45567.89
581.14	45317.45
581.30	45352.56
581.46	45448.52
581.62	45432.14
581.78	45446.18
581.94	45975.14
582.10	45434.48
582.26	45745.77
582.42	45918.97
582.58	46028.98
582.74	45640.45
582.90	45537.46
583.06	45965.78
583.22	45406.39
583.38	45703.64
583.54	45680.24
583.70	45404.05
583.86	45537.46
584.02	45478.95
584.18	44924.24
584.34	45364.26
584.50	45666.19
584.66	45823.01
584.82	45268.30
584.98	45656.83
585.14	45525.76
585.30	45656.83
585.46	45247.24
585.62	45230.85
585.78	45649.81
585.94	45570.23
586.10	45434.48
586.26	45207.45
586.42	45537.46
586.58	45820.67
586.74	45755.13
586.90	45535.12
587.06	45846.41
587.22	45928.33
587.38	45544.48
587.54	45984.51
587.70	45656.83
587.86	45579.59
588.02	45588.95
588.18	45598.32
588.34	45518.74
588.49	45151.27
588.65	45280.00
588.81	45165.32
588.97	45071.70
589.13	45188.72
589.29	45542.14
589.45	45258.94
589.61	45198.09
589.77	45663.85
589.93	45598.32
590.08	45574.91
590.24	45780.88
590.40	45762.15
590.56	45848.75
590.72	45965.78
590.88	45844.07
591.04	45565.55
591.20	46047.70
591.35	45834.71
591.51	46000.89
591.67	45429.80
591.83	45408.73
591.99	45638.11
592.15	45581.93
592.31	45766.84
592.46	45698.96
592.62	45633.42
592.78	45610.02
592.94	46054.72
593.10	46033.66
593.26	45874.50
593.41	45881.52
593.57	45453.20
593.73	45640.45
593.89	45532.78
594.05	45521.08
594.20	45621.72
594.36	45794.92
594.52	45687.26
594.68	45860.46
594.84	45485.97
594.99	45841.73
595.15	46045.36
595.31	45752.79
595.47	45954.08
595.62	46099.19
595.78	45696.62
595.94	45862.80
596.10	46590.70
596.25	45986.85
596.41	45738.75
596.57	45614.70
596.73	45338.52
596.88	45511.72
597.04	45715.34
597.20	45537.46
597.36	45549.17
597.51	45820.67
597.67	46124.94
597.83	45385.33
597.99	46031.32
598.14	45598.32
598.30	45993.87
598.46	45975.14
598.61	45996.21
598.77	45825.35
598.93	45890.88
599.09	45949.40
599.24	46384.74
599.40	46014.93
599.56	46204.52
599.71	45897.91
599.87	45949.40
600.03	45727.05
600.18	45837.05
600.34	45846.41
600.50	45418.10
600.65	45722.37
600.81	45965.78
600.97	46010.25
601.12	46169.41
601.28	45530.44
601.44	45375.97
601.59	45832.37
601.75	45680.24
601.91	45612.36
602.06	45497.67
602.22	45738.75
602.37	45975.14
602.53	45909.61
602.69	46436.23
602.84	45563.21
603.00	45481.29
603.16	45860.46
603.31	45858.12
603.47	45834.71
603.62	45656.83
603.78	45654.49
603.94	46272.39
604.09	46096.85
604.25	45937.69
604.40	45677.90
604.56	45497.67
604.71	45741.09
604.87	45752.79
605.03	45944.72
605.18	45895.56
605.34	45715.34
605.49	45448.52
605.65	45867.48
605.80	45844.07
605.96	45970.46
606.12	45523.42
606.27	46197.49
606.43	45123.19
606.58	45390.01
606.74	45907.27
606.89	45911.95
607.05	45698.96
607.20	45935.35
607.36	45591.30
607.51	45865.14
607.67	45947.06
607.82	45397.03
607.98	45549.17
608.13	45315.11
608.29	45015.52
608.44	44973.39
608.60	45167.66
608.75	45191.06
608.91	45067.02
609.06	45198.09
609.22	45387.67
609.37	45319.79
609.53	45130.21
609.68	45457.88
609.84	45034.25
609.99	45511.72
610.15	44872.75
610.30	44776.79
610.46	44788.49
610.61	45488.31
610.76	45228.51
610.92	45455.54
611.07	45315.11
611.23	45525.76
611.38	45305.75
611.54	44919.56
611.69	44767.43
611.84	45160.64
612.00	44844.66
612.15	44921.90
612.31	45139.57
612.46	45062.33
612.62	45287.03
612.77	45277.66
612.92	44737.00
613.08	44938.29
613.23	44488.90
613.39	44818.92
613.54	44872.75
613.69	44615.29
613.85	44552.10
614.00	44964.03
614.15	44751.04
614.31	44940.63
614.46	45141.91
614.62	44851.69
614.77	44732.32
614.92	44980.42
615.08	44425.71
615.23	44505.29
615.38	44664.44
615.54	44524.01
615.69	44971.05
615.84	44264.21
616.00	44474.86
616.15	44568.48
616.30	44516.99
616.46	44865.73
616.61	43871.00
616.76	44329.75
616.92	44018.46
617.07	44465.50
617.22	44278.25
617.37	44226.76
617.53	44776.79
617.68	44641.04
617.83	44322.72
617.99	43833.55
618.14	43576.09
618.29	44280.60
618.45	43957.60
618.60	43732.91
618.75	44044.20
618.90	43971.64
619.06	43824.19
619.21	44126.12
619.36	43765.68
619.51	43845.26
619.67	43384.17
619.82	43952.92
619.97	43859.30
620.12	43669.72
620.28	43199.27
620.43	44093.35
620.58	43826.53
620.73	43908.45
620.89	43821.85
621.04	43688.44
621.19	44156.55
621.34	43470.77
621.49	43608.86
621.65	43353.74
621.80	43704.82
621.95	43826.53
622.10	43489.49
622.25	43562.05
622.41	43412.26
622.56	43304.59
622.71	43536.30
622.86	43470.77
623.01	43192.25
623.16	43267.14
623.32	43297.57
623.47	43269.48
623.62	42995.64
623.77	43150.12
623.92	43206.29
624.07	43145.44
624.23	42852.87
624.38	43276.51
624.53	42527.53
624.68	42808.40
624.83	43302.25
624.98	42883.30
625.13	42412.85
625.29	42953.51
625.44	42611.79
625.59	42710.10
625.74	42686.69
625.89	42305.18
626.04	42792.01
626.19	42506.47
626.34	42869.25
626.49	42951.17
626.65	42904.36
626.80	43061.18
626.95	42375.40
627.10	42548.60
627.25	42473.70
627.40	42178.79
627.55	42370.72
627.70	42007.94
627.85	42171.77
628.00	42359.02
628.15	42419.87
628.30	42260.71
628.45	42153.05
628.60	42227.95
628.76	42321.57
628.91	42373.06
629.06	42241.99
629.21	42057.09
629.36	41654.51
629.51	41813.67
629.66	42328.59
629.81	41820.69
629.96	41986.87
630.11	42096.88
630.26	42181.13
630.41	42370.72
630.56	41801.97
630.71	41818.35
630.86	42382.42
631.01	41926.02
631.16	41862.82
631.31	41420.46
631.46	41741.11
631.61	41530.47
631.76	41600.68
631.91	41617.07
632.06	41930.70
632.21	41626.43
632.36	41600.68
632.51	41289.39
632.66	41713.03
632.81	41303.43
632.96	41191.09
633.10	41256.62
633.25	41298.75
633.40	41258.96
633.55	41235.56
633.70	41057.68
633.85	41258.96
634.00	41469.61
634.15	41560.89
634.30	40861.07
634.45	41364.29
634.60	41090.44
634.75	40748.73
634.90	40954.69
635.05	40940.65
635.19	41010.87
635.34	41581.96
635.49	41027.25
635.64	40809.58
635.79	41106.83
635.94	40924.27
636.09	41113.85
636.24	40561.48
636.39	40566.16
636.53	40828.30
636.68	40662.13
636.83	40732.34
636.98	40549.78
637.13	40774.47
637.28	41031.93
637.43	40762.77
637.57	40886.82
637.72	40399.99
637.87	40641.06
638.02	40896.18
638.17	40741.71
638.32	40388.28
638.46	40102.74
638.61	40154.23
638.76	40493.61
638.91	40512.33
639.06	40451.48
639.20	40638.72
639.35	40620.00
639.50	40376.58
639.65	40428.07
639.80	40446.80
639.94	39814.85
640.09	40402.33
640.24	39957.63
640.39	40210.40
640.54	39845.28
640.68	39770.38
640.83	40222.11
640.98	39742.30
641.13	39505.90
641.27	39756.34
641.42	39718.89
641.57	39878.05
641.72	40170.61
641.86	39714.21
642.01	39709.53
642.16	39917.84
642.31	39306.96
642.45	39786.77
642.60	39494.20
642.75	39564.42
642.90	39639.31
643.04	39732.93
643.19	39669.74
643.34	39852.30
643.48	39835.92
643.63	39658.04
643.78	39150.14
643.93	39718.89
644.07	39159.50
644.22	39250.78
644.37	39269.51
644.51	39096.31
644.66	39704.85
644.81	39232.06
644.95	39358.45
645.10	39480.16
645.25	39288.23
645.39	39428.66
645.54	39360.79
645.69	39164.18
645.83	39379.51
645.98	38962.90
646.13	38948.85
646.27	39274.19
646.42	38518.20
646.57	38656.29
646.71	39194.61
646.86	39194.61
647.00	38927.79
647.15	38787.36
647.30	39005.03
647.44	38742.89
647.59	38880.98
647.74	38520.54
647.88	38185.84
648.03	38710.12
648.17	38569.69
648.32	38766.29
648.47	38918.43
648.61	38335.63
648.76	38703.10
648.90	38593.09
649.05	38827.15
649.20	38995.67
649.34	38513.52
649.49	38251.38
649.63	38710.12
649.78	38445.64
649.92	38682.03
650.07	38763.95
650.21	38337.98
650.36	38230.31
650.51	38794.38
650.65	38988.64
650.80	38899.70
650.94	38557.99
651.09	38529.90
651.23	38110.94
651.38	38117.96
651.52	37977.53
651.67	37881.57
651.81	37975.19
651.96	37773.91
652.10	37942.42
652.25	38148.39
652.39	37832.42
652.54	38281.80
652.68	37652.20
652.83	38469.04
652.97	38234.99
653.12	38050.09
653.26	37731.78
653.41	37642.84
653.55	37736.46
653.70	37923.70
653.84	37876.89
653.99	37317.50
654.13	37680.28
654.27	37261.33
654.42	37811.35
654.56	37368.99
654.71	37752.84
654.85	37350.27
655.00	37551.56
655.14	37364.31
655.29	37453.25
655.43	37572.62
655.57	36973.44
655.72	36503.00
655.86	37001.53
656.01	36491.29
656.15	36673.85
656.30	36755.77
656.44	36893.86
656.58	37240.26
656.73	37132.60
656.87	36650.45
657.01	36870.46
657.16	36648.11
657.30	36678.54
657.45	36308.73
657.59	36842.37
657.73	37008.55
657.88	36921.95
658.02	36643.43
658.16	36957.06
658.31	36903.23
658.45	37120.90
658.60	36725.35
658.74	36856.42
658.88	36444.48
659.03	36481.93
659.17	36437.46
659.31	36598.96
659.46	36835.35
659.60	36395.33
659.74	36301.71
659.89	35906.16
660.03	36273.62
660.17	36285.33
660.32	36362.56
660.46	36512.36
660.60	36105.10
660.74	36046.59
660.89	36109.78
661.03	35896.80
661.17	35943.61
661.32	35810.20
661.46	36182.34
661.60	35599.55
661.74	35707.21
661.89	35749.34
662.03	35524.65
662.17	35814.88
662.31	35248.47
662.46	35803.17
662.60	35679.13
662.74	35431.03
662.88	35505.93
663.03	35386.56
663.17	35234.42
663.31	35295.28
663.45	35655.72
663.60	35152.51
663.74	35534.01
663.88	35175.91
664.02	34747.59
664.17	35075.27
664.31	34628.23
664.45	34565.03
664.59	34827.17
664.73	34665.67
664.88	34848.24
665.02	34328.64
665.16	34483.11
665.30	34174.16
665.44	34230.33
665.59	34391.83
665.73	34499.50
665.87	33897.98
666.01	34405.88
666.15	34384.81
666.29	34506.52
666.44	34506.52
666.58	34139.05
666.72	34293.53
666.86	34045.43
667.00	33954.15
667.14	33839.47
667.28	34026.71
667.43	33582.01
667.57	33876.91
667.71	33773.93
667.85	33537.54
667.99	33699.03
668.13	33738.82
668.27	33720.10
668.41	33450.94
668.56	33605.41
668.70	33380.72
668.84	33212.20
668.98	33371.36
669.12	33551.58
669.26	33319.87
669.40	32706.65
669.54	32669.20
669.68	32910.27
669.82	32650.47
669.96	32739.41
670.10	32491.32
670.25	32957.08
670.39	32893.89
670.53	32802.61
670.67	32690.26
670.81	32755.80
670.95	32140.24
671.09	32151.94
671.23	32297.05
671.37	32299.39
671.51	32116.83
671.65	32044.27
671.79	32180.03
671.93	31964.70
672.07	31714.26
672.21	31931.93
672.35	31798.52
672.49	31920.23
672.63	31688.51
672.77	31466.16
672.91	31356.16
673.05	31510.63
673.19	31311.69
673.33	31262.54
673.47	31360.84
673.61	31204.02
673.75	30965.29
673.89	31208.70
674.03	31056.57
674.17	30876.35
674.31	30806.13
674.45	30958.27
674.59	30930.18
674.73	31079.97
674.87	31007.42
675.01	31082.31
675.15	30607.19
675.29	30398.88
675.43	30403.56
675.56	30717.19
675.70	30359.09
675.84	30686.76
675.98	29462.66
676.12	29914.39
676.26	30197.59
676.40	30211.64
676.54	30445.69
676.68	29797.36
676.82	29677.99
676.96	29727.14
677.10	29575.01
677.23	29355.00
677.37	29001.58
677.51	29654.59
677.65	29013.28
677.79	28400.06
677.93	28868.17
678.07	28943.06
678.21	28687.95
678.34	28404.74
678.48	28271.33
678.62	28414.10
678.76	28397.72
678.90	28266.65
679.04	28341.55
679.18	28222.18
679.31	27548.11
679.45	27747.05
679.59	27789.18
679.73	27866.42
679.87	27618.32
680.00	27229.79
680.14	27311.71
680.28	27391.29
680.42	27571.51
680.56	27960.04
680.70	27578.53
680.83	27166.60
680.97	27126.81
681.11	26930.20
681.25	26522.95
681.39	26808.50
681.52	26988.72
681.66	26356.77
681.80	26555.72
681.94	26356.77
682.07	26443.37
682.21	26099.31
682.35	26080.59
682.49	26099.31
682.62	26005.69
682.76	25764.62
682.90	26244.43
683.04	25912.07
683.17	25603.12
683.31	25434.60
683.45	25528.22
683.59	25544.61
683.72	25436.94
683.86	25748.23
684.00	25214.59
684.13	25172.46
684.27	25034.37
684.41	24973.52
684.55	24645.84
684.68	25046.07
684.82	24774.57
684.96	24198.80
685.09	24650.52
685.23	24093.47
685.37	24205.82
685.50	24505.41
685.64	24800.32
685.78	24133.26
685.91	24100.50
686.05	23943.68
686.19	23569.19
686.32	23723.67
686.46	23480.25
686.60	23253.22
686.73	23321.10
686.87	23154.92
687.01	23248.54
687.14	22883.42
687.28	22567.45
687.42	22937.25
687.55	22691.49
687.69	22728.94
687.82	23028.53
687.96	22745.33
688.10	22443.40
688.23	22658.73
688.37	22384.88
688.50	22314.67
688.64	22331.05
688.78	22237.43
688.91	21921.46
689.05	21752.94
689.18	21825.50
689.32	21528.25
689.46	21970.61
689.59	21979.97
689.73	22281.90
689.86	21685.06
690.00	21453.35
690.13	21523.57
690.27	21130.36
690.41	21116.31
690.54	20730.12
690.68	20966.52
690.81	21081.21
690.95	21284.83
691.08	20886.94
691.22	20982.90
691.35	20800.34
691.49	20767.57
691.62	20613.10
691.76	20695.02
691.89	20645.87
692.03	20240.95
692.16	20290.10
692.30	20130.95
692.43	20159.03
692.57	19981.15
692.70	19744.76
692.84	20025.62
692.97	19641.78
693.11	19599.65
693.24	19400.70
693.38	19541.13
693.51	19381.98
693.65	19419.42
693.78	19220.48
693.92	19435.81
694.05	19218.14
694.19	19002.81
694.32	19183.03
694.45	19206.44
694.59	18892.80
694.72	19007.49
694.86	18799.18
694.99	18366.18
695.13	18504.28
695.26	18682.16
695.39	18459.81
695.53	18410.65
695.66	18363.84
695.80	18111.07
695.93	18246.82
696.07	18272.56
696.20	18302.99
696.33	17921.48
696.47	17998.72
696.60	17624.23
696.73	17778.71
696.87	17568.06
697.00	17392.52
697.14	17338.69
697.27	17256.77
697.40	17469.76
697.54	17383.16
697.67	17106.98
697.80	17188.89
697.94	17008.67
698.07	17029.74
698.21	16723.13
698.34	17090.59
698.47	16751.21
698.61	16688.02
698.74	16493.76
698.87	16641.21
699.01	16587.38
699.14	16358.00
699.27	16339.28
699.40	16297.15
699.54	16313.53
699.67	15721.38
699.80	15800.96
699.94	15882.88
700.07	15997.56
700.20	16163.74
700.34	15737.76
700.47	15683.93
700.60	15716.70
700.73	15758.83
700.87	15669.89
701.00	15517.75
701.13	15658.18
701.26	15332.85
701.40	15089.43
701.53	14668.14
701.66	15066.03
701.79	14920.92
701.93	14974.75
702.06	14876.44
702.19	14649.41
702.32	14752.40
702.46	14939.64
702.59	14970.07
702.72	14494.94
702.85	14654.09
702.99	14333.44
703.12	14483.24
703.25	14118.11
703.38	14387.27
703.51	14150.88
703.65	14256.20
703.78	13872.36
703.91	13752.99
704.04	13734.26
704.17	13895.76
704.31	13898.10
704.44	13561.06
704.57	13675.75
704.70	13413.61
704.83	13493.19
704.96	13495.53
705.10	13476.80
705.23	13245.09
>>>>>End Processed Spectral Data<<<<<
