SpectraSuite Data File
++++++++++++++++++++++++++++++++++++
Date: Fri Oct 25 10:47:40 EDT 2013
User: price-jones
Dark Spectrum Present: No
Reference Spectrum Present: No
Number of Sampled Component Spectra: 1
Spectrometers: USB2+H05261
Integration Time (usec): 100000 (USB2+H05261)
Spectra Averaged: 1 (USB2+H05261)
Boxcar Smoothing: 0 (USB2+H05261)
Correct for Electrical Dark: No (USB2+H05261)
Strobe/Lamp Enabled: No (USB2+H05261)
Correct for Detector Non-linearity: No (USB2+H05261)
Correct for Stray Light: No (USB2+H05261)
Number of Pixels in Processed Spectrum: 2048
>>>>>Begin Processed Spectral Data<<<<<
365.73	159.16
365.92	159.16
366.12	159.16
366.32	91.28
366.52	72.56
366.72	37.45
366.91	117.03
367.11	42.13
367.31	46.81
367.51	0.00
367.70	0.00
367.90	44.47
368.10	70.22
368.30	93.62
368.49	11.70
368.69	126.39
368.89	133.41
369.09	88.94
369.28	49.15
369.48	98.30
369.68	0.00
369.87	112.35
370.07	114.69
370.27	149.79
370.47	238.73
370.66	388.53
370.86	524.28
371.06	454.06
371.25	470.45
371.45	395.55
371.65	463.43
371.84	435.34
372.04	500.87
372.24	374.49
372.44	442.36
372.63	477.47
372.83	433.00
373.03	538.32
373.22	472.79
373.42	430.66
373.62	524.28
373.81	500.87
374.01	582.79
374.21	526.62
374.40	587.47
374.60	592.16
374.79	458.74
374.99	582.79
375.19	613.22
375.38	578.11
375.58	620.24
375.78	603.86
375.97	550.03
376.17	650.67
376.37	517.26
376.56	559.39
376.76	568.75
376.95	552.37
377.15	624.92
377.35	589.82
377.54	655.35
377.74	667.05
377.93	610.88
378.13	615.56
378.33	645.99
378.52	690.46
378.72	606.20
378.91	657.69
379.11	648.33
379.31	599.18
379.50	606.20
379.70	566.41
379.89	697.48
380.09	606.20
380.28	627.26
380.48	648.33
380.68	657.69
380.87	671.73
381.07	697.48
381.26	786.42
381.46	657.69
381.65	683.44
381.85	613.22
382.04	767.70
382.24	695.14
382.43	685.78
382.63	610.88
382.83	699.82
383.02	763.01
383.22	737.27
383.41	681.10
383.61	727.91
383.80	826.21
384.00	734.93
384.19	711.52
384.39	755.99
384.58	763.01
384.78	805.14
384.97	716.20
385.17	863.66
385.36	704.50
385.56	833.23
385.75	755.99
385.95	772.38
386.14	844.93
386.34	779.40
386.53	767.70
386.72	837.91
386.92	835.57
387.11	887.06
387.31	847.27
387.50	891.74
387.70	786.42
387.89	816.85
388.09	863.66
388.28	880.04
388.48	854.30
388.67	805.14
388.86	905.79
389.06	882.38
389.25	964.30
389.45	1006.43
389.64	901.11
389.84	971.32
390.03	940.90
390.22	957.28
390.42	863.66
390.61	901.11
390.81	919.83
391.00	943.24
391.19	954.94
391.39	877.70
391.58	968.98
391.78	940.90
391.97	1004.09
392.16	994.73
392.36	1043.88
392.55	1015.79
392.75	976.00
392.94	997.07
393.13	990.05
393.33	940.90
393.52	1008.77
393.71	1039.20
393.91	1011.11
394.10	1107.07
394.29	1062.60
394.49	1064.94
394.68	1170.27
394.88	1160.91
395.07	1132.82
395.26	1123.46
395.46	1217.08
395.65	1207.72
395.84	1090.69
396.04	1224.10
396.23	1097.71
396.42	1139.84
396.62	1104.73
396.81	1064.94
397.00	1104.73
397.19	1135.16
397.39	1177.29
397.58	1217.08
397.77	1263.89
397.97	1224.10
398.16	1338.79
398.35	1390.28
398.55	1364.53
398.74	1409.00
398.93	1287.29
399.12	1399.64
399.32	1299.00
399.51	1284.95
399.70	1357.51
399.90	1366.87
400.09	1476.88
400.28	1483.90
400.47	1441.77
400.67	1423.05
400.86	1460.49
401.05	1472.20
401.24	1596.25
401.44	1523.69
401.63	1537.73
401.82	1516.67
402.01	1516.67
402.21	1619.65
402.40	1572.84
402.59	1523.69
402.78	1549.43
402.97	1523.69
403.17	1568.16
403.36	1579.86
403.55	1633.69
403.74	1659.44
403.93	1638.38
404.13	1575.18
404.32	1591.56
404.51	1760.08
404.70	1678.16
404.89	1720.29
405.09	1687.53
405.28	1739.02
405.47	1713.27
405.66	1762.42
405.85	1837.32
406.05	1884.13
406.24	1827.96
406.43	1837.32
406.62	1769.44
406.81	1895.83
407.00	1874.77
407.20	1762.42
407.39	1811.57
407.58	1966.05
407.77	1998.82
407.96	1954.35
408.15	1989.46
408.34	1928.60
408.54	1921.58
408.73	2054.99
408.92	2069.03
409.11	2054.99
409.30	2010.52
409.49	2165.00
409.68	1998.82
409.87	2076.06
410.07	2141.59
410.26	2186.06
410.45	2165.00
410.64	2209.47
410.83	2148.61
411.02	2141.59
411.21	2275.00
411.40	2244.57
411.59	2354.58
411.78	2335.85
411.98	2331.17
412.17	2333.51
412.36	2314.79
412.55	2443.52
412.74	2518.42
412.93	2417.77
413.12	2431.82
413.31	2511.39
413.50	2455.22
413.69	2523.10
413.88	2576.93
414.07	2548.84
414.26	2684.59
414.45	2700.98
414.64	2593.31
414.83	2745.45
415.02	2747.79
415.22	2703.32
415.41	2794.60
415.60	2715.02
415.79	2951.42
415.98	2913.97
416.17	2965.46
416.36	2953.76
416.55	2979.50
416.74	2977.16
416.93	3007.59
417.12	3126.96
417.31	3096.53
417.50	3023.97
417.69	3176.11
417.88	3016.95
418.07	3115.25
418.26	3166.74
418.45	3171.43
418.64	3274.41
418.83	3279.09
419.02	3274.41
419.21	3281.43
419.39	3337.60
419.58	3143.34
419.77	3218.24
419.96	3311.86
420.15	3368.03
420.34	3269.73
420.53	3447.61
420.72	3482.72
420.91	3492.08
421.10	3332.92
421.29	3375.05
421.48	3403.14
421.67	3571.66
421.86	3475.70
422.05	3461.65
422.24	3447.61
422.43	3471.01
422.61	3499.10
422.80	3576.34
422.99	3431.23
423.18	3625.49
423.37	3606.77
423.56	3592.72
423.75	3463.99
423.94	3492.08
424.13	3297.81
424.32	3400.80
424.50	3695.71
424.69	3627.83
424.88	3585.70
425.07	3578.68
425.26	3541.23
425.45	3456.97
425.64	3630.17
425.83	3651.24
426.01	3672.30
426.20	3794.01
426.39	3618.47
426.58	3541.23
426.77	3651.24
426.96	3613.79
427.15	3564.64
427.33	3693.37
427.52	3665.28
427.71	3794.01
427.90	3758.90
428.09	3831.46
428.28	3777.62
428.46	3868.91
428.65	3829.12
428.84	4079.55
429.03	3990.61
429.22	3651.24
429.40	3765.92
429.59	3812.73
429.78	3719.11
429.97	3634.85
430.16	3833.80
430.34	3791.67
430.53	4007.00
430.72	3939.12
430.91	3932.10
431.10	3878.27
431.28	4100.62
431.47	4236.37
431.66	4203.60
431.85	4114.66
432.03	4131.05
432.22	4318.29
432.41	4227.01
432.60	4301.90
432.79	4259.78
432.97	4447.02
433.16	4252.75
433.35	4337.01
433.54	4334.67
433.72	4257.43
433.91	4194.24
434.10	4512.55
434.28	4348.72
434.47	4353.40
434.66	4519.57
434.85	4465.74
435.03	4547.66
435.22	4587.45
435.41	4610.86
435.59	4606.17
435.78	4470.42
435.97	4615.54
436.16	4571.07
436.34	4706.82
436.53	4479.79
436.72	4734.90
436.90	4674.05
437.09	4746.61
437.28	4627.24
437.46	4641.28
437.65	4697.46
437.84	4798.10
438.02	4767.67
438.21	4711.50
438.40	4727.88
438.58	4971.30
438.77	5029.81
438.96	5088.32
439.14	4990.02
439.33	5151.52
439.52	4994.70
439.70	5135.14
439.89	5263.86
440.08	5121.09
440.26	5383.23
440.45	5097.69
440.63	5289.61
440.82	5542.39
441.01	5416.00
441.19	5500.26
441.38	5284.93
441.57	5544.73
441.75	5650.05
441.94	5537.71
442.12	5764.74
442.31	5734.31
442.50	5717.93
442.68	5706.23
442.87	5600.90
443.05	5675.80
443.24	5827.93
443.43	5778.78
443.61	5755.38
443.80	5849.00
443.98	5771.76
444.17	5561.11
444.35	5879.43
444.54	5949.64
444.73	6031.56
444.91	5905.17
445.10	5806.87
445.28	6026.88
445.47	5820.91
445.65	5881.77
445.84	5893.47
446.02	6052.63
446.21	6083.05
446.39	6136.88
446.58	5961.34
446.77	5994.11
446.95	5984.75
447.14	5980.07
447.32	6076.03
447.51	5998.79
447.69	5914.53
447.88	6050.28
448.06	6176.67
448.25	6127.52
448.43	6256.25
448.62	6066.67
448.80	5912.19
448.99	6099.44
449.17	6331.15
449.36	6120.50
449.54	6396.68
449.73	6359.24
449.91	6476.26
450.10	6492.65
450.28	6534.78
450.46	6525.41
450.65	6410.73
450.83	6532.44
451.02	6485.62
451.20	6661.16
451.39	6476.26
451.57	6366.26
451.76	6497.33
451.94	6539.46
452.13	6441.15
452.31	6520.73
452.49	6438.81
452.68	6705.63
452.86	6541.80
453.05	6616.69
453.23	6686.91
453.42	6675.21
453.60	6794.58
453.78	6696.27
453.97	6602.65
454.15	6829.68
454.34	6555.84
454.52	6974.80
454.70	6773.51
454.89	6913.94
455.07	6780.53
455.26	7112.89
455.44	7040.33
455.62	7152.68
455.81	6860.11
455.99	7143.32
456.17	7026.29
456.36	6998.20
456.54	7337.58
456.73	7232.26
456.91	7356.30
457.09	7456.95
457.28	7478.01
457.46	7302.47
457.64	7433.54
457.83	7339.92
458.01	7206.51
458.19	7300.13
458.38	7424.18
458.56	7557.59
458.74	7503.76
458.93	7351.62
459.11	7627.81
459.29	7456.95
459.48	7524.82
459.66	7674.62
459.84	7655.89
460.03	7655.89
460.21	7740.15
460.39	7756.54
460.57	7686.32
460.76	7875.90
460.94	7808.03
461.12	7826.75
461.31	8070.17
461.49	7845.48
461.67	7852.50
461.85	8124.00
462.04	7943.78
462.22	8325.29
462.40	8203.58
462.59	8018.68
462.77	8131.02
462.95	8170.81
463.13	8044.42
463.32	8177.83
463.50	8124.00
463.68	8367.42
463.86	8187.19
464.05	8119.32
464.23	8100.59
464.41	8376.78
464.59	8016.33
464.78	8238.69
464.96	8414.23
465.14	8278.47
465.32	8252.73
465.50	8381.46
465.69	8475.08
465.87	8341.67
466.05	8374.44
466.23	8369.76
466.41	8578.06
466.60	8313.58
466.78	8407.20
466.96	8585.08
467.14	8547.64
467.32	8667.00
467.51	8683.39
467.69	8454.02
467.87	8545.30
468.05	8840.20
468.23	8601.47
468.41	8528.91
468.60	8800.41
468.78	8840.20
468.96	8833.18
469.14	8896.38
469.32	9125.75
469.50	8784.03
469.69	8699.77
469.87	8987.66
470.05	9004.04
470.23	8947.87
470.41	9081.28
470.59	9135.11
470.77	9153.84
470.95	9233.41
471.14	9392.57
471.32	9018.08
471.50	9334.06
471.68	9483.85
471.86	9298.95
472.04	9533.00
472.22	9738.97
472.40	9551.73
472.58	9650.03
472.77	9493.21
472.95	9830.25
473.13	9841.95
473.31	9586.83
473.49	9525.98
473.67	9734.29
473.85	9975.36
474.03	10029.20
474.21	10033.88
474.39	10057.28
474.57	10092.39
474.75	10045.58
474.93	10202.40
475.12	10181.33
475.30	10394.32
475.48	10387.30
475.66	10352.19
475.84	10424.75
476.02	10530.07
476.20	10546.45
476.38	10853.06
476.56	10841.36
476.74	10761.78
476.92	10689.23
477.10	11019.24
477.28	10930.30
477.46	11232.23
477.64	11297.77
477.82	11307.13
478.00	11501.39
478.18	11431.18
478.36	11712.04
478.54	11585.65
478.72	11616.08
478.90	11653.53
479.08	11941.41
479.26	12058.44
479.44	12252.70
479.62	12079.50
479.80	12278.45
479.98	12184.83
480.16	12451.65
480.34	12341.64
480.52	12676.34
480.70	12641.23
480.88	12491.44
481.06	12943.16
481.24	12996.99
481.41	12896.35
481.59	13125.72
481.77	13027.42
481.95	13474.46
482.13	13142.11
482.31	13287.22
482.49	13673.41
482.67	13650.00
482.85	13610.22
483.03	13769.37
483.21	13975.34
483.39	14181.31
483.57	14099.39
483.74	14211.73
483.92	14579.20
484.10	14324.08
484.28	14878.79
484.46	14806.23
484.64	14911.55
484.82	14801.55
485.00	15023.90
485.18	15239.23
485.35	15159.65
485.53	15068.37
485.71	15185.40
485.89	15410.09
486.07	15339.87
486.25	15658.18
486.43	15693.29
486.61	15908.62
486.78	16191.83
486.96	16280.77
487.14	16374.39
487.32	16372.05
487.50	16489.07
487.68	16826.11
487.85	16781.64
488.03	17048.46
488.21	17032.08
488.39	17132.72
488.57	17369.12
488.75	17668.70
488.92	17652.32
489.10	17741.26
489.28	18019.78
489.46	18232.77
489.64	18183.62
489.81	18834.29
489.99	18469.17
490.17	18508.96
490.35	18553.43
490.53	18761.73
490.70	19159.63
490.88	18953.66
491.06	19494.32
491.24	19077.71
491.41	19201.76
491.59	19452.19
491.77	19559.86
491.95	19616.03
492.13	19683.91
492.30	20053.71
492.48	19920.30
492.66	19953.07
492.84	20044.35
493.01	20432.88
493.19	20599.05
493.37	20252.66
493.54	20858.85
493.72	20821.41
493.90	20947.79
494.08	21238.02
494.25	21294.19
494.43	21294.19
494.61	21282.49
494.79	21607.83
494.96	21839.54
495.14	21635.91
495.32	22089.98
495.49	21965.93
495.67	22232.75
495.85	22328.71
496.02	22410.63
496.20	22733.62
496.38	22567.45
496.55	22724.26
496.73	23515.36
496.91	23019.17
497.09	23068.32
497.26	22960.66
497.44	23349.18
497.62	23562.17
497.79	23662.82
497.97	23506.00
498.14	23754.10
498.32	23735.37
498.50	23611.32
498.67	24044.32
498.85	24002.19
499.03	24575.62
499.20	24151.99
499.38	24753.51
499.56	24875.21
499.73	24444.56
499.91	24814.36
500.08	24814.36
500.26	24826.06
500.44	24816.70
500.61	24898.62
500.79	24929.05
500.97	25120.97
501.14	25212.25
501.32	25549.29
501.49	25322.26
501.67	25614.82
501.84	25818.45
502.02	25619.50
502.20	25741.21
502.37	26134.42
502.55	25895.69
502.72	26080.59
502.90	26209.32
503.07	26120.38
503.25	26356.77
503.43	26029.10
503.60	26522.95
503.78	26129.74
503.95	26604.87
504.13	26445.71
504.30	26682.11
504.48	26787.43
504.65	26735.94
504.83	27171.28
505.01	27295.33
505.18	27075.32
505.36	27290.65
505.53	27571.51
505.71	27681.52
505.88	27821.95
506.06	27733.01
506.23	27850.03
506.41	27585.55
506.58	28283.03
506.76	27948.34
506.93	28395.38
507.11	27978.76
507.28	28264.31
507.46	28252.61
507.63	27831.31
507.81	28332.18
507.98	28477.30
508.16	28542.83
508.33	28467.94
508.50	28591.98
508.68	28720.71
508.85	29130.31
509.03	29132.65
509.20	29069.45
509.38	28964.13
509.55	29525.86
509.73	29518.84
509.90	29514.16
510.08	29577.35
510.25	29369.04
510.42	29788.00
510.60	29860.55
510.77	29965.88
510.95	30199.93
511.12	29579.69
511.30	29944.81
511.47	30293.55
511.64	29970.56
511.82	29954.18
511.99	29965.88
512.17	30459.73
512.34	30352.07
512.51	30539.31
512.69	30670.38
512.86	30775.70
513.04	30630.59
513.21	30808.47
513.38	30764.00
513.56	31047.21
513.73	30902.09
513.90	31101.04
514.08	31068.27
514.25	31456.80
514.43	31328.07
514.60	31236.79
514.77	31477.86
514.95	31672.13
515.12	31381.90
515.29	31803.20
515.47	31721.28
515.64	31850.01
515.81	31702.56
515.99	31559.78
516.16	32109.81
516.33	31538.72
516.51	31826.60
516.68	31601.91
516.85	31871.07
517.03	32018.53
517.20	32189.39
517.37	32105.13
517.54	32587.28
517.72	32432.80
517.89	32397.70
518.06	32416.42
518.24	32671.54
518.41	32479.61
518.58	33013.26
518.75	32617.71
518.93	33167.73
519.10	33106.88
519.27	33017.94
519.45	33294.12
519.62	33556.26
519.79	33251.99
519.96	33656.90
520.14	33598.39
520.31	32996.87
520.48	33706.05
520.65	33324.55
520.83	34057.14
521.00	33970.54
521.17	34307.57
521.34	34227.99
521.52	34134.37
521.69	34017.35
521.86	34328.64
522.03	34242.04
522.20	34244.38
522.38	34436.30
522.55	34703.12
522.72	34415.24
522.89	34792.06
523.07	34763.98
523.24	34382.47
523.41	35136.12
523.58	34319.28
523.75	35314.00
523.92	34836.53
524.10	35129.10
524.27	35445.07
524.44	35344.43
524.61	35330.39
524.78	35590.19
524.96	35599.55
525.13	35723.60
525.30	35634.66
525.47	36044.25
525.64	35835.94
525.81	35725.94
525.98	36053.61
526.16	35646.36
526.33	35381.88
526.50	36231.49
526.67	35433.37
526.84	35817.22
527.01	35889.77
527.18	35875.73
527.36	36369.58
527.53	36065.31
527.70	36753.43
527.87	36381.29
528.04	36575.55
528.21	35864.03
528.38	36355.54
528.55	36884.50
528.72	36968.76
528.89	37069.40
529.07	36978.12
529.24	36545.12
529.41	36613.00
529.58	36582.57
529.75	37031.96
529.92	36957.06
530.09	37333.89
530.26	37404.10
530.43	36809.61
530.60	37184.09
530.77	37081.11
530.94	37703.69
531.11	37315.16
531.28	37371.33
531.46	37591.34
531.63	37502.40
531.80	37305.80
531.97	37935.40
532.14	37378.36
532.31	37282.39
532.48	37888.59
532.65	37902.64
532.82	37961.15
532.99	38022.00
533.16	37757.52
533.33	38003.28
533.50	37904.98
533.67	38129.67
533.84	37689.65
534.01	38263.08
534.18	38169.46
534.35	38569.69
534.52	38258.40
534.69	38415.21
534.86	38490.11
535.03	38342.66
535.20	38602.46
535.37	39236.74
535.54	39152.48
535.71	39278.87
535.88	38824.81
536.05	38623.52
536.22	38888.00
536.38	38813.10
536.55	38747.57
536.72	38717.14
536.89	38869.28
537.06	38607.14
537.23	39283.55
537.40	38691.40
537.57	38965.24
537.74	38969.92
537.91	39732.93
538.08	39555.05
538.25	38829.49
538.42	39126.74
538.59	39613.57
538.75	38918.43
538.92	39246.10
539.09	39409.94
539.26	39194.61
539.43	39770.38
539.60	39400.58
539.77	39718.89
539.94	39772.72
540.11	39388.88
540.28	39688.46
540.44	39548.03
540.61	39597.18
540.78	39646.33
540.95	39702.51
541.12	39643.99
541.29	39552.71
541.46	40212.74
541.62	39838.26
541.79	40116.78
541.96	40081.67
542.13	40189.34
542.30	39885.07
542.47	40215.08
542.63	40304.02
542.80	40587.23
542.97	40268.92
543.14	41106.83
543.31	40835.33
543.48	41078.74
543.64	41095.13
543.81	41216.83
543.98	40893.84
544.15	40737.02
544.32	40793.20
544.48	41237.90
544.65	41015.55
544.82	41148.96
544.99	40858.73
545.16	40992.14
545.32	40942.99
545.49	41235.56
545.66	41406.42
545.83	41172.36
546.00	41698.98
546.16	41464.93
546.33	41509.40
546.50	41347.90
546.67	41855.80
546.83	41186.41
547.00	41801.97
547.17	41256.62
547.34	41448.55
547.50	41429.82
547.67	42024.32
547.84	41598.34
548.00	42171.77
548.17	42094.53
548.34	41743.45
548.51	42204.54
548.67	42476.04
548.84	41876.86
549.01	41792.61
549.18	42073.47
549.34	42202.20
549.51	42117.94
549.68	41687.28
549.84	42143.69
550.01	42541.58
550.18	42256.03
550.34	41989.21
550.51	41851.12
550.68	42288.80
550.84	41345.56
551.01	42412.85
551.18	42363.70
551.34	42096.88
551.51	42665.63
551.68	42684.35
551.84	42799.04
552.01	42487.74
552.18	42359.02
552.34	42267.73
552.51	42747.54
552.68	42567.32
552.84	43070.54
553.01	43264.80
553.18	42555.62
553.34	42696.05
553.51	42436.25
553.67	42424.55
553.84	43014.37
554.01	42754.57
554.17	42799.04
554.34	43309.27
554.51	43021.39
554.67	43138.41
554.84	43040.11
555.00	43119.69
555.17	43269.48
555.33	43129.05
555.50	42827.12
555.67	43189.91
555.83	43351.40
556.00	42866.91
556.16	43505.88
556.33	43840.57
556.50	43449.70
556.66	43388.85
556.83	43016.71
556.99	43512.90
557.16	43339.70
557.32	43608.86
557.49	43601.84
557.65	43044.79
557.82	43388.85
557.98	43463.75
558.15	43100.97
558.32	43463.75
558.48	43222.67
558.65	43566.73
558.81	43407.58
558.98	43316.29
559.14	43103.31
559.31	43454.39
559.47	43658.01
559.64	43650.99
559.80	43817.17
559.97	43981.01
560.13	43833.55
560.30	43566.73
560.46	43894.41
560.63	43845.26
560.79	44154.21
560.96	44058.24
561.12	43856.96
561.29	43419.28
561.45	43873.34
561.61	43959.94
561.78	43973.98
561.94	43761.00
562.11	44163.57
562.27	43725.89
562.44	44416.35
562.60	43938.88
562.77	44526.35
562.93	44287.62
563.10	44355.49
563.26	43882.70
563.42	44411.67
563.59	43892.07
563.75	44004.41
563.92	44505.29
564.08	44226.76
564.24	44617.63
564.41	44030.16
564.57	44222.08
564.74	44502.95
564.90	44554.44
565.07	44264.21
565.23	44444.43
565.39	43831.21
565.56	44514.65
565.72	44226.76
565.88	43938.88
566.05	44301.66
566.21	44009.09
566.38	43971.64
566.54	44294.64
566.70	44409.32
566.87	44809.56
567.03	44231.44
567.19	44687.85
567.36	44638.70
567.52	43997.39
567.68	44603.59
567.85	44116.76
568.01	44486.56
568.17	44020.80
568.34	44292.30
568.50	44114.42
568.66	44161.23
568.83	44322.72
568.99	44210.38
569.15	44315.70
569.32	44238.47
569.48	44247.83
569.64	44566.14
569.81	44535.71
569.97	44275.91
570.13	44580.18
570.30	44046.54
570.46	44224.42
570.62	44814.24
570.78	44512.31
570.95	44451.45
571.11	44910.20
571.27	44556.78
571.43	44980.42
571.60	44800.19
571.76	44533.37
571.92	44521.67
572.09	44528.69
572.25	44547.42
572.41	44428.05
572.57	44601.25
572.74	44837.64
572.90	44945.31
573.06	44816.58
573.22	44388.26
573.38	44615.29
573.55	44619.97
573.71	44715.93
573.87	44744.02
574.03	44435.07
574.20	44933.60
574.36	44280.60
574.52	45247.24
574.68	45059.99
574.84	44704.23
575.01	44762.75
575.17	44634.02
575.33	44547.42
575.49	44634.02
575.65	45174.68
575.82	45184.04
575.98	44729.98
576.14	44804.88
576.30	45048.29
576.46	44360.17
576.62	44498.26
576.79	44732.32
576.95	44528.69
577.11	44793.17
577.27	45102.12
577.43	44896.16
577.59	44884.45
577.75	44708.91
577.92	44577.84
578.08	44751.04
578.24	44678.49
578.40	44662.10
578.56	44362.51
578.72	44500.61
578.88	45340.86
579.04	45031.91
579.21	44947.65
579.37	44781.47
579.53	44472.52
579.69	44935.95
579.85	44591.89
580.01	44392.94
580.17	44875.09
580.33	45024.89
580.49	44842.32
580.65	44985.10
580.82	44622.31
580.98	44811.90
581.14	44538.05
581.30	45155.96
581.46	44751.04
581.62	45081.06
581.78	45106.80
581.94	45298.73
582.10	44835.30
582.26	45230.85
582.42	45490.65
582.58	44685.51
582.74	45059.99
582.90	45003.82
583.06	44605.93
583.22	45364.26
583.38	44971.05
583.54	44814.24
583.70	44718.28
583.86	44905.52
584.02	44659.76
584.18	44914.88
584.34	44865.73
584.50	45289.37
584.66	45057.65
584.82	44795.51
584.98	44966.37
585.14	45291.71
585.30	44879.77
585.46	45015.52
585.62	44442.09
585.78	44793.17
585.94	44753.38
586.10	44629.34
586.26	44495.92
586.42	45085.74
586.58	45153.62
586.74	44975.73
586.90	44907.86
587.06	44678.49
587.22	44856.37
587.38	44657.42
587.54	45476.61
587.70	45050.63
587.86	45064.67
588.02	45144.25
588.18	45230.85
588.34	44769.77
588.49	45106.80
588.65	44973.39
588.81	45083.40
588.97	44807.22
589.13	44708.91
589.29	45102.12
589.45	44964.03
589.61	44940.63
589.77	45092.76
589.93	45088.08
590.08	45179.36
590.24	45684.92
590.40	45305.75
590.56	45509.38
590.72	45090.42
590.88	45036.59
591.04	45249.58
591.20	45441.50
591.35	45528.10
591.51	45549.17
591.67	45099.78
591.83	44945.31
591.99	44947.65
592.15	45216.81
592.31	45326.81
592.46	45022.54
592.62	45455.54
592.78	45448.52
592.94	45453.20
593.10	45233.19
593.26	45275.32
593.41	45041.27
593.57	45099.78
593.73	45317.45
593.89	45436.82
594.05	45265.96
594.20	45059.99
594.36	45610.02
594.52	45546.82
594.68	45371.28
594.84	45085.74
594.99	45996.21
595.15	44966.37
595.31	45642.79
595.47	45340.86
595.62	45322.13
595.78	45205.11
595.94	45703.64
596.10	45504.70
596.25	45769.18
596.41	45467.25
596.57	45446.18
596.73	45270.64
596.88	45340.86
597.04	45003.82
597.20	45687.26
597.36	45635.77
597.51	45832.37
597.67	45418.10
597.83	45422.78
597.99	45537.46
598.14	45415.76
598.30	45329.16
598.46	45172.34
598.61	45502.35
598.77	45074.04
598.93	45277.66
599.09	45411.07
599.24	45909.61
599.40	45876.84
599.56	45715.34
599.71	45422.78
599.87	46036.00
600.03	45450.86
600.18	45366.60
600.34	45144.25
600.50	45502.35
600.65	45214.47
600.81	45441.50
600.97	45792.58
601.12	45804.28
601.28	45422.78
601.44	44928.92
601.59	45181.70
601.75	45202.77
601.91	45083.40
602.06	45265.96
602.22	45315.11
602.37	45523.42
602.53	45244.90
602.69	45911.95
602.84	45364.26
603.00	45488.31
603.16	45478.95
603.31	45254.26
603.47	45305.75
603.62	44903.18
603.78	45291.71
603.94	45270.64
604.09	45434.48
604.25	45326.81
604.40	45354.90
604.56	45514.06
604.71	45464.91
604.87	45312.77
605.03	45261.28
605.18	45418.10
605.34	45488.31
605.49	45092.76
605.65	45425.12
605.80	45380.65
605.96	45312.77
606.12	45294.05
606.27	45214.47
606.43	45385.33
606.58	45364.26
606.74	44697.21
606.89	44924.24
607.05	45647.47
607.20	45392.35
607.36	45146.59
607.51	45317.45
607.67	45663.85
607.82	44748.70
607.98	45324.47
608.13	45020.20
608.29	44978.07
608.44	44739.34
608.60	44797.85
608.75	44872.75
608.91	44498.26
609.06	44811.90
609.22	45090.42
609.37	45006.16
609.53	44804.88
609.68	44788.49
609.84	45160.64
609.99	45179.36
610.15	44753.38
610.30	45003.82
610.46	44605.93
610.61	44311.02
610.76	44971.05
610.92	44596.57
611.07	44783.81
611.23	44608.27
611.38	45076.38
611.54	44940.63
611.69	44900.84
611.84	44383.58
612.00	44495.92
612.15	44208.04
612.31	44931.26
612.46	45085.74
612.62	44947.65
612.77	44947.65
612.92	44882.11
613.08	44524.01
613.23	44566.14
613.39	44645.72
613.54	44332.09
613.69	44130.80
613.85	44336.77
614.00	44748.70
614.15	44669.12
614.31	44652.74
614.46	44739.34
614.62	44430.39
614.77	44416.35
614.92	44299.32
615.08	44367.20
615.23	43985.69
615.38	44467.84
615.54	43985.69
615.69	44254.85
615.84	44254.85
616.00	44306.34
616.15	44615.29
616.30	44296.98
616.46	43674.40
616.61	44327.41
616.76	43789.08
616.92	43686.10
617.07	43952.92
617.22	43924.83
617.37	44041.86
617.53	44186.97
617.68	43842.92
617.83	43955.26
617.99	44116.76
618.14	44067.61
618.29	44245.49
618.45	43709.50
618.60	43753.97
618.75	43810.15
618.90	44102.71
619.06	44058.24
619.21	43709.50
619.36	43718.87
619.51	43274.16
619.67	43358.42
619.82	43730.57
619.97	43765.68
620.12	43358.42
620.28	43026.07
620.43	43236.72
620.58	43402.89
620.73	43358.42
620.89	43421.62
621.04	43658.01
621.19	43409.92
621.34	43302.25
621.49	43072.88
621.65	43173.52
621.80	43356.08
621.95	43199.27
622.10	43072.88
622.25	43138.41
622.41	43075.22
622.56	42850.53
622.71	43489.49
622.86	43320.98
623.01	43119.69
623.16	43229.69
623.32	43550.35
623.47	43342.04
623.62	42834.14
623.77	42616.47
623.92	43346.72
624.07	42745.20
624.23	42698.39
624.38	42604.77
624.53	43021.39
624.68	42902.02
624.83	43129.05
624.98	43044.79
625.13	42700.73
625.29	42763.93
625.44	42862.23
625.59	42548.60
625.74	42057.09
625.89	42490.09
626.04	41977.51
626.19	42000.91
626.34	42660.94
626.49	42555.62
626.65	42581.37
626.80	42637.54
626.95	42506.47
627.10	42302.84
627.25	42188.16
627.40	42471.36
627.55	41523.44
627.70	41982.19
627.85	41930.70
628.00	42059.43
628.15	42438.59
628.30	41804.31
628.45	42438.59
628.60	42040.70
628.76	42265.39
628.91	42499.45
629.06	42216.24
629.21	41977.51
629.36	42153.05
629.51	42033.68
629.66	41874.52
629.81	42323.91
629.96	41808.99
630.11	41755.16
630.26	42169.43
630.41	42300.50
630.56	41715.37
630.71	42106.24
630.86	41759.84
631.01	41493.02
631.16	41706.01
631.31	41551.53
631.46	40786.18
631.61	41273.01
631.76	41645.15
631.91	41818.35
632.06	41652.17
632.21	41792.61
632.36	42078.15
632.51	41680.26
632.66	41413.44
632.81	40898.52
632.96	40942.99
633.10	41060.02
633.25	41380.67
633.40	41418.12
633.55	41722.39
633.70	41371.31
633.85	41233.22
634.00	40821.28
634.15	40957.03
634.30	40947.67
634.45	41207.47
634.60	40767.45
634.75	41312.80
634.90	40938.31
635.05	41265.99
635.19	40863.41
635.34	41486.00
635.49	40767.45
635.64	40769.79
635.79	40863.41
635.94	40896.18
636.09	40987.46
636.24	40629.36
636.39	41067.04
636.53	40856.39
636.68	40252.53
636.83	40381.26
636.98	40985.12
637.13	40081.67
637.28	40830.65
637.43	41057.68
637.57	40978.10
637.72	40598.93
637.87	40549.78
638.02	40376.58
638.17	40722.98
638.32	40402.33
638.46	39889.75
638.61	40594.25
638.76	39852.30
638.91	40346.15
639.06	39901.45
639.20	40540.42
639.35	41010.87
639.50	40135.51
639.65	40549.78
639.80	40549.78
639.94	40217.43
640.09	39629.95
640.24	40187.00
640.39	40098.06
640.54	40076.99
640.68	39683.78
640.83	39927.20
640.98	39878.05
641.13	40086.36
641.27	40102.74
641.42	39697.83
641.57	40074.65
641.72	40114.44
641.86	39714.21
642.01	39805.49
642.16	39990.39
642.31	39536.33
642.45	39548.03
642.60	39218.02
642.75	39323.34
642.90	39295.25
643.04	39290.57
643.19	39339.72
643.34	39906.13
643.48	39674.42
643.63	39405.26
643.78	39154.82
643.93	39131.42
644.07	39220.36
644.22	39510.58
644.37	39166.52
644.51	38934.81
644.66	39180.57
644.81	39501.22
644.95	39819.53
645.10	39658.04
645.25	39505.90
645.39	39187.59
645.54	39096.31
645.69	38960.56
645.83	38948.85
645.98	39203.97
646.13	39491.86
646.27	39445.05
646.42	39335.04
646.57	39178.23
646.71	38623.52
646.86	39140.78
647.00	38864.60
647.15	39707.19
647.30	39196.95
647.44	38888.00
647.59	39189.93
647.74	38918.43
647.88	39044.82
648.03	38794.38
648.17	38878.64
648.32	38677.35
648.47	38892.68
648.61	38431.60
648.76	38646.93
648.90	38838.85
649.05	39030.77
649.20	38419.89
649.34	38440.96
649.49	38464.36
649.63	38609.48
649.78	38501.81
649.92	38375.42
650.07	38560.33
650.21	38553.30
650.36	38653.95
650.51	37984.55
650.65	38871.62
650.80	39030.77
650.94	38934.81
651.09	38242.01
651.23	38618.84
651.38	38438.62
651.52	38213.93
651.67	38309.89
651.81	38370.74
651.96	38234.99
652.10	37713.05
652.25	37902.64
652.39	38356.70
652.54	38337.98
652.68	38396.49
652.83	38319.25
652.97	38129.67
653.12	37930.72
653.26	37764.54
653.41	38185.84
653.55	37816.04
653.70	37661.56
653.84	37708.37
653.99	37670.92
654.13	37776.25
654.27	37745.82
654.42	37813.70
654.56	37958.81
654.71	38064.13
654.85	37186.43
655.00	37984.55
655.14	37247.29
655.29	37605.39
655.43	37457.93
655.57	37338.57
655.72	37254.31
655.86	36980.46
656.01	36940.68
656.15	37118.56
656.30	37202.82
656.44	37490.70
656.58	37144.30
656.73	36966.42
656.87	37109.19
657.01	36629.38
657.16	36898.55
657.30	36919.61
657.45	36715.98
657.59	36877.48
657.73	36989.83
657.88	37034.30
658.02	37038.98
658.16	36914.93
658.31	37357.29
658.45	36865.78
658.60	36943.02
658.74	36723.01
658.88	36711.30
659.03	36332.14
659.17	36156.60
659.31	36584.91
659.46	36329.80
659.60	36465.55
659.74	36624.70
659.89	36336.82
660.03	36226.81
660.17	36594.28
660.32	36526.40
660.46	36659.81
660.60	36746.41
660.74	36264.26
660.89	36500.65
661.03	36048.93
661.17	36378.95
661.32	35641.68
661.46	35328.05
661.60	35707.21
661.74	35618.27
661.89	35817.22
662.03	36123.83
662.17	35875.73
662.31	35592.53
662.46	35913.18
662.60	35599.55
662.74	35367.84
662.88	35690.83
663.03	35353.79
663.17	35772.75
663.31	35138.46
663.45	35723.60
663.60	35026.12
663.74	35323.36
663.88	35232.08
664.02	34660.99
664.17	35302.30
664.31	34609.50
664.45	35264.85
664.59	35044.84
664.73	34881.00
664.88	35065.91
665.02	34469.07
665.16	34501.84
665.30	34911.43
665.44	34864.62
665.59	34338.00
665.73	34384.81
665.87	34663.33
666.01	34307.57
666.15	33851.17
666.29	34286.51
666.44	34677.38
666.58	34452.69
666.72	34117.99
666.86	34469.07
667.00	34412.90
667.14	34239.70
667.28	33986.92
667.43	33914.36
667.57	34197.57
667.71	34026.71
667.85	33905.00
667.99	34099.26
668.13	33603.07
668.27	33179.43
668.41	34066.50
668.56	33163.05
668.70	33930.75
668.84	33598.39
668.98	33521.15
669.12	33319.87
669.26	33024.96
669.40	32996.87
669.54	33280.08
669.68	33315.19
669.82	33039.00
669.96	33095.18
670.10	32795.59
670.25	33095.18
670.39	33153.69
670.53	33010.92
670.67	32708.99
670.81	32767.50
670.95	33160.71
671.09	32613.02
671.23	32718.35
671.37	33017.94
671.51	32243.22
671.65	32063.00
671.79	32065.34
671.93	32397.70
672.07	32180.03
672.21	32210.45
672.35	32252.58
672.49	32037.25
672.63	31964.70
672.77	31931.93
672.91	32112.15
673.05	32177.68
673.19	31447.44
673.33	31910.86
673.47	31644.04
673.61	31501.27
673.75	31101.04
673.89	31049.55
674.03	31395.95
674.17	30925.50
674.31	31419.35
674.45	30857.62
674.59	31534.04
674.73	31208.70
674.87	31171.25
675.01	31012.10
675.15	31105.72
675.29	30607.19
675.43	30639.95
675.56	30441.01
675.70	30548.67
675.84	30483.14
675.98	29413.51
676.12	29926.09
676.26	30221.00
676.40	29834.81
676.54	29982.26
676.68	29780.98
676.82	29237.97
676.96	29816.08
677.10	29462.66
677.23	29930.77
677.37	29638.20
677.51	29553.94
677.65	29151.37
677.79	28903.28
677.93	29095.20
678.07	28884.55
678.21	28975.83
678.34	28533.47
678.48	28945.41
678.62	28851.78
678.76	28322.82
678.90	28835.40
679.04	28479.64
679.18	28453.89
679.31	27857.06
679.45	28018.55
679.59	27917.91
679.73	27653.43
679.87	28002.17
680.00	28034.94
680.14	27552.79
680.28	27388.95
680.42	27587.89
680.56	27566.83
680.70	27550.45
680.83	27033.19
680.97	27335.12
681.11	27056.59
681.25	27154.90
681.39	27080.00
681.52	26934.88
681.66	26735.94
681.80	26682.11
681.94	26871.69
682.07	26934.88
682.21	26647.00
682.35	26485.50
682.49	26284.22
682.62	26199.96
682.76	26281.88
682.90	26216.34
683.04	25879.30
683.17	25989.31
683.31	26068.89
683.45	26497.20
683.59	25598.44
683.72	25291.83
683.86	25156.08
684.00	25308.21
684.13	25586.74
684.27	25172.46
684.41	25163.10
684.55	25476.73
684.68	24898.62
684.82	24917.34
684.96	24697.33
685.09	24821.38
685.23	24718.40
685.37	24297.10
685.50	24638.82
685.64	24741.80
685.78	24350.93
685.91	24332.21
686.05	24025.60
686.19	23681.54
686.32	24093.47
686.46	24109.86
686.60	23412.38
686.73	23510.68
686.87	23709.63
687.01	23410.04
687.14	23445.15
687.28	23098.75
687.42	23363.23
687.55	23005.13
687.69	22817.88
687.82	22855.33
687.96	23108.11
688.10	22537.02
688.23	22747.67
688.37	22572.13
688.50	22349.78
688.64	22391.91
688.78	22134.45
688.91	22354.46
689.05	22174.24
689.18	22192.96
689.32	21905.07
689.46	21942.52
689.59	22485.53
689.73	22104.02
689.86	21788.05
690.00	21502.50
690.13	22115.72
690.27	21465.05
690.41	21656.98
690.54	21200.57
690.68	21022.69
690.81	21113.97
690.95	20905.66
691.08	21036.74
691.22	21116.31
691.35	21128.02
691.49	21151.42
691.62	21025.03
691.76	20739.49
691.89	20720.76
692.03	20416.49
692.16	20168.40
692.30	20482.03
692.43	20416.49
692.57	20144.99
692.70	20287.76
692.84	20123.93
692.97	20290.10
693.11	19906.26
693.24	19695.61
693.38	19564.54
693.51	19590.28
693.65	19613.69
693.78	19566.88
693.92	19510.71
694.05	19454.53
694.19	19538.79
694.32	19166.65
694.45	19452.19
694.59	19208.78
694.72	19115.16
694.86	18867.06
694.99	18946.64
695.13	18551.09
695.26	18530.02
695.39	18590.88
695.53	18525.34
695.66	18441.08
695.80	18541.72
695.93	18375.55
696.07	18415.34
696.20	18108.72
696.33	18082.98
696.47	17809.14
696.60	18225.75
696.73	18029.15
696.87	18003.40
697.00	18120.43
697.14	17858.29
697.27	17458.06
697.40	17584.44
697.54	17427.63
697.67	17626.57
697.80	17181.87
697.94	17081.23
698.07	16999.31
698.21	17106.98
698.34	16929.09
698.47	16999.31
698.61	16498.44
698.74	16802.71
698.87	16517.16
699.01	16334.60
699.14	16500.78
699.27	16369.71
699.40	16524.18
699.54	16189.49
699.67	16126.29
699.80	16325.24
699.94	16123.95
700.07	16222.25
700.20	15815.00
700.34	15672.23
700.47	15777.55
700.60	15765.85
700.73	15704.99
700.87	15688.61
701.00	15566.90
701.13	15623.08
701.26	15353.91
701.40	15353.91
701.53	15330.51
701.66	15484.98
701.79	15374.98
701.93	15002.83
702.06	14918.57
702.19	14789.85
702.32	14923.26
702.46	14780.48
702.59	14698.56
702.72	14693.88
702.85	14885.81
702.99	14822.61
703.12	14626.01
703.25	14565.15
703.38	14370.89
703.51	14237.48
703.65	14321.74
703.78	14176.62
703.91	14398.98
704.04	14214.07
704.17	13991.72
704.31	13958.96
704.44	13591.49
704.57	13832.57
704.70	13532.98
704.83	13650.00
704.96	13518.93
705.10	13757.67
705.23	13734.26
>>>>>End Processed Spectral Data<<<<<
