SpectraSuite Data File
++++++++++++++++++++++++++++++++++++
Date: Fri Oct 25 10:44:23 EDT 2013
User: price-jones
Dark Spectrum Present: No
Reference Spectrum Present: No
Number of Sampled Component Spectra: 1
Spectrometers: USB2+H05261
Integration Time (usec): 100000 (USB2+H05261)
Spectra Averaged: 1 (USB2+H05261)
Boxcar Smoothing: 0 (USB2+H05261)
Correct for Electrical Dark: No (USB2+H05261)
Strobe/Lamp Enabled: No (USB2+H05261)
Correct for Detector Non-linearity: No (USB2+H05261)
Correct for Stray Light: No (USB2+H05261)
Number of Pixels in Processed Spectrum: 2048
>>>>>Begin Processed Spectral Data<<<<<
365.73	110.01
365.92	110.01
366.12	110.01
366.32	14.04
366.52	0.00
366.72	37.45
366.91	0.00
367.11	14.04
367.31	0.00
367.51	74.90
367.70	58.51
367.90	32.77
368.10	0.00
368.30	25.75
368.49	28.09
368.69	65.54
368.89	44.47
369.09	0.00
369.28	77.24
369.48	58.51
369.68	63.19
369.87	152.13
370.07	0.00
370.27	79.58
370.47	217.67
370.66	372.15
370.86	468.11
371.06	465.77
371.25	582.79
371.45	468.11
371.65	461.09
371.84	428.32
372.04	489.17
372.24	500.87
372.44	528.96
372.63	545.34
372.83	482.15
373.03	512.58
373.22	468.11
373.42	589.82
373.62	526.62
373.81	528.96
374.01	645.99
374.21	500.87
374.40	580.45
374.60	528.96
374.79	568.75
374.99	688.12
375.19	629.60
375.38	552.37
375.58	643.65
375.78	582.79
375.97	594.50
376.17	624.92
376.37	599.18
376.56	592.16
376.76	564.07
376.95	638.97
377.15	711.52
377.35	627.26
377.54	699.82
377.74	634.29
377.93	760.67
378.13	770.04
378.33	765.36
378.52	739.61
378.72	697.48
378.91	683.44
379.11	683.44
379.31	725.57
379.50	676.41
379.70	645.99
379.89	727.91
380.09	748.97
380.28	697.48
380.48	669.39
380.68	779.40
380.87	603.86
381.07	648.33
381.26	748.97
381.46	709.18
381.65	706.84
381.85	690.46
382.04	699.82
382.24	699.82
382.43	645.99
382.63	732.59
382.83	683.44
383.02	763.01
383.22	716.20
383.41	763.01
383.61	823.87
383.80	772.38
384.00	812.17
384.19	842.59
384.39	772.38
384.58	793.44
384.78	793.44
384.97	889.40
385.17	866.00
385.36	849.61
385.56	840.25
385.75	772.38
385.95	802.80
386.14	889.40
386.34	891.74
386.53	870.68
386.72	844.93
386.92	868.34
387.11	954.94
387.31	887.06
387.50	915.15
387.70	882.38
387.89	861.32
388.09	992.39
388.28	945.58
388.48	1011.11
388.67	954.94
388.86	987.71
389.06	894.08
389.25	936.21
389.45	1034.52
389.64	954.94
389.84	1046.22
390.03	976.00
390.22	1064.94
390.42	994.73
390.61	983.02
390.81	1048.56
391.00	1039.20
391.19	1064.94
391.39	1078.99
391.58	1121.12
391.78	1039.20
391.97	1053.24
392.16	1111.75
392.36	1053.24
392.55	1114.10
392.75	1064.94
392.94	1041.54
393.13	1015.79
393.33	1069.62
393.52	1036.86
393.71	1191.33
393.91	1158.57
394.10	1130.48
394.29	1203.04
394.49	1186.65
394.68	1289.64
394.88	1282.61
395.07	1259.21
395.26	1256.87
395.46	1287.29
395.65	1263.89
395.84	1240.48
396.04	1249.85
396.23	1263.89
396.42	1165.59
396.62	1238.14
396.81	1207.72
397.00	1245.16
397.19	1315.38
397.39	1401.98
397.58	1441.77
397.77	1444.11
397.97	1434.75
398.16	1444.11
398.35	1511.99
398.55	1460.49
398.74	1570.50
398.93	1671.14
399.12	1458.15
399.32	1469.86
399.51	1516.67
399.70	1591.56
399.90	1610.29
400.09	1643.06
400.28	1584.54
400.47	1678.16
400.67	1589.22
400.86	1696.89
401.05	1781.15
401.24	1834.98
401.44	1715.61
401.63	1820.94
401.82	1720.29
402.01	1722.63
402.21	1687.53
402.40	1797.53
402.59	1799.87
402.78	1851.36
402.97	1813.92
403.17	1907.54
403.36	1870.09
403.55	1865.41
403.74	1879.45
403.93	1919.24
404.13	1956.69
404.32	1952.01
404.51	1902.86
404.70	1982.43
404.89	1973.07
405.09	2127.55
405.28	1982.43
405.47	1954.35
405.66	2106.48
405.85	2038.61
406.05	2052.65
406.24	2113.50
406.43	2076.06
406.62	2237.55
406.81	2155.63
407.00	2113.50
407.20	2094.78
407.39	2153.29
407.58	2239.89
407.77	2237.55
407.96	2157.97
408.15	2214.15
408.34	2237.55
408.54	2319.47
408.73	2406.07
408.92	2382.67
409.11	2382.67
409.30	2380.32
409.49	2438.84
409.68	2417.77
409.87	2335.85
410.07	2319.47
410.26	2349.90
410.45	2462.24
410.64	2523.10
410.83	2595.65
411.02	2527.78
411.21	2803.96
411.40	2649.49
411.59	2736.09
411.78	2703.32
411.98	2597.99
412.17	2768.85
412.36	2731.41
412.55	2719.70
412.74	2778.22
412.93	2810.98
413.12	2923.33
413.31	3101.21
413.50	2925.67
413.69	2944.39
413.88	3005.25
414.07	2956.10
414.26	2958.44
414.45	3171.43
414.64	3117.59
414.83	3199.51
415.02	3136.32
415.22	3138.66
415.41	3293.13
415.60	3220.58
415.79	3236.96
415.98	3426.54
416.17	3461.65
416.36	3473.36
416.55	3424.20
416.74	3382.07
416.93	3283.77
417.12	3585.70
417.31	3522.51
417.50	3438.25
417.69	3569.32
417.88	3499.10
418.07	3435.91
418.26	3550.59
418.45	3574.00
418.64	3747.20
418.83	3733.15
419.02	3712.09
419.21	3672.30
419.39	3695.71
419.58	3529.53
419.77	3611.45
419.96	3768.26
420.15	3786.99
420.34	3772.94
420.53	3887.63
420.72	3946.14
420.91	3974.23
421.10	3878.27
421.29	4023.38
421.48	3906.35
421.67	4124.02
421.86	3962.53
422.05	4011.68
422.24	3925.08
422.43	3927.42
422.61	3918.06
422.80	4100.62
422.99	3927.42
423.18	3950.82
423.37	4058.49
423.56	4161.47
423.75	3985.93
423.94	4100.62
424.13	3791.67
424.32	3927.42
424.50	4032.74
424.69	4234.03
424.88	4173.18
425.07	3978.91
425.26	4058.49
425.45	4016.36
425.64	4177.86
425.83	4124.02
426.01	4271.48
426.20	4196.58
426.39	4339.35
426.58	4152.11
426.77	3950.82
426.96	4156.79
427.15	4283.18
427.33	4182.54
427.52	4212.96
427.71	4177.86
427.90	4285.52
428.09	4397.87
428.28	4241.05
428.46	4304.25
428.65	4360.42
428.84	4348.72
429.03	4444.68
429.22	4297.22
429.40	4205.94
429.59	4229.35
429.78	4032.74
429.97	3988.27
430.16	4142.75
430.34	4168.49
430.53	4344.03
430.72	4297.22
430.91	4285.52
431.10	4528.94
431.28	4692.77
431.47	4727.88
431.66	4863.63
431.85	4606.17
432.03	4760.65
432.22	4777.03
432.41	4730.22
432.60	4924.49
432.79	4727.88
432.97	4819.16
433.16	4809.80
433.35	4744.27
433.54	4826.18
433.72	4718.52
433.91	4786.40
434.10	4774.69
434.28	4732.56
434.47	4887.04
434.66	5226.42
434.85	5153.86
435.03	5029.81
435.22	5146.84
435.41	5238.12
435.59	5303.65
435.78	5224.08
435.97	5348.12
436.16	5207.69
436.34	5188.97
436.53	5275.57
436.72	5514.30
436.90	5387.91
437.09	5294.29
437.28	5198.33
437.46	5462.81
437.65	5425.36
437.84	5416.00
438.02	5280.25
438.21	5399.62
438.40	5263.86
438.58	5446.43
438.77	5610.26
438.96	5738.99
439.14	5661.76
439.33	5659.42
439.52	5846.66
439.70	5881.77
439.89	5783.46
440.08	5832.62
440.26	5905.17
440.45	5919.21
440.63	6186.04
440.82	6181.35
441.01	6155.61
441.19	6157.95
441.38	6389.66
441.57	6384.98
441.75	6431.79
441.94	6401.37
442.12	6485.62
442.31	6532.44
442.50	6569.88
442.68	6333.49
442.87	6509.03
443.05	6525.41
443.24	6771.17
443.43	6686.91
443.61	6656.48
443.80	6895.22
443.98	6534.78
444.17	6452.86
444.35	6785.21
444.54	6878.83
444.73	6766.49
444.91	6551.16
445.10	6621.38
445.28	6689.25
445.47	6551.16
445.65	6619.04
445.84	6672.87
446.02	6693.93
446.21	6719.68
446.39	6707.98
446.58	6731.38
446.77	6918.62
446.95	6832.02
447.14	6897.56
447.32	6794.58
447.51	6843.73
447.69	6956.07
447.88	6951.39
448.06	6869.47
448.25	6937.35
448.43	6846.07
448.62	6892.88
448.80	6867.13
448.99	7023.95
449.17	7021.61
449.36	7131.61
449.54	7162.04
449.73	7220.55
449.91	7346.94
450.10	7407.80
450.28	7583.34
450.46	7382.05
450.65	7445.24
450.83	7468.65
451.02	7349.28
451.20	7321.20
451.39	7508.44
451.57	7372.69
451.76	7396.09
451.94	7524.82
452.13	7283.75
452.31	7442.90
452.49	7143.32
452.68	7555.25
452.86	7466.31
453.05	7501.42
453.23	7499.08
453.42	7447.58
453.60	7545.89
453.78	7583.34
453.97	7541.21
454.15	7686.32
454.34	7452.27
454.52	7929.74
454.70	7829.09
454.89	7808.03
455.07	7714.41
455.26	7857.18
455.44	7964.84
455.62	7847.82
455.81	8025.70
455.99	8028.04
456.17	7988.25
456.36	8088.89
456.54	8285.50
456.73	8093.57
456.91	8500.83
457.09	8425.93
457.28	8379.12
457.46	8379.12
457.64	8250.39
457.83	8404.86
458.01	8318.26
458.19	8456.36
458.38	8358.05
458.56	8624.87
458.74	8411.89
458.93	8631.90
459.11	8470.40
459.29	8627.21
459.48	8547.64
459.66	8709.13
459.84	8725.52
460.03	8858.93
460.21	8606.15
460.39	8915.10
460.57	8772.33
460.76	8559.34
460.94	9118.73
461.12	8943.19
461.31	9048.51
461.49	8940.85
461.67	8973.61
461.85	9268.52
462.04	8982.98
462.22	9352.78
462.40	9090.64
462.59	9226.39
462.77	9210.01
462.95	9284.91
463.13	9029.79
463.32	9284.91
463.50	9355.12
463.68	9252.14
463.86	9277.88
464.05	9146.81
464.23	9167.88
464.41	9345.76
464.59	9210.01
464.78	9610.24
464.96	9586.83
465.14	9430.02
465.32	9525.98
465.50	9362.14
465.69	9551.73
465.87	9591.52
466.05	9589.17
466.23	9345.76
466.41	9411.29
466.60	9764.72
466.78	9617.26
466.96	9525.98
467.14	9577.47
467.32	9715.56
467.51	9776.42
467.69	9343.42
467.87	9668.75
468.05	9895.78
468.23	9710.88
468.41	9722.59
468.60	9902.81
468.78	9708.54
468.96	9741.31
469.14	10200.05
469.32	10118.14
469.50	9781.10
469.69	10090.05
469.87	10057.28
470.05	10047.92
470.23	10087.71
470.41	10040.90
470.59	10122.82
470.77	10197.71
470.95	10384.96
471.14	10396.66
471.32	10359.21
471.50	10441.13
471.68	10686.89
471.86	10710.29
472.04	10600.29
472.22	10991.16
472.40	10539.43
472.58	10691.57
472.77	10670.50
472.95	10808.59
473.13	11164.36
473.31	10740.72
473.49	10860.09
473.67	10843.70
473.85	11208.83
474.03	11279.04
474.21	11405.43
474.39	11213.51
474.57	11239.25
474.75	11400.75
474.93	11522.46
475.12	11487.35
475.30	11412.45
475.48	11580.97
475.66	11644.17
475.84	11674.59
476.02	11796.30
476.20	11653.53
476.38	11866.52
476.56	12280.79
476.74	12231.64
476.92	12182.49
477.10	12243.34
477.28	12336.96
477.46	12421.22
477.64	12587.40
477.82	12772.30
478.00	12919.76
478.18	12809.75
478.36	12996.99
478.54	13114.02
478.72	13111.68
478.90	13280.20
479.08	13394.89
479.26	13647.66
479.44	13593.83
479.62	13472.12
479.80	13750.65
479.98	13717.88
480.16	14083.00
480.34	13860.65
480.52	14221.10
480.70	14160.24
480.88	14080.66
481.06	14314.72
481.24	14450.47
481.41	14633.03
481.59	14815.59
481.77	14839.00
481.95	14850.70
482.13	14834.32
482.31	15030.92
482.49	15382.00
482.67	15337.53
482.85	15424.13
483.03	15672.23
483.21	15765.85
483.39	15599.67
483.57	16060.76
483.74	16025.65
483.92	16065.44
484.10	15873.51
484.28	16308.85
484.46	16793.34
484.64	16872.92
484.82	16343.96
485.00	16634.19
485.18	16915.05
485.35	17078.89
485.53	16730.15
485.71	16507.80
485.89	16702.06
486.07	16858.88
486.25	17282.52
486.43	17451.03
486.61	17607.85
486.78	17818.50
486.96	18054.89
487.14	18202.35
487.32	18160.22
487.50	18649.39
487.68	18221.07
487.85	18569.81
488.03	18939.62
488.21	19103.45
488.39	19028.56
488.57	19117.50
488.75	19475.60
488.92	19613.69
489.10	19922.64
489.28	19887.53
489.46	20215.21
489.64	20486.71
489.81	20435.22
489.99	20886.94
490.17	20688.00
490.35	21053.12
490.53	20879.92
490.70	20842.47
490.88	21025.03
491.06	21060.14
491.24	21287.17
491.41	21401.86
491.59	21535.27
491.77	21399.52
491.95	21731.87
492.13	21699.11
492.30	22045.51
492.48	22483.19
492.66	22370.84
492.84	22602.55
493.01	22513.61
493.19	22820.22
493.37	23138.54
493.54	22895.12
493.72	22920.87
493.90	23297.69
494.08	23744.73
494.25	23758.78
494.43	24056.03
494.61	24121.56
494.79	24247.95
494.96	24189.44
495.14	24189.44
495.32	24395.40
495.49	24554.56
495.67	24362.64
495.85	24629.46
496.02	24577.97
496.20	25013.31
496.38	25167.78
496.55	25266.08
496.73	25916.75
496.91	25308.21
497.09	25912.07
497.26	26183.57
497.44	26012.71
497.62	25755.26
497.79	26270.17
497.97	25979.95
498.14	26106.34
498.32	26146.12
498.50	26539.33
498.67	26679.77
498.85	26733.60
499.03	27054.25
499.20	26651.68
499.38	26958.29
499.56	27005.10
499.73	27391.29
499.91	27414.69
500.08	27112.77
500.26	27461.51
500.44	27285.97
500.61	27290.65
500.79	27206.39
500.97	27480.23
501.14	27606.62
501.32	27730.67
501.49	27667.47
501.67	28002.17
501.84	27955.36
502.02	28116.86
502.20	28486.66
502.37	28498.36
502.55	28613.05
502.72	28891.57
502.90	28411.76
503.07	28575.60
503.25	29130.31
503.43	28760.50
503.60	28760.50
503.78	28669.22
503.95	28816.68
504.13	29230.95
504.30	29373.72
504.48	29523.52
504.65	29584.37
504.83	29427.56
505.01	30209.29
505.18	29816.08
505.36	30169.51
505.53	30199.93
505.71	30171.85
505.88	30429.30
506.06	30473.78
506.23	30450.37
506.41	30223.34
506.58	30497.18
506.76	30478.46
506.93	31084.65
507.11	30572.08
507.28	30796.77
507.46	31075.29
507.63	30696.13
507.81	30998.06
507.98	31000.40
508.16	31370.20
508.33	31044.87
508.50	31555.10
508.68	31770.43
508.85	32051.30
509.03	31777.45
509.20	31866.39
509.38	32278.33
509.55	32563.87
509.73	31955.33
509.90	32077.04
510.08	32077.04
510.25	32521.74
510.42	32636.43
510.60	32542.81
510.77	32741.75
510.95	32830.69
511.12	32577.92
511.30	32687.92
511.47	33308.16
511.64	33188.80
511.82	33481.36
511.99	33132.62
512.17	33432.21
512.34	33130.28
512.51	33738.82
512.69	33429.87
512.86	33390.08
513.04	33919.04
513.21	33858.19
513.38	33729.46
513.56	33502.43
513.73	33331.57
513.90	33729.46
514.08	33991.60
514.25	33900.32
514.43	33869.89
514.60	33909.68
514.77	34092.24
514.95	34153.10
515.12	34600.14
515.29	34354.38
515.47	35005.05
515.64	34733.55
515.81	34211.61
515.99	34827.17
516.16	34665.67
516.33	34174.16
516.51	34429.28
516.68	34115.65
516.85	34401.19
517.03	34455.03
517.20	34431.62
517.37	35091.65
517.54	35477.84
517.72	35306.98
517.89	34927.81
518.06	34607.16
518.24	35042.50
518.41	35211.02
518.58	35459.12
518.75	34960.58
518.93	35718.92
519.10	35819.56
519.27	36161.28
519.45	36081.70
519.62	36114.47
519.79	36151.91
519.96	35880.41
520.14	36215.11
520.31	36128.51
520.48	36739.39
520.65	36271.28
520.83	36992.17
521.00	36797.90
521.17	36687.90
521.34	36851.73
521.52	36704.28
521.69	36959.40
521.86	37305.80
522.03	37006.21
522.20	37076.43
522.38	37013.23
522.55	37439.21
522.72	37329.20
522.89	37102.17
523.07	37546.87
523.24	37413.46
523.41	37713.05
523.58	37947.11
523.75	38380.10
523.92	37890.93
524.10	38267.76
524.27	38057.11
524.44	38347.34
524.61	38244.35
524.78	38305.21
524.96	38270.10
525.13	38398.83
525.30	38260.74
525.47	38855.23
525.64	38951.20
525.81	38675.01
525.98	38616.50
526.16	38511.17
526.33	38089.88
526.50	38447.98
526.67	37816.04
526.84	38089.88
527.01	38452.66
527.18	38623.52
527.36	39351.43
527.53	39452.07
527.70	39313.98
527.87	38679.69
528.04	38946.51
528.21	39309.30
528.38	39168.87
528.55	39697.83
528.72	40060.61
528.89	40016.14
529.07	39746.98
529.24	39344.41
529.41	40154.23
529.58	39641.65
529.75	39702.51
529.92	39772.72
530.09	39700.17
530.26	39732.93
530.43	40105.08
530.60	39976.35
530.77	39934.22
530.94	40109.76
531.11	40399.99
531.28	40561.48
531.46	40208.06
531.63	40439.78
531.80	40217.43
531.97	40509.99
532.14	40189.34
532.31	39859.32
532.48	40264.24
532.65	40449.14
532.82	40430.41
532.99	40605.95
533.16	40645.74
533.33	40825.96
533.50	41151.30
533.67	41027.25
533.84	40809.58
534.01	40875.12
534.18	41518.76
534.35	41509.40
534.52	40954.69
534.69	41273.01
534.86	41675.58
535.03	41493.02
535.20	42319.23
535.37	41968.15
535.54	41593.66
535.71	41567.91
535.88	41441.53
536.05	41340.88
536.22	42314.55
536.38	41359.61
536.55	41448.55
536.72	41696.64
536.89	41324.50
537.06	41408.76
537.23	42096.88
537.40	42277.10
537.57	42089.85
537.74	42061.77
537.91	41698.98
538.08	42131.98
538.25	42115.60
538.42	41858.14
538.59	42124.96
538.75	41900.27
538.92	42176.45
539.09	42562.64
539.26	42302.84
539.43	42478.38
539.60	42553.28
539.77	42211.56
539.94	42614.13
540.11	41867.50
540.28	42038.36
540.44	42373.06
540.61	42232.63
540.78	42445.62
540.95	42251.35
541.12	41848.78
541.29	42827.12
541.46	42663.28
541.62	42724.14
541.79	42733.50
541.96	42401.14
542.13	42749.88
542.30	42719.46
542.47	42941.81
542.63	42934.79
542.80	43171.18
542.97	43005.00
543.14	43718.87
543.31	43573.75
543.48	43257.78
543.64	44322.72
543.81	43936.54
543.98	43751.63
544.15	43400.55
544.32	43889.73
544.48	44006.75
544.65	43540.99
544.82	43742.27
544.99	43573.75
545.16	43601.84
545.32	44105.06
545.49	44390.60
545.66	44381.24
545.83	44205.70
546.00	44533.37
546.16	44334.43
546.33	43580.78
546.50	44133.14
546.67	43959.94
546.83	44128.46
547.00	44065.27
547.17	44135.48
547.34	43896.75
547.50	44170.59
547.67	44601.25
547.84	44025.48
548.00	44186.97
548.17	44163.57
548.34	44332.09
548.51	44896.16
548.67	45125.53
548.84	44868.07
549.01	44722.96
549.18	44680.83
549.34	44243.15
549.51	44863.39
549.68	45034.25
549.84	45118.51
550.01	45052.97
550.18	44762.75
550.34	45193.40
550.51	44533.37
550.68	44659.76
550.84	44626.99
551.01	45160.64
551.18	44739.34
551.34	44945.31
551.51	45331.50
551.68	45221.49
551.84	45336.18
552.01	44872.75
552.18	45172.34
552.34	45083.40
552.51	45045.95
552.68	44924.24
552.84	44961.69
553.01	45848.75
553.18	45315.11
553.34	45106.80
553.51	45401.71
553.67	45298.73
553.84	45652.15
554.01	45595.98
554.17	45813.65
554.34	45603.00
554.51	45565.55
554.67	45806.62
554.84	45736.41
555.00	45350.22
555.17	45677.90
555.33	45797.26
555.50	45724.71
555.67	45659.17
555.83	45542.14
556.00	45588.95
556.16	45982.16
556.33	45577.25
556.50	45656.83
556.66	45558.53
556.83	45483.63
556.99	45731.73
557.16	46021.95
557.32	45933.01
557.49	46330.90
557.65	45722.37
557.82	45834.71
557.98	45963.44
558.15	45996.21
558.32	46366.01
558.48	45879.18
558.65	45918.97
558.81	45844.07
558.98	45776.20
559.14	45713.00
559.31	45698.96
559.47	46138.98
559.64	46064.08
559.80	46108.55
559.97	45968.12
560.13	45879.18
560.30	46007.91
560.46	46330.90
560.63	46164.73
560.79	46209.20
560.96	46429.21
561.12	45949.40
561.29	46522.83
561.45	46307.50
561.61	46146.00
561.78	46602.41
561.94	45837.05
562.11	46253.67
562.27	46415.16
562.44	46220.90
562.60	46665.60
562.77	47084.56
562.93	46579.00
563.10	46391.76
563.26	45478.95
563.42	46415.16
563.59	46031.32
563.75	46494.74
563.92	46410.48
564.08	46263.03
564.24	46508.79
564.41	46532.19
564.57	46380.06
564.74	46864.55
564.90	46511.13
565.07	46492.40
565.23	46574.32
565.39	46473.68
565.56	46508.79
565.72	46415.16
565.88	46768.58
566.05	46607.09
566.21	46164.73
566.38	46342.61
566.54	46588.36
566.70	46478.36
566.87	47147.75
567.03	46808.37
567.19	47004.98
567.36	46913.70
567.52	46810.71
567.68	46728.80
567.85	46763.90
568.01	46871.57
568.17	46457.29
568.34	46838.80
568.50	46483.04
568.66	46663.26
568.83	46883.27
568.99	46270.05
569.15	46319.20
569.32	46525.17
569.48	46656.24
569.64	46803.69
569.81	47009.66
569.97	46550.91
570.13	46555.60
570.30	46398.78
570.46	46649.22
570.62	46476.02
570.78	46457.29
570.95	46569.64
571.11	46469.00
571.27	46356.65
571.43	46700.71
571.60	46679.64
571.76	46665.60
571.92	46478.36
572.09	46848.16
572.25	46794.33
572.41	46834.12
572.57	46618.79
572.74	46899.65
572.90	47316.27
573.06	47028.38
573.22	47035.41
573.38	46953.49
573.55	46670.28
573.71	46820.08
573.87	46986.25
574.03	46653.90
574.20	47077.54
574.36	46555.60
574.52	46887.95
574.68	47037.75
574.84	46658.58
575.01	46408.14
575.17	46946.47
575.33	46974.55
575.49	46520.49
575.65	46410.48
575.82	46782.63
575.98	46916.04
576.14	47391.17
576.30	46679.64
576.46	46506.44
576.62	46581.34
576.79	47016.68
576.95	46354.31
577.11	46955.83
577.27	46873.91
577.43	46747.52
577.59	46387.08
577.75	46749.86
577.92	46499.42
578.08	46288.77
578.24	46855.18
578.40	46845.82
578.56	46831.78
578.72	46815.40
578.88	46932.42
579.04	47150.09
579.21	47004.98
579.37	46784.97
579.53	46777.95
579.69	46892.63
579.85	46906.68
580.01	47210.95
580.17	46784.97
580.33	47199.24
580.49	46773.27
580.65	47133.71
580.82	47274.14
580.98	46885.61
581.14	46866.89
581.30	47224.99
581.46	46953.49
581.62	47037.75
581.78	46997.96
581.94	47288.18
582.10	46883.27
582.26	46894.97
582.42	47267.12
582.58	47131.37
582.74	47210.95
582.90	46705.39
583.06	47058.81
583.22	47131.37
583.38	47297.55
583.54	46953.49
583.70	47131.37
583.86	47196.90
584.02	46810.71
584.18	46742.84
584.34	46539.21
584.50	47035.41
584.66	46801.35
584.82	46714.75
584.98	47054.13
585.14	47253.08
585.30	46925.40
585.46	47180.52
585.62	46529.85
585.78	47014.34
585.94	46583.68
586.10	46794.33
586.26	46857.52
586.42	46951.15
586.58	47423.93
586.74	47253.08
586.90	46466.66
587.06	46906.68
587.22	47065.83
587.38	46948.81
587.54	47030.72
587.70	47449.68
587.86	47278.82
588.02	47058.81
588.18	47154.77
588.34	46663.26
588.49	46387.08
588.65	46871.57
588.81	46396.44
588.97	46639.86
589.13	46443.25
589.29	46267.71
589.45	46845.82
589.61	46962.85
589.77	46925.40
589.93	46660.92
590.08	47166.48
590.24	46965.19
590.40	47302.23
590.56	47157.11
590.72	47042.43
590.88	47164.14
591.04	47168.82
591.20	47412.23
591.35	47325.63
591.51	47466.06
591.67	46972.21
591.83	46878.59
591.99	47105.62
592.15	47058.81
592.31	47103.28
592.46	47234.35
592.62	47203.92
592.78	47180.52
592.94	47217.97
593.10	47292.86
593.26	47063.49
593.41	47122.01
593.57	47264.78
593.73	46883.27
593.89	47107.96
594.05	47292.86
594.20	47229.67
594.36	47044.77
594.52	46894.97
594.68	46787.31
594.84	46916.04
594.99	47482.45
595.15	46880.93
595.31	47147.75
595.47	47004.98
595.62	46948.81
595.78	47264.78
595.94	47220.31
596.10	47297.55
596.25	47531.60
596.41	47316.27
596.57	47175.84
596.73	47276.48
596.88	47105.62
597.04	47016.68
597.20	47129.03
597.36	47173.50
597.51	47313.93
597.67	47721.18
597.83	47386.49
597.99	47201.58
598.14	47498.83
598.30	47267.12
598.46	47012.00
598.61	47154.77
598.77	46401.12
598.93	47222.65
599.09	47119.66
599.24	47526.92
599.40	47878.00
599.56	47587.77
599.71	47239.03
599.87	46967.53
600.03	47124.35
600.18	47107.96
600.34	47012.00
600.50	47114.98
600.65	46981.57
600.81	46857.52
600.97	47461.38
601.12	47445.00
601.28	47103.28
601.44	46850.50
601.59	47140.73
601.75	47093.92
601.91	47243.71
602.06	46990.94
602.22	46806.03
602.37	47040.09
602.53	47075.19
602.69	47606.50
602.84	46930.08
603.00	47407.55
603.16	47140.73
603.31	46976.89
603.47	46962.85
603.62	47388.83
603.78	47129.03
603.94	47114.98
604.09	46930.08
604.25	47054.13
604.40	47304.57
604.56	47414.57
604.71	47545.64
604.87	46892.63
605.03	46759.22
605.18	46773.27
605.34	47049.45
605.49	46293.46
605.65	46885.61
605.80	46995.62
605.96	47463.72
606.12	46843.48
606.27	47386.49
606.43	47037.75
606.58	46756.88
606.74	46672.62
606.89	46937.10
607.05	47042.43
607.20	46586.02
607.36	47040.09
607.51	46909.02
607.67	46412.82
607.82	46986.25
607.98	46927.74
608.13	46583.68
608.29	46529.85
608.44	46384.74
608.60	46497.08
608.75	46597.73
608.91	46941.78
609.06	46302.82
609.22	46894.97
609.37	46569.64
609.53	46721.77
609.68	46866.89
609.84	46279.41
609.99	46408.14
610.15	46267.71
610.30	46436.23
610.46	45876.84
610.61	46511.13
610.76	46466.66
610.92	46569.64
611.07	46808.37
611.23	46583.68
611.38	46494.74
611.54	46436.23
611.69	46106.21
611.84	46244.30
612.00	46326.22
612.15	45993.87
612.31	46174.09
612.46	46164.73
612.62	45961.10
612.77	46099.19
612.92	46490.06
613.08	46452.61
613.23	46113.23
613.39	45972.80
613.54	45677.90
613.69	46178.77
613.85	45797.26
614.00	46239.62
614.15	45907.27
614.31	45940.04
614.46	46113.23
614.62	46167.07
614.77	46122.60
614.92	45804.28
615.08	45911.95
615.23	45675.55
615.38	45801.94
615.54	45366.60
615.69	45748.11
615.84	45312.77
616.00	45591.30
616.15	45771.52
616.30	45682.58
616.46	45820.67
616.61	45677.90
616.76	46036.00
616.92	45359.58
617.07	45181.70
617.22	45439.16
617.37	45240.21
617.53	45865.14
617.68	45717.68
617.83	45762.15
617.99	45572.57
618.14	45523.42
618.29	45287.03
618.45	45062.33
618.60	45165.32
618.75	45188.72
618.90	45170.00
619.06	45296.39
619.21	45038.93
619.36	45518.74
619.51	45167.66
619.67	45036.59
619.82	45200.43
619.97	45310.43
620.12	45193.40
620.28	44823.60
620.43	44875.09
620.58	45319.79
620.73	44856.37
620.89	45099.78
621.04	45223.83
621.19	45132.55
621.34	45085.74
621.49	44882.11
621.65	44772.11
621.80	44795.51
621.95	44898.50
622.10	44275.91
622.25	44385.92
622.41	44502.95
622.56	44217.40
622.71	44781.47
622.86	44325.07
623.01	44884.45
623.16	44542.74
623.32	44437.41
623.47	44547.42
623.62	44680.83
623.77	44416.35
623.92	44554.44
624.07	44371.88
624.23	44254.85
624.38	44245.49
624.53	44149.53
624.68	44252.51
624.83	44336.77
624.98	44179.95
625.13	43632.27
625.29	44306.34
625.44	44313.36
625.59	43885.04
625.74	43379.49
625.89	43590.14
626.04	43522.26
626.19	43990.37
626.34	43632.27
626.49	44093.35
626.65	44175.27
626.80	44306.34
626.95	44114.42
627.10	43597.16
627.25	43508.22
627.40	43491.83
627.55	43042.45
627.70	42920.74
627.85	43316.29
628.00	43182.88
628.15	43531.62
628.30	43030.75
628.45	43955.26
628.60	43583.12
628.76	43578.43
628.91	43503.54
629.06	43384.17
629.21	43105.65
629.36	43438.00
629.51	42979.26
629.66	42934.79
629.81	42759.25
629.96	43077.56
630.11	43267.14
630.26	43320.98
630.41	43136.07
630.56	42892.66
630.71	42637.54
630.86	42799.04
631.01	42342.63
631.16	43068.20
631.31	42679.67
631.46	42829.46
631.61	43030.75
631.76	43075.22
631.91	43107.99
632.06	42845.85
632.21	43395.87
632.36	42838.83
632.51	42328.59
632.66	42689.03
632.81	42244.33
632.96	42129.64
633.10	42726.48
633.25	42501.79
633.40	42359.02
633.55	42241.99
633.70	42646.90
633.85	42658.60
634.00	42115.60
634.15	42443.27
634.30	42452.64
634.45	42265.39
634.60	42518.17
634.75	42525.19
634.90	42314.55
635.05	42197.52
635.19	41670.90
635.34	42131.98
635.49	42017.30
635.64	42220.92
635.79	41792.61
635.94	42291.14
636.09	42466.68
636.24	42195.18
636.39	41741.11
636.53	42251.35
636.68	41574.94
636.83	41588.98
636.98	42092.19
637.13	41715.37
637.28	42014.96
637.43	42019.64
637.57	42532.22
637.72	41876.86
637.87	41509.40
638.02	42293.48
638.17	41949.42
638.32	41675.58
638.46	41560.89
638.61	42148.37
638.76	41317.48
638.91	41614.72
639.06	41743.45
639.20	41132.57
639.35	41708.35
639.50	41546.85
639.65	41265.99
639.80	41673.24
639.94	40928.95
640.09	41518.76
640.24	41155.98
640.39	41258.96
640.54	41333.86
640.68	41343.22
640.83	41354.93
640.98	41020.23
641.13	41088.10
641.27	41273.01
641.42	40893.84
641.57	40985.12
641.72	41219.17
641.86	40727.66
642.01	40755.75
642.16	41261.30
642.31	40638.72
642.45	40832.99
642.60	40570.85
642.75	40931.29
642.90	40985.12
643.04	40760.43
643.19	40514.67
643.34	40575.53
643.48	40432.75
643.63	40470.20
643.78	40285.30
643.93	40364.88
644.07	40151.89
644.22	40816.60
644.37	40411.69
644.51	40491.27
644.66	40662.13
644.81	40320.41
644.95	40524.04
645.10	40697.24
645.25	40573.19
645.39	40210.40
645.54	40975.76
645.69	40334.45
645.83	40126.14
645.98	40465.52
646.13	39901.45
646.27	40074.65
646.42	40479.57
646.57	40144.87
646.71	40060.61
646.86	40055.93
647.00	40187.00
647.15	40208.06
647.30	39908.47
647.44	39707.19
647.59	39779.74
647.74	40053.59
647.88	39772.72
648.03	40006.78
648.17	39503.56
648.32	39906.13
648.47	39583.14
648.61	39676.76
648.76	39992.73
648.90	39864.00
649.05	39739.96
649.20	39559.73
649.34	39746.98
649.49	39356.11
649.63	39276.53
649.78	39475.48
649.92	39751.66
650.07	39646.33
650.21	39042.48
650.36	39583.14
650.51	39388.88
650.65	39838.26
650.80	40210.40
650.94	39611.23
651.09	39594.84
651.23	39704.85
651.38	39463.77
651.52	39419.30
651.67	39250.78
651.81	39136.10
651.96	39007.37
652.10	39164.18
652.25	39185.25
652.39	39215.68
652.54	39573.78
652.68	39028.43
652.83	39409.94
652.97	39250.78
653.12	38934.81
653.26	39180.57
653.41	38707.78
653.55	38836.51
653.70	38843.53
653.84	39042.48
653.99	38768.63
654.13	38597.77
654.27	38354.36
654.42	38300.53
654.56	38368.40
654.71	38972.26
654.85	38543.94
655.00	38541.60
655.14	38485.43
655.29	38387.13
655.43	38546.28
655.57	37890.93
655.72	37750.50
655.86	37909.66
656.01	37488.36
656.15	37511.77
656.30	38082.86
656.44	38082.86
656.58	37464.96
656.73	37727.10
656.87	38298.19
657.01	38185.84
657.16	37570.28
657.30	37734.12
657.45	37766.88
657.59	38230.31
657.73	37635.81
657.88	38146.05
658.02	37745.82
658.16	38405.85
658.31	38321.59
658.45	38122.65
658.60	37727.10
658.74	38115.62
658.88	37900.29
659.03	37474.32
659.17	37113.87
659.31	37361.97
659.46	37221.54
659.60	37376.01
659.74	37780.93
659.89	37345.59
660.03	37139.62
660.17	37338.57
660.32	37345.59
660.46	37357.29
660.60	37469.64
660.74	36891.52
660.89	37062.38
661.03	37212.18
661.17	37038.98
661.32	36687.90
661.46	37228.56
661.60	36741.73
661.74	37380.70
661.89	36797.90
662.03	36886.84
662.17	36486.61
662.31	36402.35
662.46	36840.03
662.60	36790.88
662.74	36865.78
662.88	36165.96
663.03	36245.54
663.17	36222.13
663.31	36196.38
663.45	35978.72
663.60	36168.30
663.74	36079.36
663.88	36037.23
664.02	36273.62
664.17	35931.90
664.31	36070.00
664.45	35847.64
664.59	35901.48
664.73	35849.99
664.88	36098.08
665.02	35501.25
665.16	35653.38
665.30	35466.14
665.44	35379.54
665.59	35714.23
665.73	35454.44
665.87	35077.61
666.01	35709.55
666.15	35009.73
666.29	35424.01
666.44	35487.20
666.58	35508.27
666.72	35424.01
666.86	35278.89
667.00	35285.92
667.14	35037.82
667.28	34820.15
667.43	34677.38
667.57	34983.99
667.71	34768.66
667.85	34951.22
667.99	34558.01
668.13	34450.35
668.27	34501.84
668.41	34670.36
668.56	34288.85
668.70	34522.90
668.84	34433.96
668.98	34342.68
669.12	33912.02
669.26	33914.36
669.40	33743.50
669.54	33909.68
669.68	34015.01
669.82	33659.24
669.96	33600.73
670.10	33317.53
670.25	34043.09
670.39	33713.08
670.53	33563.28
670.67	33434.55
670.81	33935.43
670.95	33823.08
671.09	33462.64
671.23	33362.00
671.37	33266.03
671.51	32987.51
671.65	33095.18
671.79	32762.82
671.93	32739.41
672.07	33003.89
672.21	32641.11
672.35	32797.93
672.49	32973.47
672.63	32610.68
672.77	32496.00
672.91	32926.66
673.05	32687.92
673.19	32629.41
673.33	32268.97
673.47	32287.69
673.61	31992.78
673.75	31721.28
673.89	31758.73
674.03	31658.09
674.17	32297.05
674.31	32336.84
674.45	31997.46
674.59	31679.15
674.73	32238.54
674.87	31906.18
675.01	31569.15
675.15	31838.31
675.29	31721.28
675.43	31285.94
675.56	31112.74
675.70	31419.35
675.84	31199.34
675.98	30345.05
676.12	31108.06
676.26	31009.76
676.40	31084.65
676.54	31049.55
676.68	30991.03
676.82	30298.23
676.96	30590.80
677.10	30581.44
677.23	30553.35
677.37	30202.27
677.51	29694.38
677.65	30012.69
677.79	29755.23
677.93	29692.04
678.07	29537.56
678.21	29280.10
678.34	29317.55
678.48	29041.37
678.62	28931.36
678.76	29041.37
678.90	28624.75
679.04	28809.65
679.18	28987.53
679.31	28580.28
679.45	28556.88
679.59	28343.89
679.73	28290.06
679.87	28500.70
680.00	28355.59
680.14	28409.42
680.28	28191.75
680.42	28224.52
680.56	28318.14
680.70	28545.17
680.83	27875.78
680.97	27880.46
681.11	27758.75
681.25	27632.36
681.39	27733.01
681.52	27711.94
681.66	27765.78
681.80	27517.68
681.94	27651.09
682.07	27084.68
682.21	27374.91
682.35	27157.24
682.49	27023.83
682.62	27175.96
682.76	27115.11
682.90	26759.34
683.04	26803.82
683.17	26480.82
683.31	26305.28
683.45	26457.42
683.59	26188.25
683.72	26089.95
683.86	25989.31
684.00	25692.06
684.13	26167.19
684.27	25949.52
684.41	25212.25
684.55	25661.63
684.68	25575.03
684.82	25458.01
684.96	25909.73
685.09	25446.30
685.23	24922.02
685.37	25553.97
685.50	25149.06
685.64	24594.35
685.78	24622.44
685.91	24479.66
686.05	24458.60
686.19	24751.17
686.32	24374.34
686.46	24189.44
686.60	23859.42
686.73	23400.68
686.87	23623.03
687.01	23536.43
687.14	23318.76
687.28	23323.44
687.42	23367.91
687.55	23433.44
687.69	23463.87
687.82	23269.61
687.96	23192.37
688.10	23087.04
688.23	23084.70
688.37	23051.94
688.50	22656.39
688.64	22429.35
688.78	22902.14
688.91	22904.48
689.05	22803.84
689.18	22583.83
689.32	22204.66
689.46	22427.01
689.59	22567.45
689.73	22469.14
689.86	22464.46
690.00	21888.69
690.13	22265.52
690.27	22012.74
690.41	21923.80
690.54	21664.00
690.68	21348.03
690.81	21624.21
690.95	21600.80
691.08	21294.19
691.22	21425.26
691.35	21460.37
691.49	21619.53
691.62	21057.80
691.76	20943.11
691.89	20781.62
692.03	21223.98
692.16	20755.87
692.30	20624.80
692.43	20688.00
692.57	20105.20
692.70	20758.21
692.84	20329.89
692.97	20325.21
693.11	20114.56
693.24	19985.83
693.38	20329.89
693.51	19770.51
693.65	19948.39
693.78	19936.68
693.92	20065.41
694.05	19805.61
694.19	19693.27
694.32	19576.24
694.45	19323.46
694.59	19185.37
694.72	19400.70
694.86	19110.47
694.99	18944.30
695.13	18775.78
695.26	19152.60
695.39	19033.24
695.53	18757.05
695.66	19028.56
695.80	19000.47
695.93	18808.54
696.07	18483.21
696.20	18548.75
696.33	18747.69
696.47	18384.91
696.60	18134.47
696.73	18286.61
696.87	17980.00
697.00	18010.42
697.14	18200.01
697.27	17937.87
697.40	17673.39
697.54	17937.87
697.67	17680.41
697.80	17771.69
697.94	17460.40
698.07	17652.32
698.21	17322.30
698.34	17355.07
698.47	16943.14
698.61	16828.45
698.74	16657.59
698.87	16903.35
699.01	16783.98
699.14	16758.24
699.27	16421.20
699.40	16702.06
699.54	16414.18
699.67	16262.04
699.80	16526.52
699.94	16519.50
700.07	16079.48
700.20	16545.25
700.34	16173.10
700.47	16226.93
700.60	16545.25
700.73	16084.16
700.87	15850.11
701.00	15915.64
701.13	16009.26
701.26	15648.82
701.40	15686.27
701.53	15452.22
701.66	15625.42
701.79	15477.96
701.93	15398.38
702.06	15321.15
702.19	15229.87
702.32	15360.94
702.46	15112.84
702.59	14925.60
702.72	15009.86
702.85	14981.77
702.99	15161.99
703.12	14995.81
703.25	14623.67
703.38	14420.04
703.51	14422.38
703.65	14672.82
703.78	14415.36
703.91	14621.33
704.04	14377.91
704.17	14551.11
704.31	14197.69
704.44	14288.97
704.57	14310.04
704.70	14087.68
704.83	14113.43
704.96	13881.72
705.10	13884.06
705.23	13944.91
>>>>>End Processed Spectral Data<<<<<
