SpectraSuite Data File
++++++++++++++++++++++++++++++++++++
Date: Fri Oct 25 10:44:10 EDT 2013
User: price-jones
Dark Spectrum Present: No
Reference Spectrum Present: No
Number of Sampled Component Spectra: 1
Spectrometers: USB2+H05261
Integration Time (usec): 100000 (USB2+H05261)
Spectra Averaged: 1 (USB2+H05261)
Boxcar Smoothing: 0 (USB2+H05261)
Correct for Electrical Dark: No (USB2+H05261)
Strobe/Lamp Enabled: No (USB2+H05261)
Correct for Detector Non-linearity: No (USB2+H05261)
Correct for Stray Light: No (USB2+H05261)
Number of Pixels in Processed Spectrum: 2048
>>>>>Begin Processed Spectral Data<<<<<
365.73	112.35
365.92	112.35
366.12	112.35
366.32	65.54
366.52	9.36
366.72	37.45
366.91	32.77
367.11	9.36
367.31	0.00
367.51	16.38
367.70	28.09
367.90	28.09
368.10	0.00
368.30	81.92
368.49	11.70
368.69	72.56
368.89	72.56
369.09	0.00
369.28	42.13
369.48	32.77
369.68	110.01
369.87	147.45
370.07	25.75
370.27	102.98
370.47	168.52
370.66	365.12
370.86	425.98
371.06	465.77
371.25	468.11
371.45	435.34
371.65	442.36
371.84	409.59
372.04	451.72
372.24	507.90
372.44	458.74
372.63	465.77
372.83	550.03
373.03	538.32
373.22	526.62
373.42	482.15
373.62	531.30
373.81	484.49
374.01	521.94
374.21	540.66
374.40	540.66
374.60	533.64
374.79	482.15
374.99	596.84
375.19	596.84
375.38	638.97
375.58	575.77
375.78	596.84
375.97	685.78
376.17	622.58
376.37	575.77
376.56	561.73
376.76	578.11
376.95	638.97
377.15	730.25
377.35	779.40
377.54	589.82
377.74	645.99
377.93	620.24
378.13	582.79
378.33	676.41
378.52	587.47
378.72	617.90
378.91	543.00
379.11	695.14
379.31	669.39
379.50	533.64
379.70	674.07
379.89	671.73
380.09	704.50
380.28	678.76
380.48	737.27
380.68	638.97
380.87	681.10
381.07	727.91
381.26	685.78
381.46	723.23
381.65	676.41
381.85	669.39
382.04	669.39
382.24	648.33
382.43	723.23
382.63	713.86
382.83	725.57
383.02	753.65
383.22	814.51
383.41	718.54
383.61	814.51
383.80	800.46
384.00	786.42
384.19	674.07
384.39	805.14
384.58	873.02
384.78	866.00
384.97	798.12
385.17	847.27
385.36	861.32
385.56	814.51
385.75	880.04
385.95	840.25
386.14	863.66
386.34	854.30
386.53	711.52
386.72	847.27
386.92	837.91
387.11	861.32
387.31	908.13
387.50	903.45
387.70	777.06
387.89	866.00
388.09	912.81
388.28	891.74
388.48	901.11
388.67	926.85
388.86	936.21
389.06	1020.47
389.25	931.53
389.45	973.66
389.64	940.90
389.84	992.39
390.03	1006.43
390.22	947.92
390.42	1111.75
390.61	1022.81
390.81	1015.79
391.00	994.73
391.19	1177.29
391.39	990.05
391.58	1013.45
391.78	1013.45
391.97	1097.71
392.16	1067.28
392.36	1111.75
392.55	1004.09
392.75	1125.80
392.94	1004.09
393.13	1027.50
393.33	945.58
393.52	1004.09
393.71	1053.24
393.91	1071.97
394.10	1153.88
394.29	1165.59
394.49	1240.48
394.68	1151.54
394.88	1135.16
395.07	1177.29
395.26	1221.76
395.46	1235.80
395.65	1242.82
395.84	1242.82
396.04	1203.04
396.23	1256.87
396.42	1203.04
396.62	1217.08
396.81	1205.38
397.00	1249.85
397.19	1334.11
397.39	1231.12
397.58	1275.59
397.77	1329.42
397.97	1409.00
398.16	1392.62
398.35	1427.73
398.55	1423.05
398.74	1455.81
398.93	1526.03
399.12	1495.60
399.32	1486.24
399.51	1547.09
399.70	1575.18
399.90	1451.13
400.09	1540.07
400.28	1572.84
400.47	1558.80
400.67	1734.34
400.86	1708.59
401.05	1685.19
401.24	1666.46
401.44	1790.51
401.63	1526.03
401.82	1680.50
402.01	1654.76
402.21	1757.74
402.40	1753.06
402.59	1762.42
402.78	1717.95
402.97	1706.25
403.17	1762.42
403.36	1827.96
403.55	1842.00
403.74	1750.72
403.93	1858.39
404.13	1858.39
404.32	1881.79
404.51	1865.41
404.70	1858.39
404.89	1823.28
405.09	2045.63
405.28	1912.22
405.47	1909.88
405.66	1909.88
405.85	1996.48
406.05	1858.39
406.24	2054.99
406.43	1975.41
406.62	2054.99
406.81	2120.53
407.00	2036.27
407.20	1984.77
407.39	1975.41
407.58	2289.04
407.77	2115.84
407.96	2071.37
408.15	2172.02
408.34	2031.58
408.54	2179.04
408.73	2141.59
408.92	2284.36
409.11	2366.28
409.30	2431.82
409.49	2282.02
409.68	2256.28
409.87	2284.36
410.07	2396.71
410.26	2239.89
410.45	2478.63
410.64	2469.27
410.83	2403.73
411.02	2429.48
411.21	2644.81
411.40	2553.52
411.59	2583.95
411.78	2656.51
411.98	2686.94
412.17	2708.00
412.36	2588.63
412.55	2682.25
412.74	2696.30
412.93	2682.25
413.12	2715.02
413.31	2761.83
413.50	2958.44
413.69	2761.83
413.88	2892.90
414.07	2953.76
414.26	2843.75
414.45	2951.42
414.64	2843.75
414.83	3014.61
415.02	3012.27
415.22	2988.86
415.41	3112.91
415.60	3080.14
415.79	3133.98
415.98	3300.16
416.17	3227.60
416.36	3227.60
416.55	3117.59
416.74	3328.24
416.93	3183.13
417.12	3309.52
417.31	3337.60
417.50	3398.46
417.69	3485.06
417.88	3400.80
418.07	3309.52
418.26	3456.97
418.45	3492.08
418.64	3550.59
418.83	3405.48
419.02	3564.64
419.21	3644.21
419.39	3618.47
419.58	3489.74
419.77	3536.55
419.96	3613.79
420.15	3609.11
420.34	3775.28
420.53	3698.05
420.72	3714.43
420.91	3684.00
421.10	3775.28
421.29	3850.18
421.48	3770.60
421.67	3712.09
421.86	3763.58
422.05	3782.31
422.24	3782.31
422.43	3730.81
422.61	3763.58
422.80	3662.94
422.99	3868.91
423.18	3927.42
423.37	3995.29
423.56	3953.16
423.75	3913.38
423.94	3822.09
424.13	3761.24
424.32	3805.71
424.50	3833.80
424.69	4042.11
424.88	4044.45
425.07	3709.75
425.26	3946.14
425.45	3878.27
425.64	3922.74
425.83	3878.27
426.01	3985.93
426.20	3948.48
426.39	3922.74
426.58	3950.82
426.77	3950.82
426.96	3974.23
427.15	3985.93
427.33	3995.29
427.52	4065.51
427.71	4126.36
427.90	4133.39
428.09	4128.70
428.28	4105.30
428.46	4042.11
428.65	4053.81
428.84	4327.65
429.03	4264.46
429.22	4079.55
429.40	4138.07
429.59	4278.50
429.78	3985.93
429.97	3833.80
430.16	3929.76
430.34	4091.26
430.53	4105.30
430.72	4142.75
430.91	4271.48
431.10	4234.03
431.28	4486.81
431.47	4517.23
431.66	4636.60
431.85	4540.64
432.03	4762.99
432.22	4669.37
432.41	4470.42
432.60	4645.96
432.79	4645.96
432.97	4676.39
433.16	4660.01
433.35	4519.57
433.54	4627.24
433.72	4580.43
433.91	4777.03
434.10	4765.33
434.28	4774.69
434.47	4802.78
434.66	4856.61
434.85	4870.65
435.03	4999.38
435.22	4788.74
435.41	5041.51
435.59	4966.62
435.78	5043.85
435.97	5139.82
436.16	4940.87
436.34	5078.96
436.53	4985.34
436.72	5085.98
436.90	4966.62
437.09	5245.14
437.28	5041.51
437.46	5153.86
437.65	5186.63
437.84	5261.52
438.02	5144.50
438.21	5284.93
438.40	5163.22
438.58	5331.74
438.77	5472.17
438.96	5303.65
439.14	5453.45
439.33	5724.95
439.52	5502.60
439.70	5598.56
439.89	5638.35
440.08	5570.48
440.26	5767.08
440.45	5603.24
440.63	5600.90
440.82	5900.49
441.01	5879.43
441.19	6017.52
441.38	6141.57
441.57	5989.43
441.75	6200.08
441.94	6277.32
442.12	6179.01
442.31	6272.64
442.50	6200.08
442.68	6286.68
442.87	6310.08
443.05	6279.66
443.24	6473.92
443.43	6445.84
443.61	6436.47
443.80	6672.87
443.98	6509.03
444.17	6296.04
444.35	6427.11
444.54	6520.73
444.73	6544.14
444.91	6462.22
445.10	6370.94
445.28	6429.45
445.47	6361.58
445.65	6267.95
445.84	6581.59
446.02	6654.14
446.21	6616.69
446.39	6553.50
446.58	6743.08
446.77	6626.06
446.95	6644.78
447.14	6553.50
447.32	6616.69
447.51	6609.67
447.69	6483.28
447.88	6644.78
448.06	6462.22
448.25	6775.85
448.43	6745.42
448.62	6647.12
448.80	6761.81
448.99	6764.15
449.17	6895.22
449.36	6822.66
449.54	6899.90
449.73	7002.88
449.91	7232.26
450.10	7056.72
450.28	7162.04
450.46	7183.10
450.65	7234.60
450.83	7302.47
451.02	7108.21
451.20	7194.81
451.39	7183.10
451.57	7234.60
451.76	7126.93
451.94	7201.83
452.13	7159.70
452.31	7173.74
452.49	7148.00
452.68	6953.73
452.86	7061.40
453.05	7260.34
453.23	7463.97
453.42	7370.35
453.60	7274.38
453.78	7405.46
453.97	7414.82
454.15	7421.84
454.34	7410.14
454.52	7459.29
454.70	7478.01
454.89	7503.76
455.07	7508.44
455.26	7623.12
455.44	7712.07
455.62	7478.01
455.81	7482.69
455.99	7906.33
456.17	7779.94
456.36	7618.44
456.54	7840.79
456.73	7801.01
456.91	8156.77
457.09	7976.55
457.28	8114.64
457.46	8100.59
457.64	8351.03
457.83	7960.16
458.01	7911.01
458.19	8161.45
458.38	8065.49
458.56	8009.31
458.74	8156.77
458.93	8198.90
459.11	8276.13
459.29	8252.73
459.48	8273.79
459.66	8327.63
459.84	8446.99
460.03	8344.01
460.21	8423.59
460.39	8538.27
460.57	8304.22
460.76	8439.97
460.94	8531.25
461.12	8552.32
461.31	8594.45
461.49	8676.37
461.67	8547.64
461.85	8709.13
462.04	8702.11
462.22	8741.90
462.40	8870.63
462.59	8671.68
462.77	8816.80
462.95	8945.53
463.13	8720.84
463.32	8884.67
463.50	9020.42
463.68	9004.04
463.86	9050.85
464.05	8896.38
464.23	8760.63
464.41	9011.06
464.59	8924.46
464.78	9064.89
464.96	9121.07
465.14	9121.07
465.32	9296.61
465.50	9249.80
465.69	9301.29
465.87	9287.25
466.05	9022.77
466.23	9181.92
466.41	9039.15
466.60	9226.39
466.78	8966.59
466.96	9064.89
467.14	9121.07
467.32	9547.05
467.51	9376.19
467.69	9191.28
467.87	9327.03
468.05	9659.39
468.23	9444.06
468.41	9565.77
468.60	9359.80
468.78	9483.85
468.96	9523.64
469.14	9802.16
469.32	9907.49
469.50	9614.92
469.69	9832.59
469.87	9741.31
470.05	9785.78
470.23	9643.01
470.41	9837.27
470.59	9888.76
470.77	10003.45
470.95	9982.38
471.14	10024.51
471.32	9823.23
471.50	10281.97
471.68	10092.39
471.86	10209.42
472.04	10361.55
472.22	10431.77
472.40	10209.42
472.58	10157.92
472.77	10310.06
472.95	10387.30
473.13	10799.23
473.31	10455.17
473.49	10532.41
473.67	10525.39
473.85	10532.41
474.03	10750.08
474.21	10850.72
474.39	11276.70
474.57	11131.59
474.75	11084.78
474.93	11276.70
475.12	11094.14
475.30	11117.54
475.48	11166.70
475.66	11204.14
475.84	11262.66
476.02	11735.45
476.20	11377.34
476.38	11679.27
476.56	11695.66
476.74	11576.29
476.92	11786.94
477.10	11597.35
477.28	12109.93
477.46	12210.57
477.64	12161.42
477.82	12334.62
478.00	12578.04
478.18	12360.37
478.36	12222.28
478.54	12533.57
478.72	12571.02
478.90	12746.56
479.08	13048.49
479.26	13181.90
479.44	13135.09
479.62	12901.03
479.80	13198.28
479.98	13268.50
480.16	13474.46
480.34	13685.11
480.52	13745.97
480.70	13645.32
480.88	13757.67
481.06	13790.44
481.24	13689.79
481.41	14230.46
481.59	14122.79
481.77	14352.16
481.95	14221.10
482.13	14527.71
482.31	14366.21
482.49	14768.78
482.67	14780.48
482.85	14963.04
483.03	15211.14
483.21	15176.03
483.39	15447.54
483.57	15293.06
483.74	15386.68
483.92	15438.17
484.10	15358.60
484.28	15803.30
484.46	16032.67
484.64	16273.74
484.82	15761.17
485.00	15866.49
485.18	16350.98
485.35	16568.65
485.53	16020.97
485.71	16018.63
485.89	16379.07
486.07	16514.82
486.25	16652.91
486.43	16758.24
486.61	16996.97
486.78	17331.67
486.96	17078.89
487.14	17598.49
487.32	17694.45
487.50	17647.64
487.68	17767.01
487.85	18157.88
488.03	18286.61
488.21	18448.10
488.39	18782.80
488.57	18427.04
488.75	18768.76
488.92	18930.25
489.10	19267.29
489.28	19246.23
489.46	19321.12
489.64	19393.68
489.81	20063.07
489.99	19896.89
490.17	19971.79
490.35	20489.05
490.53	20175.42
490.70	20435.22
490.88	20374.36
491.06	20575.65
491.24	20746.51
491.41	20692.68
491.59	20655.23
491.77	20753.53
491.95	20755.87
492.13	21223.98
492.30	21153.76
492.48	21668.68
492.66	21776.34
492.84	21834.86
493.01	22197.64
493.19	21834.86
493.37	21834.86
493.54	22333.39
493.72	22618.94
493.90	22628.30
494.08	22604.89
494.25	22991.08
494.43	23075.34
494.61	23463.87
494.79	23367.91
494.96	23580.90
495.14	23810.27
495.32	23683.88
495.49	23784.52
495.67	23749.42
495.85	24166.03
496.02	23995.17
496.20	24479.66
496.38	24219.86
496.55	24294.76
496.73	24936.07
496.91	24816.70
497.09	24856.49
497.26	25043.73
497.44	24683.29
497.62	25193.53
497.79	25118.63
497.97	25041.39
498.14	25123.31
498.32	25275.45
498.50	25879.30
498.67	26125.06
498.85	26080.59
499.03	26047.82
499.20	26228.04
499.38	26017.40
499.56	26391.88
499.73	26466.78
499.91	26649.34
500.08	26700.83
500.26	26225.70
500.44	26555.72
500.61	26558.06
500.79	26574.44
500.97	26778.07
501.14	26656.36
501.32	26658.70
501.49	27040.21
501.67	26944.25
501.84	27339.80
502.02	27211.07
502.20	27978.76
502.37	27721.30
502.55	27637.05
502.72	28011.53
502.90	28100.47
503.07	27707.26
503.25	28219.84
503.43	27653.43
503.60	27779.82
503.78	28245.58
503.95	28423.47
504.13	28336.87
504.30	28421.13
504.48	28699.65
504.65	28996.90
504.83	28694.97
505.01	29275.42
505.18	29036.69
505.36	29457.98
505.53	29301.17
505.71	29743.53
505.88	29542.24
506.06	29692.04
506.23	29532.88
506.41	29862.90
506.58	29823.11
506.76	29860.55
506.93	29862.90
507.11	30005.67
507.28	29930.77
507.46	29937.79
507.63	29766.93
507.81	30005.67
507.98	30167.16
508.16	30487.82
508.33	30319.30
508.50	30511.22
508.68	31140.83
508.85	31384.24
509.03	31089.34
509.20	30899.75
509.38	30930.18
509.55	31028.48
509.73	31353.82
509.90	31222.75
510.08	31449.78
510.25	31454.46
510.42	31288.28
510.60	31440.42
510.77	31630.00
510.95	31859.37
511.12	31857.03
511.30	31826.60
511.47	32346.20
511.64	31995.12
511.82	32430.46
511.99	32407.06
512.17	32584.94
512.34	32203.43
512.51	32678.56
512.69	32587.28
512.86	32704.31
513.04	32847.08
513.21	32542.81
513.38	32678.56
513.56	32545.15
513.73	32308.76
513.90	32561.53
514.08	32664.52
514.25	32835.38
514.43	32989.85
514.60	33132.62
514.77	33289.44
514.95	33205.18
515.12	33060.07
515.29	33422.85
515.47	34026.71
515.64	33680.31
515.81	33722.44
515.99	33844.15
516.16	33574.98
516.33	33640.52
516.51	33043.68
516.68	33048.36
516.85	33280.08
517.03	33736.48
517.20	33841.81
517.37	34192.89
517.54	34235.02
517.72	34075.86
517.89	34022.03
518.06	33823.08
518.24	34267.78
518.41	33968.19
518.58	34665.67
518.75	34220.97
518.93	34822.49
519.10	34064.16
519.27	35225.06
519.45	34735.89
519.62	35016.75
519.79	34726.53
519.96	35278.89
520.14	35431.03
520.31	34965.26
520.48	35248.47
520.65	35372.52
520.83	35747.00
521.00	35845.30
521.17	35693.17
521.34	35651.04
521.52	36243.20
521.69	36332.14
521.86	36023.19
522.03	36432.78
522.20	36128.51
522.38	36451.50
522.55	36346.18
522.72	36673.85
522.89	36655.13
523.07	36723.01
523.24	36357.88
523.41	36842.37
523.58	36376.61
523.75	37383.04
523.92	36921.95
524.10	37287.07
524.27	36999.19
524.44	37249.63
524.61	37205.16
524.78	37160.69
524.96	37261.33
525.13	37289.42
525.30	37504.74
525.47	37666.24
525.64	37724.75
525.81	37626.45
525.98	37551.56
526.16	37151.32
526.33	37085.79
526.50	37621.77
526.67	37326.86
526.84	37029.62
527.01	37144.30
527.18	37649.86
527.36	38061.79
527.53	38246.69
527.70	38403.51
527.87	38288.82
528.04	38066.47
528.21	38436.28
528.38	38700.76
528.55	38682.03
528.72	39047.16
528.89	38529.90
529.07	38602.46
529.24	38604.80
529.41	38880.98
529.58	38607.14
529.75	38700.76
529.92	39250.78
530.09	39042.48
530.26	38869.28
530.43	39365.47
530.60	39023.75
530.77	39316.32
530.94	39152.48
531.11	39505.90
531.28	39409.94
531.46	39749.32
531.63	39388.88
531.80	39428.66
531.97	39171.21
532.14	39325.68
532.31	39108.01
532.48	39431.01
532.65	39332.70
532.82	39442.71
532.99	40009.12
533.16	39697.83
533.33	40062.95
533.50	40044.23
533.67	39913.16
533.84	39777.40
534.01	40163.59
534.18	39856.98
534.35	40549.78
534.52	39871.03
534.69	40320.41
534.86	40294.66
535.03	40570.85
535.20	41024.91
535.37	40933.63
535.54	40978.10
535.71	40669.15
535.88	40645.74
536.05	40685.53
536.22	40683.19
536.38	40673.83
536.55	40683.19
536.72	40783.83
536.89	40353.18
537.06	40711.28
537.23	40818.94
537.40	40900.86
537.57	40968.74
537.74	41172.36
537.91	41640.47
538.08	41235.56
538.25	40849.37
538.42	41207.47
538.59	41441.53
538.75	41085.76
538.92	41022.57
539.09	41542.17
539.26	41083.42
539.43	41338.54
539.60	41251.94
539.77	41160.66
539.94	41064.70
540.11	41551.53
540.28	41347.90
540.44	41769.20
540.61	41249.60
540.78	40804.90
540.95	41614.72
541.12	40940.65
541.29	41879.21
541.46	41689.62
541.62	41911.97
541.79	41577.28
541.96	41593.66
542.13	41961.12
542.30	41743.45
542.47	42061.77
542.63	42057.09
542.80	42073.47
542.97	42429.23
543.14	42384.76
543.31	42424.55
543.48	42768.61
543.64	42787.33
543.81	42880.95
543.98	42904.36
544.15	42808.40
544.32	42770.95
544.48	43227.35
544.65	42546.26
544.82	42824.78
544.99	42801.38
545.16	42876.27
545.32	43002.66
545.49	43065.86
545.66	43440.34
545.83	43227.35
546.00	43438.00
546.16	42937.13
546.33	43126.71
546.50	43072.88
546.67	42850.53
546.83	43267.14
547.00	43171.18
547.17	42869.25
547.34	43475.45
547.50	43494.18
547.67	43342.04
547.84	43360.76
548.00	43555.03
548.17	43761.00
548.34	44154.21
548.51	43964.62
548.67	43566.73
548.84	43529.28
549.01	43473.11
549.18	44055.90
549.34	43421.62
549.51	44385.92
549.68	43667.37
549.84	43800.79
550.01	44268.89
550.18	44229.10
550.34	43772.70
550.51	44179.95
550.68	43693.12
550.84	43384.17
551.01	44212.72
551.18	44189.31
551.34	44451.45
551.51	44645.72
551.68	44435.07
551.84	44395.28
552.01	44006.75
552.18	44191.65
552.34	43718.87
552.51	44472.52
552.68	44027.82
552.84	44313.36
553.01	44526.35
553.18	44755.72
553.34	44339.11
553.51	44329.75
553.67	44713.59
553.84	44870.41
554.01	44554.44
554.17	44619.97
554.34	44465.50
554.51	44917.22
554.67	44587.21
554.84	44463.16
555.00	44044.20
555.17	44446.77
555.33	44863.39
555.50	44596.57
555.67	44650.40
555.83	44460.82
556.00	44605.93
556.16	45366.60
556.33	44708.91
556.50	44776.79
556.66	45422.78
556.83	44594.23
556.99	45350.22
557.16	45076.38
557.32	45345.54
557.49	44882.11
557.65	44622.31
557.82	45235.53
557.98	45191.06
558.15	45113.83
558.32	45104.46
558.48	45006.16
558.65	45095.10
558.81	44779.13
558.98	44919.56
559.14	44966.37
559.31	45010.84
559.47	45296.39
559.64	45867.48
559.80	45226.17
559.97	45188.72
560.13	44959.35
560.30	45177.02
560.46	45081.06
560.63	45420.44
560.79	45214.47
560.96	45460.23
561.12	45282.34
561.29	44638.70
561.45	45551.51
561.61	45425.12
561.78	45490.65
561.94	45303.41
562.11	45406.39
562.27	45460.23
562.44	45507.04
562.60	45897.91
562.77	45935.35
562.93	45422.78
563.10	45928.33
563.26	45167.66
563.42	45261.28
563.59	45432.14
563.75	45605.34
563.92	45937.69
564.08	45963.44
564.24	45577.25
564.41	45717.68
564.57	45928.33
564.74	45713.00
564.90	45766.84
565.07	45780.88
565.23	46059.40
565.39	45698.96
565.56	45432.14
565.72	45375.97
565.88	45783.22
566.05	45635.77
566.21	45783.22
566.38	45301.07
566.54	45958.76
566.70	46038.34
566.87	45886.20
567.03	46052.38
567.19	46024.29
567.36	46017.27
567.52	45834.71
567.68	46052.38
567.85	45242.56
568.01	46040.68
568.17	45382.99
568.34	46160.05
568.50	45514.06
568.66	45682.58
568.83	45764.49
568.99	45577.25
569.15	45806.62
569.32	45717.68
569.48	45694.28
569.64	46192.81
569.81	45769.18
569.97	45708.32
570.13	45830.03
570.30	45614.70
570.46	45713.00
570.62	45827.69
570.78	45621.72
570.95	45593.64
571.11	46286.43
571.27	45478.95
571.43	45813.65
571.60	46087.49
571.76	45654.49
571.92	45825.35
572.09	45705.98
572.25	46054.72
572.41	46120.26
572.57	45984.51
572.74	46218.56
572.90	46005.57
573.06	46134.30
573.22	45986.85
573.38	45717.68
573.55	45794.92
573.71	46576.66
573.87	46131.96
574.03	45975.14
574.20	46036.00
574.36	46120.26
574.52	45874.50
574.68	45965.78
574.84	46178.77
575.01	45986.85
575.17	46199.83
575.33	45577.25
575.49	46080.47
575.65	46354.31
575.82	45954.08
575.98	46054.72
576.14	46436.23
576.30	46284.09
576.46	46014.93
576.62	45979.82
576.79	45998.55
576.95	45755.13
577.11	45869.82
577.27	46183.45
577.43	46113.23
577.59	45595.98
577.75	46134.30
577.92	46106.21
578.08	45745.77
578.24	45799.60
578.40	46103.87
578.56	45982.16
578.72	45890.88
578.88	46085.15
579.04	46094.51
579.21	46370.69
579.37	45935.35
579.53	46117.92
579.69	46115.58
579.85	46054.72
580.01	46403.46
580.17	46138.98
580.33	46115.58
580.49	46436.23
580.65	46281.75
580.82	46115.58
580.98	46043.02
581.14	45872.16
581.30	46471.34
581.46	45921.31
581.62	46178.77
581.78	46300.48
581.94	46366.01
582.10	45848.75
582.26	46256.01
582.42	45883.86
582.58	46248.99
582.74	46256.01
582.90	46560.28
583.06	46422.19
583.22	46480.70
583.38	46740.50
583.54	46548.57
583.70	46614.11
583.86	46286.43
584.02	45979.82
584.18	46153.02
584.34	46146.00
584.50	46183.45
584.66	46452.61
584.82	45883.86
584.98	46342.61
585.14	46607.09
585.30	46328.56
585.46	46054.72
585.62	46017.27
585.78	45942.38
585.94	45949.40
586.10	46120.26
586.26	46522.83
586.42	46508.79
586.58	46185.79
586.74	46351.97
586.90	46536.87
587.06	45986.85
587.22	46389.42
587.38	46106.21
587.54	46167.07
587.70	46237.28
587.86	46377.72
588.02	46160.05
588.18	46593.04
588.34	46124.94
588.49	45993.87
588.65	45600.66
588.81	45940.04
588.97	45853.44
589.13	45696.62
589.29	45830.03
589.45	46021.95
589.61	46335.59
589.77	46092.17
589.93	46440.91
590.08	46319.20
590.24	46667.94
590.40	46314.52
590.56	46808.37
590.72	46347.29
590.88	45977.48
591.04	46115.58
591.20	46955.83
591.35	46777.95
591.51	46581.34
591.67	46656.24
591.83	46557.94
591.99	46382.40
592.15	47044.77
592.31	45956.42
592.46	46160.05
592.62	46122.60
592.78	46454.95
592.94	46499.42
593.10	46412.82
593.26	46066.42
593.41	46405.80
593.57	46363.67
593.73	46066.42
593.89	46307.50
594.05	46274.73
594.20	46457.29
594.36	46344.95
594.52	46279.41
594.68	45947.06
594.84	46412.82
594.99	46625.81
595.15	46028.98
595.31	46639.86
595.47	46710.07
595.62	46459.63
595.78	46227.92
595.94	46363.67
596.10	46642.20
596.25	46794.33
596.41	46600.07
596.57	46759.22
596.73	47262.44
596.88	45940.04
597.04	46143.66
597.20	46478.36
597.36	46263.03
597.51	46873.91
597.67	46351.97
597.83	46277.07
597.99	46644.54
598.14	46789.65
598.30	46326.22
598.46	46679.64
598.61	46450.27
598.77	46272.39
598.93	46445.59
599.09	45879.18
599.24	46649.22
599.40	46366.01
599.56	46639.86
599.71	46281.75
599.87	46904.34
600.03	46476.02
600.18	46047.70
600.34	46447.93
600.50	46515.81
600.65	46501.76
600.81	46160.05
600.97	46082.81
601.12	46719.43
601.28	46431.55
601.44	46536.87
601.59	46087.49
601.75	46288.77
601.91	46490.06
602.06	46256.01
602.22	46256.01
602.37	46726.46
602.53	46408.14
602.69	47028.38
602.84	45937.69
603.00	46274.73
603.16	46368.35
603.31	46265.37
603.47	46466.66
603.62	46422.19
603.78	46831.78
603.94	46234.94
604.09	46902.00
604.25	46281.75
604.40	46195.15
604.56	46604.75
604.71	46960.51
604.87	46305.16
605.03	46206.86
605.18	46253.67
605.34	46263.03
605.49	46213.88
605.65	46129.62
605.80	46265.37
605.96	46506.44
606.12	46714.75
606.27	46506.44
606.43	45977.48
606.58	46265.37
606.74	46234.94
606.89	45989.19
607.05	45911.95
607.20	46302.82
607.36	46227.92
607.51	46478.36
607.67	46323.88
607.82	46424.53
607.98	46277.07
608.13	45808.96
608.29	46085.15
608.44	45876.84
608.60	45797.26
608.75	45897.91
608.91	46424.53
609.06	46024.29
609.22	46263.03
609.37	45450.86
609.53	46176.43
609.68	45710.66
609.84	45895.56
609.99	45427.46
610.15	45970.46
610.30	45713.00
610.46	45750.45
610.61	45481.29
610.76	45837.05
610.92	45783.22
611.07	46206.86
611.23	45567.89
611.38	45876.84
611.54	45708.32
611.69	45235.53
611.84	45462.57
612.00	45261.28
612.15	45488.31
612.31	45591.30
612.46	45415.76
612.62	45745.77
612.77	45488.31
612.92	46043.02
613.08	45495.33
613.23	45195.74
613.39	45415.76
613.54	44935.95
613.69	45801.94
613.85	45614.70
614.00	45420.44
614.15	45635.77
614.31	45752.79
614.46	45790.24
614.62	45516.40
614.77	45343.20
614.92	45308.09
615.08	44800.19
615.23	45333.84
615.38	45312.77
615.54	44800.19
615.69	45450.86
615.84	44704.23
616.00	44903.18
616.15	45043.61
616.30	44893.82
616.46	44879.77
616.61	44659.76
616.76	44992.12
616.92	44552.10
617.07	44584.86
617.22	44619.97
617.37	44657.42
617.53	45167.66
617.68	45048.29
617.83	44828.28
617.99	44816.58
618.14	44924.24
618.29	44863.39
618.45	44385.92
618.60	44285.28
618.75	44275.91
618.90	44369.54
619.06	44699.55
619.21	44737.00
619.36	44804.88
619.51	44762.75
619.67	44388.26
619.82	44418.69
619.97	44580.18
620.12	44456.14
620.28	44004.41
620.43	44542.74
620.58	44098.03
620.73	44196.34
620.89	44470.18
621.04	44271.23
621.19	44100.37
621.34	44465.50
621.49	44348.47
621.65	44062.93
621.80	44245.49
621.95	43665.03
622.10	44390.60
622.25	44002.07
622.41	43875.68
622.56	43838.23
622.71	44362.51
622.86	43962.28
623.01	44177.61
623.16	43807.81
623.32	43756.32
623.47	43676.74
623.62	43519.92
623.77	43803.13
623.92	44062.93
624.07	43498.86
624.23	43751.63
624.38	43753.97
624.53	43555.03
624.68	43388.85
624.83	43477.79
624.98	43112.67
625.13	43201.61
625.29	43498.86
625.44	43096.28
625.59	43391.19
625.74	43100.97
625.89	42880.95
626.04	43196.93
626.19	43096.28
626.34	43445.02
626.49	43110.33
626.65	43203.95
626.80	43180.54
626.95	43171.18
627.10	43161.82
627.25	42773.29
627.40	42216.24
627.55	42637.54
627.70	42185.82
627.85	42546.26
628.00	42777.97
628.15	42988.62
628.30	42462.00
628.45	42487.74
628.60	43023.73
628.76	43243.74
628.91	43014.37
629.06	42567.32
629.21	42623.50
629.36	42579.03
629.51	42693.71
629.66	42696.05
629.81	42548.60
629.96	42756.91
630.11	42239.65
630.26	42281.78
630.41	42838.83
630.56	42155.39
630.71	42457.32
630.86	42403.49
631.01	42253.69
631.16	42089.85
631.31	42146.03
631.46	41825.37
631.61	42031.34
631.76	41825.37
631.91	42073.47
632.06	42312.20
632.21	42045.38
632.36	42569.66
632.51	42087.51
632.66	42223.26
632.81	41930.70
632.96	42014.96
633.10	42085.17
633.25	41605.36
633.40	42314.55
633.55	42075.81
633.70	41933.04
633.85	41729.41
634.00	41897.93
634.15	41776.22
634.30	41691.96
634.45	42127.30
634.60	41918.99
634.75	41500.04
634.90	41759.84
635.05	41436.84
635.19	41766.86
635.34	41727.07
635.49	41633.45
635.64	41336.20
635.79	40905.54
635.94	41462.59
636.09	41448.55
636.24	41202.79
636.39	41507.06
636.53	41467.27
636.68	41333.86
636.83	41195.77
636.98	41677.92
637.13	41488.34
637.28	41390.03
637.43	41429.82
637.57	41390.03
637.72	41825.37
637.87	40898.52
638.02	41373.65
638.17	41284.71
638.32	41153.64
638.46	40964.06
638.61	40964.06
638.76	40800.22
638.91	41090.44
639.06	41500.04
639.20	40753.41
639.35	41092.79
639.50	41041.29
639.65	41415.78
639.80	41167.68
639.94	41099.81
640.09	40680.85
640.24	40711.28
640.39	40835.33
640.54	40404.67
640.68	40437.44
640.83	40458.50
640.98	40390.62
641.13	40458.50
641.27	41329.18
641.42	40353.18
641.57	40430.41
641.72	40341.47
641.86	39929.54
642.01	40395.31
642.16	39931.88
642.31	40046.57
642.45	40297.00
642.60	39892.09
642.75	40273.60
642.90	40086.36
643.04	40208.06
643.19	40102.74
643.34	40086.36
643.48	39651.02
643.63	39854.64
643.78	39672.08
643.93	39962.31
644.07	40044.23
644.22	40100.40
644.37	39477.82
644.51	40067.63
644.66	39892.09
644.81	39817.19
644.95	40350.84
645.10	39758.68
645.25	39718.89
645.39	39849.96
645.54	39613.57
645.69	39536.33
645.83	40065.29
645.98	39908.47
646.13	39615.91
646.27	39845.28
646.42	39817.19
646.57	39885.07
646.71	39316.32
646.86	39489.52
647.00	39440.37
647.15	39810.17
647.30	39484.84
647.44	38941.83
647.59	39409.94
647.74	38766.29
647.88	39110.35
648.03	39709.53
648.17	39498.88
648.32	39007.37
648.47	39105.67
648.61	39215.68
648.76	39409.94
648.90	39356.11
649.05	39660.38
649.20	38885.66
649.34	38890.34
649.49	38714.80
649.63	38909.07
649.78	39147.80
649.92	39042.48
650.07	39260.15
650.21	39145.46
650.36	38972.26
650.51	39227.38
650.65	39285.89
650.80	39239.08
650.94	39138.44
651.09	38946.51
651.23	38639.90
651.38	38913.75
651.52	38768.63
651.67	38426.92
651.81	38574.37
651.96	38368.40
652.10	38424.57
652.25	38607.14
652.39	38349.68
652.54	38543.94
652.68	38389.47
652.83	38745.23
652.97	38766.29
653.12	38452.66
653.26	37940.08
653.41	37937.74
653.55	38019.66
653.70	38515.86
653.84	38174.14
653.99	37942.42
654.13	38312.23
654.27	38504.15
654.42	38171.80
654.56	38050.09
654.71	38136.69
654.85	38281.80
655.00	38445.64
655.14	37865.19
655.29	37785.61
655.43	38120.31
655.57	37525.81
655.72	37179.41
655.86	37233.24
656.01	37308.14
656.15	37453.25
656.30	37490.70
656.44	37507.08
656.58	37329.20
656.73	37565.60
656.87	37916.68
657.01	37345.59
657.16	37612.41
657.30	37331.54
657.45	37060.04
657.59	37254.31
657.73	37820.72
657.88	37654.54
658.02	37514.11
658.16	37605.39
658.31	37656.88
658.45	37371.33
658.60	37298.78
658.74	37359.63
658.88	36971.10
659.03	36966.42
659.17	37099.83
659.31	36933.65
659.46	36627.04
659.60	37179.41
659.74	36924.29
659.89	36814.29
660.03	37209.84
660.17	36947.70
660.32	36629.38
660.46	36919.61
660.60	36512.36
660.74	36872.80
660.89	36603.64
661.03	36074.68
661.17	36545.12
661.32	36055.95
661.46	36973.44
661.60	36130.85
661.74	36243.20
661.89	35910.84
662.03	36130.85
662.17	36053.61
662.31	36402.35
662.46	36304.05
662.60	36210.43
662.74	36105.10
662.88	35718.92
663.03	35756.36
663.17	35756.36
663.31	35564.44
663.45	35997.44
663.60	35716.58
663.74	35789.13
663.88	35323.36
664.02	34981.65
664.17	35283.58
664.31	35648.70
664.45	35196.98
664.59	35538.69
664.73	35491.88
664.88	35473.16
665.02	34747.59
665.16	35400.60
665.30	35016.75
665.44	35131.44
665.59	35054.20
665.73	34696.10
665.87	34696.10
666.01	34962.92
666.15	34824.83
666.29	34866.96
666.44	34536.94
666.58	34890.37
666.72	34677.38
666.86	34565.03
667.00	34478.43
667.14	34309.91
667.28	34239.70
667.43	34258.42
667.57	34499.50
667.71	34305.23
667.85	34335.66
667.99	33886.28
668.13	34272.46
668.27	33862.87
668.41	34398.85
668.56	33532.86
668.70	34216.29
668.84	34305.23
668.98	33287.10
669.12	33741.16
669.26	33668.61
669.40	33144.33
669.54	33371.36
669.68	33579.67
669.82	33144.33
669.96	33022.62
670.10	33280.08
670.25	33331.57
670.39	33111.56
670.53	32940.70
670.67	33013.26
670.81	33350.29
670.95	33186.46
671.09	32608.34
671.23	32627.07
671.37	32587.28
671.51	32329.82
671.65	32486.64
671.79	32503.02
671.93	32355.57
672.07	32823.67
672.21	32648.13
672.35	32453.87
672.49	32479.61
672.63	32519.40
672.77	32315.78
672.91	32119.17
673.05	32460.89
673.19	31819.58
673.33	31639.36
673.47	31740.00
673.61	31438.08
673.75	31702.56
673.89	31576.17
674.03	31402.97
674.17	31531.70
674.31	31505.95
674.45	31438.08
674.59	31061.25
674.73	31644.04
674.87	31136.15
675.01	30984.01
675.15	31225.09
675.29	30976.99
675.43	31309.35
675.56	31014.44
675.70	30686.76
675.84	30492.50
675.98	29640.54
676.12	30300.58
676.26	30789.75
676.40	30539.31
676.54	30288.87
676.68	30501.86
676.82	29687.36
676.96	30188.23
677.10	30272.49
677.23	30033.75
677.37	29603.10
677.51	29827.79
677.65	29556.28
677.79	29446.28
677.93	29516.50
678.07	29156.05
678.21	28870.51
678.34	28821.36
678.48	28936.04
678.62	28968.81
678.76	28563.90
678.90	28257.29
679.04	28503.04
679.18	28620.07
679.31	28173.03
679.45	28336.87
679.59	28173.03
679.73	28170.69
679.87	28203.46
680.00	28041.96
680.14	27985.79
680.28	27566.83
680.42	27679.18
680.56	28060.68
680.70	27864.08
680.83	28018.55
680.97	27840.67
681.11	27461.51
681.25	27105.74
681.39	27168.94
681.52	27283.62
681.66	26939.57
681.80	26822.54
681.94	27154.90
682.07	26946.59
682.21	26801.47
682.35	26536.99
682.49	26792.11
682.62	26422.31
682.76	26359.11
682.90	26075.91
683.04	25926.11
683.17	25900.37
683.31	26118.04
683.45	26068.89
683.59	25701.42
683.72	25652.27
683.86	26010.37
684.00	25633.55
684.13	25783.34
684.27	25553.97
684.41	25170.12
684.55	25027.35
684.68	25132.67
684.82	25333.96
684.96	24989.90
685.09	25032.03
685.23	25184.16
685.37	24863.51
685.50	24687.97
685.64	24910.32
685.78	24697.33
685.91	24128.58
686.05	24479.66
686.19	24336.89
686.32	24098.16
686.46	23761.12
686.60	23641.75
686.73	23594.94
686.87	23473.23
687.01	22801.50
687.14	23073.00
687.28	23410.04
687.42	23250.88
687.55	23264.92
687.69	23300.03
687.82	23014.49
687.96	22955.97
688.10	22878.74
688.23	22946.61
688.37	22377.86
688.50	22672.77
688.64	22438.72
688.78	22438.72
688.91	22459.78
689.05	22363.82
689.18	22108.70
689.32	21762.30
689.46	22108.70
689.59	22326.37
689.73	21996.35
689.86	22092.32
690.00	21741.24
690.13	21900.39
690.27	21832.52
690.41	21759.96
690.54	21446.33
690.68	21144.40
690.81	21551.65
690.95	21528.25
691.08	20985.24
691.22	21282.49
691.35	21422.92
691.49	21198.23
691.62	20961.84
691.76	21186.53
691.89	20732.47
692.03	20950.14
692.16	20627.14
692.30	20255.00
692.43	20575.65
692.57	20128.61
692.70	20313.51
692.84	20428.20
692.97	20013.92
693.11	20074.77
693.24	19922.64
693.38	19688.59
693.51	19571.56
693.65	19770.51
693.78	20123.93
693.92	19592.62
694.05	19662.84
694.19	19679.22
694.32	19363.25
694.45	19503.68
694.59	18904.51
694.72	18965.36
694.86	19033.24
694.99	18862.38
695.13	18986.43
695.26	18663.43
695.39	18719.60
695.53	18672.79
695.66	18525.34
695.80	18635.35
695.93	18408.31
696.07	18113.41
696.20	18546.40
696.33	18258.52
696.47	18246.82
696.60	18026.81
696.73	17907.44
696.87	17933.18
697.00	17951.91
697.14	17806.80
697.27	17366.78
697.40	17598.49
697.54	17563.38
697.67	17315.28
697.80	17097.61
697.94	17434.65
698.07	17163.15
698.21	16943.14
698.34	17057.82
698.47	16791.00
698.61	16814.41
698.74	16587.38
698.87	16645.89
699.01	16594.40
699.14	16250.34
699.27	16273.74
699.40	16224.59
699.54	16402.47
699.67	16311.19
699.80	15999.90
699.94	16336.94
700.07	16248.00
700.20	15756.49
700.34	15981.18
700.47	16121.61
700.60	16159.06
700.73	16240.98
700.87	15864.15
701.00	15910.96
701.13	15751.81
701.26	15683.93
701.40	15365.62
701.53	15412.43
701.66	15246.25
701.79	15424.13
701.93	15161.99
702.06	15220.50
702.19	15007.52
702.32	14953.68
702.46	14988.79
702.59	15035.60
702.72	14967.73
702.85	14731.33
702.99	14836.66
703.12	14743.03
703.25	14635.37
703.38	14441.11
703.51	14073.64
703.65	14317.06
703.78	14394.29
703.91	14286.63
704.04	14139.18
704.17	13916.83
704.31	14195.35
704.44	13853.63
704.57	13940.23
704.70	13970.66
704.83	13874.70
704.96	13909.80
705.10	13750.65
705.23	13682.77
>>>>>End Processed Spectral Data<<<<<
