SpectraSuite Data File
++++++++++++++++++++++++++++++++++++
Date: Fri Oct 25 11:33:37 EDT 2013
User: price-jones
Dark Spectrum Present: No
Reference Spectrum Present: No
Number of Sampled Component Spectra: 1
Spectrometers: USB2+H05261
Integration Time (usec): 100000 (USB2+H05261)
Spectra Averaged: 1 (USB2+H05261)
Boxcar Smoothing: 0 (USB2+H05261)
Correct for Electrical Dark: No (USB2+H05261)
Strobe/Lamp Enabled: No (USB2+H05261)
Correct for Detector Non-linearity: No (USB2+H05261)
Correct for Stray Light: No (USB2+H05261)
Number of Pixels in Processed Spectrum: 2048
>>>>>Begin Processed Spectral Data<<<<<
365.73	301.93
365.92	301.93
366.12	301.93
366.32	149.79
366.52	203.63
366.72	208.31
366.91	173.20
367.11	173.20
367.31	163.84
367.51	161.50
367.70	152.13
367.90	198.95
368.10	147.45
368.30	241.08
368.49	224.69
368.69	147.45
368.89	161.50
369.09	177.88
369.28	177.88
369.48	208.31
369.68	156.82
369.87	229.37
370.07	276.18
370.27	278.52
370.47	355.76
370.66	454.06
370.86	540.66
371.06	596.84
371.25	575.77
371.45	503.22
371.65	545.34
371.84	543.00
372.04	580.45
372.24	575.77
372.44	519.60
372.63	566.41
372.83	589.82
373.03	685.78
373.22	638.97
373.42	603.86
373.62	608.54
373.81	585.13
374.01	657.69
374.21	685.78
374.40	599.18
374.60	674.07
374.79	706.84
374.99	688.12
375.19	662.37
375.38	622.58
375.58	720.88
375.78	723.23
375.97	603.86
376.17	706.84
376.37	699.82
376.56	662.37
376.76	702.16
376.95	711.52
377.15	720.88
377.35	594.50
377.54	727.91
377.74	702.16
377.93	737.27
378.13	755.99
378.33	739.61
378.52	720.88
378.72	704.50
378.91	732.59
379.11	695.14
379.31	683.44
379.50	704.50
379.70	809.83
379.89	720.88
380.09	844.93
380.28	685.78
380.48	727.91
380.68	737.27
380.87	699.82
381.07	739.61
381.26	805.14
381.46	720.88
381.65	812.17
381.85	744.29
382.04	805.14
382.24	753.65
382.43	784.08
382.63	798.12
382.83	784.08
383.02	791.10
383.22	889.40
383.41	767.70
383.61	751.31
383.80	875.36
384.00	821.53
384.19	795.78
384.39	849.61
384.58	753.65
384.78	809.83
384.97	840.25
385.17	779.40
385.36	784.08
385.56	931.53
385.75	828.55
385.95	884.72
386.14	856.64
386.34	821.53
386.53	786.42
386.72	821.53
386.92	858.98
387.11	856.64
387.31	919.83
387.50	889.40
387.70	898.77
387.89	847.27
388.09	851.96
388.28	849.61
388.48	917.49
388.67	891.74
388.86	919.83
389.06	933.87
389.25	901.11
389.45	992.39
389.64	987.71
389.84	980.68
390.03	1004.09
390.22	959.62
390.42	898.77
390.61	950.26
390.81	945.58
391.00	964.30
391.19	1039.20
391.39	1025.15
391.58	1027.50
391.78	968.98
391.97	1034.52
392.16	1039.20
392.36	1006.43
392.55	1041.54
392.75	1174.95
392.94	1004.09
393.13	1116.44
393.33	1090.69
393.52	1041.54
393.71	1118.78
393.91	1067.28
394.10	1121.12
394.29	1121.12
394.49	1046.22
394.68	1128.14
394.88	1111.75
395.07	1139.84
395.26	1146.86
395.46	1151.54
395.65	1130.48
395.84	1172.61
396.04	1226.44
396.23	1128.14
396.42	1261.55
396.62	1299.00
396.81	1217.08
397.00	1196.01
397.19	1299.00
397.39	1259.21
397.58	1308.36
397.77	1174.95
397.97	1167.93
398.16	1256.87
398.35	1287.29
398.55	1401.98
398.74	1289.64
398.93	1320.06
399.12	1245.16
399.32	1280.27
399.51	1284.95
399.70	1294.32
399.90	1359.85
400.09	1430.07
400.28	1338.79
400.47	1380.92
400.67	1462.83
400.86	1357.51
401.05	1371.55
401.24	1448.79
401.44	1486.24
401.63	1432.41
401.82	1401.98
402.01	1486.24
402.21	1467.52
402.40	1507.30
402.59	1523.69
402.78	1511.99
402.97	1465.18
403.17	1497.94
403.36	1465.18
403.55	1584.54
403.74	1535.39
403.93	1565.82
404.13	1657.10
404.32	1680.50
404.51	1626.67
404.70	1715.61
404.89	1636.03
405.09	1741.36
405.28	1668.80
405.47	1694.55
405.66	1664.12
405.85	1636.03
406.05	1692.21
406.24	1762.42
406.43	1846.68
406.62	1774.13
406.81	1877.11
407.00	1834.98
407.20	1741.36
407.39	1809.23
407.58	1755.40
407.77	1867.75
407.96	1923.92
408.15	1956.69
408.34	1879.45
408.54	1842.00
408.73	1933.28
408.92	1842.00
409.11	2012.86
409.30	1982.43
409.49	2005.84
409.68	2031.58
409.87	2040.95
410.07	2040.95
410.26	2054.99
410.45	2129.89
410.64	2010.52
410.83	2157.97
411.02	2174.36
411.21	2289.04
411.40	2104.14
411.59	2193.08
411.78	2143.93
411.98	2188.40
412.17	2120.53
412.36	2265.64
412.55	2361.60
412.74	2270.32
412.93	2270.32
413.12	2176.70
413.31	2495.01
413.50	2457.56
413.69	2452.88
413.88	2513.74
414.07	2525.44
414.26	2623.74
414.45	2572.25
414.64	2586.29
414.83	2621.40
415.02	2698.64
415.22	2635.44
415.41	2677.57
415.60	2684.59
415.79	2686.94
415.98	2722.04
416.17	2820.35
416.36	2862.48
416.55	2761.83
416.74	2766.51
416.93	2647.15
417.12	2920.99
417.31	2878.86
417.50	2869.50
417.69	3054.40
417.88	2993.55
418.07	3007.59
418.26	2918.65
418.45	2920.99
418.64	3075.46
418.83	3157.38
419.02	3019.29
419.21	3087.17
419.39	3101.21
419.58	3164.40
419.77	3077.80
419.96	3122.27
420.15	3262.71
420.34	3101.21
420.53	3260.37
420.72	3176.11
420.91	3297.81
421.10	3288.45
421.29	3372.71
421.48	3293.13
421.67	3288.45
421.86	3339.94
422.05	3344.63
422.24	3445.27
422.43	3332.92
422.61	3300.16
422.80	3361.01
422.99	3407.82
423.18	3412.50
423.37	3688.68
423.56	3318.88
423.75	3344.63
423.94	3265.05
424.13	3080.14
424.32	3337.60
424.50	3492.08
424.69	3583.36
424.88	3564.64
425.07	3447.61
425.26	3393.78
425.45	3363.35
425.64	3300.16
425.83	3543.57
426.01	3506.12
426.20	3480.38
426.39	3468.67
426.58	3531.87
426.77	3496.76
426.96	3559.95
427.15	3442.93
427.33	3492.08
427.52	3510.80
427.71	3569.32
427.90	3609.11
428.09	3604.42
428.28	3674.64
428.46	3667.62
428.65	3719.11
428.84	3803.37
429.03	3826.78
429.22	3857.20
429.40	3733.15
429.59	3686.34
429.78	3662.94
429.97	3543.57
430.16	3824.44
430.34	3918.06
430.53	4067.85
430.72	3955.51
430.91	3894.65
431.10	3765.92
431.28	3967.21
431.47	4063.17
431.66	4016.36
431.85	3997.64
432.03	3990.61
432.22	4182.54
432.41	4056.15
432.60	4091.26
432.79	4154.45
432.97	4191.90
433.16	4227.01
433.35	4152.11
433.54	4114.66
433.72	4201.26
433.91	4255.09
434.10	4182.54
434.28	4074.87
434.47	4205.94
434.66	4184.88
434.85	4486.81
435.03	4386.16
435.22	4311.27
435.41	4496.17
435.59	4463.40
435.78	4318.29
435.97	4449.36
436.16	4301.90
436.34	4425.95
436.53	4435.32
436.72	4486.81
436.90	4304.25
437.09	4566.39
437.28	4512.55
437.46	4517.23
437.65	4671.71
437.84	4542.98
438.02	4657.67
438.21	4786.40
438.40	4645.96
438.58	4854.27
438.77	4795.76
438.96	4772.35
439.14	4917.47
439.33	4971.30
439.52	4908.10
439.70	4823.84
439.89	4985.34
440.08	5203.01
440.26	5198.33
440.45	4975.98
440.63	5158.54
440.82	5172.58
441.01	5179.61
441.19	5214.71
441.38	5172.58
441.57	5289.61
441.75	5385.57
441.94	5530.69
442.12	5526.00
442.31	5455.79
442.50	5416.00
442.68	5411.32
442.87	5451.11
443.05	5467.49
443.24	5535.37
443.43	5413.66
443.61	5516.64
443.80	5661.76
443.98	5600.90
444.17	5362.17
444.35	5631.33
444.54	5605.58
444.73	5643.03
444.91	5612.60
445.10	5682.82
445.28	5767.08
445.47	5610.26
445.65	5764.74
445.84	5806.87
446.02	5795.17
446.21	5774.10
446.39	5621.97
446.58	5916.87
446.77	5638.35
446.95	5727.29
447.14	5692.18
447.32	5750.70
447.51	5790.49
447.69	5607.92
447.88	5715.59
448.06	5750.70
448.25	5816.23
448.43	5708.57
448.62	5809.21
448.80	5628.99
448.99	5928.58
449.17	6001.13
449.36	5846.66
449.54	6057.31
449.73	6066.67
449.91	6150.93
450.10	6008.16
450.28	6162.63
450.46	6139.23
450.65	6090.07
450.83	6092.41
451.02	6054.97
451.20	6221.14
451.39	6160.29
451.57	6160.29
451.76	6333.49
451.94	6300.72
452.13	6408.39
452.31	6263.27
452.49	6328.81
452.68	6345.19
452.86	6487.96
453.05	6354.55
453.23	6413.07
453.42	6413.07
453.60	6392.00
453.78	6417.75
453.97	6312.42
454.15	6443.49
454.34	6422.43
454.52	6387.32
454.70	6551.16
454.89	6665.85
455.07	6551.16
455.26	6588.61
455.44	6679.89
455.62	6628.40
455.81	6672.87
455.99	6789.89
456.17	6567.54
456.36	6724.36
456.54	6888.20
456.73	7023.95
456.91	7068.42
457.09	6993.52
457.28	7124.59
457.46	7054.37
457.64	7222.89
457.83	7183.10
458.01	6953.73
458.19	7117.57
458.38	7136.29
458.56	7232.26
458.74	7222.89
458.93	7180.76
459.11	7272.04
459.29	7183.10
459.48	7248.64
459.66	7316.51
459.84	7243.96
460.03	7550.57
460.21	7393.75
460.39	7463.97
460.57	7410.14
460.76	7543.55
460.94	7494.40
461.12	7527.16
461.31	7468.65
461.49	7417.16
461.67	7632.49
461.85	7868.88
462.04	7494.40
462.22	8105.28
462.40	7868.88
462.59	7611.42
462.77	7784.62
462.95	7838.45
463.13	7726.11
463.32	7751.85
463.50	7843.14
463.68	7948.46
463.86	7908.67
464.05	7864.20
464.23	7859.52
464.41	8009.31
464.59	7857.18
464.78	7974.21
464.96	8077.19
465.14	7927.39
465.32	8168.47
465.50	7999.95
465.69	8145.06
465.87	8198.90
466.05	8091.23
466.23	8070.17
466.41	8154.43
466.60	8203.58
466.78	7957.82
466.96	7976.55
467.14	8322.94
467.32	8479.76
467.51	8493.80
467.69	8131.02
467.87	8299.54
468.05	8519.55
468.23	8416.57
468.41	8594.45
468.60	8458.70
468.78	8634.24
468.96	8458.70
469.14	8713.81
469.32	8718.50
469.50	8557.00
469.69	8870.63
469.87	8737.22
470.05	8961.91
470.23	8777.01
470.41	8826.16
470.59	8990.00
470.77	8908.08
470.95	8833.18
471.14	9008.72
471.32	8844.88
471.50	9226.39
471.68	9123.41
471.86	9158.52
472.04	8938.51
472.22	9490.87
472.40	9004.04
472.58	9320.01
472.77	9006.38
472.95	9390.23
473.13	9657.05
473.31	9488.53
473.49	9729.61
473.67	9577.47
473.85	9565.77
474.03	9827.91
474.21	9678.12
474.39	9778.76
474.57	9680.46
474.75	9717.90
474.93	10106.43
475.12	10106.43
475.30	10083.03
475.48	10162.61
475.66	9942.60
475.84	10057.28
476.02	10403.68
476.20	10265.59
476.38	10335.81
476.56	10768.80
476.74	10703.27
476.92	10450.49
477.10	10593.26
477.28	10724.33
477.46	10647.10
477.64	10904.56
477.82	10892.85
478.00	11344.58
478.18	11112.86
478.36	11428.84
478.54	11234.57
478.72	11370.32
478.90	11419.47
479.08	11541.18
479.26	11716.72
479.44	11641.82
479.62	11969.50
479.80	11873.54
479.98	11997.59
480.16	12332.28
480.34	12259.73
480.52	12233.98
480.70	12233.98
480.88	12255.04
481.06	12437.61
481.24	12388.46
481.41	12549.95
481.59	12587.40
481.77	12980.61
481.95	12833.16
482.13	12924.44
482.31	13097.64
482.49	13558.72
482.67	13242.75
482.85	13387.86
483.03	13495.53
483.21	13802.14
483.39	13813.84
483.57	13865.33
483.74	13973.00
483.92	13982.36
484.10	14005.77
484.28	14504.30
484.46	14679.84
484.64	14689.20
484.82	14464.51
485.00	14916.23
485.18	15042.62
485.35	15154.97
485.53	15096.46
485.71	15248.59
485.89	15379.66
486.07	15349.23
486.25	15541.16
486.43	15946.07
486.61	15653.50
486.78	15974.16
486.96	15721.38
487.14	16032.67
487.32	16341.62
487.50	16315.87
487.68	16362.69
487.85	16673.98
488.03	16847.18
488.21	17174.85
488.39	17106.98
488.57	17198.26
488.75	17308.26
488.92	17256.77
489.10	17373.80
489.28	17406.56
489.46	17523.59
489.64	18054.89
489.81	18185.96
489.99	18054.89
490.17	18134.47
490.35	18242.14
490.53	18656.41
490.70	18895.14
490.88	18614.28
491.06	18916.21
491.24	19068.34
491.41	19302.40
491.59	19400.70
491.77	18979.40
491.95	19330.48
492.13	19487.30
492.30	19693.27
492.48	19983.49
492.66	19964.77
492.84	19744.76
493.01	20154.35
493.19	20353.30
493.37	20830.77
493.54	20411.81
493.72	20577.99
493.90	20900.98
494.08	20980.56
494.25	21137.38
494.43	21043.76
494.61	21242.70
494.79	21261.43
494.96	21062.48
495.14	21675.70
495.32	21893.37
495.49	21659.32
495.67	22129.77
495.85	22251.47
496.02	22340.41
496.20	22272.54
496.38	22347.44
496.55	22593.19
496.73	23323.44
496.91	22932.57
497.09	23084.70
497.26	23054.28
497.44	22916.19
497.62	23143.22
497.79	23576.22
497.97	23473.23
498.14	23435.78
498.32	23854.74
498.50	23641.75
498.67	24070.07
498.85	23786.86
499.03	24425.83
499.20	23964.75
499.38	24011.56
499.56	24699.67
499.73	24491.37
499.91	24746.48
500.08	24236.25
500.26	24826.06
500.44	24807.34
500.61	24978.20
500.79	25120.97
500.97	25081.18
501.14	25551.63
501.32	25380.77
501.49	25380.77
501.67	25724.83
501.84	26075.91
502.02	25841.85
502.20	25757.60
502.37	26082.93
502.55	25703.76
502.72	25905.05
502.90	26036.12
503.07	26129.74
503.25	26300.60
503.43	25898.03
503.60	26635.30
503.78	26443.37
503.95	26359.11
504.13	26857.65
504.30	26492.52
504.48	27023.83
504.65	27222.77
504.83	27166.60
505.01	27084.68
505.18	27487.25
505.36	27854.72
505.53	27292.99
505.71	27218.09
505.88	27749.39
506.06	27250.86
506.23	27747.05
506.41	27407.67
506.58	27943.66
506.76	27775.14
506.93	27976.42
507.11	28379.00
507.28	28025.57
507.46	28121.54
507.63	28662.20
507.81	28701.99
507.98	28313.46
508.16	28929.02
508.33	28701.99
508.50	29017.96
508.68	28727.74
508.85	28786.25
509.03	28814.34
509.20	29237.97
509.38	29383.09
509.55	29624.16
509.73	29436.92
509.90	29369.04
510.08	29350.32
510.25	29816.08
510.42	29811.40
510.60	30052.48
510.77	29984.60
510.95	30316.96
511.12	30043.12
511.30	30089.93
511.47	30024.39
511.64	30239.72
511.82	30281.85
511.99	30380.15
512.17	30616.55
512.34	30532.29
512.51	30747.62
512.69	31285.94
512.86	30890.39
513.04	31243.81
513.21	31049.55
513.38	31363.18
513.56	31133.81
513.73	31019.12
513.90	31484.89
514.08	31435.74
514.25	31569.15
514.43	31409.99
514.60	31599.57
514.77	31941.29
514.95	31941.29
515.12	31604.25
515.29	32016.19
515.47	32505.36
515.64	32058.32
515.81	31782.13
515.99	32404.72
516.16	32708.99
516.33	32641.11
516.51	32524.08
516.68	32842.40
516.85	32821.33
517.03	33216.88
517.20	32868.14
517.37	32776.86
517.54	33057.73
517.72	32931.34
517.89	32854.10
518.06	33441.57
518.24	33263.69
518.41	33254.33
518.58	33078.79
518.75	32875.16
518.93	33434.55
519.10	33158.37
519.27	33605.41
519.45	33542.22
519.62	34031.39
519.79	34108.63
519.96	33429.87
520.14	33919.04
520.31	33757.55
520.48	34057.14
520.65	33993.94
520.83	34618.86
521.00	34600.14
521.17	34494.82
521.34	34682.06
521.52	34749.93
521.69	34607.16
521.86	34735.89
522.03	35211.02
522.20	34752.27
522.38	35306.98
522.55	35346.77
522.72	35164.21
522.89	34909.09
523.07	35442.73
523.24	35278.89
523.41	35732.96
523.58	35047.18
523.75	35498.91
523.92	35566.78
524.10	35550.40
524.27	35711.89
524.44	35739.98
524.61	36088.72
524.78	35732.96
524.96	36388.31
525.13	36067.66
525.30	36292.35
525.47	36231.49
525.64	36079.36
525.81	36884.50
525.98	36212.77
526.16	36287.67
526.33	36315.75
526.50	36650.45
526.67	36893.86
526.84	36762.79
527.01	37053.02
527.18	36025.53
527.36	36868.12
527.53	36847.05
527.70	37130.26
527.87	37354.95
528.04	37249.63
528.21	37048.34
528.38	37064.72
528.55	37170.05
528.72	37251.97
528.89	37401.76
529.07	37551.56
529.24	37352.61
529.41	37673.26
529.58	37591.34
529.75	37516.45
529.92	37661.56
530.09	37830.08
530.26	37570.28
530.43	37869.87
530.60	37787.95
530.77	38033.71
530.94	38639.90
531.11	37638.15
531.28	37860.51
531.46	38279.46
531.63	38370.74
531.80	38415.21
531.97	38232.65
532.14	38682.03
532.31	38110.94
532.48	38639.90
532.65	38866.94
532.82	38824.81
532.99	39185.25
533.16	38438.62
533.33	38876.30
533.50	38902.04
533.67	38827.15
533.84	38953.54
534.01	38859.91
534.18	38878.64
534.35	39667.40
534.52	39344.41
534.69	39695.49
534.86	39203.97
535.03	39297.59
535.20	39208.65
535.37	39510.58
535.54	39756.34
535.71	39573.78
535.88	40072.31
536.05	39613.57
536.22	40158.91
536.38	39590.16
536.55	39580.80
536.72	39957.63
536.89	39812.51
537.06	39873.37
537.23	39943.58
537.40	39819.53
537.57	39976.35
537.74	40048.91
537.91	40350.84
538.08	39943.58
538.25	39945.92
538.42	40432.75
538.59	40292.32
538.75	40376.58
538.92	40715.96
539.09	41273.01
539.26	40507.65
539.43	40479.57
539.60	40910.22
539.77	40825.96
539.94	40552.12
540.11	40788.52
540.28	40383.60
540.44	40985.12
540.61	40636.38
540.78	41043.63
540.95	40765.11
541.12	41001.50
541.29	40879.80
541.46	41315.14
541.62	40849.37
541.79	41422.80
541.96	41048.32
542.13	41085.76
542.30	41408.76
542.47	41481.31
542.63	41621.75
542.80	41989.21
542.97	42000.91
543.14	42061.77
543.31	41764.52
543.48	41778.56
543.64	41954.10
543.81	42169.43
543.98	42000.91
544.15	41998.57
544.32	42131.98
544.48	42813.08
544.65	42415.19
544.82	42293.48
544.99	42043.04
545.16	42586.05
545.32	42176.45
545.49	42801.38
545.66	42719.46
545.83	42637.54
546.00	42564.98
546.16	42593.07
546.33	42487.74
546.50	42738.18
546.67	43026.07
546.83	42354.33
547.00	42630.52
547.17	42506.47
547.34	42869.25
547.50	42962.87
547.67	43262.46
547.84	42955.85
548.00	43119.69
548.17	43515.24
548.34	43615.88
548.51	43335.02
548.67	43552.69
548.84	43576.09
549.01	43688.44
549.18	43131.39
549.34	43580.78
549.51	43854.62
549.68	43791.42
549.84	43470.77
550.01	43543.33
550.18	43512.90
550.34	43723.55
550.51	43990.37
550.68	44004.41
550.84	43342.04
551.01	43585.46
551.18	43430.98
551.34	44002.07
551.51	44020.80
551.68	43751.63
551.84	43964.62
552.01	43889.73
552.18	44226.76
552.34	43730.57
552.51	43964.62
552.68	44208.04
552.84	44011.43
553.01	44479.54
553.18	44432.73
553.34	44390.60
553.51	44308.68
553.67	44807.22
553.84	44442.09
554.01	44346.13
554.17	44233.78
554.34	44865.73
554.51	44294.64
554.67	44669.12
554.84	44863.39
555.00	44652.74
555.17	44318.04
555.33	44608.27
555.50	44406.98
555.67	44816.58
555.83	44790.83
556.00	44910.20
556.16	45591.30
556.33	44687.85
556.50	45141.91
556.66	44949.99
556.83	45198.09
556.99	45134.89
557.16	45553.85
557.32	45312.77
557.49	45296.39
557.65	45242.56
557.82	45530.44
557.98	45193.40
558.15	45591.30
558.32	45420.44
558.48	45420.44
558.65	45354.90
558.81	45352.56
558.98	45422.78
559.14	45043.61
559.31	45268.30
559.47	45160.64
559.64	45663.85
559.80	45387.67
559.97	45888.54
560.13	45408.73
560.30	45422.78
560.46	46064.08
560.63	45722.37
560.79	46197.49
560.96	45649.81
561.12	45579.59
561.29	45998.55
561.45	46087.49
561.61	45577.25
561.78	45528.10
561.94	45933.01
562.11	45511.72
562.27	45750.45
562.44	46129.62
562.60	46232.60
562.77	46061.74
562.93	45614.70
563.10	46501.76
563.26	45874.50
563.42	45930.67
563.59	46113.23
563.75	46206.86
563.92	45925.99
564.08	46036.00
564.24	46581.34
564.41	46136.64
564.57	46045.36
564.74	46351.97
564.90	45954.08
565.07	45975.14
565.23	46185.79
565.39	46087.49
565.56	46681.98
565.72	46206.86
565.88	46337.93
566.05	45965.78
566.21	46040.68
566.38	46344.95
566.54	46160.05
566.70	46562.62
566.87	46679.64
567.03	46239.62
567.19	47033.07
567.36	46461.97
567.52	46410.48
567.68	46759.22
567.85	46553.26
568.01	47037.75
568.17	46508.79
568.34	46674.96
568.50	46571.98
568.66	46323.88
568.83	46436.23
568.99	46878.59
569.15	46820.08
569.32	46740.50
569.48	46424.53
569.64	47164.14
569.81	46958.17
569.97	46485.38
570.13	47316.27
570.30	46443.25
570.46	46703.05
570.62	46852.84
570.78	46967.53
570.95	46733.48
571.11	47047.11
571.27	46567.30
571.43	46789.65
571.60	46691.35
571.76	46445.59
571.92	46632.83
572.09	46827.10
572.25	46953.49
572.41	46630.49
572.57	47047.11
572.74	47423.93
572.90	46543.89
573.06	46562.62
573.22	47100.94
573.38	47026.04
573.55	46885.61
573.71	47316.27
573.87	47117.32
574.03	47145.41
574.20	47360.74
574.36	47012.00
574.52	47260.10
574.68	47292.86
574.84	47365.42
575.01	47569.05
575.17	47007.32
575.33	47159.45
575.49	46972.21
575.65	47437.98
575.82	47459.04
575.98	46934.76
576.14	47173.50
576.30	47639.26
576.46	47086.90
576.62	47154.77
576.79	47416.91
576.95	47220.31
577.11	47000.30
577.27	47208.61
577.43	47255.42
577.59	47112.64
577.75	47110.30
577.92	46445.59
578.08	47215.63
578.24	47159.45
578.40	47433.30
578.56	47388.83
578.72	47281.16
578.88	47236.69
579.04	47407.55
579.21	46780.29
579.37	47384.15
579.53	47234.35
579.69	47232.01
579.85	47119.66
580.01	47384.15
580.17	47241.37
580.33	47433.30
580.49	47344.36
580.65	47419.25
580.82	47217.97
580.98	47398.19
581.14	46965.19
581.30	47487.13
581.46	47049.45
581.62	47215.63
581.78	47529.26
581.94	47395.85
582.10	47442.66
582.26	47442.66
582.42	47377.12
582.58	47421.59
582.74	47700.12
582.90	47119.66
583.06	47704.80
583.22	47224.99
583.38	47461.38
583.54	47669.69
583.70	47770.33
583.86	47894.38
584.02	47384.15
584.18	47927.15
584.34	48011.41
584.50	47545.64
584.66	47810.12
584.82	47615.86
584.98	47716.50
585.14	47508.19
585.30	47784.38
585.46	47445.00
585.62	47557.35
585.78	48039.50
585.94	47096.26
586.10	47503.51
586.26	47262.44
586.42	47672.03
586.58	47915.45
586.74	47643.94
586.90	47398.19
587.06	47540.96
587.22	47470.75
587.38	47480.11
587.54	47707.14
587.70	48212.70
587.86	47742.25
588.02	47711.82
588.18	47847.57
588.34	47412.23
588.49	47540.96
588.65	47665.01
588.81	47463.72
588.97	47571.39
589.13	47295.21
589.29	47613.52
589.45	47580.75
589.61	47437.98
589.77	47690.76
589.93	47756.29
590.08	48018.43
590.24	48067.58
590.40	48030.13
590.56	47927.15
590.72	47950.56
590.88	47899.06
591.04	47966.94
591.20	48561.44
591.35	47962.26
591.51	48392.92
591.67	48102.69
591.83	48313.34
591.99	47934.17
592.15	48051.20
592.31	48130.78
592.46	47695.44
592.62	48126.10
592.78	48060.56
592.94	48360.15
593.10	48477.18
593.26	48350.79
593.41	48444.41
593.57	48126.10
593.73	48526.33
593.89	48282.91
594.05	48264.19
594.20	48378.87
594.36	48341.42
594.52	48507.60
594.68	48411.64
594.84	48083.97
594.99	48378.87
595.15	48016.09
595.31	48343.77
595.47	47920.13
595.62	48287.59
595.78	47936.51
595.94	48210.35
596.10	48397.60
596.25	48470.15
596.41	48591.86
596.57	48280.57
596.73	48200.99
596.88	48409.30
597.04	48439.73
597.20	48280.57
597.36	48196.31
597.51	48404.62
597.67	47849.91
597.83	48383.55
597.99	48439.73
598.14	48140.14
598.30	48418.66
598.46	48163.54
598.61	48701.87
598.77	48591.86
598.93	48266.53
599.09	48451.43
599.24	48669.10
599.40	48687.82
599.56	48701.87
599.71	48610.59
599.87	48802.51
600.03	48289.93
600.18	48102.69
600.34	48156.52
600.50	48596.54
600.65	48568.46
600.81	48608.25
600.97	48559.09
601.12	48519.31
601.28	48505.26
601.44	48622.29
601.59	48657.40
601.75	48107.37
601.91	48790.81
602.06	48311.00
602.22	48800.17
602.37	48563.78
602.53	48430.36
602.69	48369.51
602.84	48154.18
603.00	47931.83
603.16	47880.34
603.31	48631.65
603.47	48470.15
603.62	48318.02
603.78	48444.41
603.94	48210.35
604.09	48273.55
604.25	48217.38
604.40	48135.46
604.56	48673.78
604.71	48582.50
604.87	48259.51
605.03	48547.39
605.18	48074.60
605.34	48800.17
605.49	48112.05
605.65	48781.45
605.80	48254.82
605.96	48268.87
606.12	48533.35
606.27	48573.14
606.43	47980.98
606.58	48292.27
606.74	48334.40
606.89	48395.26
607.05	48252.48
607.20	48484.20
607.36	48158.86
607.51	48339.08
607.67	48357.81
607.82	48072.26
607.98	47948.21
608.13	48285.25
608.29	47880.34
608.44	48315.68
608.60	48013.75
608.75	48292.27
608.91	47992.68
609.06	48027.79
609.22	48362.49
609.37	48210.35
609.53	48186.95
609.68	48708.89
609.84	48020.77
609.99	48069.92
610.15	48186.95
610.30	48458.45
610.46	48336.74
610.61	47959.92
610.76	48231.42
610.92	47583.09
611.07	47828.85
611.23	47934.17
611.38	47992.68
611.54	48119.07
611.69	48002.05
611.84	48383.55
612.00	47936.51
612.15	47934.17
612.31	47957.58
612.46	47459.04
612.62	48079.28
612.77	47941.19
612.92	48011.41
613.08	47760.97
613.23	48208.01
613.39	47775.02
613.54	47627.56
613.69	47959.92
613.85	47557.35
614.00	47756.29
614.15	47978.64
614.31	47503.51
614.46	47943.53
614.62	47327.97
614.77	47728.20
614.92	47606.50
615.08	47892.04
615.23	47576.07
615.38	48114.39
615.54	47938.85
615.69	47730.54
615.84	47501.17
616.00	48025.45
616.15	47765.65
616.30	47878.00
616.46	47384.15
616.61	47550.32
616.76	47739.91
616.92	47306.91
617.07	47580.75
617.22	47299.89
617.37	47021.36
617.53	47821.83
617.68	47365.42
617.83	47419.25
617.99	47737.57
618.14	47454.36
618.29	47143.07
618.45	47281.16
618.60	46831.78
618.75	47260.10
618.90	47063.49
619.06	46909.02
619.21	47236.69
619.36	47555.00
619.51	47077.54
619.67	46955.83
619.82	47175.84
619.97	47344.36
620.12	46885.61
620.28	46920.72
620.43	47496.49
620.58	47145.41
620.73	46869.23
620.89	47131.37
621.04	47182.86
621.19	47232.01
621.34	46607.09
621.49	46813.05
621.65	46939.44
621.80	47330.31
621.95	46639.86
622.10	46981.57
622.25	46777.95
622.41	46859.87
622.56	46836.46
622.71	46852.84
622.86	46710.07
623.01	47082.22
623.16	46972.21
623.32	46597.73
623.47	46944.12
623.62	46665.60
623.77	46461.97
623.92	46576.66
624.07	46658.58
624.23	46955.83
624.38	46731.14
624.53	46738.16
624.68	46569.64
624.83	46232.60
624.98	46384.74
625.13	45991.53
625.29	46267.71
625.44	46597.73
625.59	46459.63
625.74	46738.16
625.89	46277.07
626.04	46007.91
626.19	46513.47
626.34	46253.67
626.49	46284.09
626.65	45979.82
626.80	46192.81
626.95	46232.60
627.10	45890.88
627.25	46232.60
627.40	46422.19
627.55	46211.54
627.70	46031.32
627.85	46248.99
628.00	46150.68
628.15	46110.89
628.30	45605.34
628.45	45811.31
628.60	45530.44
628.76	45937.69
628.91	45986.85
629.06	45535.12
629.21	45401.71
629.36	45698.96
629.51	45453.20
629.66	45820.67
629.81	45350.22
629.96	45530.44
630.11	45563.21
630.26	45413.41
630.41	45808.96
630.56	45748.11
630.71	45284.68
630.86	45783.22
631.01	45324.47
631.16	45408.73
631.31	45268.30
631.46	45151.27
631.61	45722.37
631.76	45357.24
631.91	45312.77
632.06	45696.62
632.21	45720.02
632.36	45469.59
632.51	44835.30
632.66	45549.17
632.81	45333.84
632.96	45544.48
633.10	45118.51
633.25	45495.33
633.40	45443.84
633.55	45579.59
633.70	45237.87
633.85	44774.45
634.00	44694.87
634.15	44711.25
634.30	44847.00
634.45	44676.15
634.60	44879.77
634.75	45024.89
634.90	44662.10
635.05	45024.89
635.19	44732.32
635.34	44924.24
635.49	44626.99
635.64	45043.61
635.79	44978.07
635.94	44823.60
636.09	44854.03
636.24	44397.62
636.39	44774.45
636.53	44612.95
636.68	44252.51
636.83	44364.85
636.98	44341.45
637.13	44329.75
637.28	44091.01
637.43	44170.59
637.57	44395.28
637.72	44264.21
637.87	44411.67
638.02	44238.47
638.17	44175.27
638.32	44320.38
638.46	43873.34
638.61	44385.92
638.76	43821.85
638.91	44044.20
639.06	44346.13
639.20	43856.96
639.35	43934.20
639.50	43803.13
639.65	44360.17
639.80	44346.13
639.94	44296.98
640.09	43901.43
640.24	44252.51
640.39	44109.74
640.54	43779.72
640.68	43573.75
640.83	44638.70
640.98	43768.02
641.13	43571.41
641.27	44465.50
641.42	43875.68
641.57	43690.78
641.72	43550.35
641.86	43917.81
642.01	43122.03
642.16	43557.37
642.31	43454.39
642.45	43810.15
642.60	43096.28
642.75	43026.07
642.90	43473.11
643.04	43842.92
643.19	43473.11
643.34	43510.56
643.48	43203.95
643.63	43737.59
643.78	43695.46
643.93	43370.13
644.07	43276.51
644.22	43482.47
644.37	43143.09
644.51	43475.45
644.66	43459.07
644.81	43131.39
644.95	43718.87
645.10	43199.27
645.25	42955.85
645.39	42864.57
645.54	43206.29
645.69	43098.62
645.83	42911.38
645.98	42658.60
646.13	42761.59
646.27	42726.48
646.42	42440.93
646.57	43206.29
646.71	43096.28
646.86	43445.02
647.00	42981.60
647.15	42808.40
647.30	42873.93
647.44	42972.24
647.59	42761.59
647.74	42913.72
647.88	43033.09
648.03	42948.83
648.17	43239.06
648.32	42920.74
648.47	43236.72
648.61	42616.47
648.76	42447.96
648.90	42604.77
649.05	42190.50
649.20	42436.25
649.34	42394.12
649.49	42293.48
649.63	42649.24
649.78	42438.59
649.92	42639.88
650.07	42909.04
650.21	43035.43
650.36	42572.00
650.51	42326.25
650.65	42419.87
650.80	42368.38
650.94	42677.33
651.09	42302.84
651.23	41923.68
651.38	42010.28
651.52	41916.65
651.67	41989.21
651.81	42038.36
651.96	41570.25
652.10	41872.18
652.25	42330.93
652.39	41867.50
652.54	41928.36
652.68	42094.53
652.83	41996.23
652.97	42260.71
653.12	41549.19
653.26	41940.06
653.41	41703.67
653.55	42139.00
653.70	41897.93
653.84	42047.72
653.99	41993.89
654.13	41921.34
654.27	42108.58
654.42	41982.19
654.56	41596.00
654.71	41488.34
654.85	41914.31
655.00	41867.50
655.14	41574.94
655.29	41855.80
655.43	41818.35
655.57	41294.07
655.72	41155.98
655.86	41537.49
656.01	41251.94
656.15	41074.06
656.30	41450.89
656.44	41163.00
656.58	41333.86
656.73	41179.39
656.87	41228.54
657.01	40903.20
657.16	41380.67
657.30	41167.68
657.45	40938.31
657.59	41064.70
657.73	40341.47
657.88	41027.25
658.02	41500.04
658.16	41139.60
658.31	40648.08
658.45	41104.49
658.60	40884.48
658.74	40886.82
658.88	41177.04
659.03	40666.81
659.17	40795.54
659.31	40257.21
659.46	40388.28
659.60	40587.23
659.74	40210.40
659.89	39871.03
660.03	39812.51
660.17	40517.01
660.32	40116.78
660.46	40224.45
660.60	39887.41
660.74	40006.78
660.89	40156.57
661.03	39873.37
661.17	40100.40
661.32	39983.37
661.46	40079.33
661.60	39966.99
661.74	40055.93
661.89	40121.46
662.03	39868.69
662.17	39091.63
662.31	39559.73
662.46	39505.90
662.60	39445.05
662.74	39321.00
662.88	39447.39
663.03	39143.12
663.17	39044.82
663.31	39021.41
663.45	39641.65
663.60	39709.53
663.74	39182.91
663.88	39054.18
664.02	39124.40
664.17	39332.70
664.31	39014.39
664.45	38836.51
664.59	39164.18
664.73	38773.31
664.88	38604.80
665.02	38590.75
665.16	38735.87
665.30	38155.41
665.44	38382.45
665.59	38319.25
665.73	38216.27
665.87	38031.36
666.01	37900.29
666.15	37722.41
666.29	38106.26
666.44	38237.33
666.58	37907.32
666.72	37502.40
666.86	37956.47
667.00	38019.66
667.14	37645.18
667.28	37986.89
667.43	37722.41
667.57	38082.86
667.71	37834.76
667.85	38356.70
667.99	37436.87
668.13	37677.94
668.27	37102.17
668.41	36833.01
668.56	36776.84
668.70	36645.77
668.84	36699.60
668.98	36620.02
669.12	36385.97
669.26	37078.77
669.40	36762.79
669.54	37221.54
669.68	37020.25
669.82	36273.62
669.96	36573.21
670.10	35866.37
670.25	36322.77
670.39	36521.72
670.53	36699.60
670.67	36416.40
670.81	36442.14
670.95	36287.67
671.09	36151.91
671.23	35835.94
671.37	36135.53
671.51	35903.82
671.65	35590.19
671.79	35562.10
671.93	36027.87
672.07	36294.69
672.21	35541.03
672.35	35690.83
672.49	35370.18
672.63	35445.07
672.77	35407.62
672.91	34810.79
673.05	35009.73
673.19	34916.11
673.33	34930.16
673.47	34873.98
673.61	34761.64
673.75	34522.90
673.89	34553.33
674.03	33993.94
674.17	34415.24
674.31	34148.42
674.45	34232.68
674.59	34054.79
674.73	34389.49
674.87	33757.55
675.01	33464.98
675.15	33745.84
675.29	33631.16
675.43	33497.75
675.56	33652.22
675.70	33579.67
675.84	33310.50
675.98	32264.28
676.12	33610.09
676.26	33219.22
676.40	33013.26
676.54	32945.38
676.68	33029.64
676.82	32030.23
676.96	32800.27
677.10	32194.07
677.23	32428.12
677.37	32524.08
677.51	32336.84
677.65	32409.40
677.79	32259.60
677.93	31740.00
678.07	32229.18
678.21	31999.80
678.34	31484.89
678.48	31365.52
678.62	31222.75
678.76	31503.61
678.90	31054.23
679.04	31468.50
679.18	31019.12
679.31	30930.18
679.45	31110.40
679.59	30771.02
679.73	31035.50
679.87	30508.88
680.00	30555.69
680.14	30515.90
680.28	30483.14
680.42	30387.18
680.56	30213.98
680.70	30176.53
680.83	30253.76
680.97	29947.15
681.11	29766.93
681.25	29900.34
681.39	29467.34
681.52	29617.14
681.66	29357.34
681.80	29032.00
681.94	29041.37
682.07	28828.38
682.21	29130.31
682.35	28409.42
682.49	28814.34
682.62	28648.16
682.76	28650.50
682.90	28922.00
683.04	28718.37
683.17	28376.66
683.31	28343.89
683.45	28072.39
683.59	28189.41
683.72	27857.06
683.86	28156.64
684.00	27737.69
684.13	27742.37
684.27	27445.12
684.41	27564.49
684.55	27297.67
684.68	27103.40
684.82	26965.31
684.96	27016.80
685.09	27311.71
685.23	26925.52
685.37	27248.52
685.50	27318.73
685.64	27129.15
685.78	26614.23
685.91	26202.30
686.05	26221.02
686.19	26085.27
686.32	26108.68
686.46	25614.82
686.60	25708.44
686.73	25874.62
686.87	25778.66
687.01	25813.77
687.14	25582.06
687.28	25710.78
687.42	25486.09
687.55	25392.47
687.69	25598.44
687.82	25076.50
687.96	25137.35
688.10	25006.28
688.23	25163.10
688.37	24907.98
688.50	25097.56
688.64	24624.78
688.78	24678.61
688.91	24250.29
689.05	24519.45
689.18	23821.97
689.32	23978.79
689.46	23735.37
689.59	24046.66
689.73	23974.11
689.86	24280.72
690.00	24046.66
690.13	23995.17
690.27	23597.28
690.41	23403.02
690.54	23126.83
690.68	23061.30
690.81	22993.42
690.95	23075.34
691.08	22876.40
691.22	22698.52
691.35	22632.98
691.49	23241.52
691.62	22813.20
691.76	22539.36
691.89	22115.72
692.03	21818.47
692.16	21752.94
692.30	22286.58
692.43	22223.39
692.57	21825.50
692.70	21605.49
692.84	21610.17
692.97	21551.65
693.11	21542.29
693.24	21291.85
693.38	21322.28
693.51	20774.60
693.65	21099.93
693.78	20938.43
693.92	21027.37
694.05	20767.57
694.19	20741.83
694.32	20767.57
694.45	20870.56
694.59	20952.48
694.72	20875.24
694.86	20238.61
694.99	20065.41
695.13	20091.16
695.26	19999.88
695.39	19641.78
695.53	19634.75
695.66	19569.22
695.80	19772.85
695.93	19817.32
696.07	19419.42
696.20	19271.97
696.33	18923.23
696.47	18934.93
696.60	18984.09
696.73	19569.22
696.87	19222.82
697.00	19370.27
697.14	19035.58
697.27	18707.90
697.40	18223.41
697.54	18925.57
697.67	18780.46
697.80	18464.49
697.94	18508.96
698.07	18183.62
698.21	17862.97
698.34	18260.86
698.47	17752.96
698.61	17748.28
698.74	17584.44
698.87	17383.16
699.01	17680.41
699.14	17617.21
699.27	17191.23
699.40	17216.98
699.54	17554.02
699.67	17284.86
699.80	17305.92
699.94	16933.78
700.07	16947.82
700.20	17057.82
700.34	16842.50
700.47	16833.13
700.60	17202.94
700.73	16645.89
700.87	16489.07
701.00	16435.24
701.13	15946.07
701.26	16262.04
701.40	16276.09
701.53	15777.55
701.66	16027.99
701.79	15910.96
701.93	15934.37
702.06	15744.78
702.19	15559.88
702.32	15906.28
702.46	15829.04
702.59	15941.39
702.72	15489.67
702.85	15564.56
702.99	15477.96
703.12	15452.22
703.25	15136.24
703.38	15260.29
703.51	15002.83
703.65	14656.43
703.78	14633.03
703.91	14626.01
704.04	14726.65
704.17	14621.33
704.31	14546.43
704.44	14506.64
704.57	14427.06
704.70	14298.33
704.83	14352.16
704.96	14366.21
705.10	13811.50
705.23	14054.92
>>>>>End Processed Spectral Data<<<<<
