SpectraSuite Data File
++++++++++++++++++++++++++++++++++++
Date: Fri Oct 25 10:48:19 EDT 2013
User: price-jones
Dark Spectrum Present: No
Reference Spectrum Present: No
Number of Sampled Component Spectra: 1
Spectrometers: USB2+H05261
Integration Time (usec): 100000 (USB2+H05261)
Spectra Averaged: 1 (USB2+H05261)
Boxcar Smoothing: 0 (USB2+H05261)
Correct for Electrical Dark: No (USB2+H05261)
Strobe/Lamp Enabled: No (USB2+H05261)
Correct for Detector Non-linearity: No (USB2+H05261)
Correct for Stray Light: No (USB2+H05261)
Number of Pixels in Processed Spectrum: 2048
>>>>>Begin Processed Spectral Data<<<<<
365.73	121.71
365.92	121.71
366.12	121.71
366.32	67.88
366.52	67.88
366.72	138.09
366.91	30.43
367.11	86.60
367.31	0.00
367.51	0.00
367.70	56.17
367.90	42.13
368.10	28.09
368.30	98.30
368.49	49.15
368.69	28.09
368.89	25.75
369.09	44.47
369.28	91.28
369.48	81.92
369.68	98.30
369.87	161.50
370.07	105.32
370.27	112.35
370.47	231.71
370.66	404.91
370.86	451.72
371.06	554.71
371.25	538.32
371.45	493.85
371.65	507.90
371.84	486.83
372.04	360.44
372.24	533.64
372.44	489.17
372.63	568.75
372.83	503.22
373.03	538.32
373.22	552.37
373.42	519.60
373.62	603.86
373.81	683.44
374.01	545.34
374.21	671.73
374.40	606.20
374.60	664.71
374.79	547.69
374.99	531.30
375.19	603.86
375.38	697.48
375.58	617.90
375.78	655.35
375.97	657.69
376.17	610.88
376.37	716.20
376.56	657.69
376.76	709.18
376.95	678.76
377.15	685.78
377.35	753.65
377.54	671.73
377.74	734.93
377.93	711.52
378.13	690.46
378.33	697.48
378.52	739.61
378.72	699.82
378.91	732.59
379.11	664.71
379.31	641.31
379.50	671.73
379.70	737.27
379.89	746.63
380.09	702.16
380.28	753.65
380.48	676.41
380.68	695.14
380.87	755.99
381.07	781.74
381.26	767.70
381.46	779.40
381.65	709.18
381.85	760.67
382.04	739.61
382.24	770.04
382.43	734.93
382.63	706.84
382.83	816.85
383.02	833.23
383.22	809.83
383.41	795.78
383.61	781.74
383.80	858.98
384.00	751.31
384.19	807.48
384.39	802.80
384.58	880.04
384.78	842.59
384.97	809.83
385.17	781.74
385.36	767.70
385.56	835.57
385.75	795.78
385.95	905.79
386.14	898.77
386.34	856.64
386.53	901.11
386.72	861.32
386.92	891.74
387.11	961.96
387.31	842.59
387.50	936.21
387.70	936.21
387.89	877.70
388.09	936.21
388.28	898.77
388.48	980.68
388.67	1004.09
388.86	987.71
389.06	929.19
389.25	1076.65
389.45	1029.84
389.64	1048.56
389.84	1013.45
390.03	1064.94
390.22	1097.71
390.42	1097.71
390.61	1086.01
390.81	1095.37
391.00	1156.22
391.19	1109.41
391.39	1055.58
391.58	1153.88
391.78	1146.86
391.97	1116.44
392.16	1100.05
392.36	1109.41
392.55	1130.48
392.75	1102.39
392.94	1074.31
393.13	1093.03
393.33	999.41
393.52	1025.15
393.71	1167.93
393.91	1158.57
394.10	1217.08
394.29	1158.57
394.49	1247.51
394.68	1224.10
394.88	1238.14
395.07	1299.00
395.26	1322.40
395.46	1270.91
395.65	1226.44
395.84	1287.29
396.04	1294.32
396.23	1217.08
396.42	1156.22
396.62	1263.89
396.81	1296.66
397.00	1306.02
397.19	1336.45
397.39	1324.74
397.58	1439.43
397.77	1467.52
397.97	1448.79
398.16	1467.52
398.35	1497.94
398.55	1495.60
398.74	1500.28
398.93	1605.61
399.12	1535.39
399.32	1582.20
399.51	1586.88
399.70	1589.22
399.90	1661.78
400.09	1621.99
400.28	1741.36
400.47	1732.00
400.67	1753.06
400.86	1701.57
401.05	1694.55
401.24	1825.62
401.44	1739.02
401.63	1792.85
401.82	1760.08
402.01	1724.97
402.21	1834.98
402.40	1846.68
402.59	1937.96
402.78	1858.39
402.97	1879.45
403.17	1884.13
403.36	1860.73
403.55	1973.07
403.74	1989.46
403.93	2043.29
404.13	1853.70
404.32	1853.70
404.51	1926.26
404.70	2062.01
404.89	1973.07
405.09	2087.76
405.28	2057.33
405.47	2115.84
405.66	2176.70
405.85	2069.03
406.05	2059.67
406.24	1994.14
406.43	2157.97
406.62	2209.47
406.81	2136.91
407.00	2111.16
407.20	2148.61
407.39	2183.72
407.58	2181.38
407.77	2256.28
407.96	2413.09
408.15	2321.81
408.34	2340.54
408.54	2413.09
408.73	2377.98
408.92	2380.32
409.11	2392.03
409.30	2361.60
409.49	2434.16
409.68	2406.07
409.87	2340.54
410.07	2401.39
410.26	2424.80
410.45	2548.84
410.64	2495.01
410.83	2558.21
411.02	2691.62
411.21	2736.09
411.40	2640.12
411.59	2724.38
411.78	2829.71
411.98	2719.70
412.17	2759.49
412.36	2864.82
412.55	2867.16
412.74	2895.24
412.93	2890.56
413.12	2813.32
413.31	3033.33
413.50	2984.18
413.69	2925.67
413.88	2913.97
414.07	3045.04
414.26	3145.68
414.45	3098.87
414.64	3119.93
414.83	3075.46
415.02	3180.79
415.22	3190.15
415.41	3201.85
415.60	3304.84
415.79	3358.67
415.98	3379.73
416.17	3379.73
416.36	3274.41
416.55	3272.07
416.74	3363.35
416.93	3356.33
417.12	3485.06
417.31	3588.04
417.50	3482.72
417.69	3618.47
417.88	3414.84
418.07	3585.70
418.26	3618.47
418.45	3705.07
418.64	3763.58
418.83	3779.97
419.02	3728.47
419.21	3761.24
419.39	3672.30
419.58	3721.45
419.77	3700.39
419.96	3702.73
420.15	3845.50
420.34	3740.18
420.53	3885.29
420.72	3859.54
420.91	3896.99
421.10	3974.23
421.29	3976.57
421.48	3878.27
421.67	4152.11
421.86	3932.10
422.05	3934.44
422.24	3955.51
422.43	3981.25
422.61	4046.79
422.80	4032.74
422.99	4011.68
423.18	4081.89
423.37	4159.13
423.56	3976.57
423.75	4114.66
423.94	4014.02
424.13	3786.99
424.32	4032.74
424.50	3974.23
424.69	4009.34
424.88	4189.56
425.07	4156.79
425.26	4053.81
425.45	3943.80
425.64	4077.21
425.83	4128.70
426.01	4049.13
426.20	4222.33
426.39	4191.90
426.58	4007.00
426.77	4093.60
426.96	4014.02
427.15	3971.89
427.33	4219.99
427.52	4198.92
427.71	4337.01
427.90	4222.33
428.09	4257.43
428.28	4138.07
428.46	4332.33
428.65	4311.27
428.84	4475.10
429.03	4273.82
429.22	4201.26
429.40	4180.20
429.59	4287.86
429.78	4081.89
429.97	4025.72
430.16	4030.40
430.34	4131.05
430.53	4245.73
430.72	4285.52
430.91	4381.48
431.10	4475.10
431.28	4631.92
431.47	4683.41
431.66	4720.86
431.85	4683.41
432.03	4823.84
432.22	4873.00
432.41	4704.48
432.60	4840.23
432.79	5060.24
432.97	4931.51
433.16	4929.17
433.35	4837.89
433.54	4805.12
433.72	4903.42
433.91	4741.93
434.10	4849.59
434.28	5043.85
434.47	5034.49
434.66	5249.82
434.85	5156.20
435.03	5046.20
435.22	5191.31
435.41	5135.14
435.59	5259.18
435.78	5305.99
435.97	5397.28
436.16	5296.63
436.34	5308.34
436.53	5224.08
436.72	5467.49
436.90	5064.92
437.09	5439.40
437.28	5387.91
437.46	5392.59
437.65	5458.13
437.84	5472.17
438.02	5427.70
438.21	5476.85
438.40	5207.69
438.58	5455.79
438.77	5680.48
438.96	5612.60
439.14	5797.51
439.33	5851.34
439.52	5799.85
439.70	5893.47
439.89	5891.13
440.08	5820.91
440.26	5949.64
440.45	5877.09
440.63	6080.71
440.82	6279.66
441.01	6237.53
441.19	6125.18
441.38	6326.47
441.57	6211.78
441.75	6511.37
441.94	6516.05
442.12	6560.52
442.31	6424.77
442.50	6600.31
442.68	6520.73
442.87	6651.80
443.05	6473.92
443.24	6810.96
443.43	6562.86
443.61	6679.89
443.80	6988.84
443.98	6539.46
444.17	6555.84
444.35	6815.64
444.54	7019.27
444.73	6939.69
444.91	6801.60
445.10	6703.29
445.28	6642.44
445.47	6623.72
445.65	6778.19
445.84	6864.79
446.02	6761.81
446.21	6745.42
446.39	6806.28
446.58	6864.79
446.77	7047.35
446.95	6878.83
447.14	6920.96
447.32	6932.67
447.51	6836.70
447.69	6965.43
447.88	6946.71
448.06	6951.39
448.25	7089.48
448.43	7157.36
448.62	7192.47
448.80	6993.52
448.99	6918.62
449.17	6920.96
449.36	7133.95
449.54	7187.79
449.73	7269.70
449.91	7328.22
450.10	7342.26
450.28	7468.65
450.46	7517.80
450.65	7489.71
450.83	7524.82
451.02	7456.95
451.20	7529.50
451.39	7499.08
451.57	7424.18
451.76	7449.93
451.94	7487.37
452.13	7616.10
452.31	7452.27
452.49	7414.82
452.68	7496.74
452.86	7503.76
453.05	7569.29
453.23	7651.21
453.42	7669.94
453.60	7620.78
453.78	7604.40
453.97	7719.09
454.15	7662.91
454.34	7733.13
454.52	7786.96
454.70	7705.04
454.89	7873.56
455.07	7791.64
455.26	7826.75
455.44	7901.65
455.62	8095.91
455.81	8180.17
455.99	8105.28
456.17	8212.94
456.36	8016.33
456.54	8299.54
456.73	8344.01
456.91	8425.93
457.09	8407.20
457.28	8578.06
457.46	8294.86
457.64	8339.33
457.83	8327.63
458.01	8416.57
458.19	8528.91
458.38	8327.63
458.56	8369.76
458.74	8568.70
458.93	8533.59
459.11	8648.28
459.29	8557.00
459.48	8585.08
459.66	8535.93
459.84	8505.51
460.03	8933.82
460.21	8762.97
460.39	8788.71
460.57	8879.99
460.76	8816.80
460.94	8971.27
461.12	9020.42
461.31	8821.48
461.49	8940.85
461.67	8952.55
461.85	9107.02
462.04	9193.62
462.22	9542.36
462.40	9362.14
462.59	9137.45
462.77	9200.65
462.95	9352.78
463.13	9064.89
463.32	9160.86
463.50	9296.61
463.68	9273.20
463.86	9270.86
464.05	9205.33
464.23	9165.54
464.41	9254.48
464.59	9048.51
464.78	9504.92
464.96	9544.70
465.14	9376.19
465.32	9614.92
465.50	9554.07
465.69	9500.23
465.87	9462.79
466.05	9444.06
466.23	9371.50
466.41	9834.93
466.60	9659.39
466.78	9666.41
466.96	9465.13
467.14	9495.55
467.32	9521.30
467.51	9872.38
467.69	9362.14
467.87	9874.72
468.05	9956.64
468.23	9661.73
468.41	9638.33
468.60	9521.30
468.78	9933.23
468.96	10001.11
469.14	9951.96
469.32	10129.84
469.50	9783.44
469.69	9930.89
469.87	10171.97
470.05	9956.64
470.23	10094.73
470.41	10068.98
470.59	10466.88
470.77	10204.74
470.95	10251.55
471.14	10445.81
471.32	10230.48
471.50	10635.39
471.68	10654.12
471.86	10712.63
472.04	10565.18
472.22	10925.62
472.40	10621.35
472.58	10611.99
472.77	10780.51
472.95	10820.30
473.13	11220.53
473.31	10839.02
473.49	11028.60
473.67	10899.87
473.85	10766.46
474.03	11269.68
474.21	11475.65
474.39	11412.45
474.57	11463.94
474.75	11323.51
474.93	11417.13
475.12	11515.44
475.30	11573.95
475.48	11564.59
475.66	11578.63
475.84	11400.75
476.02	11772.89
476.20	11822.05
476.38	12046.74
476.56	12028.01
476.74	12278.45
476.92	12114.61
477.10	12037.38
477.28	12374.41
477.46	12620.17
477.64	12659.96
477.82	12760.60
478.00	12964.23
478.18	12922.10
478.36	13025.08
478.54	12776.98
478.72	13032.10
478.90	13345.73
479.08	13490.85
479.26	13441.70
479.44	13755.33
479.62	13748.31
479.80	13659.37
479.98	14015.13
480.16	14160.24
480.34	14347.48
480.52	14253.86
480.70	14104.07
480.88	14139.18
481.06	14356.85
481.24	14324.08
481.41	14782.82
481.59	14855.38
481.77	14988.79
481.95	14967.73
482.13	14977.09
482.31	14913.89
482.49	15243.91
482.67	15314.13
482.85	15482.64
483.03	15695.63
483.21	15868.83
483.39	15838.41
483.57	15880.53
483.74	15983.52
483.92	16348.64
484.10	16219.91
484.28	16542.91
484.46	16561.63
484.64	16739.51
484.82	16341.62
485.00	16807.39
485.18	16863.56
485.35	17111.66
485.53	16610.78
485.71	16695.04
485.89	16779.30
486.07	16870.58
486.25	16987.61
486.43	17411.25
486.61	17649.98
486.78	17975.31
486.96	17853.61
487.14	18174.26
487.32	18312.35
487.50	18434.06
487.68	18827.27
487.85	18946.64
488.03	19061.32
488.21	19220.48
488.39	19019.19
488.57	19220.48
488.75	19197.07
488.92	19578.58
489.10	20006.90
489.28	19730.72
489.46	20231.59
489.64	20381.38
489.81	20634.16
489.99	20919.71
490.17	21135.04
490.35	21018.01
490.53	20919.71
490.70	21240.36
490.88	21102.27
491.06	21259.09
491.24	21326.96
491.41	21312.92
491.59	21603.14
491.77	21645.27
491.95	21972.95
492.13	21788.05
492.30	22115.72
492.48	22515.95
492.66	22176.58
492.84	22427.01
493.01	22829.59
493.19	22632.98
493.37	22785.12
493.54	23138.54
493.72	23185.35
493.90	23232.16
494.08	23517.70
494.25	23655.79
494.43	23997.51
494.61	23868.78
494.79	24449.24
494.96	23967.09
495.14	24109.86
495.32	24489.03
495.49	24498.39
495.67	24608.39
495.85	24891.60
496.02	24767.55
496.20	24720.74
496.38	25109.27
496.55	24907.98
496.73	26043.14
496.91	25212.25
497.09	25537.59
497.26	25748.23
497.44	25628.87
497.62	25806.75
497.79	26075.91
497.97	25891.01
498.14	26284.22
498.32	26469.12
498.50	25926.11
498.67	26913.82
498.85	26838.92
499.03	27295.33
499.20	27395.97
499.38	27304.69
499.56	26927.86
499.73	27236.81
499.91	27124.47
500.08	27377.25
500.26	27105.74
500.44	27157.24
500.61	27445.12
500.79	27461.51
500.97	27943.66
501.14	27786.84
501.32	27812.59
501.49	28151.96
501.67	28182.39
501.84	28350.91
502.02	28357.93
502.20	28547.51
502.37	28568.58
502.55	28776.89
502.72	28987.53
502.90	28833.06
503.07	28734.76
503.25	28596.67
503.43	28762.84
503.60	29137.33
503.78	29406.49
503.95	29259.04
504.13	29326.91
504.30	29453.30
504.48	29329.25
504.65	29813.74
504.83	29771.61
505.01	30118.01
505.18	29804.38
505.36	30312.28
505.53	30209.29
505.71	30562.72
505.88	30665.70
506.06	30232.70
506.23	30995.71
506.41	30522.93
506.58	30899.75
506.76	30476.12
506.93	31145.51
507.11	31019.12
507.28	30969.97
507.46	30728.89
507.63	30632.93
507.81	30817.83
507.98	30628.25
508.16	31084.65
508.33	31613.62
508.50	31648.72
508.68	31749.37
508.85	32229.18
509.03	31955.33
509.20	31903.84
509.38	31817.24
509.55	32109.81
509.73	32217.47
509.90	32292.37
510.08	32105.13
510.25	32114.49
510.42	32631.75
510.60	32762.82
510.77	32835.38
510.95	33123.26
511.12	32730.05
511.30	33209.86
511.47	33422.85
511.64	33195.82
511.82	33589.03
511.99	33502.43
512.17	33074.11
512.34	32982.83
512.51	33362.00
512.69	33542.22
512.86	33406.47
513.04	34057.14
513.21	34115.65
513.38	33553.92
513.56	33750.52
513.73	33872.23
513.90	33853.51
514.08	33848.83
514.25	34061.82
514.43	34300.55
514.60	34300.55
514.77	34019.69
514.95	34684.40
515.12	34600.14
515.29	34508.86
515.47	35147.82
515.64	34916.11
515.81	34859.94
515.99	34621.20
516.16	34665.67
516.33	34438.64
516.51	34429.28
516.68	34003.30
516.85	34022.03
517.03	34672.70
517.20	34621.20
517.37	35267.19
517.54	35463.80
517.72	35173.57
517.89	34939.52
518.06	34771.00
518.24	34976.97
518.41	35531.67
518.58	35433.37
518.75	35599.55
518.93	36128.51
519.10	35840.62
519.27	36222.13
519.45	36332.14
519.62	36292.35
519.79	36102.76
519.96	36685.56
520.14	36416.40
520.31	36381.29
520.48	36362.56
520.65	36533.42
520.83	37221.54
521.00	36732.37
521.17	36790.88
521.34	36945.36
521.52	37209.84
521.69	37156.00
521.86	37308.14
522.03	37102.17
522.20	37626.45
522.38	37427.51
522.55	37408.78
522.72	37109.19
522.89	37490.70
523.07	37691.99
523.24	37790.29
523.41	37766.88
523.58	37689.65
523.75	38401.17
523.92	38508.83
524.10	38010.30
524.27	38242.01
524.44	38124.99
524.61	38426.92
524.78	38593.09
524.96	38768.63
525.13	38672.67
525.30	38508.83
525.47	39110.35
525.64	38937.15
525.81	38565.01
525.98	38609.48
526.16	37909.66
526.33	38033.71
526.50	38536.92
526.67	38003.28
526.84	38450.32
527.01	38429.26
527.18	38548.62
527.36	39227.38
527.53	39152.48
527.70	39466.11
527.87	39718.89
528.04	39337.38
528.21	39335.04
528.38	39569.10
528.55	39849.96
528.72	39426.32
528.89	40381.26
529.07	39779.74
529.24	39597.18
529.41	40048.91
529.58	39864.00
529.75	39342.06
529.92	39962.31
530.09	40081.67
530.26	40261.90
530.43	40430.41
530.60	40170.61
530.77	40275.94
530.94	40554.46
531.11	40170.61
531.28	40739.36
531.46	40563.82
531.63	41024.91
531.80	40266.58
531.97	40690.21
532.14	40493.61
532.31	40425.73
532.48	40465.52
532.65	40687.87
532.82	40362.54
532.99	40945.33
533.16	40931.29
533.33	40720.64
533.50	41207.47
533.67	41191.09
533.84	41308.11
534.01	41038.95
534.18	40900.86
534.35	41900.27
534.52	41146.62
534.69	41851.12
534.86	41654.51
535.03	41481.31
535.20	41640.47
535.37	41715.37
535.54	42377.74
535.71	41455.57
535.88	41443.87
536.05	41638.13
536.22	41876.86
536.38	41741.11
536.55	41738.77
536.72	41640.47
536.89	41715.37
537.06	41680.26
537.23	41963.46
537.40	42136.66
537.57	41799.63
537.74	42370.72
537.91	42452.64
538.08	42045.38
538.25	42019.64
538.42	42667.97
538.59	42546.26
538.75	42279.44
538.92	41993.89
539.09	42323.91
539.26	42452.64
539.43	42724.14
539.60	42216.24
539.77	42190.50
539.94	42684.35
540.11	42579.03
540.28	42466.68
540.44	42391.78
540.61	42167.09
540.78	42438.59
540.95	42412.85
541.12	42607.11
541.29	42770.95
541.46	42693.71
541.62	43082.24
541.79	43278.85
541.96	42925.42
542.13	42749.88
542.30	43229.69
542.47	43358.42
542.63	42810.74
542.80	43407.58
542.97	43526.94
543.14	43484.81
543.31	43758.66
543.48	43690.78
543.64	44182.29
543.81	44184.63
543.98	44009.09
544.15	43695.46
544.32	44126.12
544.48	44528.69
544.65	44156.55
544.82	43732.91
544.99	43639.29
545.16	44320.38
545.32	43831.21
545.49	44149.53
545.66	44341.45
545.83	44346.13
546.00	44322.72
546.16	44147.18
546.33	44208.04
546.50	43957.60
546.67	44107.40
546.83	43849.94
547.00	44336.77
547.17	44409.32
547.34	44168.25
547.50	44657.42
547.67	44629.34
547.84	44472.52
548.00	44715.93
548.17	44767.43
548.34	44732.32
548.51	44549.76
548.67	44959.35
548.84	44774.45
549.01	44641.04
549.18	44903.18
549.34	44847.00
549.51	45043.61
549.68	45001.48
549.84	45106.80
550.01	45219.15
550.18	45095.10
550.34	44814.24
550.51	44870.41
550.68	45088.08
550.84	44825.94
551.01	44577.84
551.18	44720.62
551.34	44900.84
551.51	45778.54
551.68	45532.78
551.84	45317.45
552.01	44772.11
552.18	45364.26
552.34	44828.28
552.51	45303.41
552.68	45551.51
552.84	45607.68
553.01	45769.18
553.18	45598.32
553.34	45539.80
553.51	45504.70
553.67	45778.54
553.84	45841.73
554.01	46347.29
554.17	45701.30
554.34	45762.15
554.51	45771.52
554.67	45972.80
554.84	45584.27
555.00	45265.96
555.17	45834.71
555.33	45872.16
555.50	45734.07
555.67	46052.38
555.83	45731.73
556.00	46234.94
556.16	46288.77
556.33	46010.25
556.50	46160.05
556.66	46155.36
556.83	45439.16
556.99	46174.09
557.16	45965.78
557.32	45918.97
557.49	46330.90
557.65	45703.64
557.82	46211.54
557.98	46040.68
558.15	46209.20
558.32	46087.49
558.48	45909.61
558.65	46213.88
558.81	46307.50
558.98	46028.98
559.14	46007.91
559.31	46335.59
559.47	46284.09
559.64	46270.05
559.80	46571.98
559.97	46419.84
560.13	46349.63
560.30	46080.47
560.46	46529.85
560.63	46609.43
560.79	46394.10
560.96	46632.83
561.12	46438.57
561.29	46696.03
561.45	46614.11
561.61	46855.18
561.78	46389.42
561.94	46569.64
562.11	46363.67
562.27	46337.93
562.44	46260.69
562.60	46873.91
562.77	46953.49
562.93	46410.48
563.10	46469.00
563.26	46466.66
563.42	46801.35
563.59	46602.41
563.75	46553.26
563.92	46461.97
564.08	47082.22
564.24	46986.25
564.41	47171.16
564.57	46806.03
564.74	46714.75
564.90	47344.36
565.07	46525.17
565.23	46815.40
565.39	46550.91
565.56	46728.80
565.72	46618.79
565.88	46773.27
566.05	46403.46
566.21	46480.70
566.38	47051.79
566.54	46794.33
566.70	46857.52
566.87	47522.24
567.03	46852.84
567.19	47543.30
567.36	47040.09
567.52	46546.23
567.68	46902.00
567.85	47000.30
568.01	46618.79
568.17	46864.55
568.34	46911.36
568.50	46490.06
568.66	46803.69
568.83	46885.61
568.99	46948.81
569.15	47058.81
569.32	46813.05
569.48	46707.73
569.64	47367.76
569.81	47040.09
569.97	46831.78
570.13	47040.09
570.30	46885.61
570.46	46504.10
570.62	46747.52
570.78	46593.04
570.95	46546.23
571.11	46768.58
571.27	46277.07
571.43	47079.88
571.60	47129.03
571.76	46923.06
571.92	47150.09
572.09	47033.07
572.25	47201.58
572.41	46756.88
572.57	47566.71
572.74	47648.63
572.90	47454.36
573.06	47007.32
573.22	47253.08
573.38	47290.52
573.55	47337.33
573.71	47196.90
573.87	47086.90
574.03	46780.29
574.20	47166.48
574.36	47100.94
574.52	46925.40
574.68	47166.48
574.84	47021.36
575.01	46782.63
575.17	46813.05
575.33	47089.24
575.49	46665.60
575.65	47278.82
575.82	47477.77
575.98	47154.77
576.14	47716.50
576.30	47536.28
576.46	47171.16
576.62	46930.08
576.79	47206.26
576.95	46588.36
577.11	46770.93
577.27	46831.78
577.43	47583.09
577.59	47105.62
577.75	47030.72
577.92	47075.19
578.08	46291.12
578.24	46894.97
578.40	46841.14
578.56	47014.34
578.72	47292.86
578.88	47739.91
579.04	47459.04
579.21	46962.85
579.37	46665.60
579.53	47243.71
579.69	46808.37
579.85	47227.33
580.01	47332.65
580.17	47166.48
580.33	47419.25
580.49	47002.64
580.65	47199.24
580.82	47171.16
580.98	46740.50
581.14	47302.23
581.30	47100.94
581.46	47313.93
581.62	47515.22
581.78	47264.78
581.94	47370.10
582.10	47239.03
582.26	47316.27
582.42	47498.83
582.58	47367.76
582.74	47173.50
582.90	47229.67
583.06	47646.29
583.22	47260.10
583.38	47318.61
583.54	47494.15
583.70	46995.62
583.86	47435.64
584.02	47243.71
584.18	47222.65
584.34	47152.43
584.50	47337.33
584.66	47353.72
584.82	46986.25
584.98	47547.98
585.14	47047.11
585.30	47224.99
585.46	47213.29
585.62	46932.42
585.78	47033.07
585.94	46934.76
586.10	47405.21
586.26	47271.80
586.42	47192.22
586.58	47430.96
586.74	47459.04
586.90	47199.24
587.06	46932.42
587.22	47580.75
587.38	47285.84
587.54	47428.62
587.70	47250.74
587.86	47157.11
588.02	47239.03
588.18	47026.04
588.34	46953.49
588.49	46763.90
588.65	46405.80
588.81	46483.04
588.97	46995.62
589.13	46698.37
589.29	47077.54
589.45	46918.38
589.61	47033.07
589.77	47262.44
589.93	47061.15
590.08	47487.13
590.24	47232.01
590.40	47744.59
590.56	47274.14
590.72	47065.83
590.88	47122.01
591.04	47468.40
591.20	47583.09
591.35	47318.61
591.51	47590.11
591.67	47508.19
591.83	47484.79
591.99	47072.85
592.15	47299.89
592.31	47072.85
592.46	47217.97
592.62	47360.74
592.78	47555.00
592.94	47580.75
593.10	47178.18
593.26	47180.52
593.41	47531.60
593.57	47243.71
593.73	47164.14
593.89	47189.88
594.05	47597.13
594.20	47152.43
594.36	47409.89
594.52	47189.88
594.68	47648.63
594.84	47426.28
594.99	47737.57
595.15	47587.77
595.31	47267.12
595.47	47419.25
595.62	47232.01
595.78	47377.12
595.94	47868.64
596.10	47662.67
596.25	47517.56
596.41	47739.91
596.57	47173.50
596.73	47934.17
596.88	47613.52
597.04	47442.66
597.20	47480.11
597.36	46986.25
597.51	47482.45
597.67	47255.42
597.83	47606.50
597.99	47606.50
598.14	47248.39
598.30	47028.38
598.46	47318.61
598.61	47667.35
598.77	47494.15
598.93	47295.21
599.09	47407.55
599.24	47608.84
599.40	47564.37
599.56	47159.45
599.71	47868.64
599.87	47758.63
600.03	47241.37
600.18	47435.64
600.34	47409.89
600.50	47732.89
600.65	47391.17
600.81	47501.17
600.97	47578.41
601.12	47805.44
601.28	47620.54
601.44	47194.56
601.59	46972.21
601.75	47353.72
601.91	47606.50
602.06	47332.65
602.22	47133.71
602.37	47276.48
602.53	47562.03
602.69	47814.80
602.84	47533.94
603.00	47318.61
603.16	47547.98
603.31	47377.12
603.47	47313.93
603.62	47421.59
603.78	47208.61
603.94	47564.37
604.09	47437.98
604.25	47379.46
604.40	47377.12
604.56	47388.83
604.71	47250.74
604.87	46995.62
605.03	47849.91
605.18	47501.17
605.34	47484.79
605.49	47274.14
605.65	47171.16
605.80	47545.64
605.96	47189.88
606.12	47346.70
606.27	47325.63
606.43	47077.54
606.58	47426.28
606.74	47477.77
606.89	47646.29
607.05	47257.76
607.20	46923.06
607.36	47229.67
607.51	47435.64
607.67	47243.71
607.82	47131.37
607.98	47002.64
608.13	46848.16
608.29	46873.91
608.44	46623.47
608.60	46567.30
608.75	47009.66
608.91	46997.96
609.06	46937.10
609.22	47426.28
609.37	46618.79
609.53	46988.60
609.68	46866.89
609.84	46607.09
609.99	46768.58
610.15	46581.34
610.30	46277.07
610.46	46499.42
610.61	46878.59
610.76	46749.86
610.92	46955.83
611.07	46274.73
611.23	46569.64
611.38	47210.95
611.54	46759.22
611.69	46564.96
611.84	46478.36
612.00	46515.81
612.15	46337.93
612.31	46450.27
612.46	46314.52
612.62	46890.29
612.77	46625.81
612.92	46621.13
613.08	46529.85
613.23	46586.02
613.39	46335.59
613.54	46061.74
613.69	46010.25
613.85	46712.41
614.00	46672.62
614.15	46747.52
614.31	46452.61
614.46	46586.02
614.62	46511.13
614.77	46356.65
614.92	46288.77
615.08	46040.68
615.23	46480.70
615.38	46167.07
615.54	45766.84
615.69	45790.24
615.84	45970.46
616.00	46330.90
616.15	46146.00
616.30	45715.34
616.46	45769.18
616.61	45647.47
616.76	45528.10
616.92	45750.45
617.07	45769.18
617.22	45481.29
617.37	45242.56
617.53	46202.18
617.68	45858.12
617.83	46134.30
617.99	45745.77
618.14	45888.54
618.29	45818.33
618.45	45336.18
618.60	46047.70
618.75	45284.68
618.90	45715.34
619.06	45724.71
619.21	45654.49
619.36	45762.15
619.51	46050.04
619.67	45500.01
619.82	45689.60
619.97	45483.63
620.12	45418.10
620.28	45177.02
620.43	45361.92
620.58	45404.05
620.73	45212.13
620.89	45244.90
621.04	45488.31
621.19	45059.99
621.34	45074.04
621.49	44875.09
621.65	44868.07
621.80	45542.14
621.95	44690.19
622.10	44968.71
622.25	45205.11
622.41	45095.10
622.56	45092.76
622.71	44790.83
622.86	44961.69
623.01	44861.05
623.16	45368.94
623.32	45118.51
623.47	45258.94
623.62	45125.53
623.77	44886.79
623.92	44790.83
624.07	44713.59
624.23	44402.30
624.38	44282.94
624.53	44631.68
624.68	44617.63
624.83	44758.06
624.98	44781.47
625.13	44538.05
625.29	44655.08
625.44	44467.84
625.59	44444.43
625.74	44186.97
625.89	43938.88
626.04	44252.51
626.19	44259.53
626.34	44072.29
626.49	44060.58
626.65	44098.03
626.80	44329.75
626.95	43796.10
627.10	43739.93
627.25	43985.69
627.40	43489.49
627.55	43646.31
627.70	43969.30
627.85	43445.02
628.00	43901.43
628.15	43847.60
628.30	43388.85
628.45	44184.63
628.60	43749.29
628.76	43828.87
628.91	44093.35
629.06	43761.00
629.21	43470.77
629.36	43349.06
629.51	43498.86
629.66	43117.35
629.81	43402.89
629.96	43639.29
630.11	43377.15
630.26	43583.12
630.41	43487.15
630.56	43168.84
630.71	43924.83
630.86	43299.91
631.01	43332.68
631.16	43084.58
631.31	42852.87
631.46	43208.63
631.61	43426.30
631.76	42906.70
631.91	43196.93
632.06	43332.68
632.21	43442.68
632.36	43250.76
632.51	43264.80
632.66	43096.28
632.81	42808.40
632.96	42857.55
633.10	42656.26
633.25	42836.48
633.40	42859.89
633.55	42979.26
633.70	43157.14
633.85	42621.16
634.00	43222.67
634.15	42993.30
634.30	43012.02
634.45	42616.47
634.60	42796.70
634.75	42672.65
634.90	42459.66
635.05	42637.54
635.19	42820.10
635.34	42593.07
635.49	42520.51
635.64	42288.80
635.79	42321.57
635.94	42394.12
636.09	42356.67
636.24	42260.71
636.39	42237.31
636.53	42223.26
636.68	42433.91
636.83	42553.28
636.98	42260.71
637.13	42110.92
637.28	42497.11
637.43	42501.79
637.57	42848.19
637.72	42082.83
637.87	42298.16
638.02	42630.52
638.17	41865.16
638.32	42043.04
638.46	41539.83
638.61	42244.33
638.76	42113.26
638.91	42031.34
639.06	41825.37
639.20	41837.08
639.35	42171.77
639.50	41928.36
639.65	42174.11
639.80	41965.81
639.94	42087.51
640.09	41844.10
640.24	41193.43
640.39	41254.28
640.54	41364.29
640.68	41874.52
640.83	41441.53
640.98	41724.73
641.13	41394.71
641.27	41560.89
641.42	41401.74
641.57	41893.25
641.72	41425.14
641.86	41364.29
642.01	41113.85
642.16	41504.72
642.31	40854.05
642.45	41331.52
642.60	41375.99
642.75	41219.17
642.90	40961.72
643.04	41336.20
643.19	41137.26
643.34	41106.83
643.48	41191.09
643.63	41406.42
643.78	41003.85
643.93	40758.09
644.07	40388.28
644.22	40870.43
644.37	40762.77
644.51	40898.52
644.66	40996.82
644.81	40837.67
644.95	41439.18
645.10	40933.63
645.25	40863.41
645.39	40840.01
645.54	41057.68
645.69	40605.95
645.83	40889.16
645.98	40790.86
646.13	40856.39
646.27	40535.74
646.42	40250.19
646.57	40589.57
646.71	40472.54
646.86	40453.82
647.00	40708.94
647.15	40252.53
647.30	40596.59
647.44	40699.58
647.59	40713.62
647.74	40093.38
647.88	40289.98
648.03	40002.10
648.17	40194.02
648.32	39775.06
648.47	40084.01
648.61	39707.19
648.76	40275.94
648.90	40533.40
649.05	40184.66
649.20	40098.06
649.34	40128.48
649.49	40016.14
649.63	40109.76
649.78	39690.80
649.92	39840.60
650.07	40069.97
650.21	39831.24
650.36	40004.44
650.51	39892.09
650.65	40098.06
650.80	40161.25
650.94	40264.24
651.09	39772.72
651.23	39503.56
651.38	39613.57
651.52	39810.17
651.67	39541.01
651.81	39445.05
651.96	39332.70
652.10	39152.48
652.25	38913.75
652.39	39112.69
652.54	39292.91
652.68	39796.13
652.83	39435.69
652.97	39615.91
653.12	39407.60
653.26	39564.42
653.41	39239.08
653.55	38967.58
653.70	39007.37
653.84	39093.97
653.99	39056.52
654.13	39065.88
654.27	39065.88
654.42	39126.74
654.56	39093.97
654.71	38918.43
654.85	39093.97
655.00	39232.06
655.14	38920.77
655.29	38721.82
655.43	38492.45
655.57	38740.55
655.72	38593.09
655.86	38164.78
656.01	38279.46
656.15	38541.60
656.30	38124.99
656.44	38375.42
656.58	38447.98
656.73	38637.56
656.87	38047.75
657.01	37900.29
657.16	38213.93
657.30	38419.89
657.45	37977.53
657.59	38543.94
657.73	38501.81
657.88	38279.46
658.02	38417.55
658.16	38455.00
658.31	38567.35
658.45	38401.17
658.60	37785.61
658.74	38293.50
658.88	38115.62
659.03	37977.53
659.17	37886.25
659.31	37830.08
659.46	37727.10
659.60	38099.24
659.74	37399.42
659.89	37654.54
660.03	37600.71
660.17	37401.76
660.32	37525.81
660.46	37516.45
660.60	37572.62
660.74	37446.23
660.89	37535.17
661.03	37331.54
661.17	37071.75
661.32	37528.15
661.46	37013.23
661.60	36905.57
661.74	37404.10
661.89	37247.29
662.03	37479.00
662.17	37006.21
662.31	36657.47
662.46	37284.73
662.60	37329.20
662.74	36980.46
662.88	36910.25
663.03	36673.85
663.17	36809.61
663.31	36212.77
663.45	37064.72
663.60	36580.23
663.74	36739.39
663.88	36624.70
664.02	36116.81
664.17	36505.34
664.31	36149.57
664.45	36617.68
664.59	36254.90
664.73	36102.76
664.88	36147.23
665.02	35997.44
665.16	36238.51
665.30	35849.99
665.44	36004.46
665.59	35552.74
665.73	35906.16
665.87	35723.60
666.01	35590.19
666.15	35943.61
666.29	36102.76
666.44	35924.88
666.58	35496.56
666.72	35651.04
666.86	35784.45
667.00	35543.38
667.14	35110.38
667.28	35229.74
667.43	35185.27
667.57	35173.57
667.71	34972.28
667.85	35218.04
667.99	34773.34
668.13	34445.66
668.27	34808.45
668.41	34550.99
668.56	34693.76
668.70	34892.71
668.84	34864.62
668.98	34808.45
669.12	34412.90
669.26	34754.61
669.40	34658.65
669.54	34529.92
669.68	34646.95
669.82	34473.75
669.96	33944.79
670.10	33816.06
670.25	34218.63
670.39	34272.46
670.53	33914.36
670.67	33546.90
670.81	34199.91
670.95	34139.05
671.09	33916.70
671.23	33703.71
671.37	34134.37
671.51	33523.49
671.65	33804.36
671.79	33659.24
671.93	33205.18
672.07	33523.49
672.21	33546.90
672.35	32737.07
672.49	33111.56
672.63	33134.96
672.77	32608.34
672.91	32945.38
673.05	32929.00
673.19	32795.59
673.33	32905.59
673.47	32968.79
673.61	32723.03
673.75	32488.98
673.89	32203.43
674.03	31936.61
674.17	31995.12
674.31	31894.48
674.45	31894.48
674.59	32018.53
674.73	32175.34
674.87	32203.43
675.01	32194.07
675.15	31929.59
675.29	31913.20
675.43	31756.39
675.56	31915.54
675.70	31515.31
675.84	31557.44
675.98	30700.81
676.12	31307.01
676.26	31498.93
676.40	30735.92
676.54	30810.81
676.68	31110.40
676.82	30511.22
676.96	30866.98
677.10	30462.07
677.23	30368.45
677.37	30338.02
677.51	30623.57
677.65	30548.67
677.79	30160.14
677.93	30164.82
678.07	30356.75
678.21	29853.53
678.34	29921.41
678.48	29853.53
678.62	29923.75
678.76	29495.43
678.90	29394.79
679.04	29305.85
679.18	29603.10
679.31	29289.46
679.45	29186.48
679.59	28713.69
679.73	28954.77
679.87	29193.50
680.00	29287.12
680.14	28788.59
680.28	28538.15
680.42	28353.25
680.56	28809.65
680.70	28360.27
680.83	27992.81
680.97	28247.93
681.11	28006.85
681.25	27627.68
681.39	28013.87
681.52	27814.93
681.66	27592.58
681.80	27669.81
681.94	27585.55
682.07	27274.26
682.21	27278.94
682.35	27414.69
682.49	27133.83
682.62	27562.15
682.76	27290.65
682.90	27103.40
683.04	27316.39
683.17	26710.19
683.31	26651.68
683.45	26651.68
683.59	26576.78
683.72	26099.31
683.86	26375.50
684.00	26085.27
684.13	26649.34
684.27	26267.83
684.41	25928.45
684.55	25759.94
684.68	25752.91
684.82	25553.97
684.96	25827.81
685.09	25301.19
685.23	25530.56
685.37	25376.09
685.50	25366.73
685.64	25591.42
685.78	25149.06
685.91	25289.49
686.05	25020.33
686.19	24676.27
686.32	24673.93
686.46	24276.04
686.60	24240.93
686.73	24163.69
686.87	23672.18
687.01	24123.90
687.14	23777.50
687.28	23475.57
687.42	23482.59
687.55	23475.57
687.69	23765.80
687.82	23786.86
687.96	23709.63
688.10	23433.44
688.23	23236.84
688.37	23304.71
688.50	22857.67
688.64	23204.07
688.78	22955.97
688.91	22890.44
689.05	22625.96
689.18	22443.40
689.32	22373.18
689.46	22539.36
689.59	22939.59
689.73	22656.39
689.86	22443.40
690.00	22717.24
690.13	22352.12
690.27	22258.49
690.41	22120.40
690.54	21673.36
690.68	21930.82
690.81	21535.27
690.95	21762.30
691.08	21715.49
691.22	21605.49
691.35	21570.38
691.49	21530.59
691.62	21867.63
691.76	21591.44
691.89	21202.91
692.03	21081.21
692.16	21380.79
692.30	20936.09
692.43	21216.96
692.57	20762.89
692.70	20908.01
692.84	20470.33
692.97	20603.74
693.11	20486.71
693.24	20341.60
693.38	20058.39
693.51	20018.60
693.65	20311.17
693.78	20292.44
693.92	19864.13
694.05	20304.15
694.19	19529.43
694.32	19805.61
694.45	19901.58
694.59	19793.91
694.72	19421.77
694.86	19377.30
694.99	19232.18
695.13	19386.66
695.26	19161.97
695.39	19199.41
695.53	19302.40
695.66	19089.41
695.80	18881.10
695.93	18785.14
696.07	18644.71
696.20	19054.30
696.33	18850.67
696.47	18726.63
696.60	18670.45
696.73	18565.13
696.87	18319.37
697.00	18314.69
697.14	18204.69
697.27	17853.61
697.40	18054.89
697.54	18225.75
697.67	17912.12
697.80	17724.88
697.94	17954.25
698.07	17612.53
698.21	17593.81
698.34	17446.35
698.47	17408.90
698.61	17277.83
698.74	17050.80
698.87	17418.27
699.01	17041.44
699.14	17238.05
699.27	17114.00
699.40	16994.63
699.54	16968.88
699.67	16720.79
699.80	16702.06
699.94	16425.88
700.07	16755.90
700.20	16128.63
700.34	16184.80
700.47	16238.64
700.60	16439.92
700.73	16451.63
700.87	16044.37
701.00	16077.14
701.13	16063.10
701.26	15901.60
701.40	15829.04
701.53	15822.02
701.66	15887.56
701.79	15667.55
701.93	15606.69
702.06	15637.12
702.19	15344.55
702.32	15185.40
702.46	15414.77
702.59	15501.37
702.72	15241.57
702.85	15241.57
702.99	15087.09
703.12	15091.77
703.25	14890.49
703.38	14789.85
703.51	14834.32
703.65	14927.94
703.78	14520.68
703.91	14808.57
704.04	14499.62
704.17	14473.87
704.31	14438.76
704.44	14197.69
704.57	14260.88
704.70	14258.54
704.83	14113.43
704.96	14352.16
705.10	14132.15
705.23	14099.39
>>>>>End Processed Spectral Data<<<<<
