SpectraSuite Data File
++++++++++++++++++++++++++++++++++++
Date: Fri Oct 25 10:48:08 EDT 2013
User: price-jones
Dark Spectrum Present: No
Reference Spectrum Present: No
Number of Sampled Component Spectra: 1
Spectrometers: USB2+H05261
Integration Time (usec): 100000 (USB2+H05261)
Spectra Averaged: 1 (USB2+H05261)
Boxcar Smoothing: 0 (USB2+H05261)
Correct for Electrical Dark: No (USB2+H05261)
Strobe/Lamp Enabled: No (USB2+H05261)
Correct for Detector Non-linearity: No (USB2+H05261)
Correct for Stray Light: No (USB2+H05261)
Number of Pixels in Processed Spectrum: 2048
>>>>>Begin Processed Spectral Data<<<<<
365.73	102.98
365.92	102.98
366.12	102.98
366.32	74.90
366.52	49.15
366.72	65.54
366.91	0.00
367.11	0.00
367.31	49.15
367.51	79.58
367.70	0.00
367.90	30.43
368.10	91.28
368.30	44.47
368.49	133.41
368.69	105.32
368.89	37.45
369.09	58.51
369.28	124.05
369.48	39.79
369.68	60.85
369.87	149.79
370.07	114.69
370.27	156.82
370.47	145.11
370.66	374.49
370.86	430.66
371.06	433.00
371.25	463.43
371.45	362.78
371.65	524.28
371.84	475.13
372.04	421.30
372.24	404.91
372.44	514.92
372.63	486.83
372.83	571.09
373.03	479.81
373.22	482.15
373.42	519.60
373.62	535.98
373.81	519.60
374.01	533.64
374.21	559.39
374.40	533.64
374.60	528.96
374.79	514.92
374.99	547.69
375.19	587.47
375.38	505.56
375.58	477.47
375.78	533.64
375.97	411.93
376.17	582.79
376.37	622.58
376.56	608.54
376.76	634.29
376.95	606.20
377.15	631.94
377.35	613.22
377.54	599.18
377.74	681.10
377.93	681.10
378.13	589.82
378.33	615.56
378.52	608.54
378.72	631.94
378.91	643.65
379.11	608.54
379.31	653.01
379.50	566.41
379.70	617.90
379.89	631.94
380.09	643.65
380.28	566.41
380.48	606.20
380.68	699.82
380.87	631.94
381.07	587.47
381.26	727.91
381.46	608.54
381.65	699.82
381.85	688.12
382.04	692.80
382.24	744.29
382.43	730.25
382.63	662.37
382.83	716.20
383.02	692.80
383.22	748.97
383.41	744.29
383.61	758.33
383.80	688.12
384.00	723.23
384.19	716.20
384.39	755.99
384.58	758.33
384.78	779.40
384.97	746.63
385.17	795.78
385.36	702.16
385.56	755.99
385.75	695.14
385.95	770.04
386.14	826.21
386.34	791.10
386.53	800.46
386.72	732.59
386.92	903.45
387.11	898.77
387.31	828.55
387.50	709.18
387.70	744.29
387.89	748.97
388.09	748.97
388.28	807.48
388.48	751.31
388.67	798.12
388.86	840.25
389.06	802.80
389.25	891.74
389.45	959.62
389.64	919.83
389.84	915.15
390.03	875.36
390.22	896.43
390.42	880.04
390.61	924.51
390.81	863.66
391.00	950.26
391.19	1020.47
391.39	964.30
391.58	919.83
391.78	901.11
391.97	929.19
392.16	910.47
392.36	884.72
392.55	1029.84
392.75	940.90
392.94	880.04
393.13	966.64
393.33	978.34
393.52	957.28
393.71	1064.94
393.91	1006.43
394.10	1053.24
394.29	1062.60
394.49	1067.28
394.68	1034.52
394.88	1104.73
395.07	1095.37
395.26	1071.97
395.46	1125.80
395.65	1062.60
395.84	1200.69
396.04	1095.37
396.23	1060.26
396.42	1114.10
396.62	1135.16
396.81	1128.14
397.00	1109.41
397.19	1114.10
397.39	1217.08
397.58	1219.42
397.77	1235.80
397.97	1263.89
398.16	1153.88
398.35	1210.06
398.55	1247.51
398.74	1334.11
398.93	1348.15
399.12	1406.66
399.32	1277.93
399.51	1357.51
399.70	1369.21
399.90	1406.66
400.09	1294.32
400.28	1296.66
400.47	1359.85
400.67	1380.92
400.86	1348.15
401.05	1371.55
401.24	1448.79
401.44	1500.28
401.63	1416.02
401.82	1544.75
402.01	1411.34
402.21	1479.22
402.40	1467.52
402.59	1472.20
402.78	1488.58
402.97	1495.60
403.17	1554.12
403.36	1565.82
403.55	1570.50
403.74	1537.73
403.93	1603.27
404.13	1591.56
404.32	1685.19
404.51	1507.30
404.70	1626.67
404.89	1680.50
405.09	1762.42
405.28	1631.35
405.47	1582.20
405.66	1614.97
405.85	1799.87
406.05	1694.55
406.24	1741.36
406.43	1818.60
406.62	1839.66
406.81	1813.92
407.00	1781.15
407.20	1879.45
407.39	1888.81
407.58	1842.00
407.77	1816.26
407.96	1947.33
408.15	1851.36
408.34	1881.79
408.54	1970.73
408.73	1956.69
408.92	1891.15
409.11	2040.95
409.30	2031.58
409.49	1996.48
409.68	2045.63
409.87	2010.52
410.07	2043.29
410.26	2122.87
410.45	2190.74
410.64	1996.48
410.83	2069.03
411.02	2097.12
411.21	2237.55
411.40	2214.15
411.59	2340.54
411.78	2291.38
411.98	2249.25
412.17	2321.81
412.36	2363.94
412.55	2270.32
412.74	2314.79
412.93	2389.69
413.12	2450.54
413.31	2427.14
413.50	2520.76
413.69	2504.37
413.88	2551.18
414.07	2530.12
414.26	2513.74
414.45	2551.18
414.64	2612.04
414.83	2675.23
415.02	2537.14
415.22	2597.99
415.41	2705.66
415.60	2715.02
415.79	2752.47
415.98	2775.88
416.17	2806.30
416.36	2799.28
416.55	2801.62
416.74	2825.03
416.93	2911.63
417.12	2862.48
417.31	2965.46
417.50	2883.54
417.69	3075.46
417.88	2972.48
418.07	2902.26
418.26	3068.44
418.45	3070.78
418.64	3213.56
418.83	3014.61
419.02	3133.98
419.21	3148.02
419.39	3260.37
419.58	3021.63
419.77	3073.12
419.96	3199.51
420.15	3112.91
420.34	3262.71
420.53	3201.85
420.72	3449.95
420.91	3389.10
421.10	3384.41
421.29	3403.14
421.48	3164.40
421.67	3421.86
421.86	3288.45
422.05	3283.77
422.24	3349.31
422.43	3407.82
422.61	3454.63
422.80	3368.03
422.99	3468.67
423.18	3492.08
423.37	3419.52
423.56	3503.78
423.75	3428.88
423.94	3363.35
424.13	3262.71
424.32	3302.50
424.50	3576.34
424.69	3585.70
424.88	3536.55
425.07	3447.61
425.26	3442.93
425.45	3471.01
425.64	3534.21
425.83	3524.85
426.01	3468.67
426.20	3478.04
426.39	3550.59
426.58	3438.25
426.77	3529.53
426.96	3630.17
427.15	3508.46
427.33	3662.94
427.52	3557.61
427.71	3602.08
427.90	3658.26
428.09	3742.52
428.28	3662.94
428.46	3723.79
428.65	3721.45
428.84	3836.14
429.03	3768.26
429.22	3669.96
429.40	3688.68
429.59	3763.58
429.78	3492.08
429.97	3566.98
430.16	3822.09
430.34	3698.05
430.53	3838.48
430.72	3805.71
430.91	3735.50
431.10	3817.41
431.28	3880.61
431.47	3915.72
431.66	4067.85
431.85	4004.66
432.03	4049.13
432.22	4131.05
432.41	4184.88
432.60	4168.49
432.79	4037.42
432.97	4070.19
433.16	4177.86
433.35	4063.17
433.54	4311.27
433.72	4126.36
433.91	4184.88
434.10	4344.03
434.28	4163.81
434.47	4332.33
434.66	4278.50
434.85	4313.61
435.03	4418.93
435.22	4402.55
435.41	4535.96
435.59	4554.68
435.78	4486.81
435.97	4498.51
436.16	4533.62
436.34	4369.78
436.53	4517.23
436.72	4596.81
436.90	4432.97
437.09	4535.96
437.28	4447.02
437.46	4571.07
437.65	4477.44
437.84	4713.84
438.02	4685.75
438.21	4725.54
438.40	4580.43
438.58	4830.87
438.77	4919.81
438.96	4840.23
439.14	4957.25
439.33	4901.08
439.52	4978.32
439.70	4957.25
439.89	5025.13
440.08	4940.87
440.26	5097.69
440.45	5116.41
440.63	5170.24
440.82	5226.42
441.01	5284.93
441.19	5359.83
441.38	5336.42
441.57	5102.37
441.75	5451.11
441.94	5556.43
442.12	5540.05
442.31	5598.56
442.50	5476.85
442.68	5511.96
442.87	5598.56
443.05	5633.67
443.24	5738.99
443.43	5661.76
443.61	5603.24
443.80	5813.89
443.98	5549.41
444.17	5437.06
444.35	5720.27
444.54	5746.02
444.73	5771.76
444.91	5792.83
445.10	5593.88
445.28	5628.99
445.47	5460.47
445.65	5799.85
445.84	5729.63
446.02	5886.45
446.21	5790.49
446.39	5839.64
446.58	5944.96
446.77	5760.06
446.95	5750.70
447.14	5973.05
447.32	5853.68
447.51	5813.89
447.69	5867.72
447.88	5799.85
448.06	5753.04
448.25	6040.92
448.43	6106.46
448.62	5914.53
448.80	5799.85
448.99	6214.12
449.17	6064.33
449.36	5902.83
449.54	6043.26
449.73	5998.79
449.91	6230.51
450.10	6169.65
450.28	6328.81
450.46	6429.45
450.65	6094.76
450.83	6225.82
451.02	6396.68
451.20	6366.26
451.39	6319.45
451.57	6235.19
451.76	6286.68
451.94	6420.09
452.13	6408.39
452.31	6171.99
452.49	6408.39
452.68	6356.90
452.86	6392.00
453.05	6375.62
453.23	6214.12
453.42	6436.47
453.60	6438.81
453.78	6548.82
453.97	6406.05
454.15	6438.81
454.34	6544.14
454.52	6579.25
454.70	6684.57
454.89	6525.41
455.07	6614.35
455.26	6647.12
455.44	6876.49
455.62	6792.23
455.81	6689.25
455.99	6825.00
456.17	6993.52
456.36	6604.99
456.54	7009.90
456.73	7124.59
456.91	6942.03
457.09	7021.61
457.28	7138.63
457.46	7145.66
457.64	7227.57
457.83	7110.55
458.01	7155.02
458.19	7356.30
458.38	7304.81
458.56	7325.88
458.74	7246.30
458.93	7157.36
459.11	7225.23
459.29	7330.56
459.48	7447.58
459.66	7384.39
459.84	7452.27
460.03	7588.02
460.21	7375.03
460.39	7578.65
460.57	7644.19
460.76	7527.16
460.94	7585.68
461.12	7431.20
461.31	7791.64
461.49	7833.77
461.67	7688.66
461.85	7843.14
462.04	7779.94
462.22	8411.89
462.40	7894.63
462.59	7911.01
462.77	7885.26
462.95	7761.22
463.13	7763.56
463.32	7911.01
463.50	7868.88
463.68	7990.59
463.86	8119.32
464.05	7868.88
464.23	7941.44
464.41	8081.87
464.59	8023.36
464.78	8215.28
464.96	7936.76
465.14	8119.32
465.32	8093.57
465.50	8285.50
465.69	8257.41
465.87	8074.85
466.05	8203.58
466.23	8121.66
466.41	8329.97
466.60	8505.51
466.78	8159.11
466.96	8056.12
467.14	8086.55
467.32	8531.25
467.51	8404.86
467.69	8163.79
467.87	8362.73
468.05	8634.24
468.23	8372.10
468.41	8189.53
468.60	8472.74
468.78	8449.33
468.96	8346.35
469.14	8812.12
469.32	8922.12
469.50	8395.50
469.69	8741.90
469.87	8709.13
470.05	9029.79
470.23	8840.20
470.41	8709.13
470.59	9090.64
470.77	8826.16
470.95	8940.85
471.14	8903.40
471.32	8765.31
471.50	9179.58
471.68	8917.44
471.86	9095.32
472.04	9092.98
472.22	9315.33
472.40	9242.78
472.58	9376.19
472.77	9303.63
472.95	9380.87
473.13	9722.59
473.31	9392.57
473.49	9408.95
473.67	9474.49
473.85	9479.17
474.03	9846.63
474.21	9827.91
474.39	9884.08
474.57	9617.26
474.75	9900.47
474.93	9991.75
475.12	9893.44
475.30	10277.29
475.48	10153.24
475.66	9963.66
475.84	10040.90
476.02	10155.58
476.20	10284.31
476.38	10494.96
476.56	10764.12
476.74	10562.84
476.92	10530.07
477.10	10483.26
477.28	10724.33
477.46	10764.12
477.64	10794.55
477.82	11035.63
478.00	11414.79
478.18	11377.34
478.36	11138.61
478.54	11360.96
478.72	11494.37
478.90	11599.70
479.08	11517.78
479.26	11623.10
479.44	11815.02
479.62	11789.28
479.80	11908.65
479.98	11929.71
480.16	12280.79
480.34	12086.53
480.52	12233.98
480.70	12142.70
480.88	12278.45
481.06	12145.04
481.24	12379.09
481.41	12709.11
481.59	12814.43
481.77	12840.18
481.95	13027.42
482.13	13062.53
482.31	12718.47
482.49	13341.05
482.67	13319.99
482.85	13341.05
483.03	13685.11
483.21	13680.43
483.39	13731.92
483.57	13881.72
483.74	13860.65
483.92	14003.43
484.10	14136.84
484.28	14267.91
484.46	14588.56
484.64	14621.33
484.82	14523.02
485.00	14516.00
485.18	14747.72
485.35	14726.65
485.53	14724.31
485.71	14897.51
485.89	15119.86
486.07	15098.80
486.25	15431.15
486.43	15552.86
486.61	15552.86
486.78	15550.52
486.96	15770.53
487.14	16142.67
487.32	15953.09
487.50	16376.73
487.68	16552.27
487.85	16566.31
488.03	16746.53
488.21	16823.77
488.39	16844.84
488.57	16793.34
488.75	17240.39
488.92	17109.32
489.10	17579.76
489.28	17713.17
489.46	17729.56
489.64	17666.36
489.81	17914.46
489.99	18073.62
490.17	18424.70
490.35	17998.72
490.53	18403.63
490.70	18565.13
490.88	18574.49
491.06	18792.16
491.24	18810.89
491.41	18860.04
491.59	19035.58
491.77	19009.83
491.95	19115.16
492.13	19576.24
492.30	19449.85
492.48	19585.60
492.66	19667.52
492.84	19672.20
493.01	19981.15
493.19	19880.51
493.37	20191.80
493.54	20414.15
493.72	20318.19
493.90	20299.47
494.08	20449.26
494.25	20702.04
494.43	20830.77
494.61	21214.62
494.79	21399.52
494.96	21050.78
495.14	21125.68
495.32	21436.97
495.49	21736.56
495.67	21710.81
495.85	21687.40
496.02	21954.22
496.20	22043.17
496.38	22132.11
496.55	22263.18
496.73	22656.39
496.91	22314.67
497.09	22654.05
497.26	22810.86
497.44	22551.06
497.62	22885.76
497.79	23241.52
497.97	22855.33
498.14	23351.52
498.32	23211.09
498.50	23709.63
498.67	23260.24
498.85	23718.99
499.03	24254.97
499.20	23728.35
499.38	23601.96
499.56	23967.09
499.73	23899.21
499.91	24390.72
500.08	24320.51
500.26	24187.10
500.44	24091.13
500.61	24233.91
500.79	24432.85
500.97	24856.49
501.14	25230.98
501.32	25020.33
501.49	24755.85
501.67	24812.02
501.84	25172.46
502.02	24755.85
502.20	25144.38
502.37	25811.43
502.55	25474.39
502.72	25598.44
502.90	25465.03
503.07	25600.78
503.25	26038.46
503.43	25633.55
503.60	26003.35
503.78	25956.54
503.95	26235.06
504.13	26012.71
504.30	25947.18
504.48	26078.25
504.65	26099.31
504.83	26600.19
505.01	27236.81
505.18	26249.11
505.36	27023.83
505.53	26876.37
505.71	27166.60
505.88	27150.21
506.06	26663.38
506.23	26698.49
506.41	27110.43
506.58	27356.18
506.76	27292.99
506.93	27578.53
507.11	27445.12
507.28	27711.94
507.46	27449.80
507.63	27742.37
507.81	28016.21
507.98	27625.34
508.16	28095.79
508.33	28095.79
508.50	27812.59
508.68	28442.19
508.85	28329.84
509.03	28133.24
509.20	28645.82
509.38	28643.48
509.55	28830.72
509.73	28875.19
509.90	28844.76
510.08	28933.70
510.25	28891.57
510.42	28797.95
510.60	28905.62
510.77	29359.68
510.95	29467.34
511.12	29310.53
511.30	29661.61
511.47	29504.79
511.64	29284.78
511.82	29902.68
511.99	29750.55
512.17	29984.60
512.34	29872.26
512.51	29942.47
512.69	30328.66
512.86	30202.27
513.04	30707.83
513.21	30335.68
513.38	30569.74
513.56	30611.87
513.73	30529.95
513.90	30576.76
514.08	30246.74
514.25	30649.32
514.43	30459.73
514.60	30988.69
514.77	30567.40
514.95	30969.97
515.12	30876.35
515.29	30918.48
515.47	31665.11
515.64	31550.42
515.81	30881.03
515.99	31246.15
516.16	31470.84
516.33	31541.06
516.51	31243.81
516.68	31072.95
516.85	31330.41
517.03	31625.32
517.20	31634.68
517.37	31683.83
517.54	31967.04
517.72	32009.17
517.89	32191.73
518.06	32165.98
518.24	31896.82
518.41	32025.55
518.58	31859.37
518.75	32306.41
518.93	32694.94
519.10	32320.46
519.27	32393.01
519.45	32645.79
519.62	32598.98
519.79	32563.87
519.96	32978.15
520.14	33291.78
520.31	33046.02
520.48	32917.29
520.65	33006.23
520.83	33457.96
521.00	33289.44
521.17	33240.29
521.34	33308.16
521.52	33626.48
521.69	33504.77
521.86	33511.79
522.03	33986.92
522.20	33727.12
522.38	33792.65
522.55	33909.68
522.72	33773.93
522.89	34244.38
523.07	34155.44
523.24	34022.03
523.41	34040.75
523.58	34361.40
523.75	34410.56
523.92	34579.07
524.10	34218.63
524.27	34668.02
524.44	34429.28
524.61	34820.15
524.78	35016.75
524.96	34639.93
525.13	34951.22
525.30	35424.01
525.47	35262.51
525.64	34721.85
525.81	34691.42
525.98	35194.64
526.16	35068.25
526.33	34951.22
526.50	35068.25
526.67	34981.65
526.84	35398.26
527.01	34768.66
527.18	35395.92
527.36	35707.21
527.53	35828.92
527.70	35798.49
527.87	35929.56
528.04	35681.47
528.21	35786.79
528.38	35508.27
528.55	36282.98
528.72	36673.85
528.89	36388.31
529.07	35852.33
529.24	36374.27
529.41	36233.83
529.58	36320.43
529.75	36371.92
529.92	36371.92
530.09	36098.08
530.26	36652.79
530.43	36746.41
530.60	36538.10
530.77	36411.71
530.94	36734.71
531.11	36966.42
531.28	36842.37
531.46	36907.91
531.63	37088.13
531.80	36968.76
531.97	36730.03
532.14	36989.83
532.31	37125.58
532.48	37088.13
532.65	37249.63
532.82	36903.23
532.99	37139.62
533.16	37057.70
533.33	37794.97
533.50	38403.51
533.67	37546.87
533.84	37567.94
534.01	37467.30
534.18	37741.14
534.35	37886.25
534.52	37699.01
534.69	37567.94
534.86	37874.55
535.03	38129.67
535.20	38169.46
535.37	37944.76
535.54	38251.38
535.71	37888.59
535.88	38295.85
536.05	37621.77
536.22	38356.70
536.38	38026.68
536.55	38164.78
536.72	38637.56
536.89	38401.17
537.06	38389.47
537.23	38312.23
537.40	38497.13
537.57	38525.22
537.74	38382.45
537.91	38731.18
538.08	38436.28
538.25	38508.83
538.42	38719.48
538.59	39037.80
538.75	38506.49
538.92	39152.48
539.09	39096.31
539.26	39309.30
539.43	38913.75
539.60	39159.50
539.77	39049.50
539.94	39445.05
540.11	39040.14
540.28	39388.88
540.44	39068.22
540.61	38806.08
540.78	39112.69
540.95	39044.82
541.12	39189.93
541.29	39288.23
541.46	39255.46
541.62	39763.36
541.79	39803.15
541.96	39416.96
542.13	39658.04
542.30	39484.84
542.47	39817.19
542.63	39686.12
542.80	39859.32
542.97	40477.22
543.14	40514.67
543.31	40533.40
543.48	39859.32
543.64	40587.23
543.81	40226.79
543.98	40154.23
544.15	40545.10
544.32	40601.27
544.48	40868.09
544.65	40634.04
544.82	40559.14
544.99	40292.32
545.16	40601.27
545.32	40577.87
545.49	40769.79
545.66	40500.63
545.83	40818.94
546.00	40854.05
546.16	41036.61
546.33	40758.09
546.50	40664.47
546.67	41144.28
546.83	40395.31
547.00	41043.63
547.17	40884.48
547.34	40744.05
547.50	41155.98
547.67	41153.64
547.84	40954.69
548.00	41247.26
548.17	41350.24
548.34	41319.82
548.51	41450.89
548.67	41336.20
548.84	41233.22
549.01	41586.64
549.18	41493.02
549.34	41280.03
549.51	41642.81
549.68	41581.96
549.84	41895.59
550.01	41949.42
550.18	41258.96
550.34	41502.38
550.51	41736.43
550.68	41507.06
550.84	41663.88
551.01	41778.56
551.18	42003.25
551.34	41612.38
551.51	41731.75
551.68	41869.84
551.84	42089.85
552.01	41785.58
552.18	41865.16
552.34	41698.98
552.51	41769.20
552.68	41684.94
552.84	42272.42
553.01	42227.95
553.18	41996.23
553.34	42089.85
553.51	41778.56
553.67	42316.89
553.84	42181.13
554.01	42347.31
554.17	42380.08
554.34	42478.38
554.51	42190.50
554.67	42424.55
554.84	42553.28
555.00	41940.06
555.17	42073.47
555.33	42204.54
555.50	42738.18
555.67	42763.93
555.83	42600.09
556.00	42696.05
556.16	43246.08
556.33	42876.27
556.50	42679.67
556.66	43381.83
556.83	42609.45
556.99	43009.68
557.16	42726.48
557.32	43021.39
557.49	43107.99
557.65	42623.50
557.82	42773.29
557.98	42869.25
558.15	43330.34
558.32	43019.05
558.48	42843.51
558.65	42972.24
558.81	42955.85
558.98	43136.07
559.14	43208.63
559.31	42941.81
559.47	43786.74
559.64	43475.45
559.80	43227.35
559.97	43646.31
560.13	42995.64
560.30	43449.70
560.46	43395.87
560.63	43297.57
560.79	43346.72
560.96	43040.11
561.12	43398.21
561.29	43704.82
561.45	43119.69
561.61	43328.00
561.78	43522.26
561.94	43470.77
562.11	43166.50
562.27	43363.11
562.44	43363.11
562.60	43328.00
562.77	43484.81
562.93	43466.09
563.10	43873.34
563.26	43068.20
563.42	43739.93
563.59	43468.43
563.75	43831.21
563.92	43842.92
564.08	43728.23
564.24	43636.95
564.41	43753.97
564.57	43735.25
564.74	43885.04
564.90	44261.87
565.07	43676.74
565.23	43585.46
565.39	43784.40
565.56	44093.35
565.72	43704.82
565.88	43868.66
566.05	43585.46
566.21	44093.35
566.38	43676.74
566.54	43452.05
566.70	43810.15
566.87	44219.74
567.03	43416.94
567.19	44376.56
567.36	43945.90
567.52	43838.23
567.68	43978.67
567.85	43660.35
568.01	43723.55
568.17	43957.60
568.34	43936.54
568.50	43854.62
568.66	44037.18
568.83	43983.35
568.99	43917.81
569.15	44364.85
569.32	43952.92
569.48	43789.08
569.64	44065.27
569.81	44327.41
569.97	44037.18
570.13	44107.40
570.30	43728.23
570.46	43707.16
570.62	43552.69
570.78	43725.89
570.95	43959.94
571.11	44023.14
571.27	44257.19
571.43	44179.95
571.60	44446.77
571.76	44325.07
571.92	44032.50
572.09	44217.40
572.25	44196.34
572.41	43917.81
572.57	44306.34
572.74	44238.47
572.90	44322.72
573.06	44093.35
573.22	44411.67
573.38	43927.17
573.55	44046.54
573.71	44626.99
573.87	44189.31
574.03	44226.76
574.20	44275.91
574.36	44282.94
574.52	43983.35
574.68	44449.11
574.84	44381.24
575.01	44247.83
575.17	44516.99
575.33	43896.75
575.49	44446.77
575.65	44381.24
575.82	44409.32
575.98	44294.64
576.14	44538.05
576.30	44383.58
576.46	43868.66
576.62	44081.65
576.79	44137.82
576.95	43941.22
577.11	44027.82
577.27	44884.45
577.43	44737.00
577.59	43915.47
577.75	44144.84
577.92	44091.01
578.08	43625.25
578.24	44119.10
578.40	44484.22
578.56	44184.63
578.72	44437.41
578.88	44238.47
579.04	44505.29
579.21	44287.62
579.37	44446.77
579.53	43973.98
579.69	44535.71
579.85	44500.61
580.01	44165.91
580.17	44353.15
580.33	44697.21
580.49	44540.39
580.65	44608.27
580.82	44666.78
580.98	44439.75
581.14	44563.80
581.30	44488.90
581.46	44273.57
581.62	44589.55
581.78	44547.42
581.94	44596.57
582.10	44428.05
582.26	44814.24
582.42	44500.61
582.58	44278.25
582.74	44701.89
582.90	44446.77
583.06	44362.51
583.22	44690.19
583.38	44701.89
583.54	44704.23
583.70	44215.06
583.86	44130.80
584.02	44404.64
584.18	44566.14
584.34	44687.85
584.50	44516.99
584.66	44612.95
584.82	44376.56
584.98	44694.87
585.14	44720.62
585.30	44477.20
585.46	44720.62
585.62	44062.93
585.78	44463.16
585.94	43786.74
586.10	44388.26
586.26	44484.22
586.42	44512.31
586.58	44570.82
586.74	44657.42
586.90	44350.81
587.06	44156.55
587.22	44720.62
587.38	44252.51
587.54	44863.39
587.70	44673.81
587.86	44474.86
588.02	44683.17
588.18	44980.42
588.34	44556.78
588.49	44680.83
588.65	44519.33
588.81	44526.35
588.97	44741.68
589.13	44388.26
589.29	44374.22
589.45	44481.88
589.61	44421.03
589.77	45284.68
589.93	44556.78
590.08	45031.91
590.24	45074.04
590.40	45106.80
590.56	44657.42
590.72	44217.40
590.88	44350.81
591.04	44666.78
591.20	45074.04
591.35	44959.35
591.51	45160.64
591.67	44753.38
591.83	44837.64
591.99	44634.02
592.15	44458.48
592.31	44949.99
592.46	44807.22
592.62	44699.55
592.78	45057.65
592.94	44863.39
593.10	44708.91
593.26	44865.73
593.41	44839.98
593.57	44992.12
593.73	45457.88
593.89	44828.28
594.05	44823.60
594.20	44952.33
594.36	44893.82
594.52	44842.32
594.68	45139.57
594.84	44891.48
594.99	45387.67
595.15	44666.78
595.31	45272.98
595.47	44741.68
595.62	44903.18
595.78	44912.54
595.94	45326.81
596.10	45172.34
596.25	44877.43
596.41	44697.21
596.57	45373.63
596.73	45586.61
596.88	44975.73
597.04	44638.70
597.20	45104.46
597.36	45029.57
597.51	45221.49
597.67	45322.13
597.83	45027.23
597.99	45411.07
598.14	44975.73
598.30	45162.98
598.46	44980.42
598.61	45120.85
598.77	44940.63
598.93	44704.23
599.09	44727.64
599.24	45710.66
599.40	45244.90
599.56	45429.80
599.71	45357.24
599.87	44982.76
600.03	45045.95
600.18	45160.64
600.34	45022.54
600.50	45155.96
600.65	44839.98
600.81	45181.70
600.97	45357.24
601.12	45415.76
601.28	45195.74
601.44	45380.65
601.59	44692.53
601.75	44863.39
601.91	45680.24
602.06	44456.14
602.22	45294.05
602.37	44821.26
602.53	45221.49
602.69	45345.54
602.84	45254.26
603.00	45022.54
603.16	44671.46
603.31	44715.93
603.47	44671.46
603.62	45024.89
603.78	44676.15
603.94	45177.02
604.09	45085.74
604.25	44975.73
604.40	44641.04
604.56	44762.75
604.71	45031.91
604.87	44559.12
605.03	44973.39
605.18	44697.21
605.34	44722.96
605.49	44601.25
605.65	44662.10
605.80	44591.89
605.96	44931.26
606.12	44751.04
606.27	44832.96
606.43	44762.75
606.58	45242.56
606.74	44816.58
606.89	44741.68
607.05	44502.95
607.20	44957.01
607.36	44533.37
607.51	44818.92
607.67	44957.01
607.82	45052.97
607.98	44701.89
608.13	44533.37
608.29	44435.07
608.44	44634.02
608.60	43973.98
608.75	44154.21
608.91	44524.01
609.06	44369.54
609.22	44870.41
609.37	44411.67
609.53	44896.16
609.68	45184.04
609.84	44594.23
609.99	44378.90
610.15	44308.68
610.30	44573.16
610.46	44257.19
610.61	44430.39
610.76	44121.44
610.92	44598.91
611.07	44381.24
611.23	43999.73
611.38	44411.67
611.54	44149.53
611.69	44208.04
611.84	43910.79
612.00	43985.69
612.15	44067.61
612.31	44531.03
612.46	44147.18
612.62	44823.60
612.77	43807.81
612.92	44694.87
613.08	44334.43
613.23	44030.16
613.39	43819.51
613.54	44055.90
613.69	43817.17
613.85	44123.78
614.00	44252.51
614.15	44306.34
614.31	43943.56
614.46	44135.48
614.62	44126.12
614.77	43875.68
614.92	44182.29
615.08	43489.49
615.23	43791.42
615.38	43941.22
615.54	43512.90
615.69	43840.57
615.84	43325.66
616.00	43849.94
616.15	43702.48
616.30	44114.42
616.46	43452.05
616.61	43798.44
616.76	43859.30
616.92	43215.65
617.07	43246.08
617.22	43592.48
617.37	43508.22
617.53	43456.73
617.68	43831.21
617.83	43306.93
617.99	43646.31
618.14	43751.63
618.29	43309.27
618.45	43297.57
618.60	43194.59
618.75	43601.84
618.90	43349.06
619.06	43344.38
619.21	43669.72
619.36	43786.74
619.51	43466.09
619.67	43318.64
619.82	43262.46
619.97	43569.07
620.12	43075.22
620.28	43012.02
620.43	43182.88
620.58	42864.57
620.73	43234.38
620.89	42946.49
621.04	43016.71
621.19	43161.82
621.34	42986.28
621.49	42742.86
621.65	43035.43
621.80	43007.34
621.95	42869.25
622.10	43098.62
622.25	42670.31
622.41	42452.64
622.56	42817.76
622.71	42834.14
622.86	42918.40
623.01	43012.02
623.16	43042.45
623.32	43077.56
623.47	43159.48
623.62	42773.29
623.77	42693.71
623.92	42674.99
624.07	42223.26
624.23	42424.55
624.38	42604.77
624.53	42857.55
624.68	42686.69
624.83	42670.31
624.98	42462.00
625.13	42405.83
625.29	42204.54
625.44	42960.53
625.59	42101.56
625.74	42127.30
625.89	42120.28
626.04	42061.77
626.19	42403.49
626.34	42356.67
626.49	42440.93
626.65	42401.14
626.80	41890.91
626.95	41895.59
627.10	41970.49
627.25	41876.86
627.40	41691.96
627.55	41446.21
627.70	41237.90
627.85	41448.55
628.00	41670.90
628.15	42614.13
628.30	41811.33
628.45	41497.70
628.60	41717.71
628.76	42003.25
628.91	42000.91
629.06	41993.89
629.21	41745.80
629.36	41776.22
629.51	41291.73
629.66	41614.72
629.81	41593.66
629.96	41509.40
630.11	41654.51
630.26	41816.01
630.41	41778.56
630.56	41312.80
630.71	40999.16
630.86	41394.71
631.01	41034.27
631.16	41603.02
631.31	40598.93
631.46	40620.00
631.61	41294.07
631.76	41144.28
631.91	40921.93
632.06	41326.84
632.21	41165.34
632.36	41603.02
632.51	41151.30
632.66	41120.87
632.81	40751.07
632.96	41219.17
633.10	40517.01
633.25	40531.06
633.40	41244.92
633.55	41139.60
633.70	40947.67
633.85	40629.36
634.00	41380.67
634.15	40596.59
634.30	40875.12
634.45	40900.86
634.60	40847.03
634.75	40938.31
634.90	41102.15
635.05	40399.99
635.19	40519.35
635.34	41223.86
635.49	40481.91
635.64	40341.47
635.79	40514.67
635.94	40250.19
636.09	40666.81
636.24	40133.17
636.39	39988.05
636.53	40498.29
636.68	40479.57
636.83	40479.57
636.98	40287.64
637.13	40079.33
637.28	40643.40
637.43	40612.98
637.57	40362.54
637.72	40325.09
637.87	40800.22
638.02	40465.52
638.17	40016.14
638.32	39871.03
638.46	39786.77
638.61	40030.18
638.76	40093.38
638.91	39821.87
639.06	39988.05
639.20	40009.12
639.35	40215.08
639.50	39894.43
639.65	40428.07
639.80	39784.43
639.94	39983.37
640.09	40130.83
640.24	39739.96
640.39	39477.82
640.54	39482.50
640.68	39615.91
640.83	39915.50
640.98	39363.13
641.13	39178.23
641.27	39950.60
641.42	39594.84
641.57	39529.31
641.72	39370.15
641.86	39318.66
642.01	39512.92
642.16	39941.24
642.31	38932.47
642.45	39185.25
642.60	38990.98
642.75	38897.36
642.90	39639.31
643.04	39335.04
643.19	39112.69
643.34	39316.32
643.48	39622.93
643.63	39468.45
643.78	39040.14
643.93	38747.57
644.07	38883.32
644.22	39077.58
644.37	38951.20
644.51	38768.63
644.66	39225.04
644.81	39122.05
644.95	38712.46
645.10	39367.81
645.25	39058.86
645.39	38628.20
645.54	39126.74
645.69	38857.57
645.83	38972.26
645.98	39274.19
646.13	38892.68
646.27	38976.94
646.42	39037.80
646.57	38560.33
646.71	38930.13
646.86	38485.43
647.00	39166.52
647.15	38909.07
647.30	39278.87
647.44	38913.75
647.59	38445.64
647.74	38267.76
647.88	38279.46
648.03	38543.94
648.17	38314.57
648.32	38227.97
648.47	38497.13
648.61	38504.15
648.76	38499.47
648.90	38787.36
649.05	38323.93
649.20	38506.49
649.34	38565.01
649.49	38029.02
649.63	38099.24
649.78	38192.86
649.92	37968.17
650.07	38642.24
650.21	38384.79
650.36	37862.85
650.51	38073.49
650.65	38342.66
650.80	38536.92
650.94	38242.01
651.09	38239.67
651.23	37883.91
651.38	37734.12
651.52	37790.29
651.67	38073.49
651.81	37869.87
651.96	38047.75
652.10	37897.95
652.25	37633.47
652.39	37490.70
652.54	38258.40
652.68	38005.62
652.83	37745.82
652.97	37860.51
653.12	38265.42
653.26	37558.58
653.41	37928.38
653.55	37195.79
653.70	37916.68
653.84	37710.71
653.99	37607.73
654.13	37532.83
654.27	37649.86
654.42	37535.17
654.56	37464.96
654.71	37556.24
654.85	37280.05
655.00	37476.66
655.14	37502.40
655.29	37242.60
655.43	36842.37
655.57	37064.72
655.72	36861.10
655.86	37153.66
656.01	37188.77
656.15	37151.32
656.30	37347.93
656.44	37095.15
656.58	37003.87
656.73	36804.92
656.87	36297.03
657.01	36540.44
657.16	36645.77
657.30	36594.28
657.45	36198.73
657.59	36844.71
657.73	36367.24
657.88	36601.30
658.02	36849.39
658.16	36664.49
658.31	36928.97
658.45	36774.50
658.60	36680.88
658.74	36959.40
658.88	36407.03
659.03	36524.06
659.17	36329.80
659.31	36554.49
659.46	36306.39
659.60	36524.06
659.74	36161.28
659.89	36208.09
660.03	36182.34
660.17	36437.46
660.32	36243.20
660.46	36460.87
660.60	35978.72
660.74	36332.14
660.89	36091.06
661.03	35250.81
661.17	35903.82
661.32	35042.50
661.46	35559.76
661.60	35723.60
661.74	35569.12
661.89	35955.31
662.03	35578.48
662.17	35473.16
662.31	35084.63
662.46	35765.73
662.60	35159.53
662.74	35538.69
662.88	35299.96
663.03	35201.66
663.17	35143.14
663.31	35335.07
663.45	35358.47
663.60	35009.73
663.74	34728.87
663.88	35400.60
664.02	34857.60
664.17	35047.18
664.31	34349.70
664.45	34808.45
664.59	34382.47
664.73	34803.77
664.88	34822.49
665.02	34653.97
665.16	34742.91
665.30	34836.53
665.44	34328.64
665.59	34359.06
665.73	34087.56
665.87	34391.83
666.01	34155.44
666.15	34202.25
666.29	34396.51
666.44	34740.57
666.58	33689.67
666.72	33961.17
666.86	34450.35
667.00	33926.07
667.14	33816.06
667.28	33897.98
667.43	33956.49
667.57	33750.52
667.71	33607.75
667.85	33359.66
667.99	33315.19
668.13	33579.67
668.27	33083.47
668.41	33771.59
668.56	33237.95
668.70	33544.56
668.84	33083.47
668.98	32807.29
669.12	32884.53
669.26	33165.39
669.40	32985.17
669.54	32975.81
669.68	33130.28
669.82	32861.12
669.96	32833.04
670.10	32732.39
670.25	32748.78
670.39	32636.43
670.53	32465.57
670.67	32753.46
670.81	32343.86
670.95	32758.14
671.09	32479.61
671.23	32229.18
671.37	32531.11
671.51	32114.49
671.65	32362.59
671.79	32016.19
671.93	32065.34
672.07	32037.25
672.21	32067.68
672.35	31931.93
672.49	31828.95
672.63	32027.89
672.77	31700.22
672.91	31592.55
673.05	31665.11
673.19	31491.91
673.33	31683.83
673.47	31386.58
673.61	31538.72
673.75	30988.69
673.89	30859.96
674.03	30829.54
674.17	31199.34
674.31	30771.02
674.45	31012.10
674.59	30443.35
674.73	31161.89
674.87	30991.03
675.01	30719.53
675.15	31211.04
675.29	30583.78
675.43	30565.06
675.56	30176.53
675.70	30223.34
675.84	29764.59
675.98	29226.27
676.12	29972.90
676.26	30038.44
676.40	29837.15
676.54	29453.30
676.68	29743.53
676.82	29362.02
676.96	29584.37
677.10	29193.50
677.23	29696.72
677.37	29642.88
677.51	29174.78
677.65	29001.58
677.79	28842.42
677.93	29113.92
678.07	28961.79
678.21	28643.48
678.34	28503.04
678.48	28547.51
678.62	28451.55
678.76	28254.95
678.90	27999.83
679.04	28432.83
679.18	28212.82
679.31	27882.80
679.45	27887.48
679.59	27660.45
679.73	27494.27
679.87	28020.89
680.00	27868.76
680.14	27903.87
680.28	27342.14
680.42	27304.69
680.56	27267.24
680.70	27227.45
680.83	27241.50
680.97	26925.52
681.11	26986.38
681.25	26944.25
681.39	26881.05
681.52	26684.45
681.66	26838.92
681.80	26679.77
681.94	26714.87
682.07	26464.44
682.21	26181.23
682.35	26202.30
682.49	26476.14
682.62	26389.54
682.76	25879.30
682.90	25982.29
683.04	25759.94
683.17	25942.50
683.31	25392.47
683.45	25858.24
683.59	25263.74
683.72	25357.36
683.86	25343.32
684.00	25156.08
684.13	25549.29
684.27	25392.47
684.41	24917.34
684.55	24800.32
684.68	24762.87
684.82	24641.16
684.96	24547.54
685.09	24872.87
685.23	24835.42
685.37	24372.00
685.50	24381.36
685.64	24264.33
685.78	24383.70
685.91	24009.22
686.05	24180.07
686.19	24002.19
686.32	24187.10
686.46	23728.35
686.60	23154.92
686.73	23482.59
686.87	23419.40
687.01	23185.35
687.14	22801.50
687.28	23211.09
687.42	22991.08
687.55	22731.28
687.69	22941.93
687.82	22913.84
687.96	22979.38
688.10	22558.08
688.23	22459.78
688.37	22349.78
688.50	22504.25
688.64	22368.50
688.78	22354.46
688.91	22106.36
689.05	21806.77
689.18	21907.41
689.32	21738.90
689.46	21745.92
689.59	21902.73
689.73	22043.17
689.86	21635.91
690.00	21879.33
690.13	21872.31
690.27	21518.89
690.41	21546.97
690.54	21275.47
690.68	21022.69
690.81	21451.01
690.95	20826.09
691.08	20910.35
691.22	21055.46
691.35	21071.84
691.49	20896.30
691.62	20723.10
691.76	20680.97
691.89	20596.71
692.03	20386.07
692.16	20460.96
692.30	20205.84
692.43	20327.55
692.57	19889.87
692.70	20027.96
692.84	20095.84
692.97	20210.53
693.11	19697.95
693.24	20049.03
693.38	19707.31
693.51	19634.75
693.65	19634.75
693.78	19686.25
693.92	19501.34
694.05	19318.78
694.19	18803.86
694.32	18925.57
694.45	19248.57
694.59	19124.52
694.72	18904.51
694.86	18672.79
694.99	18581.51
695.13	18637.69
695.26	18192.98
695.39	18118.09
695.53	18785.14
695.66	18473.85
695.80	18050.21
695.93	18361.50
696.07	18097.02
696.20	18281.92
696.33	18029.15
696.47	18059.57
696.60	17991.70
696.73	17839.56
696.87	17816.16
697.00	17848.93
697.14	17390.18
697.27	17415.93
697.40	17642.96
697.54	17174.85
697.67	17338.69
697.80	17102.29
697.94	17083.57
698.07	17085.91
698.21	17069.53
698.34	16945.48
698.47	16692.70
698.61	16734.83
698.74	16669.30
698.87	16596.74
699.01	16198.85
699.14	16273.74
699.27	16458.65
699.40	16238.64
699.54	15847.77
699.67	15910.96
699.80	15974.16
699.94	15831.38
700.07	16259.70
700.20	15901.60
700.34	15674.57
700.47	15604.35
700.60	15726.06
700.73	15878.19
700.87	15950.75
701.00	15452.22
701.13	15192.42
701.26	15440.51
701.40	15274.34
701.53	15321.15
701.66	15021.56
701.79	15105.82
701.93	14768.78
702.06	14733.67
702.19	14773.46
702.32	14618.99
702.46	14394.29
702.59	14696.22
702.72	14668.14
702.85	14455.15
702.99	14827.29
703.12	14658.78
703.25	14555.79
703.38	14492.60
703.51	14239.82
703.65	14281.95
703.78	14092.37
703.91	14010.45
704.04	13996.40
704.17	13860.65
704.31	13769.37
704.44	13518.93
704.57	13710.86
704.70	13724.90
704.83	13804.48
704.96	13685.11
705.10	13635.96
705.23	13802.14
>>>>>End Processed Spectral Data<<<<<
