SpectraSuite Data File
++++++++++++++++++++++++++++++++++++
Date: Fri Oct 25 11:34:29 EDT 2013
User: price-jones
Dark Spectrum Present: No
Reference Spectrum Present: No
Number of Sampled Component Spectra: 1
Spectrometers: USB2+H05261
Integration Time (usec): 100000 (USB2+H05261)
Spectra Averaged: 1 (USB2+H05261)
Boxcar Smoothing: 0 (USB2+H05261)
Correct for Electrical Dark: No (USB2+H05261)
Strobe/Lamp Enabled: No (USB2+H05261)
Correct for Detector Non-linearity: No (USB2+H05261)
Correct for Stray Light: No (USB2+H05261)
Number of Pixels in Processed Spectrum: 2048
>>>>>Begin Processed Spectral Data<<<<<
365.73	304.27
365.92	304.27
366.12	304.27
366.32	252.78
366.52	145.11
366.72	201.29
366.91	208.31
367.11	236.39
367.31	112.35
367.51	180.22
367.70	175.54
367.90	175.54
368.10	189.58
368.30	196.60
368.49	184.90
368.69	201.29
368.89	201.29
369.09	180.22
369.28	217.67
369.48	159.16
369.68	191.92
369.87	259.80
370.07	231.71
370.27	266.82
370.47	334.70
370.66	444.70
370.86	482.15
371.06	505.56
371.25	601.52
371.45	535.98
371.65	575.77
371.84	575.77
372.04	500.87
372.24	587.47
372.44	603.86
372.63	599.18
372.83	592.16
373.03	535.98
373.22	507.90
373.42	671.73
373.62	592.16
373.81	636.63
374.01	706.84
374.21	697.48
374.40	669.39
374.60	678.76
374.79	650.67
374.99	641.31
375.19	695.14
375.38	636.63
375.58	636.63
375.78	662.37
375.97	648.33
376.17	702.16
376.37	713.86
376.56	755.99
376.76	718.54
376.95	702.16
377.15	678.76
377.35	671.73
377.54	676.41
377.74	655.35
377.93	760.67
378.13	594.50
378.33	709.18
378.52	699.82
378.72	730.25
378.91	739.61
379.11	690.46
379.31	704.50
379.50	685.78
379.70	732.59
379.89	753.65
380.09	685.78
380.28	706.84
380.48	716.20
380.68	711.52
380.87	706.84
381.07	770.04
381.26	734.93
381.46	732.59
381.65	720.88
381.85	718.54
382.04	739.61
382.24	718.54
382.43	755.99
382.63	772.38
382.83	779.40
383.02	755.99
383.22	858.98
383.41	741.95
383.61	833.23
383.80	772.38
384.00	800.46
384.19	767.70
384.39	791.10
384.58	765.36
384.78	866.00
384.97	819.19
385.17	812.17
385.36	833.23
385.56	819.19
385.75	746.63
385.95	837.91
386.14	896.43
386.34	884.72
386.53	901.11
386.72	910.47
386.92	891.74
387.11	856.64
387.31	840.25
387.50	830.89
387.70	840.25
387.89	870.68
388.09	901.11
388.28	884.72
388.48	929.19
388.67	973.66
388.86	882.38
389.06	952.60
389.25	931.53
389.45	903.45
389.64	908.13
389.84	940.90
390.03	964.30
390.22	908.13
390.42	952.60
390.61	922.17
390.81	917.49
391.00	945.58
391.19	954.94
391.39	973.66
391.58	896.43
391.78	931.53
391.97	1022.81
392.16	961.96
392.36	997.07
392.55	1041.54
392.75	1062.60
392.94	938.55
393.13	961.96
393.33	1032.18
393.52	1053.24
393.71	1149.20
393.91	1032.18
394.10	1011.11
394.29	1118.78
394.49	1076.65
394.68	1167.93
394.88	1027.50
395.07	1149.20
395.26	1104.73
395.46	1160.91
395.65	1170.27
395.84	1121.12
396.04	1090.69
396.23	1184.31
396.42	1179.63
396.62	1153.88
396.81	1200.69
397.00	1160.91
397.19	1153.88
397.39	1160.91
397.58	1177.29
397.77	1184.31
397.97	1254.53
398.16	1254.53
398.35	1226.44
398.55	1242.82
398.74	1240.48
398.93	1205.38
399.12	1221.76
399.32	1240.48
399.51	1226.44
399.70	1324.74
399.90	1287.29
400.09	1430.07
400.28	1345.81
400.47	1345.81
400.67	1320.06
400.86	1380.92
401.05	1380.92
401.24	1397.30
401.44	1392.62
401.63	1427.73
401.82	1390.28
402.01	1380.92
402.21	1385.60
402.40	1401.98
402.59	1453.47
402.78	1455.81
402.97	1502.62
403.17	1420.71
403.36	1486.24
403.55	1481.56
403.74	1511.99
403.93	1465.18
404.13	1633.69
404.32	1671.14
404.51	1521.35
404.70	1624.33
404.89	1542.41
405.09	1636.03
405.28	1596.25
405.47	1607.95
405.66	1598.59
405.85	1610.29
406.05	1654.76
406.24	1626.67
406.43	1689.87
406.62	1760.08
406.81	1771.79
407.00	1647.74
407.20	1650.08
407.39	1750.72
407.58	1710.93
407.77	1837.32
407.96	1750.72
408.15	1813.92
408.34	1940.30
408.54	1914.56
408.73	1926.26
408.92	1781.15
409.11	1907.54
409.30	1959.03
409.49	1989.46
409.68	1914.56
409.87	1959.03
410.07	1980.09
410.26	1994.14
410.45	2038.61
410.64	1888.81
410.83	2083.08
411.02	2087.76
411.21	2111.16
411.40	2097.12
411.59	2146.27
411.78	2186.06
411.98	2197.76
412.17	2209.47
412.36	2270.32
412.55	2265.64
412.74	2356.92
412.93	2289.04
413.12	2211.81
413.31	2321.81
413.50	2207.13
413.69	2368.62
413.88	2282.02
414.07	2380.32
414.26	2408.41
414.45	2368.62
414.64	2499.69
414.83	2455.22
415.02	2443.52
415.22	2600.34
415.41	2530.12
415.60	2471.61
415.79	2518.42
415.98	2715.02
416.17	2698.64
416.36	2588.63
416.55	2677.57
416.74	2710.34
416.93	2792.26
417.12	2677.57
417.31	2677.57
417.50	2691.62
417.69	2743.11
417.88	2841.41
418.07	2853.11
418.26	2892.90
418.45	2832.05
418.64	2841.41
418.83	2881.20
419.02	2984.18
419.21	3141.00
419.39	3028.65
419.58	2913.97
419.77	2946.73
419.96	3028.65
420.15	2995.89
420.34	2995.89
420.53	3012.27
420.72	3110.57
420.91	3119.93
421.10	3208.87
421.29	3187.81
421.48	3117.59
421.67	3194.83
421.86	3143.34
422.05	3225.26
422.24	3124.62
422.43	3201.85
422.61	3222.92
422.80	3316.54
422.99	3258.03
423.18	3148.02
423.37	3342.28
423.56	3276.75
423.75	3152.70
423.94	3234.62
424.13	3141.00
424.32	3096.53
424.50	3337.60
424.69	3353.99
424.88	3454.63
425.07	3283.77
425.26	3258.03
425.45	3316.54
425.64	3356.33
425.83	3346.97
426.01	3349.31
426.20	3276.75
426.39	3318.88
426.58	3382.07
426.77	3428.88
426.96	3487.40
427.15	3414.84
427.33	3382.07
427.52	3412.50
427.71	3510.80
427.90	3454.63
428.09	3562.30
428.28	3473.36
428.46	3475.70
428.65	3611.45
428.84	3651.24
429.03	3651.24
429.22	3494.42
429.40	3569.32
429.59	3730.81
429.78	3466.33
429.97	3517.83
430.16	3611.45
430.34	3742.52
430.53	3817.41
430.72	3775.28
430.91	3698.05
431.10	3765.92
431.28	3934.44
431.47	3716.77
431.66	3861.88
431.85	3754.22
432.03	3889.97
432.22	3929.76
432.41	3908.69
432.60	3948.48
432.79	4100.62
432.97	3978.91
433.16	4011.68
433.35	3878.27
433.54	3967.21
433.72	4119.34
433.91	4084.23
434.10	4147.43
434.28	4067.85
434.47	4091.26
434.66	4046.79
434.85	4182.54
435.03	4166.15
435.22	4250.41
435.41	4241.05
435.59	4224.67
435.78	4407.23
435.97	4344.03
436.16	4212.96
436.34	4322.97
436.53	4418.93
436.72	4531.28
436.90	4329.99
437.09	4484.47
437.28	4269.14
437.46	4407.23
437.65	4339.35
437.84	4472.76
438.02	4386.16
438.21	4596.81
438.40	4353.40
438.58	4573.41
438.77	4610.86
438.96	4393.19
439.14	4475.10
439.33	4716.18
439.52	4695.11
439.70	4784.06
439.89	4751.29
440.08	4774.69
440.26	4765.33
440.45	4781.71
440.63	4959.60
440.82	4865.97
441.01	4884.70
441.19	4912.78
441.38	5046.20
441.57	4954.91
441.75	5153.86
441.94	5172.58
442.12	5097.69
442.31	5170.24
442.50	5233.44
442.68	5210.03
442.87	5238.12
443.05	5310.68
443.24	5289.61
443.43	5380.89
443.61	5434.72
443.80	5345.78
443.98	5380.89
444.17	5235.78
444.35	5448.77
444.54	5387.91
444.73	5317.70
444.91	5378.55
445.10	5458.13
445.28	5397.28
445.47	5334.08
445.65	5416.00
445.84	5614.95
446.02	5455.79
446.21	5514.30
446.39	5336.42
446.58	5558.77
446.77	5462.81
446.95	5451.11
447.14	5696.86
447.32	5607.92
447.51	5465.15
447.69	5497.92
447.88	5612.60
448.06	5514.30
448.25	5472.17
448.43	5636.01
448.62	5591.54
448.80	5605.58
448.99	5675.80
449.17	5598.56
449.36	5717.93
449.54	5734.31
449.73	5783.46
449.91	6076.03
450.10	5734.31
450.28	5860.70
450.46	5865.38
450.65	5607.92
450.83	5720.27
451.02	5980.07
451.20	5809.21
451.39	5912.19
451.57	5898.15
451.76	5816.23
451.94	5865.38
452.13	6029.22
452.31	6076.03
452.49	5996.45
452.68	6134.54
452.86	6136.88
453.05	6087.73
453.23	6127.52
453.42	6153.27
453.60	6026.88
453.78	6221.14
453.97	6179.01
454.15	6289.02
454.34	5966.03
454.52	6211.78
454.70	6235.19
454.89	6230.51
455.07	6417.75
455.26	6363.92
455.44	6457.54
455.62	6359.24
455.81	6352.21
455.99	6574.56
456.17	6448.18
456.36	6485.62
456.54	6544.14
456.73	6586.27
456.91	6768.83
457.09	6768.83
457.28	6775.85
457.46	6675.21
457.64	6775.85
457.83	6747.76
458.01	6612.01
458.19	6972.46
458.38	6764.15
458.56	6909.26
458.74	6899.90
458.93	6902.24
459.11	6998.20
459.29	6813.30
459.48	6939.69
459.66	7045.01
459.84	6864.79
460.03	7199.49
460.21	7098.84
460.39	6918.62
460.57	7190.13
460.76	7253.32
460.94	7049.69
461.12	7323.54
461.31	7159.70
461.49	7059.06
461.67	7140.97
461.85	7197.15
462.04	7300.13
462.22	7815.05
462.40	7485.03
462.59	7377.37
462.77	7389.07
462.95	7412.48
463.13	7417.16
463.32	7541.21
463.50	7585.68
463.68	7618.44
463.86	7609.08
464.05	7555.25
464.23	7421.84
464.41	7520.14
464.59	7377.37
464.78	7763.56
464.96	7691.00
465.14	7590.36
465.32	7613.76
465.50	7838.45
465.69	7772.92
465.87	7625.47
466.05	7726.11
466.23	7765.90
466.41	7772.92
466.60	8060.80
466.78	7918.03
466.96	7894.63
467.14	7911.01
467.32	7805.69
467.51	8142.72
467.69	7953.14
467.87	7943.78
468.05	7941.44
468.23	7929.74
468.41	8210.60
468.60	8023.36
468.78	8163.79
468.96	8131.02
469.14	8203.58
469.32	8182.51
469.50	8290.18
469.69	8304.22
469.87	8329.97
470.05	8409.54
470.23	8465.72
470.41	8454.02
470.59	8634.24
470.77	8669.34
470.95	8489.12
471.14	8617.85
471.32	8552.32
471.50	8678.71
471.68	8526.57
471.86	8800.41
472.04	8681.05
472.22	8954.89
472.40	8887.01
472.58	8945.53
472.77	8959.57
472.95	9123.41
473.13	9090.64
473.31	8952.55
473.49	9011.06
473.67	9088.30
473.85	9200.65
474.03	9167.88
474.21	9523.64
474.39	9266.18
474.57	9296.61
474.75	9689.82
474.93	9551.73
475.12	9294.27
475.30	9680.46
475.48	9479.17
475.66	9657.05
475.84	9542.36
476.02	9717.90
476.20	9682.80
476.38	9769.40
476.56	10214.10
476.74	10022.17
476.92	10120.48
477.10	10066.64
477.28	10286.65
477.46	10427.09
477.64	10391.98
477.82	10300.70
478.00	10846.04
478.18	10721.99
478.36	10782.85
478.54	10705.61
478.72	10960.73
478.90	10958.39
479.08	11009.88
479.26	11140.95
479.44	11220.53
479.62	11044.99
479.80	11265.00
479.98	11499.05
480.16	11669.91
480.34	11655.87
480.52	11878.22
480.70	11772.89
480.88	11625.44
481.06	11758.85
481.24	11906.31
481.41	12011.63
481.59	12156.74
481.77	12196.53
481.95	12224.62
482.13	12564.00
482.31	12414.20
482.49	12772.30
482.67	12655.28
482.85	13050.83
483.03	12931.46
483.21	13280.20
483.39	13261.48
483.57	12968.91
483.74	13331.69
483.92	13568.09
484.10	13657.03
484.28	13673.41
484.46	13949.59
484.64	14031.51
484.82	13692.13
485.00	13935.55
485.18	14197.69
485.35	14499.62
485.53	14565.15
485.71	14391.95
485.89	14665.80
486.07	14661.12
486.25	14834.32
486.43	14719.63
486.61	14916.23
486.78	15339.87
486.96	15161.99
487.14	15449.88
487.32	15473.28
487.50	15510.73
487.68	16004.58
487.85	15836.06
488.03	15950.75
488.21	15981.18
488.39	16236.30
488.57	16381.41
488.75	16290.13
488.92	16765.26
489.10	16716.11
489.28	16884.62
489.46	17163.15
489.64	16774.62
489.81	17191.23
489.99	17420.61
490.17	17202.94
490.35	17661.68
490.53	17561.04
490.70	17631.26
490.88	17486.14
491.06	18225.75
491.24	18064.25
491.41	18408.31
491.59	18209.37
491.77	18452.78
491.95	18464.49
492.13	18644.71
492.30	18530.02
492.48	18834.29
492.66	18913.87
492.84	18761.73
493.01	19248.57
493.19	19651.14
493.37	19414.74
493.54	19583.26
493.72	20027.96
493.90	19555.18
494.08	20116.90
494.25	19864.13
494.43	19957.75
494.61	20229.25
494.79	20187.12
494.96	20360.32
495.14	20664.59
495.32	20489.05
495.49	20760.55
495.67	21191.21
495.85	21146.74
496.02	20943.11
496.20	21341.00
496.38	21338.66
496.55	21575.06
496.73	21876.99
496.91	21802.09
497.09	21671.02
497.26	21804.43
497.44	22005.72
497.62	21951.88
497.79	22600.21
497.97	22249.13
498.14	22560.42
498.32	22944.27
498.50	22607.23
498.67	23094.07
498.85	22658.73
499.03	22904.48
499.20	22988.74
499.38	23192.37
499.56	23323.44
499.73	23173.64
499.91	23576.22
500.08	23417.06
500.26	23506.00
500.44	23800.91
500.61	23957.72
500.79	23962.40
500.97	23672.18
501.14	24170.71
501.32	24477.32
501.49	23931.98
501.67	24233.91
501.84	24376.68
502.02	24449.24
502.20	24744.14
502.37	24786.27
502.55	24755.85
502.72	24992.24
502.90	25020.33
503.07	24919.68
503.25	25025.01
503.43	24725.42
503.60	25439.28
503.78	25235.66
503.95	25458.01
504.13	25329.28
504.30	25797.38
504.48	25493.12
504.65	25692.06
504.83	26164.85
505.01	25982.29
505.18	25830.15
505.36	26244.43
505.53	25575.03
505.71	25951.86
505.88	25975.27
506.06	26047.82
506.23	26361.45
506.41	26188.25
506.58	26270.17
506.76	26742.96
506.93	26544.02
507.11	26782.75
507.28	27112.77
507.46	27211.07
507.63	27344.48
507.81	27136.17
507.98	27365.54
508.16	27026.17
508.33	27115.11
508.50	27402.99
508.68	27248.52
508.85	27601.94
509.03	27711.94
509.20	27742.37
509.38	28414.10
509.55	28144.94
509.73	27828.97
509.90	28105.15
510.08	27782.16
510.25	28430.49
510.42	28266.65
510.60	28233.88
510.77	28591.98
510.95	28533.47
511.12	28463.25
511.30	28379.00
511.47	28788.59
511.64	28971.15
511.82	29275.42
511.99	28821.36
512.17	29008.60
512.34	29420.53
512.51	29123.29
512.69	29329.25
512.86	28870.51
513.04	29343.30
513.21	29500.11
513.38	29841.83
513.56	30192.91
513.73	29757.57
513.90	29656.93
514.08	29750.55
514.25	29958.86
514.43	30230.36
514.60	30398.88
514.77	30302.92
514.95	30808.47
515.12	30118.01
515.29	30281.85
515.47	30583.78
515.64	30885.71
515.81	30476.12
515.99	30782.73
516.16	31229.77
516.33	30976.99
516.51	31012.10
516.68	30960.61
516.85	30965.29
517.03	31299.98
517.20	31447.44
517.37	31316.37
517.54	31215.72
517.72	31314.03
517.89	31534.04
518.06	31299.98
518.24	31454.46
518.41	31880.44
518.58	31541.06
518.75	31721.28
518.93	31686.17
519.10	31852.35
519.27	31906.18
519.45	32119.17
519.62	32414.08
519.79	31990.44
519.96	32102.79
520.14	32407.06
520.31	32339.18
520.48	32116.83
520.65	32439.82
520.83	32615.37
521.00	32746.44
521.17	32353.23
521.34	32814.31
521.52	33263.69
521.69	33132.62
521.86	33528.17
522.03	33352.63
522.20	33057.73
522.38	33479.02
522.55	33621.80
522.72	32996.87
522.89	33448.60
523.07	33797.34
523.24	33673.29
523.41	33972.88
523.58	33567.96
523.75	33771.59
523.92	33839.47
524.10	34169.48
524.27	34150.76
524.44	33965.85
524.61	34033.73
524.78	33689.67
524.96	34038.41
525.13	34195.23
525.30	34705.46
525.47	34607.16
525.64	34534.60
525.81	34274.80
525.98	34810.79
526.16	34660.99
526.33	34265.44
526.50	34808.45
526.67	34628.23
526.84	34951.22
527.01	35215.70
527.18	34754.61
527.36	34569.71
527.53	34995.69
527.70	35440.39
527.87	35667.42
528.04	35271.87
528.21	35131.44
528.38	35454.44
528.55	35344.43
528.72	35318.68
528.89	35398.26
529.07	35721.26
529.24	35292.94
529.41	35789.13
529.58	36350.86
529.75	35852.33
529.92	35988.08
530.09	36252.56
530.26	35871.05
530.43	36240.86
530.60	35896.80
530.77	35931.90
530.94	36018.50
531.11	35962.33
531.28	35793.81
531.46	36524.06
531.63	36844.71
531.80	36456.18
531.97	36634.06
532.14	36233.83
532.31	36439.80
532.48	36966.42
532.65	36928.97
532.82	36648.11
532.99	36779.18
533.16	36854.08
533.33	37160.69
533.50	37024.93
533.67	36994.51
533.84	36978.12
534.01	37153.66
534.18	37015.57
534.35	36996.85
534.52	37137.28
534.69	37621.77
534.86	37675.60
535.03	37357.29
535.20	37532.83
535.37	37670.92
535.54	37872.21
535.71	37558.58
535.88	37881.57
536.05	38204.56
536.22	37652.20
536.38	37869.87
536.55	37535.17
536.72	38120.31
536.89	37888.59
537.06	37780.93
537.23	38422.23
537.40	37982.21
537.57	37848.80
537.74	38206.90
537.91	38459.68
538.08	38565.01
538.25	38274.78
538.42	38485.43
538.59	38644.59
538.75	38267.76
538.92	38852.89
539.09	38604.80
539.26	38941.83
539.43	38431.60
539.60	39292.91
539.77	38733.53
539.94	39119.71
540.11	38878.64
540.28	39108.01
540.44	38864.60
540.61	38707.78
540.78	38808.42
540.95	39229.72
541.12	38897.36
541.29	39274.19
541.46	39524.63
541.62	39330.36
541.79	39648.68
541.96	39225.04
542.13	39321.00
542.30	39377.17
542.47	39459.09
542.63	39395.90
542.80	39386.54
542.97	39856.98
543.14	40011.46
543.31	40156.57
543.48	39892.09
543.64	40247.85
543.81	40287.64
543.98	40271.26
544.15	40098.06
544.32	40273.60
544.48	40404.67
544.65	40191.68
544.82	40327.43
544.99	40472.54
545.16	40596.59
545.32	40268.92
545.49	40858.73
545.66	41081.08
545.83	40580.21
546.00	40605.95
546.16	40547.44
546.33	40903.20
546.50	40289.98
546.67	41085.76
546.83	40540.42
547.00	40753.41
547.17	40797.88
547.34	40921.93
547.50	40978.10
547.67	41375.99
547.84	41160.66
548.00	41130.23
548.17	41558.55
548.34	41518.76
548.51	41254.28
548.67	41345.56
548.84	41221.52
549.01	41514.08
549.18	41455.57
549.34	41567.91
549.51	41617.07
549.68	41649.83
549.84	42010.28
550.01	41764.52
550.18	41071.72
550.34	41579.62
550.51	41698.98
550.68	42239.65
550.84	41565.57
551.01	41937.72
551.18	41640.47
551.34	41270.67
551.51	42497.11
551.68	41698.98
551.84	42017.30
552.01	41851.12
552.18	42134.32
552.34	41762.18
552.51	41977.51
552.68	41731.75
552.84	42188.16
553.01	41968.15
553.18	41848.78
553.34	42150.71
553.51	41961.12
553.67	42644.56
553.84	42314.55
554.01	42597.75
554.17	41926.02
554.34	42623.50
554.51	42480.72
554.67	42777.97
554.84	42396.46
555.00	42911.38
555.17	42632.86
555.33	42562.64
555.50	42747.54
555.67	42314.55
555.83	42738.18
556.00	43241.40
556.16	43217.99
556.33	43276.51
556.50	43278.85
556.66	43157.14
556.83	42665.63
556.99	43070.54
557.16	42768.61
557.32	42941.81
557.49	43140.75
557.65	43019.05
557.82	43129.05
557.98	43288.21
558.15	43222.67
558.32	43192.25
558.48	43463.75
558.65	43625.25
558.81	43686.10
558.98	43147.78
559.14	43089.26
559.31	43512.90
559.47	43299.91
559.64	43821.85
559.80	43732.91
559.97	43349.06
560.13	43241.40
560.30	43580.78
560.46	44105.06
560.63	43557.37
560.79	44289.96
560.96	44013.77
561.12	43526.94
561.29	43997.39
561.45	43828.87
561.61	43669.72
561.78	43892.07
561.94	44095.69
562.11	43653.33
562.27	44102.71
562.44	43772.70
562.60	43856.96
562.77	43906.11
562.93	43658.01
563.10	44451.45
563.26	43768.02
563.42	44275.91
563.59	43966.96
563.75	44126.12
563.92	44191.65
564.08	44088.67
564.24	44367.20
564.41	44186.97
564.57	43999.73
564.74	44364.85
564.90	44072.29
565.07	43985.69
565.23	44203.36
565.39	44243.15
565.56	44493.58
565.72	43873.34
565.88	44264.21
566.05	43983.35
566.21	44322.72
566.38	44390.60
566.54	44296.98
566.70	44156.55
566.87	44374.22
567.03	44268.89
567.19	44486.56
567.36	44247.83
567.52	44748.70
567.68	45090.42
567.85	44570.82
568.01	44451.45
568.17	44381.24
568.34	44608.27
568.50	44715.93
568.66	44313.36
568.83	44128.46
568.99	44149.53
569.15	44524.01
569.32	44325.07
569.48	44659.76
569.64	45303.41
569.81	44491.24
569.97	45230.85
570.13	44767.43
570.30	44329.75
570.46	44409.32
570.62	44704.23
570.78	44739.34
570.95	44524.01
571.11	45020.20
571.27	44755.72
571.43	44498.26
571.60	44811.90
571.76	44484.22
571.92	45057.65
572.09	44809.56
572.25	44643.38
572.41	44680.83
572.57	44619.97
572.74	45160.64
572.90	45008.50
573.06	45125.53
573.22	45116.17
573.38	44793.17
573.55	44842.32
573.71	44954.67
573.87	45003.82
574.03	44547.42
574.20	45223.83
574.36	45001.48
574.52	45263.62
574.68	45038.93
574.84	45518.74
575.01	45612.36
575.17	45310.43
575.33	44884.45
575.49	44959.35
575.65	45179.36
575.82	45109.14
575.98	44259.53
576.14	45263.62
576.30	45425.12
576.46	44828.28
576.62	45385.33
576.79	45298.73
576.95	44900.84
577.11	45036.59
577.27	44788.49
577.43	44952.33
577.59	45078.72
577.75	44697.21
577.92	44879.77
578.08	44720.62
578.24	45198.09
578.40	45755.13
578.56	45296.39
578.72	45088.08
578.88	45284.68
579.04	45158.30
579.21	45160.64
579.37	45462.57
579.53	45595.98
579.69	45265.96
579.85	45312.77
580.01	45502.35
580.17	45242.56
580.33	45340.86
580.49	45022.54
580.65	44964.03
580.82	44917.22
580.98	44935.95
581.14	45240.21
581.30	45415.76
581.46	45095.10
581.62	45200.43
581.78	44942.97
581.94	45116.17
582.10	45352.56
582.26	45368.94
582.42	45111.49
582.58	45013.18
582.74	45003.82
582.90	45436.82
583.06	45691.94
583.22	44971.05
583.38	45258.94
583.54	45352.56
583.70	45352.56
583.86	45181.70
584.02	45502.35
584.18	45460.23
584.34	45516.40
584.50	45495.33
584.66	45336.18
584.82	45408.73
584.98	45902.59
585.14	45696.62
585.30	44949.99
585.46	45380.65
585.62	45560.87
585.78	45635.77
585.94	45031.91
586.10	45675.55
586.26	45184.04
586.42	45254.26
586.58	45319.79
586.74	45254.26
586.90	45240.21
587.06	45790.24
587.22	45591.30
587.38	45284.68
587.54	45617.04
587.70	45883.86
587.86	45577.25
588.02	45141.91
588.18	45254.26
588.34	45326.81
588.49	45483.63
588.65	45427.46
588.81	45574.91
588.97	45497.67
589.13	45455.54
589.29	45148.93
589.45	45874.50
589.61	45621.72
589.77	46157.70
589.93	45858.12
590.08	45799.60
590.24	46188.13
590.40	46391.76
590.56	45911.95
590.72	46012.59
590.88	45682.58
591.04	45661.51
591.20	45947.06
591.35	45640.45
591.51	45984.51
591.67	46040.68
591.83	46258.35
591.99	46164.73
592.15	45638.11
592.31	45588.95
592.46	46171.75
592.62	45680.24
592.78	46361.33
592.94	46476.02
593.10	46288.77
593.26	46082.81
593.41	46312.18
593.57	45963.44
593.73	46026.63
593.89	46370.69
594.05	46129.62
594.20	46274.73
594.36	46445.59
594.52	46141.32
594.68	46433.89
594.84	46085.15
594.99	46127.28
595.15	46389.42
595.31	46277.07
595.47	45933.01
595.62	46092.17
595.78	46075.79
595.94	46143.66
596.10	46019.61
596.25	45914.29
596.41	46153.02
596.57	45837.05
596.73	46295.80
596.88	46241.96
597.04	46408.14
597.20	46412.82
597.36	46103.87
597.51	46295.80
597.67	45876.84
597.83	45890.88
597.99	46087.49
598.14	46160.05
598.30	46714.75
598.46	46101.53
598.61	46567.30
598.77	46691.35
598.93	46181.11
599.09	46412.82
599.24	46623.47
599.40	46024.29
599.56	46169.41
599.71	46728.80
599.87	46796.67
600.03	46630.49
600.18	46492.40
600.34	45954.08
600.50	46246.65
600.65	46024.29
600.81	46616.45
600.97	46351.97
601.12	46354.31
601.28	46021.95
601.44	46127.28
601.59	46195.15
601.75	46412.82
601.91	46763.90
602.06	46593.04
602.22	46492.40
602.37	45989.19
602.53	46415.16
602.69	46513.47
602.84	46274.73
603.00	46461.97
603.16	46373.03
603.31	46710.07
603.47	46822.42
603.62	46162.39
603.78	46389.42
603.94	46520.49
604.09	46316.86
604.25	46157.70
604.40	46227.92
604.56	46223.24
604.71	46623.47
604.87	46600.07
605.03	45968.12
605.18	46192.81
605.34	46363.67
605.49	46323.88
605.65	46185.79
605.80	46054.72
605.96	46120.26
606.12	46064.08
606.27	46258.35
606.43	46309.84
606.58	46241.96
606.74	46157.70
606.89	45830.03
607.05	46925.40
607.20	46703.05
607.36	46206.86
607.51	46057.06
607.67	46260.69
607.82	45647.47
607.98	46103.87
608.13	45951.74
608.29	46007.91
608.44	46171.75
608.60	46052.38
608.75	46410.48
608.91	46190.47
609.06	46087.49
609.22	46527.51
609.37	45841.73
609.53	46164.73
609.68	45968.12
609.84	46337.93
609.99	46302.82
610.15	46305.16
610.30	46244.30
610.46	45879.18
610.61	45736.41
610.76	45914.29
610.92	45738.75
611.07	45801.94
611.23	46110.89
611.38	45954.08
611.54	45645.13
611.69	45928.33
611.84	46157.70
612.00	46040.68
612.15	45605.34
612.31	45689.60
612.46	45801.94
612.62	45837.05
612.77	45591.30
612.92	46169.41
613.08	45535.12
613.23	45729.39
613.39	45909.61
613.54	45790.24
613.69	46059.40
613.85	45511.72
614.00	45656.83
614.15	45373.63
614.31	45624.06
614.46	45436.82
614.62	45675.55
614.77	45277.66
614.92	46036.00
615.08	45294.05
615.23	45790.24
615.38	45970.46
615.54	45553.85
615.69	45656.83
615.84	45432.14
616.00	45600.66
616.15	45647.47
616.30	45661.51
616.46	45492.99
616.61	45102.12
616.76	45574.91
616.92	45516.40
617.07	45713.00
617.22	45315.11
617.37	44832.96
617.53	45387.67
617.68	45455.54
617.83	45474.27
617.99	45170.00
618.14	45277.66
618.29	45118.51
618.45	45059.99
618.60	44935.95
618.75	44814.24
618.90	45401.71
619.06	45272.98
619.21	44687.85
619.36	45553.85
619.51	44875.09
619.67	44701.89
619.82	44786.15
619.97	45282.34
620.12	44900.84
620.28	44891.48
620.43	45280.00
620.58	45265.96
620.73	44949.99
620.89	45567.89
621.04	44486.56
621.19	44561.46
621.34	44519.33
621.49	44921.90
621.65	44687.85
621.80	45177.02
621.95	44907.86
622.10	44828.28
622.25	44966.37
622.41	44545.08
622.56	44669.12
622.71	44687.85
622.86	45020.20
623.01	45024.89
623.16	44835.30
623.32	44601.25
623.47	44907.86
623.62	44636.36
623.77	44666.78
623.92	44612.95
624.07	44818.92
624.23	44542.74
624.38	44945.31
624.53	44381.24
624.68	44154.21
624.83	44065.27
624.98	44072.29
625.13	44524.01
625.29	43903.77
625.44	44222.08
625.59	44428.05
625.74	44617.63
625.89	44165.91
626.04	44037.18
626.19	44095.69
626.34	43894.41
626.49	43966.96
626.65	43753.97
626.80	43995.05
626.95	43927.17
627.10	43386.51
627.25	43765.68
627.40	43929.51
627.55	43821.85
627.70	43604.18
627.85	44275.91
628.00	44107.40
628.15	44350.81
628.30	43381.83
628.45	43316.29
628.60	43255.44
628.76	43636.95
628.91	43335.02
629.06	43386.51
629.21	43716.53
629.36	43573.75
629.51	44095.69
629.66	43683.76
629.81	43711.84
629.96	43908.45
630.11	43435.66
630.26	43302.25
630.41	43629.93
630.56	43276.51
630.71	43456.73
630.86	42871.59
631.01	43316.29
631.16	43225.01
631.31	43428.64
631.46	43468.43
631.61	43941.22
631.76	43529.28
631.91	43290.55
632.06	43484.81
632.21	43473.11
632.36	43512.90
632.51	42658.60
632.66	43325.66
632.81	43047.13
632.96	43213.31
633.10	42897.34
633.25	42754.57
633.40	43213.31
633.55	43264.80
633.70	42665.63
633.85	42445.62
634.00	42267.73
634.15	42389.44
634.30	42761.59
634.45	42838.83
634.60	42564.98
634.75	42906.70
634.90	42845.85
635.05	42878.61
635.19	42806.06
635.34	43051.81
635.49	42649.24
635.64	42988.62
635.79	43173.52
635.94	42705.41
636.09	42667.97
636.24	42892.66
636.39	42691.37
636.53	42452.64
636.68	42419.87
636.83	42195.18
636.98	42206.88
637.13	41696.64
637.28	42099.22
637.43	42227.95
637.57	42623.50
637.72	41869.84
637.87	42181.13
638.02	42518.17
638.17	41617.07
638.32	41977.51
638.46	41858.14
638.61	42305.18
638.76	42253.69
638.91	42157.73
639.06	41961.12
639.20	41792.61
639.35	42026.66
639.50	41268.33
639.65	41858.14
639.80	41942.40
639.94	42398.80
640.09	41855.80
640.24	41780.90
640.39	41528.13
640.54	41525.78
640.68	41841.76
640.83	41951.76
640.98	41305.77
641.13	41202.79
641.27	42272.42
641.42	41743.45
641.57	41785.58
641.72	41954.10
641.86	41549.19
642.01	41200.45
642.16	41375.99
642.31	41411.10
642.45	41408.76
642.60	40950.01
642.75	41511.74
642.90	41408.76
643.04	41532.81
643.19	41102.15
643.34	41237.90
643.48	41027.25
643.63	40884.48
643.78	41490.68
643.93	40942.99
644.07	41212.15
644.22	41081.08
644.37	41003.85
644.51	41350.24
644.66	41240.24
644.81	41062.36
644.95	41408.76
645.10	41338.54
645.25	41001.50
645.39	40938.31
645.54	41024.91
645.69	40605.95
645.83	40875.12
645.98	40676.17
646.13	40589.57
646.27	40961.72
646.42	40818.94
646.57	40865.75
646.71	40919.59
646.86	41462.59
647.00	40931.29
647.15	40825.96
647.30	41081.08
647.44	40690.21
647.59	40460.84
647.74	40229.13
647.88	40783.83
648.03	41123.21
648.17	40807.24
648.32	40584.89
648.47	40968.74
648.61	40514.67
648.76	40605.95
648.90	40030.18
649.05	40444.46
649.20	40538.08
649.34	40142.53
649.49	40491.27
649.63	40577.87
649.78	40587.23
649.92	40074.65
650.07	41170.02
650.21	40435.10
650.36	40879.80
650.51	40364.88
650.65	40105.08
650.80	40414.03
650.94	40311.05
651.09	40126.14
651.23	40009.12
651.38	39667.40
651.52	39732.93
651.67	39730.59
651.81	40072.31
651.96	40027.84
652.10	40187.00
652.25	39931.88
652.39	39957.63
652.54	39679.10
652.68	39793.79
652.83	39674.42
652.97	39730.59
653.12	39639.31
653.26	39342.06
653.41	39634.63
653.55	39524.63
653.70	39634.63
653.84	40114.44
653.99	39903.79
654.13	39398.24
654.27	39681.44
654.42	39667.40
654.56	39548.03
654.71	39321.00
654.85	39304.62
655.00	39667.40
655.14	39421.64
655.29	39721.23
655.43	39817.19
655.57	39328.02
655.72	39096.31
655.86	39473.13
656.01	39185.25
656.15	38857.57
656.30	38974.60
656.44	39690.80
656.58	39562.08
656.73	39145.46
656.87	38852.89
657.01	38981.62
657.16	39112.69
657.30	39297.59
657.45	39037.80
657.59	38993.32
657.73	38843.53
657.88	38824.81
658.02	38761.61
658.16	39005.03
658.31	38754.59
658.45	38916.09
658.60	38314.57
658.74	38892.68
658.88	39103.33
659.03	38635.22
659.17	38316.91
659.31	38302.87
659.46	38508.83
659.60	38543.94
659.74	38389.47
659.89	38054.77
660.03	37998.60
660.17	38375.42
660.32	38499.47
660.46	38014.98
660.60	37933.06
660.74	38120.31
660.89	38176.48
661.03	37764.54
661.17	37841.78
661.32	37984.55
661.46	37993.92
661.60	37493.04
661.74	37872.21
661.89	37542.19
662.03	37333.89
662.17	37584.32
662.31	37394.74
662.46	37521.13
662.60	37163.03
662.74	37411.12
662.88	37441.55
663.03	37015.57
663.17	37020.25
663.31	36589.59
663.45	37467.30
663.60	37560.92
663.74	37490.70
663.88	36973.44
664.02	37137.28
664.17	36971.10
664.31	36985.15
664.45	36601.30
664.59	36624.70
664.73	36758.11
664.88	36388.31
665.02	36322.77
665.16	36343.84
665.30	36397.67
665.44	36507.68
665.59	36194.04
665.73	36598.96
665.87	35704.87
666.01	36376.61
666.15	36500.65
666.29	36266.60
666.44	36341.50
666.58	36201.07
666.72	36105.10
666.86	36046.59
667.00	36222.13
667.14	35510.61
667.28	35878.07
667.43	35922.54
667.57	35901.48
667.71	36142.55
667.85	35857.01
667.99	35409.96
668.13	35615.93
668.27	35580.82
668.41	35302.30
668.56	34778.02
668.70	35129.10
668.84	34660.99
668.98	34916.11
669.12	35016.75
669.26	34607.16
669.40	35159.53
669.54	34724.19
669.68	35072.93
669.82	34930.16
669.96	34237.36
670.10	34295.87
670.25	34862.28
670.39	34738.23
670.53	34841.21
670.67	34089.90
670.81	34576.73
670.95	34279.49
671.09	34412.90
671.23	34178.84
671.37	34223.31
671.51	34150.76
671.65	33806.70
671.79	33771.59
671.93	33621.80
672.07	33881.60
672.21	33708.40
672.35	33443.91
672.49	33703.71
672.63	33921.38
672.77	32861.12
672.91	33268.37
673.05	33111.56
673.19	33043.68
673.33	33076.45
673.47	33127.94
673.61	33340.93
673.75	32610.68
673.89	32746.44
674.03	32322.80
674.17	32390.67
674.31	32624.73
674.45	32510.04
674.59	32252.58
674.73	32641.11
674.87	32385.99
675.01	31931.93
675.15	31859.37
675.29	32325.14
675.43	31950.65
675.56	31707.24
675.70	31873.42
675.84	31580.85
675.98	30651.66
676.12	31555.10
676.26	31573.83
676.40	31510.63
676.54	30923.16
676.68	30993.37
676.82	30504.20
676.96	30817.83
677.10	31232.11
677.23	30782.73
677.37	30724.21
677.51	30646.97
677.65	30543.99
677.79	30321.64
677.93	30354.41
678.07	30361.43
678.21	30181.21
678.34	30354.41
678.48	29713.10
678.62	29855.87
678.76	29291.80
678.90	29701.40
679.04	29591.39
679.18	29888.64
679.31	29259.04
679.45	29376.06
679.59	29425.22
679.73	29357.34
679.87	28823.70
680.00	29022.64
680.14	28844.76
680.28	28800.29
680.42	29158.39
680.56	28421.13
680.70	28568.58
680.83	28158.99
680.97	28393.04
681.11	28404.74
681.25	27967.06
681.39	27917.91
681.52	27807.90
681.66	27552.79
681.80	27709.60
681.94	27122.13
682.07	27531.72
682.21	27180.64
682.35	27152.55
682.49	27147.87
682.62	27115.11
682.76	27473.21
682.90	26906.80
683.04	26806.16
683.17	26726.58
683.31	26799.13
683.45	26649.34
683.59	26417.63
683.72	26429.33
683.86	26118.04
684.00	26284.22
684.13	26469.12
684.27	26237.41
684.41	26139.10
684.55	25944.84
684.68	25816.11
684.82	25750.57
684.96	25703.76
685.09	25933.14
685.23	25539.93
685.37	25483.75
685.50	25902.71
685.64	25188.85
685.78	25301.19
685.91	24652.86
686.05	24470.30
686.19	24147.31
686.32	24472.64
686.46	24339.23
686.60	24180.07
686.73	24662.22
686.87	24533.50
687.01	24187.10
687.14	24114.54
687.28	24088.79
687.42	23910.91
687.55	23667.50
687.69	23882.83
687.82	23506.00
687.96	23676.86
688.10	23782.18
688.23	23571.54
688.37	23435.78
688.50	23524.72
688.64	23168.96
688.78	23157.26
688.91	22927.89
689.05	23154.92
689.18	22904.48
689.32	22483.19
689.46	22700.86
689.59	22724.26
689.73	22892.78
689.86	22841.29
690.00	22412.97
690.13	22408.29
690.27	22221.05
690.41	22307.65
690.54	21874.65
690.68	21982.31
690.81	22024.44
690.95	21586.76
691.08	21687.40
691.22	21366.75
691.35	21579.74
691.49	21642.93
691.62	21441.65
691.76	20975.88
691.89	20903.32
692.03	20996.95
692.16	20844.81
692.30	20676.29
692.43	20716.08
692.57	20435.22
692.70	20795.66
692.84	20362.66
692.97	20343.94
693.11	19910.94
693.24	19985.83
693.38	20219.89
693.51	19864.13
693.65	19924.98
693.78	19838.38
693.92	19733.06
694.05	19538.79
694.19	19601.99
694.32	19438.15
694.45	19889.87
694.59	19676.88
694.72	19562.20
694.86	19585.60
694.99	19220.48
695.13	19082.39
695.26	18712.58
695.39	18616.62
695.53	18857.70
695.66	18546.40
695.80	18370.86
695.93	18422.36
696.07	18417.68
696.20	18534.70
696.33	17905.10
696.47	18015.10
696.60	18073.62
696.73	17912.12
696.87	18068.94
697.00	18080.64
697.14	17451.03
697.27	17565.72
697.40	17439.33
697.54	17706.15
697.67	17610.19
697.80	17504.87
697.94	17242.73
698.07	17191.23
698.21	17350.39
698.34	17081.23
698.47	16891.65
698.61	16692.70
698.74	16737.17
698.87	16903.35
699.01	16463.33
699.14	16582.70
699.27	16877.60
699.40	16135.65
699.54	16269.06
699.67	16280.77
699.80	16343.96
699.94	16196.51
700.07	16147.36
700.20	15943.73
700.34	15974.16
700.47	15899.26
700.60	16011.60
700.73	15651.16
700.87	15719.04
701.00	15351.57
701.13	15749.46
701.26	15356.25
701.40	15403.07
701.53	15061.35
701.66	15349.23
701.79	15304.76
701.93	14967.73
702.06	14815.59
702.19	14684.52
702.32	14841.34
702.46	14909.21
702.59	15007.52
702.72	15005.17
702.85	14960.70
702.99	14368.55
703.12	14597.92
703.25	14228.12
703.38	14384.93
703.51	14310.04
703.65	14153.22
703.78	13916.83
703.91	13870.01
704.04	13727.24
704.17	13884.06
704.31	14054.92
704.44	13788.10
704.57	13706.18
704.70	13769.37
704.83	13556.38
704.96	13263.82
705.10	13219.35
705.23	13151.47
>>>>>End Processed Spectral Data<<<<<
