SpectraSuite Data File
++++++++++++++++++++++++++++++++++++
Date: Fri Oct 25 10:44:09 EDT 2013
User: price-jones
Dark Spectrum Present: No
Reference Spectrum Present: No
Number of Sampled Component Spectra: 1
Spectrometers: USB2+H05261
Integration Time (usec): 100000 (USB2+H05261)
Spectra Averaged: 1 (USB2+H05261)
Boxcar Smoothing: 0 (USB2+H05261)
Correct for Electrical Dark: No (USB2+H05261)
Strobe/Lamp Enabled: No (USB2+H05261)
Correct for Detector Non-linearity: No (USB2+H05261)
Correct for Stray Light: No (USB2+H05261)
Number of Pixels in Processed Spectrum: 2048
>>>>>Begin Processed Spectral Data<<<<<
365.73	102.98
365.92	102.98
366.12	102.98
366.32	138.09
366.52	23.41
366.72	42.13
366.91	35.11
367.11	81.92
367.31	86.60
367.51	88.94
367.70	2.34
367.90	32.77
368.10	16.38
368.30	23.41
368.49	51.49
368.69	67.88
368.89	16.38
369.09	60.85
369.28	79.58
369.48	93.62
369.68	39.79
369.87	91.28
370.07	124.05
370.27	173.20
370.47	264.48
370.66	414.27
370.86	461.09
371.06	526.62
371.25	442.36
371.45	423.64
371.65	472.79
371.84	414.27
372.04	374.49
372.24	461.09
372.44	470.45
372.63	557.05
372.83	468.11
373.03	507.90
373.22	503.22
373.42	498.53
373.62	465.77
373.81	578.11
374.01	507.90
374.21	552.37
374.40	517.26
374.60	596.84
374.79	610.88
374.99	589.82
375.19	557.05
375.38	580.45
375.58	613.22
375.78	496.19
375.97	580.45
376.17	543.00
376.37	645.99
376.56	533.64
376.76	575.77
376.95	585.13
377.15	681.10
377.35	535.98
377.54	681.10
377.74	641.31
377.93	561.73
378.13	592.16
378.33	641.31
378.52	589.82
378.72	634.29
378.91	683.44
379.11	601.52
379.31	599.18
379.50	711.52
379.70	676.41
379.89	697.48
380.09	592.16
380.28	580.45
380.48	676.41
380.68	624.92
380.87	713.86
381.07	704.50
381.26	699.82
381.46	655.35
381.65	816.85
381.85	657.69
382.04	706.84
382.24	650.67
382.43	699.82
382.63	669.39
382.83	706.84
383.02	697.48
383.22	781.74
383.41	800.46
383.61	795.78
383.80	751.31
384.00	798.12
384.19	809.83
384.39	823.87
384.58	816.85
384.78	727.91
384.97	770.04
385.17	784.08
385.36	784.08
385.56	863.66
385.75	788.76
385.95	786.42
386.14	847.27
386.34	844.93
386.53	798.12
386.72	889.40
386.92	891.74
387.11	919.83
387.31	908.13
387.50	851.96
387.70	798.12
387.89	919.83
388.09	833.23
388.28	861.32
388.48	931.53
388.67	873.02
388.86	929.19
389.06	905.79
389.25	1039.20
389.45	931.53
389.64	933.87
389.84	1053.24
390.03	1025.15
390.22	992.39
390.42	966.64
390.61	1015.79
390.81	933.87
391.00	1067.28
391.19	1053.24
391.39	936.21
391.58	1004.09
391.78	987.71
391.97	997.07
392.16	1041.54
392.36	1057.92
392.55	1067.28
392.75	1041.54
392.94	976.00
393.13	1097.71
393.33	1004.09
393.52	1018.13
393.71	1156.22
393.91	1128.14
394.10	1107.07
394.29	1167.93
394.49	1132.82
394.68	1214.74
394.88	1268.57
395.07	1256.87
395.26	1294.32
395.46	1249.85
395.65	1270.91
395.84	1193.67
396.04	1343.47
396.23	1275.59
396.42	1203.04
396.62	1270.91
396.81	1252.19
397.00	1238.14
397.19	1196.01
397.39	1310.70
397.58	1308.36
397.77	1451.13
397.97	1383.26
398.16	1390.28
398.35	1437.09
398.55	1439.43
398.74	1430.07
398.93	1547.09
399.12	1540.07
399.32	1497.94
399.51	1502.62
399.70	1519.01
399.90	1577.52
400.09	1514.33
400.28	1607.95
400.47	1537.73
400.67	1645.40
400.86	1540.07
401.05	1605.61
401.24	1659.44
401.44	1685.19
401.63	1741.36
401.82	1729.66
402.01	1668.80
402.21	1694.55
402.40	1647.74
402.59	1769.44
402.78	1827.96
402.97	1729.66
403.17	1739.02
403.36	1748.38
403.55	1781.15
403.74	1909.88
403.93	1825.62
404.13	1816.26
404.32	1776.47
404.51	1900.52
404.70	1905.20
404.89	1849.02
405.09	1923.92
405.28	1884.13
405.47	1919.24
405.66	1856.04
405.85	1968.39
406.05	1900.52
406.24	2015.20
406.43	1991.80
406.62	2155.63
406.81	2111.16
407.00	1966.05
407.20	2010.52
407.39	1977.75
407.58	2157.97
407.77	2092.44
407.96	2139.25
408.15	2314.79
408.34	2235.21
408.54	2284.36
408.73	2167.34
408.92	2162.66
409.11	2258.62
409.30	2237.55
409.49	2270.32
409.68	2293.72
409.87	2200.10
410.07	2289.04
410.26	2331.17
410.45	2242.23
410.64	2417.77
410.83	2525.44
411.02	2415.43
411.21	2478.63
411.40	2548.84
411.59	2630.76
411.78	2562.89
411.98	2679.91
412.17	2693.96
412.36	2605.02
412.55	2654.17
412.74	2766.51
412.93	2736.09
413.12	2647.15
413.31	2724.38
413.50	2733.75
413.69	2846.09
413.88	2787.58
414.07	2820.35
414.26	2904.60
414.45	2939.71
414.64	3007.59
414.83	3000.57
415.02	3098.87
415.22	2979.50
415.41	3138.66
415.60	3183.13
415.79	3246.32
415.98	3325.90
416.17	3094.19
416.36	3176.11
416.55	3169.09
416.74	3290.79
416.93	3293.13
417.12	3206.53
417.31	3356.33
417.50	3199.51
417.69	3384.41
417.88	3314.20
418.07	3342.28
418.26	3424.20
418.45	3478.04
418.64	3555.27
418.83	3407.82
419.02	3454.63
419.21	3653.58
419.39	3630.17
419.58	3494.42
419.77	3536.55
419.96	3541.23
420.15	3599.74
420.34	3695.71
420.53	3712.09
420.72	3808.05
420.91	3712.09
421.10	3768.26
421.29	3794.01
421.48	3742.52
421.67	3803.37
421.86	3756.56
422.05	3852.52
422.24	3644.21
422.43	3840.82
422.61	3904.01
422.80	3985.93
422.99	3904.01
423.18	3838.48
423.37	4016.36
423.56	3901.67
423.75	3840.82
423.94	3838.48
424.13	3574.00
424.32	3768.26
424.50	3948.48
424.69	3826.78
424.88	3946.14
425.07	4025.72
425.26	3824.44
425.45	3971.89
425.64	3882.95
425.83	3847.84
426.01	3992.95
426.20	3932.10
426.39	3999.98
426.58	3843.16
426.77	4086.58
426.96	3852.52
427.15	3932.10
427.33	4142.75
427.52	4112.32
427.71	4224.67
427.90	4032.74
428.09	4194.24
428.28	4243.39
428.46	4095.94
428.65	4175.52
428.84	4145.09
429.03	4273.82
429.22	4086.58
429.40	4067.85
429.59	4105.30
429.78	3934.44
429.97	3941.46
430.16	4131.05
430.34	4138.07
430.53	4294.88
430.72	4152.11
430.91	4170.83
431.10	4175.52
431.28	4458.72
431.47	4526.60
431.66	4645.96
431.85	4475.10
432.03	4575.75
432.22	4760.65
432.41	4545.32
432.60	4594.47
432.79	4601.49
432.97	4753.63
433.16	4603.83
433.35	4671.71
433.54	4631.92
433.72	4594.47
433.91	4744.27
434.10	4830.87
434.28	4760.65
434.47	4753.63
434.66	4990.02
434.85	5008.75
435.03	4816.82
435.22	4868.31
435.41	4994.70
435.59	4990.02
435.78	5074.28
435.97	5107.05
436.16	4999.38
436.34	5156.20
436.53	5114.07
436.72	5289.61
436.90	5090.67
437.09	5217.05
437.28	5004.07
437.46	5179.61
437.65	5090.67
437.84	5163.22
438.02	5060.24
438.21	5125.77
438.40	5217.05
438.58	5490.90
438.77	5373.87
438.96	5481.53
439.14	5495.58
439.33	5530.69
439.52	5509.62
439.70	5504.94
439.89	5743.67
440.08	5706.23
440.26	5579.84
440.45	5816.23
440.63	5895.81
440.82	5797.51
441.01	5870.06
441.19	5802.19
441.38	6092.41
441.57	6008.16
441.75	6033.90
441.94	6324.13
442.12	6356.90
442.31	6108.80
442.50	6270.30
442.68	6345.19
442.87	6427.11
443.05	6305.40
443.24	6473.92
443.43	6434.13
443.61	6480.94
443.80	6628.40
443.98	6436.47
444.17	6171.99
444.35	6576.91
444.54	6623.72
444.73	6537.12
444.91	6438.81
445.10	6623.72
445.28	6380.30
445.47	6310.08
445.65	6321.79
445.84	6408.39
446.02	6478.60
446.21	6539.46
446.39	6373.28
446.58	6686.91
446.77	6450.52
446.95	6513.71
447.14	6752.45
447.32	6810.96
447.51	6663.51
447.69	6658.82
447.88	6675.21
448.06	6597.97
448.25	6759.47
448.43	6717.34
448.62	6579.25
448.80	6757.13
448.99	6827.34
449.17	6827.34
449.36	6768.83
449.54	6796.92
449.73	6883.52
449.91	7000.54
450.10	7260.34
450.28	7131.61
450.46	7091.82
450.65	7197.15
450.83	7206.51
451.02	7124.59
451.20	7190.13
451.39	7126.93
451.57	7309.49
451.76	7173.74
451.94	7258.00
452.13	7199.49
452.31	7148.00
452.49	7070.76
452.68	7201.83
452.86	7169.06
453.05	7194.81
453.23	7232.26
453.42	7265.02
453.60	7370.35
453.78	7346.94
453.97	7098.84
454.15	7377.37
454.34	7337.58
454.52	7463.97
454.70	7531.84
454.89	7370.35
455.07	7459.29
455.26	7592.70
455.44	7871.22
455.62	7801.01
455.81	7604.40
455.99	7698.02
456.17	7801.01
456.36	7894.63
456.54	7634.83
456.73	7997.61
456.91	8056.12
457.09	8149.75
457.28	8287.84
457.46	7976.55
457.64	8112.30
457.83	7967.18
458.01	7927.39
458.19	8114.64
458.38	8248.05
458.56	8170.81
458.74	8081.87
458.93	8222.30
459.11	8145.06
459.29	8194.22
459.48	8273.79
459.66	8329.97
459.84	8334.65
460.03	8423.59
460.21	8285.50
460.39	8299.54
460.57	8404.86
460.76	8507.85
460.94	8498.49
461.12	8631.90
461.31	8578.06
461.49	8571.04
461.67	8774.67
461.85	8739.56
462.04	8896.38
462.22	8894.04
462.40	8802.75
462.59	8975.95
462.77	8720.84
462.95	8823.82
463.13	8821.48
463.32	8737.22
463.50	8954.89
463.68	8933.82
463.86	9039.15
464.05	8784.03
464.23	8826.16
464.41	9055.53
464.59	8777.01
464.78	9151.49
464.96	9027.45
465.14	8908.08
465.32	9036.81
465.50	9088.30
465.69	9298.95
465.87	9060.21
466.05	9053.19
466.23	8992.34
466.41	9195.96
466.60	9357.46
466.78	9172.56
466.96	9202.99
467.14	9142.13
467.32	9247.46
467.51	9434.70
467.69	9198.31
467.87	9469.81
468.05	9495.55
468.23	9317.67
468.41	9586.83
468.60	9668.75
468.78	9661.73
468.96	9348.10
469.14	9799.82
469.32	9668.75
469.50	9345.76
469.69	9748.33
469.87	9818.55
470.05	9509.60
470.23	9856.00
470.41	9820.89
470.59	9832.59
470.77	9839.61
470.95	9668.75
471.14	10211.76
471.32	9874.72
471.50	10363.89
471.68	10221.12
471.86	10335.81
472.04	10384.96
472.22	10509.01
472.40	9984.73
472.58	10200.05
472.77	10202.40
472.95	10455.17
473.13	10593.26
473.31	10455.17
473.49	10544.11
473.67	10689.23
473.85	10714.97
474.03	10663.48
474.21	10890.51
474.39	10977.11
474.57	11026.26
474.75	10963.07
474.93	11318.83
475.12	11136.27
475.30	11119.89
475.48	11066.05
475.66	11030.94
475.84	11363.30
476.02	11295.43
476.20	11370.32
476.38	11587.99
476.56	11620.76
476.74	11674.59
476.92	11571.61
477.10	11861.84
477.28	12046.74
477.46	12093.55
477.64	12091.21
477.82	12358.03
478.00	12547.61
478.18	12573.36
478.36	12269.09
478.54	12613.15
478.72	12734.85
478.90	12847.20
479.08	13081.25
479.26	13107.00
479.44	13020.40
479.62	13032.10
479.80	13408.93
479.98	13207.64
480.16	13561.06
480.34	13694.47
480.52	13703.84
480.70	13956.61
480.88	13579.79
481.06	13706.18
481.24	13816.18
481.41	14258.54
481.59	14410.68
481.77	14197.69
481.95	14195.35
482.13	14366.21
482.31	14647.07
482.49	14745.38
482.67	14787.50
482.85	15166.67
483.03	15035.60
483.21	15501.37
483.39	15543.50
483.57	15255.61
483.74	15328.17
483.92	15637.12
484.10	15531.80
484.28	15807.98
484.46	16009.26
484.64	16255.02
484.82	15838.41
485.00	16037.35
485.18	16531.20
485.35	16631.85
485.53	16163.74
485.71	16215.23
485.89	16514.82
486.07	16348.64
486.25	16643.55
486.43	16919.73
486.61	16959.52
486.78	17261.45
486.96	17642.96
487.14	17556.36
487.32	17518.91
487.50	17891.06
487.68	18012.76
487.85	18366.18
488.03	18129.79
488.21	18443.42
488.39	18560.45
488.57	18621.30
488.75	18691.52
488.92	18986.43
489.10	19176.01
489.28	19281.33
489.46	19599.65
489.64	19482.62
489.81	20107.54
489.99	20063.07
490.17	20205.84
490.35	20287.76
490.53	20297.13
490.70	20395.43
490.88	20549.90
491.06	20631.82
491.24	20460.96
491.41	20561.61
491.59	20664.59
491.77	20699.70
491.95	20891.62
492.13	21214.62
492.30	21525.91
492.48	21724.85
492.66	21502.50
492.84	21577.40
493.01	22017.42
493.19	21645.27
493.37	22183.60
493.54	22354.46
493.72	22691.49
493.90	22480.85
494.08	22522.98
494.25	23054.28
494.43	23339.82
494.61	23407.70
494.79	23323.44
494.96	23246.20
495.14	23543.45
495.32	23630.05
495.49	23573.88
495.67	23857.08
495.85	24044.32
496.02	24245.61
496.20	24573.28
496.38	24360.30
496.55	24177.73
496.73	25167.78
496.91	24851.81
497.09	24748.82
497.26	24926.71
497.44	24730.10
497.62	25179.48
497.79	25486.09
497.97	24790.95
498.14	25329.28
498.32	25605.46
498.50	25738.87
498.67	26022.08
498.85	25635.89
499.03	26434.01
499.20	26141.44
499.38	26214.00
499.56	26462.10
499.73	26258.47
499.91	26499.55
500.08	26431.67
500.26	26146.12
500.44	26188.25
500.61	26600.19
500.79	26536.99
500.97	26607.21
501.14	26934.88
501.32	26867.01
501.49	27035.53
501.67	27012.12
501.84	27271.92
502.02	27651.09
502.20	27529.38
502.37	27452.14
502.55	27618.32
502.72	27772.80
502.90	27817.27
503.07	27962.38
503.25	28240.90
503.43	27615.98
503.60	27651.09
503.78	27967.06
503.95	28339.21
504.13	28467.94
504.30	28737.10
504.48	28215.16
504.65	28739.44
504.83	28886.89
505.01	28973.49
505.18	28989.88
505.36	29385.43
505.53	29490.75
505.71	29345.64
505.88	29806.72
506.06	29397.13
506.23	29898.00
506.41	29720.12
506.58	29406.49
506.76	29986.94
506.93	29914.39
507.11	30288.87
507.28	30052.48
507.46	29874.60
507.63	30113.33
507.81	30150.78
507.98	29862.90
508.16	30366.11
508.33	30464.41
508.50	30635.27
508.68	30785.07
508.85	31129.12
509.03	30916.14
509.20	31042.53
509.38	30756.98
509.55	30794.43
509.73	30911.46
509.90	31676.81
510.08	30993.37
510.25	31285.94
510.42	31601.91
510.60	31662.77
510.77	31496.59
510.95	32072.36
511.12	31927.25
511.30	31852.35
511.47	31950.65
511.64	32336.84
511.82	32645.79
511.99	32116.83
512.17	32613.02
512.34	31861.71
512.51	32318.12
512.69	32573.24
512.86	32278.33
513.04	33034.32
513.21	32755.80
513.38	32549.83
513.56	32512.38
513.73	32655.15
513.90	33177.09
514.08	32664.52
514.25	32837.72
514.43	33338.59
514.60	33074.11
514.77	32985.17
514.95	33743.50
515.12	33425.19
515.29	33521.15
515.47	33975.22
515.64	33853.51
515.81	33886.28
515.99	33656.90
516.16	33895.64
516.33	33670.95
516.51	33792.65
516.68	33188.80
516.85	32678.56
517.03	33708.40
517.20	34265.44
517.37	34047.77
517.54	34045.43
517.72	34202.25
517.89	34007.98
518.06	33778.61
518.24	34059.48
518.41	34499.50
518.58	34356.72
518.75	34389.49
518.93	34941.86
519.10	34831.85
519.27	35054.20
519.45	34991.01
519.62	35192.30
519.79	35157.19
519.96	35281.24
520.14	35431.03
520.31	35601.89
520.48	35557.42
520.65	35845.30
520.83	36070.00
521.00	35646.36
521.17	35597.21
521.34	35777.43
521.52	36210.43
521.69	35845.30
521.86	36488.95
522.03	36081.70
522.20	36458.52
522.38	36369.58
522.55	36472.57
522.72	36327.45
522.89	36067.66
523.07	37001.53
523.24	36580.23
523.41	36706.62
523.58	37020.25
523.75	37528.15
523.92	36954.72
524.10	37050.68
524.27	37326.86
524.44	37230.90
524.61	36919.61
524.78	37460.27
524.96	37581.98
525.13	37706.03
525.30	37453.25
525.47	37860.51
525.64	37188.77
525.81	37626.45
525.98	37771.57
526.16	37584.32
526.33	37443.89
526.50	37663.90
526.67	37113.87
526.84	37282.39
527.01	37511.77
527.18	37390.06
527.36	38314.57
527.53	38036.05
527.70	38464.36
527.87	38630.54
528.04	38204.56
528.21	38181.16
528.38	38541.60
528.55	38492.45
528.72	38731.18
528.89	38387.13
529.07	38593.09
529.24	38314.57
529.41	38724.16
529.58	38859.91
529.75	38909.07
529.92	39000.35
530.09	39426.32
530.26	39016.73
530.43	39557.39
530.60	38682.03
530.77	38862.26
530.94	38873.96
531.11	39496.54
531.28	39292.91
531.46	39337.38
531.63	39498.88
531.80	39508.24
531.97	39360.79
532.14	39388.88
532.31	39426.32
532.48	39524.63
532.65	39342.06
532.82	39622.93
532.99	39786.77
533.16	39452.07
533.33	40140.19
533.50	40067.63
533.67	39824.22
533.84	40025.50
534.01	39908.47
534.18	39728.25
534.35	40584.89
534.52	40217.43
534.69	40128.48
534.86	40481.91
535.03	40409.35
535.20	40294.66
535.37	40708.94
535.54	40804.90
535.71	40636.38
535.88	40617.66
536.05	40978.10
536.22	40629.36
536.38	41088.10
536.55	40877.46
536.72	40701.92
536.89	40215.08
537.06	40247.85
537.23	41331.52
537.40	41015.55
537.57	40697.24
537.74	41076.40
537.91	41064.70
538.08	41207.47
538.25	40893.84
538.42	41354.93
538.59	41383.01
538.75	40926.61
538.92	40954.69
539.09	41392.37
539.26	41493.02
539.43	41230.88
539.60	41294.07
539.77	41062.36
539.94	41471.95
540.11	41130.23
540.28	41418.12
540.44	41560.89
540.61	41570.25
540.78	41556.21
540.95	41390.03
541.12	41610.04
541.29	41006.19
541.46	41507.06
541.62	42094.53
541.79	42120.28
541.96	41195.77
542.13	41816.01
542.30	41858.14
542.47	42190.50
542.63	41979.85
542.80	42232.63
542.97	42770.95
543.14	42674.99
543.31	42941.81
543.48	42653.92
543.64	42948.83
543.81	42976.92
543.98	42972.24
544.15	42857.55
544.32	42932.45
544.48	42623.50
544.65	42752.23
544.82	42885.64
544.99	42806.06
545.16	42925.42
545.32	42562.64
545.49	43014.37
545.66	43203.95
545.83	43203.95
546.00	43178.20
546.16	43119.69
546.33	43007.34
546.50	43049.47
546.67	43285.87
546.83	42754.57
547.00	43007.34
547.17	43044.79
547.34	43288.21
547.50	43700.14
547.67	43374.81
547.84	43381.83
548.00	43627.59
548.17	43966.96
548.34	43988.03
548.51	43655.67
548.67	43775.04
548.84	43487.15
549.01	43578.43
549.18	43842.92
549.34	43587.80
549.51	44093.35
549.68	43807.81
549.84	43672.06
550.01	44098.03
550.18	44121.44
550.34	43753.97
550.51	43508.22
550.68	43718.87
550.84	43583.12
551.01	44034.84
551.18	43995.05
551.34	44109.74
551.51	44257.19
551.68	44067.61
551.84	44065.27
552.01	44395.28
552.18	44540.39
552.34	43695.46
552.51	44360.17
552.68	44540.39
552.84	44275.91
553.01	44676.15
553.18	44329.75
553.34	44341.45
553.51	44383.58
553.67	44554.44
553.84	44926.58
554.01	44341.45
554.17	45036.59
554.34	44811.90
554.51	44807.22
554.67	44638.70
554.84	44566.14
555.00	44470.18
555.17	44589.55
555.33	44830.62
555.50	44746.36
555.67	44835.30
555.83	44369.54
556.00	45010.84
556.16	45191.06
556.33	44474.86
556.50	44626.99
556.66	45205.11
556.83	44931.26
556.99	45020.20
557.16	44914.88
557.32	44954.67
557.49	45502.35
557.65	44807.22
557.82	45015.52
557.98	45062.33
558.15	45125.53
558.32	45305.75
558.48	44954.67
558.65	45090.42
558.81	44828.28
558.98	44910.20
559.14	45205.11
559.31	45090.42
559.47	45024.89
559.64	45450.86
559.80	45600.66
559.97	45631.08
560.13	44896.16
560.30	45043.61
560.46	45043.61
560.63	45532.78
560.79	45532.78
560.96	45380.65
561.12	45734.07
561.29	45336.18
561.45	45542.14
561.61	45256.60
561.78	45050.63
561.94	45008.50
562.11	45380.65
562.27	45294.05
562.44	45645.13
562.60	45219.15
562.77	45673.21
562.93	45518.74
563.10	45460.23
563.26	45595.98
563.42	45947.06
563.59	45471.93
563.75	45694.28
563.92	45743.43
564.08	45886.20
564.24	45858.12
564.41	45528.10
564.57	45265.96
564.74	45516.40
564.90	45621.72
565.07	45968.12
565.23	45382.99
565.39	45626.40
565.56	45668.53
565.72	45492.99
565.88	45748.11
566.05	45670.87
566.21	45975.14
566.38	45521.08
566.54	45469.59
566.70	46199.83
566.87	46127.28
567.03	45949.40
567.19	46155.36
567.36	45996.21
567.52	45867.48
567.68	45801.94
567.85	45532.78
568.01	46082.81
568.17	45729.39
568.34	45956.42
568.50	45830.03
568.66	45539.80
568.83	45776.20
568.99	45778.54
569.15	45757.47
569.32	45649.81
569.48	45537.46
569.64	46085.15
569.81	46248.99
569.97	45872.16
570.13	45848.75
570.30	45338.52
570.46	45876.84
570.62	45811.31
570.78	45359.58
570.95	45263.62
571.11	45705.98
571.27	45832.37
571.43	45848.75
571.60	45586.61
571.76	45624.06
571.92	45942.38
572.09	46010.25
572.25	45958.76
572.41	45876.84
572.57	46129.62
572.74	46277.07
572.90	45628.74
573.06	45935.35
573.22	45968.12
573.38	45617.04
573.55	45680.24
573.71	46113.23
573.87	45834.71
574.03	45691.94
574.20	45874.50
574.36	45956.42
574.52	46066.42
574.68	46258.35
574.84	45947.06
575.01	45935.35
575.17	46138.98
575.33	45792.58
575.49	45848.75
575.65	45801.94
575.82	46183.45
575.98	45956.42
576.14	46155.36
576.30	45998.55
576.46	46099.19
576.62	46094.51
576.79	46265.37
576.95	46134.30
577.11	46244.30
577.27	46155.36
577.43	46054.72
577.59	46190.47
577.75	46209.20
577.92	45851.09
578.08	46082.81
578.24	45986.85
578.40	45925.99
578.56	45867.48
578.72	46036.00
578.88	46588.36
579.04	46560.28
579.21	46333.24
579.37	46131.96
579.53	46103.87
579.69	46059.40
579.85	46237.28
580.01	46333.24
580.17	46225.58
580.33	46202.18
580.49	46351.97
580.65	46710.07
580.82	46260.69
580.98	46178.77
581.14	46050.04
581.30	46188.13
581.46	46520.49
581.62	46452.61
581.78	46026.63
581.94	46405.80
582.10	45844.07
582.26	46138.98
582.42	46298.14
582.58	46389.42
582.74	46174.09
582.90	46129.62
583.06	46195.15
583.22	46637.51
583.38	46092.17
583.54	46431.55
583.70	46237.28
583.86	46213.88
584.02	46061.74
584.18	46321.54
584.34	46241.96
584.50	46021.95
584.66	46298.14
584.82	46300.48
584.98	46614.11
585.14	46216.22
585.30	46267.71
585.46	45872.16
585.62	46178.77
585.78	46028.98
585.94	45638.11
586.10	46227.92
586.26	46356.65
586.42	46265.37
586.58	46543.89
586.74	46892.63
586.90	45785.56
587.06	45883.86
587.22	46398.78
587.38	45771.52
587.54	46340.27
587.70	46153.02
587.86	46005.57
588.02	46136.64
588.18	46246.65
588.34	46272.39
588.49	46033.66
588.65	45331.50
588.81	45640.45
588.97	46122.60
589.13	45570.23
589.29	45937.69
589.45	45925.99
589.61	46190.47
589.77	46244.30
589.93	46103.87
590.08	46291.12
590.24	46096.85
590.40	45839.39
590.56	46686.67
590.72	46555.60
590.88	46387.08
591.04	46272.39
591.20	46663.26
591.35	46499.42
591.51	46869.23
591.67	46553.26
591.83	46534.53
591.99	46667.94
592.15	46122.60
592.31	46490.06
592.46	46520.49
592.62	46529.85
592.78	46691.35
592.94	46836.46
593.10	46253.67
593.26	46766.24
593.41	46227.92
593.57	46188.13
593.73	46157.70
593.89	46644.54
594.05	46286.43
594.20	46628.15
594.36	46204.52
594.52	46211.54
594.68	45989.19
594.84	46532.19
594.99	46857.52
595.15	46155.36
595.31	46469.00
595.47	46302.82
595.62	46335.59
595.78	46326.22
595.94	46251.33
596.10	46600.07
596.25	46639.86
596.41	46590.70
596.57	46368.35
596.73	46375.37
596.88	46429.21
597.04	46401.12
597.20	46773.27
597.36	46316.86
597.51	46443.25
597.67	46780.29
597.83	46405.80
597.99	46946.47
598.14	46309.84
598.30	46321.54
598.46	46445.59
598.61	46492.40
598.77	46031.32
598.93	45968.12
599.09	46775.61
599.24	47159.45
599.40	46780.29
599.56	46808.37
599.71	46415.16
599.87	46417.50
600.03	46263.03
600.18	46146.00
600.34	46590.70
600.50	46373.03
600.65	46431.55
600.81	46494.74
600.97	46667.94
601.12	46602.41
601.28	46363.67
601.44	46532.19
601.59	46368.35
601.75	46272.39
601.91	46796.67
602.06	45951.74
602.22	46138.98
602.37	46347.29
602.53	46096.85
602.69	47147.75
602.84	46513.47
603.00	46820.08
603.16	46033.66
603.31	46726.46
603.47	46616.45
603.62	46078.13
603.78	46576.66
603.94	46312.18
604.09	46356.65
604.25	46855.18
604.40	46384.74
604.56	46230.26
604.71	46403.46
604.87	46239.62
605.03	46237.28
605.18	46174.09
605.34	46366.01
605.49	46024.29
605.65	46461.97
605.80	46351.97
605.96	46291.12
606.12	46176.43
606.27	46190.47
606.43	45839.39
606.58	46478.36
606.74	46422.19
606.89	46260.69
607.05	46288.77
607.20	46579.00
607.36	45804.28
607.51	45785.56
607.67	46206.86
607.82	46124.94
607.98	46253.67
608.13	45944.72
608.29	45705.98
608.44	45682.58
608.60	45558.53
608.75	45940.04
608.91	45495.33
609.06	45848.75
609.22	46080.47
609.37	46185.79
609.53	46038.34
609.68	45902.59
609.84	45715.34
609.99	45965.78
610.15	45750.45
610.30	45619.38
610.46	45731.73
610.61	45490.65
610.76	45968.12
610.92	45851.09
611.07	45844.07
611.23	45933.01
611.38	46129.62
611.54	45546.82
611.69	45511.72
611.84	45593.64
612.00	45455.54
612.15	45354.90
612.31	45736.41
612.46	45399.37
612.62	45687.26
612.77	45031.91
612.92	45570.23
613.08	45085.74
613.23	45237.87
613.39	45277.66
613.54	45022.54
613.69	44903.18
613.85	44973.39
614.00	45312.77
614.15	45851.09
614.31	45333.84
614.46	45443.84
614.62	45570.23
614.77	45221.49
614.92	45097.44
615.08	44924.24
615.23	45158.30
615.38	45453.20
615.54	44744.02
615.69	45106.80
615.84	44921.90
616.00	44992.12
616.15	45031.91
616.30	44498.26
616.46	44626.99
616.61	44289.96
616.76	44772.11
616.92	44657.42
617.07	44814.24
617.22	44591.89
617.37	44325.07
617.53	45343.20
617.68	45036.59
617.83	44978.07
617.99	44748.70
618.14	44779.13
618.29	44376.56
618.45	44879.77
618.60	44332.09
618.75	44318.04
618.90	44332.09
619.06	44748.70
619.21	44893.82
619.36	44793.17
619.51	44493.58
619.67	44680.83
619.82	44346.13
619.97	44851.69
620.12	44502.95
620.28	44091.01
620.43	44147.18
620.58	44713.59
620.73	44531.03
620.89	44343.79
621.04	44245.49
621.19	44467.84
621.34	44414.01
621.49	44025.48
621.65	43917.81
621.80	44179.95
621.95	44081.65
622.10	43997.39
622.25	43899.09
622.41	43913.13
622.56	43936.54
622.71	44226.76
622.86	44109.74
623.01	44369.54
623.16	43948.24
623.32	43543.33
623.47	44278.25
623.62	44107.40
623.77	43805.47
623.92	44076.97
624.07	43873.34
624.23	43335.02
624.38	43681.42
624.53	43613.54
624.68	43552.69
624.83	43938.88
624.98	43508.22
625.13	43386.51
625.29	43569.07
625.44	43587.80
625.59	43124.37
625.74	43194.59
625.89	43199.27
626.04	43054.15
626.19	43510.56
626.34	43332.68
626.49	43416.94
626.65	43297.57
626.80	43590.14
626.95	43192.25
627.10	42609.45
627.25	42981.60
627.40	42932.45
627.55	42574.34
627.70	42951.17
627.85	42492.43
628.00	42515.83
628.15	42789.67
628.30	42667.97
628.45	42887.98
628.60	43187.56
628.76	43056.50
628.91	42497.11
629.06	42553.28
629.21	42614.13
629.36	42653.92
629.51	42295.82
629.66	42160.07
629.81	42094.53
629.96	42777.97
630.11	42604.77
630.26	43005.00
630.41	43100.97
630.56	42628.18
630.71	42564.98
630.86	42518.17
631.01	42412.85
631.16	42555.62
631.31	42330.93
631.46	41801.97
631.61	42050.06
631.76	42581.37
631.91	41984.53
632.06	42623.50
632.21	42665.63
632.36	42445.62
632.51	42153.05
632.66	41703.67
632.81	41432.16
632.96	41488.34
633.10	42094.53
633.25	41900.27
633.40	42024.32
633.55	42068.79
633.70	41977.51
633.85	41778.56
634.00	41617.07
634.15	42019.64
634.30	41900.27
634.45	41486.00
634.60	41696.64
634.75	41570.25
634.90	41216.83
635.05	41471.95
635.19	41247.26
635.34	41984.53
635.49	41565.57
635.64	41673.24
635.79	41280.03
635.94	41244.92
636.09	41483.66
636.24	41549.19
636.39	40917.25
636.53	41233.22
636.68	41378.33
636.83	40996.82
636.98	41439.18
637.13	41043.63
637.28	41888.57
637.43	41525.78
637.57	41375.99
637.72	41167.68
637.87	41151.30
638.02	41338.54
638.17	41373.65
638.32	41469.61
638.46	40863.41
638.61	41158.32
638.76	41113.85
638.91	41153.64
639.06	40898.52
639.20	41137.26
639.35	40793.20
639.50	40739.36
639.65	40903.20
639.80	41034.27
639.94	40734.68
640.09	40900.86
640.24	40566.16
640.39	40538.08
640.54	40545.10
640.68	40460.84
640.83	40615.32
640.98	40388.28
641.13	40168.27
641.27	40987.46
641.42	40692.55
641.57	40376.58
641.72	40226.79
641.86	40179.98
642.01	40425.73
642.16	40156.57
642.31	39941.24
642.45	40275.94
642.60	40060.61
642.75	40491.27
642.90	40502.97
643.04	40210.40
643.19	40575.53
643.34	40133.17
643.48	39901.45
643.63	39688.46
643.78	39840.60
643.93	40006.78
644.07	39665.06
644.22	39903.79
644.37	39681.44
644.51	39985.71
644.66	40182.32
644.81	40088.70
644.95	39871.03
645.10	39889.75
645.25	39959.97
645.39	39920.18
645.54	40187.00
645.69	39496.54
645.83	39590.16
645.98	39922.52
646.13	39482.50
646.27	39978.69
646.42	39431.01
646.57	39739.96
646.71	39812.51
646.86	39381.85
647.00	39512.92
647.15	39683.78
647.30	39779.74
647.44	39058.86
647.59	39316.32
647.74	39496.54
647.88	39545.69
648.03	39241.42
648.17	39346.75
648.32	38827.15
648.47	39150.14
648.61	39000.35
648.76	39573.78
648.90	39189.93
649.05	39126.74
649.20	38719.48
649.34	38941.83
649.49	39058.86
649.63	38796.72
649.78	38913.75
649.92	39033.11
650.07	39023.75
650.21	39147.80
650.36	39091.63
650.51	39082.27
650.65	39400.58
650.80	39618.25
650.94	39271.85
651.09	38803.74
651.23	39283.55
651.38	38890.34
651.52	38979.28
651.67	38754.59
651.81	38433.94
651.96	38511.17
652.10	38445.64
652.25	38457.34
652.39	38796.72
652.54	38590.75
652.68	38871.62
652.83	38611.82
652.97	38391.81
653.12	38639.90
653.26	37926.04
653.41	38546.28
653.55	38309.89
653.70	37975.19
653.84	38328.61
653.99	38270.10
654.13	37897.95
654.27	38284.14
654.42	37951.79
654.56	37766.88
654.71	38274.78
654.85	38178.82
655.00	38270.10
655.14	38068.81
655.29	37811.35
655.43	37708.37
655.57	37621.77
655.72	37563.26
655.86	37273.03
656.01	37528.15
656.15	37366.65
656.30	37434.53
656.44	37907.32
656.58	37191.11
656.73	37827.74
656.87	37368.99
657.01	37656.88
657.16	37514.11
657.30	37237.92
657.45	37640.50
657.59	36919.61
657.73	37340.91
657.88	37502.40
658.02	38106.26
658.16	38061.79
658.31	37612.41
658.45	37518.79
658.60	37453.25
658.74	37177.07
658.88	37116.22
659.03	36893.86
659.17	37270.69
659.31	36985.15
659.46	36790.88
659.60	37029.62
659.74	37116.22
659.89	37057.70
660.03	36608.32
660.17	36575.55
660.32	36823.65
660.46	36868.12
660.60	36783.86
660.74	36919.61
660.89	36907.91
661.03	36683.22
661.17	36737.05
661.32	36353.20
661.46	36545.12
661.60	36210.43
661.74	36481.93
661.89	36570.87
662.03	36423.42
662.17	36367.24
662.31	36163.62
662.46	36091.06
662.60	36268.94
662.74	36243.20
662.88	36060.63
663.03	35761.05
663.17	35798.49
663.31	36266.60
663.45	36030.21
663.60	35974.03
663.74	35711.89
663.88	35573.80
664.02	35480.18
664.17	35646.36
664.31	35562.10
664.45	35311.66
664.59	35365.49
664.73	35580.82
664.88	35337.41
665.02	34888.03
665.16	35196.98
665.30	35405.28
665.44	35304.64
665.59	34862.28
665.73	35108.04
665.87	35030.80
666.01	35143.14
666.15	35096.33
666.29	35098.67
666.44	34911.43
666.58	34312.25
666.72	34745.25
666.86	34457.37
667.00	34897.39
667.14	34129.69
667.28	34122.67
667.43	34253.74
667.57	34749.93
667.71	34242.04
667.85	34050.11
667.99	34188.21
668.13	34279.49
668.27	34497.16
668.41	34356.72
668.56	33584.35
668.70	34010.32
668.84	33921.38
668.98	33670.95
669.12	33844.15
669.26	33823.08
669.40	33589.03
669.54	33488.38
669.68	33734.14
669.82	33310.50
669.96	33495.41
670.10	33228.59
670.25	33656.90
670.39	32968.79
670.53	32987.51
670.67	33392.42
670.81	33230.93
670.95	33273.06
671.09	33092.83
671.23	32655.15
671.37	32690.26
671.51	32854.10
671.65	32900.91
671.79	32753.46
671.93	33022.62
672.07	32545.15
672.21	32601.32
672.35	32673.88
672.49	32697.28
672.63	32575.58
672.77	32407.06
672.91	32629.41
673.05	32196.41
673.19	32009.17
673.33	32165.98
673.47	31967.04
673.61	31735.32
673.75	31693.19
673.89	31236.79
674.03	31253.17
674.17	31594.89
674.31	31386.58
674.45	31344.45
674.59	31288.28
674.73	31594.89
674.87	31241.47
675.01	31056.57
675.15	31253.17
675.29	31232.11
675.43	31072.95
675.56	30951.24
675.70	30616.55
675.84	30569.74
675.98	29926.09
676.12	30796.77
676.26	30588.46
676.40	30260.79
676.54	30838.90
676.68	30424.62
676.82	29914.39
676.96	30026.73
677.10	29965.88
677.23	29900.34
677.37	29659.27
677.51	29734.17
677.65	29387.77
677.79	29153.71
677.93	29495.43
678.07	29408.83
678.21	28835.40
678.34	28889.23
678.48	28666.88
678.62	28957.11
678.76	28105.15
678.90	28376.66
679.04	28704.33
679.18	28313.46
679.31	27969.40
679.45	28067.70
679.59	27955.36
679.73	28074.73
679.87	28121.54
680.00	28137.92
680.14	28184.73
680.28	27889.82
680.42	27615.98
680.56	27880.46
680.70	27843.01
680.83	27990.47
680.97	27548.11
681.11	27700.24
681.25	27344.48
681.39	27321.07
681.52	27358.52
681.66	27311.71
681.80	27267.24
681.94	26857.65
682.07	27072.98
682.21	26848.29
682.35	26740.62
682.49	26654.02
682.62	26326.35
682.76	26431.67
682.90	26459.76
683.04	26211.66
683.17	26232.72
683.31	26008.03
683.45	26157.83
683.59	25612.48
683.72	25720.15
683.86	25757.60
684.00	26174.21
684.13	25568.01
684.27	25144.38
684.41	25256.72
684.55	25380.77
684.68	25252.04
684.82	25095.22
684.96	25256.72
685.09	25195.87
685.23	24790.95
685.37	24870.53
685.50	24669.25
685.64	24826.06
685.78	24341.57
685.91	24098.16
686.05	24285.40
686.19	24112.20
686.32	23931.98
686.46	23946.02
686.60	23601.96
686.73	23655.79
686.87	23517.70
687.01	23080.02
687.14	23300.03
687.28	23110.45
687.42	23138.54
687.55	23133.86
687.69	23515.36
687.82	22998.10
687.96	23293.01
688.10	22808.52
688.23	22733.62
688.37	22555.74
688.50	22572.13
688.64	22609.58
688.78	22927.89
688.91	22501.91
689.05	22572.13
689.18	22122.74
689.32	22003.38
689.46	22387.22
689.59	22169.55
689.73	22134.45
689.86	22087.64
690.00	22080.61
690.13	21755.28
690.27	21666.34
690.41	21523.57
690.54	21291.85
690.68	21259.09
690.81	21432.29
690.95	21345.69
691.08	21465.05
691.22	21291.85
691.35	21221.64
691.49	21245.04
691.62	20915.03
691.76	20980.56
691.89	20987.58
692.03	20950.14
692.16	20643.52
692.30	20624.80
692.43	20322.87
692.57	20313.51
692.70	20240.95
692.84	20334.57
692.97	19737.74
693.11	20182.44
693.24	19978.81
693.38	19772.85
693.51	19609.01
693.65	20271.38
693.78	19702.63
693.92	19836.04
694.05	19749.44
694.19	19435.81
694.32	19199.41
694.45	19316.44
694.59	19035.58
694.72	19236.86
694.86	19061.32
694.99	18803.86
695.13	18958.34
695.26	18792.16
695.39	18792.16
695.53	19000.47
695.66	18670.45
695.80	18719.60
695.93	18562.79
696.07	18368.52
696.20	18326.39
696.33	18057.23
696.47	18106.38
696.60	18181.28
696.73	17879.35
696.87	17762.33
697.00	17987.02
697.14	17935.53
697.27	17926.16
697.40	17284.86
697.54	17476.78
697.67	17605.51
697.80	17263.79
697.94	17151.45
698.07	16968.88
698.21	16957.18
698.34	17170.17
698.47	16798.02
698.61	16851.86
698.74	16893.99
698.87	16446.94
699.01	16194.17
699.14	16201.19
699.27	16547.59
699.40	16372.05
699.54	16042.03
699.67	16517.16
699.80	16219.91
699.94	16067.78
700.07	16196.51
700.20	15866.49
700.34	16301.83
700.47	16156.72
700.60	15915.64
700.73	16187.14
700.87	16177.78
701.00	15784.57
701.13	15676.91
701.26	15644.14
701.40	15496.69
701.53	15594.99
701.66	15531.80
701.79	15143.27
701.93	14949.00
702.06	15119.86
702.19	14965.39
702.32	14864.74
702.46	14665.80
702.59	14974.75
702.72	14752.40
702.85	14965.39
702.99	14684.52
703.12	14537.07
703.25	14541.75
703.38	14429.40
703.51	14389.61
703.65	14455.15
703.78	14263.22
703.91	14202.37
704.04	14097.05
704.17	14204.71
704.31	14132.15
704.44	13996.40
704.57	13652.34
704.70	13886.40
704.83	14061.94
704.96	14071.30
705.10	13762.35
705.23	13437.02
>>>>>End Processed Spectral Data<<<<<
