SpectraSuite Data File
++++++++++++++++++++++++++++++++++++
Date: Fri Oct 25 11:34:34 EDT 2013
User: price-jones
Dark Spectrum Present: No
Reference Spectrum Present: No
Number of Sampled Component Spectra: 1
Spectrometers: USB2+H05261
Integration Time (usec): 100000 (USB2+H05261)
Spectra Averaged: 1 (USB2+H05261)
Boxcar Smoothing: 0 (USB2+H05261)
Correct for Electrical Dark: No (USB2+H05261)
Strobe/Lamp Enabled: No (USB2+H05261)
Correct for Detector Non-linearity: No (USB2+H05261)
Correct for Stray Light: No (USB2+H05261)
Number of Pixels in Processed Spectrum: 2048
>>>>>Begin Processed Spectral Data<<<<<
365.73	308.95
365.92	308.95
366.12	308.95
366.32	229.37
366.52	198.95
366.72	126.39
366.91	210.65
367.11	142.77
367.31	180.22
367.51	173.20
367.70	138.09
367.90	208.31
368.10	154.48
368.30	161.50
368.49	133.41
368.69	241.08
368.89	187.24
369.09	234.05
369.28	229.37
369.48	182.56
369.68	205.97
369.87	257.46
370.07	241.08
370.27	299.59
370.47	320.65
370.66	505.56
370.86	564.07
371.06	564.07
371.25	507.90
371.45	528.96
371.65	589.82
371.84	528.96
372.04	564.07
372.24	526.62
372.44	547.69
372.63	657.69
372.83	545.34
373.03	627.26
373.22	543.00
373.42	575.77
373.62	692.80
373.81	615.56
374.01	629.60
374.21	613.22
374.40	561.73
374.60	575.77
374.79	645.99
374.99	641.31
375.19	683.44
375.38	585.13
375.58	606.20
375.78	697.48
375.97	699.82
376.17	669.39
376.37	664.71
376.56	676.41
376.76	624.92
376.95	671.73
377.15	645.99
377.35	580.45
377.54	629.60
377.74	580.45
377.93	685.78
378.13	725.57
378.33	631.94
378.52	746.63
378.72	706.84
378.91	699.82
379.11	648.33
379.31	667.05
379.50	688.12
379.70	711.52
379.89	725.57
380.09	683.44
380.28	692.80
380.48	725.57
380.68	664.71
380.87	695.14
381.07	770.04
381.26	777.06
381.46	650.67
381.65	732.59
381.85	753.65
382.04	732.59
382.24	788.76
382.43	746.63
382.63	805.14
382.83	786.42
383.02	786.42
383.22	800.46
383.41	718.54
383.61	800.46
383.80	816.85
384.00	828.55
384.19	763.01
384.39	739.61
384.58	795.78
384.78	840.25
384.97	877.70
385.17	840.25
385.36	774.72
385.56	784.08
385.75	746.63
385.95	840.25
386.14	805.14
386.34	812.17
386.53	844.93
386.72	830.89
386.92	858.98
387.11	964.30
387.31	791.10
387.50	798.12
387.70	910.47
387.89	924.51
388.09	868.34
388.28	842.59
388.48	880.04
388.67	954.94
388.86	873.02
389.06	833.23
389.25	901.11
389.45	924.51
389.64	901.11
389.84	880.04
390.03	938.55
390.22	985.37
390.42	1015.79
390.61	898.77
390.81	929.19
391.00	873.02
391.19	912.81
391.39	915.15
391.58	968.98
391.78	992.39
391.97	943.24
392.16	1020.47
392.36	1060.26
392.55	1020.47
392.75	1069.62
392.94	985.37
393.13	1097.71
393.33	912.81
393.52	1039.20
393.71	1011.11
393.91	1055.58
394.10	1048.56
394.29	1153.88
394.49	1029.84
394.68	1069.62
394.88	1050.90
395.07	1170.27
395.26	1125.80
395.46	1181.97
395.65	1102.39
395.84	1137.50
396.04	1188.99
396.23	1177.29
396.42	1167.93
396.62	1177.29
396.81	1128.14
397.00	1205.38
397.19	1123.46
397.39	1121.12
397.58	1165.59
397.77	1149.20
397.97	1214.74
398.16	1233.46
398.35	1252.19
398.55	1231.12
398.74	1184.31
398.93	1273.25
399.12	1273.25
399.32	1282.61
399.51	1242.82
399.70	1322.40
399.90	1303.68
400.09	1296.66
400.28	1390.28
400.47	1373.89
400.67	1322.40
400.86	1338.79
401.05	1299.00
401.24	1331.76
401.44	1432.41
401.63	1451.13
401.82	1401.98
402.01	1306.02
402.21	1315.38
402.40	1476.88
402.59	1385.60
402.78	1455.81
402.97	1486.24
403.17	1537.73
403.36	1488.58
403.55	1444.11
403.74	1526.03
403.93	1523.69
404.13	1479.22
404.32	1570.50
404.51	1607.95
404.70	1577.52
404.89	1565.82
405.09	1614.97
405.28	1643.06
405.47	1624.33
405.66	1584.54
405.85	1666.46
406.05	1621.99
406.24	1664.12
406.43	1678.16
406.62	1722.63
406.81	1743.70
407.00	1694.55
407.20	1734.34
407.39	1750.72
407.58	1834.98
407.77	1741.36
407.96	1834.98
408.15	1781.15
408.34	1818.60
408.54	1823.28
408.73	1687.53
408.92	1799.87
409.11	1865.41
409.30	1853.70
409.49	1877.11
409.68	1947.33
409.87	1923.92
410.07	2085.42
410.26	1940.30
410.45	1902.86
410.64	1820.94
410.83	2129.89
411.02	1935.62
411.21	2218.83
411.40	2066.69
411.59	2050.31
411.78	2085.42
411.98	2064.35
412.17	2090.10
412.36	2097.12
412.55	2143.93
412.74	2183.72
412.93	2228.19
413.12	2303.09
413.31	2389.69
413.50	2260.96
413.69	2183.72
413.88	2413.09
414.07	2375.64
414.26	2340.54
414.45	2349.90
414.64	2434.16
414.83	2417.77
415.02	2562.89
415.22	2523.10
415.41	2448.20
415.60	2607.36
415.79	2586.29
415.98	2703.32
416.17	2649.49
416.36	2593.31
416.55	2586.29
416.74	2668.21
416.93	2616.72
417.12	2679.91
417.31	2719.70
417.50	2705.66
417.69	2846.09
417.88	2904.60
418.07	2719.70
418.26	2794.60
418.45	2825.03
418.64	2843.75
418.83	2899.92
419.02	2883.54
419.21	3042.70
419.39	2920.99
419.58	2913.97
419.77	2995.89
419.96	3084.83
420.15	3098.87
420.34	3033.33
420.53	2963.12
420.72	3173.77
420.91	3112.91
421.10	3143.34
421.29	3105.89
421.48	3009.93
421.67	3185.47
421.86	3138.66
422.05	3141.00
422.24	3222.92
422.43	3239.30
422.61	3267.39
422.80	3276.75
422.99	3325.90
423.18	3243.98
423.37	3258.03
423.56	3283.77
423.75	3304.84
423.94	3229.94
424.13	3220.58
424.32	3096.53
424.50	3274.41
424.69	3391.44
424.88	3316.54
425.07	3218.24
425.26	3185.47
425.45	3232.28
425.64	3246.32
425.83	3335.26
426.01	3396.12
426.20	3361.01
426.39	3372.71
426.58	3150.36
426.77	3309.52
426.96	3424.20
427.15	3400.80
427.33	3363.35
427.52	3389.10
427.71	3456.97
427.90	3419.52
428.09	3536.55
428.28	3368.03
428.46	3433.57
428.65	3534.21
428.84	3646.55
429.03	3581.02
429.22	3609.11
429.40	3576.34
429.59	3737.84
429.78	3499.10
429.97	3445.27
430.16	3691.02
430.34	3723.79
430.53	3595.06
430.72	3632.51
430.91	3712.09
431.10	3679.32
431.28	3824.44
431.47	3716.77
431.66	3712.09
431.85	3822.09
432.03	3908.69
432.22	3892.31
432.41	3875.93
432.60	3950.82
432.79	3859.54
432.97	3899.33
433.16	3981.25
433.35	3803.37
433.54	3974.23
433.72	3920.40
433.91	4002.32
434.10	3990.61
434.28	3948.48
434.47	3889.97
434.66	4086.58
434.85	4072.53
435.03	4021.04
435.22	3932.10
435.41	4208.28
435.59	4227.01
435.78	4259.78
435.97	4252.75
436.16	4081.89
436.34	4231.69
436.53	4255.09
436.72	4341.69
436.90	4124.02
437.09	4285.52
437.28	4219.99
437.46	4500.85
437.65	4334.67
437.84	4297.22
438.02	4475.10
438.21	4386.16
438.40	4280.84
438.58	4479.79
438.77	4603.83
438.96	4575.75
439.14	4566.39
439.33	4695.11
439.52	4676.39
439.70	4713.84
439.89	4697.46
440.08	4854.27
440.26	4748.95
440.45	4634.26
440.63	4887.04
440.82	5062.58
441.01	4980.66
441.19	5048.54
441.38	4926.83
441.57	4950.23
441.75	5151.52
441.94	4964.28
442.12	5128.11
442.31	5163.22
442.50	5186.63
442.68	5195.99
442.87	5305.99
443.05	5280.25
443.24	5266.21
443.43	5240.46
443.61	5296.63
443.80	5535.37
443.98	5249.82
444.17	5123.43
444.35	5174.92
444.54	5256.84
444.73	5341.10
444.91	5514.30
445.10	5392.59
445.28	5294.29
445.47	5472.17
445.65	5280.25
445.84	5401.96
446.02	5263.86
446.21	5310.68
446.39	5430.04
446.58	5504.94
446.77	5521.32
446.95	5392.59
447.14	5565.79
447.32	5444.09
447.51	5521.32
447.69	5455.79
447.88	5420.68
448.06	5483.88
448.25	5643.03
448.43	5514.30
448.62	5636.01
448.80	5416.00
448.99	5565.79
449.17	5682.82
449.36	5628.99
449.54	5668.78
449.73	5790.49
449.91	5870.06
450.10	5694.52
450.28	5678.14
450.46	5760.06
450.65	5870.06
450.83	5771.76
451.02	5769.42
451.20	6005.81
451.39	5760.06
451.57	5849.00
451.76	5874.74
451.94	5900.49
452.13	5954.32
452.31	6024.54
452.49	5860.70
452.68	5900.49
452.86	6115.82
453.05	6043.26
453.23	5996.45
453.42	6001.13
453.60	6047.94
453.78	5996.45
453.97	5968.37
454.15	6235.19
454.34	6155.61
454.52	6244.55
454.70	6181.35
454.89	6099.44
455.07	6305.40
455.26	6415.41
455.44	6249.23
455.62	6347.53
455.81	6314.77
455.99	6427.11
456.17	6251.57
456.36	6260.93
456.54	6427.11
456.73	6647.12
456.91	6574.56
457.09	6623.72
457.28	6869.47
457.46	6513.71
457.64	6771.17
457.83	6719.68
458.01	6691.59
458.19	6927.99
458.38	6693.93
458.56	6909.26
458.74	7040.33
458.93	6911.60
459.11	6841.39
459.29	6951.39
459.48	6724.36
459.66	6913.94
459.84	7005.22
460.03	7016.93
460.21	7227.57
460.39	7063.74
460.57	7162.04
460.76	6906.92
460.94	7155.02
461.12	7176.08
461.31	7052.03
461.49	6988.84
461.67	7248.64
461.85	7262.68
462.04	7166.72
462.22	7674.62
462.40	7162.04
462.59	7213.53
462.77	7262.68
462.95	7304.81
463.13	7545.89
463.32	7272.04
463.50	7503.76
463.68	7379.71
463.86	7573.97
464.05	7417.16
464.23	7550.57
464.41	7606.74
464.59	7335.24
464.78	7733.13
464.96	7506.10
465.14	7487.37
465.32	7573.97
465.50	7786.96
465.69	7702.70
465.87	7709.72
466.05	7719.09
466.23	7761.22
466.41	7866.54
466.60	7967.18
466.78	7857.18
466.96	7641.85
467.14	7749.51
467.32	7941.44
467.51	8011.65
467.69	7808.03
467.87	7908.67
468.05	7997.61
468.23	7878.24
468.41	7826.75
468.60	7941.44
468.78	8234.00
468.96	7911.01
469.14	8056.12
469.32	8259.75
469.50	8079.53
469.69	8269.11
469.87	8336.99
470.05	8210.60
470.23	8287.84
470.41	8315.92
470.59	8472.74
470.77	8463.38
470.95	8491.46
471.14	8430.61
471.32	8439.97
471.50	8549.98
471.68	8573.38
471.86	8814.46
472.04	8699.77
472.22	9078.94
472.40	8566.36
472.58	8777.01
472.77	8674.03
472.95	8882.33
473.13	9032.13
473.31	8856.59
473.49	8875.31
473.67	8901.06
473.85	8999.36
474.03	9198.31
474.21	9118.73
474.39	9184.26
474.57	9191.28
474.75	9383.21
474.93	9474.49
475.12	9432.36
475.30	9451.08
475.48	9343.42
475.66	9633.64
475.84	9514.28
476.02	9703.86
476.20	9371.50
476.38	9757.69
476.56	10017.49
476.74	10118.14
476.92	9947.28
477.10	9783.44
477.28	9860.68
477.46	10171.97
477.64	10164.95
477.82	10354.53
478.00	10499.64
478.18	10483.26
478.36	10761.78
478.54	10712.63
478.72	10588.58
478.90	10998.18
479.08	10733.70
479.26	11091.80
479.44	11164.36
479.62	10925.62
479.80	11255.64
479.98	11351.60
480.16	11515.44
480.34	11442.88
480.52	11742.47
480.70	11494.37
480.88	11669.91
481.06	11815.02
481.24	11761.19
481.41	12079.50
481.59	12142.70
481.77	12175.47
481.95	12664.64
482.13	12627.19
482.31	12362.71
482.49	12475.06
482.67	12692.73
482.85	12718.47
483.03	12922.10
483.21	12922.10
483.39	13020.40
483.57	13142.11
483.74	13458.08
483.92	13221.69
484.10	13062.53
484.28	13369.14
484.46	13785.76
484.64	13907.46
484.82	13675.75
485.00	13879.38
485.18	14017.47
485.35	14391.95
485.53	14420.04
485.71	14345.14
485.89	14775.80
486.07	14478.55
486.25	14441.11
486.43	14703.25
486.61	14691.54
486.78	14831.97
486.96	14984.11
487.14	15274.34
487.32	15288.38
487.50	15513.07
487.68	15370.30
487.85	15712.02
488.03	15925.00
488.21	16088.84
488.39	16135.65
488.57	16009.26
488.75	16304.17
488.92	16479.71
489.10	16397.79
489.28	16587.38
489.46	16795.68
489.64	16903.35
489.81	17109.32
489.99	17188.89
490.17	17488.48
490.35	17474.44
490.53	17469.76
490.70	17757.64
490.88	17336.35
491.06	17759.98
491.24	18078.30
491.41	17965.95
491.59	18216.39
491.77	18218.73
491.95	18548.75
492.13	18462.15
492.30	18518.32
492.48	18569.81
492.66	18867.06
492.84	18829.61
493.01	19140.90
493.19	19042.60
493.37	19424.11
493.54	19358.57
493.72	19609.01
493.90	19510.71
494.08	19744.76
494.25	19910.94
494.43	19885.19
494.61	19896.89
494.79	20011.58
494.96	20074.77
495.14	20226.91
495.32	20521.82
495.49	20311.17
495.67	20304.15
495.85	20542.88
496.02	21102.27
496.20	21172.49
496.38	21181.85
496.55	21310.58
496.73	21799.75
496.91	21376.11
497.09	21596.12
497.26	21425.26
497.44	21656.98
497.62	21764.64
497.79	22422.33
497.97	22029.12
498.14	22242.11
498.32	22387.22
498.50	22544.04
498.67	22569.79
498.85	22387.22
499.03	23264.92
499.20	22789.80
499.38	22852.99
499.56	22745.33
499.73	22824.90
499.91	23278.97
500.08	23456.85
500.26	23318.76
500.44	23655.79
500.61	23604.30
500.79	23761.12
500.97	23412.38
501.14	24093.47
501.32	24079.43
501.49	23995.17
501.67	23805.59
501.84	24137.94
502.02	24173.05
502.20	24393.06
502.37	24189.44
502.55	24308.80
502.72	24659.88
502.90	24596.69
503.07	24830.74
503.25	24573.28
503.43	24568.60
503.60	24992.24
503.78	25095.22
503.95	25212.25
504.13	25039.05
504.30	25443.96
504.48	25102.25
504.65	25188.85
504.83	25563.33
505.01	25661.63
505.18	25912.07
505.36	25628.87
505.53	25624.18
505.71	25954.20
505.88	25668.66
506.06	25797.38
506.23	26169.53
506.41	26052.50
506.58	25977.61
506.76	26111.02
506.93	26419.97
507.11	26415.29
507.28	26096.97
507.46	26305.28
507.63	26658.70
507.81	27101.06
507.98	26658.70
508.16	26913.82
508.33	27096.38
508.50	27115.11
508.68	27229.79
508.85	27714.28
509.03	27484.91
509.20	27503.64
509.38	28025.57
509.55	27711.94
509.73	27735.35
509.90	27751.73
510.08	27810.25
510.25	28006.85
510.42	27962.38
510.60	28091.11
510.77	28692.63
510.95	28425.81
511.12	28357.93
511.30	28386.02
511.47	28271.33
511.64	28961.79
511.82	28699.65
511.99	28945.41
512.17	28790.93
512.34	28467.94
512.51	29450.96
512.69	29537.56
512.86	29081.16
513.04	29317.55
513.21	29425.22
513.38	29558.63
513.56	29357.34
513.73	29362.02
513.90	29795.02
514.08	29322.23
514.25	29846.51
514.43	29827.79
514.60	30015.03
514.77	30094.61
514.95	30045.46
515.12	29909.71
515.29	29883.96
515.47	30422.28
515.64	30265.47
515.81	30059.50
515.99	30431.65
516.16	30572.08
516.33	30595.48
516.51	30576.76
516.68	30581.44
516.85	30883.37
517.03	30803.79
517.20	31054.23
517.37	30803.79
517.54	31147.85
517.72	31407.65
517.89	31182.96
518.06	31503.61
518.24	31344.45
518.41	31136.15
518.58	31496.59
518.75	31292.96
518.93	31515.31
519.10	31620.64
519.27	31419.35
519.45	31917.89
519.62	31835.97
519.79	31814.90
519.96	32119.17
520.14	31948.31
520.31	31634.68
520.48	32086.40
520.65	32095.77
520.83	32524.08
521.00	32397.70
521.17	32142.58
521.34	32584.94
521.52	32584.94
521.69	32627.07
521.86	33134.96
522.03	32694.94
522.20	33282.42
522.38	33160.71
522.55	33130.28
522.72	32985.17
522.89	33240.29
523.07	33530.51
523.24	33369.02
523.41	33780.95
523.58	33448.60
523.75	33717.76
523.92	33401.79
524.10	33755.21
524.27	33661.58
524.44	33797.34
524.61	33947.13
524.78	33982.24
524.96	34204.59
525.13	34160.12
525.30	34267.78
525.47	34291.19
525.64	34029.05
525.81	34567.37
525.98	34352.04
526.16	34455.03
526.33	34513.54
526.50	34515.88
526.67	34403.53
526.84	34733.55
527.01	34991.01
527.18	34670.36
527.36	34859.94
527.53	34773.34
527.70	35519.97
527.87	35400.60
528.04	35023.78
528.21	35049.52
528.38	35056.54
528.55	35023.78
528.72	34761.64
528.89	35222.72
529.07	35159.53
529.24	35222.72
529.41	35468.48
529.58	35578.48
529.75	35601.89
529.92	35318.68
530.09	35512.95
530.26	35552.74
530.43	35562.10
530.60	35789.13
530.77	35868.71
530.94	36058.29
531.11	35613.59
531.28	35995.10
531.46	36226.81
531.63	36278.30
531.80	36002.12
531.97	36547.47
532.14	36009.14
532.31	36067.66
532.48	36723.01
532.65	36903.23
532.82	36320.43
532.99	36725.35
533.16	36360.22
533.33	36833.01
533.50	37076.43
533.67	36877.48
533.84	36491.29
534.01	36797.90
534.18	36699.60
534.35	37801.99
534.52	37291.76
534.69	37090.47
534.86	37020.25
535.03	36842.37
535.20	37092.81
535.37	37448.57
535.54	37411.12
535.71	37542.19
535.88	37729.44
536.05	37500.06
536.22	37448.57
536.38	37532.83
536.55	37825.40
536.72	37144.30
536.89	37619.43
537.06	37509.43
537.23	38190.52
537.40	37509.43
537.57	37612.41
537.74	37991.58
537.91	38508.83
538.08	38120.31
538.25	37851.14
538.42	37809.01
538.59	38389.47
538.75	38106.26
538.92	38443.30
539.09	38424.57
539.26	38485.43
539.43	38508.83
539.60	38204.56
539.77	38342.66
539.94	38534.58
540.11	38651.61
540.28	38567.35
540.44	38679.69
540.61	38946.51
540.78	38277.12
540.95	38735.87
541.12	38546.28
541.29	38888.00
541.46	38705.44
541.62	38735.87
541.79	39112.69
541.96	39065.88
542.13	38876.30
542.30	39168.87
542.47	38888.00
542.63	38735.87
542.80	39386.54
542.97	39913.16
543.14	39604.20
543.31	39660.38
543.48	40018.48
543.64	39931.88
543.81	39812.51
543.98	39770.38
544.15	39618.25
544.32	39866.34
544.48	40374.24
544.65	40041.88
544.82	40039.54
544.99	39807.83
545.16	39936.56
545.32	40076.99
545.49	40320.41
545.66	40758.09
545.83	40453.82
546.00	40449.14
546.16	40105.08
546.33	40102.74
546.50	40409.35
546.67	40371.90
546.83	39639.31
547.00	40533.40
547.17	40196.36
547.34	40385.94
547.50	40531.06
547.67	41095.13
547.84	40477.22
548.00	40832.99
548.17	41022.57
548.34	41357.27
548.51	41109.17
548.67	41139.60
548.84	40856.39
549.01	41008.53
549.18	41130.23
549.34	41322.16
549.51	41172.36
549.68	41263.64
549.84	40940.65
550.01	40811.92
550.18	41083.42
550.34	41455.57
550.51	41476.63
550.68	41832.39
550.84	41359.61
551.01	41654.51
551.18	41361.95
551.34	41010.87
551.51	41537.49
551.68	41722.39
551.84	41708.35
552.01	41577.28
552.18	42003.25
552.34	41244.92
552.51	41837.08
552.68	41750.48
552.84	41958.78
553.01	41830.05
553.18	42000.91
553.34	41696.64
553.51	41979.85
553.67	42073.47
553.84	42422.21
554.01	42579.03
554.17	42298.16
554.34	42246.67
554.51	41947.08
554.67	42141.35
554.84	42129.64
555.00	42216.24
555.17	41975.17
555.33	42480.72
555.50	42220.92
555.67	42583.71
555.83	42256.03
556.00	42225.60
556.16	42777.97
556.33	42752.23
556.50	42895.00
556.66	42731.16
556.83	42562.64
556.99	42752.23
557.16	42902.02
557.32	43138.41
557.49	42955.85
557.65	42656.26
557.82	42895.00
557.98	42684.35
558.15	42787.33
558.32	42955.85
558.48	42780.31
558.65	43194.59
558.81	42997.98
558.98	43079.90
559.14	43019.05
559.31	43154.80
559.47	42883.30
559.64	42560.30
559.80	42817.76
559.97	43147.78
560.13	43416.94
560.30	43260.12
560.46	43360.76
560.63	43538.65
560.79	43971.64
560.96	43693.12
561.12	43243.74
561.29	43454.39
561.45	43452.05
561.61	43693.12
561.78	43250.76
561.94	43180.54
562.11	43217.99
562.27	43459.07
562.44	43548.01
562.60	43145.44
562.77	43381.83
562.93	43515.24
563.10	43693.12
563.26	43358.42
563.42	43573.75
563.59	43639.29
563.75	43545.67
563.92	44034.84
564.08	43650.99
564.24	43501.20
564.41	43540.99
564.57	43915.47
564.74	43632.27
564.90	43634.61
565.07	43683.76
565.23	44175.27
565.39	43840.57
565.56	44140.16
565.72	43676.74
565.88	44236.12
566.05	43789.08
566.21	44177.61
566.38	43810.15
566.54	44238.47
566.70	44088.67
566.87	43852.28
567.03	43620.56
567.19	44023.14
567.36	43943.56
567.52	43753.97
567.68	44217.40
567.85	44304.00
568.01	44252.51
568.17	43789.08
568.34	44051.22
568.50	44119.10
568.66	43985.69
568.83	43983.35
568.99	43849.94
569.15	44500.61
569.32	43842.92
569.48	44208.04
569.64	44610.61
569.81	44493.58
569.97	44755.72
570.13	44748.70
570.30	44194.00
570.46	44390.60
570.62	44245.49
570.78	44273.57
570.95	44526.35
571.11	44563.80
571.27	44619.97
571.43	44233.78
571.60	44577.84
571.76	44009.09
571.92	44182.29
572.09	44039.52
572.25	44261.87
572.41	44266.55
572.57	44435.07
572.74	44940.63
572.90	44201.02
573.06	44399.96
573.22	44622.31
573.38	44800.19
573.55	44502.95
573.71	44512.31
573.87	44769.77
574.03	44266.55
574.20	44940.63
574.36	44432.73
574.52	44746.36
574.68	44711.25
574.84	44952.33
575.01	45008.50
575.17	45137.23
575.33	44308.68
575.49	44809.56
575.65	44910.20
575.82	44875.09
575.98	44594.23
576.14	44739.34
576.30	44697.21
576.46	44795.51
576.62	44414.01
576.79	44795.51
576.95	44041.86
577.11	44802.53
577.27	44624.65
577.43	44835.30
577.59	44985.10
577.75	44629.34
577.92	44058.24
578.08	44793.17
578.24	44762.75
578.40	44996.80
578.56	45099.78
578.72	44795.51
578.88	44914.88
579.04	44931.26
579.21	44844.66
579.37	45319.79
579.53	44720.62
579.69	44704.23
579.85	44809.56
580.01	44940.63
580.17	44856.37
580.33	44762.75
580.49	45125.53
580.65	45029.57
580.82	44898.50
580.98	44521.67
581.14	44634.02
581.30	44863.39
581.46	44729.98
581.62	44926.58
581.78	44561.46
581.94	44987.44
582.10	45130.21
582.26	44989.78
582.42	44882.11
582.58	44769.77
582.74	44837.64
582.90	44797.85
583.06	45502.35
583.22	44825.94
583.38	44678.49
583.54	44996.80
583.70	45305.75
583.86	45031.91
584.02	44961.69
584.18	45296.39
584.34	45476.61
584.50	45373.63
584.66	45474.27
584.82	45118.51
584.98	45310.43
585.14	45361.92
585.30	45130.21
585.46	44940.63
585.62	44917.22
585.78	44783.81
585.94	44870.41
586.10	45015.52
586.26	44751.04
586.42	44685.51
586.58	45385.33
586.74	44966.37
586.90	44971.05
587.06	44964.03
587.22	45525.76
587.38	44500.61
587.54	45158.30
587.70	45380.65
587.86	45549.17
588.02	44996.80
588.18	45284.68
588.34	44942.97
588.49	45095.10
588.65	45186.38
588.81	44474.86
588.97	45078.72
589.13	45235.53
589.29	45272.98
589.45	45551.51
589.61	45057.65
589.77	45333.84
589.93	45214.47
590.08	45317.45
590.24	45305.75
590.40	45628.74
590.56	45656.83
590.72	45621.72
590.88	45490.65
591.04	45174.68
591.20	45713.00
591.35	45872.16
591.51	45827.69
591.67	45937.69
591.83	45448.52
591.99	46007.91
592.15	45785.56
592.31	45310.43
592.46	45287.03
592.62	45420.44
592.78	45869.82
592.94	45638.11
593.10	45478.95
593.26	45656.83
593.41	45769.18
593.57	45710.66
593.73	45450.86
593.89	46457.29
594.05	46120.26
594.20	45867.48
594.36	45993.87
594.52	45804.28
594.68	45734.07
594.84	45694.28
594.99	46019.61
595.15	45586.61
595.31	45694.28
595.47	45708.32
595.62	45806.62
595.78	45865.14
595.94	45806.62
596.10	45780.88
596.25	45989.19
596.41	45813.65
596.57	45930.67
596.73	45806.62
596.88	45797.26
597.04	45649.81
597.20	45837.05
597.36	46061.74
597.51	45820.67
597.67	45521.08
597.83	45916.63
597.99	46131.96
598.14	45844.07
598.30	45708.32
598.46	45670.87
598.61	46473.68
598.77	46033.66
598.93	45612.36
599.09	45951.74
599.24	46649.22
599.40	46073.45
599.56	45951.74
599.71	46330.90
599.87	46284.09
600.03	46073.45
600.18	45954.08
600.34	45954.08
600.50	45911.95
600.65	46167.07
600.81	46679.64
600.97	46216.22
601.12	46148.34
601.28	46017.27
601.44	45853.44
601.59	46284.09
601.75	45839.39
601.91	46082.81
602.06	45773.86
602.22	46356.65
602.37	46064.08
602.53	45858.12
602.69	46174.09
602.84	45947.06
603.00	46080.47
603.16	46026.63
603.31	46195.15
603.47	46197.49
603.62	46288.77
603.78	45954.08
603.94	45844.07
604.09	45984.51
604.25	45734.07
604.40	46176.43
604.56	45673.21
604.71	46562.62
604.87	45392.35
605.03	46057.06
605.18	45818.33
605.34	45813.65
605.49	45684.92
605.65	46138.98
605.80	46000.89
605.96	45764.49
606.12	45542.14
606.27	46043.02
606.43	45546.82
606.58	46115.58
606.74	45923.65
606.89	45645.13
607.05	46103.87
607.20	45801.94
607.36	45933.01
607.51	45865.14
607.67	45963.44
607.82	45500.01
607.98	45830.03
608.13	45525.76
608.29	45560.87
608.44	45476.61
608.60	45301.07
608.75	45731.73
608.91	45813.65
609.06	45455.54
609.22	45680.24
609.37	45485.97
609.53	45745.77
609.68	45518.74
609.84	45380.65
609.99	45883.86
610.15	45869.82
610.30	45860.46
610.46	45797.26
610.61	45811.31
610.76	46251.33
610.92	45778.54
611.07	45645.13
611.23	45305.75
611.38	45720.02
611.54	45464.91
611.69	45940.04
611.84	45893.22
612.00	45287.03
612.15	45773.86
612.31	45502.35
612.46	45308.09
612.62	45186.38
612.77	45680.24
612.92	45776.20
613.08	45385.33
613.23	45523.42
613.39	45064.67
613.54	45434.48
613.69	45198.09
613.85	45378.31
614.00	45771.52
614.15	45200.43
614.31	45141.91
614.46	45284.68
614.62	45668.53
614.77	45223.83
614.92	45385.33
615.08	45221.49
615.23	45151.27
615.38	45626.40
615.54	44854.03
615.69	44797.85
615.84	45446.18
616.00	45418.10
616.15	45155.96
616.30	44896.16
616.46	45134.89
616.61	45333.84
616.76	45090.42
616.92	45233.19
617.07	45429.80
617.22	44893.82
617.37	44832.96
617.53	45008.50
617.68	44978.07
617.83	44844.66
617.99	45301.07
618.14	44999.14
618.29	44432.73
618.45	44830.62
618.60	44615.29
618.75	44804.88
618.90	44699.55
619.06	44769.77
619.21	44739.34
619.36	44865.73
619.51	44669.12
619.67	44320.38
619.82	44879.77
619.97	44872.75
620.12	44414.01
620.28	44657.42
620.43	44718.28
620.58	44641.04
620.73	44495.92
620.89	45043.61
621.04	44758.06
621.19	44531.03
621.34	44519.33
621.49	44673.81
621.65	44172.93
621.80	44339.11
621.95	43990.37
622.10	44500.61
622.25	44203.36
622.41	44179.95
622.56	43978.67
622.71	44605.93
622.86	44378.90
623.01	44100.37
623.16	44662.10
623.32	44329.75
623.47	44226.76
623.62	44540.39
623.77	44472.52
623.92	44608.27
624.07	44011.43
624.23	44591.89
624.38	44217.40
624.53	44065.27
624.68	43709.50
624.83	43882.70
624.98	43821.85
625.13	43866.32
625.29	43985.69
625.44	43938.88
625.59	44060.58
625.74	43580.78
625.89	43686.10
626.04	43969.30
626.19	43704.82
626.34	43672.06
626.49	43449.70
626.65	43201.61
626.80	43192.25
626.95	43817.17
627.10	43210.97
627.25	43700.14
627.40	43688.44
627.55	43615.88
627.70	43264.80
627.85	43522.26
628.00	43646.31
628.15	43557.37
628.30	43091.60
628.45	43384.17
628.60	42953.51
628.76	43107.99
628.91	43285.87
629.06	43143.09
629.21	42759.25
629.36	43037.77
629.51	43117.35
629.66	43463.75
629.81	43150.12
629.96	43246.08
630.11	43070.54
630.26	42962.87
630.41	43199.27
630.56	43201.61
630.71	43672.06
630.86	43131.39
631.01	42768.61
631.16	42808.40
631.31	42738.18
631.46	43234.38
631.61	43491.83
631.76	43271.82
631.91	42810.74
632.06	43288.21
632.21	43070.54
632.36	43250.76
632.51	42820.10
632.66	42848.19
632.81	42747.54
632.96	42452.64
633.10	42457.32
633.25	42426.89
633.40	42225.60
633.55	42717.12
633.70	42747.54
633.85	42440.93
634.00	42382.42
634.15	41977.51
634.30	42370.72
634.45	42026.66
634.60	42377.74
634.75	42398.80
634.90	42878.61
635.05	42335.61
635.19	42188.16
635.34	42288.80
635.49	42433.91
635.64	42508.81
635.79	42745.20
635.94	42525.19
636.09	42490.09
636.24	42581.37
636.39	42373.06
636.53	42127.30
636.68	41834.74
636.83	41923.68
636.98	41584.30
637.13	41811.33
637.28	41792.61
637.43	42064.11
637.57	42094.53
637.72	41486.00
637.87	41427.48
638.02	41970.49
638.17	41731.75
638.32	41708.35
638.46	41958.78
638.61	41584.30
638.76	41687.28
638.91	41907.29
639.06	41291.73
639.20	41104.49
639.35	41488.34
639.50	41741.11
639.65	41706.01
639.80	41792.61
639.94	41701.32
640.09	41640.47
640.24	41652.17
640.39	41301.09
640.54	41319.82
640.68	41862.82
640.83	41322.16
640.98	41167.68
641.13	40917.25
641.27	41544.51
641.42	41371.31
641.57	41368.97
641.72	41338.54
641.86	40718.30
642.01	41064.70
642.16	40971.08
642.31	40811.92
642.45	41123.21
642.60	41085.76
642.75	41001.50
642.90	41008.53
643.04	40954.69
643.19	41144.28
643.34	40865.75
643.48	40357.86
643.63	40509.99
643.78	40870.43
643.93	41287.05
644.07	41139.60
644.22	40914.90
644.37	40762.77
644.51	41001.50
644.66	40945.33
644.81	40870.43
644.95	40795.54
645.10	40575.53
645.25	40334.45
645.39	40699.58
645.54	40495.95
645.69	40184.66
645.83	40041.88
645.98	40341.47
646.13	40495.95
646.27	40898.52
646.42	40362.54
646.57	40521.69
646.71	40231.47
646.86	40512.33
647.00	40622.34
647.15	40500.63
647.30	40657.45
647.44	40205.72
647.59	40154.23
647.74	39924.86
647.88	40210.40
648.03	40608.29
648.17	40591.91
648.32	40194.02
648.47	40484.25
648.61	39887.41
648.76	39929.54
648.90	40100.40
649.05	40004.44
649.20	39945.92
649.34	40098.06
649.49	40147.21
649.63	40208.06
649.78	40404.67
649.92	39948.26
650.07	40919.59
650.21	40275.94
650.36	40018.48
650.51	39957.63
650.65	39871.03
650.80	39887.41
650.94	40219.77
651.09	40095.72
651.23	39643.99
651.38	39576.12
651.52	39564.42
651.67	39791.45
651.81	39849.96
651.96	39653.36
652.10	39494.20
652.25	39115.03
652.39	39578.46
652.54	39578.46
652.68	39562.08
652.83	39342.06
652.97	39643.99
653.12	39433.35
653.26	39086.95
653.41	39559.73
653.55	39835.92
653.70	39512.92
653.84	39611.23
653.99	39325.68
654.13	39452.07
654.27	39159.50
654.42	39100.99
654.56	38993.32
654.71	39421.64
654.85	39173.55
655.00	38916.09
655.14	39372.49
655.29	39222.70
655.43	39707.19
655.57	39161.84
655.72	39061.20
655.86	39108.01
656.01	38712.46
656.15	37996.26
656.30	38553.30
656.44	38527.56
656.58	38995.67
656.73	38738.21
656.87	38759.27
657.01	38733.53
657.16	38593.09
657.30	38845.87
657.45	38555.64
657.59	38569.69
657.73	38253.72
657.88	38768.63
658.02	38548.62
658.16	38494.79
658.31	38850.55
658.45	38546.28
658.60	38061.79
658.74	38822.47
658.88	38621.18
659.03	38543.94
659.17	38052.43
659.31	37916.68
659.46	38178.82
659.60	38234.99
659.74	38234.99
659.89	38162.43
660.03	37787.95
660.17	38227.97
660.32	38071.15
660.46	37949.45
660.60	37694.33
660.74	37738.80
660.89	37603.05
661.03	37624.11
661.17	37553.90
661.32	37867.53
661.46	37148.98
661.60	37125.58
661.74	38029.02
661.89	37801.99
662.03	37495.38
662.17	37247.29
662.31	37071.75
662.46	37469.64
662.60	36950.04
662.74	36680.88
662.88	36879.82
663.03	36605.98
663.17	36781.52
663.31	36797.90
663.45	36444.48
663.60	36893.86
663.74	37003.87
663.88	36498.31
664.02	36610.66
664.17	37354.95
664.31	36706.62
664.45	36437.46
664.59	36495.97
664.73	36481.93
664.88	36400.01
665.02	36233.83
665.16	36259.58
665.30	36107.44
665.44	36184.68
665.59	35683.81
665.73	35936.59
665.87	36156.60
666.01	35569.12
666.15	35959.99
666.29	36105.10
666.44	35852.33
666.58	35761.05
666.72	35672.10
666.86	35651.04
667.00	35461.46
667.14	35487.20
667.28	35571.46
667.43	35388.90
667.57	35922.54
667.71	35594.87
667.85	35644.02
667.99	35648.70
668.13	35363.15
668.27	35201.66
668.41	34998.03
668.56	34541.63
668.70	34536.94
668.84	34298.21
668.98	34581.42
669.12	34930.16
669.26	34525.24
669.40	34745.25
669.54	34220.97
669.68	34211.61
669.82	34366.09
669.96	33820.74
670.10	34160.12
670.25	34380.13
670.39	34096.92
670.53	34169.48
670.67	34232.68
670.81	34218.63
670.95	34050.11
671.09	34003.30
671.23	34125.01
671.37	33897.98
671.51	34080.54
671.65	33930.75
671.79	33383.06
671.93	33408.81
672.07	33666.27
672.21	33614.77
672.35	33266.03
672.49	33235.61
672.63	33443.91
672.77	32720.69
672.91	32950.06
673.05	32987.51
673.19	32786.22
673.33	32638.77
673.47	32921.98
673.61	32840.06
673.75	32088.74
673.89	32744.09
674.03	32481.95
674.17	32582.60
674.31	31913.20
674.45	31962.36
674.59	32477.27
674.73	32231.52
674.87	31571.49
675.01	31604.25
675.15	31314.03
675.29	31592.55
675.43	31543.40
675.56	31583.19
675.70	31627.66
675.84	31620.64
675.98	30260.79
676.12	31323.39
676.26	31402.97
676.40	30904.43
676.54	31051.89
676.68	30675.06
676.82	30569.74
676.96	30937.20
677.10	30904.43
677.23	30654.00
677.37	30513.56
677.51	30539.31
677.65	30366.11
677.79	30132.06
677.93	30518.25
678.07	30228.02
678.21	29937.79
678.34	29799.70
678.48	29631.18
678.62	29507.13
678.76	29301.17
678.90	29322.23
679.04	29418.19
679.18	29699.06
679.31	29266.06
679.45	29333.93
679.59	28769.86
679.73	29099.88
679.87	28957.11
680.00	28872.85
680.14	29160.73
680.28	28606.03
680.42	28547.51
680.56	28100.47
680.70	28381.34
680.83	28121.54
680.97	28105.15
681.11	28018.55
681.25	28009.19
681.39	27681.52
681.52	27763.43
681.66	27410.01
681.80	27234.47
681.94	27091.70
682.07	27072.98
682.21	27115.11
682.35	27119.79
682.49	26642.32
682.62	26991.06
682.76	27016.80
682.90	26717.22
683.04	26899.78
683.17	26305.28
683.31	26576.78
683.45	26047.82
683.59	25956.54
683.72	25867.60
683.86	25708.44
684.00	25783.34
684.13	25876.96
684.27	25734.19
684.41	25736.53
684.55	25771.64
684.68	25537.59
684.82	25329.28
684.96	25612.48
685.09	25305.87
685.23	25399.49
685.37	25315.23
685.50	25572.69
685.64	25453.33
685.78	24870.53
685.91	24917.34
686.05	24474.98
686.19	23950.70
686.32	24292.42
686.46	24016.24
686.60	23983.47
686.73	24177.73
686.87	23852.40
687.01	24662.22
687.14	23917.93
687.28	23939.00
687.42	23812.61
687.55	23896.87
687.69	23828.99
687.82	23508.34
687.96	23007.47
688.10	23695.58
688.23	23538.77
688.37	23321.10
688.50	23208.75
688.64	23171.30
688.78	23384.29
688.91	22766.39
689.05	22787.46
689.18	22834.27
689.32	22326.37
689.46	22712.56
689.59	22717.24
689.73	22958.31
689.86	22719.58
690.00	22562.76
690.13	22342.75
690.27	22223.39
690.41	22277.22
690.54	21736.56
690.68	21762.30
690.81	21570.38
690.95	21544.63
691.08	21680.38
691.22	21352.71
691.35	20985.24
691.49	21242.70
691.62	21275.47
691.76	20631.82
691.89	20709.06
692.03	20809.70
692.16	20608.42
692.30	20533.52
692.43	20718.42
692.57	20166.06
692.70	20180.10
692.84	20365.00
692.97	19941.36
693.11	19950.73
693.24	20053.71
693.38	19845.40
693.51	19482.62
693.65	19749.44
693.78	19271.97
693.92	19587.94
694.05	19749.44
694.19	19330.48
694.32	19243.88
694.45	19386.66
694.59	19470.92
694.72	19522.41
694.86	19009.83
694.99	18878.76
695.13	19119.84
695.26	18703.22
695.39	18473.85
695.53	18555.77
695.66	18429.38
695.80	18265.54
695.93	18326.39
696.07	17879.35
696.20	18078.30
696.33	17975.31
696.47	17898.08
696.60	17972.97
696.73	18010.42
696.87	17853.61
697.00	17832.54
697.14	17542.32
697.27	17343.37
697.40	17352.73
697.54	17357.41
697.67	17263.79
697.80	17207.62
697.94	17146.76
698.07	17099.95
698.21	17057.82
698.34	16828.45
698.47	16840.15
698.61	16592.06
698.74	16290.13
698.87	16617.80
699.01	16367.37
699.14	16402.47
699.27	16568.65
699.40	16233.96
699.54	16315.87
699.67	16343.96
699.80	16140.33
699.94	16042.03
700.07	15800.96
700.20	15831.38
700.34	15845.43
700.47	15679.25
700.60	15597.33
700.73	15616.05
700.87	15522.43
701.00	15382.00
701.13	15346.89
701.26	15407.75
701.40	15014.54
701.53	15040.28
701.66	15166.67
701.79	15133.90
701.93	14663.46
702.06	14396.64
702.19	14583.88
702.32	14754.74
702.46	14813.25
702.59	14544.09
702.72	14586.22
702.85	14478.55
702.99	14581.54
703.12	14356.85
703.25	14253.86
703.38	14036.19
703.51	14066.62
703.65	14066.62
703.78	13694.47
703.91	13879.38
704.04	13598.51
704.17	13619.58
704.31	13678.09
704.44	13664.05
704.57	13462.76
704.70	13727.24
704.83	13205.30
704.96	13254.45
705.10	13153.81
705.23	13132.75
>>>>>End Processed Spectral Data<<<<<
