SpectraSuite Data File
++++++++++++++++++++++++++++++++++++
Date: Fri Oct 25 10:47:59 EDT 2013
User: price-jones
Dark Spectrum Present: No
Reference Spectrum Present: No
Number of Sampled Component Spectra: 1
Spectrometers: USB2+H05261
Integration Time (usec): 100000 (USB2+H05261)
Spectra Averaged: 1 (USB2+H05261)
Boxcar Smoothing: 0 (USB2+H05261)
Correct for Electrical Dark: No (USB2+H05261)
Strobe/Lamp Enabled: No (USB2+H05261)
Correct for Detector Non-linearity: No (USB2+H05261)
Correct for Stray Light: No (USB2+H05261)
Number of Pixels in Processed Spectrum: 2048
>>>>>Begin Processed Spectral Data<<<<<
365.73	149.79
365.92	149.79
366.12	149.79
366.32	18.72
366.52	18.72
366.72	70.22
366.91	16.38
367.11	9.36
367.31	21.06
367.51	53.83
367.70	49.15
367.90	67.88
368.10	0.00
368.30	0.00
368.49	4.68
368.69	21.06
368.89	4.68
369.09	88.94
369.28	70.22
369.48	63.19
369.68	133.41
369.87	105.32
370.07	70.22
370.27	133.41
370.47	196.60
370.66	334.70
370.86	355.76
371.06	479.81
371.25	484.49
371.45	463.43
371.65	416.62
371.84	397.89
372.04	477.47
372.24	479.81
372.44	425.98
372.63	418.96
372.83	414.27
373.03	528.96
373.22	458.74
373.42	564.07
373.62	493.85
373.81	582.79
374.01	517.26
374.21	603.86
374.40	514.92
374.60	540.66
374.79	547.69
374.99	592.16
375.19	573.43
375.38	543.00
375.58	545.34
375.78	557.05
375.97	636.63
376.17	594.50
376.37	648.33
376.56	545.34
376.76	528.96
376.95	545.34
377.15	571.09
377.35	550.03
377.54	526.62
377.74	517.26
377.93	540.66
378.13	596.84
378.33	606.20
378.52	589.82
378.72	594.50
378.91	566.41
379.11	641.31
379.31	561.73
379.50	559.39
379.70	608.54
379.89	620.24
380.09	613.22
380.28	662.37
380.48	704.50
380.68	791.10
380.87	655.35
381.07	660.03
381.26	692.80
381.46	688.12
381.65	739.61
381.85	699.82
382.04	702.16
382.24	645.99
382.43	676.41
382.63	709.18
382.83	678.76
383.02	737.27
383.22	723.23
383.41	641.31
383.61	643.65
383.80	755.99
384.00	741.95
384.19	713.86
384.39	734.93
384.58	765.36
384.78	739.61
384.97	807.48
385.17	695.14
385.36	711.52
385.56	767.70
385.75	809.83
385.95	723.23
386.14	767.70
386.34	812.17
386.53	882.38
386.72	760.67
386.92	873.02
387.11	767.70
387.31	809.83
387.50	847.27
387.70	856.64
387.89	835.57
388.09	809.83
388.28	898.77
388.48	863.66
388.67	919.83
388.86	840.25
389.06	833.23
389.25	931.53
389.45	898.77
389.64	908.13
389.84	908.13
390.03	889.40
390.22	952.60
390.42	889.40
390.61	910.47
390.81	945.58
391.00	957.28
391.19	1029.84
391.39	901.11
391.58	954.94
391.78	973.66
391.97	973.66
392.16	933.87
392.36	999.41
392.55	964.30
392.75	938.55
392.94	964.30
393.13	1027.50
393.33	954.94
393.52	983.02
393.71	997.07
393.91	1093.03
394.10	1067.28
394.29	1020.47
394.49	1034.52
394.68	1100.05
394.88	1137.50
395.07	1125.80
395.26	1086.01
395.46	1132.82
395.65	1193.67
395.84	1198.35
396.04	1186.65
396.23	1121.12
396.42	1062.60
396.62	1121.12
396.81	1067.28
397.00	1123.46
397.19	1191.33
397.39	1191.33
397.58	1184.31
397.77	1210.06
397.97	1200.69
398.16	1100.05
398.35	1240.48
398.55	1329.42
398.74	1235.80
398.93	1376.24
399.12	1228.78
399.32	1219.42
399.51	1401.98
399.70	1357.51
399.90	1308.36
400.09	1348.15
400.28	1465.18
400.47	1303.68
400.67	1390.28
400.86	1434.75
401.05	1451.13
401.24	1444.11
401.44	1420.71
401.63	1378.58
401.82	1540.07
402.01	1509.65
402.21	1568.16
402.40	1455.81
402.59	1511.99
402.78	1568.16
402.97	1453.47
403.17	1495.60
403.36	1563.48
403.55	1591.56
403.74	1572.84
403.93	1535.39
404.13	1633.69
404.32	1717.95
404.51	1596.25
404.70	1591.56
404.89	1589.22
405.09	1729.66
405.28	1610.29
405.47	1682.85
405.66	1675.82
405.85	1830.30
406.05	1792.85
406.24	1760.08
406.43	1755.40
406.62	1832.64
406.81	1823.28
407.00	1781.15
407.20	1790.51
407.39	1870.09
407.58	1930.94
407.77	1804.55
407.96	1933.28
408.15	2005.84
408.34	1858.39
408.54	1989.46
408.73	1973.07
408.92	1994.14
409.11	1959.03
409.30	2047.97
409.49	2012.86
409.68	2054.99
409.87	2076.06
410.07	2043.29
410.26	2078.40
410.45	2148.61
410.64	2179.04
410.83	2176.70
411.02	2146.27
411.21	2340.54
411.40	2216.49
411.59	2216.49
411.78	2244.57
411.98	2218.83
412.17	2193.08
412.36	2293.72
412.55	2377.98
412.74	2356.92
412.93	2361.60
413.12	2427.14
413.31	2513.74
413.50	2523.10
413.69	2499.69
413.88	2487.99
414.07	2532.46
414.26	2480.97
414.45	2588.63
414.64	2684.59
414.83	2588.63
415.02	2525.44
415.22	2733.75
415.41	2724.38
415.60	2750.13
415.79	2780.56
415.98	2953.76
416.17	2771.19
416.36	2810.98
416.55	2876.52
416.74	2944.39
416.93	2892.90
417.12	2829.71
417.31	2712.68
417.50	2944.39
417.69	3054.40
417.88	3047.38
418.07	3059.08
418.26	3070.78
418.45	2979.50
418.64	3166.74
418.83	3143.34
419.02	3042.70
419.21	3040.36
419.39	3197.17
419.58	3222.92
419.77	3138.66
419.96	3269.73
420.15	3300.16
420.34	3297.81
420.53	3155.04
420.72	3307.18
420.91	3361.01
421.10	3414.84
421.29	3442.93
421.48	3389.10
421.67	3428.88
421.86	3353.99
422.05	3419.52
422.24	3234.62
422.43	3332.92
422.61	3414.84
422.80	3466.33
422.99	3562.30
423.18	3452.29
423.37	3440.59
423.56	3527.19
423.75	3431.23
423.94	3487.40
424.13	3260.37
424.32	3365.69
424.50	3407.82
424.69	3510.80
424.88	3562.30
425.07	3449.95
425.26	3496.76
425.45	3405.48
425.64	3557.61
425.83	3536.55
426.01	3585.70
426.20	3557.61
426.39	3639.53
426.58	3602.08
426.77	3604.42
426.96	3449.95
427.15	3569.32
427.33	3719.11
427.52	3730.81
427.71	3597.40
427.90	3667.62
428.09	3747.20
428.28	3681.66
428.46	3742.52
428.65	3822.09
428.84	3845.50
429.03	3915.72
429.22	3812.73
429.40	3819.75
429.59	3571.66
429.78	3737.84
429.97	3527.19
430.16	3705.07
430.34	3934.44
430.53	3896.99
430.72	3885.29
430.91	3964.87
431.10	3943.80
431.28	3985.93
431.47	4081.89
431.66	4168.49
431.85	4014.02
432.03	4098.28
432.22	4234.03
432.41	4257.43
432.60	4177.86
432.79	4168.49
432.97	4215.30
433.16	4154.45
433.35	4196.58
433.54	4329.99
433.72	4086.58
433.91	4208.28
434.10	4145.09
434.28	4189.56
434.47	4278.50
434.66	4514.89
434.85	4278.50
435.03	4447.02
435.22	4332.33
435.41	4519.57
435.59	4559.36
435.78	4510.21
435.97	4444.68
436.16	4648.30
436.34	4496.17
436.53	4587.45
436.72	4702.14
436.90	4550.00
437.09	4615.54
437.28	4652.98
437.46	4514.89
437.65	4578.09
437.84	4648.30
438.02	4587.45
438.21	4816.82
438.40	4592.13
438.58	4964.28
438.77	4870.65
438.96	4840.23
439.14	4823.84
439.33	5008.75
439.52	4994.70
439.70	4905.76
439.89	5135.14
440.08	4957.25
440.26	5137.48
440.45	5207.69
440.63	5064.92
440.82	5336.42
441.01	5095.35
441.19	5303.65
441.38	5408.98
441.57	5270.89
441.75	5259.18
441.94	5493.24
442.12	5535.37
442.31	5631.33
442.50	5521.32
442.68	5504.94
442.87	5746.02
443.05	5762.40
443.24	5715.59
443.43	5769.42
443.61	5755.38
443.80	5846.66
443.98	5575.16
444.17	5575.16
444.35	5603.24
444.54	5881.77
444.73	5778.78
444.91	5778.78
445.10	5731.97
445.28	5830.27
445.47	5614.95
445.65	5881.77
445.84	5776.44
446.02	5987.09
446.21	5645.37
446.39	5738.99
446.58	5769.42
446.77	5849.00
446.95	5628.99
447.14	6017.52
447.32	5951.98
447.51	5813.89
447.69	5818.57
447.88	5998.79
448.06	5933.26
448.25	5940.28
448.43	5973.05
448.62	6015.18
448.80	5802.19
448.99	6015.18
449.17	6038.58
449.36	5937.94
449.54	6146.25
449.73	6265.61
449.91	6225.82
450.10	6221.14
450.28	6235.19
450.46	6197.74
450.65	6284.34
450.83	6462.22
451.02	6361.58
451.20	6338.17
451.39	6567.54
451.57	6352.21
451.76	6415.41
451.94	6296.04
452.13	6527.75
452.31	6406.05
452.49	6289.02
452.68	6382.64
452.86	6462.22
453.05	6520.73
453.23	6569.88
453.42	6406.05
453.60	6321.79
453.78	6513.71
453.97	6373.28
454.15	6443.49
454.34	6534.78
454.52	6518.39
454.70	6766.49
454.89	6764.15
455.07	6726.70
455.26	6747.76
455.44	6956.07
455.62	6761.81
455.81	6885.86
455.99	6881.18
456.17	6960.75
456.36	6979.48
456.54	6949.05
456.73	7028.63
456.91	7239.28
457.09	7096.50
457.28	7342.26
457.46	7225.23
457.64	7276.73
457.83	7136.29
458.01	6991.18
458.19	7360.98
458.38	7162.04
458.56	7215.87
458.74	7265.02
458.93	7452.27
459.11	7459.29
459.29	7363.33
459.48	7506.10
459.66	7405.46
459.84	7564.61
460.03	7473.33
460.21	7737.81
460.39	7559.93
460.57	7452.27
460.76	7431.20
460.94	7632.49
461.12	7878.24
461.31	7698.02
461.49	7566.95
461.67	7531.84
461.85	7873.56
462.04	7707.38
462.22	8278.47
462.40	7896.97
462.59	7667.60
462.77	7838.45
462.95	7786.96
463.13	7943.78
463.32	7985.91
463.50	8095.91
463.68	8032.72
463.86	8065.49
464.05	8030.38
464.23	8145.06
464.41	8224.64
464.59	7992.93
464.78	8205.92
464.96	8109.96
465.14	8074.85
465.32	8257.41
465.50	8358.05
465.69	8226.98
465.87	8224.64
466.05	8271.45
466.23	8149.75
466.41	8360.39
466.60	8411.89
466.78	8299.54
466.96	8407.20
467.14	8238.69
467.32	8297.20
467.51	8484.44
467.69	8203.58
467.87	8409.54
468.05	8528.91
468.23	8365.07
468.41	8475.08
468.60	8547.64
468.78	8535.93
468.96	8416.57
469.14	8678.71
469.32	8713.81
469.50	8641.26
469.69	8760.63
469.87	8971.27
470.05	8992.34
470.23	8901.06
470.41	8964.25
470.59	8882.33
470.77	8762.97
470.95	8973.61
471.14	9158.52
471.32	8910.42
471.50	9219.37
471.68	9116.39
471.86	9200.65
472.04	9268.52
472.22	9504.92
472.40	9247.46
472.58	9212.35
472.77	9287.25
472.95	9387.89
473.13	9753.01
473.31	9525.98
473.49	9481.51
473.67	9387.89
473.85	9617.26
474.03	9944.94
474.21	9774.08
474.39	9837.27
474.57	9884.08
474.75	10015.15
474.93	10097.07
475.12	10078.35
475.30	10012.81
475.48	10155.58
475.66	10267.93
475.84	10059.62
476.02	10246.87
476.20	10319.42
476.38	10614.33
476.56	10841.36
476.74	10696.25
476.92	10527.73
477.10	10539.43
477.28	10771.15
477.46	10771.15
477.64	10817.96
477.82	10991.16
478.00	11339.90
478.18	11389.05
478.36	11246.27
478.54	11363.30
478.72	11459.26
478.90	11538.84
479.08	11777.58
479.26	11770.55
479.44	11836.09
479.62	11772.89
479.80	11946.09
479.98	11941.41
480.16	12339.30
480.34	12266.75
480.52	12528.89
480.70	12285.47
480.88	12315.90
481.06	12519.53
481.24	12341.64
481.41	12594.42
481.59	12915.08
481.77	13254.45
481.95	13144.45
482.13	12861.24
482.31	13071.89
482.49	13411.27
482.67	13233.39
482.85	13483.83
483.03	13804.48
483.21	13937.89
483.39	13949.59
483.57	13752.99
483.74	13961.30
483.92	14272.59
484.10	13862.99
484.28	14391.95
484.46	14312.38
484.64	14516.00
484.82	14551.11
485.00	14640.05
485.18	14883.47
485.35	15147.95
485.53	15026.24
485.71	15159.65
485.89	15248.59
486.07	15215.82
486.25	15222.84
486.43	15433.49
486.61	15805.64
486.78	15723.72
486.96	15885.22
487.14	16285.45
487.32	16133.31
487.50	16498.44
487.68	16535.88
487.85	16465.67
488.03	16933.78
488.21	16884.62
488.39	16805.05
488.57	17181.87
488.75	17214.64
488.92	17619.55
489.10	17542.32
489.28	17750.62
489.46	17937.87
489.64	17827.86
489.81	18029.15
489.99	18225.75
490.17	18286.61
490.35	18513.64
490.53	18281.92
490.70	18551.09
490.88	18710.24
491.06	18698.54
491.24	18803.86
491.41	18787.48
491.59	18927.91
491.77	19178.35
491.95	19356.23
492.13	19557.52
492.30	19686.25
492.48	19889.87
492.66	19791.57
492.84	19859.45
493.01	20137.97
493.19	20140.31
493.37	20084.14
493.54	20123.93
493.72	20678.63
493.90	20697.36
494.08	20870.56
494.25	21207.59
494.43	21078.86
494.61	21069.50
494.79	21357.39
494.96	21085.89
495.14	21214.62
495.32	22221.05
495.49	21511.86
495.67	21979.97
495.85	21813.79
496.02	22008.06
496.20	22043.17
496.38	22345.09
496.55	22167.21
496.73	22984.06
496.91	22506.59
497.09	22651.70
497.26	22487.87
497.44	22590.85
497.62	22953.63
497.79	23213.43
497.97	23271.95
498.14	23737.71
498.32	23520.04
498.50	23613.66
498.67	23552.81
498.85	23749.42
499.03	24144.97
499.20	23557.49
499.38	24224.54
499.56	23992.83
499.73	24149.65
499.91	24280.72
500.08	24430.51
500.26	24254.97
500.44	24613.07
500.61	24664.57
500.79	24582.65
500.97	25076.50
501.14	25158.42
501.32	24748.82
501.49	25223.95
501.67	24694.99
501.84	25270.76
502.02	25160.76
502.20	25755.26
502.37	25736.53
502.55	25324.60
502.72	25736.53
502.90	25415.88
503.07	25652.27
503.25	26003.35
503.43	25446.30
503.60	26136.76
503.78	26087.61
503.95	26026.76
504.13	26338.05
504.30	26412.95
504.48	25956.54
504.65	26581.46
504.83	26712.53
505.01	26796.79
505.18	26771.05
505.36	27054.25
505.53	26801.47
505.71	27096.38
505.88	27498.95
506.06	26974.67
506.23	27283.62
506.41	27122.13
506.58	27482.57
506.76	27325.75
506.93	27517.68
507.11	27477.89
507.28	27821.95
507.46	27985.79
507.63	27630.02
507.81	28056.00
507.98	27840.67
508.16	28233.88
508.33	28100.47
508.50	28280.69
508.68	28819.02
508.85	28226.86
509.03	28575.60
509.20	28589.64
509.38	29296.49
509.55	28851.78
509.73	28662.20
509.90	28851.78
510.08	29036.69
510.25	29013.28
510.42	28896.25
510.60	28914.98
510.77	29158.39
510.95	29890.98
511.12	29546.92
511.30	29773.95
511.47	29872.26
511.64	30141.42
511.82	29687.36
511.99	29696.72
512.17	30125.04
512.34	29701.40
512.51	29902.68
512.69	30492.50
512.86	30515.90
513.04	30485.48
513.21	30644.63
513.38	30235.04
513.56	30380.15
513.73	30410.58
513.90	30913.80
514.08	30473.78
514.25	30742.94
514.43	31129.12
514.60	30817.83
514.77	31002.74
514.95	31337.43
515.12	31267.22
515.29	31536.38
515.47	31555.10
515.64	31510.63
515.81	31164.23
515.99	31349.14
516.16	31601.91
516.33	31552.76
516.51	31873.42
516.68	31417.01
516.85	31690.85
517.03	31569.15
517.20	31798.52
517.37	32149.60
517.54	31761.07
517.72	31810.22
517.89	31941.29
518.06	31814.90
518.24	31859.37
518.41	31866.39
518.58	31796.18
518.75	32402.38
518.93	32758.14
519.10	32730.05
519.27	32802.61
519.45	32549.83
519.62	32980.49
519.79	32786.22
519.96	33013.26
520.14	33167.73
520.31	32690.26
520.48	32926.66
520.65	33137.30
520.83	33099.86
521.00	33481.36
521.17	33434.55
521.34	33111.56
521.52	33521.15
521.69	33731.80
521.86	33710.74
522.03	33518.81
522.20	34096.92
522.38	34061.82
522.55	34169.48
522.72	33692.01
522.89	34466.73
523.07	33977.56
523.24	34092.24
523.41	34616.52
523.58	34323.96
523.75	34691.42
523.92	34649.29
524.10	34913.77
524.27	34628.23
524.44	34665.67
524.61	35079.95
524.78	34682.06
524.96	35042.50
525.13	34752.27
525.30	35395.92
525.47	35131.44
525.64	35426.35
525.81	35594.87
525.98	35831.26
526.16	34958.24
526.33	35016.75
526.50	35739.98
526.67	35281.24
526.84	35367.84
527.01	34881.00
527.18	35386.56
527.36	36025.53
527.53	35901.48
527.70	36205.75
527.87	35866.37
528.04	35515.29
528.21	35938.93
528.38	35637.00
528.55	36093.40
528.72	36348.52
528.89	36493.63
529.07	36037.23
529.24	35910.84
529.41	36657.47
529.58	36217.45
529.75	35929.56
529.92	36676.19
530.09	36409.37
530.26	36636.41
530.43	36552.15
530.60	36655.13
530.77	36741.73
530.94	37067.06
531.11	36783.86
531.28	36917.27
531.46	36891.52
531.63	37141.96
531.80	36940.68
531.97	37277.71
532.14	37069.40
532.31	36854.08
532.48	37626.45
532.65	37706.03
532.82	37036.64
532.99	37308.14
533.16	37212.18
533.33	37546.87
533.50	38054.77
533.67	37640.50
533.84	37186.43
534.01	37605.39
534.18	37493.04
534.35	37989.24
534.52	38171.80
534.69	38319.25
534.86	37902.64
535.03	37738.80
535.20	38106.26
535.37	37764.54
535.54	38487.77
535.71	38375.42
535.88	38497.13
536.05	38153.07
536.22	38515.86
536.38	38462.02
536.55	38656.29
536.72	38251.38
536.89	38483.09
537.06	38263.08
537.23	38761.61
537.40	38342.66
537.57	38562.67
537.74	38553.30
537.91	38721.82
538.08	39166.52
538.25	38160.09
538.42	38958.22
538.59	39077.58
538.75	38686.71
538.92	39171.21
539.09	39370.15
539.26	39215.68
539.43	39171.21
539.60	39328.02
539.77	39232.06
539.94	39068.22
540.11	39239.08
540.28	39112.69
540.44	39526.97
540.61	39571.44
540.78	39173.55
540.95	38909.07
541.12	38902.04
541.29	39466.11
541.46	39442.71
541.62	39704.85
541.79	39508.24
541.96	39625.27
542.13	39648.68
542.30	40030.18
542.47	39613.57
542.63	39744.64
542.80	39763.36
542.97	40154.23
543.14	41010.87
543.31	40308.71
543.48	40514.67
543.64	40741.71
543.81	40589.57
543.98	40730.00
544.15	40226.79
544.32	40624.68
544.48	40694.89
544.65	40987.46
544.82	40807.24
544.99	40369.56
545.16	40648.08
545.32	40500.63
545.49	40804.90
545.66	40730.00
545.83	40554.46
546.00	41350.24
546.16	40875.12
546.33	40938.31
546.50	40474.88
546.67	41242.58
546.83	40378.92
547.00	40952.35
547.17	41031.93
547.34	41155.98
547.50	41282.37
547.67	41202.79
547.84	41413.44
548.00	41296.41
548.17	41546.85
548.34	41408.76
548.51	41352.58
548.67	41399.40
548.84	41394.71
549.01	41256.62
549.18	41563.23
549.34	41469.61
549.51	41738.77
549.68	41467.27
549.84	41921.34
550.01	42068.79
550.18	41904.95
550.34	41619.41
550.51	41638.13
550.68	41675.58
550.84	41701.32
551.01	42033.68
551.18	42359.02
551.34	41528.13
551.51	41659.20
551.68	42478.38
551.84	42176.45
552.01	42026.66
552.18	42237.31
552.34	42122.62
552.51	42026.66
552.68	41993.89
552.84	42270.08
553.01	42625.84
553.18	42469.02
553.34	41804.31
553.51	42117.94
553.67	42117.94
553.84	42761.59
554.01	42333.27
554.17	42581.37
554.34	42476.04
554.51	42672.65
554.67	43192.25
554.84	42735.84
555.00	42483.06
555.17	42103.90
555.33	42731.16
555.50	42707.76
555.67	42550.94
555.83	42422.21
556.00	42801.38
556.16	43339.70
556.33	42941.81
556.50	42763.93
556.66	43217.99
556.83	43107.99
556.99	43243.74
557.16	42845.85
557.32	42707.76
557.49	42927.77
557.65	43136.07
557.82	43044.79
557.98	42946.49
558.15	43051.81
558.32	43442.68
558.48	42721.80
558.65	42944.15
558.81	42672.65
558.98	43309.27
559.14	43019.05
559.31	43037.77
559.47	43920.15
559.64	43049.47
559.80	43508.22
559.97	43215.65
560.13	43117.35
560.30	43391.19
560.46	43119.69
560.63	43438.00
560.79	43388.85
560.96	43959.94
561.12	43697.80
561.29	43665.03
561.45	43227.35
561.61	43566.73
561.78	43592.48
561.94	43316.29
562.11	43386.51
562.27	43515.24
562.44	44100.37
562.60	43639.29
562.77	43681.42
562.93	43658.01
563.10	43971.64
563.26	43098.62
563.42	43688.44
563.59	43601.84
563.75	43487.15
563.92	43723.55
564.08	43810.15
564.24	43807.81
564.41	43906.11
564.57	43665.03
564.74	44032.50
564.90	43807.81
565.07	43866.32
565.23	43758.66
565.39	44088.67
565.56	43957.60
565.72	44006.75
565.88	43784.40
566.05	44098.03
566.21	44222.08
566.38	43772.70
566.54	43941.22
566.70	43903.77
566.87	44074.63
567.03	43735.25
567.19	44634.02
567.36	44046.54
567.52	43768.02
567.68	44360.17
567.85	43761.00
568.01	44011.43
568.17	43917.81
568.34	44133.14
568.50	44133.14
568.66	43772.70
568.83	43966.96
568.99	43817.17
569.15	44186.97
569.32	43613.54
569.48	43976.33
569.64	43896.75
569.81	44360.17
569.97	43983.35
570.13	44205.70
570.30	44037.18
570.46	43672.06
570.62	43999.73
570.78	44027.82
570.95	43957.60
571.11	44236.12
571.27	43899.09
571.43	44411.67
571.60	44524.01
571.76	43971.64
571.92	43973.98
572.09	43531.62
572.25	44074.63
572.41	44109.74
572.57	44634.02
572.74	44662.10
572.90	44519.33
573.06	44107.40
573.22	44531.03
573.38	44126.12
573.55	43636.95
573.71	44268.89
573.87	44376.56
574.03	44165.91
574.20	44194.00
574.36	44243.15
574.52	44430.39
574.68	44575.50
574.84	44423.37
575.01	44423.37
575.17	44296.98
575.33	44458.48
575.49	44163.57
575.65	44353.15
575.82	44526.35
575.98	44406.98
576.14	44921.90
576.30	44563.80
576.46	44088.67
576.62	44493.58
576.79	44563.80
576.95	43861.64
577.11	44531.03
577.27	44488.90
577.43	44760.40
577.59	43854.62
577.75	44341.45
577.92	44135.48
578.08	43922.49
578.24	44238.47
578.40	44186.97
578.56	43756.32
578.72	44509.97
578.88	44467.84
579.04	44690.19
579.21	44538.05
579.37	44006.75
579.53	44175.27
579.69	44205.70
579.85	44411.67
580.01	44526.35
580.17	44694.87
580.33	44453.79
580.49	45031.91
580.65	44432.73
580.82	44989.78
580.98	44402.30
581.14	44500.61
581.30	44491.24
581.46	44449.11
581.62	44776.79
581.78	44610.61
581.94	44849.35
582.10	44533.37
582.26	44755.72
582.42	44507.63
582.58	44708.91
582.74	44650.40
582.90	44519.33
583.06	45090.42
583.22	44940.63
583.38	44687.85
583.54	44802.53
583.70	44673.81
583.86	44516.99
584.02	44009.09
584.18	44299.32
584.34	44619.97
584.50	44282.94
584.66	44086.33
584.82	44516.99
584.98	45104.46
585.14	44596.57
585.30	44411.67
585.46	44767.43
585.62	44116.76
585.78	44626.99
585.94	43983.35
586.10	44655.08
586.26	44205.70
586.42	44472.52
586.58	44879.77
586.74	44769.77
586.90	44746.36
587.06	44376.56
587.22	44746.36
587.38	44397.62
587.54	45003.82
587.70	45226.17
587.86	44786.15
588.02	44650.40
588.18	44940.63
588.34	44636.36
588.49	44884.45
588.65	44203.36
588.81	44692.53
588.97	44414.01
589.13	44725.30
589.29	44868.07
589.45	44807.22
589.61	44790.83
589.77	45083.40
589.93	44825.94
590.08	44942.97
590.24	44568.48
590.40	45050.63
590.56	44926.58
590.72	45074.04
590.88	44837.64
591.04	44566.14
591.20	45172.34
591.35	44989.78
591.51	45422.78
591.67	45120.85
591.83	45057.65
591.99	44589.55
592.15	44219.74
592.31	44481.88
592.46	44945.31
592.62	44811.90
592.78	45308.09
592.94	45368.94
593.10	44669.12
593.26	44769.77
593.41	44708.91
593.57	44568.48
593.73	44825.94
593.89	44818.92
594.05	44828.28
594.20	44931.26
594.36	45308.09
594.52	45081.06
594.68	45144.25
594.84	45151.27
594.99	45357.24
595.15	44790.83
595.31	45228.51
595.47	45057.65
595.62	44701.89
595.78	44940.63
595.94	45240.21
596.10	45570.23
596.25	45109.14
596.41	45059.99
596.57	45078.72
596.73	45165.32
596.88	45078.72
597.04	44999.14
597.20	45097.44
597.36	45106.80
597.51	45277.66
597.67	45418.10
597.83	45280.00
597.99	45703.64
598.14	44954.67
598.30	44877.43
598.46	45111.49
598.61	44830.62
598.77	44629.34
598.93	45050.63
599.09	45221.49
599.24	45607.68
599.40	45184.04
599.56	44877.43
599.71	45661.51
599.87	45659.17
600.03	44975.73
600.18	44807.22
600.34	45130.21
600.50	45137.23
600.65	45247.24
600.81	45773.86
600.97	45710.66
601.12	45652.15
601.28	45588.95
601.44	45177.02
601.59	45139.57
601.75	45006.16
601.91	45055.31
602.06	44964.03
602.22	45104.46
602.37	45191.06
602.53	45022.54
602.69	44952.33
602.84	45261.28
603.00	45181.70
603.16	44746.36
603.31	44968.71
603.47	44947.65
603.62	44924.24
603.78	45394.69
603.94	44687.85
604.09	45235.53
604.25	45059.99
604.40	45216.81
604.56	44596.57
604.71	45331.50
604.87	45123.19
605.03	45052.97
605.18	44868.07
605.34	44788.49
605.49	44631.68
605.65	45441.50
605.80	44755.72
605.96	45137.23
606.12	44879.77
606.27	44804.88
606.43	44598.91
606.58	45251.92
606.74	44872.75
606.89	44947.65
607.05	44928.92
607.20	45074.04
607.36	44926.58
607.51	45109.14
607.67	44774.45
607.82	44903.18
607.98	44758.06
608.13	44907.86
608.29	44928.92
608.44	44594.23
608.60	44444.43
608.75	44432.73
608.91	44374.22
609.06	44837.64
609.22	44708.91
609.37	44964.03
609.53	44893.82
609.68	44720.62
609.84	44802.53
609.99	44687.85
610.15	44367.20
610.30	44500.61
610.46	44308.68
610.61	44107.40
610.76	44456.14
610.92	44666.78
611.07	44608.27
611.23	44498.26
611.38	43889.73
611.54	44610.61
611.69	44516.99
611.84	44289.96
612.00	44568.48
612.15	44650.40
612.31	44453.79
612.46	44444.43
612.62	44664.44
612.77	44463.16
612.92	44442.09
613.08	44210.38
613.23	44355.49
613.39	44343.79
613.54	44023.14
613.69	43952.92
613.85	44594.23
614.00	44655.08
614.15	44491.24
614.31	44273.57
614.46	44575.50
614.62	43983.35
614.77	44268.89
614.92	44100.37
615.08	44243.15
615.23	43777.38
615.38	43945.90
615.54	43313.95
615.69	44114.42
615.84	43969.30
616.00	43543.33
616.15	43817.17
616.30	44027.82
616.46	44102.71
616.61	43697.80
616.76	43758.66
616.92	43468.43
617.07	43445.02
617.22	43711.84
617.37	43634.61
617.53	44130.80
617.68	43786.74
617.83	43903.77
617.99	43868.66
618.14	43948.24
618.29	43650.99
618.45	43351.40
618.60	44009.09
618.75	43466.09
618.90	43452.05
619.06	43606.52
619.21	43578.43
619.36	43796.10
619.51	43503.54
619.67	43014.37
619.82	43484.81
619.97	43559.71
620.12	42902.02
620.28	43021.39
620.43	42995.64
620.58	43154.80
620.73	43430.98
620.89	43168.84
621.04	43122.03
621.19	42925.42
621.34	42909.04
621.49	42916.06
621.65	42817.76
621.80	43178.20
621.95	43077.56
622.10	43157.14
622.25	43117.35
622.41	42707.76
622.56	42852.87
622.71	42770.95
622.86	42909.04
623.01	43232.04
623.16	43395.87
623.32	42937.13
623.47	43484.81
623.62	42911.38
623.77	42572.00
623.92	42693.71
624.07	42541.58
624.23	42454.98
624.38	42770.95
624.53	42602.43
624.68	42859.89
624.83	42843.51
624.98	42986.28
625.13	42581.37
625.29	42431.57
625.44	42557.96
625.59	42101.56
625.74	42043.04
625.89	41698.98
626.04	42260.71
626.19	42330.93
626.34	42574.34
626.49	42625.84
626.65	42225.60
626.80	42150.71
626.95	42237.31
627.10	41797.29
627.25	41787.92
627.40	41785.58
627.55	42136.66
627.70	41539.83
627.85	41792.61
628.00	41837.08
628.15	42347.31
628.30	41921.34
628.45	42314.55
628.60	41703.67
628.76	41841.76
628.91	42239.65
629.06	41432.16
629.21	41511.74
629.36	41860.48
629.51	41748.14
629.66	42007.94
629.81	41591.32
629.96	41837.08
630.11	41488.34
630.26	41596.00
630.41	42115.60
630.56	41577.28
630.71	41572.60
630.86	41085.76
631.01	41230.88
631.16	41427.48
631.31	41418.12
631.46	41237.90
631.61	41486.00
631.76	40928.95
631.91	41354.93
632.06	41064.70
632.21	41626.43
632.36	41514.08
632.51	41090.44
632.66	41158.32
632.81	40999.16
632.96	41322.16
633.10	40821.28
633.25	40720.64
633.40	40940.65
633.55	41364.29
633.70	41401.74
633.85	41139.60
634.00	41270.67
634.15	41645.15
634.30	40945.33
634.45	41050.66
634.60	40685.53
634.75	40875.12
634.90	40996.82
635.05	40893.84
635.19	40620.00
635.34	40540.42
635.49	40732.34
635.64	40896.18
635.79	40676.17
635.94	40713.62
636.09	40704.26
636.24	40304.02
636.39	40430.41
636.53	40517.01
636.68	40203.38
636.83	40271.26
636.98	40573.19
637.13	39966.99
637.28	40477.22
637.43	40711.28
637.57	40552.12
637.72	40992.14
637.87	40566.16
638.02	40467.86
638.17	40500.63
638.32	40175.30
638.46	39920.18
638.61	40224.45
638.76	39629.95
638.91	40182.32
639.06	39936.56
639.20	40126.14
639.35	40018.48
639.50	40025.50
639.65	39791.45
639.80	40325.09
639.94	40109.76
640.09	39988.05
640.24	39704.85
640.39	39887.41
640.54	39433.35
640.68	39693.15
640.83	40004.44
640.98	39789.11
641.13	39587.82
641.27	40137.85
641.42	39620.59
641.57	39817.19
641.72	39587.82
641.86	39721.23
642.01	39379.51
642.16	39129.08
642.31	39468.45
642.45	39875.71
642.60	39199.29
642.75	39208.65
642.90	39299.94
643.04	39501.22
643.19	39559.73
643.34	39473.13
643.48	39543.35
643.63	39480.16
643.78	39089.29
643.93	39206.31
644.07	39180.57
644.22	39550.37
644.37	38967.58
644.51	38574.37
644.66	39250.78
644.81	38972.26
644.95	39206.31
645.10	39463.77
645.25	39138.44
645.39	39171.21
645.54	39072.90
645.69	39115.03
645.83	39056.52
645.98	39075.24
646.13	39409.94
646.27	39070.56
646.42	38426.92
646.57	38895.02
646.71	38410.53
646.86	38679.69
647.00	38962.90
647.15	38754.59
647.30	38806.08
647.44	38899.70
647.59	38572.03
647.74	38965.24
647.88	38518.20
648.03	38363.72
648.17	38389.47
648.32	38410.53
648.47	38307.55
648.61	38452.66
648.76	39091.63
648.90	38237.33
649.05	38817.78
649.20	38682.03
649.34	38543.94
649.49	38202.22
649.63	38239.67
649.78	38382.45
649.92	38026.68
650.07	38625.86
650.21	38242.01
650.36	38403.51
650.51	37993.92
650.65	38639.90
650.80	38719.48
650.94	38330.95
651.09	38164.78
651.23	38473.73
651.38	38188.18
651.52	37799.65
651.67	37752.84
651.81	38136.69
651.96	37876.89
652.10	37933.06
652.25	37441.55
652.39	37464.96
652.54	38066.47
652.68	38141.37
652.83	37708.37
652.97	37708.37
653.12	37794.97
653.26	37752.84
653.41	37572.62
653.55	38080.52
653.70	37778.59
653.84	37518.79
653.99	37752.84
654.13	37546.87
654.27	37551.56
654.42	37755.18
654.56	37486.02
654.71	37696.67
654.85	37764.54
655.00	37333.89
655.14	37352.61
655.29	37254.31
655.43	37029.62
655.57	36816.63
655.72	36989.83
655.86	37085.79
656.01	37137.28
656.15	36830.67
656.30	37460.27
656.44	37266.01
656.58	36774.50
656.73	36643.43
656.87	36697.26
657.01	36950.04
657.16	36903.23
657.30	36437.46
657.45	36545.12
657.59	37106.85
657.73	36212.77
657.88	36954.72
658.02	37046.00
658.16	37123.24
658.31	37038.98
658.45	36521.72
658.60	36809.61
658.74	36938.33
658.88	36687.90
659.03	36392.99
659.17	36252.56
659.31	36437.46
659.46	36128.51
659.60	36524.06
659.74	36486.61
659.89	35927.22
660.03	36271.28
660.17	36154.26
660.32	36498.31
660.46	36395.33
660.60	36292.35
660.74	36589.59
660.89	36107.44
661.03	35819.56
661.17	35550.40
661.32	35517.63
661.46	35754.02
661.60	35311.66
661.74	35632.32
661.89	35679.13
662.03	35718.92
662.17	35723.60
662.31	35515.29
662.46	35819.56
662.60	35515.29
662.74	35360.81
662.88	35538.69
663.03	35442.73
663.17	35592.53
663.31	34953.56
663.45	35276.55
663.60	35260.17
663.74	34356.72
663.88	34888.03
664.02	34675.04
664.17	34792.06
664.31	35040.16
664.45	34698.44
664.59	34855.26
664.73	34937.18
664.88	34771.00
665.02	34583.76
665.16	34726.53
665.30	35051.86
665.44	34635.25
665.59	34595.46
665.73	34527.58
665.87	34464.39
666.01	34153.10
666.15	34429.28
666.29	34319.28
666.44	34328.64
666.58	34307.57
666.72	34333.32
666.86	34338.00
667.00	34103.95
667.14	34078.20
667.28	33722.44
667.43	33900.32
667.57	34005.64
667.71	33928.41
667.85	33663.93
667.99	33439.23
668.13	33284.76
668.27	33776.27
668.41	33759.89
668.56	33834.78
668.70	33642.86
668.84	33195.82
668.98	33357.32
669.12	33364.34
669.26	33268.37
669.40	33319.87
669.54	33301.14
669.68	33408.81
669.82	33097.52
669.96	33020.28
670.10	32584.94
670.25	32877.51
670.39	32924.32
670.53	32191.73
670.67	32500.68
670.81	33015.60
670.95	32617.71
671.09	32421.10
671.23	32488.98
671.37	32734.73
671.51	32364.93
671.65	32107.47
671.79	31866.39
671.93	32238.54
672.07	32257.26
672.21	31976.40
672.35	31725.96
672.49	31960.02
672.63	32444.51
672.77	31718.94
672.91	31566.81
673.05	31667.45
673.19	31679.15
673.33	31637.02
673.47	31229.77
673.61	31201.68
673.75	31311.69
673.89	31012.10
674.03	30682.08
674.17	30808.47
674.31	30780.39
674.45	30974.65
674.59	30916.14
674.73	30822.51
674.87	31175.94
675.01	30951.24
675.15	30885.71
675.29	30911.46
675.43	31068.27
675.56	30312.28
675.70	30628.25
675.84	30281.85
675.98	29373.72
676.12	30309.94
676.26	29890.98
676.40	29855.87
676.54	29493.09
676.68	29479.05
676.82	29303.51
676.96	29741.19
677.10	29427.56
677.23	29486.07
677.37	29465.00
677.51	29333.93
677.65	29415.85
677.79	29006.26
677.93	28748.80
678.07	29254.36
678.21	28671.56
678.34	28687.95
678.48	28594.32
678.62	28521.77
678.76	28496.02
678.90	28287.71
679.04	27971.74
679.18	28334.53
679.31	28231.54
679.45	28011.53
679.59	27498.95
679.73	27913.23
679.87	27988.13
680.00	27763.43
680.14	27639.39
680.28	27618.32
680.42	27342.14
680.56	27585.55
680.70	27218.09
680.83	27339.80
680.97	26946.59
681.11	26841.26
681.25	26920.84
681.39	26771.05
681.52	26892.76
681.66	27021.48
681.80	26972.33
681.94	26712.53
682.07	26661.04
682.21	26522.95
682.35	26396.56
682.49	26314.64
682.62	26284.22
682.76	26132.08
682.90	26141.44
683.04	26246.77
683.17	25865.26
683.31	25919.09
683.45	26022.08
683.59	25305.87
683.72	25324.60
683.86	25420.56
684.00	25525.88
684.13	25568.01
684.27	25298.85
684.41	25025.01
684.55	24844.79
684.68	24751.17
684.82	24568.60
684.96	24254.97
685.09	24758.19
685.23	24444.56
685.37	24680.95
685.50	24416.47
685.64	24704.35
685.78	24320.51
685.91	24346.25
686.05	24147.31
686.19	24093.47
686.32	23651.11
686.46	23606.64
686.60	23255.56
686.73	23288.33
686.87	23566.85
687.01	23339.82
687.14	23030.87
687.28	23218.11
687.42	23094.07
687.55	22590.85
687.69	22981.72
687.82	23073.00
687.96	22939.59
688.10	22972.36
688.23	22710.22
688.37	22450.42
688.50	22611.92
688.64	22377.86
688.78	22099.34
688.91	21722.51
689.05	21968.27
689.18	22209.34
689.32	21989.33
689.46	21907.41
689.59	22256.15
689.73	22082.95
689.86	21792.73
690.00	21649.96
690.13	21738.90
690.27	21418.24
690.41	21912.10
690.54	21088.23
690.68	20856.51
690.81	21179.51
690.95	20882.26
691.08	21202.91
691.22	20978.22
691.35	20978.22
691.49	20835.45
691.62	20919.71
691.76	20842.47
691.89	20467.98
692.03	20580.33
692.16	20355.64
692.30	20809.70
692.43	20257.34
692.57	20372.02
692.70	20116.90
692.84	20262.02
692.97	19880.51
693.11	19679.22
693.24	19510.71
693.38	19501.34
693.51	19538.79
693.65	19686.25
693.78	19838.38
693.92	19356.23
694.05	19260.27
694.19	18918.55
694.32	19119.84
694.45	19267.29
694.59	19066.00
694.72	18672.79
694.86	18881.10
694.99	18651.73
695.13	18452.78
695.26	18122.77
695.39	18218.73
695.53	18499.59
695.66	18523.00
695.80	18602.58
695.93	18047.87
696.07	18040.85
696.20	17937.87
696.33	17994.04
696.47	18267.88
696.60	17731.90
696.73	18045.53
696.87	17811.48
697.00	17678.07
697.14	17617.21
697.27	17444.01
697.40	17535.29
697.54	17490.82
697.67	17341.03
697.80	17174.85
697.94	17186.55
698.07	17149.11
698.21	17167.83
698.34	16994.63
698.47	16730.15
698.61	16524.18
698.74	16325.24
698.87	16666.95
699.01	16451.63
699.14	16620.14
699.27	16414.18
699.40	16198.85
699.54	16332.26
699.67	16322.90
699.80	16201.19
699.94	16264.38
700.07	15913.30
700.20	15815.00
700.34	15700.31
700.47	15489.67
700.60	15866.49
700.73	15885.22
700.87	15693.29
701.00	15564.56
701.13	15318.81
701.26	15475.62
701.40	15379.66
701.53	15260.29
701.66	15255.61
701.79	15073.05
701.93	14902.19
702.06	14888.15
702.19	14806.23
702.32	15073.05
702.46	14963.04
702.59	14871.76
702.72	14792.19
702.85	14864.74
702.99	14801.55
703.12	14553.45
703.25	14677.50
703.38	14593.24
703.51	14600.26
703.65	14441.11
703.78	14232.80
703.91	14125.13
704.04	14139.18
704.17	14153.22
704.31	13862.99
704.44	13582.13
704.57	13631.28
704.70	13509.57
704.83	13488.51
704.96	13514.25
705.10	13898.10
705.23	13823.20
>>>>>End Processed Spectral Data<<<<<
