SpectraSuite Data File
++++++++++++++++++++++++++++++++++++
Date: Fri Oct 25 10:47:26 EDT 2013
User: price-jones
Dark Spectrum Present: No
Reference Spectrum Present: No
Number of Sampled Component Spectra: 1
Spectrometers: USB2+H05261
Integration Time (usec): 100000 (USB2+H05261)
Spectra Averaged: 1 (USB2+H05261)
Boxcar Smoothing: 0 (USB2+H05261)
Correct for Electrical Dark: No (USB2+H05261)
Strobe/Lamp Enabled: No (USB2+H05261)
Correct for Detector Non-linearity: No (USB2+H05261)
Correct for Stray Light: No (USB2+H05261)
Number of Pixels in Processed Spectrum: 2048
>>>>>Begin Processed Spectral Data<<<<<
365.73	114.69
365.92	114.69
366.12	114.69
366.32	49.15
366.52	46.81
366.72	30.43
366.91	93.62
367.11	18.72
367.31	39.79
367.51	39.79
367.70	51.49
367.90	56.17
368.10	49.15
368.30	11.70
368.49	56.17
368.69	51.49
368.89	88.94
369.09	0.00
369.28	138.09
369.48	9.36
369.68	81.92
369.87	140.43
370.07	72.56
370.27	91.28
370.47	149.79
370.66	313.63
370.86	407.25
371.06	428.32
371.25	409.59
371.45	482.15
371.65	400.23
371.84	489.17
372.04	414.27
372.24	475.13
372.44	442.36
372.63	498.53
372.83	496.19
373.03	477.47
373.22	482.15
373.42	573.43
373.62	475.13
373.81	477.47
374.01	547.69
374.21	545.34
374.40	463.43
374.60	543.00
374.79	550.03
374.99	550.03
375.19	498.53
375.38	543.00
375.58	582.79
375.78	573.43
375.97	638.97
376.17	589.82
376.37	477.47
376.56	554.71
376.76	615.56
376.95	582.79
377.15	531.30
377.35	552.37
377.54	669.39
377.74	566.41
377.93	624.92
378.13	606.20
378.33	608.54
378.52	669.39
378.72	692.80
378.91	671.73
379.11	585.13
379.31	650.67
379.50	617.90
379.70	589.82
379.89	638.97
380.09	641.31
380.28	664.71
380.48	716.20
380.68	645.99
380.87	589.82
381.07	695.14
381.26	662.37
381.46	643.65
381.65	725.57
381.85	643.65
382.04	627.26
382.24	737.27
382.43	676.41
382.63	779.40
382.83	702.16
383.02	704.50
383.22	751.31
383.41	760.67
383.61	711.52
383.80	758.33
384.00	725.57
384.19	671.73
384.39	650.67
384.58	676.41
384.78	734.93
384.97	732.59
385.17	781.74
385.36	734.93
385.56	667.05
385.75	676.41
385.95	753.65
386.14	746.63
386.34	755.99
386.53	692.80
386.72	770.04
386.92	760.67
387.11	807.48
387.31	835.57
387.50	730.25
387.70	842.59
387.89	760.67
388.09	788.76
388.28	777.06
388.48	835.57
388.67	882.38
388.86	819.19
389.06	976.00
389.25	816.85
389.45	896.43
389.64	875.36
389.84	898.77
390.03	903.45
390.22	849.61
390.42	924.51
390.61	840.25
390.81	922.17
391.00	903.45
391.19	966.64
391.39	940.90
391.58	940.90
391.78	898.77
391.97	954.94
392.16	1006.43
392.36	1041.54
392.55	999.41
392.75	1027.50
392.94	964.30
393.13	922.17
393.33	1004.09
393.52	964.30
393.71	997.07
393.91	968.98
394.10	978.34
394.29	1067.28
394.49	1064.94
394.68	1109.41
394.88	1034.52
395.07	1114.10
395.26	1088.35
395.46	1149.20
395.65	1163.25
395.84	1100.05
396.04	1245.16
396.23	1156.22
396.42	1123.46
396.62	1097.71
396.81	1142.18
397.00	1165.59
397.19	1160.91
397.39	1193.67
397.58	1186.65
397.77	1259.21
397.97	1315.38
398.16	1263.89
398.35	1242.82
398.55	1282.61
398.74	1350.49
398.93	1385.60
399.12	1303.68
399.32	1327.08
399.51	1294.32
399.70	1352.83
399.90	1331.76
400.09	1479.22
400.28	1423.05
400.47	1497.94
400.67	1479.22
400.86	1526.03
401.05	1423.05
401.24	1362.19
401.44	1425.39
401.63	1540.07
401.82	1537.73
402.01	1462.83
402.21	1572.84
402.40	1514.33
402.59	1516.67
402.78	1488.58
402.97	1614.97
403.17	1621.99
403.36	1554.12
403.55	1572.84
403.74	1596.25
403.93	1558.80
404.13	1703.91
404.32	1619.65
404.51	1657.10
404.70	1788.17
404.89	1680.50
405.09	1666.46
405.28	1699.23
405.47	1746.04
405.66	1675.82
405.85	1795.19
406.05	1678.16
406.24	1703.91
406.43	1823.28
406.62	1820.94
406.81	1884.13
407.00	1771.79
407.20	1748.38
407.39	1839.66
407.58	1942.64
407.77	1898.17
407.96	1891.15
408.15	1914.56
408.34	1909.88
408.54	1928.60
408.73	1921.58
408.92	1998.82
409.11	1963.71
409.30	2017.54
409.49	1944.99
409.68	2083.08
409.87	1968.39
410.07	2118.18
410.26	2010.52
410.45	2155.63
410.64	2122.87
410.83	2113.50
411.02	2195.42
411.21	2253.94
411.40	2228.19
411.59	2310.11
411.78	2275.00
411.98	2256.28
412.17	2387.35
412.36	2394.37
412.55	2424.80
412.74	2441.18
412.93	2408.41
413.12	2417.77
413.31	2525.44
413.50	2406.07
413.69	2487.99
413.88	2670.55
414.07	2546.50
414.26	2546.50
414.45	2560.55
414.64	2607.36
414.83	2719.70
415.02	2672.89
415.22	2661.19
415.41	2684.59
415.60	2612.04
415.79	2803.96
415.98	2836.73
416.17	2822.69
416.36	2857.79
416.55	2782.90
416.74	2913.97
416.93	2848.43
417.12	2977.16
417.31	2942.05
417.50	2981.84
417.69	3101.21
417.88	3141.00
418.07	3096.53
418.26	2998.23
418.45	3101.21
418.64	3197.17
418.83	3155.04
419.02	3136.32
419.21	3122.27
419.39	3169.09
419.58	3169.09
419.77	3119.93
419.96	3288.45
420.15	3330.58
420.34	3251.00
420.53	3222.92
420.72	3225.26
420.91	3246.32
421.10	3442.93
421.29	3375.05
421.48	3370.37
421.67	3370.37
421.86	3410.16
422.05	3391.44
422.24	3445.27
422.43	3398.46
422.61	3379.73
422.80	3499.10
422.99	3569.32
423.18	3482.72
423.37	3665.28
423.56	3449.95
423.75	3414.84
423.94	3375.05
424.13	3346.97
424.32	3307.18
424.50	3559.95
424.69	3557.61
424.88	3688.68
425.07	3482.72
425.26	3377.39
425.45	3475.70
425.64	3471.01
425.83	3499.10
426.01	3606.77
426.20	3492.08
426.39	3548.25
426.58	3550.59
426.77	3555.27
426.96	3590.38
427.15	3482.72
427.33	3620.81
427.52	3681.66
427.71	3604.42
427.90	3552.93
428.09	3653.58
428.28	3674.64
428.46	3721.45
428.65	3707.41
428.84	3845.50
429.03	3925.08
429.22	3679.32
429.40	3618.47
429.59	3775.28
429.78	3548.25
429.97	3541.23
430.16	3735.50
430.34	3850.18
430.53	3904.01
430.72	3941.46
430.91	3854.86
431.10	3911.04
431.28	4044.45
431.47	4086.58
431.66	4032.74
431.85	4091.26
432.03	4180.20
432.22	4231.69
432.41	4166.15
432.60	4182.54
432.79	4154.45
432.97	4351.06
433.16	4306.59
433.35	4145.09
433.54	4074.87
433.72	4084.23
433.91	4154.45
434.10	4290.20
434.28	4208.28
434.47	4318.29
434.66	4360.42
434.85	4395.53
435.03	4334.67
435.22	4348.72
435.41	4461.06
435.59	4514.89
435.78	4416.59
435.97	4732.56
436.16	4531.28
436.34	4542.98
436.53	4498.51
436.72	4636.60
436.90	4386.16
437.09	4533.62
437.28	4601.49
437.46	4552.34
437.65	4613.20
437.84	4620.22
438.02	4594.47
438.21	4622.56
438.40	4554.68
438.58	4887.04
438.77	4915.12
438.96	4706.82
439.14	4840.23
439.33	4966.62
439.52	5053.22
439.70	5027.47
439.89	4994.70
440.08	5071.94
440.26	5158.54
440.45	5179.61
440.63	5160.88
440.82	5305.99
441.01	5158.54
441.19	5221.74
441.38	5378.55
441.57	5462.81
441.75	5607.92
441.94	5605.58
442.12	5430.04
442.31	5640.69
442.50	5593.88
442.68	5671.12
442.87	5619.63
443.05	5654.73
443.24	5762.40
443.43	5858.36
443.61	5731.97
443.80	5947.30
443.98	5685.16
444.17	5530.69
444.35	5750.70
444.54	5989.43
444.73	5699.20
444.91	5909.85
445.10	5816.23
445.28	5706.23
445.47	5771.76
445.65	5792.83
445.84	5809.21
446.02	5830.27
446.21	5858.36
446.39	5895.81
446.58	5841.98
446.77	6005.81
446.95	5825.59
447.14	6083.05
447.32	6008.16
447.51	5902.83
447.69	5757.72
447.88	6026.88
448.06	5961.34
448.25	5825.59
448.43	5966.03
448.62	5956.66
448.80	5937.94
448.99	5998.79
449.17	6125.18
449.36	6099.44
449.54	6171.99
449.73	6190.72
449.91	6356.90
450.10	6237.53
450.28	6354.55
450.46	6253.91
450.65	6363.92
450.83	6310.08
451.02	6092.41
451.20	6209.44
451.39	6340.51
451.57	6410.73
451.76	6211.78
451.94	6417.75
452.13	6558.18
452.31	6450.52
452.49	6349.87
452.68	6518.39
452.86	6633.08
453.05	6560.52
453.23	6668.19
453.42	6553.50
453.60	6630.74
453.78	6698.61
453.97	6600.31
454.15	6569.88
454.34	6476.26
454.52	6817.98
454.70	6794.58
454.89	6700.95
455.07	6612.01
455.26	6707.98
455.44	6778.19
455.62	6752.45
455.81	6846.07
455.99	6759.47
456.17	6995.86
456.36	6846.07
456.54	6829.68
456.73	7248.64
456.91	7227.57
457.09	6986.50
457.28	7346.94
457.46	7155.02
457.64	7178.42
457.83	7328.22
458.01	7033.31
458.19	7377.37
458.38	7281.41
458.56	7302.47
458.74	7386.73
458.93	7290.77
459.11	7466.31
459.29	7286.09
459.48	7372.69
459.66	7318.86
459.84	7620.78
460.03	7557.59
460.21	7609.08
460.39	7644.19
460.57	7466.31
460.76	7676.96
460.94	7604.40
461.12	7695.68
461.31	7857.18
461.49	7653.55
461.67	7475.67
461.85	7658.23
462.04	7719.09
462.22	8299.54
462.40	8077.19
462.59	7866.54
462.77	7936.76
462.95	7845.48
463.13	7964.84
463.32	7861.86
463.50	8051.44
463.68	7927.39
463.86	8065.49
464.05	8002.29
464.23	7845.48
464.41	7918.03
464.59	7903.99
464.78	8133.36
464.96	8250.39
465.14	8060.80
465.32	8219.96
465.50	8264.43
465.69	8334.65
465.87	8318.26
466.05	8411.89
466.23	8219.96
466.41	8152.09
466.60	8449.33
466.78	8355.71
466.96	8327.63
467.14	8451.67
467.32	8521.89
467.51	8241.03
467.69	8351.03
467.87	8285.50
468.05	8491.46
468.23	8318.26
468.41	8549.98
468.60	8475.08
468.78	8549.98
468.96	8667.00
469.14	8601.47
469.32	8896.38
469.50	8423.59
469.69	8819.14
469.87	8905.74
470.05	8709.13
470.23	8889.35
470.41	8702.11
470.59	9008.72
470.77	8819.14
470.95	9057.87
471.14	9158.52
471.32	9078.94
471.50	9235.75
471.68	9231.07
471.86	9125.75
472.04	9011.06
472.22	9408.95
472.40	9186.60
472.58	9383.21
472.77	9577.47
472.95	9469.81
473.13	9795.14
473.31	9497.89
473.49	9380.87
473.67	9273.20
473.85	9668.75
474.03	9809.19
474.21	9851.31
474.39	9909.83
474.57	9893.44
474.75	9961.32
474.93	10223.46
475.12	9994.09
475.30	10186.01
475.48	10090.05
475.66	10026.86
475.84	10141.54
476.02	10249.21
476.20	10127.50
476.38	10434.11
476.56	10644.76
476.74	10705.61
476.92	10576.88
477.10	10619.01
477.28	10710.29
477.46	10738.38
477.64	10817.96
477.82	11138.61
478.00	11176.06
478.18	11321.17
478.36	11545.86
478.54	11506.07
478.72	11655.87
478.90	11300.11
479.08	11833.75
479.26	11871.20
479.44	11693.32
479.62	12145.04
479.80	12147.38
479.98	12070.14
480.16	12294.83
480.34	12163.76
480.52	12292.49
480.70	12439.95
480.88	12266.75
481.06	12805.07
481.24	12652.94
481.41	12620.17
481.59	12849.54
481.77	12975.93
481.95	13107.00
482.13	12952.52
482.31	13071.89
482.49	13266.16
482.67	13387.86
482.85	13591.49
483.03	13820.86
483.21	13790.44
483.39	14132.15
483.57	13832.57
483.74	13996.40
483.92	14171.94
484.10	14307.69
484.28	14333.44
484.46	14413.02
484.64	14743.03
484.82	14698.56
485.00	14651.75
485.18	14789.85
485.35	15056.67
485.53	14899.85
485.71	15339.87
485.89	15400.72
486.07	15454.56
486.25	15257.95
486.43	15419.45
486.61	15440.51
486.78	15674.57
486.96	15761.17
487.14	16203.53
487.32	16252.68
487.50	16360.34
487.68	16528.86
487.85	16381.41
488.03	16809.73
488.21	17057.82
488.39	16968.88
488.57	17083.57
488.75	17200.60
488.92	17334.01
489.10	17612.53
489.28	17415.93
489.46	18033.83
489.64	17649.98
489.81	18228.09
489.99	18417.68
490.17	18312.35
490.35	18305.33
490.53	18207.03
490.70	18487.89
490.88	18595.56
491.06	18848.33
491.24	18881.10
491.41	18883.44
491.59	18658.75
491.77	18782.80
491.95	19609.01
492.13	19405.38
492.30	19559.86
492.48	19658.16
492.66	19599.65
492.84	19758.80
493.01	20152.01
493.19	19939.02
493.37	20615.44
493.54	20238.61
493.72	20542.88
493.90	20732.47
494.08	20760.55
494.25	21055.46
494.43	21095.25
494.61	21406.54
494.79	21315.26
494.96	21481.44
495.14	21078.86
495.32	21378.45
495.49	21708.47
495.67	21678.04
495.85	21741.24
496.02	22003.38
496.20	22326.37
496.38	22188.28
496.55	22302.96
496.73	22560.42
496.91	22361.48
497.09	22532.34
497.26	22843.63
497.44	22932.57
497.62	23098.75
497.79	23285.99
497.97	22974.70
498.14	23515.36
498.32	23599.62
498.50	23599.62
498.67	23744.73
498.85	23807.93
499.03	23859.42
499.20	23828.99
499.38	23761.12
499.56	23976.45
499.73	24556.90
499.91	24271.36
500.08	24856.49
500.26	24327.53
500.44	24409.45
500.61	24664.57
500.79	24577.97
500.97	24652.86
501.14	25081.18
501.32	25172.46
501.49	25097.56
501.67	24875.21
501.84	25296.51
502.02	25406.52
502.20	25319.92
502.37	25713.13
502.55	25495.46
502.72	25722.49
502.90	25806.75
503.07	25497.80
503.25	26080.59
503.43	25867.60
503.60	26176.55
503.78	25963.56
503.95	25961.22
504.13	26429.33
504.30	26331.03
504.48	26155.49
504.65	26469.12
504.83	26700.83
505.01	26920.84
505.18	26808.50
505.36	27115.11
505.53	26642.32
505.71	27278.94
505.88	27152.55
506.06	27112.77
506.23	26995.74
506.41	27505.98
506.58	27433.42
506.76	27527.04
506.93	27618.32
507.11	27611.30
507.28	27711.94
507.46	27733.01
507.63	27854.72
507.81	27915.57
507.98	28009.19
508.16	27632.36
508.33	27997.49
508.50	28786.25
508.68	28739.44
508.85	28446.87
509.03	28542.83
509.20	28407.08
509.38	28624.75
509.55	28566.24
509.73	28889.23
509.90	28917.32
510.08	29055.41
510.25	28587.30
510.42	28964.13
510.60	29369.04
510.77	29427.56
510.95	29336.27
511.12	29649.91
511.30	29656.93
511.47	29848.85
511.64	29766.93
511.82	30010.35
511.99	29757.57
512.17	29940.13
512.34	29893.32
512.51	30244.40
512.69	30206.95
512.86	30171.85
513.04	30417.60
513.21	30654.00
513.38	30384.83
513.56	30251.42
513.73	30267.81
513.90	30483.14
514.08	31023.80
514.25	30675.06
514.43	30548.67
514.60	30724.21
514.77	30951.24
514.95	31531.70
515.12	30899.75
515.29	31166.57
515.47	31337.43
515.64	31559.78
515.81	31515.31
515.99	31393.61
516.16	31543.40
516.33	31442.76
516.51	31615.96
516.68	31524.68
516.85	31159.55
517.03	31611.28
517.20	31765.75
517.37	31386.58
517.54	32130.87
517.72	31969.38
517.89	32315.78
518.06	31889.80
518.24	32027.89
518.41	32107.47
518.58	32257.26
518.75	31908.52
518.93	32737.07
519.10	32711.33
519.27	33069.43
519.45	32507.70
519.62	32854.10
519.79	33179.43
519.96	33003.89
520.14	33062.41
520.31	33237.95
520.48	33315.19
520.65	33268.37
520.83	33284.76
521.00	33455.62
521.17	33649.88
521.34	33738.82
521.52	33621.80
521.69	33965.85
521.86	33219.22
522.03	33596.05
522.20	33621.80
522.38	34089.90
522.55	34408.22
522.72	34012.66
522.89	34003.30
523.07	34396.51
523.24	33689.67
523.41	34129.69
523.58	33984.58
523.75	34452.69
523.92	34382.47
524.10	34717.17
524.27	34756.96
524.44	34724.19
524.61	34742.91
524.78	34869.30
524.96	35398.26
525.13	34902.07
525.30	35164.21
525.47	35388.90
525.64	35269.53
525.81	35236.77
525.98	35321.02
526.16	34869.30
526.33	35204.00
526.50	35204.00
526.67	35276.55
526.84	35360.81
527.01	34731.21
527.18	35243.79
527.36	36070.00
527.53	35508.27
527.70	35852.33
527.87	35922.54
528.04	35611.25
528.21	35852.33
528.38	35709.55
528.55	36432.78
528.72	36062.97
528.89	36175.32
529.07	36400.01
529.24	36093.40
529.41	36158.94
529.58	36629.38
529.75	36334.48
529.92	36601.30
530.09	36484.27
530.26	36648.11
530.43	36896.20
530.60	36325.11
530.77	36388.31
530.94	36809.61
531.11	37064.72
531.28	37188.77
531.46	37116.22
531.63	37448.57
531.80	37345.59
531.97	37223.88
532.14	36924.29
532.31	36662.15
532.48	37331.54
532.65	37900.29
532.82	37038.98
532.99	37635.81
533.16	36783.86
533.33	37340.91
533.50	37624.11
533.67	37764.54
533.84	37427.51
534.01	37471.98
534.18	37624.11
534.35	38014.98
534.52	37940.08
534.69	37977.53
534.86	38071.15
535.03	37766.88
535.20	38384.79
535.37	38539.26
535.54	38602.46
535.71	38169.46
535.88	38302.87
536.05	38394.15
536.22	38401.17
536.38	38087.54
536.55	38082.86
536.72	38607.14
536.89	37986.89
537.06	38031.36
537.23	38768.63
537.40	38562.67
537.57	38689.06
537.74	38618.84
537.91	39161.84
538.08	38532.24
538.25	38817.78
538.42	38412.87
538.59	39311.64
538.75	38438.62
538.92	38747.57
539.09	38958.22
539.26	39487.18
539.43	39452.07
539.60	39365.47
539.77	38864.60
539.94	39278.87
540.11	39257.81
540.28	39323.34
540.44	39604.20
540.61	39196.95
540.78	39828.90
540.95	39365.47
541.12	39552.71
541.29	39257.81
541.46	39365.47
541.62	39192.27
541.79	39957.63
541.96	39611.23
542.13	39255.46
542.30	39728.25
542.47	39559.73
542.63	39711.87
542.80	39805.49
542.97	40034.86
543.14	40739.36
543.31	39894.43
543.48	40348.50
543.64	41008.53
543.81	40610.64
543.98	40505.31
544.15	40315.73
544.32	40849.37
544.48	40470.20
544.65	40421.05
544.82	40435.10
544.99	40395.31
545.16	40341.47
545.32	40563.82
545.49	40783.83
545.66	40935.97
545.83	40594.25
546.00	40835.33
546.16	40804.90
546.33	40842.35
546.50	40280.62
546.67	40744.05
546.83	40584.89
547.00	40856.39
547.17	40877.46
547.34	41141.94
547.50	41174.70
547.67	41200.45
547.84	41235.56
548.00	41469.61
548.17	41364.29
548.34	41165.34
548.51	41783.24
548.67	41418.12
548.84	41677.92
549.01	41163.00
549.18	41319.82
549.34	41474.29
549.51	41895.59
549.68	41698.98
549.84	41780.90
550.01	41743.45
550.18	41949.42
550.34	41415.78
550.51	41642.81
550.68	41656.85
550.84	41429.82
551.01	41923.68
551.18	41937.72
551.34	41483.66
551.51	42195.18
551.68	41773.88
551.84	42157.73
552.01	41940.06
552.18	41968.15
552.34	42012.62
552.51	42263.05
552.68	42263.05
552.84	42618.81
553.01	42541.58
553.18	42073.47
553.34	42513.49
553.51	42087.51
553.67	41808.99
553.84	42696.05
554.01	42637.54
554.17	42471.36
554.34	42726.48
554.51	42813.08
554.67	42691.37
554.84	42644.56
555.00	42412.85
555.17	42115.60
555.33	42450.30
555.50	42817.76
555.67	42597.75
555.83	42742.86
556.00	42934.79
556.16	42918.40
556.33	42834.14
556.50	42789.67
556.66	43044.79
556.83	42983.94
556.99	43126.71
557.16	42740.52
557.32	43140.75
557.49	42534.56
557.65	42843.51
557.82	42887.98
557.98	42972.24
558.15	42927.77
558.32	43199.27
558.48	43318.64
558.65	43161.82
558.81	43407.58
558.98	42997.98
559.14	43412.26
559.31	43227.35
559.47	43154.80
559.64	43648.65
559.80	43454.39
559.97	43484.81
560.13	43012.02
560.30	43468.43
560.46	43288.21
560.63	43250.76
560.79	43433.32
560.96	43559.71
561.12	43775.04
561.29	43835.89
561.45	43393.53
561.61	43208.63
561.78	43473.11
561.94	43246.08
562.11	43655.67
562.27	43466.09
562.44	43405.23
562.60	43665.03
562.77	43629.93
562.93	43358.42
563.10	43601.84
563.26	43311.61
563.42	44032.50
563.59	43526.94
563.75	43756.32
563.92	43571.41
564.08	43753.97
564.24	43679.08
564.41	43863.98
564.57	43360.76
564.74	43917.81
564.90	44186.97
565.07	43924.83
565.23	43669.72
565.39	43669.72
565.56	43838.23
565.72	43732.91
565.88	43906.11
566.05	43789.08
566.21	43782.06
566.38	43655.67
566.54	43653.33
566.70	43842.92
566.87	44605.93
567.03	43863.98
567.19	44264.21
567.36	44219.74
567.52	44102.71
567.68	44034.84
567.85	43662.69
568.01	44165.91
568.17	43768.02
568.34	44179.95
568.50	44285.28
568.66	44205.70
568.83	44088.67
568.99	44147.18
569.15	43988.03
569.32	43775.04
569.48	44051.22
569.64	44453.79
569.81	44112.08
569.97	44095.69
570.13	43978.67
570.30	43924.83
570.46	43910.79
570.62	43988.03
570.78	43725.89
570.95	43917.81
571.11	44561.46
571.27	44474.86
571.43	44282.94
571.60	44538.05
571.76	43948.24
571.92	44182.29
572.09	44013.77
572.25	44397.62
572.41	44034.84
572.57	44367.20
572.74	44872.75
572.90	44383.58
573.06	44296.98
573.22	44662.10
573.38	44531.03
573.55	44250.17
573.71	44069.95
573.87	44313.36
574.03	44327.41
574.20	44030.16
574.36	44151.87
574.52	44425.71
574.68	44154.21
574.84	44652.74
575.01	44641.04
575.17	44294.64
575.33	44617.63
575.49	44102.71
575.65	44847.00
575.82	44753.38
575.98	44236.12
576.14	44383.58
576.30	44519.33
576.46	44301.66
576.62	44671.46
576.79	44091.01
576.95	44240.81
577.11	44458.48
577.27	44135.48
577.43	44451.45
577.59	44463.16
577.75	44343.79
577.92	44105.06
578.08	44294.64
578.24	44421.03
578.40	44343.79
578.56	44589.55
578.72	44369.54
578.88	44669.12
579.04	45052.97
579.21	44547.42
579.37	44360.17
579.53	44538.05
579.69	44018.46
579.85	44568.48
580.01	44444.43
580.17	44397.62
580.33	44526.35
580.49	44486.56
580.65	44292.30
580.82	44601.25
580.98	44591.89
581.14	44201.02
581.30	44737.00
581.46	44727.64
581.62	44364.85
581.78	44444.43
581.94	44622.31
582.10	44692.53
582.26	44582.52
582.42	44516.99
582.58	44580.18
582.74	44465.50
582.90	44722.96
583.06	44739.34
583.22	44472.52
583.38	45153.62
583.54	44662.10
583.70	44580.18
583.86	44484.22
584.02	44243.15
584.18	44765.09
584.34	44212.72
584.50	44652.74
584.66	44369.54
584.82	44935.95
584.98	44879.77
585.14	44847.00
585.30	44563.80
585.46	44636.36
585.62	44156.55
585.78	44641.04
585.94	44203.36
586.10	44465.50
586.26	44708.91
586.42	44559.12
586.58	45130.21
586.74	44622.31
586.90	44636.36
587.06	44292.30
587.22	44957.01
587.38	44650.40
587.54	44973.39
587.70	44804.88
587.86	45155.96
588.02	44849.35
588.18	44814.24
588.34	44746.36
588.49	44399.96
588.65	44395.28
588.81	44533.37
588.97	44657.42
589.13	44659.76
589.29	44540.39
589.45	45111.49
589.61	44662.10
589.77	44741.68
589.93	44364.85
590.08	44985.10
590.24	44692.53
590.40	44849.35
590.56	45574.91
590.72	44839.98
590.88	44636.36
591.04	44732.32
591.20	45148.93
591.35	45120.85
591.51	45059.99
591.67	44751.04
591.83	44423.37
591.99	44847.00
592.15	44961.69
592.31	45130.21
592.46	44678.49
592.62	44669.12
592.78	44842.32
592.94	44947.65
593.10	45116.17
593.26	44877.43
593.41	44664.44
593.57	44844.66
593.73	44910.20
593.89	45034.25
594.05	44751.04
594.20	44626.99
594.36	45368.94
594.52	45055.31
594.68	44945.31
594.84	44957.01
594.99	45329.16
595.15	44680.83
595.31	44839.98
595.47	45052.97
595.62	44573.16
595.78	45181.70
595.94	45074.04
596.10	45240.21
596.25	45045.95
596.41	45015.52
596.57	44491.24
596.73	45434.48
596.88	45006.16
597.04	45151.27
597.20	45249.58
597.36	44893.82
597.51	45198.09
597.67	45123.19
597.83	44971.05
597.99	45464.91
598.14	45162.98
598.30	44879.77
598.46	45153.62
598.61	45127.87
598.77	45022.54
598.93	44942.97
599.09	44877.43
599.24	45230.85
599.40	45085.74
599.56	45450.86
599.71	45155.96
599.87	45518.74
600.03	45057.65
600.18	45165.32
600.34	45588.95
600.50	45134.89
600.65	45010.84
600.81	45064.67
600.97	45624.06
601.12	45682.58
601.28	45500.01
601.44	45088.08
601.59	44872.75
601.75	44858.71
601.91	45017.86
602.06	45041.27
602.22	44875.09
602.37	45067.02
602.53	45251.92
602.69	45420.44
602.84	45181.70
603.00	45085.74
603.16	45275.32
603.31	45013.18
603.47	44870.41
603.62	44959.35
603.78	45179.36
603.94	45008.50
604.09	45057.65
604.25	45406.39
604.40	44999.14
604.56	45432.14
604.71	44713.59
604.87	45134.89
605.03	45272.98
605.18	44926.58
605.34	44748.70
605.49	44973.39
605.65	44928.92
605.80	45125.53
605.96	44762.75
606.12	45057.65
606.27	45333.84
606.43	44952.33
606.58	44575.50
606.74	45017.86
606.89	44676.15
607.05	44837.64
607.20	45212.13
607.36	45202.77
607.51	44839.98
607.67	44687.85
607.82	44619.97
607.98	44722.96
608.13	44491.24
608.29	44481.88
608.44	44531.03
608.60	44147.18
608.75	44432.73
608.91	44505.29
609.06	44165.91
609.22	44987.44
609.37	44346.13
609.53	44903.18
609.68	44666.78
609.84	44741.68
609.99	44966.37
610.15	44598.91
610.30	44439.75
610.46	44250.17
610.61	44524.01
610.76	44561.46
610.92	44875.09
611.07	44367.20
611.23	44343.79
611.38	44516.99
611.54	44294.64
611.69	44847.00
611.84	44280.60
612.00	44212.72
612.15	44081.65
612.31	44545.08
612.46	44495.92
612.62	44575.50
612.77	44423.37
612.92	44605.93
613.08	43906.11
613.23	44032.50
613.39	44168.25
613.54	44009.09
613.69	44341.45
613.85	44229.10
614.00	44198.68
614.15	44184.63
614.31	44411.67
614.46	44589.55
614.62	44388.26
614.77	43629.93
614.92	44222.08
615.08	44392.94
615.23	43768.02
615.38	44091.01
615.54	43798.44
615.69	43899.09
615.84	43384.17
616.00	43618.22
616.15	44168.25
616.30	44025.48
616.46	43161.82
616.61	43484.81
616.76	43613.54
616.92	43606.52
617.07	43262.46
617.22	43173.52
617.37	43739.93
617.53	44186.97
617.68	43735.25
617.83	43622.90
617.99	43646.31
618.14	43665.03
618.29	43442.68
618.45	43253.10
618.60	43332.68
618.75	43414.60
618.90	43756.32
619.06	43672.06
619.21	43908.45
619.36	43700.14
619.51	43311.61
619.67	43428.64
619.82	43157.14
619.97	43704.82
620.12	43339.70
620.28	42904.36
620.43	43075.22
620.58	43445.02
620.73	43482.47
620.89	42906.70
621.04	43208.63
621.19	43356.08
621.34	43070.54
621.49	43140.75
621.65	42972.24
621.80	43175.86
621.95	42897.34
622.10	42930.11
622.25	42930.11
622.41	42864.57
622.56	42508.81
622.71	43072.88
622.86	43093.94
623.01	42904.36
623.16	42951.17
623.32	42698.39
623.47	43054.15
623.62	42895.00
623.77	42946.49
623.92	42756.91
624.07	42351.99
624.23	42370.72
624.38	42618.81
624.53	42609.45
624.68	42906.70
624.83	42717.12
624.98	42185.82
625.13	42478.38
625.29	42543.92
625.44	42143.69
625.59	42300.50
625.74	42115.60
625.89	41867.50
626.04	42258.37
626.19	42515.83
626.34	42375.40
626.49	42478.38
626.65	42054.75
626.80	42169.43
626.95	42117.94
627.10	41930.70
627.25	41666.22
627.40	41886.23
627.55	41577.28
627.70	41303.43
627.85	41790.27
628.00	42080.49
628.15	42593.07
628.30	42157.73
628.45	41886.23
628.60	42036.02
628.76	41778.56
628.91	41909.63
629.06	42029.00
629.21	41731.75
629.36	41471.95
629.51	41710.69
629.66	40992.14
629.81	41827.71
629.96	41244.92
630.11	41724.73
630.26	41841.76
630.41	41446.21
630.56	41324.50
630.71	41928.36
630.86	41731.75
631.01	41263.64
631.16	41462.59
631.31	41364.29
631.46	41174.70
631.61	41228.54
631.76	41762.18
631.91	41165.34
632.06	41535.15
632.21	41464.93
632.36	41237.90
632.51	40961.72
632.66	41036.61
632.81	40781.49
632.96	41064.70
633.10	41310.46
633.25	40439.78
633.40	41036.61
633.55	41277.69
633.70	41205.13
633.85	40701.92
634.00	40898.52
634.15	41062.36
634.30	40706.60
634.45	41214.49
634.60	41041.29
634.75	40671.49
634.90	40540.42
635.05	40856.39
635.19	40978.10
635.34	40907.88
635.49	40825.96
635.64	40891.50
635.79	40964.06
635.94	40533.40
636.09	40999.16
636.24	40336.79
636.39	40350.84
636.53	40119.12
636.68	40093.38
636.83	40191.68
636.98	40196.36
637.13	40519.35
637.28	40524.04
637.43	40582.55
637.57	40444.46
637.72	40605.95
637.87	40573.19
638.02	40374.24
638.17	39632.29
638.32	40350.84
638.46	39971.67
638.61	40266.58
638.76	39913.16
638.91	39992.73
639.06	40215.08
639.20	40229.13
639.35	40774.47
639.50	39889.75
639.65	40360.20
639.80	40313.39
639.94	39770.38
640.09	39473.13
640.24	39529.31
640.39	39501.22
640.54	39777.40
640.68	39494.20
640.83	40105.08
640.98	39526.97
641.13	39339.72
641.27	39981.03
641.42	39674.42
641.57	40037.20
641.72	39868.69
641.86	39014.39
642.01	39269.51
642.16	39608.89
642.31	38639.90
642.45	39763.36
642.60	39040.14
642.75	38969.92
642.90	39569.10
643.04	39250.78
643.19	39379.51
643.34	39548.03
643.48	39182.91
643.63	39044.82
643.78	39337.38
643.93	39098.65
644.07	39309.30
644.22	38625.86
644.37	38787.36
644.51	39187.59
644.66	39075.24
644.81	39002.69
644.95	39253.12
645.10	38946.51
645.25	39103.33
645.39	39592.50
645.54	39391.22
645.69	39072.90
645.83	38967.58
645.98	38780.34
646.13	38969.92
646.27	38888.00
646.42	38794.38
646.57	38986.30
646.71	38665.65
646.86	38974.60
647.00	38822.47
647.15	38637.56
647.30	38679.69
647.44	38649.27
647.59	38630.54
647.74	38618.84
647.88	38663.31
648.03	38305.21
648.17	38356.70
648.32	37872.21
648.47	38213.93
648.61	38445.64
648.76	38693.74
648.90	38618.84
649.05	38265.42
649.20	38522.88
649.34	38321.59
649.49	38600.12
649.63	38249.03
649.78	38455.00
649.92	38064.13
650.07	38670.33
650.21	38253.72
650.36	38164.78
650.51	37558.58
650.65	38330.95
650.80	38359.04
650.94	38026.68
651.09	38190.52
651.23	38225.63
651.38	37970.51
651.52	37902.64
651.67	38150.73
651.81	37818.38
651.96	37937.74
652.10	37553.90
652.25	37694.33
652.39	37785.61
652.54	37605.39
652.68	38190.52
652.83	37998.60
652.97	38204.56
653.12	37837.10
653.26	37731.78
653.41	37773.91
653.55	37563.26
653.70	37448.57
653.84	37790.29
653.99	37170.05
654.13	37453.25
654.27	37486.02
654.42	37759.86
654.56	37600.71
654.71	37621.77
654.85	37837.10
655.00	37715.39
655.14	37029.62
655.29	37067.06
655.43	37043.66
655.57	37474.32
655.72	37205.16
655.86	36996.85
656.01	37371.33
656.15	36961.74
656.30	37181.75
656.44	36950.04
656.58	37205.16
656.73	36472.57
656.87	37001.53
657.01	37090.47
657.16	36858.76
657.30	36790.88
657.45	36615.34
657.59	36657.47
657.73	36435.12
657.88	37046.00
658.02	36589.59
658.16	36762.79
658.31	36753.43
658.45	37102.17
658.60	36631.72
658.74	36744.07
658.88	37172.39
659.03	36395.33
659.17	36329.80
659.31	36568.53
659.46	36245.54
659.60	36320.43
659.74	36048.93
659.89	35997.44
660.03	36070.00
660.17	36311.07
660.32	36215.11
660.46	36872.80
660.60	36128.51
660.74	35995.10
660.89	36135.53
661.03	35543.38
661.17	35573.80
661.32	35756.36
661.46	35847.64
661.60	35641.68
661.74	35739.98
661.89	35613.59
662.03	35517.63
662.17	35690.83
662.31	35737.64
662.46	35716.58
662.60	35803.17
662.74	35475.50
662.88	35344.43
663.03	35215.70
663.17	35756.36
663.31	35009.73
663.45	35470.82
663.60	34998.03
663.74	35152.51
663.88	35070.59
664.02	34803.77
664.17	34817.81
664.31	34658.65
664.45	34511.20
664.59	34965.26
664.73	34965.26
664.88	34864.62
665.02	34171.82
665.16	34567.37
665.30	34658.65
665.44	34361.40
665.59	34396.51
665.73	34244.38
665.87	34536.94
666.01	34307.57
666.15	34433.96
666.29	34078.20
666.44	34302.89
666.58	33923.72
666.72	34024.37
666.86	34092.24
667.00	33933.09
667.14	33752.87
667.28	33832.44
667.43	33610.09
667.57	33874.57
667.71	33474.34
667.85	33715.42
667.99	33303.48
668.13	33572.64
668.27	33371.36
668.41	33453.28
668.56	33467.32
668.70	33308.16
668.84	33354.97
668.98	32840.06
669.12	33214.54
669.26	33095.18
669.40	32933.68
669.54	33228.59
669.68	32971.13
669.82	32858.78
669.96	32498.34
670.10	32631.75
670.25	32950.06
670.39	32872.82
670.53	32725.37
670.67	32603.66
670.81	32751.12
670.95	32648.13
671.09	32547.49
671.23	32821.33
671.37	32781.54
671.51	32100.45
671.65	31943.63
671.79	31824.26
671.93	32037.25
672.07	32290.03
672.21	32048.96
672.35	31749.37
672.49	32018.53
672.63	31732.98
672.77	31552.76
672.91	31576.17
673.05	31445.10
673.19	31243.81
673.33	31365.52
673.47	31042.53
673.61	30852.94
673.75	30967.63
673.89	31089.34
674.03	31000.40
674.17	30771.02
674.31	31255.51
674.45	30515.90
674.59	31262.54
674.73	30740.60
674.87	31012.10
675.01	30583.78
675.15	30796.77
675.29	30862.30
675.43	30623.57
675.56	30333.34
675.70	30246.74
675.84	30494.84
675.98	29453.30
676.12	30108.65
676.26	30059.50
676.40	29804.38
676.54	29579.69
676.68	29532.88
676.82	28800.29
676.96	29881.62
677.10	29067.11
677.23	29345.64
677.37	29132.65
677.51	29252.02
677.65	29329.25
677.79	28938.38
677.93	28760.50
678.07	28931.36
678.21	28842.42
678.34	28627.09
678.48	28481.98
678.62	28517.09
678.76	28751.14
678.90	28566.24
679.04	28222.18
679.18	28643.48
679.31	27969.40
679.45	28238.56
679.59	27440.44
679.73	27592.58
679.87	27798.54
680.00	27742.37
680.14	27814.93
680.28	27798.54
680.42	27328.10
680.56	27262.56
680.70	27461.51
680.83	27484.91
680.97	27094.04
681.11	26927.86
681.25	26712.53
681.39	26466.78
681.52	26916.16
681.66	26604.87
681.80	26869.35
681.94	26618.91
682.07	26525.29
682.21	26405.92
682.35	26396.56
682.49	26363.79
682.62	26480.82
682.76	25785.68
682.90	25783.34
683.04	26024.42
683.17	25930.80
683.31	25947.18
683.45	25937.82
683.59	25546.95
683.72	25434.60
683.86	25090.54
684.00	25083.52
684.13	25502.48
684.27	25177.14
684.41	25156.08
684.55	24856.49
684.68	24896.28
684.82	25085.86
684.96	24702.01
685.09	24774.57
685.23	24421.15
685.37	24247.95
685.50	24566.26
685.64	24196.46
685.78	24446.90
685.91	24238.59
686.05	24114.54
686.19	23454.51
686.32	23990.49
686.46	23807.93
686.60	23346.84
686.73	23847.72
686.87	23042.57
687.01	23187.69
687.14	22972.36
687.28	22810.86
687.42	23154.92
687.55	22857.67
687.69	23222.80
687.82	23007.47
687.96	23002.78
688.10	22602.55
688.23	22553.40
688.37	22291.26
688.50	22551.06
688.64	21958.91
688.78	22192.96
688.91	22396.59
689.05	22263.18
689.18	22309.99
689.32	21645.27
689.46	21879.33
689.59	22141.47
689.73	22111.04
689.86	21745.92
690.00	21750.60
690.13	21788.05
690.27	21336.32
690.41	21453.35
690.54	21018.01
690.68	21165.46
690.81	21186.53
690.95	20842.47
691.08	21270.79
691.22	20961.84
691.35	20940.77
691.49	20805.02
691.62	20856.51
691.76	20886.94
691.89	20575.65
692.03	20524.16
692.16	20613.10
692.30	20109.88
692.43	20273.72
692.57	20203.50
692.70	19948.39
692.84	20156.69
692.97	19871.15
693.11	20194.14
693.24	20042.01
693.38	19756.46
693.51	19524.75
693.65	19494.32
693.78	19747.10
693.92	19578.58
694.05	19300.06
694.19	19215.80
694.32	19201.76
694.45	19454.53
694.59	19178.35
694.72	18675.13
694.86	18902.17
694.99	18892.80
695.13	18724.29
695.26	18384.91
695.39	18497.25
695.53	18068.94
695.66	18354.48
695.80	18370.86
695.93	18230.43
696.07	18188.30
696.20	18380.23
696.33	18080.64
696.47	18120.43
696.60	17919.14
696.73	17947.23
696.87	17802.11
697.00	17717.86
697.14	18047.87
697.27	17568.06
697.40	17518.91
697.54	17228.68
697.67	17123.36
697.80	17310.60
697.94	17139.74
698.07	17097.61
698.21	16952.50
698.34	17153.79
698.47	16652.91
698.61	16594.40
698.74	16622.48
698.87	16613.12
699.01	16554.61
699.14	16322.90
699.27	16308.85
699.40	16439.92
699.54	16332.26
699.67	15957.77
699.80	16198.85
699.94	16182.46
700.07	16201.19
700.20	16039.69
700.34	15976.50
700.47	15733.08
700.60	16079.48
700.73	15852.45
700.87	15538.82
701.00	15506.05
701.13	15587.97
701.26	15241.57
701.40	15438.17
701.53	15445.20
701.66	15344.55
701.79	15101.14
701.93	14888.15
702.06	14925.60
702.19	14771.12
702.32	14906.87
702.46	14714.95
702.59	14710.27
702.72	14731.33
702.85	14593.24
702.99	14728.99
703.12	14618.99
703.25	14394.29
703.38	14478.55
703.51	14216.41
703.65	14284.29
703.78	14384.93
703.91	13994.06
704.04	14274.93
704.17	14024.49
704.31	14036.19
704.44	13841.93
704.57	13795.12
704.70	13757.67
704.83	13820.86
704.96	13701.50
705.10	13600.85
705.23	13741.29
>>>>>End Processed Spectral Data<<<<<
