SpectraSuite Data File
++++++++++++++++++++++++++++++++++++
Date: Fri Oct 25 10:43:28 EDT 2013
User: price-jones
Dark Spectrum Present: No
Reference Spectrum Present: No
Number of Sampled Component Spectra: 1
Spectrometers: USB2+H05261
Integration Time (usec): 100000 (USB2+H05261)
Spectra Averaged: 1 (USB2+H05261)
Boxcar Smoothing: 0 (USB2+H05261)
Correct for Electrical Dark: No (USB2+H05261)
Strobe/Lamp Enabled: No (USB2+H05261)
Correct for Detector Non-linearity: No (USB2+H05261)
Correct for Stray Light: No (USB2+H05261)
Number of Pixels in Processed Spectrum: 2048
>>>>>Begin Processed Spectral Data<<<<<
365.73	110.01
365.92	110.01
366.12	110.01
366.32	91.28
366.52	0.00
366.72	21.06
366.91	0.00
367.11	51.49
367.31	0.00
367.51	2.34
367.70	77.24
367.90	14.04
368.10	79.58
368.30	0.00
368.49	0.00
368.69	65.54
368.89	0.00
369.09	84.26
369.28	84.26
369.48	21.06
369.68	77.24
369.87	112.35
370.07	49.15
370.27	135.75
370.47	163.84
370.66	407.25
370.86	386.19
371.06	470.45
371.25	472.79
371.45	482.15
371.65	449.38
371.84	400.23
372.04	458.74
372.24	414.27
372.44	496.19
372.63	517.26
372.83	540.66
373.03	472.79
373.22	519.60
373.42	503.22
373.62	550.03
373.81	627.26
374.01	573.43
374.21	552.37
374.40	486.83
374.60	575.77
374.79	629.60
374.99	610.88
375.19	587.47
375.38	564.07
375.58	592.16
375.78	610.88
375.97	667.05
376.17	512.58
376.37	585.13
376.56	638.97
376.76	643.65
376.95	622.58
377.15	631.94
377.35	613.22
377.54	648.33
377.74	650.67
377.93	568.75
378.13	688.12
378.33	629.60
378.52	594.50
378.72	624.92
378.91	695.14
379.11	608.54
379.31	557.05
379.50	631.94
379.70	667.05
379.89	676.41
380.09	617.90
380.28	725.57
380.48	713.86
380.68	753.65
380.87	641.31
381.07	725.57
381.26	795.78
381.46	727.91
381.65	748.97
381.85	662.37
382.04	702.16
382.24	753.65
382.43	690.46
382.63	650.67
382.83	711.52
383.02	755.99
383.22	683.44
383.41	753.65
383.61	713.86
383.80	753.65
384.00	730.25
384.19	791.10
384.39	830.89
384.58	758.33
384.78	788.76
384.97	851.96
385.17	875.36
385.36	858.98
385.56	786.42
385.75	751.31
385.95	674.07
386.14	774.72
386.34	765.36
386.53	877.70
386.72	774.72
386.92	798.12
387.11	901.11
387.31	851.96
387.50	919.83
387.70	744.29
387.89	877.70
388.09	873.02
388.28	882.38
388.48	905.79
388.67	1001.75
388.86	835.57
389.06	858.98
389.25	947.92
389.45	891.74
389.64	957.28
389.84	1041.54
390.03	1034.52
390.22	978.34
390.42	994.73
390.61	1043.88
390.81	997.07
391.00	1053.24
391.19	1071.97
391.39	1053.24
391.58	1153.88
391.78	983.02
391.97	1071.97
392.16	1032.18
392.36	1064.94
392.55	1015.79
392.75	945.58
392.94	1062.60
393.13	1004.09
393.33	961.96
393.52	1025.15
393.71	1076.65
393.91	1057.92
394.10	1093.03
394.29	1132.82
394.49	1163.25
394.68	1177.29
394.88	1135.16
395.07	1291.98
395.26	1266.23
395.46	1245.16
395.65	1334.11
395.84	1268.57
396.04	1203.04
396.23	1200.69
396.42	1144.52
396.62	1186.65
396.81	1219.42
397.00	1277.93
397.19	1341.13
397.39	1259.21
397.58	1362.19
397.77	1371.55
397.97	1472.20
398.16	1451.13
398.35	1439.43
398.55	1434.75
398.74	1401.98
398.93	1394.96
399.12	1413.68
399.32	1406.66
399.51	1495.60
399.70	1589.22
399.90	1596.25
400.09	1575.18
400.28	1607.95
400.47	1540.07
400.67	1519.01
400.86	1577.52
401.05	1654.76
401.24	1612.63
401.44	1783.49
401.63	1741.36
401.82	1664.12
402.01	1710.93
402.21	1661.78
402.40	1741.36
402.59	1694.55
402.78	1675.82
402.97	1760.08
403.17	1837.32
403.36	1898.17
403.55	1959.03
403.74	1870.09
403.93	1781.15
404.13	1963.71
404.32	1954.35
404.51	1818.60
404.70	1888.81
404.89	1884.13
405.09	1982.43
405.28	2033.93
405.47	1916.90
405.66	1844.34
405.85	1914.56
406.05	2040.95
406.24	1963.71
406.43	2054.99
406.62	1996.48
406.81	2111.16
407.00	1989.46
407.20	2129.89
407.39	2057.33
407.58	2076.06
407.77	2127.55
407.96	2169.68
408.15	2141.59
408.34	2176.70
408.54	2228.19
408.73	2314.79
408.92	2326.49
409.11	2263.30
409.30	2293.72
409.49	2249.25
409.68	2333.51
409.87	2244.57
410.07	2293.72
410.26	2303.09
410.45	2410.75
410.64	2443.52
410.83	2483.31
411.02	2509.05
411.21	2637.78
411.40	2551.18
411.59	2600.34
411.78	2595.65
411.98	2541.82
412.17	2679.91
412.36	2555.86
412.55	2590.97
412.74	2703.32
412.93	2822.69
413.12	2775.88
413.31	2930.35
413.50	2616.72
413.69	2834.39
413.88	2822.69
414.07	2935.03
414.26	2951.42
414.45	2986.52
414.64	2806.30
414.83	2930.35
415.02	3164.40
415.22	2993.55
415.41	3171.43
415.60	3080.14
415.79	3185.47
415.98	3346.97
416.17	3185.47
416.36	3208.87
416.55	3213.56
416.74	3265.05
416.93	3307.18
417.12	3316.54
417.31	3262.71
417.50	3377.39
417.69	3314.20
417.88	3452.29
418.07	3218.24
418.26	3524.85
418.45	3513.14
418.64	3611.45
418.83	3557.61
419.02	3501.44
419.21	3529.53
419.39	3508.46
419.58	3597.40
419.77	3482.72
419.96	3669.96
420.15	3679.32
420.34	3618.47
420.53	3840.82
420.72	3707.41
420.91	3651.24
421.10	3829.12
421.29	3918.06
421.48	3681.66
421.67	3868.91
421.86	3735.50
422.05	3801.03
422.24	3829.12
422.43	3719.11
422.61	3763.58
422.80	3878.27
422.99	3908.69
423.18	3887.63
423.37	3843.16
423.56	3838.48
423.75	3880.61
423.94	3859.54
424.13	3637.19
424.32	3754.22
424.50	3889.97
424.69	4180.20
424.88	3934.44
425.07	3819.75
425.26	3906.35
425.45	3927.42
425.64	3936.78
425.83	3936.78
426.01	3990.61
426.20	3908.69
426.39	3946.14
426.58	3852.52
426.77	3878.27
426.96	3946.14
427.15	3831.46
427.33	4112.32
427.52	3955.51
427.71	4060.83
427.90	4135.73
428.09	4145.09
428.28	4159.13
428.46	4124.02
428.65	4060.83
428.84	4278.50
429.03	4156.79
429.22	4088.92
429.40	4067.85
429.59	4112.32
429.78	3950.82
429.97	3845.50
430.16	3925.08
430.34	3962.53
430.53	4121.68
430.72	4170.83
430.91	4184.88
431.10	4252.75
431.28	4447.02
431.47	4573.41
431.66	4638.94
431.85	4447.02
432.03	4652.98
432.22	4547.66
432.41	4645.96
432.60	4807.46
432.79	4550.00
432.97	4627.24
433.16	4702.14
433.35	4592.13
433.54	4643.62
433.72	4589.79
433.91	4641.28
434.10	4770.01
434.28	4793.42
434.47	4975.98
434.66	4924.49
434.85	4844.91
435.03	4898.74
435.22	4910.44
435.41	5046.20
435.59	5020.45
435.78	4922.15
435.97	5224.08
436.16	5078.96
436.34	5074.28
436.53	4950.23
436.72	4999.38
436.90	4922.15
437.09	4992.36
437.28	5081.30
437.46	5128.11
437.65	4975.98
437.84	5118.75
438.02	5081.30
438.21	5224.08
438.40	5046.20
438.58	5268.55
438.77	5224.08
438.96	5448.77
439.14	5584.52
439.33	5556.43
439.52	5633.67
439.70	5572.82
439.89	5554.09
440.08	5659.42
440.26	5666.44
440.45	5657.07
440.63	5863.04
440.82	5926.24
441.01	5951.98
441.19	6024.54
441.38	6246.89
441.57	5996.45
441.75	6078.37
441.94	6108.80
442.12	6307.74
442.31	6298.38
442.50	6223.48
442.68	6087.73
442.87	6237.53
443.05	6167.31
443.24	6375.62
443.43	6256.25
443.61	6420.09
443.80	6572.22
443.98	6328.81
444.17	6132.20
444.35	6389.66
444.54	6602.65
444.73	6504.35
444.91	6373.28
445.10	6345.19
445.28	6567.54
445.47	6345.19
445.65	6532.44
445.84	6560.52
446.02	6586.27
446.21	6672.87
446.39	6642.44
446.58	6729.04
446.77	6665.85
446.95	6562.86
447.14	6649.46
447.32	6743.08
447.51	6630.74
447.69	6663.51
447.88	6649.46
448.06	6679.89
448.25	6551.16
448.43	6822.66
448.62	6745.42
448.80	6614.35
448.99	6857.77
449.17	6892.88
449.36	6780.53
449.54	6869.47
449.73	7080.12
449.91	7056.72
450.10	7061.40
450.28	7133.95
450.46	7171.40
450.65	7042.67
450.83	7173.74
451.02	7023.95
451.20	7129.27
451.39	7384.39
451.57	7190.13
451.76	7126.93
451.94	7157.36
452.13	7187.79
452.31	7332.90
452.49	7145.66
452.68	7218.21
452.86	7208.85
453.05	7220.55
453.23	7236.94
453.42	7232.26
453.60	7332.90
453.78	7382.05
453.97	7328.22
454.15	7368.01
454.34	7229.91
454.52	7569.29
454.70	7309.49
454.89	7332.90
455.07	7637.17
455.26	7585.68
455.44	7658.23
455.62	7712.07
455.81	7691.00
455.99	7815.05
456.17	7676.96
456.36	7850.16
456.54	8002.29
456.73	7829.09
456.91	8093.57
457.09	7950.80
457.28	8105.28
457.46	8023.36
457.64	8032.72
457.83	8074.85
458.01	8058.46
458.19	8163.79
458.38	8032.72
458.56	8189.53
458.74	8297.20
458.93	8276.13
459.11	8264.43
459.29	8173.15
459.48	8322.94
459.66	8348.69
459.84	8348.69
460.03	8634.24
460.21	8535.93
460.39	8437.63
460.57	8507.85
460.76	8571.04
460.94	8549.98
461.12	8449.33
461.31	8435.29
461.49	8484.44
461.67	8503.17
461.85	8891.70
462.04	8821.48
462.22	9439.38
462.40	8959.57
462.59	8765.31
462.77	8819.14
462.95	8982.98
463.13	9043.83
463.32	8840.20
463.50	8844.88
463.68	8875.31
463.86	8894.04
464.05	8870.63
464.23	8826.16
464.41	8910.42
464.59	8814.46
464.78	9107.02
464.96	9158.52
465.14	9142.13
465.32	9249.80
465.50	9284.91
465.69	8922.12
465.87	9202.99
466.05	8912.76
466.23	9092.98
466.41	9144.47
466.60	9277.88
466.78	8940.85
466.96	9366.82
467.14	9205.33
467.32	9224.05
467.51	9289.59
467.69	9116.39
467.87	9167.88
468.05	9633.64
468.23	9317.67
468.41	9247.46
468.60	9263.84
468.78	9671.09
468.96	9320.01
469.14	9500.23
469.32	9502.58
469.50	9324.69
469.69	9689.82
469.87	9680.46
470.05	9741.31
470.23	9853.66
470.41	9820.89
470.59	10005.79
470.77	9970.68
470.95	10026.86
471.14	10190.69
471.32	9905.15
471.50	10324.10
471.68	10174.31
471.86	10136.86
472.04	10331.12
472.22	10380.28
472.40	10279.63
472.58	10317.08
472.77	10417.72
472.95	10553.48
473.13	10785.19
473.31	10338.15
473.49	10516.03
473.67	10501.98
473.85	10483.26
474.03	11049.67
474.21	10796.89
474.39	11253.30
474.57	11030.94
474.75	11131.59
474.93	10986.47
475.12	10965.41
475.30	11194.78
475.48	10911.58
475.66	11187.76
475.84	11110.52
476.02	11393.73
476.20	11290.74
476.38	11499.05
476.56	11808.00
476.74	11683.95
476.92	11662.89
477.10	11779.92
477.28	12100.57
477.46	11819.71
477.64	12154.40
477.82	12205.89
478.00	12622.51
478.18	12725.49
478.36	12571.02
478.54	12425.90
478.72	12568.68
478.90	12882.31
479.08	12968.91
479.26	13193.60
479.44	12774.64
479.62	13156.15
479.80	13167.85
479.98	13453.40
480.16	13568.09
480.34	13348.08
480.52	13701.50
480.70	13542.34
480.88	13448.72
481.06	13832.57
481.24	13865.33
481.41	14043.21
481.59	14029.17
481.77	14164.92
481.95	14097.05
482.13	14174.28
482.31	14448.13
482.49	14848.36
482.67	14661.12
482.85	14949.00
483.03	15105.82
483.21	15239.23
483.39	15370.30
483.57	15370.30
483.74	15119.86
483.92	15417.11
484.10	15372.64
484.28	15618.39
484.46	16030.33
484.64	16301.83
484.82	15770.53
485.00	16135.65
485.18	15976.50
485.35	16505.46
485.53	15934.37
485.71	16109.91
485.89	16142.67
486.07	16638.87
486.25	16493.76
486.43	16940.80
486.61	17111.66
486.78	17011.01
486.96	17348.05
487.14	17912.12
487.32	17624.23
487.50	17804.46
487.68	17874.67
487.85	18188.30
488.03	18401.29
488.21	18644.71
488.39	18464.49
488.57	18375.55
488.75	18574.49
488.92	19016.85
489.10	19035.58
489.28	19091.75
489.46	19728.38
489.64	19426.45
489.81	19910.94
489.99	20315.85
490.17	20116.90
490.35	20479.69
490.53	20184.78
490.70	20449.26
490.88	20402.45
491.06	20802.68
491.24	20627.14
491.41	20507.77
491.59	20159.03
491.77	20643.52
491.95	20727.78
492.13	20893.96
492.30	21245.04
492.48	21664.00
492.66	21703.79
492.84	21769.32
493.01	21839.54
493.19	22015.08
493.37	22141.47
493.54	22171.89
493.72	22366.16
493.90	22771.07
494.08	23012.15
494.25	22993.42
494.43	22974.70
494.61	23173.64
494.79	23342.16
494.96	23171.30
495.14	23304.71
495.32	23690.90
495.49	23440.47
495.67	23789.20
495.85	24189.44
496.02	23707.29
496.20	24044.32
496.38	24245.61
496.55	24432.85
496.73	24664.57
496.91	24912.66
497.09	24788.61
497.26	25181.82
497.44	25132.67
497.62	25081.18
497.79	25216.93
497.97	25053.09
498.14	25422.90
498.32	25509.50
498.50	25439.28
498.67	25926.11
498.85	25727.17
499.03	26050.16
499.20	25949.52
499.38	25977.61
499.56	26424.65
499.73	26120.38
499.91	26108.68
500.08	26384.86
500.26	26382.52
500.44	26274.85
500.61	26419.97
500.79	26471.46
500.97	26506.57
501.14	26827.22
501.32	26815.52
501.49	27082.34
501.67	26906.80
501.84	27709.60
502.02	27417.04
502.20	27321.07
502.37	27232.13
502.55	27119.79
502.72	27803.22
502.90	27730.67
503.07	27632.36
503.25	27920.25
503.43	27733.01
503.60	27824.29
503.78	27871.10
503.95	27997.49
504.13	28238.56
504.30	28498.36
504.48	28137.92
504.65	28638.80
504.83	29158.39
505.01	29177.12
505.18	28540.49
505.36	29301.17
505.53	29172.44
505.71	29731.83
505.88	29312.87
506.06	29078.82
506.23	29591.39
506.41	29567.99
506.58	29467.34
506.76	29357.34
506.93	29441.60
507.11	29771.61
507.28	29668.63
507.46	29965.88
507.63	29675.65
507.81	29951.84
507.98	30101.63
508.16	30012.69
508.33	30501.86
508.50	30398.88
508.68	30663.36
508.85	31138.49
509.03	31157.21
509.20	30780.39
509.38	31028.48
509.55	30939.54
509.73	30981.67
509.90	31201.68
510.08	31098.70
510.25	30906.77
510.42	31555.10
510.60	31391.26
510.77	31711.92
510.95	32060.66
511.12	31732.98
511.30	32411.74
511.47	32144.92
511.64	32285.35
511.82	32156.62
511.99	32318.12
512.17	31655.75
512.34	32095.77
512.51	32547.49
512.69	32704.31
512.86	32804.95
513.04	32669.20
513.21	32580.26
513.38	32893.89
513.56	32680.90
513.73	32929.00
513.90	33083.47
514.08	33048.36
514.25	32957.08
514.43	32861.12
514.60	33085.81
514.77	32975.81
514.95	33425.19
515.12	33376.04
515.29	33359.66
515.47	34132.03
515.64	33453.28
515.81	33720.10
515.99	33369.02
516.16	33631.16
516.33	33240.29
516.51	33226.24
516.68	32788.56
516.85	33308.16
517.03	33584.35
517.20	33518.81
517.37	34160.12
517.54	33954.15
517.72	33799.68
517.89	33841.81
518.06	33914.36
518.24	33930.75
518.41	34316.93
518.58	34569.71
518.75	34167.14
518.93	34576.73
519.10	34756.96
519.27	35211.02
519.45	35192.30
519.62	35239.11
519.79	35227.40
519.96	34796.74
520.14	35250.81
520.31	34890.37
520.48	35374.86
520.65	35218.04
520.83	35522.31
521.00	35747.00
521.17	35948.29
521.34	35562.10
521.52	35622.95
521.69	35641.68
521.86	35866.37
522.03	36194.04
522.20	35901.48
522.38	36105.10
522.55	36002.12
522.72	35927.22
522.89	35981.06
523.07	36390.65
523.24	36315.75
523.41	36458.52
523.58	36486.61
523.75	36959.40
523.92	37020.25
524.10	37184.09
524.27	36835.35
524.44	36751.09
524.61	37046.00
524.78	37443.89
524.96	37053.02
525.13	37158.34
525.30	37177.07
525.47	37621.77
525.64	36762.79
525.81	37282.39
525.98	37062.38
526.16	36849.39
526.33	37177.07
526.50	37483.68
526.67	37144.30
526.84	37258.99
527.01	37034.30
527.18	37535.17
527.36	37869.87
527.53	37897.95
527.70	38206.90
527.87	38356.70
528.04	37490.70
528.21	38431.60
528.38	38480.75
528.55	38794.38
528.72	38639.90
528.89	38387.13
529.07	39019.07
529.24	38326.27
529.41	38817.78
529.58	38202.22
529.75	38698.42
529.92	38808.42
530.09	38983.96
530.26	39054.18
530.43	39192.27
530.60	38724.16
530.77	38801.40
530.94	38988.64
531.11	39250.78
531.28	39332.70
531.46	39040.14
531.63	39215.68
531.80	38899.70
531.97	39035.45
532.14	39098.65
532.31	39021.41
532.48	38953.54
532.65	39182.91
532.82	39082.27
532.99	39739.96
533.16	39503.56
533.33	39690.80
533.50	40023.16
533.67	39592.50
533.84	39714.21
534.01	39548.03
534.18	39627.61
534.35	39901.45
534.52	39545.69
534.69	39887.41
534.86	40266.58
535.03	39990.39
535.20	40692.55
535.37	40376.58
535.54	40884.48
535.71	40233.81
535.88	40243.17
536.05	40486.59
536.22	40407.01
536.38	40896.18
536.55	40821.28
536.72	40596.59
536.89	40435.10
537.06	40294.66
537.23	40800.22
537.40	40294.66
537.57	40545.10
537.74	40914.90
537.91	41251.94
538.08	41097.47
538.25	40587.23
538.42	40942.99
538.59	41209.81
538.75	40938.31
538.92	41179.39
539.09	41509.40
539.26	41071.72
539.43	41029.59
539.60	40872.78
539.77	41043.63
539.94	41130.23
540.11	40601.27
540.28	41219.17
540.44	41298.75
540.61	40823.62
540.78	41326.84
540.95	41523.44
541.12	41464.93
541.29	41549.19
541.46	41319.82
541.62	41530.47
541.79	41944.74
541.96	41390.03
542.13	41532.81
542.30	41591.32
542.47	42160.07
542.63	41532.81
542.80	42284.12
542.97	42433.91
543.14	42075.81
543.31	42014.96
543.48	42241.99
543.64	42574.34
543.81	42211.56
543.98	42597.75
544.15	42560.30
544.32	42726.48
544.48	43044.79
544.65	42588.39
544.82	42813.08
544.99	42480.72
545.16	42536.90
545.32	42412.85
545.49	43374.81
545.66	42670.31
545.83	43145.44
546.00	43262.46
546.16	43129.05
546.33	42761.59
546.50	42574.34
546.67	43421.62
546.83	42433.91
547.00	42988.62
547.17	43206.29
547.34	42529.87
547.50	42794.36
547.67	43330.34
547.84	42920.74
548.00	43737.59
548.17	43466.09
548.34	43311.61
548.51	43878.02
548.67	43592.48
548.84	43372.47
549.01	43143.09
549.18	43236.72
549.34	43430.98
549.51	43236.72
549.68	43304.59
549.84	43604.18
550.01	43470.77
550.18	43704.82
550.34	43688.44
550.51	43531.62
550.68	43992.71
550.84	43313.95
551.01	43824.19
551.18	43592.48
551.34	43679.08
551.51	44243.15
551.68	43936.54
551.84	44083.99
552.01	43966.96
552.18	43887.39
552.34	43995.05
552.51	44048.88
552.68	44004.41
552.84	44044.20
553.01	44156.55
553.18	43758.66
553.34	44201.02
553.51	44100.37
553.67	44037.18
553.84	44498.26
554.01	44383.58
554.17	44278.25
554.34	44215.06
554.51	43943.56
554.67	44259.53
554.84	44140.16
555.00	44271.23
555.17	44287.62
555.33	44397.62
555.50	44631.68
555.67	44793.17
555.83	44835.30
556.00	44556.78
556.16	44788.49
556.33	44552.10
556.50	44406.98
556.66	44545.08
556.83	44746.36
556.99	44676.15
557.16	45088.08
557.32	44676.15
557.49	44697.21
557.65	44671.46
557.82	44582.52
557.98	44573.16
558.15	44802.53
558.32	45214.47
558.48	44547.42
558.65	44542.74
558.81	44509.97
558.98	44589.55
559.14	44619.97
559.31	44521.67
559.47	44788.49
559.64	44706.57
559.80	44900.84
559.97	44842.32
560.13	44697.21
560.30	44755.72
560.46	45186.38
560.63	45170.00
560.79	45254.26
560.96	45167.66
561.12	45062.33
561.29	44821.26
561.45	45083.40
561.61	45167.66
561.78	45038.93
561.94	44912.54
562.11	44556.78
562.27	44842.32
562.44	45006.16
562.60	45394.69
562.77	45216.81
562.93	45059.99
563.10	45734.07
563.26	44907.86
563.42	45052.97
563.59	45069.36
563.75	45153.62
563.92	45771.52
564.08	45085.74
564.24	45284.68
564.41	45626.40
564.57	45167.66
564.74	45485.97
564.90	45340.86
565.07	45111.49
565.23	45188.72
565.39	45270.64
565.56	45394.69
565.72	45139.57
565.88	45450.86
566.05	45202.77
566.21	45352.56
566.38	44907.86
566.54	45165.32
566.70	45727.05
566.87	45925.99
567.03	45684.92
567.19	45993.87
567.36	45703.64
567.52	45240.21
567.68	45357.24
567.85	45160.64
568.01	45504.70
568.17	45354.90
568.34	45626.40
568.50	45659.17
568.66	45024.89
568.83	45415.76
568.99	45474.27
569.15	45106.80
569.32	45567.89
569.48	45640.45
569.64	45722.37
569.81	45621.72
569.97	45703.64
570.13	45340.86
570.30	44865.73
570.46	45212.13
570.62	45233.19
570.78	45024.89
570.95	45127.87
571.11	45797.26
571.27	45600.66
571.43	45815.99
571.60	45752.79
571.76	45565.55
571.92	45682.58
572.09	46036.00
572.25	45832.37
572.41	45942.38
572.57	45399.37
572.74	45911.95
572.90	45698.96
573.06	45808.96
573.22	45771.52
573.38	45577.25
573.55	45443.84
573.71	45844.07
573.87	45769.18
574.03	45722.37
574.20	45474.27
574.36	45340.86
574.52	45970.46
574.68	45638.11
574.84	45750.45
575.01	45338.52
575.17	45354.90
575.33	45691.94
575.49	45467.25
575.65	45911.95
575.82	45399.37
575.98	45315.11
576.14	45507.04
576.30	45734.07
576.46	45890.88
576.62	45654.49
576.79	45741.09
576.95	45783.22
577.11	45900.25
577.27	46038.34
577.43	45581.93
577.59	45404.05
577.75	45427.46
577.92	45464.91
578.08	45059.99
578.24	45186.38
578.40	45247.24
578.56	45144.25
578.72	45710.66
578.88	46014.93
579.04	46291.12
579.21	45574.91
579.37	45808.96
579.53	46256.01
579.69	45621.72
579.85	45715.34
580.01	45528.10
580.17	45661.51
580.33	45904.93
580.49	45670.87
580.65	45778.54
580.82	45975.14
580.98	45869.82
581.14	45530.44
581.30	45968.12
581.46	45923.65
581.62	46265.37
581.78	45525.76
581.94	45902.59
582.10	45731.73
582.26	45832.37
582.42	45689.60
582.58	46068.76
582.74	45907.27
582.90	46146.00
583.06	46043.02
583.22	45675.55
583.38	46234.94
583.54	46248.99
583.70	46031.32
583.86	45977.48
584.02	45474.27
584.18	45605.34
584.34	45696.62
584.50	45963.44
584.66	46094.51
584.82	45993.87
584.98	46096.85
585.14	45652.15
585.30	45996.21
585.46	45914.29
585.62	45530.44
585.78	45462.57
585.94	45504.70
586.10	45640.45
586.26	45406.39
586.42	45958.76
586.58	45748.11
586.74	45603.00
586.90	45694.28
587.06	45481.29
587.22	46078.13
587.38	45815.99
587.54	46092.17
587.70	45741.09
587.86	45881.52
588.02	45720.02
588.18	46136.64
588.34	46003.23
588.49	45415.76
588.65	45006.16
588.81	45064.67
588.97	45542.14
589.13	45654.49
589.29	45357.24
589.45	45965.78
589.61	45918.97
589.77	45984.51
589.93	46085.15
590.08	45855.78
590.24	46185.79
590.40	46117.92
590.56	46571.98
590.72	46251.33
590.88	45916.63
591.04	45942.38
591.20	46387.08
591.35	46206.86
591.51	46354.31
591.67	45872.16
591.83	46117.92
591.99	45549.17
592.15	45734.07
592.31	45844.07
592.46	45799.60
592.62	45914.29
592.78	46307.50
592.94	46003.23
593.10	45909.61
593.26	46061.74
593.41	46153.02
593.57	45663.85
593.73	45837.05
593.89	46450.27
594.05	46092.17
594.20	46326.22
594.36	46026.63
594.52	46230.26
594.68	45509.38
594.84	45722.37
594.99	46370.69
595.15	46028.98
595.31	46571.98
595.47	45752.79
595.62	46270.05
595.78	46103.87
595.94	46291.12
596.10	45935.35
596.25	46347.29
596.41	45656.83
596.57	45801.94
596.73	46248.99
596.88	46312.18
597.04	45977.48
597.20	46003.23
597.36	46115.58
597.51	46092.17
597.67	46101.53
597.83	46209.20
597.99	46440.91
598.14	46349.63
598.30	46089.83
598.46	45979.82
598.61	46047.70
598.77	45757.47
598.93	45888.54
599.09	45844.07
599.24	45935.35
599.40	46288.77
599.56	46277.07
599.71	46178.77
599.87	46438.57
600.03	45914.29
600.18	45677.90
600.34	45949.40
600.50	46363.67
600.65	45944.72
600.81	46085.15
600.97	46328.56
601.12	46382.40
601.28	45720.02
601.44	45862.80
601.59	45930.67
601.75	45876.84
601.91	46066.42
602.06	45645.13
602.22	46181.11
602.37	46396.44
602.53	45734.07
602.69	46120.26
602.84	46115.58
603.00	45813.65
603.16	45705.98
603.31	46052.38
603.47	46000.89
603.62	45457.88
603.78	46377.72
603.94	46047.70
604.09	46335.59
604.25	45972.80
604.40	46028.98
604.56	46082.81
604.71	46148.34
604.87	45879.18
605.03	45581.93
605.18	46087.49
605.34	45546.82
605.49	45647.47
605.65	46033.66
605.80	45425.12
605.96	46064.08
606.12	45619.38
606.27	46028.98
606.43	45771.52
606.58	45677.90
606.74	45897.91
606.89	45918.97
607.05	45825.35
607.20	45535.12
607.36	46080.47
607.51	45944.72
607.67	45586.61
607.82	45879.18
607.98	45483.63
608.13	45745.77
608.29	45666.19
608.44	45586.61
608.60	45263.62
608.75	45617.04
608.91	45776.20
609.06	45399.37
609.22	45659.17
609.37	45312.77
609.53	45195.74
609.68	45509.38
609.84	45504.70
609.99	45347.88
610.15	45069.36
610.30	45212.13
610.46	45406.39
610.61	44741.68
610.76	45294.05
610.92	45844.07
611.07	45485.97
611.23	45727.05
611.38	45617.04
611.54	45397.03
611.69	45095.10
611.84	45158.30
612.00	45141.91
612.15	45132.55
612.31	45584.27
612.46	45289.37
612.62	45806.62
612.77	45106.80
612.92	44844.66
613.08	44800.19
613.23	44856.37
613.39	44612.95
613.54	44577.84
613.69	44879.77
613.85	44280.60
614.00	44907.86
614.15	44886.79
614.31	45244.90
614.46	45008.50
614.62	45125.53
614.77	44924.24
614.92	44596.57
615.08	44575.50
615.23	44811.90
615.38	44488.90
615.54	44608.27
615.69	44437.41
615.84	44360.17
616.00	44388.26
616.15	44048.88
616.30	44729.98
616.46	44275.91
616.61	44210.38
616.76	44341.45
616.92	44236.12
617.07	44559.12
617.22	44900.84
617.37	44774.45
617.53	44722.96
617.68	44755.72
617.83	43971.64
617.99	44509.97
618.14	44259.53
618.29	44025.48
618.45	43756.32
618.60	44069.95
618.75	44051.22
618.90	44156.55
619.06	43559.71
619.21	44313.36
619.36	44580.18
619.51	43945.90
619.67	43868.66
619.82	44128.46
619.97	44465.50
620.12	44065.27
620.28	43217.99
620.43	43920.15
620.58	44004.41
620.73	44088.67
620.89	43688.44
621.04	44076.97
621.19	44046.54
621.34	43955.26
621.49	43440.34
621.65	43856.96
621.80	43821.85
621.95	43711.84
622.10	44011.43
622.25	43828.87
622.41	43405.23
622.56	43360.76
622.71	44062.93
622.86	43555.03
623.01	43201.61
623.16	43873.34
623.32	43428.64
623.47	43297.57
623.62	43306.93
623.77	43187.56
623.92	43662.69
624.07	42604.77
624.23	42864.57
624.38	43194.59
624.53	42611.79
624.68	43260.12
624.83	43007.34
624.98	43248.42
625.13	42820.10
625.29	43054.15
625.44	43100.97
625.59	42342.63
625.74	42953.51
625.89	42508.81
626.04	42859.89
626.19	42864.57
626.34	42735.84
626.49	42923.08
626.65	42759.25
626.80	42916.06
626.95	42265.39
627.10	42747.54
627.25	42621.16
627.40	42714.78
627.55	42534.56
627.70	41930.70
627.85	42408.17
628.00	42190.50
628.15	42696.05
628.30	42824.78
628.45	42799.04
628.60	42635.20
628.76	42635.20
628.91	42061.77
629.06	42501.79
629.21	42059.43
629.36	41963.46
629.51	42160.07
629.66	41722.39
629.81	42312.20
629.96	42122.62
630.11	42309.86
630.26	42337.95
630.41	42436.25
630.56	41991.55
630.71	42340.29
630.86	42007.94
631.01	41481.31
631.16	41879.21
631.31	41460.25
631.46	41233.22
631.61	41762.18
631.76	41998.57
631.91	42110.92
632.06	41539.83
632.21	42089.85
632.36	42354.33
632.51	41385.35
632.66	41759.84
632.81	41701.32
632.96	41633.45
633.10	41673.24
633.25	41666.22
633.40	41504.72
633.55	41635.79
633.70	41488.34
633.85	41581.96
634.00	41605.36
634.15	41614.72
634.30	41146.62
634.45	41464.93
634.60	41113.85
634.75	40678.51
634.90	40891.50
635.05	41167.68
635.19	41205.13
635.34	40942.99
635.49	41195.77
635.64	41270.67
635.79	41223.86
635.94	40802.56
636.09	40928.95
636.24	40821.28
636.39	40776.81
636.53	40484.25
636.68	41174.70
636.83	41099.81
636.98	41078.74
637.13	40847.03
637.28	40992.14
637.43	40828.30
637.57	40961.72
637.72	40786.18
637.87	40933.63
638.02	41024.91
638.17	41132.57
638.32	41205.13
638.46	40591.91
638.61	40802.56
638.76	40091.04
638.91	40694.89
639.06	40531.06
639.20	40940.65
639.35	40781.49
639.50	40552.12
639.65	40287.64
639.80	40465.52
639.94	40306.37
640.09	40315.73
640.24	40318.07
640.39	40105.08
640.54	40500.63
640.68	40273.60
640.83	39871.03
640.98	39964.65
641.13	39693.15
641.27	40519.35
641.42	40095.72
641.57	39779.74
641.72	40142.53
641.86	39793.79
642.01	39824.22
642.16	39590.16
642.31	39232.06
642.45	40240.83
642.60	39894.43
642.75	39714.21
642.90	39484.84
643.04	39791.45
643.19	39632.29
643.34	39559.73
643.48	39786.77
643.63	39491.86
643.78	39873.37
643.93	39391.22
644.07	39655.70
644.22	39246.10
644.37	39309.30
644.51	39601.86
644.66	39388.88
644.81	39470.79
644.95	39445.05
645.10	39414.62
645.25	39571.44
645.39	39557.39
645.54	39239.08
645.69	38990.98
645.83	39353.77
645.98	38962.90
646.13	39138.44
646.27	39414.62
646.42	39218.02
646.57	38883.32
646.71	39285.89
646.86	39056.52
647.00	39002.69
647.15	39342.06
647.30	39414.62
647.44	38756.93
647.59	39005.03
647.74	38770.97
647.88	38836.51
648.03	38873.96
648.17	38705.44
648.32	38529.90
648.47	38637.56
648.61	38539.26
648.76	38607.14
648.90	38714.80
649.05	38604.80
649.20	38969.92
649.34	38682.03
649.49	38419.89
649.63	38773.31
649.78	38836.51
649.92	38401.17
650.07	38735.87
650.21	38721.82
650.36	38328.61
650.51	38735.87
650.65	38635.22
650.80	39234.40
650.94	38480.75
651.09	38553.30
651.23	38342.66
651.38	38237.33
651.52	38181.16
651.67	37832.42
651.81	37909.66
651.96	38185.84
652.10	38270.10
652.25	38092.22
652.39	38649.27
652.54	37977.53
652.68	38230.31
652.83	38209.25
652.97	38714.80
653.12	38274.78
653.26	37813.70
653.41	38017.32
653.55	37958.81
653.70	38155.41
653.84	38038.39
653.99	37656.88
654.13	37769.22
654.27	37680.28
654.42	37783.27
654.56	38396.49
654.71	37944.76
654.85	37357.29
655.00	37785.61
655.14	37727.10
655.29	37614.75
655.43	37516.45
655.57	37043.66
655.72	36903.23
655.86	37207.50
656.01	36760.45
656.15	36629.38
656.30	36849.39
656.44	36954.72
656.58	37277.71
656.73	37165.37
656.87	37097.49
657.01	37081.11
657.16	37060.04
657.30	36673.85
657.45	36528.74
657.59	36804.92
657.73	37083.45
657.88	36928.97
658.02	37074.09
658.16	36648.11
658.31	37076.43
658.45	37006.21
658.60	36708.96
658.74	37298.78
658.88	36744.07
659.03	36720.66
659.17	36781.52
659.31	36549.81
659.46	36044.25
659.60	36666.83
659.74	36648.11
659.89	36273.62
660.03	36570.87
660.17	36748.75
660.32	36591.94
660.46	36671.51
660.60	36304.05
660.74	36648.11
660.89	36357.88
661.03	36009.14
661.17	36158.94
661.32	36079.36
661.46	35903.82
661.60	35667.42
661.74	35751.68
661.89	35938.93
662.03	35552.74
662.17	36151.91
662.31	36058.29
662.46	36552.15
662.60	36168.30
662.74	35955.31
662.88	35576.14
663.03	35150.17
663.17	36006.80
663.31	35234.42
663.45	35747.00
663.60	35503.59
663.74	35147.82
663.88	35185.27
664.02	35164.21
664.17	35346.77
664.31	35070.59
664.45	35136.12
664.59	35316.34
664.73	34738.23
664.88	34642.27
665.02	33954.15
665.16	34656.31
665.30	34295.87
665.44	34029.05
665.59	34459.71
665.73	34817.81
665.87	34153.10
666.01	34202.25
666.15	34438.64
666.29	34466.73
666.44	34204.59
666.58	34183.52
666.72	34473.75
666.86	34148.42
667.00	34113.31
667.14	34099.26
667.28	33668.61
667.43	34047.77
667.57	34213.95
667.71	33769.25
667.85	33844.15
667.99	33879.25
668.13	33888.62
668.27	33848.83
668.41	33612.43
668.56	33502.43
668.70	33434.55
668.84	32751.12
668.98	33200.50
669.12	33603.07
669.26	33488.38
669.40	33146.67
669.54	32882.19
669.68	32964.10
669.82	33013.26
669.96	32936.02
670.10	32320.46
670.25	32985.17
670.39	32889.21
670.53	32484.30
670.67	32648.13
670.81	32980.49
670.95	32542.81
671.09	32613.02
671.23	32402.38
671.37	32236.20
671.51	32332.16
671.65	32446.85
671.79	32034.91
671.93	31945.97
672.07	32067.68
672.21	31814.90
672.35	31690.85
672.49	31791.50
672.63	31620.64
672.77	31648.72
672.91	31803.20
673.05	31693.19
673.19	31660.43
673.33	31215.72
673.47	31756.39
673.61	31330.41
673.75	31400.63
673.89	31084.65
674.03	31311.69
674.17	30906.77
674.31	30789.75
674.45	31365.52
674.59	31269.56
674.73	31159.55
674.87	30843.58
675.01	30700.81
675.15	30857.62
675.29	30759.32
675.43	30448.03
675.56	30927.84
675.70	30733.57
675.84	30586.12
675.98	29476.71
676.12	30391.86
676.26	30480.80
676.40	30036.09
676.54	30120.35
676.68	30015.03
676.82	29553.94
676.96	29359.68
677.10	29851.19
677.23	29558.63
677.37	29593.73
677.51	29500.11
677.65	29228.61
677.79	28819.02
677.93	28989.88
678.07	28753.48
678.21	28254.95
678.34	28650.50
678.48	28166.01
678.62	28472.62
678.76	28119.20
678.90	27964.72
679.04	27988.13
679.18	28006.85
679.31	27910.89
679.45	27838.33
679.59	27936.63
679.73	28229.20
679.87	27803.22
680.00	27742.37
680.14	27725.99
680.28	27260.22
680.42	27487.25
680.56	27536.40
680.70	27185.32
680.83	27290.65
680.97	27049.57
681.11	26890.41
681.25	27070.64
681.39	27360.86
681.52	26794.45
681.66	27115.11
681.80	26593.17
681.94	26466.78
682.07	26148.46
682.21	26185.91
682.35	26335.71
682.49	26082.93
682.62	25907.39
682.76	25869.94
682.90	25909.73
683.04	26082.93
683.17	25579.71
683.31	25563.33
683.45	25710.78
683.59	25345.66
683.72	25563.33
683.86	25486.09
684.00	25324.60
684.13	24835.42
684.27	24957.13
684.41	24915.00
684.55	25006.28
684.68	25106.93
684.82	25343.32
684.96	24617.75
685.09	24685.63
685.23	24514.77
685.37	24287.74
685.50	24594.35
685.64	24699.67
685.78	24353.27
685.91	23608.98
686.05	23957.72
686.19	23859.42
686.32	23702.61
686.46	23255.56
686.60	23122.15
686.73	23199.39
686.87	23290.67
687.01	23068.32
687.14	22773.41
687.28	22651.70
687.42	23080.02
687.55	23152.58
687.69	22892.78
687.82	22860.01
687.96	23084.70
688.10	22843.63
688.23	22244.45
688.37	22642.34
688.50	22649.36
688.64	22277.22
688.78	22422.33
688.91	21816.13
689.05	21902.73
689.18	21752.94
689.32	21582.08
689.46	21748.26
689.59	21731.87
689.73	21823.16
689.86	21568.04
690.00	21717.83
690.13	21537.61
690.27	21301.22
690.41	20903.32
690.54	21177.17
690.68	21385.47
690.81	21341.00
690.95	21088.23
691.08	20772.25
691.22	21010.99
691.35	20912.69
691.49	20723.10
691.62	20716.08
691.76	20343.94
691.89	20517.14
692.03	20299.47
692.16	20266.70
692.30	20250.32
692.43	20243.29
692.57	20053.71
692.70	19651.14
692.84	19936.68
692.97	19407.72
693.11	19634.75
693.24	19330.48
693.38	19587.94
693.51	19728.38
693.65	19421.77
693.78	19021.53
693.92	19356.23
694.05	19349.21
694.19	19126.86
694.32	19286.01
694.45	19248.57
694.59	18967.70
694.72	18689.18
694.86	18607.26
694.99	18574.49
695.13	18682.16
695.26	18593.22
695.39	18464.49
695.53	18801.52
695.66	18953.66
695.80	18312.35
695.93	18139.15
696.07	18113.41
696.20	18286.61
696.33	18265.54
696.47	17804.46
696.60	17881.69
696.73	17722.54
696.87	17549.34
697.00	17757.64
697.14	17287.20
697.27	17289.54
697.40	17357.41
697.54	17462.74
697.67	16903.35
697.80	17022.72
697.94	16690.36
698.07	16851.86
698.21	16669.30
698.34	17083.57
698.47	17130.38
698.61	16645.89
698.74	16718.45
698.87	16503.12
699.01	16542.91
699.14	16262.04
699.27	16093.52
699.40	16432.90
699.54	16472.69
699.67	16130.97
699.80	15948.41
699.94	15871.17
700.07	16149.70
700.20	15939.05
700.34	15887.56
700.47	15887.56
700.60	15829.04
700.73	15744.78
700.87	15316.47
701.00	15419.45
701.13	15049.64
701.26	15246.25
701.40	15307.10
701.53	15161.99
701.66	15098.80
701.79	14841.34
701.93	15108.16
702.06	14932.62
702.19	14754.74
702.32	14862.40
702.46	14679.84
702.59	14785.16
702.72	14806.23
702.85	14710.27
702.99	14834.32
703.12	14391.95
703.25	14314.72
703.38	14485.58
703.51	14291.31
703.65	14267.91
703.78	13898.10
703.91	14036.19
704.04	13898.10
704.17	13977.68
704.31	14019.81
704.44	13792.78
704.57	13713.20
704.70	13390.20
704.83	13483.83
704.96	13654.69
705.10	13490.85
705.23	13305.95
>>>>>End Processed Spectral Data<<<<<
