SpectraSuite Data File
++++++++++++++++++++++++++++++++++++
Date: Fri Oct 25 11:33:31 EDT 2013
User: price-jones
Dark Spectrum Present: No
Reference Spectrum Present: No
Number of Sampled Component Spectra: 1
Spectrometers: USB2+H05261
Integration Time (usec): 100000 (USB2+H05261)
Spectra Averaged: 1 (USB2+H05261)
Boxcar Smoothing: 0 (USB2+H05261)
Correct for Electrical Dark: No (USB2+H05261)
Strobe/Lamp Enabled: No (USB2+H05261)
Correct for Detector Non-linearity: No (USB2+H05261)
Correct for Stray Light: No (USB2+H05261)
Number of Pixels in Processed Spectrum: 2048
>>>>>Begin Processed Spectral Data<<<<<
365.73	264.48
365.92	264.48
366.12	264.48
366.32	114.69
366.52	124.05
366.72	245.76
366.91	191.92
367.11	201.29
367.31	128.73
367.51	208.31
367.70	201.29
367.90	142.77
368.10	194.26
368.30	236.39
368.49	198.95
368.69	128.73
368.89	131.07
369.09	212.99
369.28	166.18
369.48	163.84
369.68	271.50
369.87	231.71
370.07	166.18
370.27	395.55
370.47	360.44
370.66	512.58
370.86	472.79
371.06	531.30
371.25	573.43
371.45	540.66
371.65	615.56
371.84	528.96
372.04	615.56
372.24	571.09
372.44	557.05
372.63	564.07
372.83	629.60
373.03	594.50
373.22	531.30
373.42	526.62
373.62	622.58
373.81	641.31
374.01	669.39
374.21	653.01
374.40	622.58
374.60	662.37
374.79	702.16
374.99	578.11
375.19	594.50
375.38	683.44
375.58	648.33
375.78	683.44
375.97	660.03
376.17	725.57
376.37	671.73
376.56	650.67
376.76	678.76
376.95	662.37
377.15	681.10
377.35	720.88
377.54	734.93
377.74	713.86
377.93	629.60
378.13	716.20
378.33	718.54
378.52	664.71
378.72	627.26
378.91	713.86
379.11	713.86
379.31	732.59
379.50	725.57
379.70	713.86
379.89	709.18
380.09	631.94
380.28	643.65
380.48	786.42
380.68	798.12
380.87	685.78
381.07	758.33
381.26	723.23
381.46	744.29
381.65	730.25
381.85	751.31
382.04	798.12
382.24	767.70
382.43	709.18
382.63	739.61
382.83	800.46
383.02	791.10
383.22	765.36
383.41	833.23
383.61	812.17
383.80	842.59
384.00	847.27
384.19	870.68
384.39	894.08
384.58	833.23
384.78	807.48
384.97	854.30
385.17	727.91
385.36	887.06
385.56	805.14
385.75	837.91
385.95	915.15
386.14	847.27
386.34	847.27
386.53	875.36
386.72	837.91
386.92	887.06
387.11	877.70
387.31	873.02
387.50	870.68
387.70	875.36
387.89	866.00
388.09	840.25
388.28	894.08
388.48	910.47
388.67	901.11
388.86	931.53
389.06	875.36
389.25	1029.84
389.45	980.68
389.64	1004.09
389.84	943.24
390.03	943.24
390.22	1001.75
390.42	1001.75
390.61	968.98
390.81	1043.88
391.00	980.68
391.19	1064.94
391.39	961.96
391.58	959.62
391.78	1048.56
391.97	1067.28
392.16	992.39
392.36	1104.73
392.55	1090.69
392.75	1039.20
392.94	1078.99
393.13	1086.01
393.33	1053.24
393.52	985.37
393.71	1022.81
393.91	1041.54
394.10	1018.13
394.29	1086.01
394.49	1116.44
394.68	1132.82
394.88	1132.82
395.07	1130.48
395.26	1067.28
395.46	1207.72
395.65	1086.01
395.84	1132.82
396.04	1221.76
396.23	1144.52
396.42	1163.25
396.62	1212.40
396.81	1174.95
397.00	1181.97
397.19	1153.88
397.39	1170.27
397.58	1240.48
397.77	1228.78
397.97	1238.14
398.16	1259.21
398.35	1277.93
398.55	1334.11
398.74	1261.55
398.93	1355.17
399.12	1324.74
399.32	1348.15
399.51	1322.40
399.70	1467.52
399.90	1324.74
400.09	1427.73
400.28	1350.49
400.47	1373.89
400.67	1380.92
400.86	1423.05
401.05	1406.66
401.24	1472.20
401.44	1460.49
401.63	1523.69
401.82	1500.28
402.01	1420.71
402.21	1387.94
402.40	1448.79
402.59	1425.39
402.78	1444.11
402.97	1495.60
403.17	1549.43
403.36	1586.88
403.55	1575.18
403.74	1511.99
403.93	1570.50
404.13	1621.99
404.32	1600.93
404.51	1603.27
404.70	1589.22
404.89	1687.53
405.09	1708.59
405.28	1661.78
405.47	1682.85
405.66	1621.99
405.85	1678.16
406.05	1706.25
406.24	1724.97
406.43	1680.50
406.62	1743.70
406.81	1799.87
407.00	1823.28
407.20	1863.07
407.39	1916.90
407.58	1846.68
407.77	1832.64
407.96	1959.03
408.15	1839.66
408.34	1870.09
408.54	1884.13
408.73	1846.68
408.92	1944.99
409.11	2026.90
409.30	1900.52
409.49	1952.01
409.68	1998.82
409.87	2064.35
410.07	2008.18
410.26	1989.46
410.45	2036.27
410.64	2120.53
410.83	2045.63
411.02	2059.67
411.21	2090.10
411.40	2193.08
411.59	2106.48
411.78	2132.23
411.98	2160.31
412.17	2242.23
412.36	2190.74
412.55	2326.49
412.74	2326.49
412.93	2284.36
413.12	2195.42
413.31	2504.37
413.50	2415.43
413.69	2455.22
413.88	2443.52
414.07	2333.51
414.26	2523.10
414.45	2476.29
414.64	2581.61
414.83	2485.65
415.02	2569.91
415.22	2745.45
415.41	2663.53
415.60	2588.63
415.79	2722.04
415.98	2593.31
416.17	2712.68
416.36	2668.21
416.55	2717.36
416.74	2789.92
416.93	2771.19
417.12	2855.45
417.31	2792.26
417.50	2834.39
417.69	2942.05
417.88	2916.31
418.07	2792.26
418.26	2981.84
418.45	3108.23
418.64	3087.17
418.83	3178.45
419.02	3075.46
419.21	3091.85
419.39	3162.06
419.58	3094.19
419.77	3045.04
419.96	3122.27
420.15	3171.43
420.34	3129.30
420.53	3129.30
420.72	3260.37
420.91	3286.11
421.10	3295.47
421.29	3384.41
421.48	3197.17
421.67	3276.75
421.86	3304.84
422.05	3351.65
422.24	3295.47
422.43	3297.81
422.61	3438.25
422.80	3356.33
422.99	3346.97
423.18	3304.84
423.37	3501.44
423.56	3442.93
423.75	3419.52
423.94	3344.63
424.13	3145.68
424.32	3251.00
424.50	3421.86
424.69	3473.36
424.88	3461.65
425.07	3471.01
425.26	3398.46
425.45	3297.81
425.64	3384.41
425.83	3459.31
426.01	3552.93
426.20	3492.08
426.39	3400.80
426.58	3440.59
426.77	3602.08
426.96	3440.59
427.15	3522.51
427.33	3585.70
427.52	3574.00
427.71	3688.68
427.90	3660.60
428.09	3667.62
428.28	3637.19
428.46	3721.45
428.65	3681.66
428.84	3684.00
429.03	3667.62
429.22	3571.66
429.40	3735.50
429.59	3719.11
429.78	3548.25
429.97	3632.51
430.16	3801.03
430.34	3915.72
430.53	3882.95
430.72	3824.44
430.91	3831.46
431.10	3707.41
431.28	4121.68
431.47	3997.64
431.66	4004.66
431.85	3899.33
432.03	4135.73
432.22	4049.13
432.41	3976.57
432.60	3969.55
432.79	4128.70
432.97	3969.55
433.16	4229.35
433.35	4081.89
433.54	4011.68
433.72	4208.28
433.91	4269.14
434.10	4205.94
434.28	4222.33
434.47	4273.82
434.66	4198.92
434.85	4348.72
435.03	4332.33
435.22	4241.05
435.41	4414.25
435.59	4245.73
435.78	4440.00
435.97	4327.65
436.16	4465.74
436.34	4346.37
436.53	4454.04
436.72	4622.56
436.90	4550.00
437.09	4540.64
437.28	4456.38
437.46	4292.54
437.65	4650.64
437.84	4657.67
438.02	4587.45
438.21	4631.92
438.40	4465.74
438.58	4699.80
438.77	4767.67
438.96	4706.82
439.14	4905.76
439.33	4865.97
439.52	4791.08
439.70	4819.16
439.89	4975.98
440.08	4966.62
440.26	5074.28
440.45	4865.97
440.63	5001.72
440.82	5249.82
441.01	5090.67
441.19	5203.01
441.38	5214.71
441.57	5277.91
441.75	5238.12
441.94	5177.26
442.12	5401.96
442.31	5362.17
442.50	5425.36
442.68	5329.40
442.87	5434.72
443.05	5383.23
443.24	5521.32
443.43	5516.64
443.61	5598.56
443.80	5853.68
443.98	5488.56
444.17	5167.90
444.35	5643.03
444.54	5717.93
444.73	5533.03
444.91	5650.05
445.10	5593.88
445.28	5603.24
445.47	5647.71
445.65	5844.32
445.84	5713.25
446.02	5727.29
446.21	5694.52
446.39	5668.78
446.58	5654.73
446.77	5760.06
446.95	5437.06
447.14	5731.97
447.32	5825.59
447.51	5619.63
447.69	5865.38
447.88	5769.42
448.06	5841.98
448.25	5841.98
448.43	5788.14
448.62	5832.62
448.80	5717.93
448.99	5781.12
449.17	5973.05
449.36	5788.14
449.54	6073.69
449.73	6033.90
449.91	6010.50
450.10	5996.45
450.28	6118.16
450.46	6155.61
450.65	6118.16
450.83	6157.95
451.02	6118.16
451.20	6291.36
451.39	6115.82
451.57	6155.61
451.76	6200.08
451.94	6319.45
452.13	6319.45
452.31	6345.19
452.49	6150.93
452.68	6455.20
452.86	6328.81
453.05	6408.39
453.23	6396.68
453.42	6410.73
453.60	6225.82
453.78	6420.09
453.97	6363.92
454.15	6361.58
454.34	6347.53
454.52	6476.26
454.70	6562.86
454.89	6363.92
455.07	6565.20
455.26	6593.29
455.44	6614.35
455.62	6527.75
455.81	6502.01
455.99	6759.47
456.17	6754.79
456.36	6775.85
456.54	6803.94
456.73	6946.71
456.91	7131.61
457.09	6904.58
457.28	7192.47
457.46	6946.71
457.64	7225.23
457.83	7012.24
458.01	7049.69
458.19	7173.74
458.38	7073.10
458.56	7213.53
458.74	7152.68
458.93	7260.34
459.11	7110.55
459.29	7180.76
459.48	7330.56
459.66	7206.51
459.84	7400.77
460.03	7536.52
460.21	7407.80
460.39	7372.69
460.57	7346.94
460.76	7515.46
460.94	7545.89
461.12	7482.69
461.31	7494.40
461.49	7433.54
461.67	7667.60
461.85	7822.07
462.04	7527.16
462.22	8177.83
462.40	7852.50
462.59	7751.85
462.77	7812.71
462.95	7803.35
463.13	7838.45
463.32	7726.11
463.50	7953.14
463.68	7831.43
463.86	7768.24
464.05	7796.32
464.23	7939.10
464.41	7962.50
464.59	7674.62
464.78	8159.11
464.96	7939.10
465.14	7885.26
465.32	8131.02
465.50	8013.99
465.69	8070.17
465.87	8229.32
466.05	8180.17
466.23	8002.29
466.41	8093.57
466.60	8182.51
466.78	8166.13
466.96	8149.75
467.14	8051.44
467.32	8334.65
467.51	8582.74
467.69	8079.53
467.87	8325.29
468.05	8461.04
468.23	8250.39
468.41	8369.76
468.60	8484.44
468.78	8695.09
468.96	8608.49
469.14	8585.08
469.32	8671.68
469.50	8393.16
469.69	8638.92
469.87	8718.50
470.05	8638.92
470.23	8947.87
470.41	8851.91
470.59	8786.37
470.77	8603.81
470.95	8807.44
471.14	8992.34
471.32	8610.83
471.50	9043.83
471.68	8990.00
471.86	8964.25
472.04	9144.47
472.22	9383.21
472.40	9067.24
472.58	9317.67
472.77	9282.56
472.95	9362.14
473.13	9638.33
473.31	9401.93
473.49	9373.85
473.67	9343.42
473.85	9474.49
474.03	9696.84
474.21	9745.99
474.39	9872.38
474.57	9535.34
474.75	9825.57
474.93	9958.98
475.12	9970.68
475.30	9710.88
475.48	10101.75
475.66	10040.90
475.84	10061.96
476.02	9891.10
476.20	10164.95
476.38	10494.96
476.56	10611.99
476.74	10483.26
476.92	10619.01
477.10	10317.08
477.28	10789.87
477.46	10839.02
477.64	10841.36
477.82	10785.19
478.00	11248.61
478.18	11239.25
478.36	11192.44
478.54	11218.19
478.72	11379.68
478.90	11527.14
479.08	11564.59
479.26	11611.40
479.44	11562.25
479.62	11845.45
479.80	12116.95
479.98	11833.75
480.16	12294.83
480.34	11978.86
480.52	12079.50
480.70	12280.79
480.88	12245.68
481.06	12397.82
481.24	12498.46
481.41	12535.91
481.59	12627.19
481.77	12779.32
481.95	13029.76
482.13	13280.20
482.31	13123.38
482.49	13502.55
482.67	13289.56
482.85	13404.25
483.03	13343.39
483.21	13696.82
483.39	13877.04
483.57	13848.95
483.74	13942.57
483.92	14068.96
484.10	13848.95
484.28	14176.62
484.46	14761.76
484.64	14998.15
484.82	14331.10
485.00	14595.58
485.18	14878.79
485.35	14995.81
485.53	14941.98
485.71	15110.50
485.89	15332.85
486.07	15386.68
486.25	15342.21
486.43	15438.17
486.61	15925.00
486.78	15812.66
486.96	15887.56
487.14	16100.55
487.32	16128.63
487.50	16269.06
487.68	16315.87
487.85	16439.92
488.03	16711.42
488.21	16854.20
488.39	16926.75
488.57	17144.42
488.75	17170.17
488.92	17394.86
489.10	17542.32
489.28	17401.88
489.46	17914.46
489.64	17703.81
489.81	18057.23
489.99	18015.10
490.17	17963.61
490.35	18288.95
490.53	18527.68
490.70	18855.36
490.88	18663.43
491.06	18937.27
491.24	18927.91
491.41	18979.40
491.59	19442.83
491.77	19014.51
491.95	19398.36
492.13	19697.95
492.30	19758.80
492.48	19700.29
492.66	19702.63
492.84	20184.78
493.01	19946.05
493.19	20119.24
493.37	20283.08
493.54	20137.97
493.72	20662.25
493.90	20524.16
494.08	21034.39
494.25	20893.96
494.43	21125.68
494.61	21179.51
494.79	21507.18
494.96	21563.36
495.14	21752.94
495.32	21724.85
495.49	21708.47
495.67	21951.88
495.85	21947.20
496.02	21998.70
496.20	22483.19
496.38	22314.67
496.55	22274.88
496.73	22960.66
496.91	22434.03
497.09	22848.31
497.26	22822.56
497.44	23007.47
497.62	22892.78
497.79	23349.18
497.97	23360.89
498.14	23777.50
498.32	23667.50
498.50	23826.65
498.67	24121.56
498.85	23812.61
499.03	24231.57
499.20	24343.91
499.38	24133.26
499.56	24086.45
499.73	24215.18
499.91	24982.88
500.08	24769.89
500.26	24409.45
500.44	24769.89
500.61	24828.40
500.79	24760.53
500.97	25209.91
501.14	25638.23
501.32	25001.60
501.49	25432.26
501.67	25308.21
501.84	25551.63
502.02	25565.67
502.20	25596.10
502.37	25589.08
502.55	25804.41
502.72	26155.49
502.90	26092.29
503.07	25797.38
503.25	25905.05
503.43	26316.98
503.60	26401.24
503.78	26300.60
503.95	26581.46
504.13	26675.09
504.30	26628.27
504.48	26855.31
504.65	26417.63
504.83	26789.77
505.01	27047.23
505.18	27253.20
505.36	27751.73
505.53	27147.87
505.71	27199.37
505.88	27580.87
506.06	27152.55
506.23	27632.36
506.41	27557.47
506.58	27716.62
506.76	27793.86
506.93	28238.56
507.11	27843.01
507.28	28156.64
507.46	28140.26
507.63	28018.55
507.81	28496.02
507.98	28002.17
508.16	28350.91
508.33	28463.25
508.50	28678.58
508.68	28718.37
508.85	28910.30
509.03	28964.13
509.20	28781.57
509.38	29085.84
509.55	29160.73
509.73	29336.27
509.90	29383.09
510.08	29696.72
510.25	29418.19
510.42	29687.36
510.60	29539.90
510.77	29961.20
510.95	30361.43
511.12	30150.78
511.30	29993.97
511.47	29963.54
511.64	30265.47
511.82	30466.75
511.99	30532.29
512.17	30637.61
512.34	30487.82
512.51	30911.46
512.69	31260.20
512.86	30925.50
513.04	31283.60
513.21	30934.86
513.38	30906.77
513.56	31559.78
513.73	31002.74
513.90	31395.95
514.08	31040.18
514.25	31491.91
514.43	31777.45
514.60	31419.35
514.77	31512.97
514.95	31882.78
515.12	31498.93
515.29	31929.59
515.47	32421.10
515.64	32025.55
515.81	31803.20
515.99	31990.44
516.16	32299.39
516.33	32376.63
516.51	32704.31
516.68	32196.41
516.85	32716.01
517.03	32617.71
517.20	32786.22
517.37	32505.36
517.54	32437.48
517.72	32769.84
517.89	33202.84
518.06	33076.45
518.24	33198.16
518.41	33352.63
518.58	33125.60
518.75	32861.12
518.93	33329.23
519.10	33488.38
519.27	33443.91
519.45	33528.17
519.62	33797.34
519.79	33628.82
519.96	33776.27
520.14	33464.98
520.31	33638.18
520.48	34022.03
520.65	34239.70
520.83	34216.29
521.00	34480.77
521.17	33897.98
521.34	34174.16
521.52	34618.86
521.69	34691.42
521.86	34780.36
522.03	34572.05
522.20	34960.58
522.38	35061.22
522.55	34616.52
522.72	35342.09
522.89	35220.38
523.07	35342.09
523.24	35363.15
523.41	35421.67
523.58	35353.79
523.75	35601.89
523.92	35372.52
524.10	35161.87
524.27	35974.03
524.44	36079.36
524.61	35967.01
524.78	35494.22
524.96	36161.28
525.13	36203.41
525.30	36135.53
525.47	36177.66
525.64	36198.73
525.81	36247.88
525.98	35997.44
526.16	36374.27
526.33	36105.10
526.50	36648.11
526.67	36137.87
526.84	36528.74
527.01	36701.94
527.18	36638.75
527.36	37163.03
527.53	36851.73
527.70	37720.07
527.87	37111.53
528.04	37184.09
528.21	37244.94
528.38	37081.11
528.55	37464.96
528.72	37399.42
528.89	36987.49
529.07	37216.86
529.24	37141.96
529.41	37134.94
529.58	37539.85
529.75	37207.50
529.92	37675.60
530.09	37720.07
530.26	37855.82
530.43	37809.01
530.60	37539.85
530.77	37497.72
530.94	37542.19
531.11	37670.92
531.28	37844.12
531.46	37642.84
531.63	38087.54
531.80	38132.01
531.97	38595.43
532.14	37900.29
532.31	37982.21
532.48	38635.22
532.65	38611.82
532.82	38635.22
532.99	38532.24
533.16	38213.93
533.33	39014.39
533.50	38953.54
533.67	38796.72
533.84	38710.12
534.01	38752.25
534.18	38986.30
534.35	39225.04
534.52	39140.78
534.69	39725.91
534.86	39533.99
535.03	39316.32
535.20	39302.28
535.37	39349.09
535.54	39489.52
535.71	39227.38
535.88	39688.46
536.05	40072.31
536.22	39459.09
536.38	39372.49
536.55	39629.95
536.72	39573.78
536.89	39496.54
537.06	39805.49
537.23	40240.83
537.40	40006.78
537.57	40114.44
537.74	39882.73
537.91	40418.71
538.08	40055.93
538.25	39903.79
538.42	40318.07
538.59	40194.02
538.75	40182.32
538.92	40559.14
539.09	41137.26
539.26	40718.30
539.43	41010.87
539.60	40823.62
539.77	40631.70
539.94	41029.59
540.11	41326.84
540.28	40912.56
540.44	40856.39
540.61	40889.16
540.78	40509.99
540.95	40786.18
541.12	40872.78
541.29	40603.61
541.46	41315.14
541.62	40954.69
541.79	41296.41
541.96	41076.40
542.13	40856.39
542.30	41184.07
542.47	41387.69
542.63	41284.71
542.80	41642.81
542.97	41621.75
543.14	41862.82
543.31	41764.52
543.48	42328.59
543.64	42410.51
543.81	41928.36
543.98	42337.95
544.15	41731.75
544.32	41647.49
544.48	42644.56
544.65	42108.58
544.82	42213.90
544.99	42045.38
545.16	42775.63
545.32	42256.03
545.49	42649.24
545.66	42689.03
545.83	41940.06
546.00	42728.82
546.16	42993.30
546.33	42740.52
546.50	41907.29
546.67	42663.28
546.83	42143.69
547.00	42237.31
547.17	42955.85
547.34	42642.22
547.50	42955.85
547.67	43171.18
547.84	43107.99
548.00	43166.50
548.17	43611.20
548.34	43103.31
548.51	42974.58
548.67	43449.70
548.84	43412.26
549.01	43019.05
549.18	43360.76
549.34	43384.17
549.51	43697.80
549.68	43777.38
549.84	43723.55
550.01	43721.21
550.18	43196.93
550.34	43398.21
550.51	43866.32
550.68	43828.87
550.84	43646.31
551.01	44144.84
551.18	43646.31
551.34	43239.06
551.51	43899.09
551.68	43735.25
551.84	43988.03
552.01	44154.21
552.18	43856.96
552.34	43810.15
552.51	43920.15
552.68	43721.21
552.84	43847.60
553.01	43777.38
553.18	44098.03
553.34	44495.92
553.51	43695.46
553.67	44184.63
553.84	44229.10
554.01	44371.88
554.17	44292.30
554.34	44584.86
554.51	44336.77
554.67	44605.93
554.84	44704.23
555.00	44488.90
555.17	44985.10
555.33	44521.67
555.50	44545.08
555.67	44612.95
555.83	44353.15
556.00	44835.30
556.16	45202.77
556.33	44933.60
556.50	44783.81
556.66	44247.83
556.83	44435.07
556.99	45226.17
557.16	45434.48
557.32	45390.01
557.49	44870.41
557.65	45010.84
557.82	45469.59
557.98	44727.64
558.15	45247.24
558.32	45069.36
558.48	44978.07
558.65	45303.41
558.81	45553.85
558.98	45088.08
559.14	45034.25
559.31	45057.65
559.47	45130.21
559.64	45256.60
559.80	45308.09
559.97	45689.60
560.13	45134.89
560.30	45254.26
560.46	45713.00
560.63	45504.70
560.79	45736.41
560.96	45668.53
561.12	45860.46
561.29	45705.98
561.45	45984.51
561.61	45766.84
561.78	45572.57
561.94	45734.07
562.11	45640.45
562.27	45595.98
562.44	45516.40
562.60	45794.92
562.77	45839.39
562.93	45820.67
563.10	45581.93
563.26	45968.12
563.42	46291.12
563.59	46010.25
563.75	45933.01
563.92	46096.85
564.08	45790.24
564.24	46176.43
564.41	46031.32
564.57	45911.95
564.74	46106.21
564.90	45858.12
565.07	46127.28
565.23	46251.33
565.39	46164.73
565.56	46167.07
565.72	46298.14
565.88	46101.53
566.05	46239.62
566.21	46457.29
566.38	45944.72
566.54	46583.68
566.70	46494.74
566.87	46101.53
567.03	46213.88
567.19	46571.98
567.36	46167.07
567.52	46473.68
567.68	46611.77
567.85	46344.95
568.01	46581.34
568.17	46504.10
568.34	46553.26
568.50	46567.30
568.66	46522.83
568.83	46590.70
568.99	46307.50
569.15	46518.15
569.32	46782.63
569.48	46618.79
569.64	47175.84
569.81	46403.46
569.97	46581.34
570.13	46705.39
570.30	46471.34
570.46	46794.33
570.62	46831.78
570.78	46859.87
570.95	46674.96
571.11	47224.99
571.27	46986.25
571.43	46960.51
571.60	46471.34
571.76	46586.02
571.92	46948.81
572.09	46541.55
572.25	46401.12
572.41	46604.75
572.57	47047.11
572.74	47157.11
572.90	46955.83
573.06	46782.63
573.22	46827.10
573.38	47061.15
573.55	47021.36
573.71	47370.10
573.87	47180.52
574.03	46756.88
574.20	46958.17
574.36	47185.20
574.52	47342.02
574.68	47021.36
574.84	47297.55
575.01	47442.66
575.17	47168.82
575.33	47070.51
575.49	46803.69
575.65	47089.24
575.82	47267.12
575.98	46845.82
576.14	47496.49
576.30	47426.28
576.46	47019.02
576.62	46939.44
576.79	47236.69
576.95	46677.30
577.11	47037.75
577.27	46967.53
577.43	47070.51
577.59	47264.78
577.75	47012.00
577.92	46590.70
578.08	46993.28
578.24	47187.54
578.40	47084.56
578.56	47103.28
578.72	47105.62
578.88	47192.22
579.04	46944.12
579.21	47157.11
579.37	47210.95
579.53	47320.95
579.69	46965.19
579.85	46972.21
580.01	47274.14
580.17	46925.40
580.33	47480.11
580.49	47201.58
580.65	47068.17
580.82	47419.25
580.98	47246.05
581.14	46972.21
581.30	47419.25
581.46	47229.67
581.62	47012.00
581.78	47047.11
581.94	47494.15
582.10	47426.28
582.26	47246.05
582.42	46923.06
582.58	47077.54
582.74	47456.70
582.90	47365.42
583.06	47423.93
583.22	47086.90
583.38	47587.77
583.54	47255.42
583.70	47583.09
583.86	47304.57
584.02	47002.64
584.18	47583.09
584.34	47676.71
584.50	47714.16
584.66	47835.87
584.82	47641.60
584.98	47845.23
585.14	47496.49
585.30	47023.70
585.46	47253.08
585.62	47187.54
585.78	47419.25
585.94	47065.83
586.10	47278.82
586.26	47363.08
586.42	47550.32
586.58	47531.60
586.74	47199.24
586.90	47585.43
587.06	47365.42
587.22	47758.63
587.38	47349.04
587.54	47461.38
587.70	47693.10
587.86	47412.23
588.02	47313.93
588.18	47665.01
588.34	47435.64
588.49	47508.19
588.65	47824.17
588.81	47590.11
588.97	47409.89
589.13	47313.93
589.29	47299.89
589.45	47800.76
589.61	47618.20
589.77	47758.63
589.93	47452.02
590.08	47903.74
590.24	47810.12
590.40	48200.99
590.56	48243.12
590.72	47899.06
590.88	47557.35
591.04	47833.53
591.20	47765.65
591.35	47901.40
591.51	48348.45
591.67	48126.10
591.83	47936.51
591.99	47999.71
592.15	47690.76
592.31	47955.24
592.46	47845.23
592.62	47604.16
592.78	47924.81
592.94	48362.49
593.10	48191.63
593.26	48423.34
593.41	47988.00
593.57	47978.64
593.73	48369.51
593.89	48023.11
594.05	47906.08
594.20	48027.79
594.36	48528.67
594.52	48018.43
594.68	48229.08
594.84	48128.44
594.99	48378.87
595.15	47870.98
595.31	48081.63
595.47	48200.99
595.62	48128.44
595.78	47924.81
595.94	48051.20
596.10	47824.17
596.25	48280.57
596.41	48250.14
596.57	48360.15
596.73	48013.75
596.88	48191.63
597.04	48266.53
597.20	48598.88
597.36	48051.20
597.51	48350.79
597.67	47751.61
597.83	47749.27
597.99	47962.26
598.14	48203.33
598.30	48161.20
598.46	47922.47
598.61	48467.81
598.77	47988.00
598.93	48308.66
599.09	48383.55
599.24	48664.42
599.40	48341.42
599.56	48446.75
599.71	48509.94
599.87	48636.33
600.03	48573.14
600.18	48067.58
600.34	48687.82
600.50	48589.52
600.65	48385.89
600.81	48285.25
600.97	48158.86
601.12	48306.32
601.28	48278.23
601.44	48285.25
601.59	48198.65
601.75	48109.71
601.91	48556.75
602.06	48556.75
602.22	48278.23
602.37	48540.37
602.53	48435.05
602.69	48708.89
602.84	48413.98
603.00	48334.40
603.16	48399.94
603.31	48402.28
603.47	48470.15
603.62	48208.01
603.78	48566.12
603.94	48641.01
604.09	48376.53
604.25	48381.21
604.40	48240.78
604.56	48421.00
604.71	48491.22
604.87	48130.78
605.03	48198.65
605.18	48151.84
605.34	48289.93
605.49	48226.74
605.65	48102.69
605.80	48158.86
605.96	48411.64
606.12	48545.05
606.27	48442.07
606.43	47938.85
606.58	48346.11
606.74	48348.45
606.89	48266.53
607.05	48156.52
607.20	48308.66
607.36	48179.93
607.51	48137.80
607.67	48020.77
607.82	47868.64
607.98	48371.85
608.13	47810.12
608.29	47798.42
608.44	48247.80
608.60	47847.57
608.75	48360.15
608.91	47945.87
609.06	47976.30
609.22	48329.72
609.37	48161.20
609.53	48343.77
609.68	48409.30
609.84	48250.14
609.99	48233.76
610.15	47983.32
610.30	48568.46
610.46	48184.61
610.61	48116.73
610.76	48039.50
610.92	47604.16
611.07	47957.58
611.23	47941.19
611.38	47805.44
611.54	48002.05
611.69	48296.95
611.84	48081.63
612.00	47941.19
612.15	47491.81
612.31	47723.52
612.46	47838.21
612.62	47562.03
612.77	47978.64
612.92	47995.03
613.08	47742.25
613.23	47920.13
613.39	47676.71
613.54	47655.65
613.69	48086.31
613.85	47758.63
614.00	47714.16
614.15	48163.54
614.31	47643.94
614.46	47796.08
614.62	47243.71
614.77	47306.91
614.92	47838.21
615.08	47412.23
615.23	47562.03
615.38	47442.66
615.54	47629.90
615.69	47702.46
615.84	47250.74
616.00	47550.32
616.15	47782.04
616.30	47693.10
616.46	47540.96
616.61	47599.47
616.76	47615.86
616.92	47229.67
617.07	47358.40
617.22	47468.40
617.37	47253.08
617.53	47700.12
617.68	47449.68
617.83	47267.12
617.99	47611.18
618.14	47606.50
618.29	47154.77
618.45	46937.10
618.60	46644.54
618.75	47157.11
618.90	47110.30
619.06	47122.01
619.21	46993.28
619.36	47901.40
619.51	46925.40
619.67	47035.41
619.82	46993.28
619.97	47737.57
620.12	46988.60
620.28	47023.70
620.43	47290.52
620.58	47203.92
620.73	47213.29
620.89	47180.52
621.04	47133.71
621.19	47224.99
621.34	46597.73
621.49	46869.23
621.65	46880.93
621.80	47194.56
621.95	46651.56
622.10	46569.64
622.25	47002.64
622.41	46681.98
622.56	46522.83
622.71	46791.99
622.86	46855.18
623.01	46960.51
623.16	46354.31
623.32	46789.65
623.47	46717.09
623.62	46452.61
623.77	46525.17
623.92	46988.60
624.07	46686.67
624.23	46492.40
624.38	46590.70
624.53	46628.15
624.68	46309.84
624.83	46279.41
624.98	46525.17
625.13	46279.41
625.29	45970.46
625.44	46569.64
625.59	46396.44
625.74	45949.40
625.89	45869.82
626.04	46237.28
626.19	46206.86
626.34	46234.94
626.49	45853.44
626.65	46094.51
626.80	46075.79
626.95	46248.99
627.10	46014.93
627.25	46131.96
627.40	46059.40
627.55	46382.40
627.70	45846.41
627.85	46106.21
628.00	46237.28
628.15	45773.86
628.30	45574.91
628.45	45567.89
628.60	44992.12
628.76	45462.57
628.91	45827.69
629.06	45254.26
629.21	45485.97
629.36	45434.48
629.51	45179.36
629.66	45663.85
629.81	45839.39
629.96	45649.81
630.11	45310.43
630.26	45385.33
630.41	45359.58
630.56	45338.52
630.71	45511.72
630.86	45928.33
631.01	44676.15
631.16	45139.57
631.31	45062.33
631.46	45268.30
631.61	45593.64
631.76	45446.18
631.91	45942.38
632.06	45769.18
632.21	45572.57
632.36	45645.13
632.51	44751.04
632.66	45338.52
632.81	44952.33
632.96	45488.31
633.10	44779.13
633.25	45055.31
633.40	44839.98
633.55	45109.14
633.70	44966.37
633.85	45155.96
634.00	44854.03
634.15	44718.28
634.30	44238.47
634.45	44516.99
634.60	45074.04
634.75	45125.53
634.90	44594.23
635.05	45109.14
635.19	44774.45
635.34	44928.92
635.49	44959.35
635.64	44800.19
635.79	44980.42
635.94	44456.14
636.09	45137.23
636.24	44474.86
636.39	44554.44
636.53	44968.71
636.68	44722.96
636.83	44371.88
636.98	44381.24
637.13	44107.40
637.28	44034.84
637.43	44500.61
637.57	44744.02
637.72	44065.27
637.87	43981.01
638.02	44301.66
638.17	44039.52
638.32	44383.58
638.46	43945.90
638.61	43718.87
638.76	43910.79
638.91	44245.49
639.06	44025.48
639.20	43697.80
639.35	44245.49
639.50	43868.66
639.65	44121.44
639.80	44315.70
639.94	44189.31
640.09	44053.56
640.24	43922.49
640.39	43026.07
640.54	43323.32
640.68	43613.54
640.83	44091.01
640.98	43821.85
641.13	43625.25
641.27	44137.82
641.42	43791.42
641.57	43826.53
641.72	43522.26
641.86	43697.80
642.01	43583.12
642.16	43393.53
642.31	43040.11
642.45	43997.39
642.60	43105.65
642.75	43716.53
642.90	43122.03
643.04	43285.87
643.19	43400.55
643.34	43248.42
643.48	43180.54
643.63	43075.22
643.78	43269.48
643.93	43299.91
644.07	43407.58
644.22	43325.66
644.37	42920.74
644.51	43346.72
644.66	43718.87
644.81	43332.68
644.95	43187.56
645.10	43543.33
645.25	43306.93
645.39	42873.93
645.54	43330.34
645.69	42485.40
645.83	42567.32
645.98	42539.24
646.13	42794.36
646.27	42817.76
646.42	42700.73
646.57	43129.05
646.71	43210.97
646.86	43140.75
647.00	43288.21
647.15	42742.86
647.30	42887.98
647.44	42866.91
647.59	43009.68
647.74	42663.28
647.88	42518.17
648.03	42969.90
648.17	42518.17
648.32	42962.87
648.47	42993.30
648.61	42368.38
648.76	42155.39
648.90	42375.40
649.05	42443.27
649.20	42438.59
649.34	42579.03
649.49	42260.71
649.63	42335.61
649.78	42454.98
649.92	42899.68
650.07	42646.90
650.21	42499.45
650.36	42445.62
650.51	42291.14
650.65	42752.23
650.80	42391.78
650.94	42337.95
651.09	42204.54
651.23	42227.95
651.38	42209.22
651.52	41441.53
651.67	42241.99
651.81	42480.72
651.96	42026.66
652.10	41851.12
652.25	41720.05
652.39	42190.50
652.54	41830.05
652.68	41801.97
652.83	42059.43
652.97	42160.07
653.12	41963.46
653.26	41558.55
653.41	41706.01
653.55	41787.92
653.70	41867.50
653.84	42045.38
653.99	41691.96
654.13	41823.03
654.27	41420.46
654.42	41724.73
654.56	41385.35
654.71	41956.44
654.85	41659.20
655.00	41549.19
655.14	41619.41
655.29	42007.94
655.43	41762.18
655.57	41633.45
655.72	41067.04
655.86	41542.17
656.01	40788.52
656.15	41289.39
656.30	40849.37
656.44	41247.26
656.58	41392.37
656.73	41347.90
656.87	41102.15
657.01	40877.46
657.16	41483.66
657.30	41177.04
657.45	41127.89
657.59	40678.51
657.73	40425.73
657.88	41050.66
658.02	41109.17
658.16	41490.68
658.31	40905.54
658.45	40631.70
658.60	40360.20
658.74	40748.73
658.88	40912.56
659.03	40559.14
659.17	40385.94
659.31	40163.59
659.46	40474.88
659.60	40493.61
659.74	40322.75
659.89	40107.42
660.03	39941.24
660.17	40566.16
660.32	40128.48
660.46	39964.65
660.60	39992.73
660.74	40203.38
660.89	40423.39
661.03	39601.86
661.17	39555.05
661.32	39541.01
661.46	40322.75
661.60	39386.54
661.74	39585.48
661.89	39601.86
662.03	39927.20
662.17	39817.19
662.31	39466.11
662.46	39730.59
662.60	39618.25
662.74	39323.34
662.88	38937.15
663.03	39063.54
663.17	39262.49
663.31	38719.48
663.45	39611.23
663.60	39730.59
663.74	38967.58
663.88	38876.30
664.02	38878.64
664.17	39576.12
664.31	39026.09
664.45	38618.84
664.59	38628.20
664.73	38686.71
664.88	38036.05
665.02	38410.53
665.16	38436.28
665.30	38134.35
665.44	38291.16
665.59	38347.34
665.73	37883.91
665.87	37799.65
666.01	38562.67
666.15	37736.46
666.29	38333.29
666.44	38082.86
666.58	37979.87
666.72	37876.89
666.86	37844.12
667.00	37509.43
667.14	37612.41
667.28	37467.30
667.43	37443.89
667.57	37471.98
667.71	37654.54
667.85	37942.42
667.99	37298.78
668.13	37359.63
668.27	37125.58
668.41	37214.52
668.56	36945.36
668.70	36886.84
668.84	36392.99
668.98	36903.23
669.12	36814.29
669.26	37158.34
669.40	36875.14
669.54	36615.34
669.68	37020.25
669.82	36638.75
669.96	36421.08
670.10	35943.61
670.25	36304.05
670.39	36355.54
670.53	36568.53
670.67	36198.73
670.81	36594.28
670.95	36072.34
671.09	35864.03
671.23	35777.43
671.37	36048.93
671.51	36030.21
671.65	35620.61
671.79	35803.17
671.93	35735.30
672.07	36217.45
672.21	35571.46
672.35	35969.35
672.49	35325.71
672.63	35723.60
672.77	35349.11
672.91	35168.89
673.05	35019.10
673.19	34918.45
673.33	34300.55
673.47	34951.22
673.61	34838.87
673.75	34527.58
673.89	34490.13
674.03	34380.13
674.17	34258.42
674.31	34157.78
674.45	34218.63
674.59	34148.42
674.73	34015.01
674.87	34022.03
675.01	34038.41
675.15	33474.34
675.29	33539.88
675.43	33825.42
675.56	33912.02
675.70	33525.83
675.84	33366.68
675.98	32479.61
676.12	33310.50
676.26	33504.77
676.40	33207.52
676.54	32720.69
676.68	32416.42
676.82	32418.76
676.96	33149.01
677.10	32554.51
677.23	32662.18
677.37	32561.53
677.51	32496.00
677.65	32072.36
677.79	32222.16
677.93	31924.91
678.07	31854.69
678.21	31864.05
678.34	31646.38
678.48	31693.19
678.62	31297.64
678.76	31222.75
678.90	31250.83
679.04	31475.52
679.18	31838.31
679.31	31016.78
679.45	30785.07
679.59	30834.22
679.73	31101.04
679.87	30352.07
680.00	30501.86
680.14	30682.08
680.28	30731.23
680.42	30590.80
680.56	30333.34
680.70	29996.31
680.83	29724.80
680.97	29790.34
681.11	29895.66
681.25	29355.00
681.39	29731.83
681.52	29563.31
681.66	29078.82
681.80	29247.33
681.94	29125.63
682.07	28975.83
682.21	28650.50
682.35	28807.31
682.49	28627.09
682.62	28947.75
682.76	28755.82
682.90	28732.42
683.04	28503.04
683.17	28311.12
683.31	28374.31
683.45	28182.39
683.59	27969.40
683.72	27941.32
683.86	27906.21
684.00	27573.85
684.13	27426.40
684.27	27122.13
684.41	27468.53
684.55	27665.13
684.68	27300.01
684.82	27084.68
684.96	27267.24
685.09	27194.68
685.23	27171.28
685.37	27562.15
685.50	27204.05
685.64	26551.04
685.78	26859.99
685.91	26558.06
686.05	26118.04
686.19	25979.95
686.32	25912.07
686.46	25841.85
686.60	25469.71
686.73	25879.30
686.87	25432.26
687.01	25813.77
687.14	25497.80
687.28	25757.60
687.42	25607.80
687.55	25500.14
687.69	24985.22
687.82	24940.75
687.96	24999.26
688.10	24938.41
688.23	24833.08
688.37	24957.13
688.50	24849.47
688.64	24652.86
688.78	24706.70
688.91	24261.99
689.05	24313.48
689.18	24142.63
689.32	23529.41
689.46	23805.59
689.59	23686.22
689.73	24332.21
689.86	24147.31
690.00	23733.03
690.13	23915.59
690.27	23510.68
690.41	23690.90
690.54	23082.36
690.68	23407.70
690.81	23138.54
690.95	22750.01
691.08	22647.02
691.22	22696.17
691.35	22974.70
691.49	22888.10
691.62	22827.24
691.76	22361.48
691.89	22197.64
692.03	21832.52
692.16	21998.70
692.30	22101.68
692.43	22008.06
692.57	21680.38
692.70	21469.73
692.84	21582.08
692.97	21245.04
693.11	21469.73
693.24	20945.45
693.38	21282.49
693.51	21160.78
693.65	21128.02
693.78	20769.91
693.92	20863.54
694.05	20807.36
694.19	21041.42
694.32	20599.05
694.45	20517.14
694.59	20758.21
694.72	20713.74
694.86	20322.87
694.99	20032.65
695.13	19927.32
695.26	19981.15
695.39	19648.80
695.53	19807.95
695.66	19693.27
695.80	19658.16
695.93	19620.71
696.07	19431.13
696.20	19173.67
696.33	19098.77
696.47	18998.13
696.60	18995.79
696.73	19213.46
696.87	19229.84
697.00	19063.66
697.14	18834.29
697.27	18750.03
697.40	18569.81
697.54	18665.77
697.67	18221.07
697.80	18181.28
697.94	18162.56
698.07	18129.79
698.21	18246.82
698.34	17729.56
698.47	17872.33
698.61	17511.89
698.74	17675.73
698.87	17605.51
699.01	17720.20
699.14	17640.62
699.27	17659.34
699.40	17394.86
699.54	17371.46
699.67	17453.37
699.80	17102.29
699.94	16943.14
700.07	17121.02
700.20	16655.25
700.34	16748.87
700.47	16910.37
700.60	16807.39
700.73	16561.63
700.87	16496.10
701.00	16397.79
701.13	16166.08
701.26	16198.85
701.40	16439.92
701.53	16084.16
701.66	16215.23
701.79	15997.56
701.93	15562.22
702.06	15747.12
702.19	15646.48
702.32	15484.98
702.46	15620.74
702.59	15719.04
702.72	15831.38
702.85	15520.09
702.99	15459.24
703.12	15279.02
703.25	15049.64
703.38	15262.63
703.51	15218.16
703.65	14626.01
703.78	14789.85
703.91	14712.61
704.04	14841.34
704.17	14637.71
704.31	14719.63
704.44	14347.48
704.57	14597.92
704.70	14162.58
704.83	14384.93
704.96	14010.45
705.10	14267.91
705.23	13982.36
>>>>>End Processed Spectral Data<<<<<
