SpectraSuite Data File
++++++++++++++++++++++++++++++++++++
Date: Fri Oct 25 11:34:16 EDT 2013
User: price-jones
Dark Spectrum Present: No
Reference Spectrum Present: No
Number of Sampled Component Spectra: 1
Spectrometers: USB2+H05261
Integration Time (usec): 100000 (USB2+H05261)
Spectra Averaged: 1 (USB2+H05261)
Boxcar Smoothing: 0 (USB2+H05261)
Correct for Electrical Dark: No (USB2+H05261)
Strobe/Lamp Enabled: No (USB2+H05261)
Correct for Detector Non-linearity: No (USB2+H05261)
Correct for Stray Light: No (USB2+H05261)
Number of Pixels in Processed Spectrum: 2048
>>>>>Begin Processed Spectral Data<<<<<
365.73	299.59
365.92	299.59
366.12	299.59
366.32	180.22
366.52	182.56
366.72	168.52
366.91	194.26
367.11	124.05
367.31	187.24
367.51	224.69
367.70	166.18
367.90	215.33
368.10	177.88
368.30	140.43
368.49	128.73
368.69	145.11
368.89	238.73
369.09	234.05
369.28	175.54
369.48	191.92
369.68	156.82
369.87	266.82
370.07	266.82
370.27	299.59
370.47	313.63
370.66	428.32
370.86	559.39
371.06	543.00
371.25	517.26
371.45	543.00
371.65	571.09
371.84	561.73
372.04	507.90
372.24	514.92
372.44	582.79
372.63	538.32
372.83	655.35
373.03	606.20
373.22	657.69
373.42	601.52
373.62	657.69
373.81	585.13
374.01	655.35
374.21	713.86
374.40	615.56
374.60	613.22
374.79	674.07
374.99	667.05
375.19	624.92
375.38	638.97
375.58	613.22
375.78	716.20
375.97	662.37
376.17	720.88
376.37	697.48
376.56	690.46
376.76	669.39
376.95	660.03
377.15	648.33
377.35	725.57
377.54	683.44
377.74	695.14
377.93	683.44
378.13	784.08
378.33	662.37
378.52	711.52
378.72	702.16
378.91	688.12
379.11	660.03
379.31	674.07
379.50	730.25
379.70	725.57
379.89	711.52
380.09	716.20
380.28	702.16
380.48	650.67
380.68	690.46
380.87	730.25
381.07	753.65
381.26	809.83
381.46	760.67
381.65	814.51
381.85	709.18
382.04	746.63
382.24	732.59
382.43	657.69
382.63	723.23
382.83	854.30
383.02	830.89
383.22	828.55
383.41	821.53
383.61	894.08
383.80	837.91
384.00	788.76
384.19	809.83
384.39	823.87
384.58	706.84
384.78	809.83
384.97	837.91
385.17	847.27
385.36	835.57
385.56	873.02
385.75	816.85
385.95	770.04
386.14	858.98
386.34	835.57
386.53	882.38
386.72	828.55
386.92	880.04
387.11	835.57
387.31	739.61
387.50	866.00
387.70	807.48
387.89	894.08
388.09	844.93
388.28	908.13
388.48	784.08
388.67	952.60
388.86	931.53
389.06	847.27
389.25	919.83
389.45	833.23
389.64	910.47
389.84	952.60
390.03	964.30
390.22	926.85
390.42	887.06
390.61	903.45
390.81	980.68
391.00	910.47
391.19	947.92
391.39	917.49
391.58	954.94
391.78	1027.50
391.97	997.07
392.16	1034.52
392.36	1100.05
392.55	1011.11
392.75	966.64
392.94	1039.20
393.13	1043.88
393.33	983.02
393.52	1025.15
393.71	1095.37
393.91	1118.78
394.10	1041.54
394.29	1025.15
394.49	987.71
394.68	1130.48
394.88	1135.16
395.07	1210.06
395.26	1165.59
395.46	1088.35
395.65	1139.84
395.84	1165.59
396.04	1249.85
396.23	1235.80
396.42	1160.91
396.62	1228.78
396.81	1146.86
397.00	1160.91
397.19	1135.16
397.39	1210.06
397.58	1188.99
397.77	1151.54
397.97	1263.89
398.16	1256.87
398.35	1233.46
398.55	1261.55
398.74	1294.32
398.93	1334.11
399.12	1193.67
399.32	1324.74
399.51	1233.46
399.70	1401.98
399.90	1306.02
400.09	1418.36
400.28	1350.49
400.47	1331.76
400.67	1434.75
400.86	1352.83
401.05	1343.47
401.24	1420.71
401.44	1416.02
401.63	1462.83
401.82	1469.86
402.01	1392.62
402.21	1324.74
402.40	1343.47
402.59	1427.73
402.78	1504.96
402.97	1483.90
403.17	1334.11
403.36	1561.14
403.55	1544.75
403.74	1575.18
403.93	1582.20
404.13	1523.69
404.32	1643.06
404.51	1511.99
404.70	1645.40
404.89	1626.67
405.09	1668.80
405.28	1591.56
405.47	1593.90
405.66	1720.29
405.85	1647.74
406.05	1650.08
406.24	1722.63
406.43	1645.40
406.62	1811.57
406.81	1830.30
407.00	1797.53
407.20	1666.46
407.39	1678.16
407.58	1724.97
407.77	1837.32
407.96	1797.53
408.15	1832.64
408.34	1849.02
408.54	1804.55
408.73	1891.15
408.92	1881.79
409.11	1996.48
409.30	1874.77
409.49	1853.70
409.68	1944.99
409.87	1952.01
410.07	1973.07
410.26	1998.82
410.45	1933.28
410.64	2038.61
410.83	2052.65
411.02	2005.84
411.21	2139.25
411.40	2083.08
411.59	2186.06
411.78	2134.57
411.98	2094.78
412.17	2113.50
412.36	2218.83
412.55	2202.44
412.74	2310.11
412.93	2300.75
413.12	2251.60
413.31	2413.09
413.50	2436.50
413.69	2305.43
413.88	2289.04
414.07	2370.96
414.26	2324.15
414.45	2429.48
414.64	2466.92
414.83	2574.59
415.02	2565.23
415.22	2544.16
415.41	2576.93
415.60	2562.89
415.79	2572.25
415.98	2658.85
416.17	2651.83
416.36	2572.25
416.55	2619.06
416.74	2733.75
416.93	2820.35
417.12	2832.05
417.31	2726.72
417.50	2752.47
417.69	2878.86
417.88	2803.96
418.07	2820.35
418.26	2899.92
418.45	2878.86
418.64	2967.80
418.83	2916.31
419.02	3000.57
419.21	2995.89
419.39	2850.77
419.58	2946.73
419.77	2974.82
419.96	3035.67
420.15	3082.49
420.34	3056.74
420.53	3073.12
420.72	3155.04
420.91	3054.40
421.10	3159.72
421.29	3171.43
421.48	3150.36
421.67	3115.25
421.86	3234.62
422.05	3258.03
422.24	3162.06
422.43	3136.32
422.61	3220.58
422.80	3276.75
422.99	3204.19
423.18	3307.18
423.37	3386.76
423.56	3325.90
423.75	3183.13
423.94	3213.56
424.13	3061.42
424.32	3239.30
424.50	3295.47
424.69	3332.92
424.88	3424.20
425.07	3234.62
425.26	3295.47
425.45	3407.82
425.64	3332.92
425.83	3314.20
426.01	3344.63
426.20	3295.47
426.39	3300.16
426.58	3318.88
426.77	3335.26
426.96	3496.76
427.15	3503.78
427.33	3513.14
427.52	3375.05
427.71	3428.88
427.90	3627.83
428.09	3620.81
428.28	3672.30
428.46	3646.55
428.65	3578.68
428.84	3695.71
429.03	3510.80
429.22	3562.30
429.40	3634.85
429.59	3712.09
429.78	3456.97
429.97	3508.46
430.16	3688.68
430.34	3749.54
430.53	3637.19
430.72	3768.26
430.91	3805.71
431.10	3826.78
431.28	3747.20
431.47	3812.73
431.66	3932.10
431.85	3950.82
432.03	3885.29
432.22	4025.72
432.41	3868.91
432.60	3894.65
432.79	3988.27
432.97	3964.87
433.16	3999.98
433.35	4035.08
433.54	3962.53
433.72	4018.70
433.91	3990.61
434.10	4100.62
434.28	4131.05
434.47	4037.42
434.66	4173.18
434.85	4117.00
435.03	4091.26
435.22	4273.82
435.41	4381.48
435.59	4311.27
435.78	4308.93
435.97	4379.14
436.16	4273.82
436.34	4227.01
436.53	4304.25
436.72	4322.97
436.90	4262.12
437.09	4311.27
437.28	4245.73
437.46	4299.56
437.65	4440.00
437.84	4535.96
438.02	4404.89
438.21	4671.71
438.40	4395.53
438.58	4631.92
438.77	4664.69
438.96	4608.51
439.14	4737.24
439.33	4631.92
439.52	4580.43
439.70	4791.08
439.89	4741.93
440.08	4802.78
440.26	4851.93
440.45	4753.63
440.63	4924.49
440.82	4938.53
441.01	4940.87
441.19	5029.81
441.38	5046.20
441.57	5053.22
441.75	5128.11
441.94	5093.01
442.12	5289.61
442.31	5448.77
442.50	5247.48
442.68	5315.36
442.87	5247.48
443.05	5303.65
443.24	5352.81
443.43	5261.52
443.61	5343.44
443.80	5432.38
443.98	5210.03
444.17	4947.89
444.35	5493.24
444.54	5406.64
444.73	5451.11
444.91	5516.64
445.10	5394.93
445.28	5474.51
445.47	5528.35
445.65	5451.11
445.84	5418.34
446.02	5760.06
446.21	5476.85
446.39	5268.55
446.58	5467.49
446.77	5526.00
446.95	5444.09
447.14	5490.90
447.32	5406.64
447.51	5643.03
447.69	5605.58
447.88	5563.45
448.06	5734.31
448.25	5551.75
448.43	5727.29
448.62	5636.01
448.80	5568.13
448.99	5708.57
449.17	5710.91
449.36	5640.69
449.54	5748.36
449.73	5881.77
449.91	5959.00
450.10	5738.99
450.28	5753.04
450.46	5914.53
450.65	6033.90
450.83	5959.00
451.02	5823.25
451.20	6094.76
451.39	6033.90
451.57	5797.51
451.76	5947.30
451.94	5956.66
452.13	6083.05
452.31	6047.94
452.49	6171.99
452.68	6164.97
452.86	6132.20
453.05	6050.28
453.23	6160.29
453.42	6160.29
453.60	6101.78
453.78	6204.76
453.97	6132.20
454.15	6181.35
454.34	6235.19
454.52	6328.81
454.70	6317.11
454.89	6380.30
455.07	6424.77
455.26	6490.31
455.44	6370.94
455.62	6417.75
455.81	6466.90
455.99	6459.88
456.17	6530.09
456.36	6686.91
456.54	6583.93
456.73	6651.80
456.91	6825.00
457.09	6698.61
457.28	6860.11
457.46	6754.79
457.64	6918.62
457.83	6789.89
458.01	6771.17
458.19	6801.60
458.38	6841.39
458.56	6925.65
458.74	7021.61
458.93	7012.24
459.11	7054.37
459.29	7068.42
459.48	7129.27
459.66	7145.66
459.84	7213.53
460.03	7281.41
460.21	7112.89
460.39	6967.77
460.57	7351.62
460.76	7281.41
460.94	7258.00
461.12	7442.90
461.31	7236.94
461.49	7358.64
461.67	7119.91
461.85	7283.75
462.04	7337.58
462.22	7705.04
462.40	7555.25
462.59	7470.99
462.77	7480.35
462.95	7499.08
463.13	7667.60
463.32	7433.54
463.50	7510.78
463.68	7578.65
463.86	7735.47
464.05	7592.70
464.23	7763.56
464.41	7564.61
464.59	7520.14
464.78	7786.96
464.96	7772.92
465.14	7665.25
465.32	7836.11
465.50	7981.23
465.69	7815.05
465.87	7808.03
466.05	7779.94
466.23	7850.16
466.41	7852.50
466.60	8114.64
466.78	7801.01
466.96	7829.09
467.14	8102.93
467.32	8030.38
467.51	8168.47
467.69	7906.33
467.87	8030.38
468.05	8004.63
468.23	8070.17
468.41	7969.52
468.60	8226.98
468.78	8390.82
468.96	8056.12
469.14	8327.63
469.32	8444.65
469.50	8028.04
469.69	8369.76
469.87	8573.38
470.05	8580.40
470.23	8542.96
470.41	8486.78
470.59	8758.28
470.77	8402.52
470.95	8561.68
471.14	8872.97
471.32	8470.40
471.50	8805.10
471.68	8657.64
471.86	8858.93
472.04	8730.20
472.22	9111.71
472.40	8760.63
472.58	8908.08
472.77	9074.26
472.95	8966.59
473.13	9479.17
473.31	9053.19
473.49	9116.39
473.67	9123.41
473.85	9247.46
474.03	9268.52
474.21	9603.22
474.39	9518.96
474.57	9404.27
474.75	9547.05
474.93	9729.61
475.12	9612.58
475.30	9666.41
475.48	9671.09
475.66	9884.08
475.84	9769.40
476.02	9675.77
476.20	9989.41
476.38	10167.29
476.56	10291.34
476.74	10345.17
476.92	9879.40
477.10	10310.06
477.28	10291.34
477.46	10614.33
477.64	10600.29
477.82	10640.08
478.00	10883.49
478.18	10717.31
478.36	10787.53
478.54	10839.02
478.72	11073.07
478.90	11080.10
479.08	11307.13
479.26	11192.44
479.44	11293.08
479.62	11496.71
479.80	11428.84
479.98	11529.48
480.16	11817.36
480.34	11648.85
480.52	11761.19
480.70	11775.24
480.88	11634.80
481.06	11981.20
481.24	12201.21
481.41	12147.38
481.59	12138.02
481.77	12512.50
481.95	12386.12
482.13	12519.53
482.31	12561.66
482.49	12762.94
482.67	12908.05
482.85	12863.58
483.03	12987.63
483.21	13153.81
483.39	13123.38
483.57	13305.95
483.74	13621.92
483.92	13294.24
484.10	13432.33
484.28	13635.96
484.46	14136.84
484.64	14295.99
484.82	13930.87
485.00	14207.05
485.18	14398.98
485.35	14710.27
485.53	14551.11
485.71	14623.67
485.89	14764.10
486.07	14991.13
486.25	14862.40
486.43	14820.27
486.61	15232.21
486.78	15316.47
486.96	15105.82
487.14	15571.58
487.32	15433.49
487.50	15831.38
487.68	16009.26
487.85	15840.75
488.03	16091.18
488.21	16451.63
488.39	16194.17
488.57	16465.67
488.75	16713.77
488.92	16570.99
489.10	16823.77
489.28	16910.37
489.46	17193.58
489.64	17106.98
489.81	17518.91
489.99	17329.33
490.17	17671.04
490.35	18045.53
490.53	17736.58
490.70	17902.76
490.88	18115.75
491.06	18115.75
491.24	18092.34
491.41	18398.95
491.59	18464.49
491.77	18654.07
491.95	18677.48
492.13	19131.54
492.30	18768.76
492.48	19096.43
492.66	18953.66
492.84	19213.46
493.01	19690.93
493.19	19452.19
493.37	19482.62
493.54	19484.96
493.72	19616.03
493.90	19939.02
494.08	20177.76
494.25	20247.97
494.43	20311.17
494.61	20290.10
494.79	20547.56
494.96	20725.44
495.14	21060.14
495.32	21022.69
495.49	20547.56
495.67	21074.18
495.85	21394.84
496.02	21366.75
496.20	21558.67
496.38	21731.87
496.55	21785.71
496.73	21834.86
496.91	22059.55
497.09	22092.32
497.26	22333.39
497.44	22267.86
497.62	22324.03
497.79	22857.67
497.97	22522.98
498.14	22419.99
498.32	22661.07
498.50	22998.10
498.67	22904.48
498.85	23054.28
499.03	23084.70
499.20	23316.42
499.38	23508.34
499.56	23405.36
499.73	23330.46
499.91	23470.89
500.08	23789.20
500.26	23791.55
500.44	23784.52
500.61	24053.69
500.79	24009.22
500.97	24320.51
501.14	24386.04
501.32	24212.84
501.49	24680.95
501.67	24453.92
501.84	24980.54
502.02	24573.28
502.20	24812.02
502.37	24929.05
502.55	24706.70
502.72	24952.45
502.90	25020.33
503.07	24938.41
503.25	25228.63
503.43	25085.86
503.60	25516.52
503.78	25596.10
503.95	25319.92
504.13	25544.61
504.30	25781.00
504.48	25898.03
504.65	26274.85
504.83	26183.57
505.01	26223.36
505.18	26284.22
505.36	26560.40
505.53	26288.90
505.71	26424.65
505.88	26904.46
506.06	26204.64
506.23	26698.49
506.41	26181.23
506.58	26796.79
506.76	27042.55
506.93	27033.19
507.11	27267.24
507.28	27033.19
507.46	27215.75
507.63	27491.93
507.81	27681.52
507.98	27393.63
508.16	27770.46
508.33	27484.91
508.50	27772.80
508.68	27917.91
508.85	28311.12
509.03	27674.49
509.20	28383.68
509.38	28163.67
509.55	28156.64
509.73	28315.80
509.90	28428.15
510.08	28584.96
510.25	28442.19
510.42	28601.35
510.60	28636.45
510.77	28713.69
510.95	29221.59
511.12	28802.63
511.30	28811.99
511.47	29319.89
511.64	29326.91
511.82	29247.33
511.99	29266.06
512.17	29448.62
512.34	29319.89
512.51	29745.87
512.69	29591.39
512.86	29926.09
513.04	29940.13
513.21	30094.61
513.38	30267.81
513.56	30071.20
513.73	30085.25
513.90	30417.60
514.08	30382.49
514.25	30312.28
514.43	30459.73
514.60	30450.37
514.77	30342.70
514.95	30733.57
515.12	30948.90
515.29	30684.42
515.47	30913.80
515.64	31250.83
515.81	30595.48
515.99	30848.26
516.16	31545.74
516.33	31150.19
516.51	31550.42
516.68	31175.94
516.85	31199.34
517.03	31599.57
517.20	31578.51
517.37	31510.63
517.54	31817.24
517.72	31693.19
517.89	31576.17
518.06	32208.11
518.24	31955.33
518.41	31803.20
518.58	32093.43
518.75	32051.30
518.93	32566.21
519.10	32336.84
519.27	32350.88
519.45	32563.87
519.62	32566.21
519.79	32437.48
519.96	32261.94
520.14	32662.18
520.31	32290.03
520.48	32840.06
520.65	32697.28
520.83	33376.04
521.00	33163.05
521.17	33193.48
521.34	33577.33
521.52	33184.12
521.69	33500.09
521.86	33523.49
522.03	33443.91
522.20	33486.04
522.38	33989.26
522.55	33818.40
522.72	33879.25
522.89	33820.74
523.07	34174.16
523.24	34183.52
523.41	34204.59
523.58	34150.76
523.75	34490.13
523.92	34092.24
524.10	34155.44
524.27	34361.40
524.44	34670.36
524.61	34740.57
524.78	34831.85
524.96	35131.44
525.13	35253.15
525.30	34920.79
525.47	34855.26
525.64	35009.73
525.81	34752.27
525.98	35304.64
526.16	35402.94
526.33	35108.04
526.50	35370.18
526.67	34974.63
526.84	35461.46
527.01	35005.05
527.18	35526.99
527.36	35667.42
527.53	35721.26
527.70	35948.29
527.87	35608.91
528.04	35913.18
528.21	36184.68
528.38	35941.27
528.55	35821.90
528.72	36147.23
528.89	36107.44
529.07	35983.40
529.24	36535.76
529.41	36760.45
529.58	36453.84
529.75	36203.41
529.92	36332.14
530.09	36208.09
530.26	36624.70
530.43	36369.58
530.60	36144.89
530.77	36222.13
530.94	36605.98
531.11	36825.99
531.28	36528.74
531.46	37092.81
531.63	36924.29
531.80	36708.96
531.97	37102.17
532.14	36793.22
532.31	36985.15
532.48	37055.36
532.65	37205.16
532.82	37214.52
532.99	37289.42
533.16	37116.22
533.33	37223.88
533.50	37752.84
533.67	37663.90
533.84	37399.42
534.01	36872.80
534.18	37645.18
534.35	37809.01
534.52	37764.54
534.69	38565.01
534.86	38450.32
535.03	37614.75
535.20	38258.40
535.37	38190.52
535.54	38408.19
535.71	38242.01
535.88	37991.58
536.05	38829.49
536.22	38391.81
536.38	38492.45
536.55	38555.64
536.72	38120.31
536.89	38110.94
537.06	38799.06
537.23	38810.76
537.40	38363.72
537.57	38319.25
537.74	38773.31
537.91	38944.17
538.08	38639.90
538.25	38373.08
538.42	38712.46
538.59	39192.27
538.75	38801.40
538.92	39688.46
539.09	39283.55
539.26	39311.64
539.43	39040.14
539.60	39239.08
539.77	39393.56
539.94	39192.27
540.11	39739.96
540.28	39218.02
540.44	39517.60
540.61	39126.74
540.78	39505.90
540.95	39229.72
541.12	39269.51
541.29	39426.32
541.46	39845.28
541.62	39782.09
541.79	40107.42
541.96	39639.31
542.13	39487.18
542.30	39672.08
542.47	40086.36
542.63	39756.34
542.80	40086.36
542.97	40383.60
543.14	40222.11
543.31	40584.89
543.48	40634.04
543.64	40547.44
543.81	40832.99
543.98	40289.98
544.15	41104.49
544.32	40519.35
544.48	41017.89
544.65	40605.95
544.82	40741.71
544.99	40561.48
545.16	40788.52
545.32	41006.19
545.49	41083.42
545.66	41254.28
545.83	40863.41
546.00	40896.18
546.16	41221.52
546.33	41242.58
546.50	41057.68
546.67	41418.12
546.83	40804.90
547.00	41345.56
547.17	41453.23
547.34	41172.36
547.50	41469.61
547.67	41933.04
547.84	41170.02
548.00	41745.80
548.17	41862.82
548.34	41736.43
548.51	41879.21
548.67	41890.91
548.84	41413.44
549.01	41731.75
549.18	41874.52
549.34	41794.95
549.51	42447.96
549.68	42387.10
549.84	41837.08
550.01	42508.81
550.18	42209.22
550.34	42520.51
550.51	42735.84
550.68	42600.09
550.84	42045.38
551.01	42412.85
551.18	42452.64
551.34	42604.77
551.51	42770.95
551.68	42597.75
551.84	42499.45
552.01	42440.93
552.18	42630.52
552.34	42447.96
552.51	42728.82
552.68	42471.36
552.84	42452.64
553.01	43023.73
553.18	42667.97
553.34	42536.90
553.51	42600.09
553.67	42768.61
553.84	43320.98
554.01	42895.00
554.17	43578.43
554.34	43115.01
554.51	42794.36
554.67	42981.60
554.84	42756.91
555.00	42958.19
555.17	43040.11
555.33	42864.57
555.50	43009.68
555.67	43030.75
555.83	43042.45
556.00	43269.48
556.16	43622.90
556.33	43744.61
556.50	43005.00
556.66	43519.92
556.83	43182.88
556.99	44018.46
557.16	43866.32
557.32	43910.79
557.49	44009.09
557.65	43653.33
557.82	43447.36
557.98	43761.00
558.15	43723.55
558.32	43627.59
558.48	43810.15
558.65	43983.35
558.81	43791.42
558.98	43395.87
559.14	43842.92
559.31	43845.26
559.47	44023.14
559.64	43353.74
559.80	43725.89
559.97	43927.17
560.13	44051.22
560.30	43838.23
560.46	44306.34
560.63	44622.31
560.79	44416.35
560.96	44388.26
561.12	44236.12
561.29	44287.62
561.45	44531.03
561.61	44287.62
561.78	44212.72
561.94	44570.82
562.11	44222.08
562.27	44006.75
562.44	44336.77
562.60	44397.62
562.77	44357.83
562.93	44123.78
563.10	44788.49
563.26	44610.61
563.42	44512.31
563.59	44203.36
563.75	44533.37
563.92	44622.31
564.08	44701.89
564.24	44624.65
564.41	44795.51
564.57	44357.83
564.74	44935.95
564.90	44392.94
565.07	44556.78
565.23	44390.60
565.39	44926.58
565.56	44524.01
565.72	44484.22
565.88	44252.51
566.05	44821.26
566.21	44865.73
566.38	44685.51
566.54	44872.75
566.70	45069.36
566.87	44823.60
567.03	44458.48
567.19	44825.94
567.36	45113.83
567.52	45022.54
567.68	45301.07
567.85	45312.77
568.01	45160.64
568.17	44889.13
568.34	45303.41
568.50	44847.00
568.66	44898.50
568.83	45244.90
568.99	45116.17
569.15	44847.00
569.32	45052.97
569.48	45118.51
569.64	44903.18
569.81	45352.56
569.97	45179.36
570.13	45663.85
570.30	44877.43
570.46	45242.56
570.62	45710.66
570.78	45415.76
570.95	44945.31
571.11	45476.61
571.27	45244.90
571.43	45258.94
571.60	45525.76
571.76	45275.32
571.92	45799.60
572.09	45160.64
572.25	45132.55
572.41	45055.31
572.57	45193.40
572.74	45553.85
572.90	45083.40
573.06	45539.80
573.22	45024.89
573.38	45422.78
573.55	45603.00
573.71	45357.24
573.87	45528.10
574.03	45057.65
574.20	45614.70
574.36	45485.97
574.52	45785.56
574.68	45244.90
574.84	45682.58
575.01	45879.18
575.17	45549.17
575.33	45925.99
575.49	45268.30
575.65	46017.27
575.82	45411.07
575.98	45429.80
576.14	45769.18
576.30	46033.66
576.46	45649.81
576.62	45476.61
576.79	45170.00
576.95	45200.43
577.11	45034.25
577.27	45628.74
577.43	45287.03
577.59	45563.21
577.75	45492.99
577.92	45240.21
578.08	45640.45
578.24	46075.79
578.40	46141.32
578.56	45652.15
578.72	45762.15
578.88	45607.68
579.04	45804.28
579.21	45340.86
579.37	45626.40
579.53	45460.23
579.69	45394.69
579.85	45595.98
580.01	45984.51
580.17	45361.92
580.33	45682.58
580.49	45659.17
580.65	45982.16
580.82	45799.60
580.98	45827.69
581.14	45251.92
581.30	45930.67
581.46	45443.84
581.62	45801.94
581.78	45865.14
581.94	45860.46
582.10	45717.68
582.26	45682.58
582.42	46330.90
582.58	46096.85
582.74	46176.43
582.90	46007.91
583.06	45841.73
583.22	45762.15
583.38	46085.15
583.54	45993.87
583.70	46040.68
583.86	45755.13
584.02	45614.70
584.18	46279.41
584.34	45785.56
584.50	45811.31
584.66	45956.42
584.82	46007.91
584.98	46321.54
585.14	46302.82
585.30	45940.04
585.46	45661.51
585.62	46019.61
585.78	46431.55
585.94	45380.65
586.10	45813.65
586.26	45890.88
586.42	46122.60
586.58	46120.26
586.74	45759.81
586.90	45881.52
587.06	46115.58
587.22	46064.08
587.38	45652.15
587.54	45958.76
587.70	46354.31
587.86	45949.40
588.02	45993.87
588.18	45991.53
588.34	46110.89
588.49	46110.89
588.65	46171.75
588.81	46223.24
588.97	46258.35
589.13	45918.97
589.29	46192.81
589.45	46155.36
589.61	46110.89
589.77	46019.61
589.93	46354.31
590.08	46284.09
590.24	46387.08
590.40	46649.22
590.56	46492.40
590.72	46579.00
590.88	46539.21
591.04	46447.93
591.20	46539.21
591.35	46253.67
591.51	46801.35
591.67	46686.67
591.83	46960.51
591.99	46452.61
592.15	46651.56
592.31	46401.12
592.46	45900.25
592.62	46394.10
592.78	46436.23
592.94	46859.87
593.10	46454.95
593.26	46721.77
593.41	47138.39
593.57	46754.54
593.73	46541.55
593.89	46838.80
594.05	47175.84
594.20	46667.94
594.36	47103.28
594.52	46740.50
594.68	46614.11
594.84	46616.45
594.99	47096.26
595.15	46567.30
595.31	46630.49
595.47	46859.87
595.62	47028.38
595.78	46333.24
595.94	46651.56
596.10	46410.48
596.25	46899.65
596.41	46969.87
596.57	46581.34
596.73	46574.32
596.88	46775.61
597.04	46539.21
597.20	46775.61
597.36	46834.12
597.51	46810.71
597.67	46403.46
597.83	46927.74
597.99	47019.02
598.14	46817.74
598.30	46747.52
598.46	46155.36
598.61	46852.84
598.77	46885.61
598.93	46590.70
599.09	46663.26
599.24	47065.83
599.40	46780.29
599.56	46618.79
599.71	46714.75
599.87	47313.93
600.03	47393.51
600.18	46630.49
600.34	47079.88
600.50	47246.05
600.65	46663.26
600.81	47065.83
600.97	46916.04
601.12	46836.46
601.28	46618.79
601.44	46761.56
601.59	47009.66
601.75	46850.50
601.91	47035.41
602.06	46649.22
602.22	47379.46
602.37	47241.37
602.53	47234.35
602.69	46983.91
602.84	46726.46
603.00	46824.76
603.16	46969.87
603.31	46539.21
603.47	47070.51
603.62	46967.53
603.78	47112.64
603.94	47171.16
604.09	46703.05
604.25	46789.65
604.40	46689.01
604.56	46759.22
604.71	47313.93
604.87	46534.53
605.03	46480.70
605.18	46770.93
605.34	47068.17
605.49	46518.15
605.65	46883.27
605.80	46754.54
605.96	46534.53
606.12	46710.07
606.27	46766.24
606.43	46651.56
606.58	47040.09
606.74	46571.98
606.89	46796.67
607.05	46965.19
607.20	46925.40
607.36	46824.76
607.51	47157.11
607.67	46380.06
607.82	46717.09
607.98	47014.34
608.13	46691.35
608.29	46731.14
608.44	47105.62
608.60	46520.49
608.75	46429.21
608.91	46529.85
609.06	46366.01
609.22	46714.75
609.37	46216.22
609.53	46698.37
609.68	46997.96
609.84	46220.90
609.99	46740.50
610.15	46272.39
610.30	46508.79
610.46	46227.92
610.61	46529.85
610.76	47110.30
610.92	46270.05
611.07	46279.41
611.23	46036.00
611.38	46625.81
611.54	46656.24
611.69	46789.65
611.84	46431.55
612.00	46356.65
612.15	46328.56
612.31	46843.48
612.46	45806.62
612.62	46050.04
612.77	46497.08
612.92	46611.77
613.08	45893.22
613.23	45956.42
613.39	46298.14
613.54	46096.85
613.69	46403.46
613.85	46096.85
614.00	46192.81
614.15	46436.23
614.31	45886.20
614.46	45961.10
614.62	46181.11
614.77	46036.00
614.92	46150.68
615.08	46064.08
615.23	46202.18
615.38	46089.83
615.54	46291.12
615.69	46017.27
615.84	46096.85
616.00	46410.48
616.15	46387.08
616.30	46270.05
616.46	45940.04
616.61	45921.31
616.76	46068.76
616.92	46124.94
617.07	45991.53
617.22	45528.10
617.37	45748.11
617.53	45757.47
617.68	45762.15
617.83	45848.75
617.99	46199.83
618.14	45907.27
618.29	45778.54
618.45	45139.57
618.60	45471.93
618.75	45303.41
618.90	45808.96
619.06	45649.81
619.21	45338.52
619.36	45734.07
619.51	45326.81
619.67	45106.80
619.82	45385.33
619.97	45570.23
620.12	45507.04
620.28	45457.88
620.43	45628.74
620.58	45453.20
620.73	45230.85
620.89	45958.76
621.04	45579.59
621.19	45235.53
621.34	45462.57
621.49	45088.08
621.65	45626.40
621.80	45902.59
621.95	45563.21
622.10	45668.53
622.25	45394.69
622.41	45137.23
622.56	45249.58
622.71	45289.37
622.86	45415.76
623.01	45523.42
623.16	44978.07
623.32	45099.78
623.47	45036.59
623.62	44844.66
623.77	45394.69
623.92	45125.53
624.07	44891.48
624.23	45200.43
624.38	44884.45
624.53	45083.40
624.68	44800.19
624.83	44790.83
624.98	44729.98
625.13	44493.58
625.29	44147.18
625.44	44561.46
625.59	44804.88
625.74	44889.13
625.89	44406.98
626.04	44584.86
626.19	44882.11
626.34	44645.72
626.49	44524.01
626.65	44332.09
626.80	44402.30
626.95	44184.63
627.10	44163.57
627.25	44238.47
627.40	44282.94
627.55	44479.54
627.70	44484.22
627.85	44376.56
628.00	44554.44
628.15	44481.88
628.30	44304.00
628.45	44467.84
628.60	43849.94
628.76	43995.05
628.91	44165.91
629.06	43363.11
629.21	43803.13
629.36	43854.62
629.51	43746.95
629.66	44296.98
629.81	44158.89
629.96	44165.91
630.11	43821.85
630.26	43613.54
630.41	43779.72
630.56	43580.78
630.71	44191.65
630.86	43477.79
631.01	43414.60
631.16	43580.78
631.31	44095.69
631.46	43639.29
631.61	44240.81
631.76	43817.17
631.91	43650.99
632.06	43913.13
632.21	44334.43
632.36	43583.12
632.51	43419.28
632.66	43707.16
632.81	43540.99
632.96	43447.36
633.10	43536.30
633.25	43650.99
633.40	43861.64
633.55	43910.79
633.70	43133.73
633.85	43133.73
634.00	43267.14
634.15	43416.94
634.30	43545.67
634.45	43435.66
634.60	43473.11
634.75	43381.83
634.90	43548.01
635.05	43498.86
635.19	43189.91
635.34	43241.40
635.49	43091.60
635.64	43281.19
635.79	43592.48
635.94	43115.01
636.09	43351.40
636.24	43278.85
636.39	43353.74
636.53	43255.44
636.68	42979.26
636.83	42724.14
636.98	43100.97
637.13	42454.98
637.28	42960.53
637.43	42869.25
637.57	42859.89
637.72	42918.40
637.87	42691.37
638.02	42768.61
638.17	43016.71
638.32	42595.41
638.46	42124.96
638.61	42260.71
638.76	42799.04
638.91	42742.86
639.06	42499.45
639.20	42263.05
639.35	42120.28
639.50	42504.13
639.65	42462.00
639.80	42410.51
639.94	42518.17
640.09	42637.54
640.24	42820.10
640.39	42054.75
640.54	41858.14
640.68	42494.77
640.83	42342.63
640.98	42337.95
641.13	42153.05
641.27	42827.12
641.42	42293.48
641.57	42492.43
641.72	42342.63
641.86	42192.84
642.01	41553.87
642.16	42021.98
642.31	41635.79
642.45	42188.16
642.60	42167.09
642.75	41773.88
642.90	42054.75
643.04	42199.86
643.19	42206.88
643.34	41530.47
643.48	41773.88
643.63	41375.99
643.78	42033.68
643.93	41546.85
644.07	41893.25
644.22	41937.72
644.37	41453.23
644.51	41507.06
644.66	42075.81
644.81	41731.75
644.95	41900.27
645.10	41366.63
645.25	41361.95
645.39	41698.98
645.54	41008.53
645.69	41265.99
645.83	41125.55
645.98	41235.56
646.13	40683.19
646.27	41193.43
646.42	40662.13
646.57	41347.90
646.71	41111.51
646.86	41471.95
647.00	41141.94
647.15	41031.93
647.30	41574.94
647.44	41045.97
647.59	41177.04
647.74	40905.54
647.88	41120.87
648.03	40774.47
648.17	41670.90
648.32	41148.96
648.47	41722.39
648.61	40975.76
648.76	41139.60
648.90	40940.65
649.05	40945.33
649.20	40996.82
649.34	40657.45
649.49	41544.51
649.63	41076.40
649.78	41265.99
649.92	41022.57
650.07	41097.47
650.21	41097.47
650.36	40832.99
650.51	40776.81
650.65	40856.39
650.80	40840.01
650.94	41137.26
651.09	40942.99
651.23	40563.82
651.38	40318.07
651.52	40046.57
651.67	40273.60
651.81	40680.85
651.96	40385.94
652.10	39934.22
652.25	40212.74
652.39	40477.22
652.54	40343.81
652.68	40210.40
652.83	40414.03
652.97	40669.15
653.12	40563.82
653.26	40273.60
653.41	40084.01
653.55	40259.55
653.70	40907.88
653.84	40533.40
653.99	39957.63
654.13	40119.12
654.27	40264.24
654.42	39749.32
654.56	40079.33
654.71	40203.38
654.85	40025.50
655.00	40189.34
655.14	40172.96
655.29	40547.44
655.43	40254.87
655.57	39800.81
655.72	39501.22
655.86	39880.39
656.01	39154.82
656.15	39704.85
656.30	39849.96
656.44	39557.39
656.58	39578.46
656.73	40079.33
656.87	39288.23
657.01	38939.49
657.16	39894.43
657.30	40006.78
657.45	39414.62
657.59	39161.84
657.73	39386.54
657.88	39552.71
658.02	39505.90
658.16	40046.57
658.31	39639.31
658.45	39889.75
658.60	38923.11
658.74	38946.51
658.88	39529.31
659.03	39037.80
659.17	38834.17
659.31	38726.50
659.46	39227.38
659.60	39173.55
659.74	39072.90
659.89	38412.87
660.03	38431.60
660.17	39051.84
660.32	38660.97
660.46	38373.08
660.60	37954.13
660.74	38560.33
660.89	38653.95
661.03	38064.13
661.17	37858.17
661.32	38230.31
661.46	38419.89
661.60	38300.53
661.74	38483.09
661.89	38651.61
662.03	38387.13
662.17	37979.87
662.31	38237.33
662.46	38110.94
662.60	37998.60
662.74	37827.74
662.88	37406.44
663.03	37893.27
663.17	37715.39
663.31	37605.39
663.45	37687.31
663.60	38031.36
663.74	37748.16
663.88	37368.99
664.02	37062.38
664.17	37617.09
664.31	37495.38
664.45	37029.62
664.59	37411.12
664.73	37371.33
664.88	37134.94
665.02	37111.53
665.16	37090.47
665.30	37099.83
665.44	36959.40
665.59	36772.16
665.73	36411.71
665.87	36383.63
666.01	36896.20
666.15	37097.49
666.29	36898.55
666.44	36732.37
666.58	36563.85
666.72	36243.20
666.86	36605.98
667.00	36184.68
667.14	35889.77
667.28	36062.97
667.43	36362.56
667.57	36458.52
667.71	36325.11
667.85	36432.78
667.99	36624.70
668.13	35665.08
668.27	35941.27
668.41	35646.36
668.56	35337.41
668.70	35321.02
668.84	35669.76
668.98	35056.54
669.12	35005.05
669.26	35306.98
669.40	35524.65
669.54	35402.94
669.68	35229.74
669.82	35005.05
669.96	34761.64
670.10	34785.04
670.25	35133.78
670.39	34766.32
670.53	35281.24
670.67	34937.18
670.81	35007.39
670.95	34778.02
671.09	34604.82
671.23	34284.17
671.37	34443.32
671.51	34506.52
671.65	34459.71
671.79	33958.83
671.93	34668.02
672.07	34679.72
672.21	34335.66
672.35	33897.98
672.49	34129.69
672.63	33881.60
672.77	33797.34
672.91	33970.54
673.05	33670.95
673.19	33350.29
673.33	33802.02
673.47	33500.09
673.61	33591.37
673.75	32996.87
673.89	32992.19
674.03	32898.57
674.17	32734.73
674.31	32587.28
674.45	32781.54
674.59	32844.74
674.73	32446.85
674.87	32568.55
675.01	32175.34
675.15	32292.37
675.29	32320.46
675.43	32114.49
675.56	32631.75
675.70	32334.50
675.84	31999.80
675.98	31079.97
676.12	31782.13
676.26	32095.77
676.40	31859.37
676.54	31257.85
676.68	31424.03
676.82	30799.11
676.96	31709.58
677.10	31576.17
677.23	31431.05
677.37	31349.14
677.51	31381.90
677.65	30930.18
677.79	30895.07
677.93	30998.06
678.07	30740.60
678.21	30286.53
678.34	30340.36
678.48	30309.94
678.62	30244.40
678.76	29998.65
678.90	30345.05
679.04	30349.73
679.18	30607.19
679.31	29790.34
679.45	29364.36
679.59	29809.06
679.73	29844.17
679.87	29333.93
680.00	29392.45
680.14	29153.71
680.28	28933.70
680.42	29202.86
680.56	28940.72
680.70	28957.11
680.83	28837.74
680.97	28580.28
681.11	28713.69
681.25	28339.21
681.39	28273.67
681.52	28208.14
681.66	28079.41
681.80	27962.38
681.94	27646.41
682.07	27562.15
682.21	27711.94
682.35	27763.43
682.49	27388.95
682.62	27728.33
682.76	27630.02
682.90	27419.38
683.04	27470.87
683.17	27428.74
683.31	27204.05
683.45	27009.78
683.59	26721.90
683.72	26974.67
683.86	27000.42
684.00	26480.82
684.13	26813.18
684.27	26338.05
684.41	26106.34
684.55	26078.25
684.68	26127.40
684.82	26036.12
684.96	25940.16
685.09	25905.05
685.23	25902.71
685.37	26436.35
685.50	25914.41
685.64	25888.67
685.78	25376.09
685.91	25448.64
686.05	25179.48
686.19	24872.87
686.32	25036.71
686.46	24606.05
686.60	24723.08
686.73	24844.79
686.87	24575.62
687.01	24666.91
687.14	24547.54
687.28	24465.62
687.42	24563.92
687.55	24016.24
687.69	24372.00
687.82	23747.08
687.96	24056.03
688.10	24093.47
688.23	23828.99
688.37	23754.10
688.50	23772.82
688.64	23826.65
688.78	23536.43
688.91	23353.87
689.05	23648.77
689.18	23105.77
689.32	22836.61
689.46	22780.43
689.59	22906.82
689.73	23330.46
689.86	23112.79
690.00	22939.59
690.13	22895.12
690.27	22520.63
690.41	22309.99
690.54	22427.01
690.68	22106.36
690.81	22207.00
690.95	22211.68
691.08	21979.97
691.22	21766.98
691.35	21898.05
691.49	21905.07
691.62	21748.26
691.76	21247.38
691.89	21289.51
692.03	21142.06
692.16	21238.02
692.30	21202.91
692.43	21266.11
692.57	20664.59
692.70	20964.18
692.84	20741.83
692.97	20570.97
693.11	20585.01
693.24	20629.48
693.38	20252.66
693.51	20236.27
693.65	20570.97
693.78	19953.07
693.92	20063.07
694.05	20074.77
694.19	19903.92
694.32	19466.24
694.45	19850.08
694.59	19765.82
694.72	19969.45
694.86	19513.05
694.99	19206.44
695.13	19002.81
695.26	19204.10
695.39	18937.27
695.53	18820.25
695.66	19199.41
695.80	18829.61
695.93	18857.70
696.07	18675.13
696.20	18157.88
696.33	18263.20
696.47	18586.19
696.60	18295.97
696.73	18405.97
696.87	18429.38
697.00	18331.08
697.14	18043.19
697.27	17982.34
697.40	17951.91
697.54	17893.40
697.67	17987.02
697.80	17928.50
697.94	17551.68
698.07	17436.99
698.21	17429.97
698.34	17366.78
698.47	17130.38
698.61	16889.31
698.74	16943.14
698.87	17020.38
699.01	16435.24
699.14	17022.72
699.27	16776.96
699.40	16575.67
699.54	16688.02
699.67	16486.73
699.80	16716.11
699.94	16517.16
700.07	16350.98
700.20	16238.64
700.34	15822.02
700.47	15887.56
700.60	16360.34
700.73	16023.31
700.87	15939.05
701.00	15793.94
701.13	15400.72
701.26	15538.82
701.40	15372.64
701.53	15117.52
701.66	15077.73
701.79	15370.30
701.93	15152.63
702.06	15288.38
702.19	15075.39
702.32	15098.80
702.46	15098.80
702.59	15316.47
702.72	14972.41
702.85	15061.35
702.99	14768.78
703.12	14721.97
703.25	14576.86
703.38	14349.82
703.51	14314.72
703.65	14438.76
703.78	14183.65
703.91	13919.17
704.04	14012.79
704.17	13928.53
704.31	13958.96
704.44	14054.92
704.57	13680.43
704.70	13820.86
704.83	13804.48
704.96	13348.08
705.10	13584.47
705.23	13523.62
>>>>>End Processed Spectral Data<<<<<
