SpectraSuite Data File
++++++++++++++++++++++++++++++++++++
Date: Fri Oct 25 11:34:24 EDT 2013
User: price-jones
Dark Spectrum Present: No
Reference Spectrum Present: No
Number of Sampled Component Spectra: 1
Spectrometers: USB2+H05261
Integration Time (usec): 100000 (USB2+H05261)
Spectra Averaged: 1 (USB2+H05261)
Boxcar Smoothing: 0 (USB2+H05261)
Correct for Electrical Dark: No (USB2+H05261)
Strobe/Lamp Enabled: No (USB2+H05261)
Correct for Detector Non-linearity: No (USB2+H05261)
Correct for Stray Light: No (USB2+H05261)
Number of Pixels in Processed Spectrum: 2048
>>>>>Begin Processed Spectral Data<<<<<
365.73	273.84
365.92	273.84
366.12	273.84
366.32	250.44
366.52	154.48
366.72	110.01
366.91	220.01
367.11	145.11
367.31	147.45
367.51	189.58
367.70	98.30
367.90	250.44
368.10	222.35
368.30	170.86
368.49	191.92
368.69	229.37
368.89	189.58
369.09	154.48
369.28	245.76
369.48	168.52
369.68	250.44
369.87	149.79
370.07	184.90
370.27	252.78
370.47	416.62
370.66	493.85
370.86	535.98
371.06	538.32
371.25	557.05
371.45	547.69
371.65	507.90
371.84	521.94
372.04	580.45
372.24	587.47
372.44	585.13
372.63	552.37
372.83	641.31
373.03	601.52
373.22	594.50
373.42	596.84
373.62	669.39
373.81	580.45
374.01	601.52
374.21	589.82
374.40	589.82
374.60	610.88
374.79	620.24
374.99	566.41
375.19	674.07
375.38	643.65
375.58	629.60
375.78	678.76
375.97	622.58
376.17	758.33
376.37	748.97
376.56	653.01
376.76	571.09
376.95	685.78
377.15	664.71
377.35	711.52
377.54	681.10
377.74	657.69
377.93	613.22
378.13	704.50
378.33	645.99
378.52	645.99
378.72	692.80
378.91	669.39
379.11	704.50
379.31	713.86
379.50	690.46
379.70	751.31
379.89	711.52
380.09	699.82
380.28	718.54
380.48	751.31
380.68	709.18
380.87	702.16
381.07	730.25
381.26	634.29
381.46	718.54
381.65	730.25
381.85	688.12
382.04	763.01
382.24	741.95
382.43	774.72
382.63	798.12
382.83	760.67
383.02	767.70
383.22	781.74
383.41	763.01
383.61	819.19
383.80	774.72
384.00	861.32
384.19	760.67
384.39	793.44
384.58	765.36
384.78	751.31
384.97	844.93
385.17	788.76
385.36	802.80
385.56	751.31
385.75	880.04
385.95	788.76
386.14	784.08
386.34	898.77
386.53	891.74
386.72	833.23
386.92	765.36
387.11	896.43
387.31	931.53
387.50	868.34
387.70	978.34
387.89	891.74
388.09	877.70
388.28	880.04
388.48	908.13
388.67	1011.11
388.86	917.49
389.06	863.66
389.25	1015.79
389.45	945.58
389.64	952.60
389.84	898.77
390.03	912.81
390.22	999.41
390.42	908.13
390.61	983.02
390.81	964.30
391.00	903.45
391.19	1020.47
391.39	931.53
391.58	1022.81
391.78	1006.43
391.97	1083.67
392.16	1004.09
392.36	1050.90
392.55	926.85
392.75	943.24
392.94	957.28
393.13	1090.69
393.33	1013.45
393.52	1022.81
393.71	1015.79
393.91	1025.15
394.10	1027.50
394.29	985.37
394.49	1043.88
394.68	1041.54
394.88	1107.07
395.07	1095.37
395.26	1172.61
395.46	1060.26
395.65	1132.82
395.84	1104.73
396.04	1144.52
396.23	1205.38
396.42	1203.04
396.62	1184.31
396.81	1303.68
397.00	1097.71
397.19	1254.53
397.39	1252.19
397.58	1284.95
397.77	1207.72
397.97	1263.89
398.16	1174.95
398.35	1238.14
398.55	1228.78
398.74	1277.93
398.93	1270.91
399.12	1259.21
399.32	1289.64
399.51	1247.51
399.70	1299.00
399.90	1334.11
400.09	1320.06
400.28	1296.66
400.47	1338.79
400.67	1341.13
400.86	1306.02
401.05	1308.36
401.24	1380.92
401.44	1397.30
401.63	1490.92
401.82	1448.79
402.01	1432.41
402.21	1385.60
402.40	1437.09
402.59	1420.71
402.78	1488.58
402.97	1465.18
403.17	1509.65
403.36	1401.98
403.55	1568.16
403.74	1537.73
403.93	1500.28
404.13	1577.52
404.32	1521.35
404.51	1493.26
404.70	1621.99
404.89	1561.14
405.09	1647.74
405.28	1612.63
405.47	1621.99
405.66	1734.34
405.85	1680.50
406.05	1657.10
406.24	1680.50
406.43	1713.27
406.62	1741.36
406.81	1640.72
407.00	1701.57
407.20	1753.06
407.39	1834.98
407.58	1788.17
407.77	1802.21
407.96	1844.34
408.15	1813.92
408.34	1785.83
408.54	1842.00
408.73	1774.13
408.92	1858.39
409.11	1900.52
409.30	1851.36
409.49	1942.64
409.68	1881.79
409.87	1905.20
410.07	1811.57
410.26	2036.27
410.45	1933.28
410.64	1982.43
410.83	2090.10
411.02	2062.01
411.21	2118.18
411.40	1989.46
411.59	2094.78
411.78	2136.91
411.98	2148.61
412.17	2059.67
412.36	2062.01
412.55	2165.00
412.74	2209.47
412.93	2293.72
413.12	2307.77
413.31	2314.79
413.50	2263.30
413.69	2284.36
413.88	2396.71
414.07	2363.94
414.26	2377.98
414.45	2415.43
414.64	2408.41
414.83	2499.69
415.02	2455.22
415.22	2532.46
415.41	2476.29
415.60	2530.12
415.79	2607.36
415.98	2729.06
416.17	2647.15
416.36	2523.10
416.55	2703.32
416.74	2759.49
416.93	2722.04
417.12	2649.49
417.31	2722.04
417.50	2820.35
417.69	2855.45
417.88	2806.30
418.07	2864.82
418.26	2810.98
418.45	2820.35
418.64	3000.57
418.83	2979.50
419.02	2977.16
419.21	3016.95
419.39	2909.29
419.58	2920.99
419.77	2942.05
419.96	3094.19
420.15	3124.62
420.34	3059.08
420.53	3143.34
420.72	3061.42
420.91	3171.43
421.10	3084.83
421.29	3180.79
421.48	3164.40
421.67	3166.74
421.86	3126.96
422.05	3077.80
422.24	3281.43
422.43	3096.53
422.61	3255.69
422.80	3295.47
422.99	3337.60
423.18	3325.90
423.37	3328.24
423.56	3262.71
423.75	3283.77
423.94	3262.71
424.13	3091.85
424.32	3162.06
424.50	3365.69
424.69	3372.71
424.88	3417.18
425.07	3239.30
425.26	3288.45
425.45	3396.12
425.64	3241.64
425.83	3258.03
426.01	3246.32
426.20	3485.06
426.39	3330.58
426.58	3304.84
426.77	3368.03
426.96	3379.73
427.15	3534.21
427.33	3421.86
427.52	3499.10
427.71	3389.10
427.90	3496.76
428.09	3435.91
428.28	3466.33
428.46	3536.55
428.65	3555.27
428.84	3506.12
429.03	3508.46
429.22	3653.58
429.40	3564.64
429.59	3618.47
429.78	3417.18
429.97	3517.83
430.16	3627.83
430.34	3733.15
430.53	3871.25
430.72	3709.75
430.91	3702.73
431.10	3808.05
431.28	3712.09
431.47	3915.72
431.66	3730.81
431.85	3826.78
432.03	3971.89
432.22	4131.05
432.41	3997.64
432.60	3803.37
432.79	4002.32
432.97	3971.89
433.16	3885.29
433.35	3878.27
433.54	4053.81
433.72	4074.87
433.91	4126.36
434.10	4079.55
434.28	4039.76
434.47	4184.88
434.66	4086.58
434.85	4058.49
435.03	4140.41
435.22	4184.88
435.41	4117.00
435.59	4212.96
435.78	4224.67
435.97	4337.01
436.16	4138.07
436.34	4222.33
436.53	4308.93
436.72	4315.95
436.90	4231.69
437.09	4278.50
437.28	4271.48
437.46	4404.89
437.65	4332.33
437.84	4454.04
438.02	4472.76
438.21	4367.44
438.40	4561.70
438.58	4402.55
438.77	4510.21
438.96	4655.33
439.14	4678.73
439.33	4678.73
439.52	4685.75
439.70	4760.65
439.89	4854.27
440.08	4816.82
440.26	4723.20
440.45	4737.24
440.63	4840.23
440.82	5022.79
441.01	4851.93
441.19	5109.39
441.38	5041.51
441.57	5050.88
441.75	5128.11
441.94	5298.97
442.12	5305.99
442.31	5177.26
442.50	5191.31
442.68	5109.39
442.87	5074.28
443.05	5191.31
443.24	5296.63
443.43	5408.98
443.61	5418.34
443.80	5486.22
443.98	5327.06
444.17	5125.77
444.35	5334.08
444.54	5526.00
444.73	5432.38
444.91	5406.64
445.10	5378.55
445.28	5488.56
445.47	5387.91
445.65	5441.75
445.84	5486.22
446.02	5582.18
446.21	5589.20
446.39	5537.71
446.58	5479.19
446.77	5458.13
446.95	5345.78
447.14	5451.11
447.32	5713.25
447.51	5582.18
447.69	5404.30
447.88	5504.94
448.06	5425.36
448.25	5439.40
448.43	5628.99
448.62	5654.73
448.80	5504.94
448.99	5579.84
449.17	5694.52
449.36	5701.54
449.54	5703.89
449.73	5647.71
449.91	5795.17
450.10	5860.70
450.28	5949.64
450.46	6012.84
450.65	5736.65
450.83	5867.72
451.02	5839.64
451.20	5912.19
451.39	6054.97
451.57	5879.43
451.76	5940.28
451.94	6015.18
452.13	6001.13
452.31	6031.56
452.49	5987.09
452.68	5973.05
452.86	5968.37
453.05	6057.31
453.23	6061.99
453.42	6195.40
453.60	6047.94
453.78	6045.60
453.97	6256.25
454.15	6169.65
454.34	6036.24
454.52	6279.66
454.70	6218.80
454.89	6436.47
455.07	6375.62
455.26	6359.24
455.44	6457.54
455.62	6445.84
455.81	6494.99
455.99	6176.67
456.17	6583.93
456.36	6593.29
456.54	6836.70
456.73	6604.99
456.91	6806.28
457.09	6761.81
457.28	6675.21
457.46	6593.29
457.64	6909.26
457.83	6775.85
458.01	6715.00
458.19	6932.67
458.38	6820.32
458.56	6935.01
458.74	6930.33
458.93	6946.71
459.11	7007.56
459.29	6909.26
459.48	7035.65
459.66	7070.76
459.84	6977.14
460.03	7152.68
460.21	6874.15
460.39	7150.34
460.57	7117.57
460.76	7159.70
460.94	7410.14
461.12	7084.80
461.31	7073.10
461.49	7152.68
461.67	7342.26
461.85	7318.86
462.04	7206.51
462.22	7803.35
462.40	7527.16
462.59	7494.40
462.77	7447.58
462.95	7590.36
463.13	7445.24
463.32	7482.69
463.50	7623.12
463.68	7606.74
463.86	7585.68
464.05	7573.97
464.23	7466.31
464.41	7665.25
464.59	7559.93
464.78	7644.19
464.96	7669.94
465.14	7552.91
465.32	7641.85
465.50	7918.03
465.69	7878.24
465.87	7831.43
466.05	7763.56
466.23	7796.32
466.41	7873.56
466.60	7845.48
466.78	7953.14
466.96	7911.01
467.14	7728.45
467.32	7894.63
467.51	7892.29
467.69	7644.19
467.87	7948.46
468.05	7911.01
468.23	7978.89
468.41	7861.86
468.60	8229.32
468.78	7934.42
468.96	8109.96
469.14	8234.00
469.32	8060.80
469.50	8226.98
469.69	8454.02
469.87	8528.91
470.05	8196.56
470.23	8301.88
470.41	8395.50
470.59	8645.94
470.77	8404.86
470.95	8589.77
471.14	8617.85
471.32	8346.35
471.50	8465.72
471.68	8793.39
471.86	8582.74
472.04	8826.16
472.22	9015.74
472.40	8657.64
472.58	8931.48
472.77	8999.36
472.95	9088.30
473.13	9165.54
473.31	8898.72
473.49	9282.56
473.67	9050.85
473.85	9308.31
474.03	9263.84
474.21	9327.03
474.39	9280.22
474.57	9327.03
474.75	9514.28
474.93	9671.09
475.12	9776.42
475.30	9668.75
475.48	9638.33
475.66	9771.74
475.84	9942.60
476.02	9879.40
476.20	9944.94
476.38	9958.98
476.56	10186.01
476.74	10059.62
476.92	9973.02
477.10	9811.53
477.28	10054.94
477.46	10249.21
477.64	10352.19
477.82	10476.24
478.00	10640.08
478.18	10766.46
478.36	10721.99
478.54	10949.03
478.72	10916.26
478.90	11047.33
479.08	11260.32
479.26	10979.45
479.44	11445.22
479.62	11599.70
479.80	11384.37
479.98	11585.65
480.16	11637.14
480.34	11332.87
480.52	11852.47
480.70	11899.28
480.88	11662.89
481.06	11803.32
481.24	11995.25
481.41	12194.19
481.59	12114.61
481.77	12404.84
481.95	12271.43
482.13	12564.00
482.31	12409.52
482.49	12772.30
482.67	12704.43
482.85	12858.90
483.03	13261.48
483.21	13355.10
483.39	13121.04
483.57	13207.64
483.74	13128.06
483.92	13563.40
484.10	13638.30
484.28	13741.29
484.46	13874.70
484.64	14043.21
484.82	13902.78
485.00	14125.13
485.18	14279.61
485.35	14455.15
485.53	14406.00
485.71	14630.69
485.89	14888.15
486.07	14764.10
486.25	14628.35
486.43	14916.23
486.61	15180.71
486.78	15314.13
486.96	15456.90
487.14	15374.98
487.32	15594.99
487.50	15737.76
487.68	15896.92
487.85	15826.70
488.03	15925.00
488.21	16318.22
488.39	16182.46
488.57	16336.94
488.75	16224.59
488.92	16835.47
489.10	16786.32
489.28	17106.98
489.46	17156.13
489.64	17317.62
489.81	17348.05
489.99	17048.46
490.17	17401.88
490.35	17933.18
490.53	18029.15
490.70	18057.23
490.88	17652.32
491.06	18284.26
491.24	18192.98
491.41	18427.04
491.59	18017.44
491.77	18277.24
491.95	18408.31
492.13	18693.86
492.30	18920.89
492.48	18927.91
492.66	18923.23
492.84	19192.39
493.01	19105.79
493.19	18974.72
493.37	19426.45
493.54	19463.90
493.72	20004.56
493.90	19805.61
494.08	19896.89
494.25	20402.45
494.43	20311.17
494.61	20292.44
494.79	20357.98
494.96	20320.53
495.14	20603.74
495.32	20662.25
495.49	21039.08
495.67	20933.75
495.85	20893.96
496.02	21231.00
496.20	21778.68
496.38	21451.01
496.55	21357.39
496.73	21664.00
496.91	21795.07
497.09	22024.44
497.26	21771.66
497.44	21766.98
497.62	22221.05
497.79	22567.45
497.97	22167.21
498.14	22897.46
498.32	22434.03
498.50	23007.47
498.67	23042.57
498.85	22710.22
499.03	22782.77
499.20	23360.89
499.38	22883.42
499.56	23489.62
499.73	23241.52
499.91	23527.06
500.08	23821.97
500.26	23321.10
500.44	23412.38
500.61	23889.85
500.79	24030.28
500.97	24166.03
501.14	24355.61
501.32	24306.46
501.49	24030.28
501.67	24041.98
501.84	24842.45
502.02	24411.79
502.20	24753.51
502.37	24613.07
502.55	24758.19
502.72	24655.20
502.90	25111.61
503.07	24702.01
503.25	24872.87
503.43	25053.09
503.60	25076.50
503.78	25179.48
503.95	25589.08
504.13	25191.19
504.30	25706.10
504.48	25816.11
504.65	26103.99
504.83	26050.16
505.01	26174.21
505.18	26134.42
505.36	26312.30
505.53	26017.40
505.71	26087.61
505.88	26300.60
506.06	26223.36
506.23	26794.45
506.41	26401.24
506.58	26431.67
506.76	26845.94
506.93	26768.71
507.11	26719.56
507.28	27030.85
507.46	26955.95
507.63	27143.19
507.81	27138.51
507.98	26988.72
508.16	27344.48
508.33	28102.81
508.50	27445.12
508.68	27704.92
508.85	27976.42
509.03	27786.84
509.20	27803.22
509.38	28484.32
509.55	28224.52
509.73	28102.81
509.90	27978.76
510.08	28121.54
510.25	28063.02
510.42	28229.20
510.60	28467.94
510.77	28322.82
510.95	28673.90
511.12	28833.06
511.30	28877.53
511.47	28870.51
511.64	29008.60
511.82	29090.52
511.99	29020.30
512.17	28989.88
512.34	29193.50
512.51	29572.67
512.69	29490.75
512.86	29347.98
513.04	29841.83
513.21	29336.27
513.38	29930.77
513.56	29830.13
513.73	29488.41
513.90	30143.76
514.08	29792.68
514.25	30340.36
514.43	30464.41
514.60	30298.23
514.77	30108.65
514.95	30354.41
515.12	30707.83
515.29	30370.79
515.47	30567.40
515.64	30644.63
515.81	30499.52
515.99	30801.45
516.16	30843.58
516.33	30876.35
516.51	31087.00
516.68	31161.89
516.85	31119.76
517.03	31164.23
517.20	31260.20
517.37	31349.14
517.54	31171.25
517.72	31435.74
517.89	31356.16
518.06	31775.11
518.24	31398.29
518.41	31569.15
518.58	31400.63
518.75	31782.13
518.93	32079.38
519.10	32037.25
519.27	32032.57
519.45	32205.77
519.62	32355.57
519.79	32116.83
519.96	32257.26
520.14	32404.72
520.31	32514.72
520.48	32493.66
520.65	32477.27
520.83	33078.79
521.00	33043.68
521.17	32945.38
521.34	33085.81
521.52	33350.29
521.69	32985.17
521.86	33486.04
522.03	33326.89
522.20	33549.24
522.38	33701.37
522.55	33647.54
522.72	33315.19
522.89	33855.85
523.07	33624.14
523.24	33886.28
523.41	33759.89
523.58	33759.89
523.75	34178.84
523.92	34061.82
524.10	33869.89
524.27	33792.65
524.44	34010.32
524.61	34436.30
524.78	34190.55
524.96	34628.23
525.13	34712.49
525.30	34522.90
525.47	34607.16
525.64	34955.90
525.81	34873.98
525.98	34991.01
526.16	34904.41
526.33	34866.96
526.50	35075.27
526.67	34806.11
526.84	34806.11
527.01	35147.82
527.18	35454.44
527.36	35388.90
527.53	35449.75
527.70	35388.90
527.87	35695.51
528.04	35292.94
528.21	35728.28
528.38	35529.33
528.55	35840.62
528.72	35646.36
528.89	36275.96
529.07	35758.70
529.24	35402.94
529.41	35922.54
529.58	35796.15
529.75	35725.94
529.92	35899.14
530.09	35800.83
530.26	35821.90
530.43	36091.06
530.60	36081.70
530.77	36161.28
530.94	36245.54
531.11	36072.34
531.28	36477.25
531.46	36460.87
531.63	37001.53
531.80	36854.08
531.97	36903.23
532.14	36982.80
532.31	36786.20
532.48	36786.20
532.65	37130.26
532.82	36758.11
532.99	36715.98
533.16	37050.68
533.33	37233.24
533.50	36692.58
533.67	37062.38
533.84	37310.48
534.01	37347.93
534.18	37074.09
534.35	37741.14
534.52	37383.04
534.69	38120.31
534.86	37778.59
535.03	37865.19
535.20	37661.56
535.37	37855.82
535.54	37993.92
535.71	37780.93
535.88	38047.75
536.05	38192.86
536.22	38270.10
536.38	38113.28
536.55	38171.80
536.72	38363.72
536.89	38190.52
537.06	37996.26
537.23	38527.56
537.40	38181.16
537.57	38026.68
537.74	38300.53
537.91	38155.41
538.08	38429.26
538.25	38602.46
538.42	38731.18
538.59	38817.78
538.75	38590.75
538.92	38632.88
539.09	38948.85
539.26	39016.73
539.43	39173.55
539.60	39033.11
539.77	38885.66
539.94	39782.09
540.11	39124.40
540.28	39201.63
540.44	38974.60
540.61	39213.34
540.78	39196.95
540.95	39372.49
541.12	38855.23
541.29	38969.92
541.46	39538.67
541.62	39367.81
541.79	39302.28
541.96	39232.06
542.13	39131.42
542.30	39669.74
542.47	39508.24
542.63	39496.54
542.80	40048.91
542.97	40048.91
543.14	39854.64
543.31	40425.73
543.48	40385.94
543.64	40591.91
543.81	40313.39
543.98	40348.50
544.15	40409.35
544.32	40357.86
544.48	40926.61
544.65	40481.91
544.82	40620.00
544.99	40566.16
545.16	40910.22
545.32	40540.42
545.49	40683.19
545.66	41125.55
545.83	40889.16
546.00	40760.43
546.16	41031.93
546.33	40978.10
546.50	40423.39
546.67	41057.68
546.83	40872.78
547.00	40926.61
547.17	41095.13
547.34	40830.65
547.50	40978.10
547.67	41134.92
547.84	40996.82
548.00	41450.89
548.17	42080.49
548.34	41432.16
548.51	41668.56
548.67	41668.56
548.84	41397.06
549.01	41696.64
549.18	41296.41
549.34	41390.03
549.51	42160.07
549.68	41359.61
549.84	41464.93
550.01	41738.77
550.18	41514.08
550.34	41588.98
550.51	42115.60
550.68	41872.18
550.84	41926.02
551.01	42003.25
551.18	42038.36
551.34	41869.84
551.51	41827.71
551.68	42443.27
551.84	41820.69
552.01	41935.38
552.18	42150.71
552.34	42087.51
552.51	42040.70
552.68	42256.03
552.84	42422.21
553.01	42429.23
553.18	42167.09
553.34	42958.19
553.51	42316.89
553.67	42321.57
553.84	42724.14
554.01	42698.39
554.17	42066.45
554.34	42869.25
554.51	42572.00
554.67	43098.62
554.84	42988.62
555.00	42990.96
555.17	42663.28
555.33	43189.91
555.50	42674.99
555.67	42761.59
555.83	42745.20
556.00	42923.08
556.16	43342.04
556.33	43426.30
556.50	42628.18
556.66	43206.29
556.83	42967.55
556.99	43398.21
557.16	43641.63
557.32	43332.68
557.49	43660.35
557.65	43356.08
557.82	43278.85
557.98	43161.82
558.15	43627.59
558.32	43356.08
558.48	43246.08
558.65	43669.72
558.81	43559.71
558.98	43138.41
559.14	43580.78
559.31	43440.34
559.47	43225.01
559.64	43683.76
559.80	43688.44
559.97	43688.44
560.13	43138.41
560.30	43494.18
560.46	43798.44
560.63	43835.89
560.79	44194.00
560.96	43945.90
561.12	43988.03
561.29	43913.13
561.45	43714.19
561.61	43615.88
561.78	43744.61
561.94	43784.40
562.11	44011.43
562.27	43882.70
562.44	43768.02
562.60	44559.12
562.77	44147.18
562.93	43929.51
563.10	44493.58
563.26	43931.86
563.42	44364.85
563.59	44205.70
563.75	44280.60
563.92	43997.39
564.08	44318.04
564.24	43999.73
564.41	44210.38
564.57	44083.99
564.74	44325.07
564.90	43943.56
565.07	44198.68
565.23	44540.39
565.39	44406.98
565.56	44814.24
565.72	43896.75
565.88	44477.20
566.05	44212.72
566.21	44547.42
566.38	44577.84
566.54	44491.24
566.70	44463.16
566.87	44655.08
567.03	44425.71
567.19	44535.71
567.36	44559.12
567.52	44451.45
567.68	44629.34
567.85	44856.37
568.01	44790.83
568.17	44509.97
568.34	45001.48
568.50	44528.69
568.66	44264.21
568.83	44804.88
568.99	44893.82
569.15	44708.91
569.32	44669.12
569.48	44453.79
569.64	45008.50
569.81	44495.92
569.97	45177.02
570.13	45034.25
570.30	44495.92
570.46	44603.59
570.62	44715.93
570.78	45184.04
570.95	44877.43
571.11	45146.59
571.27	44519.33
571.43	44687.85
571.60	45010.84
571.76	44755.72
571.92	44339.11
572.09	45254.26
572.25	45174.68
572.41	44573.16
572.57	44818.92
572.74	45853.44
572.90	44727.64
573.06	45368.94
573.22	45303.41
573.38	45366.60
573.55	45392.35
573.71	45298.73
573.87	45123.19
574.03	44957.01
574.20	45301.07
574.36	45450.86
574.52	45020.20
574.68	45212.13
574.84	45242.56
575.01	45694.28
575.17	45284.68
575.33	45102.12
575.49	44971.05
575.65	45069.36
575.82	45467.25
575.98	44795.51
576.14	45558.53
576.30	45572.57
576.46	45375.97
576.62	45570.23
576.79	45050.63
576.95	45013.18
577.11	44690.19
577.27	45490.65
577.43	45200.43
577.59	45312.77
577.75	45067.02
577.92	45057.65
578.08	45191.06
578.24	45254.26
578.40	45457.88
578.56	45610.02
578.72	45584.27
578.88	45610.02
579.04	45174.68
579.21	45748.11
579.37	45595.98
579.53	45748.11
579.69	45127.87
579.85	45198.09
580.01	44891.48
580.17	45603.00
580.33	45441.50
580.49	45455.54
580.65	45270.64
580.82	45661.51
580.98	45375.97
581.14	45226.17
581.30	45539.80
581.46	45294.05
581.62	45766.84
581.78	45256.60
581.94	45605.34
582.10	45076.38
582.26	45563.21
582.42	45413.41
582.58	45390.01
582.74	45106.80
582.90	45408.73
583.06	45713.00
583.22	45347.88
583.38	45766.84
583.54	45724.71
583.70	45675.55
583.86	45825.35
584.02	45010.84
584.18	45436.82
584.34	45432.14
584.50	46141.32
584.66	45862.80
584.82	45801.94
584.98	45993.87
585.14	45806.62
585.30	45528.10
585.46	45778.54
585.62	45233.19
585.78	45481.29
585.94	45338.52
586.10	45621.72
586.26	46017.27
586.42	45490.65
586.58	45848.75
586.74	45759.81
586.90	45345.54
587.06	45462.57
587.22	45820.67
587.38	45488.31
587.54	45848.75
587.70	45881.52
587.86	45841.73
588.02	45785.56
588.18	45881.52
588.34	45558.53
588.49	45717.68
588.65	45808.96
588.81	45720.02
588.97	45720.02
589.13	45607.68
589.29	45638.11
589.45	46122.60
589.61	45890.88
589.77	46157.70
589.93	46059.40
590.08	46192.81
590.24	46326.22
590.40	46129.62
590.56	46197.49
590.72	46110.89
590.88	45443.84
591.04	45925.99
591.20	46014.93
591.35	45902.59
591.51	46595.38
591.67	46358.99
591.83	46239.62
591.99	46066.42
592.15	45694.28
592.31	45888.54
592.46	46071.10
592.62	46078.13
592.78	46251.33
592.94	46337.93
593.10	46684.33
593.26	46492.40
593.41	46033.66
593.57	46019.61
593.73	46211.54
593.89	46391.76
594.05	46476.02
594.20	46010.25
594.36	46417.50
594.52	46600.07
594.68	46569.64
594.84	46120.26
594.99	46679.64
595.15	46347.29
595.31	46054.72
595.47	46213.88
595.62	46380.06
595.78	46094.51
595.94	46300.48
596.10	46431.55
596.25	46302.82
596.41	46337.93
596.57	46066.42
596.73	46480.70
596.88	46464.32
597.04	46410.48
597.20	46281.75
597.36	46176.43
597.51	46117.92
597.67	46216.22
597.83	46366.01
597.99	46609.43
598.14	46019.61
598.30	46293.46
598.46	46419.84
598.61	46642.20
598.77	46415.16
598.93	46527.51
599.09	46644.54
599.24	46445.59
599.40	46766.24
599.56	46218.56
599.71	46836.46
599.87	46904.34
600.03	46862.21
600.18	46674.96
600.34	46660.92
600.50	46543.89
600.65	46483.04
600.81	46401.12
600.97	46625.81
601.12	46270.05
601.28	46604.75
601.44	46384.74
601.59	46560.28
601.75	46120.26
601.91	46618.79
602.06	46501.76
602.22	47007.32
602.37	46703.05
602.53	46485.38
602.69	46595.38
602.84	46342.61
603.00	46115.58
603.16	46120.26
603.31	46354.31
603.47	46899.65
603.62	46513.47
603.78	46562.62
603.94	46536.87
604.09	46639.86
604.25	46295.80
604.40	46356.65
604.56	46869.23
604.71	46443.25
604.87	46307.50
605.03	46726.46
605.18	46326.22
605.34	46239.62
605.49	46270.05
605.65	46525.17
605.80	46061.74
605.96	46129.62
606.12	46457.29
606.27	46527.51
606.43	46351.97
606.58	46543.89
606.74	46712.41
606.89	46536.87
607.05	46443.25
607.20	46756.88
607.36	46251.33
607.51	46499.42
607.67	46646.88
607.82	46316.86
607.98	46351.97
608.13	46602.41
608.29	46230.26
608.44	46700.71
608.60	46160.05
608.75	46157.70
608.91	46576.66
609.06	46089.83
609.22	46483.04
609.37	46190.47
609.53	46024.29
609.68	46469.00
609.84	45925.99
609.99	46181.11
610.15	46085.15
610.30	46616.45
610.46	46178.77
610.61	46075.79
610.76	46492.40
610.92	45551.51
611.07	46005.57
611.23	45958.76
611.38	46389.42
611.54	46010.25
611.69	46375.37
611.84	46073.45
612.00	45769.18
612.15	45921.31
612.31	45881.52
612.46	45713.00
612.62	46054.72
612.77	46113.23
612.92	46256.01
613.08	46110.89
613.23	46021.95
613.39	46267.71
613.54	46237.28
613.69	46054.72
613.85	45806.62
614.00	45612.36
614.15	46239.62
614.31	45509.38
614.46	45696.62
614.62	45497.67
614.77	46138.98
614.92	45366.60
615.08	45649.81
615.23	45902.59
615.38	45858.12
615.54	45467.25
615.69	45436.82
615.84	45654.49
616.00	46012.59
616.15	45951.74
616.30	45474.27
616.46	45570.23
616.61	45184.04
616.76	45703.64
616.92	45521.08
617.07	45705.98
617.22	45471.93
617.37	45462.57
617.53	45432.14
617.68	45095.10
617.83	45605.34
617.99	45806.62
618.14	45900.25
618.29	45017.86
618.45	45104.46
618.60	45305.75
618.75	45074.04
618.90	45584.27
619.06	45144.25
619.21	45270.64
619.36	45326.81
619.51	45186.38
619.67	44898.50
619.82	45102.12
619.97	45134.89
620.12	45298.73
620.28	44634.02
620.43	45331.50
620.58	45055.31
620.73	45074.04
620.89	45357.24
621.04	45380.65
621.19	44978.07
621.34	44884.45
621.49	44828.28
621.65	44818.92
621.80	45256.60
621.95	45055.31
622.10	45038.93
622.25	44800.19
622.41	45422.78
622.56	44699.55
622.71	45109.14
622.86	44800.19
623.01	45158.30
623.16	44458.48
623.32	45071.70
623.47	44601.25
623.62	44617.63
623.77	44842.32
623.92	44580.18
624.07	44863.39
624.23	45048.29
624.38	44545.08
624.53	44479.54
624.68	44591.89
624.83	44030.16
624.98	44545.08
625.13	44137.82
625.29	44711.25
625.44	44460.82
625.59	44566.14
625.74	44404.64
625.89	43952.92
626.04	44135.48
626.19	44364.85
626.34	44304.00
626.49	44362.51
626.65	43992.71
626.80	44547.42
626.95	44119.10
627.10	43290.55
627.25	44023.14
627.40	44432.73
627.55	43920.15
627.70	44254.85
627.85	44219.74
628.00	44346.13
628.15	44039.52
628.30	43430.98
628.45	43899.09
628.60	43351.40
628.76	43690.78
628.91	43632.27
629.06	43587.80
629.21	43538.65
629.36	43679.08
629.51	43763.34
629.66	43576.09
629.81	43585.46
629.96	43807.81
630.11	43990.37
630.26	43763.34
630.41	43571.41
630.56	43601.84
630.71	43538.65
630.86	43625.25
631.01	43091.60
631.16	43435.66
631.31	43400.55
631.46	43423.96
631.61	43927.17
631.76	43583.12
631.91	43419.28
632.06	44083.99
632.21	43555.03
632.36	43058.84
632.51	43519.92
632.66	43173.52
632.81	43487.15
632.96	43812.49
633.10	43388.85
633.25	42483.06
633.40	42796.70
633.55	43168.84
633.70	43019.05
633.85	42939.47
634.00	42787.33
634.15	42831.80
634.30	42953.51
634.45	42749.88
634.60	42253.69
634.75	43082.24
634.90	43096.28
635.05	43292.89
635.19	42745.20
635.34	43168.84
635.49	42925.42
635.64	42911.38
635.79	43192.25
635.94	42646.90
636.09	42895.00
636.24	42691.37
636.39	42773.29
636.53	42789.67
636.68	42674.99
636.83	42600.09
636.98	42698.39
637.13	42312.20
637.28	42258.37
637.43	42279.44
637.57	42490.09
637.72	42178.79
637.87	42464.34
638.02	42412.85
638.17	42312.20
638.32	42274.76
638.46	42473.70
638.61	41956.44
638.76	41771.54
638.91	41661.54
639.06	42117.94
639.20	41551.53
639.35	41940.06
639.50	42033.68
639.65	42462.00
639.80	42174.11
639.94	42012.62
640.09	42171.77
640.24	41649.83
640.39	41656.85
640.54	41813.67
640.68	41918.99
640.83	42057.09
640.98	41806.65
641.13	41453.23
641.27	42141.35
641.42	41930.70
641.57	41696.64
641.72	41570.25
641.86	41900.27
642.01	41834.74
642.16	41914.31
642.31	41502.38
642.45	41567.91
642.60	41247.26
642.75	41865.16
642.90	41539.83
643.04	41558.55
643.19	41401.74
643.34	41242.58
643.48	41317.48
643.63	41579.62
643.78	41563.23
643.93	41715.37
644.07	41600.68
644.22	41450.89
644.37	41443.87
644.51	41532.81
644.66	41713.03
644.81	41593.66
644.95	41029.59
645.10	41565.57
645.25	41060.02
645.39	41137.26
645.54	40645.74
645.69	41319.82
645.83	40779.15
645.98	40832.99
646.13	40947.67
646.27	41015.55
646.42	40680.85
646.57	41006.19
646.71	41165.34
646.86	41001.50
647.00	40957.03
647.15	40905.54
647.30	40837.67
647.44	41060.02
647.59	40772.13
647.74	40678.51
647.88	40865.75
648.03	41275.35
648.17	40980.44
648.32	40495.95
648.47	40912.56
648.61	40402.33
648.76	40762.77
648.90	40783.83
649.05	40287.64
649.20	40900.86
649.34	40706.60
649.49	40383.60
649.63	40828.30
649.78	40418.71
649.92	40282.96
650.07	41179.39
650.21	40570.85
650.36	40861.07
650.51	40341.47
650.65	40650.42
650.80	40678.51
650.94	40797.88
651.09	39835.92
651.23	39948.26
651.38	40058.27
651.52	40060.61
651.67	40247.85
651.81	40194.02
651.96	40371.90
652.10	39730.59
652.25	40020.82
652.39	40479.57
652.54	40144.87
652.68	39686.12
652.83	40060.61
652.97	40425.73
653.12	39948.26
653.26	40182.32
653.41	40095.72
653.55	39653.36
653.70	39920.18
653.84	39910.82
653.99	40179.98
654.13	40458.50
654.27	39562.08
654.42	40025.50
654.56	39531.65
654.71	39803.15
654.85	39641.65
655.00	39948.26
655.14	40147.21
655.29	40268.92
655.43	39992.73
655.57	39693.15
655.72	39210.99
655.86	39454.41
656.01	39271.85
656.15	39152.48
656.30	39309.30
656.44	39166.52
656.58	39299.94
656.73	39206.31
656.87	38778.00
657.01	38939.49
657.16	38883.32
657.30	39129.08
657.45	39243.76
657.59	39005.03
657.73	38770.97
657.88	39077.58
658.02	38951.20
658.16	39154.82
658.31	39342.06
658.45	38845.87
658.60	38492.45
658.74	39044.82
658.88	38934.81
659.03	39108.01
659.17	38541.60
659.31	38281.80
659.46	38396.49
659.60	38593.09
659.74	38642.24
659.89	37930.72
660.03	38178.82
660.17	38625.86
660.32	38487.77
660.46	38499.47
660.60	38031.36
660.74	38302.87
660.89	38230.31
661.03	38204.56
661.17	37741.14
661.32	37839.44
661.46	38300.53
661.60	38202.22
661.74	38047.75
661.89	37771.57
662.03	37799.65
662.17	37954.13
662.31	37755.18
662.46	37890.93
662.60	37483.68
662.74	37392.40
662.88	37216.86
663.03	37535.17
663.17	37422.83
663.31	37046.00
663.45	37638.15
663.60	37495.38
663.74	37731.78
663.88	37294.10
664.02	37244.94
664.17	37680.28
664.31	36945.36
664.45	36849.39
664.59	37233.24
664.73	36519.38
664.88	36994.51
665.02	36713.64
665.16	36643.43
665.30	36720.66
665.44	36610.66
665.59	36369.58
665.73	36313.41
665.87	36072.34
666.01	36500.65
666.15	36636.41
666.29	36435.12
666.44	36629.38
666.58	36313.41
666.72	36184.68
666.86	36147.23
667.00	35955.31
667.14	35983.40
667.28	35796.15
667.43	35875.73
667.57	36142.55
667.71	36240.86
667.85	35803.17
667.99	35742.32
668.13	35864.03
668.27	35037.82
668.41	35674.45
668.56	35220.38
668.70	35086.97
668.84	34960.58
668.98	34906.75
669.12	35049.52
669.26	35026.12
669.40	35213.36
669.54	34696.10
669.68	35016.75
669.82	34801.43
669.96	34410.56
670.10	34668.02
670.25	34829.51
670.39	34375.45
670.53	34792.06
670.67	34501.84
670.81	34700.78
670.95	34642.27
671.09	34340.34
671.23	34181.18
671.37	34286.51
671.51	34054.79
671.65	34010.32
671.79	33596.05
671.93	34590.78
672.07	34312.25
672.21	33530.51
672.35	33759.89
672.49	33851.17
672.63	33415.83
672.77	33446.26
672.91	33612.43
673.05	33518.81
673.19	33523.49
673.33	33434.55
673.47	33319.87
673.61	33003.89
673.75	32950.06
673.89	32875.16
674.03	32851.76
674.17	32950.06
674.31	32737.07
674.45	32769.84
674.59	32395.35
674.73	32692.60
674.87	32285.35
675.01	32407.06
675.15	32210.45
675.29	32173.00
675.43	31955.33
675.56	32123.85
675.70	31889.80
675.84	31896.82
675.98	31079.97
676.12	31716.60
676.26	31428.71
676.40	31475.52
676.54	31311.69
676.68	31461.48
676.82	30719.53
676.96	30883.37
677.10	30909.11
677.23	30850.60
677.37	30625.91
677.51	30665.70
677.65	30895.07
677.79	30728.89
677.93	30426.96
678.07	30141.42
678.21	30272.49
678.34	29968.22
678.48	29556.28
678.62	29738.85
678.76	29951.84
678.90	29649.91
679.04	30155.46
679.18	29631.18
679.31	29668.63
679.45	29509.47
679.59	29333.93
679.73	29443.94
679.87	29181.80
680.00	28964.13
680.14	29345.64
680.28	29174.78
680.42	28613.05
680.56	28706.67
680.70	28381.34
680.83	28453.89
680.97	28079.41
681.11	28503.04
681.25	28051.32
681.39	28411.76
681.52	28266.65
681.66	27983.44
681.80	27421.72
681.94	27571.51
682.07	27260.22
682.21	27040.21
682.35	27520.02
682.49	27402.99
682.62	27658.11
682.76	27325.75
682.90	27367.88
683.04	26871.69
683.17	27264.90
683.31	26998.08
683.45	26738.28
683.59	26614.23
683.72	26609.55
683.86	26263.15
684.00	26422.31
684.13	26501.89
684.27	26185.91
684.41	25989.31
684.55	25832.49
684.68	25998.67
684.82	25591.42
684.96	25406.52
685.09	25678.02
685.23	25724.83
685.37	26073.57
685.50	26146.12
685.64	25916.75
685.78	25238.00
685.91	25394.81
686.05	25127.99
686.19	24592.01
686.32	24650.52
686.46	24294.76
686.60	24205.82
686.73	24554.56
686.87	24074.75
687.01	24304.12
687.14	24716.06
687.28	24095.82
687.42	24320.51
687.55	24376.68
687.69	23786.86
687.82	23791.55
687.96	23616.01
688.10	23651.11
688.23	23559.83
688.37	23651.11
688.50	23810.27
688.64	23133.86
688.78	23269.61
688.91	23239.18
689.05	23435.78
689.18	23201.73
689.32	22614.26
689.46	22396.59
689.59	22569.79
689.73	22539.36
689.86	22700.86
690.00	22651.70
690.13	22499.57
690.27	22307.65
690.41	22157.85
690.54	22127.42
690.68	22029.12
690.81	21717.83
690.95	21886.35
691.08	21635.91
691.22	21764.64
691.35	21514.20
691.49	21848.90
691.62	21612.51
691.76	21366.75
691.89	21128.02
692.03	20886.94
692.16	20755.87
692.30	20938.43
692.43	20783.96
692.57	20746.51
692.70	20659.91
692.84	20327.55
692.97	20280.74
693.11	20325.21
693.24	20074.77
693.38	20374.36
693.51	20152.01
693.65	20191.80
693.78	20046.69
693.92	19969.45
694.05	19508.37
694.19	19461.55
694.32	19688.59
694.45	19789.23
694.59	19845.40
694.72	19822.00
694.86	19351.55
694.99	19417.08
695.13	19255.59
695.26	18998.13
695.39	18799.18
695.53	18539.38
695.66	18845.99
695.80	18670.45
695.93	18927.91
696.07	18483.21
696.20	18326.39
696.33	18155.54
696.47	17984.68
696.60	18148.51
696.73	18267.88
696.87	18345.12
697.00	18284.26
697.14	18031.49
697.27	17556.36
697.40	17745.94
697.54	17617.21
697.67	17570.40
697.80	17722.54
697.94	17532.95
698.07	17212.30
698.21	17078.89
698.34	17184.21
698.47	17097.61
698.61	16629.51
698.74	16982.93
698.87	16676.32
699.01	16491.41
699.14	16563.97
699.27	16891.65
699.40	16397.79
699.54	16491.41
699.67	16475.03
699.80	16194.17
699.94	16325.24
700.07	16093.52
700.20	16500.78
700.34	16065.44
700.47	16121.61
700.60	16245.66
700.73	15719.04
700.87	15487.32
701.00	15761.17
701.13	15248.59
701.26	15218.16
701.40	15297.74
701.53	15089.43
701.66	15545.84
701.79	15250.93
701.93	14890.49
702.06	15117.52
702.19	15028.58
702.32	14745.38
702.46	14876.44
702.59	14796.87
702.72	14747.72
702.85	14754.74
702.99	14707.93
703.12	14532.39
703.25	14162.58
703.38	14242.16
703.51	14347.48
703.65	14141.52
703.78	14010.45
703.91	13965.98
704.04	13937.89
704.17	13937.89
704.31	13919.17
704.44	13813.84
704.57	13678.09
704.70	13682.77
704.83	13584.47
704.96	13432.33
705.10	13060.19
705.23	13315.31
>>>>>End Processed Spectral Data<<<<<
