SpectraSuite Data File
++++++++++++++++++++++++++++++++++++
Date: Fri Oct 25 10:48:21 EDT 2013
User: price-jones
Dark Spectrum Present: No
Reference Spectrum Present: No
Number of Sampled Component Spectra: 1
Spectrometers: USB2+H05261
Integration Time (usec): 100000 (USB2+H05261)
Spectra Averaged: 1 (USB2+H05261)
Boxcar Smoothing: 0 (USB2+H05261)
Correct for Electrical Dark: No (USB2+H05261)
Strobe/Lamp Enabled: No (USB2+H05261)
Correct for Detector Non-linearity: No (USB2+H05261)
Correct for Stray Light: No (USB2+H05261)
Number of Pixels in Processed Spectrum: 2048
>>>>>Begin Processed Spectral Data<<<<<
365.73	142.77
365.92	142.77
366.12	142.77
366.32	67.88
366.52	39.79
366.72	100.64
366.91	30.43
367.11	95.96
367.31	0.00
367.51	32.77
367.70	51.49
367.90	72.56
368.10	7.02
368.30	74.90
368.49	32.77
368.69	65.54
368.89	79.58
369.09	30.43
369.28	88.94
369.48	21.06
369.68	74.90
369.87	124.05
370.07	166.18
370.27	128.73
370.47	180.22
370.66	444.70
370.86	418.96
371.06	425.98
371.25	538.32
371.45	442.36
371.65	484.49
371.84	486.83
372.04	444.70
372.24	505.56
372.44	507.90
372.63	561.73
372.83	552.37
373.03	547.69
373.22	575.77
373.42	624.92
373.62	505.56
373.81	606.20
374.01	608.54
374.21	638.97
374.40	554.71
374.60	554.71
374.79	608.54
374.99	697.48
375.19	554.71
375.38	657.69
375.58	624.92
375.78	575.77
375.97	566.41
376.17	739.61
376.37	554.71
376.56	606.20
376.76	613.22
376.95	655.35
377.15	655.35
377.35	653.01
377.54	699.82
377.74	634.29
377.93	681.10
378.13	746.63
378.33	702.16
378.52	791.10
378.72	681.10
378.91	669.39
379.11	730.25
379.31	688.12
379.50	648.33
379.70	699.82
379.89	730.25
380.09	688.12
380.28	725.57
380.48	723.23
380.68	627.26
380.87	755.99
381.07	716.20
381.26	788.76
381.46	671.73
381.65	772.38
381.85	758.33
382.04	711.52
382.24	727.91
382.43	819.19
382.63	711.52
382.83	784.08
383.02	844.93
383.22	763.01
383.41	737.27
383.61	791.10
383.80	795.78
384.00	805.14
384.19	858.98
384.39	908.13
384.58	894.08
384.78	868.34
384.97	788.76
385.17	849.61
385.36	905.79
385.56	849.61
385.75	873.02
385.95	861.32
386.14	880.04
386.34	854.30
386.53	961.96
386.72	800.46
386.92	964.30
387.11	868.34
387.31	880.04
387.50	828.55
387.70	905.79
387.89	863.66
388.09	910.47
388.28	891.74
388.48	873.02
388.67	964.30
388.86	1029.84
389.06	1050.90
389.25	1020.47
389.45	1081.33
389.64	985.37
389.84	990.05
390.03	1050.90
390.22	983.02
390.42	999.41
390.61	973.66
390.81	1050.90
391.00	1027.50
391.19	971.32
391.39	1083.67
391.58	1153.88
391.78	1118.78
391.97	1074.31
392.16	1046.22
392.36	1027.50
392.55	1062.60
392.75	976.00
392.94	1055.58
393.13	1043.88
393.33	959.62
393.52	1100.05
393.71	1123.46
393.91	1200.69
394.10	1151.54
394.29	1156.22
394.49	1181.97
394.68	1294.32
394.88	1256.87
395.07	1249.85
395.26	1219.42
395.46	1177.29
395.65	1252.19
395.84	1217.08
396.04	1170.27
396.23	1109.41
396.42	1196.01
396.62	1256.87
396.81	1245.16
397.00	1334.11
397.19	1313.04
397.39	1390.28
397.58	1352.83
397.77	1472.20
397.97	1556.46
398.16	1460.49
398.35	1533.05
398.55	1455.81
398.74	1519.01
398.93	1612.63
399.12	1558.80
399.32	1495.60
399.51	1455.81
399.70	1565.82
399.90	1495.60
400.09	1643.06
400.28	1629.01
400.47	1675.82
400.67	1558.80
400.86	1629.01
401.05	1687.53
401.24	1717.95
401.44	1753.06
401.63	1764.76
401.82	1706.25
402.01	1717.95
402.21	1785.83
402.40	1776.47
402.59	1851.36
402.78	1795.19
402.97	1701.57
403.17	1776.47
403.36	1827.96
403.55	1802.21
403.74	1900.52
403.93	1956.69
404.13	1959.03
404.32	1879.45
404.51	1930.94
404.70	1926.26
404.89	1923.92
405.09	1959.03
405.28	1959.03
405.47	1947.33
405.66	1963.71
405.85	2026.90
406.05	1975.41
406.24	2005.84
406.43	2050.31
406.62	2120.53
406.81	2157.97
407.00	2069.03
407.20	2040.95
407.39	2085.42
407.58	2146.27
407.77	2165.00
407.96	2326.49
408.15	2256.28
408.34	2335.85
408.54	2289.04
408.73	2258.62
408.92	2338.20
409.11	2282.02
409.30	2237.55
409.49	2298.41
409.68	2352.24
409.87	2335.85
410.07	2326.49
410.26	2392.03
410.45	2422.45
410.64	2385.01
410.83	2539.48
411.02	2665.87
411.21	2672.89
411.40	2473.95
411.59	2775.88
411.78	2565.23
411.98	2546.50
412.17	2672.89
412.36	2670.55
412.55	2768.85
412.74	2897.58
412.93	2703.32
413.12	2619.06
413.31	2850.77
413.50	2911.63
413.69	2850.77
413.88	3023.97
414.07	2911.63
414.26	2986.52
414.45	3070.78
414.64	2918.65
414.83	3084.83
415.02	3087.17
415.22	3150.36
415.41	3192.49
415.60	3272.07
415.79	3225.26
415.98	3323.56
416.17	3194.83
416.36	3328.24
416.55	3325.90
416.74	3307.18
416.93	3293.13
417.12	3365.69
417.31	3396.12
417.50	3403.14
417.69	3396.12
417.88	3459.31
418.07	3323.56
418.26	3454.63
418.45	3543.57
418.64	3471.01
418.83	3559.95
419.02	3555.27
419.21	3571.66
419.39	3719.11
419.58	3482.72
419.77	3569.32
419.96	3765.92
420.15	3794.01
420.34	3672.30
420.53	3763.58
420.72	3981.25
420.91	3960.19
421.10	3850.18
421.29	3960.19
421.48	3775.28
421.67	3913.38
421.86	3939.12
422.05	3852.52
422.24	3920.40
422.43	3784.65
422.61	3833.80
422.80	4011.68
422.99	4007.00
423.18	3934.44
423.37	4182.54
423.56	4021.04
423.75	4049.13
423.94	3976.57
424.13	3878.27
424.32	3885.29
424.50	3925.08
424.69	4173.18
424.88	4142.75
425.07	4021.04
425.26	3850.18
425.45	4018.70
425.64	3999.98
425.83	3927.42
426.01	4177.86
426.20	4065.51
426.39	4161.47
426.58	4049.13
426.77	4070.19
426.96	4002.32
427.15	4161.47
427.33	4248.07
427.52	4194.24
427.71	4245.73
427.90	4196.58
428.09	4252.75
428.28	4177.86
428.46	4248.07
428.65	4102.96
428.84	4351.06
429.03	4271.48
429.22	4210.62
429.40	4393.19
429.59	4210.62
429.78	4044.45
429.97	4070.19
430.16	4100.62
430.34	4175.52
430.53	4236.37
430.72	4351.06
430.91	4341.69
431.10	4500.85
431.28	4547.66
431.47	4685.75
431.66	4713.84
431.85	4470.42
432.03	4706.82
432.22	4968.96
432.41	4568.73
432.60	4697.46
432.79	4837.89
432.97	4894.06
433.16	4865.97
433.35	4861.29
433.54	4641.28
433.72	4744.27
433.91	4631.92
434.10	4873.00
434.28	4814.48
434.47	4875.34
434.66	4910.44
434.85	5011.09
435.03	4999.38
435.22	4992.36
435.41	5114.07
435.59	5083.64
435.78	5163.22
435.97	5191.31
436.16	5444.09
436.34	5102.37
436.53	5221.74
436.72	5291.95
436.90	5004.07
437.09	5277.91
437.28	5041.51
437.46	5343.44
437.65	5252.16
437.84	5228.76
438.02	5233.44
438.21	5179.61
438.40	5308.34
438.58	5504.94
438.77	5378.55
438.96	5284.93
439.14	5638.35
439.33	5778.78
439.52	5717.93
439.70	5706.23
439.89	5783.46
440.08	5825.59
440.26	5830.27
440.45	5825.59
440.63	5940.28
440.82	6071.35
441.01	5944.96
441.19	6097.10
441.38	6066.67
441.57	6115.82
441.75	6324.13
441.94	6420.09
442.12	6392.00
442.31	6595.63
442.50	6394.34
442.68	6321.79
442.87	6438.81
443.05	6560.52
443.24	6520.73
443.43	6399.02
443.61	6532.44
443.80	6810.96
443.98	6487.96
444.17	6384.98
444.35	6574.56
444.54	6700.95
444.73	6581.59
444.91	6588.61
445.10	6546.48
445.28	6576.91
445.47	6436.47
445.65	6509.03
445.84	6434.13
446.02	6621.38
446.21	6511.37
446.39	6665.85
446.58	6796.92
446.77	6663.51
446.95	6548.82
447.14	6972.46
447.32	6897.56
447.51	6874.15
447.69	6707.98
447.88	6881.18
448.06	6913.94
448.25	6885.86
448.43	6857.77
448.62	6761.81
448.80	6825.00
448.99	6986.50
449.17	7119.91
449.36	6843.73
449.54	7091.82
449.73	7190.13
449.91	7304.81
450.10	7253.32
450.28	7234.60
450.46	7229.91
450.65	7431.20
450.83	7440.56
451.02	7386.73
451.20	7239.28
451.39	7311.83
451.57	7295.45
451.76	7403.11
451.94	7351.62
452.13	7342.26
452.31	7473.33
452.49	7300.13
452.68	7316.51
452.86	7243.96
453.05	7391.41
453.23	7461.63
453.42	7538.87
453.60	7318.86
453.78	7492.05
453.97	7503.76
454.15	7473.33
454.34	7555.25
454.52	7517.80
454.70	7782.28
454.89	7737.81
455.07	7681.64
455.26	7698.02
455.44	8018.68
455.62	7791.64
455.81	7805.69
455.99	7915.69
456.17	8180.17
456.36	8112.30
456.54	7971.86
456.73	8074.85
456.91	8189.53
457.09	8205.92
457.28	8411.89
457.46	8072.51
457.64	8329.97
457.83	8269.11
458.01	8255.07
458.19	8566.36
458.38	8278.47
458.56	8334.65
458.74	8198.90
458.93	8299.54
459.11	8348.69
459.29	8315.92
459.48	8451.67
459.66	8634.24
459.84	8524.23
460.03	8667.00
460.21	8561.68
460.39	8774.67
460.57	8580.40
460.76	8828.50
460.94	8767.65
461.12	8762.97
461.31	8879.99
461.49	8744.24
461.67	8681.05
461.85	8992.34
462.04	8800.41
462.22	9151.49
462.40	8837.86
462.59	8990.00
462.77	9015.74
462.95	9100.00
463.13	9118.73
463.32	9076.60
463.50	8975.95
463.68	9092.98
463.86	9160.86
464.05	8908.08
464.23	9256.82
464.41	9226.39
464.59	8990.00
464.78	9423.00
464.96	9266.18
465.14	9231.07
465.32	9359.80
465.50	9380.87
465.69	9399.59
465.87	9282.56
466.05	9282.56
466.23	9231.07
466.41	9226.39
466.60	9554.07
466.78	9352.78
466.96	9317.67
467.14	9444.06
467.32	9661.73
467.51	9640.67
467.69	9369.16
467.87	9605.56
468.05	9771.74
468.23	9678.12
468.41	9607.90
468.60	9619.60
468.78	9516.62
468.96	9518.96
469.14	9872.38
469.32	9928.55
469.50	9657.05
469.69	9973.02
469.87	10003.45
470.05	9980.04
470.23	9980.04
470.41	10068.98
470.59	10031.54
470.77	9900.47
470.95	9923.87
471.14	10335.81
471.32	10284.31
471.50	10333.47
471.68	10417.72
471.86	10530.07
472.04	10417.72
472.22	10759.44
472.40	10429.43
472.58	10579.22
472.77	10476.24
472.95	10829.66
473.13	11021.58
473.31	10597.95
473.49	10494.96
473.67	10775.83
473.85	10810.93
474.03	11007.54
474.21	11145.63
474.39	11183.08
474.57	11145.63
474.75	11213.51
474.93	11513.10
475.12	11300.11
475.30	11545.86
475.48	11405.43
475.66	11461.60
475.84	11269.68
476.02	11555.22
476.20	11733.11
476.38	11927.37
476.56	12128.66
476.74	11915.67
476.92	11955.46
477.10	11946.09
477.28	12114.61
477.46	12093.55
477.64	12402.50
477.82	12461.01
478.00	12945.50
478.18	12793.37
478.36	12877.63
478.54	12891.67
478.72	12898.69
478.90	13039.12
479.08	13322.33
479.26	13270.84
479.44	13369.14
479.62	13582.13
479.80	13418.29
479.98	13647.66
480.16	13858.31
480.34	13776.39
480.52	14022.15
480.70	13961.30
480.88	13977.68
481.06	13921.51
481.24	14064.28
481.41	14178.97
481.59	14438.76
481.77	14642.39
481.95	14504.30
482.13	14743.03
482.31	14806.23
482.49	15379.66
482.67	15157.31
482.85	15150.29
483.03	15461.58
483.21	15681.59
483.39	15527.11
483.57	15550.52
483.74	15880.53
483.92	16063.10
484.10	15901.60
484.28	15868.83
484.46	16554.61
484.64	16507.80
484.82	16435.24
485.00	16711.42
485.18	16599.08
485.35	16765.26
485.53	16386.09
485.71	16402.47
485.89	16524.18
486.07	16547.59
486.25	16786.32
486.43	17102.29
486.61	17144.42
486.78	17415.93
486.96	17439.33
487.14	18141.49
487.32	18101.70
487.50	18319.37
487.68	18457.46
487.85	18609.60
488.03	18803.86
488.21	18778.12
488.39	18647.05
488.57	19250.91
488.75	19075.37
488.92	19300.06
489.10	19527.09
489.28	19569.22
489.46	20070.09
489.64	20128.61
489.81	20496.07
489.99	20292.44
490.17	20554.58
490.35	20636.50
490.53	20498.41
490.70	20816.72
490.88	20985.24
491.06	21338.66
491.24	20697.36
491.41	21088.23
491.59	21376.11
491.77	20893.96
491.95	21362.07
492.13	21226.32
492.30	21848.90
492.48	22078.27
492.66	22097.00
492.84	22008.06
493.01	22539.36
493.19	22492.55
493.37	22583.83
493.54	22602.55
493.72	22845.97
493.90	22930.23
494.08	23302.37
494.25	23477.91
494.43	23726.01
494.61	23737.71
494.79	23981.13
494.96	23798.57
495.14	23618.35
495.32	24135.60
495.49	23810.27
495.67	24269.01
495.85	24540.52
496.02	24687.97
496.20	24645.84
496.38	24793.29
496.55	24879.89
496.73	25284.81
496.91	25406.52
497.09	25495.46
497.26	25535.24
497.44	25553.97
497.62	25607.80
497.79	25738.87
497.97	25411.20
498.14	25916.75
498.32	26022.08
498.50	26230.38
498.67	26499.55
498.85	26527.63
499.03	26380.18
499.20	26548.70
499.38	26974.67
499.56	26628.27
499.73	27197.02
499.91	26810.84
500.08	27145.53
500.26	26859.99
500.44	26995.74
500.61	26899.78
500.79	27110.43
500.97	27695.56
501.14	28044.30
501.32	27812.59
501.49	27683.86
501.67	27620.66
501.84	27955.36
502.02	27534.06
502.20	28304.10
502.37	28489.00
502.55	28554.54
502.72	28634.11
502.90	28418.78
503.07	28266.65
503.25	28631.77
503.43	28603.69
503.60	28699.65
503.78	28833.06
503.95	28470.28
504.13	28903.28
504.30	29200.52
504.48	29418.19
504.65	29612.46
504.83	29551.60
505.01	29560.97
505.18	29572.67
505.36	29455.64
505.53	29771.61
505.71	30370.79
505.88	30459.73
506.06	29420.53
506.23	30031.41
506.41	30012.69
506.58	30529.95
506.76	30504.20
506.93	30471.43
507.11	30202.27
507.28	30574.42
507.46	30462.07
507.63	30501.86
507.81	30572.08
507.98	30710.17
508.16	30829.54
508.33	31197.00
508.50	31047.21
508.68	31599.57
508.85	31711.92
509.03	31672.13
509.20	31456.80
509.38	31826.60
509.55	31810.22
509.73	31831.29
509.90	31955.33
510.08	31711.92
510.25	32067.68
510.42	32437.48
510.60	32177.68
510.77	32402.38
510.95	32388.33
511.12	32079.38
511.30	32837.72
511.47	33146.67
511.64	32847.08
511.82	32919.63
511.99	33212.20
512.17	32924.32
512.34	32938.36
512.51	33216.88
512.69	33149.01
512.86	33413.49
513.04	33493.07
513.21	33165.39
513.38	33209.86
513.56	33340.93
513.73	33240.29
513.90	33912.02
514.08	33509.45
514.25	33675.63
514.43	33830.10
514.60	33745.84
514.77	33806.70
514.95	34394.17
515.12	34436.30
515.29	34005.64
515.47	34541.63
515.64	34642.27
515.81	34522.90
515.99	34494.82
516.16	34356.72
516.33	34541.63
516.51	34368.43
516.68	33825.42
516.85	33970.54
517.03	34192.89
517.20	34515.88
517.37	34883.34
517.54	35218.04
517.72	34738.23
517.89	34679.72
518.06	34691.42
518.24	34909.09
518.41	34916.11
518.58	35110.38
518.75	35257.83
518.93	35522.31
519.10	35473.16
519.27	35255.49
519.45	35512.95
519.62	35901.48
519.79	35812.54
519.96	36095.74
520.14	36517.04
520.31	36091.06
520.48	36093.40
520.65	36070.00
520.83	36156.60
521.00	36357.88
521.17	36392.99
521.34	36933.65
521.52	37160.69
521.69	37160.69
521.86	36919.61
522.03	37043.66
522.20	36856.42
522.38	36692.58
522.55	37219.20
522.72	36868.12
522.89	37347.93
523.07	37310.48
523.24	37177.07
523.41	37476.66
523.58	37441.55
523.75	37965.83
523.92	37804.33
524.10	37383.04
524.27	38197.54
524.44	38190.52
524.61	38199.88
524.78	37816.04
524.96	37928.38
525.13	38307.55
525.30	38749.91
525.47	38696.08
525.64	38270.10
525.81	38190.52
525.98	38667.99
526.16	38033.71
526.33	38089.88
526.50	37961.15
526.67	38078.18
526.84	37883.91
527.01	38323.93
527.18	38621.18
527.36	38817.78
527.53	39213.34
527.70	39370.15
527.87	39122.05
528.04	39105.67
528.21	39168.87
528.38	39250.78
528.55	39559.73
528.72	39728.25
528.89	40076.99
529.07	39625.27
529.24	39082.27
529.41	39271.85
529.58	39353.77
529.75	39468.45
529.92	39445.05
530.09	39482.50
530.26	39449.73
530.43	40030.18
530.60	39536.33
530.77	39805.49
530.94	40123.80
531.11	40079.33
531.28	40123.80
531.46	40348.50
531.63	40105.08
531.80	40350.84
531.97	40175.30
532.14	40458.50
532.31	39920.18
532.48	40357.86
532.65	40547.44
532.82	40502.97
532.99	40940.65
533.16	40051.25
533.33	40439.78
533.50	40657.45
533.67	40643.40
533.84	40608.29
534.01	40638.72
534.18	40725.32
534.35	41078.74
534.52	40699.58
534.69	41390.03
534.86	41371.31
535.03	40858.73
535.20	41336.20
535.37	41291.73
535.54	41677.92
535.71	41277.69
535.88	41549.19
536.05	41425.14
536.22	41701.32
536.38	41883.89
536.55	41371.31
536.72	41312.80
536.89	41155.98
537.06	41223.86
537.23	41916.65
537.40	41736.43
537.57	41574.94
537.74	41544.51
537.91	42347.31
538.08	42270.08
538.25	41752.82
538.42	42080.49
538.59	42129.64
538.75	41645.15
538.92	41801.97
539.09	41645.15
539.26	42146.03
539.43	42340.29
539.60	42459.66
539.77	42466.68
539.94	42174.11
540.11	41902.61
540.28	42150.71
540.44	41991.55
540.61	42190.50
540.78	41823.03
540.95	42174.11
541.12	42487.74
541.29	42623.50
541.46	42595.41
541.62	43297.57
541.79	43021.39
541.96	42464.34
542.13	42635.20
542.30	42726.48
542.47	42969.90
542.63	42527.53
542.80	43187.56
542.97	43049.47
543.14	43391.19
543.31	43208.63
543.48	43402.89
543.64	43768.02
543.81	43807.81
543.98	43353.74
544.15	43643.97
544.32	43454.39
544.48	43931.86
544.65	43709.50
544.82	43725.89
544.99	43896.75
545.16	43473.11
545.32	43833.55
545.49	43924.83
545.66	43508.22
545.83	44079.31
546.00	44554.44
546.16	44140.16
546.33	43894.41
546.50	43627.59
546.67	43746.95
546.83	43835.89
547.00	44044.20
547.17	43866.32
547.34	43929.51
547.50	44170.59
547.67	44278.25
547.84	44060.58
548.00	44748.70
548.17	44385.92
548.34	44074.63
548.51	44374.22
548.67	45071.70
548.84	44645.72
549.01	44641.04
549.18	44414.01
549.34	44414.01
549.51	44591.89
549.68	44657.42
549.84	44957.01
550.01	45235.53
550.18	44570.82
550.34	44940.63
550.51	44575.50
550.68	44697.21
550.84	44418.69
551.01	44641.04
551.18	44893.82
551.34	44762.75
551.51	44959.35
551.68	44807.22
551.84	45010.84
552.01	45219.15
552.18	44870.41
552.34	44821.26
552.51	45031.91
552.68	44842.32
552.84	45507.04
553.01	45425.12
553.18	45008.50
553.34	45057.65
553.51	44591.89
553.67	45240.21
553.84	45617.04
554.01	45549.17
554.17	45780.88
554.34	45347.88
554.51	45352.56
554.67	45289.37
554.84	45106.80
555.00	45408.73
555.17	45504.70
555.33	45628.74
555.50	45244.90
555.67	45244.90
555.83	45361.92
556.00	45509.38
556.16	45783.22
556.33	45879.18
556.50	45839.39
556.66	45752.79
556.83	45050.63
556.99	45382.99
557.16	46181.11
557.32	45710.66
557.49	45975.14
557.65	45778.54
557.82	46092.17
557.98	45956.42
558.15	45659.17
558.32	46492.40
558.48	45818.33
558.65	46026.63
558.81	45675.55
558.98	45900.25
559.14	45240.21
559.31	46010.25
559.47	46316.86
559.64	46548.57
559.80	46206.86
559.97	46211.54
560.13	46005.57
560.30	46270.05
560.46	46204.52
560.63	46293.46
560.79	46167.07
560.96	46302.82
561.12	46176.43
561.29	46160.05
561.45	46281.75
561.61	46248.99
561.78	46248.99
561.94	46045.36
562.11	46174.09
562.27	46117.92
562.44	46288.77
562.60	46553.26
562.77	46473.68
562.93	46461.97
563.10	46672.62
563.26	46469.00
563.42	46667.94
563.59	46199.83
563.75	46293.46
563.92	46361.33
564.08	46934.76
564.24	46607.09
564.41	46274.73
564.57	46492.40
564.74	46614.11
564.90	46906.68
565.07	46473.68
565.23	46424.53
565.39	46557.94
565.56	46522.83
565.72	46401.12
565.88	46876.25
566.05	46689.01
566.21	46644.54
566.38	46600.07
566.54	46281.75
566.70	46780.29
566.87	47140.73
567.03	46754.54
567.19	47112.64
567.36	47002.64
567.52	46403.46
567.68	47253.08
567.85	46265.37
568.01	46693.69
568.17	46415.16
568.34	46260.69
568.50	46447.93
568.66	46691.35
568.83	46770.93
568.99	46604.75
569.15	46267.71
569.32	46731.14
569.48	46099.19
569.64	46796.67
569.81	47285.84
569.97	46787.31
570.13	46902.00
570.30	46499.42
570.46	46298.14
570.62	46403.46
570.78	46754.54
570.95	46508.79
571.11	46721.77
571.27	46555.60
571.43	46705.39
571.60	46625.81
571.76	46909.02
571.92	46431.55
572.09	46602.41
572.25	46621.13
572.41	46710.07
572.57	47178.18
572.74	47058.81
572.90	47000.30
573.06	46813.05
573.22	46969.87
573.38	47267.12
573.55	46801.35
573.71	47105.62
573.87	46927.74
574.03	46485.38
574.20	46866.89
574.36	46593.04
574.52	46862.21
574.68	46705.39
574.84	46923.06
575.01	46560.28
575.17	46841.14
575.33	46351.97
575.49	46796.67
575.65	47136.05
575.82	47084.56
575.98	46822.42
576.14	47187.54
576.30	46995.62
576.46	46614.11
576.62	46862.21
576.79	46763.90
576.95	46197.49
577.11	46658.58
577.27	46707.73
577.43	46618.79
577.59	47026.04
577.75	46763.90
577.92	46454.95
578.08	46368.35
578.24	47004.98
578.40	46466.66
578.56	46637.51
578.72	47056.47
578.88	46953.49
579.04	46892.63
579.21	46918.38
579.37	46983.91
579.53	46714.75
579.69	46836.46
579.85	47138.39
580.01	46803.69
580.17	46962.85
580.33	47063.49
580.49	47159.45
580.65	47136.05
580.82	46981.57
580.98	46897.31
581.14	46735.82
581.30	47147.75
581.46	46782.63
581.62	47194.56
581.78	47051.79
581.94	47573.73
582.10	47217.97
582.26	47215.63
582.42	46927.74
582.58	47330.31
582.74	47241.37
582.90	47372.44
583.06	47667.35
583.22	47086.90
583.38	47185.20
583.54	47201.58
583.70	47154.77
583.86	47065.83
584.02	46845.82
584.18	46899.65
584.34	47175.84
584.50	47093.92
584.66	47299.89
584.82	46944.12
584.98	46930.08
585.14	47164.14
585.30	47068.17
585.46	47026.04
585.62	46656.24
585.78	46658.58
585.94	46356.65
586.10	46794.33
586.26	47000.30
586.42	47147.75
586.58	47234.35
586.74	46969.87
586.90	46742.84
587.06	46878.59
587.22	47175.84
587.38	46913.70
587.54	47501.17
587.70	47178.18
587.86	46944.12
588.02	46817.74
588.18	47423.93
588.34	46871.57
588.49	46223.24
588.65	46424.53
588.81	46492.40
588.97	46431.55
589.13	46426.87
589.29	46356.65
589.45	46913.70
589.61	46911.36
589.77	47098.60
589.93	46651.56
590.08	47124.35
590.24	47065.83
590.40	47157.11
590.56	47056.47
590.72	47533.94
590.88	47107.96
591.04	47016.68
591.20	47051.79
591.35	47409.89
591.51	47379.46
591.67	47253.08
591.83	47129.03
591.99	47044.77
592.15	47091.58
592.31	47159.45
592.46	47070.51
592.62	47047.11
592.78	47414.57
592.94	47540.96
593.10	47519.90
593.26	47419.25
593.41	47091.58
593.57	46946.47
593.73	47000.30
593.89	47178.18
594.05	47159.45
594.20	47154.77
594.36	47496.49
594.52	47398.19
594.68	47290.52
594.84	47007.32
594.99	47681.39
595.15	47042.43
595.31	47466.06
595.47	47138.39
595.62	47278.82
595.78	47620.54
595.94	47555.00
596.10	47585.43
596.25	47711.82
596.41	47772.67
596.57	47353.72
596.73	47026.04
596.88	47168.82
597.04	47222.65
597.20	47224.99
597.36	46965.19
597.51	47697.78
597.67	47388.83
597.83	47763.31
597.99	47253.08
598.14	47159.45
598.30	47519.90
598.46	47269.46
598.61	47079.88
598.77	47044.77
598.93	46810.71
599.09	47098.60
599.24	47402.87
599.40	47098.60
599.56	47437.98
599.71	47491.81
599.87	47856.93
600.03	47522.24
600.18	47351.38
600.34	47323.29
600.50	47173.50
600.65	47016.68
600.81	47611.18
600.97	47814.80
601.12	47569.05
601.28	47587.77
601.44	47517.56
601.59	47166.48
601.75	46955.83
601.91	47187.54
602.06	47267.12
602.22	47236.69
602.37	47515.22
602.53	47274.14
602.69	47501.17
602.84	47241.37
603.00	47159.45
603.16	47360.74
603.31	47381.80
603.47	47185.20
603.62	47386.49
603.78	47636.92
603.94	47430.96
604.09	47213.29
604.25	47414.57
604.40	47220.31
604.56	46995.62
604.71	47597.13
604.87	47140.73
605.03	47587.77
605.18	47173.50
605.34	47309.25
605.49	47037.75
605.65	47171.16
605.80	47168.82
605.96	47136.05
606.12	47129.03
606.27	47159.45
606.43	47056.47
606.58	47100.94
606.74	46866.89
606.89	46993.28
607.05	47208.61
607.20	47260.10
607.36	46873.91
607.51	47903.74
607.67	46932.42
607.82	47229.67
607.98	47313.93
608.13	46663.26
608.29	47028.38
608.44	47002.64
608.60	46328.56
608.75	46754.54
608.91	46658.58
609.06	46464.32
609.22	47152.43
609.37	46476.02
609.53	46972.21
609.68	46923.06
609.84	46396.44
609.99	46843.48
610.15	47124.35
610.30	46674.96
610.46	46141.32
610.61	46916.04
610.76	46909.02
610.92	46780.29
611.07	46424.53
611.23	46335.59
611.38	46635.17
611.54	46593.04
611.69	46202.18
611.84	46241.96
612.00	46426.87
612.15	46394.10
612.31	46181.11
612.46	46564.96
612.62	46738.16
612.77	46518.15
612.92	46351.97
613.08	46082.81
613.23	46759.22
613.39	45914.29
613.54	45860.46
613.69	46085.15
613.85	46000.89
614.00	46476.02
614.15	46415.16
614.31	46237.28
614.46	46314.52
614.62	46298.14
614.77	46171.75
614.92	46344.95
615.08	46012.59
615.23	46096.85
615.38	45904.93
615.54	45827.69
615.69	45551.51
615.84	45492.99
616.00	45874.50
616.15	45968.12
616.30	46017.27
616.46	45453.20
616.61	45612.36
616.76	45619.38
616.92	45830.03
617.07	45333.84
617.22	45649.81
617.37	45647.47
617.53	45855.78
617.68	45984.51
617.83	45867.48
617.99	46005.57
618.14	45591.30
618.29	45787.90
618.45	45373.63
618.60	45373.63
618.75	45570.23
618.90	45296.39
619.06	45790.24
619.21	45698.96
619.36	45797.26
619.51	45954.08
619.67	45352.56
619.82	45701.30
619.97	45507.04
620.12	45179.36
620.28	44725.30
620.43	45097.44
620.58	45240.21
620.73	44893.82
620.89	44975.73
621.04	45188.72
621.19	45429.80
621.34	45228.51
621.49	44285.28
621.65	44957.01
621.80	45081.06
621.95	44886.79
622.10	45081.06
622.25	44994.46
622.41	44589.55
622.56	44697.21
622.71	44971.05
622.86	44975.73
623.01	45055.31
623.16	44811.90
623.32	45038.93
623.47	45109.14
623.62	44762.75
623.77	44591.89
623.92	45074.04
624.07	44318.04
624.23	44561.46
624.38	44329.75
624.53	44399.96
624.68	44594.23
624.83	44762.75
624.98	44699.55
625.13	44203.36
625.29	44732.32
625.44	44556.78
625.59	44095.69
625.74	43768.02
625.89	43927.17
626.04	43819.51
626.19	43985.69
626.34	44238.47
626.49	44296.98
626.65	43674.40
626.80	44296.98
626.95	43964.62
627.10	43784.40
627.25	43723.55
627.40	43519.92
627.55	43400.55
627.70	43220.33
627.85	43302.25
628.00	43871.00
628.15	44334.43
628.30	43475.45
628.45	43887.39
628.60	43503.54
628.76	43580.78
628.91	43978.67
629.06	43676.74
629.21	43557.37
629.36	43559.71
629.51	43117.35
629.66	43168.84
629.81	43131.39
629.96	43412.26
630.11	43325.66
630.26	43653.33
630.41	43192.25
630.56	43260.12
630.71	43468.43
630.86	43524.60
631.01	43407.58
631.16	43180.54
631.31	43129.05
631.46	42518.17
631.61	42728.82
631.76	42831.80
631.91	42918.40
632.06	43325.66
632.21	43548.01
632.36	43264.80
632.51	43072.88
632.66	42967.55
632.81	42792.01
632.96	42857.55
633.10	43082.24
633.25	42611.79
633.40	42696.05
633.55	43320.98
633.70	42703.07
633.85	42895.00
634.00	42852.87
634.15	43037.77
634.30	42883.30
634.45	42745.20
634.60	42588.39
634.75	42674.99
634.90	42529.87
635.05	42997.98
635.19	42501.79
635.34	42848.19
635.49	42183.48
635.64	42169.43
635.79	42131.98
635.94	42534.56
636.09	42604.77
636.24	41907.29
636.39	42375.40
636.53	42239.65
636.68	41937.72
636.83	42373.06
636.98	41958.78
637.13	42092.19
637.28	42417.53
637.43	41890.91
637.57	42480.72
637.72	42120.28
637.87	42330.93
638.02	42305.18
638.17	41921.34
638.32	41600.68
638.46	42040.70
638.61	42082.83
638.76	41596.00
638.91	41493.02
639.06	41130.23
639.20	41722.39
639.35	42005.59
639.50	41708.35
639.65	41860.48
639.80	41663.88
639.94	41579.62
640.09	41521.10
640.24	41450.89
640.39	41347.90
640.54	41083.42
640.68	41338.54
640.83	42057.09
640.98	41134.92
641.13	40809.58
641.27	41900.27
641.42	41455.57
641.57	41436.84
641.72	41497.70
641.86	41111.51
642.01	40886.82
642.16	41137.26
642.31	40832.99
642.45	41497.70
642.60	40957.03
642.75	40737.02
642.90	41198.11
643.04	40582.55
643.19	41074.06
643.34	41453.23
643.48	40851.71
643.63	40973.42
643.78	40774.47
643.93	40615.32
644.07	40514.67
644.22	40662.13
644.37	40676.17
644.51	40774.47
644.66	40900.86
644.81	41102.15
644.95	40978.10
645.10	40692.55
645.25	40910.22
645.39	41060.02
645.54	40500.63
645.69	40767.45
645.83	40479.57
645.98	40786.18
646.13	40194.02
646.27	40491.27
646.42	40336.79
646.57	40194.02
646.71	40430.41
646.86	40421.05
647.00	40444.46
647.15	40587.23
647.30	40664.47
647.44	40535.74
647.59	40219.77
647.74	40133.17
647.88	40006.78
648.03	39697.83
648.17	39927.20
648.32	39466.11
648.47	40165.93
648.61	40259.55
648.76	40041.88
648.90	40196.36
649.05	40219.77
649.20	40306.37
649.34	40060.61
649.49	40308.71
649.63	40084.01
649.78	39810.17
649.92	39681.44
650.07	39997.41
650.21	39817.19
650.36	39627.61
650.51	39793.79
650.65	40261.90
650.80	39908.47
650.94	39852.30
651.09	39831.24
651.23	39526.97
651.38	39459.09
651.52	39620.59
651.67	39749.32
651.81	39388.88
651.96	39498.88
652.10	39124.40
652.25	39115.03
652.39	39164.18
652.54	39557.39
652.68	39421.64
652.83	39466.11
652.97	39608.89
653.12	39615.91
653.26	39398.24
653.41	39283.55
653.55	39405.26
653.70	38967.58
653.84	39145.46
653.99	39524.63
654.13	39342.06
654.27	39051.84
654.42	39005.03
654.56	38965.24
654.71	39159.50
654.85	39442.71
655.00	38476.07
655.14	38557.99
655.29	38506.49
655.43	38422.23
655.57	38190.52
655.72	38382.45
655.86	38298.19
656.01	38356.70
656.15	37968.17
656.30	38251.38
656.44	38340.32
656.58	38284.14
656.73	38403.51
656.87	37998.60
657.01	37706.03
657.16	38319.25
657.30	37986.89
657.45	37696.67
657.59	38019.66
657.73	38033.71
657.88	38288.82
658.02	37914.34
658.16	37750.50
658.31	38295.85
658.45	38129.67
658.60	38445.64
658.74	38518.20
658.88	38078.18
659.03	37446.23
659.17	37497.72
659.31	37933.06
659.46	37839.44
659.60	37869.87
659.74	37422.83
659.89	37376.01
660.03	37488.36
660.17	37677.94
660.32	37670.92
660.46	38190.52
660.60	37968.17
660.74	37617.09
660.89	37834.76
661.03	37397.08
661.17	36935.99
661.32	37069.40
661.46	37420.48
661.60	36952.38
661.74	36907.91
661.89	37017.91
662.03	37364.31
662.17	37191.11
662.31	36914.93
662.46	37074.09
662.60	36893.86
662.74	36765.14
662.88	37046.00
663.03	36495.97
663.17	36620.02
663.31	36201.07
663.45	36671.51
663.60	36830.67
663.74	36278.30
663.88	36123.83
664.02	36603.64
664.17	36170.64
664.31	36016.16
664.45	35842.96
664.59	36645.77
664.73	35924.88
664.88	36297.03
665.02	35805.52
665.16	36275.96
665.30	36119.15
665.44	36170.64
665.59	35536.35
665.73	35786.79
665.87	35620.61
666.01	35644.02
666.15	35412.31
666.29	35615.93
666.44	35360.81
666.58	35501.25
666.72	35393.58
666.86	35473.16
667.00	35629.98
667.14	34958.24
667.28	35143.14
667.43	34946.54
667.57	35035.48
667.71	34944.20
667.85	35136.12
667.99	34684.40
668.13	34763.98
668.27	34586.10
668.41	34761.64
668.56	34555.67
668.70	34742.91
668.84	34368.43
668.98	34223.31
669.12	34422.26
669.26	34787.38
669.40	34258.42
669.54	34094.58
669.68	34227.99
669.82	34195.23
669.96	33787.97
670.10	33802.02
670.25	34092.24
670.39	34410.56
670.53	34024.37
670.67	33638.18
670.81	34071.18
670.95	34319.28
671.09	34232.68
671.23	33888.62
671.37	33582.01
671.51	33282.42
671.65	33551.58
671.79	33551.58
671.93	33170.07
672.07	33656.90
672.21	33156.03
672.35	33186.46
672.49	33441.57
672.63	33097.52
672.77	32870.48
672.91	33057.73
673.05	32425.78
673.19	32809.63
673.33	32765.16
673.47	32568.55
673.61	32280.67
673.75	32165.98
673.89	31873.42
674.03	31749.37
674.17	32032.57
674.31	32245.56
674.45	31978.74
674.59	32268.97
674.73	32198.75
674.87	31842.99
675.01	31889.80
675.15	31859.37
675.29	31913.20
675.43	31842.99
675.56	31590.21
675.70	31639.36
675.84	31328.07
675.98	30476.12
676.12	31260.20
676.26	31412.33
676.40	31063.59
676.54	31255.51
676.68	30637.61
676.82	30560.37
676.96	30213.98
677.10	31051.89
677.23	30251.42
677.37	30455.05
677.51	30132.06
677.65	30291.21
677.79	30239.72
677.93	30494.84
678.07	29855.87
678.21	29483.73
678.34	29947.15
678.48	29624.16
678.62	29610.12
678.76	29544.58
678.90	29378.40
679.04	29413.51
679.18	29383.09
679.31	29055.41
679.45	29249.67
679.59	28357.93
679.73	28929.02
679.87	28826.04
680.00	28858.81
680.14	28760.50
680.28	28631.77
680.42	28531.13
680.56	28570.92
680.70	28318.14
680.83	28203.46
680.97	27697.90
681.11	27931.95
681.25	27683.86
681.39	28119.20
681.52	28041.96
681.66	28156.64
681.80	28149.62
681.94	27466.19
682.07	27101.06
682.21	27337.46
682.35	27283.62
682.49	27395.97
682.62	27154.90
682.76	27044.89
682.90	26675.09
683.04	26958.29
683.17	26951.27
683.31	26670.40
683.45	26586.15
683.59	26424.65
683.72	26635.30
683.86	26115.70
684.00	26249.11
684.13	26143.78
684.27	26326.35
684.41	25898.03
684.55	25933.14
684.68	25645.25
684.82	25537.59
684.96	25287.15
685.09	25755.26
685.23	25205.23
685.37	25106.93
685.50	25383.11
685.64	25443.96
685.78	25296.51
685.91	25359.70
686.05	25111.61
686.19	24709.04
686.32	24718.40
686.46	24304.12
686.60	24170.71
686.73	24226.89
686.87	24046.66
687.01	24147.31
687.14	23866.44
687.28	23814.95
687.42	23702.61
687.55	23686.22
687.69	23655.79
687.82	23506.00
687.96	23758.78
688.10	23431.10
688.23	23192.37
688.37	22895.12
688.50	23236.84
688.64	22918.53
688.78	22881.08
688.91	22485.53
689.05	22988.74
689.18	22562.76
689.32	22338.07
689.46	22937.25
689.59	22742.99
689.73	22600.21
689.86	22485.53
690.00	22473.82
690.13	22555.74
690.27	22476.16
690.41	22197.64
690.54	21612.51
690.68	21830.18
690.81	21701.45
690.95	21862.94
691.08	21710.81
691.22	21731.87
691.35	21752.94
691.49	21937.84
691.62	21769.32
691.76	21394.84
691.89	21275.47
692.03	21661.66
692.16	21294.19
692.30	21053.12
692.43	21074.18
692.57	20589.69
692.70	20877.58
692.84	20498.41
692.97	20243.29
693.11	20430.54
693.24	20273.72
693.38	20290.10
693.51	20283.08
693.65	20444.58
693.78	19992.86
693.92	20025.62
694.05	19948.39
694.19	19875.83
694.32	19573.90
694.45	19814.98
694.59	19599.65
694.72	19499.00
694.86	19391.34
694.99	19426.45
695.13	19325.80
695.26	19096.43
695.39	18731.31
695.53	18899.83
695.66	19037.92
695.80	18956.00
695.93	18864.72
696.07	18396.61
696.20	18991.11
696.33	18534.70
696.47	18424.70
696.60	18417.68
696.73	18164.90
696.87	18307.67
697.00	18352.14
697.14	18328.74
697.27	18436.40
697.40	18171.92
697.54	17975.31
697.67	17963.61
697.80	17675.73
697.94	17755.30
698.07	17788.07
698.21	17673.39
698.34	17790.41
698.47	17532.95
698.61	17252.09
698.74	17212.30
698.87	17287.20
699.01	16802.71
699.14	16540.57
699.27	16863.56
699.40	16805.05
699.54	16641.21
699.67	16739.51
699.80	16737.17
699.94	16390.77
700.07	16748.87
700.20	16390.77
700.34	16311.19
700.47	16173.10
700.60	16341.62
700.73	16205.87
700.87	16187.14
701.00	16074.80
701.13	16060.76
701.26	16063.10
701.40	15913.30
701.53	15761.17
701.66	15761.17
701.79	15660.52
701.93	15477.96
702.06	15269.66
702.19	15578.61
702.32	15466.26
702.46	15126.88
702.59	15037.94
702.72	15183.06
702.85	14862.40
702.99	15314.13
703.12	15311.78
703.25	15084.75
703.38	14995.81
703.51	14747.72
703.65	14787.50
703.78	14728.99
703.91	14600.26
704.04	14511.32
704.17	14464.51
704.31	14373.23
704.44	14153.22
704.57	14174.28
704.70	14106.41
704.83	13973.00
704.96	14075.98
705.10	14312.38
705.23	14195.35
>>>>>End Processed Spectral Data<<<<<
