SpectraSuite Data File
++++++++++++++++++++++++++++++++++++
Date: Fri Oct 25 10:47:31 EDT 2013
User: price-jones
Dark Spectrum Present: No
Reference Spectrum Present: No
Number of Sampled Component Spectra: 1
Spectrometers: USB2+H05261
Integration Time (usec): 100000 (USB2+H05261)
Spectra Averaged: 1 (USB2+H05261)
Boxcar Smoothing: 0 (USB2+H05261)
Correct for Electrical Dark: No (USB2+H05261)
Strobe/Lamp Enabled: No (USB2+H05261)
Correct for Detector Non-linearity: No (USB2+H05261)
Correct for Stray Light: No (USB2+H05261)
Number of Pixels in Processed Spectrum: 2048
>>>>>Begin Processed Spectral Data<<<<<
365.73	128.73
365.92	128.73
366.12	128.73
366.32	117.03
366.52	63.19
366.72	67.88
366.91	42.13
367.11	0.00
367.31	35.11
367.51	0.00
367.70	32.77
367.90	51.49
368.10	46.81
368.30	46.81
368.49	23.41
368.69	119.37
368.89	70.22
369.09	4.68
369.28	98.30
369.48	60.85
369.68	131.07
369.87	98.30
370.07	35.11
370.27	35.11
370.47	231.71
370.66	360.44
370.86	409.59
371.06	538.32
371.25	465.77
371.45	404.91
371.65	418.96
371.84	447.04
372.04	402.57
372.24	456.40
372.44	440.02
372.63	517.26
372.83	461.09
373.03	463.43
373.22	484.49
373.42	454.06
373.62	526.62
373.81	486.83
374.01	545.34
374.21	503.22
374.40	550.03
374.60	573.43
374.79	500.87
374.99	578.11
375.19	477.47
375.38	472.79
375.58	554.71
375.78	510.24
375.97	547.69
376.17	730.25
376.37	538.32
376.56	566.41
376.76	559.39
376.95	594.50
377.15	648.33
377.35	664.71
377.54	578.11
377.74	524.28
377.93	601.52
378.13	566.41
378.33	510.24
378.52	545.34
378.72	667.05
378.91	533.64
379.11	615.56
379.31	627.26
379.50	634.29
379.70	678.76
379.89	732.59
380.09	653.01
380.28	594.50
380.48	767.70
380.68	709.18
380.87	617.90
381.07	645.99
381.26	690.46
381.46	683.44
381.65	641.31
381.85	648.33
382.04	667.05
382.24	662.37
382.43	653.01
382.63	648.33
382.83	571.09
383.02	662.37
383.22	660.03
383.41	716.20
383.61	622.58
383.80	751.31
384.00	732.59
384.19	699.82
384.39	760.67
384.58	730.25
384.78	732.59
384.97	753.65
385.17	709.18
385.36	730.25
385.56	704.50
385.75	732.59
385.95	770.04
386.14	830.89
386.34	758.33
386.53	765.36
386.72	744.29
386.92	828.55
387.11	734.93
387.31	863.66
387.50	819.19
387.70	858.98
387.89	828.55
388.09	763.01
388.28	823.87
388.48	805.14
388.67	858.98
388.86	805.14
389.06	816.85
389.25	919.83
389.45	891.74
389.64	870.68
389.84	882.38
390.03	875.36
390.22	805.14
390.42	915.15
390.61	891.74
390.81	947.92
391.00	903.45
391.19	966.64
391.39	844.93
391.58	833.23
391.78	926.85
391.97	954.94
392.16	887.06
392.36	964.30
392.55	1034.52
392.75	1039.20
392.94	933.87
393.13	961.96
393.33	966.64
393.52	1018.13
393.71	987.71
393.91	1004.09
394.10	1081.33
394.29	1015.79
394.49	1055.58
394.68	1078.99
394.88	1097.71
395.07	1137.50
395.26	1053.24
395.46	1088.35
395.65	1095.37
395.84	1067.28
396.04	1214.74
396.23	1144.52
396.42	1071.97
396.62	1130.48
396.81	1118.78
397.00	1025.15
397.19	1181.97
397.39	1167.93
397.58	1228.78
397.77	1245.16
397.97	1261.55
398.16	1221.76
398.35	1240.48
398.55	1212.40
398.74	1249.85
398.93	1224.10
399.12	1231.12
399.32	1301.34
399.51	1196.01
399.70	1357.51
399.90	1320.06
400.09	1380.92
400.28	1350.49
400.47	1371.55
400.67	1448.79
400.86	1413.68
401.05	1331.76
401.24	1432.41
401.44	1507.30
401.63	1437.09
401.82	1444.11
402.01	1371.55
402.21	1572.84
402.40	1605.61
402.59	1495.60
402.78	1521.35
402.97	1598.59
403.17	1507.30
403.36	1490.92
403.55	1591.56
403.74	1605.61
403.93	1579.86
404.13	1551.78
404.32	1558.80
404.51	1554.12
404.70	1621.99
404.89	1638.38
405.09	1708.59
405.28	1659.44
405.47	1654.76
405.66	1715.61
405.85	1717.95
406.05	1710.93
406.24	1703.91
406.43	1645.40
406.62	1748.38
406.81	1851.36
407.00	1809.23
407.20	1811.57
407.39	1750.72
407.58	1771.79
407.77	1799.87
407.96	1879.45
408.15	1872.43
408.34	1870.09
408.54	1987.11
408.73	2008.18
408.92	1891.15
409.11	2059.67
409.30	2085.42
409.49	1947.33
409.68	1982.43
409.87	1867.75
410.07	2179.04
410.26	2099.46
410.45	2099.46
410.64	2003.50
410.83	2155.63
411.02	2036.27
411.21	2214.15
411.40	2218.83
411.59	2207.13
411.78	2253.94
411.98	2230.53
412.17	2258.62
412.36	2312.45
412.55	2298.41
412.74	2424.80
412.93	2326.49
413.12	2403.73
413.31	2513.74
413.50	2424.80
413.69	2438.84
413.88	2546.50
414.07	2525.44
414.26	2483.31
414.45	2675.23
414.64	2520.76
414.83	2574.59
415.02	2658.85
415.22	2616.72
415.41	2637.78
415.60	2551.18
415.79	2712.68
415.98	2864.82
416.17	2801.62
416.36	2785.24
416.55	2813.32
416.74	2834.39
416.93	2722.04
417.12	2850.77
417.31	2888.22
417.50	2867.16
417.69	2928.01
417.88	2930.35
418.07	3061.42
418.26	2958.44
418.45	2951.42
418.64	3002.91
418.83	3241.64
419.02	3133.98
419.21	3164.40
419.39	3164.40
419.58	3042.70
419.77	3035.67
419.96	3204.19
420.15	3166.74
420.34	3185.47
420.53	3180.79
420.72	3344.63
420.91	3368.03
421.10	3262.71
421.29	3377.39
421.48	3295.47
421.67	3358.67
421.86	3346.97
422.05	3279.09
422.24	3339.94
422.43	3508.46
422.61	3372.71
422.80	3508.46
422.99	3260.37
423.18	3421.86
423.37	3300.16
423.56	3386.76
423.75	3346.97
423.94	3356.33
424.13	3213.56
424.32	3262.71
424.50	3396.12
424.69	3506.12
424.88	3571.66
425.07	3391.44
425.26	3379.73
425.45	3389.10
425.64	3398.46
425.83	3496.76
426.01	3545.91
426.20	3510.80
426.39	3496.76
426.58	3433.57
426.77	3473.36
426.96	3449.95
427.15	3452.29
427.33	3545.91
427.52	3609.11
427.71	3550.59
427.90	3730.81
428.09	3583.36
428.28	3688.68
428.46	3623.15
428.65	3742.52
428.84	3737.84
429.03	3873.59
429.22	3637.19
429.40	3742.52
429.59	3641.87
429.78	3541.23
429.97	3471.01
430.16	3693.37
430.34	3763.58
430.53	3740.18
430.72	3885.29
430.91	3779.97
431.10	3761.24
431.28	3889.97
431.47	4049.13
431.66	4060.83
431.85	3936.78
432.03	4039.76
432.22	4182.54
432.41	4049.13
432.60	4086.58
432.79	4112.32
432.97	4112.32
433.16	4002.32
433.35	4159.13
433.54	4140.41
433.72	4210.62
433.91	4016.36
434.10	4109.98
434.28	4152.11
434.47	4290.20
434.66	4196.58
434.85	4325.31
435.03	4479.79
435.22	4348.72
435.41	4447.02
435.59	4372.12
435.78	4423.61
435.97	4388.50
436.16	4409.57
436.34	4528.94
436.53	4517.23
436.72	4702.14
436.90	4475.10
437.09	4425.95
437.28	4421.27
437.46	4442.34
437.65	4671.71
437.84	4545.32
438.02	4547.66
438.21	4606.17
438.40	4550.00
438.58	4770.01
438.77	4844.91
438.96	4634.26
439.14	4896.40
439.33	4915.12
439.52	4894.06
439.70	5013.43
439.89	5048.54
440.08	4957.25
440.26	5004.07
440.45	4833.21
440.63	5135.14
440.82	5118.75
441.01	5116.41
441.19	5210.03
441.38	5401.96
441.57	5233.44
441.75	5617.29
441.94	5399.62
442.12	5434.72
442.31	5605.58
442.50	5472.17
442.68	5533.03
442.87	5605.58
443.05	5584.52
443.24	5643.03
443.43	5523.66
443.61	5535.37
443.80	5748.36
443.98	5579.84
444.17	5373.87
444.35	5596.22
444.54	5802.19
444.73	5699.20
444.91	5582.18
445.10	5724.95
445.28	5680.48
445.47	5617.29
445.65	5820.91
445.84	5809.21
446.02	5841.98
446.21	5692.18
446.39	5802.19
446.58	5846.66
446.77	5797.51
446.95	5729.63
447.14	5830.27
447.32	5738.99
447.51	5706.23
447.69	5753.04
447.88	5846.66
448.06	5966.03
448.25	5757.72
448.43	5844.32
448.62	5785.80
448.80	5949.64
448.99	5928.58
449.17	5907.51
449.36	6045.60
449.54	5984.75
449.73	6258.59
449.91	6237.53
450.10	6129.86
450.28	6202.42
450.46	6312.42
450.65	6071.35
450.83	6464.56
451.02	6204.76
451.20	6267.95
451.39	6396.68
451.57	6183.70
451.76	6115.82
451.94	6232.85
452.13	6366.26
452.31	6246.89
452.49	6223.48
452.68	6225.82
452.86	6108.80
453.05	6277.32
453.23	6399.02
453.42	6415.41
453.60	6504.35
453.78	6473.92
453.97	6574.56
454.15	6459.88
454.34	6389.66
454.52	6696.27
454.70	6705.63
454.89	6450.52
455.07	6663.51
455.26	6729.04
455.44	6775.85
455.62	6740.74
455.81	6602.65
455.99	6623.72
456.17	6792.23
456.36	6766.49
456.54	6906.92
456.73	6998.20
456.91	7157.36
457.09	7016.93
457.28	7133.95
457.46	6958.41
457.64	7194.81
457.83	7080.12
458.01	7009.90
458.19	7105.87
458.38	7248.64
458.56	7164.38
458.74	7297.79
458.93	7190.13
459.11	7325.88
459.29	7435.88
459.48	7183.10
459.66	7440.56
459.84	7452.27
460.03	7447.58
460.21	7368.01
460.39	7386.73
460.57	7307.15
460.76	7461.63
460.94	7501.42
461.12	7426.52
461.31	7492.05
461.49	7590.36
461.67	7604.40
461.85	7597.38
462.04	7709.72
462.22	8374.44
462.40	7843.14
462.59	7873.56
462.77	7531.84
462.95	7903.99
463.13	7859.52
463.32	7873.56
463.50	7836.11
463.68	7943.78
463.86	7946.12
464.05	7777.60
464.23	7583.34
464.41	8049.10
464.59	7861.86
464.78	8205.92
464.96	8138.04
465.14	8021.02
465.32	8187.19
465.50	8039.74
465.69	8138.04
465.87	8046.76
466.05	8121.66
466.23	8140.38
466.41	8063.15
466.60	8360.39
466.78	8056.12
466.96	8140.38
467.14	8170.81
467.32	8318.26
467.51	8596.79
467.69	8180.17
467.87	8182.51
468.05	8367.42
468.23	8250.39
468.41	8196.56
468.60	8451.67
468.78	8613.17
468.96	8365.07
469.14	8542.96
469.32	8737.22
469.50	8376.78
469.69	8549.98
469.87	8702.11
470.05	8830.84
470.23	8751.26
470.41	8631.90
470.59	8830.84
470.77	8774.67
470.95	8856.59
471.14	8982.98
471.32	8819.14
471.50	9139.79
471.68	8994.68
471.86	9057.87
472.04	9088.30
472.22	9448.74
472.40	9118.73
472.58	9247.46
472.77	9210.01
472.95	9235.75
473.13	9708.54
473.31	9294.27
473.49	9259.16
473.67	9364.48
473.85	9415.98
474.03	9610.24
474.21	9884.08
474.39	9781.10
474.57	9951.96
474.75	9771.74
474.93	9783.44
475.12	9966.00
475.30	9717.90
475.48	10033.88
475.66	9994.09
475.84	9961.32
476.02	9940.26
476.20	9958.98
476.38	10408.36
476.56	10518.37
476.74	10537.09
476.92	10548.79
477.10	10384.96
477.28	10677.52
477.46	10754.76
477.64	10803.91
477.82	10778.17
478.00	10916.26
478.18	11185.42
478.36	11222.87
478.54	11346.92
478.72	11159.67
478.90	11344.58
479.08	11644.17
479.26	11655.87
479.44	11688.64
479.62	11936.73
479.80	11906.31
479.98	11932.05
480.16	12472.71
480.34	11948.43
480.52	12290.15
480.70	12079.50
480.88	12084.19
481.06	12042.06
481.24	12325.26
481.41	12748.90
481.59	12507.82
481.77	12746.56
481.95	12711.45
482.13	12952.52
482.31	12828.48
482.49	13219.35
482.67	12992.31
482.85	13331.69
483.03	13551.70
483.21	13671.07
483.39	13483.83
483.57	13406.59
483.74	13916.83
483.92	13973.00
484.10	14078.32
484.28	14195.35
484.46	14251.52
484.64	14658.78
484.82	14326.42
485.00	14263.22
485.18	14628.35
485.35	14850.70
485.53	14349.82
485.71	14682.18
485.89	15108.16
486.07	15051.99
486.25	15147.95
486.43	15382.00
486.61	15592.65
486.78	15370.30
486.96	15611.37
487.14	15735.42
487.32	15995.22
487.50	16177.78
487.68	16292.47
487.85	16201.19
488.03	16475.03
488.21	16802.71
488.39	16599.08
488.57	16901.01
488.75	16938.46
488.92	17118.68
489.10	17242.73
489.28	17635.94
489.46	17458.06
489.64	17420.61
489.81	18047.87
489.99	18097.02
490.17	18082.98
490.35	18590.88
490.53	18305.33
490.70	18366.18
490.88	18078.30
491.06	18665.77
491.24	18497.25
491.41	18787.48
491.59	18728.97
491.77	18923.23
491.95	19019.19
492.13	19035.58
492.30	19559.86
492.48	19454.53
492.66	19463.90
492.84	19562.20
493.01	19756.46
493.19	19419.42
493.37	20334.57
493.54	20161.37
493.72	20397.77
493.90	20191.80
494.08	20505.43
494.25	20709.06
494.43	20718.42
494.61	21212.28
494.79	21181.85
494.96	21006.31
495.14	21010.99
495.32	21336.32
495.49	21195.89
495.67	21392.50
495.85	21605.49
496.02	21879.33
496.20	22047.85
496.38	21816.13
496.55	22183.60
496.73	22530.00
496.91	22185.94
497.09	22410.63
497.26	22534.68
497.44	22347.44
497.62	22691.49
497.79	23112.79
497.97	22864.69
498.14	22843.63
498.32	23253.22
498.50	23026.19
498.67	23529.41
498.85	23508.34
499.03	23632.39
499.20	23381.95
499.38	23875.80
499.56	23929.64
499.73	23983.47
499.91	24123.90
500.08	24156.67
500.26	23922.62
500.44	24077.09
500.61	24137.94
500.79	24299.44
500.97	24465.62
501.14	24381.36
501.32	24709.04
501.49	24755.85
501.67	24755.85
501.84	24959.47
502.02	24783.93
502.20	25050.75
502.37	25209.91
502.55	25266.08
502.72	25209.91
502.90	25420.56
503.07	25687.38
503.25	25495.46
503.43	25514.18
503.60	25556.31
503.78	25771.64
503.95	25692.06
504.13	25619.50
504.30	26052.50
504.48	26122.72
504.65	26288.90
504.83	26466.78
505.01	26480.82
505.18	26377.84
505.36	26773.39
505.53	26654.02
505.71	26752.32
505.88	26881.05
506.06	26190.59
506.23	26829.56
506.41	26703.17
506.58	27108.08
506.76	27021.48
506.93	26775.73
507.11	27377.25
507.28	27419.38
507.46	27269.58
507.63	27311.71
507.81	27798.54
507.98	27487.25
508.16	27910.89
508.33	27936.63
508.50	27957.70
508.68	27983.44
508.85	27985.79
509.03	28325.16
509.20	28542.83
509.38	28545.17
509.55	28744.12
509.73	28418.78
509.90	28886.89
510.08	28694.97
510.25	28596.67
510.42	28706.67
510.60	29039.03
510.77	29247.33
510.95	29209.89
511.12	28872.85
511.30	29357.34
511.47	29331.59
511.64	29551.60
511.82	29734.17
511.99	29486.07
512.17	29638.20
512.34	29668.63
512.51	29589.05
512.69	30162.48
512.86	29830.13
513.04	29872.26
513.21	30225.68
513.38	30052.48
513.56	29813.74
513.73	30059.50
513.90	30452.71
514.08	30345.05
514.25	30195.25
514.43	30445.69
514.60	30340.36
514.77	30597.82
514.95	30529.95
515.12	30759.32
515.29	30813.15
515.47	31065.93
515.64	30927.84
515.81	30670.38
515.99	31218.07
516.16	30953.58
516.33	31325.73
516.51	31168.91
516.68	31110.40
516.85	30761.66
517.03	31173.60
517.20	31126.78
517.37	31545.74
517.54	31630.00
517.72	32144.92
517.89	31697.88
518.06	31864.05
518.24	30967.63
518.41	31725.96
518.58	31718.94
518.75	31819.58
518.93	32133.21
519.10	32283.01
519.27	32493.66
519.45	32318.12
519.62	32435.14
519.79	32383.65
519.96	32561.53
520.14	33163.05
520.31	32393.01
520.48	32861.12
520.65	32716.01
520.83	33230.93
521.00	33160.71
521.17	33399.44
521.34	33369.02
521.52	33219.22
521.69	33273.06
521.86	33408.81
522.03	33626.48
522.20	33516.47
522.38	33598.39
522.55	33666.27
522.72	33773.93
522.89	33785.63
523.07	33577.33
523.24	33373.70
523.41	33673.29
523.58	33689.67
523.75	34244.38
523.92	34094.58
524.10	34321.62
524.27	34029.05
524.44	34536.94
524.61	34480.77
524.78	34862.28
524.96	34642.27
525.13	34738.23
525.30	35016.75
525.47	35049.52
525.64	34946.54
525.81	35306.98
525.98	34995.69
526.16	34852.92
526.33	35058.88
526.50	35093.99
526.67	34988.67
526.84	34518.22
527.01	34693.76
527.18	35384.22
527.36	35164.21
527.53	35634.66
527.70	35674.45
527.87	35739.98
528.04	35477.84
528.21	35583.16
528.38	35775.09
528.55	35842.96
528.72	35936.59
528.89	35922.54
529.07	35810.20
529.24	35756.36
529.41	36093.40
529.58	35938.93
529.75	35981.06
529.92	36119.15
530.09	36151.91
530.26	36135.53
530.43	36341.50
530.60	36023.19
530.77	35990.42
530.94	36575.55
531.11	36580.23
531.28	36467.89
531.46	36201.07
531.63	36772.16
531.80	36465.55
531.97	36662.15
532.14	36947.70
532.31	36573.21
532.48	36657.47
532.65	37167.71
532.82	37057.70
532.99	37240.26
533.16	36552.15
533.33	37357.29
533.50	37170.05
533.67	37474.32
533.84	37287.07
534.01	37507.08
534.18	37219.20
534.35	37357.29
534.52	37610.07
534.69	37581.98
534.86	37780.93
535.03	37858.17
535.20	37633.47
535.37	37853.48
535.54	37764.54
535.71	37963.49
535.88	37752.84
536.05	38139.03
536.22	37881.57
536.38	38370.74
536.55	37699.01
536.72	38120.31
536.89	37914.34
537.06	37972.85
537.23	38038.39
537.40	37895.61
537.57	38485.43
537.74	38246.69
537.91	38927.79
538.08	38293.50
538.25	38293.50
538.42	38185.84
538.59	38499.47
538.75	38300.53
538.92	38209.25
539.09	39105.67
539.26	38590.75
539.43	38632.88
539.60	38593.09
539.77	38724.16
539.94	39243.76
540.11	38976.94
540.28	38850.55
540.44	38981.62
540.61	38916.09
540.78	38916.09
540.95	39075.24
541.12	39058.86
541.29	38953.54
541.46	39182.91
541.62	38878.64
541.79	39517.60
541.96	39009.71
542.13	39676.76
542.30	39690.80
542.47	39756.34
542.63	39180.57
542.80	39367.81
542.97	39393.56
543.14	40264.24
543.31	39367.81
543.48	39583.14
543.64	40315.73
543.81	40463.18
543.98	40165.93
544.15	40189.34
544.32	40098.06
544.48	40081.67
544.65	40156.57
544.82	40531.06
544.99	39861.66
545.16	39950.60
545.32	40154.23
545.49	40350.84
545.66	40526.38
545.83	40442.12
546.00	40968.74
546.16	40814.26
546.33	40470.20
546.50	40123.80
546.67	40289.98
546.83	40240.83
547.00	40301.68
547.17	40327.43
547.34	40495.95
547.50	40404.67
547.67	41064.70
547.84	40479.57
548.00	40849.37
548.17	40713.62
548.34	40964.06
548.51	41062.36
548.67	41347.90
548.84	41326.84
549.01	41141.94
549.18	40737.02
549.34	41394.71
549.51	41273.01
549.68	41668.56
549.84	41591.32
550.01	41687.28
550.18	41383.01
550.34	41420.46
550.51	41375.99
550.68	41184.07
550.84	41228.54
551.01	41558.55
551.18	41673.24
551.34	41399.40
551.51	41902.61
551.68	41294.07
551.84	41570.25
552.01	41429.82
552.18	41364.29
552.34	41483.66
552.51	42143.69
552.68	41921.34
552.84	42129.64
553.01	41977.51
553.18	41897.93
553.34	41729.41
553.51	41790.27
553.67	42085.17
553.84	42206.88
554.01	41890.91
554.17	42239.65
554.34	42422.21
554.51	42543.92
554.67	42623.50
554.84	42005.59
555.00	42583.71
555.17	42036.02
555.33	42295.82
555.50	42323.91
555.67	42139.00
555.83	42546.26
556.00	42117.94
556.16	42698.39
556.33	42707.76
556.50	42426.89
556.66	42808.40
556.83	42040.70
556.99	42623.50
557.16	42799.04
557.32	42630.52
557.49	42417.53
557.65	42890.32
557.82	42527.53
557.98	42607.11
558.15	42789.67
558.32	42925.42
558.48	42649.24
558.65	42841.17
558.81	42738.18
558.98	42766.27
559.14	42892.66
559.31	42897.34
559.47	42721.80
559.64	43311.61
559.80	43005.00
559.97	43302.25
560.13	42450.30
560.30	42548.60
560.46	42733.50
560.63	43093.94
560.79	43150.12
560.96	43356.08
561.12	42906.70
561.29	43140.75
561.45	43065.86
561.61	43206.29
561.78	43058.84
561.94	43203.95
562.11	43201.61
562.27	43349.06
562.44	42866.91
562.60	43557.37
562.77	43398.21
562.93	43409.92
563.10	43192.25
563.26	43033.09
563.42	43356.08
563.59	43746.95
563.75	43138.41
563.92	43379.49
564.08	43606.52
564.24	43529.28
564.41	42953.51
564.57	42958.19
564.74	43318.64
564.90	43887.39
565.07	43489.49
565.23	43594.82
565.39	43559.71
565.56	43592.48
565.72	43463.75
565.88	43360.76
566.05	43306.93
566.21	43466.09
566.38	43484.81
566.54	43903.77
566.70	43665.03
566.87	43824.19
567.03	43814.83
567.19	43861.64
567.36	43489.49
567.52	43255.44
567.68	43641.63
567.85	43655.67
568.01	43763.34
568.17	43817.17
568.34	43821.85
568.50	43693.12
568.66	44002.07
568.83	43831.21
568.99	43449.70
569.15	43594.82
569.32	43676.74
569.48	43501.20
569.64	43973.98
569.81	43641.63
569.97	43873.34
570.13	43751.63
570.30	43660.35
570.46	43959.94
570.62	43550.35
570.78	43842.92
570.95	43819.51
571.11	44231.44
571.27	43646.31
571.43	43845.26
571.60	44074.63
571.76	44158.89
571.92	43641.63
572.09	43873.34
572.25	43817.17
572.41	43812.49
572.57	44091.01
572.74	44254.85
572.90	43892.07
573.06	43620.56
573.22	44142.50
573.38	44112.08
573.55	44065.27
573.71	44367.20
573.87	43990.37
574.03	43725.89
574.20	44119.10
574.36	43952.92
574.52	43910.79
574.68	44378.90
574.84	43983.35
575.01	43721.21
575.17	44072.29
575.33	44002.07
575.49	43922.49
575.65	44238.47
575.82	44392.94
575.98	43971.64
576.14	44547.42
576.30	44552.10
576.46	43966.96
576.62	43571.41
576.79	43896.75
576.95	43784.40
577.11	44254.85
577.27	44243.15
577.43	44161.23
577.59	44083.99
577.75	44114.42
577.92	43765.68
578.08	43824.19
578.24	44130.80
578.40	43997.39
578.56	43828.87
578.72	44037.18
578.88	44299.32
579.04	43988.03
579.21	44240.81
579.37	44128.46
579.53	44208.04
579.69	43835.89
579.85	44002.07
580.01	44540.39
580.17	44025.48
580.33	44130.80
580.49	44474.86
580.65	44299.32
580.82	44390.60
580.98	44121.44
581.14	44027.82
581.30	44285.28
581.46	44390.60
581.62	44095.69
581.78	44271.23
581.94	44208.04
582.10	44165.91
582.26	44446.77
582.42	44364.85
582.58	44130.80
582.74	43973.98
582.90	44053.56
583.06	44765.09
583.22	43704.82
583.38	44205.70
583.54	44472.52
583.70	44502.95
583.86	43629.93
584.02	44088.67
584.18	44296.98
584.34	43999.73
584.50	44505.29
584.66	44240.81
584.82	44039.52
584.98	44392.94
585.14	44629.34
585.30	44245.49
585.46	44240.81
585.62	44416.35
585.78	44107.40
585.94	44224.42
586.10	44091.01
586.26	43924.83
586.42	44418.69
586.58	44399.96
586.74	44486.56
586.90	43950.58
587.06	44151.87
587.22	44596.57
587.38	44065.27
587.54	44289.96
587.70	44463.16
587.86	44673.81
588.02	44519.33
588.18	44570.82
588.34	44360.17
588.49	44128.46
588.65	43934.20
588.81	43665.03
588.97	44385.92
589.13	44222.08
589.29	44137.82
589.45	43948.24
589.61	44533.37
589.77	44643.38
589.93	44493.58
590.08	44346.13
590.24	44437.41
590.40	44545.08
590.56	44854.03
590.72	44626.99
590.88	44065.27
591.04	44641.04
591.20	44772.11
591.35	44315.70
591.51	44470.18
591.67	44399.96
591.83	44800.19
591.99	44779.13
592.15	44294.64
592.31	44631.68
592.46	44502.95
592.62	44502.95
592.78	44626.99
592.94	44957.01
593.10	44313.36
593.26	44655.08
593.41	44243.15
593.57	44570.82
593.73	45123.19
593.89	44891.48
594.05	44760.40
594.20	44594.23
594.36	44947.65
594.52	44751.04
594.68	44706.57
594.84	44439.75
594.99	45226.17
595.15	44811.90
595.31	44783.81
595.47	44715.93
595.62	44545.08
595.78	44748.70
595.94	44992.12
596.10	44722.96
596.25	44961.69
596.41	44942.97
596.57	44327.41
596.73	44554.44
596.88	44624.65
597.04	44488.90
597.20	44282.94
597.36	44861.05
597.51	45106.80
597.67	44907.86
597.83	45034.25
597.99	44884.45
598.14	45099.78
598.30	44790.83
598.46	44999.14
598.61	44648.06
598.77	44720.62
598.93	44711.25
599.09	44938.29
599.24	45228.51
599.40	45120.85
599.56	44526.35
599.71	44816.58
599.87	44994.46
600.03	44566.14
600.18	44514.65
600.34	44900.84
600.50	45139.57
600.65	44421.03
600.81	44711.25
600.97	45109.14
601.12	45212.13
601.28	45088.08
601.44	44697.21
601.59	44893.82
601.75	44362.51
601.91	44573.16
602.06	44568.48
602.22	44687.85
602.37	44760.40
602.53	44849.35
602.69	44662.10
602.84	44746.36
603.00	44605.93
603.16	44818.92
603.31	44741.68
603.47	44636.36
603.62	44772.11
603.78	45067.02
603.94	44439.75
604.09	45057.65
604.25	44741.68
604.40	44966.37
604.56	44753.38
604.71	44423.37
604.87	44928.92
605.03	44657.42
605.18	44453.79
605.34	44547.42
605.49	44715.93
605.65	44350.81
605.80	44601.25
605.96	44676.15
606.12	44556.78
606.27	45207.45
606.43	44547.42
606.58	44528.69
606.74	44278.25
606.89	44371.88
607.05	44917.22
607.20	44959.35
607.36	44477.20
607.51	44720.62
607.67	44645.72
607.82	44947.65
607.98	44465.50
608.13	44449.11
608.29	44521.67
608.44	44069.95
608.60	43667.37
608.75	44573.16
608.91	44575.50
609.06	44093.35
609.22	44278.25
609.37	44109.74
609.53	44577.84
609.68	44261.87
609.84	44664.44
609.99	44568.48
610.15	44446.77
610.30	44161.23
610.46	44119.10
610.61	44154.21
610.76	44257.19
610.92	43927.17
611.07	43959.94
611.23	44037.18
611.38	43936.54
611.54	43903.77
611.69	44039.52
611.84	43950.58
612.00	43903.77
612.15	44261.87
612.31	44210.38
612.46	43936.54
612.62	44399.96
612.77	44067.61
612.92	44158.89
613.08	43915.47
613.23	43934.20
613.39	43798.44
613.54	43658.01
613.69	43423.96
613.85	43969.30
614.00	44245.49
614.15	44357.83
614.31	44067.61
614.46	44287.62
614.62	43859.30
614.77	43564.39
614.92	43587.80
615.08	43800.79
615.23	43625.25
615.38	43590.14
615.54	43587.80
615.69	43634.61
615.84	43482.47
616.00	43611.20
616.15	43484.81
616.30	43849.94
616.46	43615.88
616.61	43409.92
616.76	43356.08
616.92	43416.94
617.07	43524.60
617.22	43311.61
617.37	43239.06
617.53	43854.62
617.68	43363.11
617.83	43517.58
617.99	43489.49
618.14	43540.99
618.29	43206.29
618.45	43089.26
618.60	43330.34
618.75	43442.68
618.90	43246.08
619.06	43585.46
619.21	43419.28
619.36	43175.86
619.51	43288.21
619.67	43330.34
619.82	43548.01
619.97	43044.79
620.12	42703.07
620.28	42426.89
620.43	42829.46
620.58	43157.14
620.73	42712.44
620.89	42981.60
621.04	42782.65
621.19	42227.95
621.34	42387.10
621.49	42628.18
621.65	42721.80
621.80	43016.71
621.95	42965.21
622.10	42932.45
622.25	42658.60
622.41	42073.47
622.56	42534.56
622.71	42827.12
622.86	42602.43
623.01	42642.22
623.16	42684.35
623.32	42218.58
623.47	43192.25
623.62	42691.37
623.77	42466.68
623.92	42527.53
624.07	42157.73
624.23	41937.72
624.38	42464.34
624.53	42244.33
624.68	42454.98
624.83	42312.20
624.98	42295.82
625.13	42162.41
625.29	41979.85
625.44	42204.54
625.59	42078.15
625.74	41635.79
625.89	41755.16
626.04	41918.99
626.19	41528.13
626.34	42295.82
626.49	42391.78
626.65	42031.34
626.80	42141.35
626.95	42148.37
627.10	41977.51
627.25	41441.53
627.40	41301.09
627.55	41649.83
627.70	41493.02
627.85	41092.79
628.00	42169.43
628.15	41610.04
628.30	41897.93
628.45	42017.30
628.60	41446.21
628.76	41474.29
628.91	41790.27
629.06	41745.80
629.21	41392.37
629.36	41144.28
629.51	41284.71
629.66	41223.86
629.81	41200.45
629.96	41228.54
630.11	41305.77
630.26	41488.34
630.41	41670.90
630.56	41195.77
630.71	41778.56
630.86	41464.93
631.01	40795.54
631.16	41165.34
631.31	40914.90
631.46	40631.70
631.61	41130.23
631.76	41053.00
631.91	41200.45
632.06	40863.41
632.21	41071.72
632.36	41429.82
632.51	40877.46
632.66	40945.33
632.81	40470.20
632.96	40512.33
633.10	40477.22
633.25	40533.40
633.40	40212.74
633.55	40900.86
633.70	40715.96
633.85	40776.81
634.00	40835.33
634.15	40605.95
634.30	40437.44
634.45	40517.01
634.60	40662.13
634.75	40381.26
634.90	40414.03
635.05	40659.79
635.19	40968.74
635.34	40652.76
635.49	40407.01
635.64	40694.89
635.79	40027.84
635.94	40306.37
636.09	40292.32
636.24	40194.02
636.39	39952.94
636.53	40388.28
636.68	39608.89
636.83	39662.72
636.98	40285.30
637.13	40161.25
637.28	40250.19
637.43	40488.93
637.57	40479.57
637.72	39971.67
637.87	40299.34
638.02	40182.32
638.17	40037.20
638.32	39672.08
638.46	39398.24
638.61	39796.13
638.76	39545.69
638.91	39342.06
639.06	39702.51
639.20	39959.97
639.35	39812.51
639.50	39725.91
639.65	39784.43
639.80	39775.06
639.94	39782.09
640.09	39868.69
640.24	39651.02
640.39	39498.88
640.54	39473.13
640.68	39377.17
640.83	39566.76
640.98	39072.90
641.13	39618.25
641.27	40102.74
641.42	39524.63
641.57	39826.56
641.72	38995.67
641.86	38841.19
642.01	39079.92
642.16	39372.49
642.31	38724.16
642.45	39679.10
642.60	38934.81
642.75	39014.39
642.90	39122.05
643.04	38864.60
643.19	39288.23
643.34	39391.22
643.48	39019.07
643.63	39618.25
643.78	38780.34
643.93	38822.47
644.07	38469.04
644.22	38649.27
644.37	38485.43
644.51	38560.33
644.66	38911.41
644.81	38726.50
644.95	38778.00
645.10	39002.69
645.25	38932.47
645.39	39145.46
645.54	38773.31
645.69	38263.08
645.83	38780.34
645.98	38637.56
646.13	38506.49
646.27	38611.82
646.42	38969.92
646.57	38745.23
646.71	38497.13
646.86	38291.16
647.00	38583.73
647.15	38574.37
647.30	38972.26
647.44	38759.27
647.59	38333.29
647.74	38565.01
647.88	38246.69
648.03	38536.92
648.17	38527.56
648.32	38469.04
648.47	38146.05
648.61	38323.93
648.76	38586.07
648.90	38164.78
649.05	38515.86
649.20	38272.44
649.34	38447.98
649.49	38071.15
649.63	38670.33
649.78	38295.85
649.92	37797.31
650.07	38473.73
650.21	37759.86
650.36	38136.69
650.51	37724.75
650.65	38134.35
650.80	38359.04
650.94	37956.47
651.09	38120.31
651.23	37607.73
651.38	38038.39
651.52	37937.74
651.67	37675.60
651.81	37607.73
651.96	37352.61
652.10	37722.41
652.25	38007.96
652.39	37376.01
652.54	37380.70
652.68	37574.96
652.83	38094.56
652.97	37607.73
653.12	37930.72
653.26	37436.87
653.41	37900.29
653.55	37102.17
653.70	37207.50
653.84	37357.29
653.99	37649.86
654.13	37427.51
654.27	37352.61
654.42	37476.66
654.56	36966.42
654.71	37315.16
654.85	37352.61
655.00	37198.13
655.14	37420.48
655.29	36690.24
655.43	36683.22
655.57	36720.66
655.72	36952.38
655.86	37106.85
656.01	36517.04
656.15	36605.98
656.30	36877.48
656.44	36589.59
656.58	37036.64
656.73	36385.97
656.87	36568.53
657.01	36559.17
657.16	36240.86
657.30	36547.47
657.45	36554.49
657.59	36404.69
657.73	36116.81
657.88	36563.85
658.02	36575.55
658.16	36058.29
658.31	36542.78
658.45	36533.42
658.60	36437.46
658.74	36603.64
658.88	36535.76
659.03	35721.26
659.17	35974.03
659.31	35917.86
659.46	36133.19
659.60	36116.81
659.74	36048.93
659.89	35803.17
660.03	35847.64
660.17	36374.27
660.32	36098.08
660.46	36779.18
660.60	36109.78
660.74	35707.21
660.89	35861.69
661.03	35629.98
661.17	35606.57
661.32	35688.49
661.46	35344.43
661.60	35161.87
661.74	35838.28
661.89	35548.06
662.03	35653.38
662.17	35557.42
662.31	34890.37
662.46	35613.59
662.60	35229.74
662.74	35035.48
662.88	35019.10
663.03	35023.78
663.17	35470.82
663.31	35229.74
663.45	34672.70
663.60	34630.57
663.74	34803.77
663.88	34768.66
664.02	34927.81
664.17	34532.26
664.31	34476.09
664.45	34511.20
664.59	34459.71
664.73	34794.40
664.88	34347.36
665.02	33883.94
665.16	34710.14
665.30	34410.56
665.44	34380.13
665.59	34260.76
665.73	33853.51
665.87	33986.92
666.01	34059.48
666.15	34146.08
666.29	33682.65
666.44	33862.87
666.58	34127.35
666.72	33902.66
666.86	34183.52
667.00	34033.73
667.14	33802.02
667.28	33989.26
667.43	33261.35
667.57	33542.22
667.71	33090.49
667.85	33488.38
667.99	33277.74
668.13	33289.44
668.27	33399.44
668.41	33137.30
668.56	32821.33
668.70	33226.24
668.84	33242.63
668.98	32706.65
669.12	32896.23
669.26	32870.48
669.40	32655.15
669.54	32606.00
669.68	32716.01
669.82	33024.96
669.96	32261.94
670.10	32783.88
670.25	32739.41
670.39	32849.42
670.53	32306.41
670.67	32425.78
670.81	32292.37
670.95	32587.28
671.09	32322.80
671.23	32711.33
671.37	31988.10
671.51	32493.66
671.65	32058.32
671.79	31541.06
671.93	31796.18
672.07	31679.15
672.21	31810.22
672.35	31576.17
672.49	32327.48
672.63	31878.10
672.77	31353.82
672.91	31388.92
673.05	31145.51
673.19	31065.93
673.33	31302.32
673.47	31271.90
673.61	31087.00
673.75	30965.29
673.89	30691.44
674.03	30892.73
674.17	30632.93
674.31	30878.69
674.45	30565.06
674.59	30396.54
674.73	31014.44
674.87	30380.15
675.01	30511.22
675.15	30682.08
675.29	30780.39
675.43	30494.84
675.56	30768.68
675.70	30279.51
675.84	29762.25
675.98	29158.39
676.12	29813.74
676.26	29816.08
676.40	29661.61
676.54	29275.42
676.68	29488.41
676.82	29006.26
676.96	29490.75
677.10	29097.54
677.23	29207.55
677.37	29518.84
677.51	29303.51
677.65	29233.29
677.79	28903.28
677.93	28933.70
678.07	28833.06
678.21	28421.13
678.34	28650.50
678.48	28641.14
678.62	28421.13
678.76	28465.60
678.90	28287.71
679.04	28030.26
679.18	28041.96
679.31	28016.21
679.45	27693.22
679.59	27655.77
679.73	27503.64
679.87	27721.30
680.00	27573.85
680.14	27292.99
680.28	27395.97
680.42	26918.50
680.56	27185.32
680.70	27161.92
680.83	27047.23
680.97	26757.00
681.11	27040.21
681.25	27007.44
681.39	26387.20
681.52	26867.01
681.66	26356.77
681.80	26331.03
681.94	26499.55
682.07	26600.19
682.21	25975.27
682.35	25802.07
682.49	26284.22
682.62	26026.76
682.76	25745.89
682.90	25696.74
683.04	25724.83
683.17	25624.18
683.31	25593.76
683.45	26038.46
683.59	25336.30
683.72	25273.10
683.86	25357.36
684.00	25062.46
684.13	25415.88
684.27	25130.33
684.41	25137.35
684.55	24751.17
684.68	24821.38
684.82	24709.04
684.96	24727.76
685.09	24449.24
685.23	24615.41
685.37	24327.53
685.50	24065.39
685.64	24093.47
685.78	23950.70
685.91	24189.44
686.05	24037.30
686.19	23777.50
686.32	24049.00
686.46	23564.51
686.60	23548.13
686.73	23534.09
686.87	23524.72
687.01	23173.64
687.14	23051.94
687.28	22874.06
687.42	23028.53
687.55	23070.66
687.69	22845.97
687.82	22728.94
687.96	22759.37
688.10	22630.64
688.23	22759.37
688.37	22403.61
688.50	22146.15
688.64	22345.09
688.78	22377.86
688.91	22132.11
689.05	22057.21
689.18	21769.32
689.32	21671.02
689.46	21848.90
689.59	22174.24
689.73	22265.52
689.86	21678.04
690.00	21675.70
690.13	21729.53
690.27	21376.11
690.41	21348.03
690.54	20865.88
690.68	21296.53
690.81	20847.15
690.95	21029.71
691.08	20889.28
691.22	20842.47
691.35	20776.94
691.49	21128.02
691.62	20779.28
691.76	21013.33
691.89	20734.81
692.03	20383.73
692.16	20189.46
692.30	20297.13
692.43	20152.01
692.57	19754.12
692.70	19995.20
692.84	19948.39
692.97	19765.82
693.11	19754.12
693.24	19733.06
693.38	19470.92
693.51	19513.05
693.65	19494.32
693.78	19286.01
693.92	19531.77
694.05	18888.12
694.19	19150.26
694.32	18885.78
694.45	18883.44
694.59	18867.06
694.72	18941.96
694.86	18700.88
694.99	18738.33
695.13	18611.94
695.26	18649.39
695.39	18230.43
695.53	18132.13
695.66	18410.65
695.80	18256.18
695.93	18373.21
696.07	18162.56
696.20	18075.96
696.33	18153.20
696.47	18106.38
696.60	17914.46
696.73	17596.15
696.87	17598.49
697.00	17642.96
697.14	17851.27
697.27	17486.14
697.40	17462.74
697.54	17415.93
697.67	17228.68
697.80	17401.88
697.94	17224.00
698.07	16940.80
698.21	16959.52
698.34	17067.19
698.47	16819.09
698.61	16374.39
698.74	16599.08
698.87	16622.48
699.01	16397.79
699.14	16566.31
699.27	16137.99
699.40	16135.65
699.54	16016.29
699.67	15894.58
699.80	16133.31
699.94	15826.70
700.07	16187.14
700.20	15730.74
700.34	15896.92
700.47	15908.62
700.60	15784.57
700.73	15782.23
700.87	15559.88
701.00	15363.28
701.13	15480.30
701.26	15201.78
701.40	15321.15
701.53	15225.18
701.66	15321.15
701.79	14960.70
701.93	14895.17
702.06	14764.10
702.19	14848.36
702.32	14630.69
702.46	14846.02
702.59	14731.33
702.72	14719.63
702.85	14508.98
702.99	14647.07
703.12	14661.12
703.25	14597.92
703.38	14450.47
703.51	14214.07
703.65	14026.83
703.78	14274.93
703.91	13921.51
704.04	14029.17
704.17	13991.72
704.31	13996.40
704.44	13762.35
704.57	13640.64
704.70	13364.46
704.83	13607.87
704.96	13650.00
705.10	13565.74
705.23	13933.21
>>>>>End Processed Spectral Data<<<<<
