SpectraSuite Data File
++++++++++++++++++++++++++++++++++++
Date: Fri Oct 25 11:34:17 EDT 2013
User: price-jones
Dark Spectrum Present: No
Reference Spectrum Present: No
Number of Sampled Component Spectra: 1
Spectrometers: USB2+H05261
Integration Time (usec): 100000 (USB2+H05261)
Spectra Averaged: 1 (USB2+H05261)
Boxcar Smoothing: 0 (USB2+H05261)
Correct for Electrical Dark: No (USB2+H05261)
Strobe/Lamp Enabled: No (USB2+H05261)
Correct for Detector Non-linearity: No (USB2+H05261)
Correct for Stray Light: No (USB2+H05261)
Number of Pixels in Processed Spectrum: 2048
>>>>>Begin Processed Spectral Data<<<<<
365.73	198.95
365.92	198.95
366.12	198.95
366.32	259.80
366.52	161.50
366.72	220.01
366.91	107.66
367.11	191.92
367.31	152.13
367.51	177.88
367.70	196.60
367.90	166.18
368.10	175.54
368.30	198.95
368.49	236.39
368.69	187.24
368.89	189.58
369.09	229.37
369.28	187.24
369.48	201.29
369.68	276.18
369.87	161.50
370.07	198.95
370.27	231.71
370.47	355.76
370.66	496.19
370.86	500.87
371.06	524.28
371.25	592.16
371.45	564.07
371.65	533.64
371.84	545.34
372.04	552.37
372.24	589.82
372.44	503.22
372.63	585.13
372.83	629.60
373.03	514.92
373.22	613.22
373.42	594.50
373.62	564.07
373.81	660.03
374.01	683.44
374.21	688.12
374.40	688.12
374.60	641.31
374.79	641.31
374.99	641.31
375.19	592.16
375.38	746.63
375.58	669.39
375.78	617.90
375.97	702.16
376.17	702.16
376.37	685.78
376.56	699.82
376.76	620.24
376.95	648.33
377.15	688.12
377.35	763.01
377.54	629.60
377.74	720.88
377.93	674.07
378.13	655.35
378.33	709.18
378.52	763.01
378.72	711.52
378.91	793.44
379.11	692.80
379.31	702.16
379.50	643.65
379.70	737.27
379.89	767.70
380.09	725.57
380.28	664.71
380.48	734.93
380.68	720.88
380.87	704.50
381.07	706.84
381.26	800.46
381.46	795.78
381.65	699.82
381.85	744.29
382.04	744.29
382.24	786.42
382.43	798.12
382.63	772.38
382.83	781.74
383.02	847.27
383.22	805.14
383.41	781.74
383.61	866.00
383.80	786.42
384.00	791.10
384.19	784.08
384.39	816.85
384.58	739.61
384.78	842.59
384.97	741.95
385.17	755.99
385.36	861.32
385.56	779.40
385.75	816.85
385.95	786.42
386.14	866.00
386.34	821.53
386.53	898.77
386.72	812.17
386.92	826.21
387.11	781.74
387.31	819.19
387.50	819.19
387.70	903.45
387.89	971.32
388.09	919.83
388.28	908.13
388.48	908.13
388.67	903.45
388.86	894.08
389.06	901.11
389.25	1029.84
389.45	931.53
389.64	931.53
389.84	947.92
390.03	919.83
390.22	936.21
390.42	968.98
390.61	915.15
390.81	828.55
391.00	1013.45
391.19	1001.75
391.39	971.32
391.58	1039.20
391.78	994.73
391.97	1006.43
392.16	994.73
392.36	1046.22
392.55	1025.15
392.75	1069.62
392.94	1029.84
393.13	1046.22
393.33	1041.54
393.52	973.66
393.71	1090.69
393.91	1090.69
394.10	1177.29
394.29	1011.11
394.49	1067.28
394.68	1043.88
394.88	1153.88
395.07	1158.57
395.26	1104.73
395.46	1116.44
395.65	1167.93
395.84	1121.12
396.04	1210.06
396.23	1135.16
396.42	1198.35
396.62	1125.80
396.81	1240.48
397.00	1153.88
397.19	1149.20
397.39	1256.87
397.58	1153.88
397.77	1266.23
397.97	1193.67
398.16	1263.89
398.35	1205.38
398.55	1224.10
398.74	1256.87
398.93	1270.91
399.12	1296.66
399.32	1341.13
399.51	1277.93
399.70	1303.68
399.90	1188.99
400.09	1327.08
400.28	1350.49
400.47	1352.83
400.67	1357.51
400.86	1383.26
401.05	1406.66
401.24	1439.43
401.44	1406.66
401.63	1364.53
401.82	1380.92
402.01	1446.45
402.21	1514.33
402.40	1453.47
402.59	1427.73
402.78	1472.20
402.97	1469.86
403.17	1500.28
403.36	1591.56
403.55	1481.56
403.74	1579.86
403.93	1441.77
404.13	1565.82
404.32	1516.67
404.51	1671.14
404.70	1664.12
404.89	1682.85
405.09	1617.31
405.28	1647.74
405.47	1743.70
405.66	1577.52
405.85	1694.55
406.05	1650.08
406.24	1652.42
406.43	1694.55
406.62	1750.72
406.81	1804.55
407.00	1736.68
407.20	1839.66
407.39	1755.40
407.58	1816.26
407.77	1863.07
407.96	1764.76
408.15	1905.20
408.34	1755.40
408.54	1781.15
408.73	1825.62
408.92	1935.62
409.11	1961.37
409.30	1947.33
409.49	1935.62
409.68	1895.83
409.87	2001.16
410.07	2005.84
410.26	1959.03
410.45	1975.41
410.64	2104.14
410.83	1902.86
411.02	2104.14
411.21	1996.48
411.40	2179.04
411.59	2024.56
411.78	2101.80
411.98	2143.93
412.17	2211.81
412.36	2256.28
412.55	2225.85
412.74	2326.49
412.93	2172.02
413.12	2230.53
413.31	2363.94
413.50	2303.09
413.69	2200.10
413.88	2436.50
414.07	2471.61
414.26	2375.64
414.45	2487.99
414.64	2368.62
414.83	2502.03
415.02	2614.38
415.22	2560.55
415.41	2663.53
415.60	2597.99
415.79	2623.74
415.98	2649.49
416.17	2705.66
416.36	2766.51
416.55	2551.18
416.74	2686.94
416.93	2729.06
417.12	2677.57
417.31	2693.96
417.50	2792.26
417.69	2855.45
417.88	2895.24
418.07	2867.16
418.26	2958.44
418.45	2895.24
418.64	3061.42
418.83	3023.97
419.02	2970.14
419.21	2970.14
419.39	3016.95
419.58	3047.38
419.77	2998.23
419.96	3124.62
420.15	3082.49
420.34	3133.98
420.53	3126.96
420.72	3098.87
420.91	3084.83
421.10	3178.45
421.29	3194.83
421.48	3169.09
421.67	3164.40
421.86	3215.90
422.05	3236.96
422.24	3211.22
422.43	3316.54
422.61	3283.77
422.80	3323.56
422.99	3293.13
423.18	3358.67
423.37	3412.50
423.56	3403.14
423.75	3274.41
423.94	3138.66
424.13	3068.44
424.32	3180.79
424.50	3424.20
424.69	3351.65
424.88	3517.83
425.07	3377.39
425.26	3276.75
425.45	3396.12
425.64	3262.71
425.83	3375.05
426.01	3262.71
426.20	3365.69
426.39	3297.81
426.58	3330.58
426.77	3424.20
426.96	3344.63
427.15	3485.06
427.33	3581.02
427.52	3557.61
427.71	3459.31
427.90	3653.58
428.09	3529.53
428.28	3634.85
428.46	3637.19
428.65	3574.00
428.84	3632.51
429.03	3751.88
429.22	3548.25
429.40	3707.41
429.59	3655.92
429.78	3552.93
429.97	3644.21
430.16	3620.81
430.34	3709.75
430.53	3805.71
430.72	3899.33
430.91	3737.84
431.10	3712.09
431.28	3922.74
431.47	3740.18
431.66	4042.11
431.85	3808.05
432.03	3925.08
432.22	4044.45
432.41	4046.79
432.60	3822.09
432.79	3934.44
432.97	3861.88
433.16	3908.69
433.35	3904.01
433.54	4077.21
433.72	4051.47
433.91	3981.25
434.10	4079.55
434.28	4063.17
434.47	4105.30
434.66	4187.22
434.85	4318.29
435.03	4086.58
435.22	4278.50
435.41	4360.42
435.59	4234.03
435.78	4215.30
435.97	4245.73
436.16	4423.61
436.34	4388.50
436.53	4341.69
436.72	4397.87
436.90	4353.40
437.09	4407.23
437.28	4276.16
437.46	4416.59
437.65	4542.98
437.84	4454.04
438.02	4418.93
438.21	4500.85
438.40	4552.34
438.58	4624.90
438.77	4744.27
438.96	4650.64
439.14	4690.43
439.33	4791.08
439.52	4889.38
439.70	4865.97
439.89	4887.04
440.08	4938.53
440.26	4985.34
440.45	4828.53
440.63	4966.62
440.82	5111.73
441.01	5029.81
441.19	5123.43
441.38	5090.67
441.57	5032.15
441.75	5170.24
441.94	5231.10
442.12	5352.81
442.31	5420.68
442.50	5373.87
442.68	5259.18
442.87	5298.97
443.05	5430.04
443.24	5320.04
443.43	5432.38
443.61	5390.25
443.80	5701.54
443.98	5238.12
444.17	5146.84
444.35	5383.23
444.54	5446.43
444.73	5579.84
444.91	5416.00
445.10	5481.53
445.28	5502.60
445.47	5530.69
445.65	5490.90
445.84	5586.86
446.02	5568.13
446.21	5521.32
446.39	5528.35
446.58	5514.30
446.77	5785.80
446.95	5547.07
447.14	5593.88
447.32	5722.61
447.51	5540.05
447.69	5591.54
447.88	5701.54
448.06	5638.35
448.25	5584.52
448.43	5720.27
448.62	5839.64
448.80	5654.73
448.99	5947.30
449.17	5767.08
449.36	5738.99
449.54	5809.21
449.73	5846.66
449.91	5755.38
450.10	5832.62
450.28	5902.83
450.46	5959.00
450.65	5874.74
450.83	5914.53
451.02	5898.15
451.20	6104.12
451.39	5973.05
451.57	6153.27
451.76	5933.26
451.94	6040.92
452.13	6293.70
452.31	6249.23
452.49	6136.88
452.68	6174.33
452.86	6010.50
453.05	6036.24
453.23	6155.61
453.42	6204.76
453.60	6076.03
453.78	6193.06
453.97	6204.76
454.15	6090.07
454.34	6162.63
454.52	6136.88
454.70	6267.95
454.89	6317.11
455.07	6551.16
455.26	6413.07
455.44	6354.55
455.62	6296.04
455.81	6497.33
455.99	6733.72
456.17	6677.55
456.36	6597.97
456.54	6628.40
456.73	6635.42
456.91	6876.49
457.09	6890.54
457.28	6963.09
457.46	6747.76
457.64	6677.55
457.83	6846.07
458.01	6867.13
458.19	7007.56
458.38	6949.05
458.56	7075.44
458.74	6909.26
458.93	7190.13
459.11	7002.88
459.29	7009.90
459.48	6988.84
459.66	6923.30
459.84	7068.42
460.03	7236.94
460.21	7019.27
460.39	7023.95
460.57	7166.72
460.76	7199.49
460.94	7234.60
461.12	7325.88
461.31	7400.77
461.49	7225.23
461.67	7232.26
461.85	7440.56
462.04	7265.02
462.22	7801.01
462.40	7634.83
462.59	7468.65
462.77	7604.40
462.95	7541.21
463.13	7456.95
463.32	7559.93
463.50	7634.83
463.68	7726.11
463.86	7707.38
464.05	7543.55
464.23	7676.96
464.41	7676.96
464.59	7658.23
464.78	7906.33
464.96	7798.66
465.14	7808.03
465.32	7770.58
465.50	8028.04
465.69	8021.02
465.87	7889.95
466.05	7911.01
466.23	7950.80
466.41	7953.14
466.60	8018.68
466.78	7934.42
466.96	7901.65
467.14	7929.74
467.32	8044.42
467.51	8114.64
467.69	7866.54
467.87	8065.49
468.05	8119.32
468.23	8131.02
468.41	8028.04
468.60	8180.17
468.78	8156.77
468.96	8067.83
469.14	8294.86
469.32	8236.35
469.50	8308.90
469.69	8552.32
469.87	8547.64
470.05	8549.98
470.23	8308.90
470.41	8533.59
470.59	8430.61
470.77	8535.93
470.95	8699.77
471.14	8879.99
471.32	8519.55
471.50	8718.50
471.68	8730.20
471.86	8889.35
472.04	8917.44
472.22	9039.15
472.40	8791.05
472.58	8898.72
472.77	8784.03
472.95	9121.07
473.13	9371.50
473.31	8954.89
473.49	8994.68
473.67	9107.02
473.85	9118.73
474.03	9277.88
474.21	9556.41
474.39	9331.72
474.57	9364.48
474.75	9591.52
474.93	9738.97
475.12	9607.90
475.30	9792.80
475.48	9643.01
475.66	9823.23
475.84	9673.43
476.02	9813.87
476.20	9996.43
476.38	10106.43
476.56	10469.22
476.74	10183.67
476.92	10331.12
477.10	10080.69
477.28	10469.22
477.46	10270.27
477.64	10429.43
477.82	10846.04
478.00	10717.31
478.18	10864.77
478.36	10733.70
478.54	10820.30
478.72	11014.56
478.90	10803.91
479.08	11171.38
479.26	11243.93
479.44	11260.32
479.62	11328.19
479.80	11559.91
479.98	11786.94
480.16	11651.19
480.34	11564.59
480.52	11941.41
480.70	11981.20
480.88	11791.62
481.06	11899.28
481.24	11920.35
481.41	12329.94
481.59	12720.81
481.77	12383.77
481.95	12351.01
482.13	12727.83
482.31	12697.41
482.49	12961.89
482.67	12856.56
482.85	13081.25
483.03	13163.17
483.21	13226.37
483.39	13427.65
483.57	13238.07
483.74	13561.06
483.92	13682.77
484.10	13556.38
484.28	13881.72
484.46	14244.50
484.64	14157.90
484.82	13888.74
485.00	14218.75
485.18	14607.28
485.35	14721.97
485.53	14389.61
485.71	14651.75
485.89	14977.09
486.07	14785.16
486.25	14874.10
486.43	14913.89
486.61	15199.44
486.78	15477.96
486.96	15447.54
487.14	15407.75
487.32	15407.75
487.50	15807.98
487.68	16016.29
487.85	16306.51
488.03	16327.58
488.21	16547.59
488.39	16458.65
488.57	16428.22
488.75	16702.06
488.92	16929.09
489.10	17165.49
489.28	17270.81
489.46	17291.88
489.64	17135.06
489.81	17816.16
489.99	17504.87
490.17	17645.30
490.35	17696.79
490.53	17984.68
490.70	18148.51
490.88	17869.99
491.06	18424.70
491.24	18200.01
491.41	18534.70
491.59	18693.86
491.77	18441.08
491.95	18796.84
492.13	18841.31
492.30	19255.59
492.48	19491.98
492.66	19290.70
492.84	19410.06
493.01	19342.19
493.19	19674.54
493.37	19611.35
493.54	19702.63
493.72	20194.14
493.90	19868.81
494.08	20100.52
494.25	20467.98
494.43	20428.20
494.61	20648.21
494.79	20896.30
494.96	20580.33
495.14	20730.12
495.32	21046.10
495.49	21116.31
495.67	21113.97
495.85	21341.00
496.02	21465.05
496.20	21474.42
496.38	21722.51
496.55	21888.69
496.73	22204.66
496.91	21895.71
497.09	22129.77
497.26	22312.33
497.44	22370.84
497.62	22403.61
497.79	22773.41
497.97	22632.98
498.14	22888.10
498.32	22988.74
498.50	22761.71
498.67	23171.30
498.85	23197.05
499.03	23098.75
499.20	23594.94
499.38	23562.17
499.56	23466.21
499.73	23948.36
499.91	23852.40
500.08	23838.36
500.26	23777.50
500.44	23985.81
500.61	24320.51
500.79	24168.37
500.97	24128.58
501.14	24409.45
501.32	24283.06
501.49	24521.79
501.67	24397.74
501.84	24805.00
502.02	24797.98
502.20	24694.99
502.37	25156.08
502.55	25362.04
502.72	25291.83
502.90	25228.63
503.07	25179.48
503.25	25450.99
503.43	25467.37
503.60	25572.69
503.78	25921.43
503.95	25560.99
504.13	25710.78
504.30	25738.87
504.48	26001.01
504.65	26412.95
504.83	26087.61
505.01	26347.41
505.18	26349.75
505.36	26321.66
505.53	26419.97
505.71	26314.64
505.88	26494.86
506.06	26473.80
506.23	26684.45
506.41	26803.82
506.58	27075.32
506.76	26909.14
506.93	27136.17
507.11	27084.68
507.28	27211.07
507.46	26881.05
507.63	27501.29
507.81	27344.48
507.98	27201.71
508.16	27351.50
508.33	27667.47
508.50	27915.57
508.68	27805.56
508.85	28041.96
509.03	27852.38
509.20	27948.34
509.38	28334.53
509.55	28561.56
509.73	28573.26
509.90	28804.97
510.08	28217.50
510.25	28542.83
510.42	28393.04
510.60	28781.57
510.77	28926.68
510.95	29134.99
511.12	28891.57
511.30	29088.18
511.47	28987.53
511.64	29198.18
511.82	29345.64
511.99	29298.83
512.17	29689.70
512.34	29607.78
512.51	29928.43
512.69	29893.32
512.86	30066.52
513.04	30082.91
513.21	29844.17
513.38	29958.86
513.56	30403.56
513.73	29853.53
513.90	30228.02
514.08	30431.65
514.25	30279.51
514.43	30813.15
514.60	30562.72
514.77	30543.99
514.95	30293.55
515.12	30717.19
515.29	30756.98
515.47	30995.71
515.64	31033.16
515.81	31400.63
515.99	31241.47
516.16	31438.08
516.33	31367.86
516.51	31571.49
516.68	31110.40
516.85	31590.21
517.03	31880.44
517.20	31662.77
517.37	31924.91
517.54	31716.60
517.72	31988.10
517.89	31796.18
518.06	31697.88
518.24	31978.74
518.41	32093.43
518.58	32114.49
518.75	32322.80
518.93	32381.31
519.10	32173.00
519.27	32390.67
519.45	32580.26
519.62	32470.25
519.79	32748.78
519.96	32643.45
520.14	32559.19
520.31	32507.70
520.48	32971.13
520.65	33001.55
520.83	33504.77
521.00	33380.72
521.17	33362.00
521.34	33579.67
521.52	33415.83
521.69	33429.87
521.86	33823.08
522.03	33724.78
522.20	33790.31
522.38	33881.60
522.55	33848.83
522.72	33649.88
522.89	34319.28
523.07	34265.44
523.24	34305.23
523.41	34188.21
523.58	34220.97
523.75	34464.39
523.92	34593.12
524.10	34274.80
524.27	34693.76
524.44	35171.23
524.61	34838.87
524.78	34710.14
524.96	35133.78
525.13	35019.10
525.30	35033.14
525.47	35068.25
525.64	34866.96
525.81	35166.55
525.98	35229.74
526.16	35063.57
526.33	34927.81
526.50	35431.03
526.67	35054.20
526.84	35339.75
527.01	35604.23
527.18	35028.46
527.36	36039.57
527.53	35997.44
527.70	36411.71
527.87	35962.33
528.04	35997.44
528.21	35271.87
528.38	35866.37
528.55	36353.20
528.72	35723.60
528.89	36100.42
529.07	35885.09
529.24	36182.34
529.41	36376.61
529.58	36608.32
529.75	36451.50
529.92	36779.18
530.09	36194.04
530.26	36669.17
530.43	36680.88
530.60	36180.00
530.77	36650.45
530.94	36760.45
531.11	37078.77
531.28	36732.37
531.46	37034.30
531.63	37130.26
531.80	37207.50
531.97	36903.23
532.14	37137.28
532.31	37008.55
532.48	37404.10
532.65	37425.17
532.82	37090.47
532.99	37591.34
533.16	37146.64
533.33	37493.04
533.50	37301.12
533.67	37340.91
533.84	37476.66
534.01	37525.81
534.18	37493.04
534.35	37724.75
534.52	37724.75
534.69	37979.87
534.86	38363.72
535.03	37909.66
535.20	38239.67
535.37	38211.59
535.54	38756.93
535.71	38160.09
535.88	38600.12
536.05	38286.48
536.22	38726.50
536.38	38305.21
536.55	38330.95
536.72	38068.81
536.89	38574.37
537.06	38366.06
537.23	38932.47
537.40	38316.91
537.57	38576.71
537.74	38478.41
537.91	38857.57
538.08	39089.29
538.25	38572.03
538.42	39040.14
538.59	38892.68
538.75	39021.41
538.92	39168.87
539.09	38927.79
539.26	39175.89
539.43	39517.60
539.60	39643.99
539.77	39367.81
539.94	40039.54
540.11	39531.65
540.28	39508.24
540.44	39615.91
540.61	39847.62
540.78	39519.95
540.95	39725.91
541.12	39592.50
541.29	39915.50
541.46	39864.00
541.62	39772.72
541.79	39810.17
541.96	39962.31
542.13	39672.08
542.30	39643.99
542.47	40172.96
542.63	40079.33
542.80	40512.33
542.97	40451.48
543.14	40825.96
543.31	40442.12
543.48	40886.82
543.64	40687.87
543.81	40697.24
543.98	40985.12
544.15	40818.94
544.32	40769.79
544.48	40765.11
544.65	40975.76
544.82	41102.15
544.99	40678.51
545.16	40961.72
545.32	41027.25
545.49	41354.93
545.66	41345.56
545.83	41420.46
546.00	41436.84
546.16	41109.17
546.33	41205.13
546.50	41401.74
546.67	41223.86
546.83	41469.61
547.00	41326.84
547.17	41453.23
547.34	41797.29
547.50	41469.61
547.67	42127.30
547.84	41851.12
548.00	42005.59
548.17	42216.24
548.34	41703.67
548.51	42211.56
548.67	41933.04
548.84	41598.34
549.01	42316.89
549.18	42129.64
549.34	41963.46
549.51	42237.31
549.68	42361.36
549.84	42101.56
550.01	42464.34
550.18	42141.35
550.34	42693.71
550.51	42241.99
550.68	42557.96
550.84	41853.46
551.01	42412.85
551.18	42590.73
551.34	42391.78
551.51	42548.60
551.68	42330.93
551.84	42682.01
552.01	42490.09
552.18	42522.85
552.34	42417.53
552.51	42773.29
552.68	42476.04
552.84	42520.51
553.01	42948.83
553.18	42459.66
553.34	42391.78
553.51	42834.14
553.67	42794.36
553.84	43281.19
554.01	43178.20
554.17	43192.25
554.34	43358.42
554.51	43257.78
554.67	43519.92
554.84	43522.26
555.00	43241.40
555.17	43072.88
555.33	43491.83
555.50	43133.73
555.67	43367.79
555.83	43379.49
556.00	43154.80
556.16	43833.55
556.33	43655.67
556.50	43571.41
556.66	43407.58
556.83	43484.81
556.99	43304.59
557.16	43871.00
557.32	43957.60
557.49	44147.18
557.65	43306.93
557.82	43871.00
557.98	43938.88
558.15	43625.25
558.32	44161.23
558.48	43835.89
558.65	43985.69
558.81	44329.75
558.98	43737.59
559.14	44032.50
559.31	44105.06
559.47	43931.86
559.64	43831.21
559.80	43945.90
559.97	44418.69
560.13	44030.16
560.30	44065.27
560.46	44397.62
560.63	44383.58
560.79	44175.27
560.96	44208.04
561.12	44313.36
561.29	44336.77
561.45	44486.56
561.61	44329.75
561.78	44257.19
561.94	44491.24
562.11	44332.09
562.27	44451.45
562.44	44395.28
562.60	44832.96
562.77	44847.00
562.93	44388.26
563.10	44790.83
563.26	44477.20
563.42	44879.77
563.59	44577.84
563.75	44617.63
563.92	44697.21
564.08	44662.10
564.24	45155.96
564.41	44641.04
564.57	44884.45
564.74	44886.79
564.90	44357.83
565.07	44744.02
565.23	44802.53
565.39	44765.09
565.56	44844.66
565.72	44631.68
565.88	44568.48
566.05	44699.55
566.21	45013.18
566.38	45130.21
566.54	45120.85
566.70	44842.32
566.87	44945.31
567.03	44652.74
567.19	45059.99
567.36	45036.59
567.52	44989.78
567.68	45226.17
567.85	44935.95
568.01	45265.96
568.17	44919.56
568.34	45516.40
568.50	45275.32
568.66	44987.44
568.83	44825.94
568.99	45216.81
569.15	44947.65
569.32	45284.68
569.48	45340.86
569.64	45139.57
569.81	45261.28
569.97	45181.70
570.13	45109.14
570.30	45170.00
570.46	45614.70
570.62	45605.34
570.78	45638.11
570.95	45392.35
571.11	45759.81
571.27	45249.58
571.43	45420.44
571.60	45251.92
571.76	45134.89
571.92	45382.99
572.09	45287.03
572.25	45312.77
572.41	45212.13
572.57	45572.57
572.74	45766.84
572.90	45422.78
573.06	45839.39
573.22	45588.95
573.38	45773.86
573.55	45773.86
573.71	45694.28
573.87	45851.09
574.03	45394.69
574.20	45724.71
574.36	45436.82
574.52	45457.88
574.68	45591.30
574.84	45710.66
575.01	46138.98
575.17	45675.55
575.33	45993.87
575.49	45361.92
575.65	45703.64
575.82	45752.79
575.98	45787.90
576.14	45837.05
576.30	45921.31
576.46	46113.23
576.62	45921.31
576.79	45626.40
576.95	45535.12
577.11	45404.05
577.27	45621.72
577.43	45734.07
577.59	45867.48
577.75	45720.02
577.92	45495.33
578.08	45722.37
578.24	45610.02
578.40	45860.46
578.56	45968.12
578.72	45808.96
578.88	45907.27
579.04	46010.25
579.21	45818.33
579.37	46202.18
579.53	45895.56
579.69	45624.06
579.85	45294.05
580.01	45975.14
580.17	45427.46
580.33	45869.82
580.49	46148.34
580.65	46209.20
580.82	45656.83
580.98	46028.98
581.14	45909.61
581.30	45588.95
581.46	46312.18
581.62	45722.37
581.78	45897.91
581.94	45942.38
582.10	45961.10
582.26	45900.25
582.42	46000.89
582.58	45944.72
582.74	45970.46
582.90	46099.19
583.06	46124.94
583.22	45855.78
583.38	45902.59
583.54	46096.85
583.70	45886.20
583.86	46127.28
584.02	45855.78
584.18	46590.70
584.34	46206.86
584.50	46251.33
584.66	45949.40
584.82	46096.85
584.98	46604.75
585.14	46288.77
585.30	46003.23
585.46	45659.17
585.62	46052.38
585.78	46129.62
585.94	45890.88
586.10	46419.84
586.26	45612.36
586.42	46010.25
586.58	45827.69
586.74	45954.08
586.90	45539.80
587.06	45668.53
587.22	46066.42
587.38	45982.16
587.54	46513.47
587.70	46263.03
587.86	46141.32
588.02	46424.53
588.18	45872.16
588.34	46431.55
588.49	46021.95
588.65	46209.20
588.81	46237.28
588.97	46518.15
589.13	45837.05
589.29	45961.10
589.45	46368.35
589.61	46550.91
589.77	46068.76
589.93	46050.04
590.08	46707.73
590.24	46478.36
590.40	46747.52
590.56	46574.32
590.72	46845.82
590.88	46380.06
591.04	46773.27
591.20	46396.44
591.35	46656.24
591.51	46429.21
591.67	46576.66
591.83	47016.68
591.99	46447.93
592.15	46415.16
592.31	46665.60
592.46	46225.58
592.62	46333.24
592.78	46808.37
592.94	46660.92
593.10	46972.21
593.26	47100.94
593.41	46569.64
593.57	46384.74
593.73	46990.94
593.89	47086.90
594.05	46873.91
594.20	46806.03
594.36	47166.48
594.52	46930.08
594.68	46520.49
594.84	46586.02
594.99	46997.96
595.15	46644.54
595.31	46925.40
595.47	46831.78
595.62	46766.24
595.78	46298.14
595.94	46948.81
596.10	46747.52
596.25	46780.29
596.41	47037.75
596.57	46483.04
596.73	47295.21
596.88	47430.96
597.04	46354.31
597.20	46557.94
597.36	46674.96
597.51	46679.64
597.67	46728.80
597.83	46799.01
597.99	46576.66
598.14	46866.89
598.30	46731.14
598.46	46969.87
598.61	46761.56
598.77	46937.10
598.93	46925.40
599.09	47007.32
599.24	47264.78
599.40	47217.97
599.56	47599.47
599.71	47494.15
599.87	47171.16
600.03	46939.44
600.18	46836.46
600.34	46892.63
600.50	46581.34
600.65	47007.32
600.81	46822.42
600.97	47236.69
601.12	46981.57
601.28	47203.92
601.44	47047.11
601.59	46972.21
601.75	47056.47
601.91	46890.29
602.06	47107.96
602.22	47229.67
602.37	46986.25
602.53	47037.75
602.69	46927.74
602.84	46967.53
603.00	46714.75
603.16	46815.40
603.31	46948.81
603.47	46841.14
603.62	47093.92
603.78	46979.23
603.94	47255.42
604.09	46756.88
604.25	46614.11
604.40	46607.09
604.56	46995.62
604.71	46759.22
604.87	46707.73
605.03	46684.33
605.18	46766.24
605.34	46948.81
605.49	46499.42
605.65	47360.74
605.80	46672.62
605.96	46501.76
606.12	47143.07
606.27	47416.91
606.43	46806.03
606.58	47019.02
606.74	46726.46
606.89	46717.09
607.05	46965.19
607.20	46934.76
607.36	46745.18
607.51	46789.65
607.67	46836.46
607.82	46866.89
607.98	46717.09
608.13	46211.54
608.29	46457.29
608.44	47091.58
608.60	46820.08
608.75	47215.63
608.91	46700.71
609.06	46368.35
609.22	46649.22
609.37	46501.76
609.53	47124.35
609.68	47138.39
609.84	46281.75
609.99	46380.06
610.15	46541.55
610.30	46424.53
610.46	46586.02
610.61	46501.76
610.76	46691.35
610.92	46213.88
611.07	46452.61
611.23	46670.28
611.38	46595.38
611.54	46705.39
611.69	46763.90
611.84	46543.89
612.00	46213.88
612.15	46197.49
612.31	46253.67
612.46	45991.53
612.62	46153.02
612.77	46373.03
612.92	46843.48
613.08	46445.59
613.23	46258.35
613.39	46337.93
613.54	46131.96
613.69	46782.63
613.85	46073.45
614.00	46176.43
614.15	46571.98
614.31	46373.03
614.46	46363.67
614.62	46153.02
614.77	46038.34
614.92	46363.67
615.08	46293.46
615.23	46300.48
615.38	46124.94
615.54	45876.84
615.69	46199.83
615.84	46366.01
616.00	46300.48
616.15	46768.58
616.30	46094.51
616.46	45886.20
616.61	45940.04
616.76	46391.76
616.92	45862.80
617.07	46361.33
617.22	46092.17
617.37	45797.26
617.53	46043.02
617.68	45591.30
617.83	45834.71
617.99	46251.33
618.14	46291.12
618.29	45495.33
618.45	45467.25
618.60	45717.68
618.75	45083.40
618.90	45359.58
619.06	45694.28
619.21	45956.42
619.36	45921.31
619.51	45567.89
619.67	45226.17
619.82	45603.00
619.97	45907.27
620.12	45460.23
620.28	45530.44
620.43	45457.88
620.58	45612.36
620.73	45492.99
620.89	45514.06
621.04	46031.32
621.19	45448.52
621.34	45310.43
621.49	45282.34
621.65	45347.88
621.80	45354.90
621.95	45560.87
622.10	45268.30
622.25	45317.45
622.41	45221.49
622.56	45261.28
622.71	45490.65
622.86	45488.31
623.01	45294.05
623.16	45109.14
623.32	45233.19
623.47	45450.86
623.62	45214.47
623.77	45078.72
623.92	45521.08
624.07	45209.79
624.23	44959.35
624.38	45214.47
624.53	45179.36
624.68	45188.72
624.83	44844.66
624.98	44935.95
625.13	44729.98
625.29	44603.59
625.44	45153.62
625.59	45151.27
625.74	44741.68
625.89	44769.77
626.04	44825.94
626.19	44493.58
626.34	44816.58
626.49	44388.26
626.65	44439.75
626.80	44458.48
626.95	44624.65
627.10	44217.40
627.25	44744.02
627.40	44378.90
627.55	44533.37
627.70	44381.24
627.85	44519.33
628.00	44385.92
628.15	44446.77
628.30	44083.99
628.45	44002.07
628.60	44121.44
628.76	44556.78
628.91	43976.33
629.06	43658.01
629.21	44095.69
629.36	43913.13
629.51	44123.78
629.66	44828.28
629.81	44545.08
629.96	44411.67
630.11	44189.31
630.26	44076.97
630.41	43983.35
630.56	43632.27
630.71	44163.57
630.86	43854.62
631.01	43370.13
631.16	43835.89
631.31	43758.66
631.46	43730.57
631.61	44362.51
631.76	43969.30
631.91	44041.86
632.06	44182.29
632.21	44273.57
632.36	44105.06
632.51	43922.49
632.66	43856.96
632.81	43550.35
632.96	43484.81
633.10	43562.05
633.25	43845.26
633.40	43817.17
633.55	43871.00
633.70	43662.69
633.85	43540.99
634.00	43236.72
634.15	43522.26
634.30	43335.02
634.45	43328.00
634.60	43360.76
634.75	43669.72
634.90	43356.08
635.05	43105.65
635.19	43384.17
635.34	43360.76
635.49	43309.27
635.64	43393.53
635.79	43578.43
635.94	42948.83
636.09	43454.39
636.24	43138.41
636.39	42749.88
636.53	43112.67
636.68	43229.69
636.83	42527.53
636.98	42768.61
637.13	42923.08
637.28	42536.90
637.43	42548.60
637.57	42763.93
637.72	43049.47
637.87	42787.33
638.02	43110.33
638.17	42869.25
638.32	42707.76
638.46	42335.61
638.61	42682.01
638.76	42398.80
638.91	42801.38
639.06	42738.18
639.20	42155.39
639.35	42539.24
639.50	42134.32
639.65	42534.56
639.80	42993.30
639.94	42342.63
640.09	42927.77
640.24	42820.10
640.39	42321.57
640.54	41670.90
640.68	42396.46
640.83	42604.77
640.98	42000.91
641.13	42014.96
641.27	42246.67
641.42	42197.52
641.57	42309.86
641.72	42124.96
641.86	42162.41
642.01	41914.31
642.16	41984.53
642.31	42005.59
642.45	42096.88
642.60	42021.98
642.75	41764.52
642.90	41848.78
643.04	41965.81
643.19	41773.88
643.34	41806.65
643.48	41663.88
643.63	41855.80
643.78	42167.09
643.93	42284.12
644.07	41823.03
644.22	42234.97
644.37	41731.75
644.51	42209.22
644.66	41794.95
644.81	41916.65
644.95	41682.60
645.10	41635.79
645.25	41219.17
645.39	41605.36
645.54	41085.76
645.69	41177.04
645.83	41282.37
645.98	41263.64
646.13	40912.56
646.27	41570.25
646.42	41015.55
646.57	41207.47
646.71	41476.63
646.86	41766.86
647.00	41305.77
647.15	41867.50
647.30	41244.92
647.44	41605.36
647.59	41193.43
647.74	40903.20
647.88	41600.68
648.03	41553.87
648.17	41493.02
648.32	41539.83
648.47	41191.09
648.61	40528.72
648.76	40669.15
648.90	40940.65
649.05	41090.44
649.20	40577.87
649.34	41010.87
649.49	41235.56
649.63	41088.10
649.78	41366.63
649.92	41050.66
650.07	41455.57
650.21	41165.34
650.36	41132.57
650.51	40711.28
650.65	40957.03
650.80	41062.36
650.94	40655.11
651.09	40318.07
651.23	40488.93
651.38	40524.04
651.52	40095.72
651.67	40790.86
651.81	40320.41
651.96	40730.00
652.10	40046.57
652.25	40458.50
652.39	40140.19
652.54	40601.27
652.68	40437.44
652.83	40266.58
652.97	40821.28
653.12	40154.23
653.26	40210.40
653.41	40547.44
653.55	40163.59
653.70	40524.04
653.84	40355.52
653.99	40584.89
654.13	40732.34
654.27	40224.45
654.42	40072.31
654.56	40072.31
654.71	40465.52
654.85	40154.23
655.00	40388.28
655.14	40318.07
655.29	39957.63
655.43	40034.86
655.57	39997.41
655.72	39805.49
655.86	39587.82
656.01	39704.85
656.15	39667.40
656.30	39725.91
656.44	39728.25
656.58	39840.60
656.73	39938.90
656.87	39693.15
657.01	39524.63
657.16	39866.34
657.30	39442.71
657.45	40130.83
657.59	39503.56
657.73	39276.53
657.88	39330.36
658.02	39812.51
658.16	39896.77
658.31	39899.11
658.45	39569.10
658.60	39239.08
658.74	39199.29
658.88	39370.15
659.03	39133.76
659.17	38841.19
659.31	39068.22
659.46	38969.92
659.60	39208.65
659.74	38885.66
659.89	38541.60
660.03	38850.55
660.17	39304.62
660.32	38749.91
660.46	38478.41
660.60	38316.91
660.74	38522.88
660.89	38869.28
661.03	38452.66
661.17	38359.04
661.32	37860.51
661.46	38490.11
661.60	38204.56
661.74	38375.42
661.89	38288.82
662.03	38148.39
662.17	38232.65
662.31	38160.09
662.46	38260.74
662.60	38155.41
662.74	37436.87
662.88	37933.06
663.03	37226.22
663.17	38284.14
663.31	37589.00
663.45	37792.63
663.60	37790.29
663.74	37642.84
663.88	37640.50
664.02	37284.73
664.17	37993.92
664.31	37289.42
664.45	37177.07
664.59	37401.76
664.73	37488.36
664.88	37411.12
665.02	37069.40
665.16	37387.72
665.30	37085.79
665.44	37062.38
665.59	36917.27
665.73	36411.71
665.87	36191.70
666.01	36322.77
666.15	36828.33
666.29	36526.40
666.44	36797.90
666.58	36524.06
666.72	36416.40
666.86	36500.65
667.00	36292.35
667.14	36512.36
667.28	36409.37
667.43	36025.53
667.57	35665.08
667.71	36320.43
667.85	36299.37
667.99	36416.40
668.13	35791.47
668.27	35887.43
668.41	35498.91
668.56	35512.95
668.70	35421.67
668.84	35559.76
668.98	35398.26
669.12	35716.58
669.26	35192.30
669.40	35253.15
669.54	35435.71
669.68	35644.02
669.82	35637.00
669.96	35072.93
670.10	34890.37
670.25	34881.00
670.39	34396.51
670.53	34991.01
670.67	34792.06
670.81	35344.43
670.95	35424.01
671.09	34660.99
671.23	34719.51
671.37	34733.55
671.51	34506.52
671.65	34567.37
671.79	34646.95
671.93	34696.10
672.07	34459.71
672.21	34286.51
672.35	33783.29
672.49	34223.31
672.63	34195.23
672.77	33532.86
672.91	34080.54
673.05	33792.65
673.19	33457.96
673.33	33589.03
673.47	33472.00
673.61	33336.25
673.75	33219.22
673.89	33443.91
674.03	33102.20
674.17	32645.79
674.31	32638.77
674.45	33113.90
674.59	32926.66
674.73	32711.33
674.87	32524.08
675.01	32617.71
675.15	32299.39
675.29	32360.25
675.43	32189.39
675.56	32676.22
675.70	32247.90
675.84	32418.76
675.98	31187.64
676.12	32290.03
676.26	31688.51
676.40	31960.02
676.54	31550.42
676.68	31566.81
676.82	31145.51
676.96	31920.23
677.10	31672.13
677.23	31351.48
677.37	31452.12
677.51	31494.25
677.65	31042.53
677.79	31007.42
677.93	30941.88
678.07	30778.04
678.21	30508.88
678.34	30742.94
678.48	30092.27
678.62	30349.73
678.76	30284.19
678.90	30022.05
679.04	30192.91
679.18	30239.72
679.31	29736.51
679.45	30141.42
679.59	29586.71
679.73	29802.04
679.87	29467.34
680.00	29497.77
680.14	29291.80
680.28	29507.13
680.42	29364.36
680.56	29001.58
680.70	28938.38
680.83	28510.07
680.97	29034.35
681.11	28617.73
681.25	28510.07
681.39	28477.30
681.52	28542.83
681.66	27988.13
681.80	27843.01
681.94	27747.05
682.07	27791.52
682.21	27608.96
682.35	27445.12
682.49	27632.36
682.62	27943.66
682.76	27831.31
682.90	27524.70
683.04	27452.14
683.17	27197.02
683.31	27225.11
683.45	27108.08
683.59	26864.67
683.72	26469.12
683.86	26590.83
684.00	26511.25
684.13	26906.80
684.27	26375.50
684.41	26239.75
684.55	26483.16
684.68	26384.86
684.82	25902.71
684.96	26347.41
685.09	26321.66
685.23	26096.97
685.37	26089.95
685.50	25977.61
685.64	25736.53
685.78	25855.90
685.91	25443.96
686.05	25329.28
686.19	24496.05
686.32	25245.02
686.46	24676.27
686.60	25013.31
686.73	25060.12
686.87	24720.74
687.01	24748.82
687.14	24559.24
687.28	24617.75
687.42	24512.43
687.55	24659.88
687.69	24381.36
687.82	24247.95
687.96	23974.11
688.10	23875.80
688.23	23985.81
688.37	24191.78
688.50	23974.11
688.64	23550.47
688.78	23541.11
688.91	23377.27
689.05	23513.02
689.18	22953.63
689.32	22841.29
689.46	22492.55
689.59	22939.59
689.73	23145.56
689.86	22998.10
690.00	23019.17
690.13	22747.67
690.27	22555.74
690.41	22747.67
690.54	22548.72
690.68	22328.71
690.81	22239.77
690.95	22272.54
691.08	21830.18
691.22	21724.85
691.35	21647.61
691.49	21614.85
691.62	21869.97
691.76	21205.25
691.89	21296.53
692.03	21228.66
692.16	21167.80
692.30	21177.17
692.43	21067.16
692.57	20704.38
692.70	20915.03
692.84	20980.56
692.97	20659.91
693.11	20201.16
693.24	20273.72
693.38	20458.62
693.51	20320.53
693.65	20238.61
693.78	19946.05
693.92	20020.94
694.05	19887.53
694.19	19775.19
694.32	19901.58
694.45	19901.58
694.59	20002.22
694.72	20112.22
694.86	19541.13
694.99	19421.77
695.13	19267.29
695.26	19066.00
695.39	19112.81
695.53	19346.87
695.66	19211.12
695.80	18906.85
695.93	18831.95
696.07	18829.61
696.20	18455.12
696.33	18326.39
696.47	18572.15
696.60	18464.49
696.73	18448.10
696.87	18359.16
697.00	18363.84
697.14	18228.09
697.27	17834.88
697.40	17734.24
697.54	17984.68
697.67	17724.88
697.80	17813.82
697.94	17528.27
698.07	17497.84
698.21	17291.88
698.34	17287.20
698.47	17291.88
698.61	16662.27
698.74	17022.72
698.87	17104.64
699.01	16844.84
699.14	16842.50
699.27	16748.87
699.40	16875.26
699.54	16627.17
699.67	16648.23
699.80	16514.82
699.94	16203.53
700.07	16308.85
700.20	16383.75
700.34	16189.49
700.47	16210.55
700.60	16133.31
700.73	16098.20
700.87	15967.13
701.00	15597.33
701.13	15552.86
701.26	15667.55
701.40	15786.91
701.53	15461.58
701.66	15377.32
701.79	15470.94
701.93	15140.93
702.06	15173.69
702.19	15000.49
702.32	15136.24
702.46	15023.90
702.59	15014.54
702.72	14899.85
702.85	15023.90
702.99	15002.83
703.12	14717.29
703.25	14621.33
703.38	14448.13
703.51	14640.05
703.65	14485.58
703.78	14160.24
703.91	14139.18
704.04	14164.92
704.17	13729.58
704.31	13708.52
704.44	13858.31
704.57	13844.27
704.70	14019.81
704.83	13692.13
704.96	13401.91
705.10	13687.45
705.23	13528.30
>>>>>End Processed Spectral Data<<<<<
