SpectraSuite Data File
++++++++++++++++++++++++++++++++++++
Date: Fri Oct 25 11:33:57 EDT 2013
User: price-jones
Dark Spectrum Present: No
Reference Spectrum Present: No
Number of Sampled Component Spectra: 1
Spectrometers: USB2+H05261
Integration Time (usec): 100000 (USB2+H05261)
Spectra Averaged: 1 (USB2+H05261)
Boxcar Smoothing: 0 (USB2+H05261)
Correct for Electrical Dark: No (USB2+H05261)
Strobe/Lamp Enabled: No (USB2+H05261)
Correct for Detector Non-linearity: No (USB2+H05261)
Correct for Stray Light: No (USB2+H05261)
Number of Pixels in Processed Spectrum: 2048
>>>>>Begin Processed Spectral Data<<<<<
365.73	313.63
365.92	313.63
366.12	313.63
366.32	189.58
366.52	180.22
366.72	238.73
366.91	135.75
367.11	175.54
367.31	98.30
367.51	182.56
367.70	229.37
367.90	168.52
368.10	196.60
368.30	191.92
368.49	194.26
368.69	163.84
368.89	126.39
369.09	117.03
369.28	271.50
369.48	220.01
369.68	262.14
369.87	224.69
370.07	266.82
370.27	285.55
370.47	353.42
370.66	477.47
370.86	543.00
371.06	538.32
371.25	615.56
371.45	617.90
371.65	528.96
371.84	505.56
372.04	559.39
372.24	641.31
372.44	601.52
372.63	610.88
372.83	662.37
373.03	645.99
373.22	613.22
373.42	608.54
373.62	603.86
373.81	599.18
374.01	674.07
374.21	552.37
374.40	601.52
374.60	660.03
374.79	645.99
374.99	620.24
375.19	578.11
375.38	594.50
375.58	727.91
375.78	657.69
375.97	730.25
376.17	706.84
376.37	697.48
376.56	660.03
376.76	697.48
376.95	737.27
377.15	669.39
377.35	718.54
377.54	674.07
377.74	681.10
377.93	650.67
378.13	690.46
378.33	798.12
378.52	660.03
378.72	706.84
378.91	664.71
379.11	697.48
379.31	601.52
379.50	744.29
379.70	730.25
379.89	741.95
380.09	777.06
380.28	730.25
380.48	751.31
380.68	737.27
380.87	660.03
381.07	744.29
381.26	758.33
381.46	791.10
381.65	727.91
381.85	734.93
382.04	812.17
382.24	800.46
382.43	772.38
382.63	791.10
382.83	816.85
383.02	840.25
383.22	861.32
383.41	802.80
383.61	814.51
383.80	716.20
384.00	828.55
384.19	847.27
384.39	847.27
384.58	840.25
384.78	828.55
384.97	828.55
385.17	833.23
385.36	772.38
385.56	833.23
385.75	826.21
385.95	802.80
386.14	837.91
386.34	915.15
386.53	870.68
386.72	830.89
386.92	947.92
387.11	954.94
387.31	856.64
387.50	877.70
387.70	847.27
387.89	816.85
388.09	884.72
388.28	877.70
388.48	805.14
388.67	887.06
388.86	966.64
389.06	873.02
389.25	947.92
389.45	931.53
389.64	990.05
389.84	1015.79
390.03	919.83
390.22	980.68
390.42	931.53
390.61	1081.33
390.81	940.90
391.00	1060.26
391.19	1006.43
391.39	999.41
391.58	1034.52
391.78	1156.22
391.97	1078.99
392.16	1034.52
392.36	1029.84
392.55	1107.07
392.75	957.28
392.94	1057.92
393.13	1125.80
393.33	1064.94
393.52	1132.82
393.71	1057.92
393.91	1144.52
394.10	1109.41
394.29	1177.29
394.49	1090.69
394.68	1090.69
394.88	1193.67
395.07	1083.67
395.26	1203.04
395.46	1008.77
395.65	1177.29
395.84	1139.84
396.04	1160.91
396.23	1174.95
396.42	1212.40
396.62	1207.72
396.81	1196.01
397.00	1186.65
397.19	1228.78
397.39	1268.57
397.58	1254.53
397.77	1336.45
397.97	1284.95
398.16	1228.78
398.35	1371.55
398.55	1287.29
398.74	1238.14
398.93	1362.19
399.12	1280.27
399.32	1268.57
399.51	1313.04
399.70	1289.64
399.90	1401.98
400.09	1432.41
400.28	1336.45
400.47	1327.08
400.67	1291.98
400.86	1430.07
401.05	1378.58
401.24	1458.15
401.44	1350.49
401.63	1500.28
401.82	1427.73
402.01	1511.99
402.21	1497.94
402.40	1413.68
402.59	1472.20
402.78	1451.13
402.97	1479.22
403.17	1570.50
403.36	1504.96
403.55	1563.48
403.74	1572.84
403.93	1521.35
404.13	1638.38
404.32	1526.03
404.51	1617.31
404.70	1692.21
404.89	1582.20
405.09	1685.19
405.28	1652.42
405.47	1715.61
405.66	1767.10
405.85	1675.82
406.05	1743.70
406.24	1724.97
406.43	1659.44
406.62	1907.54
406.81	1792.85
407.00	1750.72
407.20	1739.02
407.39	1849.02
407.58	1886.47
407.77	1877.11
407.96	1926.26
408.15	1937.96
408.34	1762.42
408.54	1926.26
408.73	1905.20
408.92	1923.92
409.11	1937.96
409.30	1991.80
409.49	1919.24
409.68	1907.54
409.87	1851.36
410.07	2108.82
410.26	1984.77
410.45	1977.75
410.64	2047.97
410.83	2176.70
411.02	2076.06
411.21	2071.37
411.40	2153.29
411.59	2209.47
411.78	2120.53
411.98	2092.44
412.17	2249.25
412.36	2289.04
412.55	2422.45
412.74	2256.28
412.93	2356.92
413.12	2284.36
413.31	2434.16
413.50	2303.09
413.69	2296.07
413.88	2525.44
414.07	2422.45
414.26	2443.52
414.45	2455.22
414.64	2471.61
414.83	2518.42
415.02	2523.10
415.22	2668.21
415.41	2675.23
415.60	2787.58
415.79	2649.49
415.98	2670.55
416.17	2738.43
416.36	2747.79
416.55	2761.83
416.74	2745.45
416.93	2862.48
417.12	2827.37
417.31	2724.38
417.50	2775.88
417.69	2909.29
417.88	2916.31
418.07	2944.39
418.26	3026.31
418.45	3012.27
418.64	3012.27
418.83	3023.97
419.02	3007.59
419.21	3094.19
419.39	3040.36
419.58	3042.70
419.77	3054.40
419.96	3038.02
420.15	3082.49
420.34	3279.09
420.53	3199.51
420.72	3293.13
420.91	3166.74
421.10	3325.90
421.29	3229.94
421.48	3178.45
421.67	3255.69
421.86	3281.43
422.05	3262.71
422.24	3267.39
422.43	3316.54
422.61	3442.93
422.80	3318.88
422.99	3325.90
423.18	3297.81
423.37	3403.14
423.56	3318.88
423.75	3213.56
423.94	3339.94
424.13	3033.33
424.32	3169.09
424.50	3431.23
424.69	3433.57
424.88	3440.59
425.07	3307.18
425.26	3463.99
425.45	3321.22
425.64	3377.39
425.83	3410.16
426.01	3421.86
426.20	3475.70
426.39	3445.27
426.58	3440.59
426.77	3478.04
426.96	3566.98
427.15	3496.76
427.33	3566.98
427.52	3456.97
427.71	3550.59
427.90	3599.74
428.09	3644.21
428.28	3756.56
428.46	3641.87
428.65	3646.55
428.84	3700.39
429.03	3906.35
429.22	3662.94
429.40	3730.81
429.59	3702.73
429.78	3634.85
429.97	3599.74
430.16	3744.86
430.34	3866.56
430.53	3936.78
430.72	3866.56
430.91	3889.97
431.10	3859.54
431.28	3955.51
431.47	3854.86
431.66	4037.42
431.85	3896.99
432.03	4093.60
432.22	4014.02
432.41	4049.13
432.60	4035.08
432.79	4021.04
432.97	4105.30
433.16	3948.48
433.35	4007.00
433.54	4016.36
433.72	4217.65
433.91	4304.25
434.10	4161.47
434.28	4081.89
434.47	4205.94
434.66	4355.74
434.85	4360.42
435.03	4346.37
435.22	4276.16
435.41	4531.28
435.59	4390.84
435.78	4449.36
435.97	4470.42
436.16	4304.25
436.34	4428.29
436.53	4514.89
436.72	4608.51
436.90	4521.92
437.09	4491.49
437.28	4444.68
437.46	4505.53
437.65	4421.27
437.84	4636.60
438.02	4587.45
438.21	4690.43
438.40	4512.55
438.58	4652.98
438.77	4781.71
438.96	4699.80
439.14	4683.41
439.33	4938.53
439.52	4919.81
439.70	4812.14
439.89	4931.51
440.08	4809.80
440.26	5043.85
440.45	4826.18
440.63	5146.84
440.82	5186.63
441.01	5100.03
441.19	5219.39
441.38	5315.36
441.57	5259.18
441.75	5247.48
441.94	5425.36
442.12	5425.36
442.31	5383.23
442.50	5469.83
442.68	5488.56
442.87	5413.66
443.05	5458.13
443.24	5544.73
443.43	5575.16
443.61	5406.64
443.80	5755.38
443.98	5479.19
444.17	5172.58
444.35	5671.12
444.54	5650.05
444.73	5598.56
444.91	5537.71
445.10	5617.29
445.28	5685.16
445.47	5486.22
445.65	5575.16
445.84	5668.78
446.02	5806.87
446.21	5720.27
446.39	5820.91
446.58	5678.14
446.77	5713.25
446.95	5572.82
447.14	5600.90
447.32	5661.76
447.51	5708.57
447.69	5666.44
447.88	5664.10
448.06	5636.01
448.25	5638.35
448.43	5827.93
448.62	5785.80
448.80	5816.23
448.99	5710.91
449.17	5879.43
449.36	5795.17
449.54	5975.39
449.73	6071.35
449.91	6127.52
450.10	5973.05
450.28	6150.93
450.46	6120.50
450.65	6169.65
450.83	6181.35
451.02	6043.26
451.20	6267.95
451.39	6380.30
451.57	6242.21
451.76	6221.14
451.94	6160.29
452.13	6235.19
452.31	6296.04
452.49	6164.97
452.68	6232.85
452.86	6279.66
453.05	6422.43
453.23	6335.83
453.42	6415.41
453.60	6342.85
453.78	6352.21
453.97	6487.96
454.15	6413.07
454.34	6305.40
454.52	6438.81
454.70	6548.82
454.89	6595.63
455.07	6394.34
455.26	6567.54
455.44	6794.58
455.62	6693.93
455.81	6530.09
455.99	6654.14
456.17	6717.34
456.36	6827.34
456.54	6703.29
456.73	6855.43
456.91	6920.96
457.09	6995.86
457.28	6855.43
457.46	6958.41
457.64	7105.87
457.83	7045.01
458.01	6944.37
458.19	7122.25
458.38	7197.15
458.56	7206.51
458.74	7148.00
458.93	7133.95
459.11	7236.94
459.29	7108.21
459.48	7225.23
459.66	7180.76
459.84	7241.62
460.03	7529.50
460.21	7332.90
460.39	7190.13
460.57	7290.77
460.76	7501.42
460.94	7482.69
461.12	7485.03
461.31	7260.34
461.49	7286.09
461.67	7517.80
461.85	7541.21
462.04	7566.95
462.22	7824.41
462.40	7712.07
462.59	7763.56
462.77	7637.17
462.95	7873.56
463.13	7590.36
463.32	7726.11
463.50	7819.73
463.68	7918.03
463.86	7903.99
464.05	7742.49
464.23	7826.75
464.41	7990.59
464.59	7775.26
464.78	8056.12
464.96	7801.01
465.14	7925.05
465.32	8109.96
465.50	8102.93
465.69	8056.12
465.87	8035.06
466.05	7957.82
466.23	7918.03
466.41	7948.46
466.60	8259.75
466.78	8086.55
466.96	8154.43
467.14	8210.60
467.32	8198.90
467.51	8336.99
467.69	7964.84
467.87	8449.33
468.05	8386.14
468.23	8262.09
468.41	8407.20
468.60	8400.18
468.78	8379.12
468.96	8430.61
469.14	8367.42
469.32	8648.28
469.50	8322.94
469.69	8463.38
469.87	8631.90
470.05	8491.46
470.23	8685.73
470.41	8711.47
470.59	8760.63
470.77	8720.84
470.95	8706.79
471.14	9212.35
471.32	8840.20
471.50	8854.25
471.68	8973.61
471.86	9027.45
472.04	9053.19
472.22	9116.39
472.40	9022.77
472.58	9125.75
472.77	9280.22
472.95	9338.74
473.13	9596.20
473.31	9446.40
473.49	9504.92
473.67	9406.61
473.85	9270.86
474.03	9837.27
474.21	9729.61
474.39	9664.07
474.57	9769.40
474.75	9518.96
474.93	9797.48
475.12	9933.23
475.30	9893.44
475.48	9961.32
475.66	10050.26
475.84	10155.58
476.02	10097.07
476.20	10169.63
476.38	10291.34
476.56	10525.39
476.74	10682.20
476.92	10590.92
477.10	10415.38
477.28	10682.20
477.46	10506.66
477.64	10726.68
477.82	10750.08
478.00	11105.84
478.18	10981.79
478.36	11185.42
478.54	11384.37
478.72	11339.90
478.90	11417.13
479.08	11660.55
479.26	11480.33
479.44	11726.08
479.62	11679.27
479.80	11971.84
479.98	12039.72
480.16	12140.36
480.34	11925.03
480.52	12182.49
480.70	12259.73
480.88	12072.48
481.06	12470.37
481.24	12343.99
481.41	12482.08
481.59	12512.50
481.77	12774.64
481.95	12854.22
482.13	12945.50
482.31	12879.97
482.49	13198.28
482.67	13256.79
482.85	13331.69
483.03	13605.53
483.21	13591.49
483.39	13708.52
483.57	13764.69
483.74	13874.70
483.92	13949.59
484.10	13963.64
484.28	14148.54
484.46	14403.66
484.64	14745.38
484.82	14340.46
485.00	14675.16
485.18	14707.93
485.35	14895.17
485.53	14932.62
485.71	15056.67
485.89	15208.80
486.07	15412.43
486.25	15066.03
486.43	15749.46
486.61	15810.32
486.78	15700.31
486.96	15786.91
487.14	15829.04
487.32	16116.93
487.50	16414.18
487.68	16407.16
487.85	16673.98
488.03	16645.89
488.21	16767.60
488.39	16688.02
488.57	17228.68
488.75	17064.85
488.92	17289.54
489.10	17348.05
489.28	17355.07
489.46	17617.21
489.64	17469.76
489.81	17919.14
489.99	18038.51
490.17	17968.29
490.35	17923.82
490.53	18462.15
490.70	18251.50
490.88	18387.25
491.06	18738.33
491.24	18750.03
491.41	19094.09
491.59	18963.02
491.77	19215.80
491.95	19264.95
492.13	19192.39
492.30	19496.66
492.48	19520.07
492.66	19702.63
492.84	19871.15
493.01	19857.10
493.19	19969.45
493.37	19981.15
493.54	20320.53
493.72	20489.05
493.90	20680.97
494.08	20517.14
494.25	20730.12
494.43	20786.30
494.61	20835.45
494.79	21598.46
494.96	21252.06
495.14	21226.32
495.32	21333.98
495.49	21668.68
495.67	21701.45
495.85	21678.04
496.02	21979.97
496.20	21986.99
496.38	22092.32
496.55	22164.87
496.73	22867.03
496.91	22345.09
497.09	22565.10
497.26	22801.50
497.44	22857.67
497.62	22864.69
497.79	23365.57
497.97	23187.69
498.14	23428.76
498.32	23674.52
498.50	23494.30
498.67	23754.10
498.85	23857.08
499.03	23976.45
499.20	23831.33
499.38	24404.77
499.56	24395.40
499.73	24332.21
499.91	24049.00
500.08	24535.84
500.26	24645.84
500.44	24561.58
500.61	24505.41
500.79	24741.80
500.97	24910.32
501.14	24896.28
501.32	25158.42
501.49	25017.99
501.67	24945.43
501.84	25530.56
502.02	25198.21
502.20	25645.25
502.37	25303.53
502.55	25476.73
502.72	25757.60
502.90	25883.98
503.07	25853.56
503.25	25898.03
503.43	25811.43
503.60	25886.32
503.78	26309.96
503.95	26216.34
504.13	26270.17
504.30	26522.95
504.48	26555.72
504.65	27129.15
504.83	27091.70
505.01	26909.14
505.18	26991.06
505.36	27262.56
505.53	27065.96
505.71	27143.19
505.88	27201.71
506.06	27108.08
506.23	27527.04
506.41	27365.54
506.58	27718.96
506.76	27278.94
506.93	27658.11
507.11	27924.93
507.28	27955.36
507.46	28018.55
507.63	28095.79
507.81	28322.82
507.98	28077.07
508.16	28362.61
508.33	28348.57
508.50	28393.04
508.68	28587.30
508.85	29034.35
509.03	28723.05
509.20	28861.15
509.38	29092.86
509.55	29457.98
509.73	29195.84
509.90	29486.07
510.08	29226.27
510.25	29188.82
510.42	29635.86
510.60	29598.41
510.77	29481.39
510.95	29862.90
511.12	29713.10
511.30	29567.99
511.47	29998.65
511.64	29811.40
511.82	30438.67
511.99	30239.72
512.17	30298.23
512.34	29944.81
512.51	30462.07
512.69	30452.71
512.86	30649.32
513.04	31051.89
513.21	30742.94
513.38	30534.63
513.56	30775.70
513.73	30785.07
513.90	30817.83
514.08	31140.83
514.25	31105.72
514.43	31325.73
514.60	31426.37
514.77	31644.04
514.95	31171.25
515.12	31543.40
515.29	31828.95
515.47	31637.02
515.64	31728.30
515.81	31800.86
515.99	31812.56
516.16	32109.81
516.33	32126.19
516.51	32496.00
516.68	32236.20
516.85	32563.87
517.03	32264.28
517.20	32524.08
517.37	32575.58
517.54	32587.28
517.72	32872.82
517.89	32608.34
518.06	33111.56
518.24	32985.17
518.41	33127.94
518.58	32914.95
518.75	33022.62
518.93	32886.87
519.10	32978.15
519.27	33116.24
519.45	33500.09
519.62	33778.61
519.79	33883.94
519.96	33556.26
520.14	33345.61
520.31	33303.48
520.48	33865.21
520.65	33773.93
520.83	34178.84
521.00	34319.28
521.17	33823.08
521.34	33972.88
521.52	34326.30
521.69	34637.59
521.86	34216.29
522.03	34459.71
522.20	34651.63
522.38	34492.47
522.55	35196.98
522.72	34941.86
522.89	34876.32
523.07	34899.73
523.24	34895.05
523.41	34850.58
523.58	35014.41
523.75	35143.14
523.92	34923.13
524.10	35075.27
524.27	35711.89
524.44	35234.42
524.61	35337.41
524.78	35739.98
524.96	36067.66
525.13	35674.45
525.30	35749.34
525.47	35772.75
525.64	35782.11
525.81	36240.86
525.98	36306.39
526.16	36020.84
526.33	35784.45
526.50	36292.35
526.67	36315.75
526.84	36247.88
527.01	36346.18
527.18	36814.29
527.36	36615.34
527.53	36847.05
527.70	37095.15
527.87	36769.82
528.04	36598.96
528.21	36758.11
528.38	37113.87
528.55	37130.26
528.72	36561.51
528.89	36947.70
529.07	36575.55
529.24	36657.47
529.41	37139.62
529.58	37160.69
529.75	37261.33
529.92	37418.14
530.09	37432.19
530.26	37291.76
530.43	37757.52
530.60	37266.01
530.77	37574.96
530.94	37460.27
531.11	37460.27
531.28	37715.39
531.46	37853.48
531.63	37766.88
531.80	38150.73
531.97	37998.60
532.14	37839.44
532.31	38026.68
532.48	38185.84
532.65	38115.62
532.82	37907.32
532.99	38176.48
533.16	38232.65
533.33	38382.45
533.50	38808.42
533.67	38478.41
533.84	38440.96
534.01	38550.96
534.18	38911.41
534.35	38981.62
534.52	39005.03
534.69	38618.84
534.86	39126.74
535.03	38705.44
535.20	38724.16
535.37	38995.67
535.54	39297.59
535.71	39185.25
535.88	39400.58
536.05	38972.26
536.22	39569.10
536.38	38728.84
536.55	39192.27
536.72	39484.84
536.89	38946.51
537.06	39826.56
537.23	39784.43
537.40	39604.20
537.57	38883.32
537.74	39625.27
537.91	40390.62
538.08	40062.95
538.25	40158.91
538.42	39882.73
538.59	40421.05
538.75	39798.47
538.92	39948.26
539.09	40463.18
539.26	40477.22
539.43	40133.17
539.60	39924.86
539.77	40472.54
539.94	40430.41
540.11	40470.20
540.28	40378.92
540.44	40409.35
540.61	40535.74
540.78	40179.98
540.95	40680.85
541.12	40451.48
541.29	40966.40
541.46	40678.51
541.62	40676.17
541.79	41359.61
541.96	40629.36
542.13	40620.00
542.30	40854.05
542.47	40875.12
542.63	41109.17
542.80	41273.01
542.97	41546.85
543.14	41783.24
543.31	41539.83
543.48	41460.25
543.64	41649.83
543.81	41684.94
543.98	41523.44
544.15	41600.68
544.32	42031.34
544.48	42415.19
544.65	41965.81
544.82	42003.25
544.99	41813.67
545.16	42143.69
545.32	42054.75
545.49	42335.61
545.66	42700.73
545.83	42302.84
546.00	42454.98
546.16	42579.03
546.33	41975.17
546.50	42199.86
546.67	42443.27
546.83	42043.04
547.00	42092.19
547.17	42120.28
547.34	42101.56
547.50	42937.13
547.67	43030.75
547.84	43016.71
548.00	42799.04
548.17	42897.34
548.34	42944.15
548.51	42890.32
548.67	43002.66
548.84	42953.51
549.01	42761.59
549.18	42990.96
549.34	43454.39
549.51	43381.83
549.68	43248.42
549.84	43033.09
550.01	43728.23
550.18	43089.26
550.34	43613.54
550.51	43442.68
550.68	43360.76
550.84	42927.77
551.01	43761.00
551.18	43318.64
551.34	43274.16
551.51	43470.77
551.68	43257.78
551.84	43510.56
552.01	43592.48
552.18	44041.86
552.34	43143.09
552.51	43723.55
552.68	43828.87
552.84	43772.70
553.01	43672.06
553.18	43880.36
553.34	43770.36
553.51	43957.60
553.67	44013.77
553.84	44247.83
554.01	43992.71
554.17	43688.44
554.34	44388.26
554.51	44402.30
554.67	44500.61
554.84	44624.65
555.00	44177.61
555.17	43934.20
555.33	44783.81
555.50	44467.84
555.67	44322.72
555.83	44367.20
556.00	44399.96
556.16	45160.64
556.33	44713.59
556.50	44296.98
556.66	44587.21
556.83	44076.97
556.99	44734.66
557.16	44844.66
557.32	44975.73
557.49	44800.19
557.65	44772.11
557.82	44566.14
557.98	44687.85
558.15	44807.22
558.32	44715.93
558.48	44648.06
558.65	45024.89
558.81	44912.54
558.98	45174.68
559.14	44432.73
559.31	45111.49
559.47	45074.04
559.64	45258.94
559.80	44781.47
559.97	44884.45
560.13	45301.07
560.30	45200.43
560.46	45570.23
560.63	45130.21
560.79	45345.54
560.96	45528.10
561.12	45354.90
561.29	45146.59
561.45	45446.18
561.61	44999.14
561.78	45102.12
561.94	45375.97
562.11	45298.73
562.27	45750.45
562.44	45130.21
562.60	45701.30
562.77	45815.99
562.93	45354.90
563.10	45853.44
563.26	45429.80
563.42	45762.15
563.59	45457.88
563.75	45612.36
563.92	45546.82
564.08	45420.44
564.24	45560.87
564.41	45844.07
564.57	45930.67
564.74	45624.06
564.90	45645.13
565.07	45958.76
565.23	45368.94
565.39	45996.21
565.56	46211.54
565.72	45490.65
565.88	45591.30
566.05	45729.39
566.21	45811.31
566.38	45628.74
566.54	46340.27
566.70	46043.02
566.87	46234.94
567.03	45792.58
567.19	46054.72
567.36	45897.91
567.52	45961.10
567.68	46052.38
567.85	46054.72
568.01	46593.04
568.17	46110.89
568.34	46124.94
568.50	46167.07
568.66	45954.08
568.83	45881.52
568.99	45769.18
569.15	45947.06
569.32	46248.99
569.48	46511.13
569.64	46234.94
569.81	46370.69
569.97	46738.16
570.13	46515.81
570.30	46010.25
570.46	46806.03
570.62	46010.25
570.78	46515.81
570.95	46532.19
571.11	46726.46
571.27	46094.51
571.43	46309.84
571.60	46307.50
571.76	45813.65
571.92	46300.48
572.09	46220.90
572.25	46464.32
572.41	46080.47
572.57	46618.79
572.74	46639.86
572.90	46188.13
573.06	46457.29
573.22	46761.56
573.38	46829.44
573.55	46679.64
573.71	46696.03
573.87	46368.35
574.03	46527.51
574.20	46691.35
574.36	46635.17
574.52	46974.55
574.68	46412.82
574.84	46518.15
575.01	46520.49
575.17	46454.95
575.33	46667.94
575.49	46616.45
575.65	46810.71
575.82	46747.52
575.98	46019.61
576.14	46902.00
576.30	46717.09
576.46	46672.62
576.62	46403.46
576.79	46246.65
576.95	46316.86
577.11	46302.82
577.27	46829.44
577.43	46609.43
577.59	46557.94
577.75	46894.97
577.92	46403.46
578.08	46834.12
578.24	46925.40
578.40	47171.16
578.56	47016.68
578.72	46967.53
578.88	46859.87
579.04	47154.77
579.21	46452.61
579.37	46796.67
579.53	46885.61
579.69	46756.88
579.85	46749.86
580.01	46677.30
580.17	46747.52
580.33	47325.63
580.49	47072.85
580.65	46913.70
580.82	46806.03
580.98	46483.04
581.14	46550.91
581.30	47302.23
581.46	46560.28
581.62	46770.93
581.78	46920.72
581.94	47264.78
582.10	46838.80
582.26	46972.21
582.42	47098.60
582.58	47189.88
582.74	46887.95
582.90	46773.27
583.06	46674.96
583.22	46813.05
583.38	47023.70
583.54	47182.86
583.70	46691.35
583.86	47274.14
584.02	46880.93
584.18	47285.84
584.34	47487.13
584.50	47442.66
584.66	46909.02
584.82	47676.71
584.98	46920.72
585.14	47072.85
585.30	47285.84
585.46	47175.84
585.62	46845.82
585.78	47047.11
585.94	46461.97
586.10	47056.47
586.26	47342.02
586.42	46644.54
586.58	46913.70
586.74	46806.03
586.90	47129.03
587.06	47316.27
587.22	47126.69
587.38	47077.54
587.54	47402.87
587.70	47318.61
587.86	47154.77
588.02	47192.22
588.18	46787.31
588.34	47260.10
588.49	47063.49
588.65	46885.61
588.81	47157.11
588.97	47084.56
589.13	47000.30
589.29	47435.64
589.45	47040.09
589.61	47288.18
589.77	46979.23
589.93	47145.41
590.08	47290.52
590.24	47803.10
590.40	47643.94
590.56	47721.18
590.72	47477.77
590.88	47426.28
591.04	47353.72
591.20	47690.76
591.35	47681.39
591.51	47980.98
591.67	47704.80
591.83	47941.19
591.99	47360.74
592.15	47515.22
592.31	47484.79
592.46	47356.06
592.62	47365.42
592.78	48114.39
592.94	48013.75
593.10	47587.77
593.26	47959.92
593.41	47711.82
593.57	47941.19
593.73	48114.39
593.89	48245.46
594.05	47824.17
594.20	47723.52
594.36	48191.63
594.52	47812.46
594.68	47812.46
594.84	47718.84
594.99	47878.00
595.15	47861.61
595.31	47936.51
595.47	47777.36
595.62	47622.88
595.78	47386.49
595.94	47978.64
596.10	47917.79
596.25	47863.96
596.41	48020.77
596.57	47707.14
596.73	48023.11
596.88	47817.14
597.04	47721.18
597.20	48163.54
597.36	47625.22
597.51	48009.07
597.67	47459.04
597.83	47880.34
597.99	47845.23
598.14	48142.48
598.30	47943.53
598.46	47683.73
598.61	48083.97
598.77	47988.00
598.93	48002.05
599.09	47796.08
599.24	48334.40
599.40	47793.74
599.56	47995.03
599.71	47840.55
599.87	48212.70
600.03	48404.62
600.18	47882.68
600.34	47594.79
600.50	47859.27
600.65	47805.44
600.81	48280.57
600.97	48034.81
601.12	47915.45
601.28	47875.66
601.44	47889.70
601.59	48250.14
601.75	47674.37
601.91	47992.68
602.06	47964.60
602.22	48168.22
602.37	48039.50
602.53	47959.92
602.69	48250.14
602.84	47948.21
603.00	47992.68
603.16	48332.06
603.31	47728.20
603.47	48259.51
603.62	48224.40
603.78	47885.02
603.94	47945.87
604.09	47849.91
604.25	47920.13
604.40	47882.68
604.56	47992.68
604.71	48135.46
604.87	48051.20
605.03	47590.11
605.18	48175.25
605.34	47990.34
605.49	47976.30
605.65	47964.60
605.80	47550.32
605.96	47653.31
606.12	47955.24
606.27	47880.34
606.43	47323.29
606.58	48027.79
606.74	47639.26
606.89	48004.39
607.05	47662.67
607.20	48095.67
607.36	47842.89
607.51	47896.72
607.67	48020.77
607.82	47599.47
607.98	47555.00
608.13	48013.75
608.29	47606.50
608.44	48002.05
608.60	47653.31
608.75	47716.50
608.91	47632.24
609.06	47220.31
609.22	48055.88
609.37	47562.03
609.53	47786.72
609.68	47840.55
609.84	47592.45
609.99	47770.33
610.15	48039.50
610.30	47599.47
610.46	47161.79
610.61	48147.16
610.76	47775.02
610.92	46995.62
611.07	47203.92
611.23	47358.40
611.38	47594.79
611.54	47590.11
611.69	47601.82
611.84	47473.09
612.00	47290.52
612.15	47480.11
612.31	47445.00
612.46	47290.52
612.62	47407.55
612.77	47159.45
612.92	47901.40
613.08	47358.40
613.23	47412.23
613.39	47086.90
613.54	46911.36
613.69	47178.18
613.85	47313.93
614.00	47313.93
614.15	47456.70
614.31	47037.75
614.46	47510.53
614.62	47356.06
614.77	47374.78
614.92	47480.11
615.08	47409.89
615.23	47077.54
615.38	47311.59
615.54	46927.74
615.69	47077.54
615.84	46831.78
616.00	47222.65
616.15	47402.87
616.30	47096.26
616.46	47386.49
616.61	46632.83
616.76	46934.76
616.92	46962.85
617.07	46916.04
617.22	47257.76
617.37	46380.06
617.53	46923.06
617.68	46941.78
617.83	46658.58
617.99	47379.46
618.14	47398.19
618.29	46843.48
618.45	46246.65
618.60	46658.58
618.75	46445.59
618.90	46438.57
619.06	46953.49
619.21	46763.90
619.36	47033.07
619.51	46326.22
619.67	46490.06
619.82	46443.25
619.97	46714.75
620.12	46878.59
620.28	46691.35
620.43	46653.90
620.58	46880.93
620.73	46665.60
620.89	46799.01
621.04	46679.64
621.19	46529.85
621.34	46562.62
621.49	46436.23
621.65	46115.58
621.80	46993.28
621.95	46298.14
622.10	46693.69
622.25	46394.10
622.41	45846.41
622.56	46319.20
622.71	46277.07
622.86	46335.59
623.01	46209.20
623.16	45837.05
623.32	46429.21
623.47	46314.52
623.62	46195.15
623.77	45773.86
623.92	46714.75
624.07	46288.77
624.23	46265.37
624.38	46162.39
624.53	46375.37
624.68	45539.80
624.83	46073.45
624.98	46309.84
625.13	45797.26
625.29	45837.05
625.44	46295.80
625.59	45893.22
625.74	46005.57
625.89	45684.92
626.04	45450.86
626.19	45811.31
626.34	45862.80
626.49	45701.30
626.65	45612.36
626.80	45680.24
626.95	45366.60
627.10	45457.88
627.25	45762.15
627.40	45808.96
627.55	45134.89
627.70	45736.41
627.85	45603.00
628.00	45839.39
628.15	45633.42
628.30	45207.45
628.45	45081.06
628.60	45116.17
628.76	45137.23
628.91	44793.17
629.06	45174.68
629.21	45123.19
629.36	45036.59
629.51	45139.57
629.66	45750.45
629.81	45155.96
629.96	44968.71
630.11	44575.50
630.26	44910.20
630.41	44830.62
630.56	45008.50
630.71	45097.44
630.86	44655.08
631.01	44692.53
631.16	45029.57
631.31	44552.10
631.46	44774.45
631.61	45059.99
631.76	45179.36
631.91	45020.20
632.06	45366.60
632.21	44837.64
632.36	45111.49
632.51	44425.71
632.66	44671.46
632.81	45036.59
632.96	44659.76
633.10	44250.17
633.25	44416.35
633.40	44535.71
633.55	44729.98
633.70	44512.31
633.85	44601.25
634.00	44964.03
634.15	44421.03
634.30	44280.60
634.45	43992.71
634.60	44421.03
634.75	44748.70
634.90	44531.03
635.05	44772.11
635.19	44301.66
635.34	44486.56
635.49	44196.34
635.64	44568.48
635.79	44449.11
635.94	44575.50
636.09	44601.25
636.24	44418.69
636.39	44364.85
636.53	43955.26
636.68	44119.10
636.83	43882.70
636.98	43463.75
637.13	43690.78
637.28	43824.19
637.43	44121.44
637.57	43971.64
637.72	43447.36
637.87	43697.80
638.02	43723.55
638.17	43966.96
638.32	43421.62
638.46	43655.67
638.61	43519.92
638.76	43487.15
638.91	43669.72
639.06	43540.99
639.20	43150.12
639.35	43349.06
639.50	43482.47
639.65	43395.87
639.80	43819.51
639.94	43810.15
640.09	43725.89
640.24	43393.53
640.39	43157.14
640.54	42913.72
640.68	43206.29
640.83	43627.59
640.98	43412.26
641.13	43227.35
641.27	43608.86
641.42	43337.36
641.57	42880.95
641.72	43269.48
641.86	43253.10
642.01	43140.75
642.16	43491.83
642.31	42696.05
642.45	43122.03
642.60	43093.94
642.75	42955.85
642.90	42939.47
643.04	43107.99
643.19	42965.21
643.34	42880.95
643.48	42424.55
643.63	42562.64
643.78	42770.95
643.93	43438.00
644.07	43278.85
644.22	42703.07
644.37	42740.52
644.51	42808.40
644.66	42899.68
644.81	42941.81
644.95	42787.33
645.10	42714.78
645.25	42602.43
645.39	42099.22
645.54	42770.95
645.69	41982.19
645.83	42562.64
645.98	42401.14
646.13	42258.37
646.27	42572.00
646.42	42553.28
646.57	42511.15
646.71	42527.53
646.86	42532.22
647.00	42300.50
647.15	42532.22
647.30	42389.44
647.44	42588.39
647.59	42480.72
647.74	42064.11
647.88	42628.18
648.03	42621.16
648.17	42307.52
648.32	42258.37
648.47	42829.46
648.61	41996.23
648.76	42026.66
648.90	42059.43
649.05	42478.38
649.20	41799.63
649.34	42328.59
649.49	42206.88
649.63	42094.53
649.78	42279.44
649.92	42157.73
650.07	42838.83
650.21	42649.24
650.36	42375.40
650.51	41832.39
650.65	42272.42
650.80	41942.40
650.94	41738.77
651.09	41689.62
651.23	41897.93
651.38	41724.73
651.52	41111.51
651.67	41560.89
651.81	41659.20
651.96	41642.81
652.10	41345.56
652.25	41621.75
652.39	41570.25
652.54	41734.09
652.68	41303.43
652.83	41759.84
652.97	41383.01
653.12	41588.98
653.26	41106.83
653.41	41347.90
653.55	41326.84
653.70	41680.26
653.84	41572.60
653.99	41563.23
654.13	41720.05
654.27	40847.03
654.42	41221.52
654.56	41233.22
654.71	41078.74
654.85	41361.95
655.00	41436.84
655.14	41340.88
655.29	41067.04
655.43	41507.06
655.57	41050.66
655.72	40620.00
655.86	40739.36
656.01	41010.87
656.15	40891.50
656.30	40570.85
656.44	40882.14
656.58	40746.39
656.73	40898.52
656.87	40397.65
657.01	40292.32
657.16	40547.44
657.30	40832.99
657.45	40680.85
657.59	40224.45
657.73	40304.02
657.88	40725.32
658.02	40802.56
658.16	41198.11
658.31	40486.59
658.45	40540.42
658.60	40069.97
658.74	39959.97
658.88	40313.39
659.03	40102.74
659.17	40067.63
659.31	39903.79
659.46	40142.53
659.60	40088.70
659.74	39957.63
659.89	39878.05
660.03	39835.92
660.17	39840.60
660.32	40027.84
660.46	39974.01
660.60	39372.49
660.74	39927.20
660.89	39505.90
661.03	39421.64
661.17	39189.93
661.32	39653.36
661.46	39445.05
661.60	39419.30
661.74	39253.12
661.89	39351.43
662.03	39234.40
662.17	38916.09
662.31	39269.51
662.46	39117.37
662.60	39044.82
662.74	38815.44
662.88	38515.86
663.03	38866.94
663.17	38604.80
663.31	38632.88
663.45	38583.73
663.60	39290.57
663.74	38983.96
663.88	38866.94
664.02	38445.64
664.17	38684.37
664.31	38567.35
664.45	38232.65
664.59	38408.19
664.73	38167.12
664.88	38265.42
665.02	37748.16
665.16	38113.28
665.30	38092.22
665.44	37860.51
665.59	37673.26
665.73	37675.60
665.87	37235.58
666.01	37570.28
666.15	37816.04
666.29	37600.71
666.44	37944.76
666.58	37701.35
666.72	37193.45
666.86	37741.14
667.00	36994.51
667.14	36973.44
667.28	37371.33
667.43	36943.02
667.57	37666.24
667.71	37282.39
667.85	37401.76
667.99	37359.63
668.13	36706.62
668.27	36573.21
668.41	36950.04
668.56	36575.55
668.70	36898.55
668.84	36510.02
668.98	36313.41
669.12	36725.35
669.26	36378.95
669.40	36395.33
669.54	36404.69
669.68	36435.12
669.82	36170.64
669.96	35833.60
670.10	35632.32
670.25	35826.58
670.39	35957.65
670.53	36058.29
670.67	35959.99
670.81	35871.05
670.95	35915.52
671.09	35845.30
671.23	35428.69
671.37	35723.60
671.51	35145.48
671.65	35629.98
671.79	35494.22
671.93	35515.29
672.07	35250.81
672.21	34944.20
672.35	34998.03
672.49	35426.35
672.63	35218.04
672.77	34579.07
672.91	34490.13
673.05	34476.09
673.19	34398.85
673.33	34075.86
673.47	34600.14
673.61	34253.74
673.75	34375.45
673.89	33923.72
674.03	34003.30
674.17	33378.38
674.31	33841.81
674.45	33684.99
674.59	33935.43
674.73	33567.96
674.87	33895.64
675.01	33584.35
675.15	33163.05
675.29	33343.27
675.43	33427.53
675.56	33170.07
675.70	32783.88
675.84	33034.32
675.98	31903.84
676.12	33027.30
676.26	33141.99
676.40	32655.15
676.54	32301.73
676.68	32669.20
676.82	31880.44
676.96	32402.38
677.10	32360.25
677.23	32081.72
677.37	32362.59
677.51	32037.25
677.65	31903.84
677.79	32037.25
677.93	31772.77
678.07	31704.90
678.21	31297.64
678.34	31199.34
678.48	30895.07
678.62	31040.18
678.76	31377.22
678.90	31239.13
679.04	30906.77
679.18	31201.68
679.31	30815.49
679.45	30642.29
679.59	30370.79
679.73	30543.99
679.87	30176.53
680.00	30167.16
680.14	30396.54
680.28	30181.21
680.42	30113.33
680.56	29900.34
680.70	29675.65
680.83	29511.81
680.97	29340.96
681.11	29448.62
681.25	29244.99
681.39	29069.45
681.52	29383.09
681.66	28765.18
681.80	28294.74
681.94	28547.51
682.07	28617.73
682.21	28725.39
682.35	28474.96
682.49	28683.27
682.62	28374.31
682.76	28589.64
682.90	28346.23
683.04	28252.61
683.17	28182.39
683.31	27777.48
683.45	27943.66
683.59	27648.75
683.72	27599.60
683.86	27292.99
684.00	27414.69
684.13	27538.74
684.27	26993.40
684.41	27065.96
684.55	27061.27
684.68	26712.53
684.82	26656.36
684.96	26859.99
685.09	26752.32
685.23	26639.98
685.37	26850.63
685.50	26661.04
685.64	26661.04
685.78	26288.90
685.91	26448.05
686.05	26096.97
686.19	25448.64
686.32	25795.04
686.46	25490.77
686.60	25366.73
686.73	25642.91
686.87	25806.75
687.01	25771.64
687.14	25577.37
687.28	25479.07
687.42	24926.71
687.55	24765.21
687.69	25043.73
687.82	24606.05
687.96	24531.15
688.10	24896.28
688.23	24290.08
688.37	24727.76
688.50	24568.60
688.64	24222.20
688.78	23901.55
688.91	24177.73
689.05	24053.69
689.18	23683.88
689.32	23557.49
689.46	23330.46
689.59	23321.10
689.73	23733.03
689.86	23686.22
690.00	23440.47
690.13	23571.54
690.27	23566.85
690.41	23225.14
690.54	22972.36
690.68	22890.44
690.81	22686.81
690.95	22656.39
691.08	22654.05
691.22	22333.39
691.35	22307.65
691.49	22473.82
691.62	22530.00
691.76	22267.86
691.89	21975.29
692.03	21558.67
692.16	21848.90
692.30	21628.89
692.43	21741.24
692.57	21149.08
692.70	21408.88
692.84	21249.72
692.97	21369.09
693.11	21020.35
693.24	21184.19
693.38	21223.98
693.51	20835.45
693.65	20968.86
693.78	20587.35
693.92	20521.82
694.05	20491.39
694.19	20475.01
694.32	20477.35
694.45	20418.83
694.59	20699.70
694.72	20514.80
694.86	20126.27
694.99	19997.54
695.13	19655.82
695.26	19592.62
695.39	19283.67
695.53	19428.79
695.66	19489.64
695.80	19489.64
695.93	19140.90
696.07	19381.98
696.20	18778.12
696.33	19082.39
696.47	18888.12
696.60	18956.00
696.73	18827.27
696.87	18927.91
697.00	18946.64
697.14	18508.96
697.27	18225.75
697.40	18307.67
697.54	18391.93
697.67	18415.34
697.80	18396.61
697.94	18090.00
698.07	18288.95
698.21	17778.71
698.34	17982.34
698.47	17799.77
698.61	17273.15
698.74	17184.21
698.87	17329.33
699.01	17226.34
699.14	17397.20
699.27	17252.09
699.40	17057.82
699.54	17069.53
699.67	17153.79
699.80	17226.34
699.94	16854.20
700.07	16929.09
700.20	16575.67
700.34	16636.53
700.47	16514.82
700.60	16903.35
700.73	16505.46
700.87	16308.85
701.00	16177.78
701.13	16145.02
701.26	16039.69
701.40	15925.00
701.53	15587.97
701.66	16042.03
701.79	15592.65
701.93	15613.71
702.06	15316.47
702.19	15314.13
702.32	15625.42
702.46	15555.20
702.59	15279.02
702.72	15559.88
702.85	15260.29
702.99	15159.65
703.12	15019.22
703.25	14925.60
703.38	14963.04
703.51	14775.80
703.65	14780.48
703.78	14567.49
703.91	14452.81
704.04	14555.79
704.17	14295.99
704.31	14377.91
704.44	14195.35
704.57	14288.97
704.70	14345.14
704.83	14153.22
704.96	14024.49
705.10	13717.88
705.23	13935.55
>>>>>End Processed Spectral Data<<<<<
