SpectraSuite Data File
++++++++++++++++++++++++++++++++++++
Date: Fri Oct 25 10:44:29 EDT 2013
User: price-jones
Dark Spectrum Present: No
Reference Spectrum Present: No
Number of Sampled Component Spectra: 1
Spectrometers: USB2+H05261
Integration Time (usec): 100000 (USB2+H05261)
Spectra Averaged: 1 (USB2+H05261)
Boxcar Smoothing: 0 (USB2+H05261)
Correct for Electrical Dark: No (USB2+H05261)
Strobe/Lamp Enabled: No (USB2+H05261)
Correct for Detector Non-linearity: No (USB2+H05261)
Correct for Stray Light: No (USB2+H05261)
Number of Pixels in Processed Spectrum: 2048
>>>>>Begin Processed Spectral Data<<<<<
365.73	93.62
365.92	93.62
366.12	93.62
366.32	28.09
366.52	4.68
366.72	65.54
366.91	37.45
367.11	0.00
367.31	25.75
367.51	0.00
367.70	0.00
367.90	11.70
368.10	21.06
368.30	86.60
368.49	84.26
368.69	98.30
368.89	84.26
369.09	0.00
369.28	14.04
369.48	74.90
369.68	53.83
369.87	74.90
370.07	105.32
370.27	58.51
370.47	159.16
370.66	315.97
370.86	468.11
371.06	510.24
371.25	514.92
371.45	404.91
371.65	456.40
371.84	421.30
372.04	461.09
372.24	524.28
372.44	491.51
372.63	461.09
372.83	547.69
373.03	409.59
373.22	498.53
373.42	500.87
373.62	594.50
373.81	512.58
374.01	571.09
374.21	566.41
374.40	573.43
374.60	568.75
374.79	613.22
374.99	568.75
375.19	585.13
375.38	622.58
375.58	561.73
375.78	657.69
375.97	662.37
376.17	653.01
376.37	631.94
376.56	641.31
376.76	622.58
376.95	571.09
377.15	629.60
377.35	606.20
377.54	596.84
377.74	627.26
377.93	603.86
378.13	578.11
378.33	676.41
378.52	655.35
378.72	643.65
378.91	589.82
379.11	592.16
379.31	638.97
379.50	620.24
379.70	648.33
379.89	695.14
380.09	629.60
380.28	657.69
380.48	641.31
380.68	671.73
380.87	704.50
381.07	727.91
381.26	690.46
381.46	662.37
381.65	702.16
381.85	723.23
382.04	622.58
382.24	727.91
382.43	695.14
382.63	685.78
382.83	643.65
383.02	692.80
383.22	798.12
383.41	692.80
383.61	730.25
383.80	737.27
384.00	814.51
384.19	725.57
384.39	826.21
384.58	741.95
384.78	723.23
384.97	837.91
385.17	744.29
385.36	711.52
385.56	765.36
385.75	784.08
385.95	840.25
386.14	889.40
386.34	786.42
386.53	837.91
386.72	844.93
386.92	793.44
387.11	821.53
387.31	889.40
387.50	903.45
387.70	812.17
387.89	898.77
388.09	875.36
388.28	856.64
388.48	835.57
388.67	849.61
388.86	844.93
389.06	858.98
389.25	936.21
389.45	912.81
389.64	957.28
389.84	894.08
390.03	987.71
390.22	1015.79
390.42	910.47
390.61	973.66
390.81	1004.09
391.00	1006.43
391.19	1057.92
391.39	1064.94
391.58	957.28
391.78	1013.45
391.97	1001.75
392.16	980.68
392.36	954.94
392.55	1055.58
392.75	968.98
392.94	997.07
393.13	990.05
393.33	896.43
393.52	1041.54
393.71	1013.45
393.91	1081.33
394.10	1022.81
394.29	1165.59
394.49	1128.14
394.68	1146.86
394.88	1181.97
395.07	1203.04
395.26	1132.82
395.46	1203.04
395.65	1245.16
395.84	1163.25
396.04	1188.99
396.23	1167.93
396.42	1137.50
396.62	1184.31
396.81	1172.61
397.00	1261.55
397.19	1135.16
397.39	1224.10
397.58	1301.34
397.77	1324.74
397.97	1350.49
398.16	1406.66
398.35	1416.02
398.55	1380.92
398.74	1446.45
398.93	1387.94
399.12	1430.07
399.32	1514.33
399.51	1453.47
399.70	1528.37
399.90	1516.67
400.09	1533.05
400.28	1565.82
400.47	1465.18
400.67	1530.71
400.86	1537.73
401.05	1556.46
401.24	1523.69
401.44	1568.16
401.63	1654.76
401.82	1671.14
402.01	1614.97
402.21	1727.32
402.40	1671.14
402.59	1645.40
402.78	1614.97
402.97	1671.14
403.17	1603.27
403.36	1720.29
403.55	1809.23
403.74	1785.83
403.93	1710.93
404.13	1776.47
404.32	1816.26
404.51	1851.36
404.70	1806.89
404.89	1839.66
405.09	1839.66
405.28	1799.87
405.47	1916.90
405.66	1921.58
405.85	1944.99
406.05	1849.02
406.24	1928.60
406.43	1863.07
406.62	1905.20
406.81	2019.88
407.00	2017.54
407.20	1895.83
407.39	1937.96
407.58	1961.37
407.77	2129.89
407.96	2134.57
408.15	2146.27
408.34	1970.73
408.54	2260.96
408.73	2176.70
408.92	2162.66
409.11	2146.27
409.30	2232.87
409.49	2249.25
409.68	2246.91
409.87	2256.28
410.07	2284.36
410.26	2267.98
410.45	2265.64
410.64	2410.75
410.83	2338.20
411.02	2408.41
411.21	2349.90
411.40	2382.67
411.59	2462.24
411.78	2427.14
411.98	2513.74
412.17	2534.80
412.36	2548.84
412.55	2597.99
412.74	2640.12
412.93	2588.63
413.12	2572.25
413.31	2621.40
413.50	2726.72
413.69	2670.55
413.88	2766.51
414.07	2649.49
414.26	2820.35
414.45	2850.77
414.64	2796.94
414.83	2794.60
415.02	2935.03
415.22	2930.35
415.41	2855.45
415.60	2930.35
415.79	3150.36
415.98	3124.62
416.17	2998.23
416.36	3070.78
416.55	3070.78
416.74	3091.85
416.93	3063.76
417.12	3265.05
417.31	3267.39
417.50	3199.51
417.69	3379.73
417.88	3302.50
418.07	3295.47
418.26	3368.03
418.45	3241.64
418.64	3438.25
418.83	3389.10
419.02	3426.54
419.21	3435.91
419.39	3501.44
419.58	3398.46
419.77	3503.78
419.96	3363.35
420.15	3684.00
420.34	3536.55
420.53	3634.85
420.72	3737.84
420.91	3585.70
421.10	3728.47
421.29	3824.44
421.48	3606.77
421.67	3707.41
421.86	3646.55
422.05	3686.34
422.24	3637.19
422.43	3653.58
422.61	3700.39
422.80	3784.65
422.99	3836.14
423.18	3740.18
423.37	3847.84
423.56	3829.12
423.75	3889.97
423.94	3768.26
424.13	3555.27
424.32	3786.99
424.50	3922.74
424.69	3775.28
424.88	3885.29
425.07	3775.28
425.26	3691.02
425.45	3698.05
425.64	3782.31
425.83	3712.09
426.01	3871.25
426.20	3782.31
426.39	3878.27
426.58	3801.03
426.77	3838.48
426.96	3742.52
427.15	3934.44
427.33	3810.39
427.52	3889.97
427.71	3969.55
427.90	3967.21
428.09	3978.91
428.28	4105.30
428.46	4065.51
428.65	4037.42
428.84	4037.42
429.03	4138.07
429.22	3988.27
429.40	4009.34
429.59	3967.21
429.78	3768.26
429.97	3801.03
430.16	3833.80
430.34	3999.98
430.53	3983.59
430.72	4147.43
430.91	4086.58
431.10	4138.07
431.28	4269.14
431.47	4369.78
431.66	4484.47
431.85	4332.33
432.03	4404.89
432.22	4699.80
432.41	4557.02
432.60	4500.85
432.79	4514.89
432.97	4575.75
433.16	4669.37
433.35	4531.28
433.54	4493.83
433.72	4535.96
433.91	4545.32
434.10	4615.54
434.28	4594.47
434.47	4608.51
434.66	4732.56
434.85	4688.09
435.03	4858.95
435.22	4919.81
435.41	4987.68
435.59	4809.80
435.78	5043.85
435.97	4959.60
436.16	4945.55
436.34	4992.36
436.53	5011.09
436.72	5135.14
436.90	4877.68
437.09	4938.53
437.28	4929.17
437.46	5029.81
437.65	4959.60
437.84	5043.85
438.02	4933.85
438.21	5025.13
438.40	4954.91
438.58	5195.99
438.77	5093.01
438.96	5179.61
439.14	5303.65
439.33	5369.19
439.52	5467.49
439.70	5467.49
439.89	5509.62
440.08	5544.73
440.26	5568.13
440.45	5521.32
440.63	5640.69
440.82	5741.33
441.01	5633.67
441.19	5806.87
441.38	5825.59
441.57	5858.36
441.75	5926.24
441.94	6069.01
442.12	6026.88
442.31	6263.27
442.50	5853.68
442.68	5956.66
442.87	6113.48
443.05	6200.08
443.24	6118.16
443.43	6186.04
443.61	6272.64
443.80	6296.04
443.98	6108.80
444.17	5907.51
444.35	6303.06
444.54	6511.37
444.73	6253.91
444.91	6193.06
445.10	6214.12
445.28	6113.48
445.47	6253.91
445.65	6136.88
445.84	6202.42
446.02	6490.31
446.21	6230.51
446.39	6305.40
446.58	6459.88
446.77	6417.75
446.95	6340.51
447.14	6492.65
447.32	6619.04
447.51	6406.05
447.69	6455.20
447.88	6349.87
448.06	6284.34
448.25	6607.33
448.43	6457.54
448.62	6452.86
448.80	6476.26
448.99	6658.82
449.17	6576.91
449.36	6572.22
449.54	6633.08
449.73	6963.09
449.91	6977.14
450.10	6867.13
450.28	6937.35
450.46	6977.14
450.65	6862.45
450.83	6946.71
451.02	6860.11
451.20	6925.65
451.39	6792.23
451.57	6806.28
451.76	6853.09
451.94	6911.60
452.13	7070.76
452.31	7103.53
452.49	6855.43
452.68	6951.39
452.86	6752.45
453.05	7131.61
453.23	7084.80
453.42	7213.53
453.60	6836.70
453.78	7075.44
453.97	7070.76
454.15	7108.21
454.34	7030.97
454.52	7241.62
454.70	7077.78
454.89	7307.15
455.07	7232.26
455.26	7487.37
455.44	7449.93
455.62	7286.09
455.81	7438.22
455.99	7648.87
456.17	7414.82
456.36	7243.96
456.54	7775.26
456.73	7705.04
456.91	7737.81
457.09	7585.68
457.28	7868.88
457.46	7735.47
457.64	7831.43
457.83	7672.28
458.01	7688.66
458.19	8030.38
458.38	7903.99
458.56	8149.75
458.74	7875.90
458.93	7754.19
459.11	7880.58
459.29	8088.89
459.48	7997.61
459.66	7887.61
459.84	8049.10
460.03	8149.75
460.21	8210.60
460.39	8252.73
460.57	8194.22
460.76	8313.58
460.94	8542.96
461.12	8435.29
461.31	8409.54
461.49	8070.17
461.67	8297.20
461.85	8592.11
462.04	8435.29
462.22	8641.26
462.40	8823.82
462.59	8524.23
462.77	8566.36
462.95	8662.32
463.13	8606.15
463.32	8587.43
463.50	8802.75
463.68	8739.56
463.86	8723.18
464.05	8608.49
464.23	8514.87
464.41	8849.57
464.59	8496.14
464.78	8725.52
464.96	8802.75
465.14	8788.71
465.32	8980.64
465.50	8973.61
465.69	8865.95
465.87	8964.25
466.05	8926.80
466.23	8833.18
466.41	8973.61
466.60	9310.65
466.78	8870.63
466.96	9043.83
467.14	8987.66
467.32	9029.79
467.51	8975.95
467.69	8865.95
467.87	9081.28
468.05	9125.75
468.23	9100.00
468.41	9170.22
468.60	9188.94
468.78	9373.85
468.96	9289.59
469.14	9366.82
469.32	9427.68
469.50	9160.86
469.69	9427.68
469.87	9479.17
470.05	9444.06
470.23	9516.62
470.41	9437.04
470.59	9657.05
470.77	9703.86
470.95	9745.99
471.14	9511.94
471.32	9678.12
471.50	9905.15
471.68	9844.29
471.86	10111.11
472.04	10045.58
472.22	10214.10
472.40	9989.41
472.58	9935.57
472.77	10204.74
472.95	10211.76
473.13	10576.88
473.31	9998.77
473.49	10139.20
473.67	10281.97
473.85	10480.92
474.03	10567.52
474.21	10541.77
474.39	10684.55
474.57	10810.93
474.75	10693.91
474.93	10920.94
475.12	10700.93
475.30	10897.53
475.48	11009.88
475.66	10771.15
475.84	10867.11
476.02	10956.05
476.20	11108.18
476.38	11349.26
476.56	11386.71
476.74	11330.53
476.92	11482.67
477.10	11585.65
477.28	11674.59
477.46	11716.72
477.64	11683.95
477.82	11922.69
478.00	12009.29
478.18	12126.32
478.36	12042.06
478.54	12306.54
478.72	12299.52
478.90	12409.52
479.08	12514.84
479.26	12465.69
479.44	12561.66
479.62	13238.07
479.80	13036.78
479.98	12830.82
480.16	12910.40
480.34	13207.64
480.52	13373.82
480.70	13226.37
480.88	13511.91
481.06	13376.16
481.24	13451.06
481.41	13699.16
481.59	14003.43
481.77	14101.73
481.95	13954.27
482.13	14169.60
482.31	13930.87
482.49	14499.62
482.67	14590.90
482.85	14553.45
483.03	14771.12
483.21	14829.63
483.39	14857.72
483.57	14754.74
483.74	15243.91
483.92	15129.22
484.10	15246.25
484.28	15536.48
484.46	15627.76
484.64	15917.98
484.82	15632.44
485.00	15807.98
485.18	15789.25
485.35	15967.13
485.53	15819.68
485.71	15693.29
485.89	16168.42
486.07	15880.53
486.25	15932.03
486.43	16648.23
486.61	16847.18
486.78	16816.75
486.96	16762.92
487.14	17069.53
487.32	17036.76
487.50	17326.99
487.68	17729.56
487.85	17703.81
488.03	18026.81
488.21	17769.35
488.39	18066.60
488.57	18345.12
488.75	18408.31
488.92	18466.83
489.10	18888.12
489.28	18754.71
489.46	19396.02
489.64	18967.70
489.81	19391.34
489.99	19316.44
490.17	19651.14
490.35	19707.31
490.53	19426.45
490.70	19978.81
490.88	19955.41
491.06	20156.69
491.24	19880.51
491.41	20002.22
491.59	20577.99
491.77	20369.68
491.95	20566.29
492.13	20877.58
492.30	20851.83
492.48	20987.58
492.66	21074.18
492.84	21221.64
493.01	21436.97
493.19	21415.90
493.37	21610.17
493.54	21841.88
493.72	21699.11
493.90	22064.23
494.08	22178.92
494.25	22731.28
494.43	22506.59
494.61	22590.85
494.79	22539.36
494.96	22735.96
495.14	22883.42
495.32	23080.02
495.49	22796.82
495.67	23255.56
495.85	23211.09
496.02	23419.40
496.20	23733.03
496.38	23658.14
496.55	23704.95
496.73	24463.28
496.91	24194.12
497.09	24166.03
497.26	24306.46
497.44	24528.81
497.62	24570.94
497.79	25027.35
497.97	24357.96
498.14	24938.41
498.32	25015.65
498.50	25006.28
498.67	25305.87
498.85	25331.62
499.03	25298.85
499.20	25923.77
499.38	25603.12
499.56	25575.03
499.73	26118.04
499.91	25802.07
500.08	26015.05
500.26	25727.17
500.44	26164.85
500.61	26096.97
500.79	25785.68
500.97	26387.20
501.14	26700.83
501.32	26192.94
501.49	26499.55
501.67	26747.64
501.84	26913.82
502.02	27002.76
502.20	27157.24
502.37	26986.38
502.55	26986.38
502.72	26977.01
502.90	27164.26
503.07	26944.25
503.25	27761.09
503.43	27194.68
503.60	27529.38
503.78	27087.02
503.95	27543.42
504.13	27793.86
504.30	27999.83
504.48	28086.43
504.65	28196.43
504.83	28596.67
505.01	28226.86
505.18	28219.84
505.36	29043.71
505.53	28720.71
505.71	28706.67
505.88	28999.24
506.06	28582.62
506.23	28905.62
506.41	28636.45
506.58	28875.19
506.76	29326.91
506.93	29347.98
507.11	29053.07
507.28	28980.51
507.46	29371.38
507.63	29343.30
507.81	29682.67
507.98	29252.02
508.16	29673.31
508.33	29736.51
508.50	30036.09
508.68	30277.17
508.85	30272.49
509.03	30377.81
509.20	30478.46
509.38	30288.87
509.55	30354.41
509.73	30632.93
509.90	30967.63
510.08	30536.97
510.25	30604.84
510.42	31047.21
510.60	31065.93
510.77	30974.65
510.95	31124.44
511.12	31337.43
511.30	31505.95
511.47	31721.28
511.64	31475.52
511.82	31770.43
511.99	31215.72
512.17	31552.76
512.34	31503.61
512.51	32121.51
512.69	31690.85
512.86	31842.99
513.04	32173.00
513.21	32093.43
513.38	31964.70
513.56	31995.12
513.73	32051.30
513.90	31871.07
514.08	32395.35
514.25	32184.71
514.43	32631.75
514.60	32465.57
514.77	32776.86
514.95	33127.94
515.12	32978.15
515.29	32872.82
515.47	33237.95
515.64	32947.72
515.81	33214.54
515.99	33048.36
516.16	33387.74
516.33	33127.94
516.51	33095.18
516.68	32870.48
516.85	32755.80
517.03	32893.89
517.20	33450.94
517.37	33448.60
517.54	33965.85
517.72	33385.40
517.89	33879.25
518.06	33259.01
518.24	33692.01
518.41	33663.93
518.58	33916.70
518.75	34012.66
518.93	33919.04
519.10	34335.66
519.27	33900.32
519.45	34555.67
519.62	34635.25
519.79	34558.01
519.96	34794.40
520.14	34859.94
520.31	34756.96
520.48	34780.36
520.65	34668.02
520.83	35360.81
521.00	35363.15
521.17	35129.10
521.34	34845.90
521.52	35213.36
521.69	35166.55
521.86	35604.23
522.03	35379.54
522.20	35302.30
522.38	35278.89
522.55	35641.68
522.72	35917.86
522.89	35707.21
523.07	36088.72
523.24	35805.52
523.41	36397.67
523.58	35756.36
523.75	36360.22
523.92	36325.11
524.10	36591.94
524.27	36292.35
524.44	36734.71
524.61	36774.50
524.78	36718.32
524.96	36624.70
525.13	36694.92
525.30	36945.36
525.47	37041.32
525.64	37024.93
525.81	36725.35
525.98	36863.44
526.16	36755.77
526.33	36474.91
526.50	36629.38
526.67	36760.45
526.84	36676.19
527.01	36498.31
527.18	37287.07
527.36	37315.16
527.53	37432.19
527.70	38014.98
527.87	37703.69
528.04	37743.48
528.21	37701.35
528.38	37483.68
528.55	38014.98
528.72	38129.67
528.89	38323.93
529.07	37830.08
529.24	37902.64
529.41	37715.39
529.58	38330.95
529.75	38148.39
529.92	38375.42
530.09	38277.12
530.26	38256.06
530.43	38761.61
530.60	38579.05
530.77	38471.39
530.94	38429.26
531.11	38553.30
531.28	38520.54
531.46	39014.39
531.63	38735.87
531.80	38871.62
531.97	38895.02
532.14	38944.17
532.31	38923.11
532.48	38948.85
532.65	38848.21
532.82	38810.76
532.99	39161.84
533.16	38953.54
533.33	39487.18
533.50	39075.24
533.67	39414.62
533.84	39154.82
534.01	39363.13
534.18	39342.06
534.35	40051.25
534.52	39374.83
534.69	39613.57
534.86	39578.46
535.03	39754.00
535.20	40229.13
535.37	40341.47
535.54	39765.70
535.71	39648.68
535.88	39945.92
536.05	39665.06
536.22	39990.39
536.38	40280.62
536.55	39889.75
536.72	39995.07
536.89	40140.19
537.06	40350.84
537.23	40385.94
537.40	40025.50
537.57	40170.61
537.74	40495.95
537.91	40807.24
538.08	40362.54
538.25	40076.99
538.42	40556.80
538.59	40711.28
538.75	40704.26
538.92	40481.91
539.09	40931.29
539.26	40982.78
539.43	40575.53
539.60	40807.24
539.77	40524.04
539.94	40739.36
540.11	40509.99
540.28	41223.86
540.44	40634.04
540.61	40673.83
540.78	40397.65
540.95	40832.99
541.12	40563.82
541.29	40746.39
541.46	41067.04
541.62	40814.26
541.79	41296.41
541.96	41043.63
542.13	41619.41
542.30	41251.94
542.47	41118.53
542.63	41413.44
542.80	41469.61
542.97	41675.58
543.14	41696.64
543.31	42010.28
543.48	41350.24
543.64	42188.16
543.81	42356.67
543.98	42541.58
544.15	41830.05
544.32	42340.29
544.48	42562.64
544.65	41874.52
544.82	42335.61
544.99	41986.87
545.16	42211.56
545.32	42288.80
545.49	42939.47
545.66	42686.69
545.83	42768.61
546.00	42735.84
546.16	42412.85
546.33	42164.75
546.50	42014.96
546.67	42518.17
546.83	42148.37
547.00	42749.88
547.17	42670.31
547.34	42742.86
547.50	42820.10
547.67	43012.02
547.84	43288.21
548.00	43309.27
548.17	43189.91
548.34	42782.65
548.51	43264.80
548.67	42836.48
548.84	43110.33
549.01	42876.27
549.18	42906.70
549.34	42820.10
549.51	42948.83
549.68	42890.32
549.84	42939.47
550.01	43597.16
550.18	42920.74
550.34	43100.97
550.51	43260.12
550.68	43782.06
550.84	42738.18
551.01	43805.47
551.18	43400.55
551.34	43257.78
551.51	43707.16
551.68	43709.50
551.84	43817.17
552.01	43704.82
552.18	43878.02
552.34	43267.14
552.51	43372.47
552.68	43452.05
552.84	43461.41
553.01	43885.04
553.18	44245.49
553.34	43835.89
553.51	43519.92
553.67	43995.05
553.84	44411.67
554.01	43887.39
554.17	44385.92
554.34	44451.45
554.51	43969.30
554.67	43929.51
554.84	44079.31
555.00	43957.60
555.17	43878.02
555.33	44114.42
555.50	44121.44
555.67	44048.88
555.83	43976.33
556.00	44320.38
556.16	44790.83
556.33	44133.14
556.50	44006.75
556.66	44636.36
556.83	44156.55
556.99	44804.88
557.16	44528.69
557.32	44563.80
557.49	44690.19
557.65	44451.45
557.82	44088.67
557.98	44512.31
558.15	44666.78
558.32	44811.90
558.48	44456.14
558.65	44287.62
558.81	44662.10
558.98	44304.00
559.14	44624.65
559.31	44856.37
559.47	44390.60
559.64	44783.81
559.80	44856.37
559.97	44687.85
560.13	44334.43
560.30	44624.65
560.46	45064.67
560.63	44638.70
560.79	44973.39
560.96	45174.68
561.12	45186.38
561.29	45085.74
561.45	44982.76
561.61	44912.54
561.78	44556.78
561.94	44917.22
562.11	44697.21
562.27	44804.88
562.44	44947.65
562.60	45535.12
562.77	44690.19
562.93	45132.55
563.10	44842.32
563.26	44718.28
563.42	45008.50
563.59	44584.86
563.75	45511.72
563.92	45500.01
564.08	45195.74
564.24	45078.72
564.41	44999.14
564.57	45045.95
564.74	44989.78
564.90	45106.80
565.07	45329.16
565.23	44849.35
565.39	45008.50
565.56	45345.54
565.72	45071.70
565.88	45209.79
566.05	45422.78
566.21	45247.24
566.38	45350.22
566.54	45076.38
566.70	45485.97
566.87	45478.95
567.03	45762.15
567.19	46155.36
567.36	44737.00
567.52	44842.32
567.68	45675.55
567.85	44985.10
568.01	45359.58
568.17	45029.57
568.34	45619.38
568.50	45125.53
568.66	45621.72
568.83	45291.71
568.99	45102.12
569.15	45083.40
569.32	45237.87
569.48	45237.87
569.64	45612.36
569.81	45511.72
569.97	45492.99
570.13	45614.70
570.30	45078.72
570.46	45411.07
570.62	44919.56
570.78	45385.33
570.95	45256.60
571.11	45478.95
571.27	45375.97
571.43	45064.67
571.60	45240.21
571.76	44947.65
571.92	45455.54
572.09	45165.32
572.25	45317.45
572.41	45390.01
572.57	45485.97
572.74	45848.75
572.90	45785.56
573.06	45450.86
573.22	45436.82
573.38	45322.13
573.55	45525.76
573.71	45881.52
573.87	45485.97
574.03	45418.10
574.20	45509.38
574.36	45542.14
574.52	45420.44
574.68	45792.58
574.84	45425.12
575.01	45153.62
575.17	45619.38
575.33	45326.81
575.49	45404.05
575.65	46040.68
575.82	45813.65
575.98	45490.65
576.14	45776.20
576.30	45652.15
576.46	45478.95
576.62	45663.85
576.79	45713.00
576.95	45469.59
577.11	45345.54
577.27	45411.07
577.43	45879.18
577.59	45308.09
577.75	45408.73
577.92	45162.98
578.08	45450.86
578.24	45144.25
578.40	45221.49
578.56	45422.78
578.72	45174.68
578.88	45701.30
579.04	45860.46
579.21	45652.15
579.37	45549.17
579.53	45600.66
579.69	45296.39
579.85	45558.53
580.01	45439.16
580.17	46220.90
580.33	45823.01
580.49	45757.47
580.65	45998.55
580.82	45595.98
580.98	45570.23
581.14	46129.62
581.30	45949.40
581.46	45247.24
581.62	45907.27
581.78	45904.93
581.94	45867.48
582.10	45750.45
582.26	45565.55
582.42	45869.82
582.58	45626.40
582.74	45715.34
582.90	45645.13
583.06	45869.82
583.22	45806.62
583.38	46288.77
583.54	46174.09
583.70	46054.72
583.86	45600.66
584.02	45792.58
584.18	45867.48
584.34	46040.68
584.50	45858.12
584.66	45949.40
584.82	45216.81
584.98	45989.19
585.14	45710.66
585.30	45605.34
585.46	45317.45
585.62	45715.34
585.78	45970.46
585.94	45401.71
586.10	45081.06
586.26	45818.33
586.42	46017.27
586.58	46508.79
586.74	46190.47
586.90	45600.66
587.06	46036.00
587.22	46085.15
587.38	45591.30
587.54	45778.54
587.70	45907.27
587.86	45799.60
588.02	45696.62
588.18	45886.20
588.34	45804.28
588.49	45008.50
588.65	45528.10
588.81	45305.75
588.97	45474.27
589.13	45631.08
589.29	45741.09
589.45	45191.06
589.61	45659.17
589.77	45488.31
589.93	45827.69
590.08	46195.15
590.24	46136.64
590.40	45815.99
590.56	46157.70
590.72	45612.36
590.88	46038.34
591.04	45914.29
591.20	46291.12
591.35	46089.83
591.51	46110.89
591.67	46199.83
591.83	45911.95
591.99	45469.59
592.15	45902.59
592.31	45881.52
592.46	45869.82
592.62	45808.96
592.78	46281.75
592.94	46078.13
593.10	45614.70
593.26	45968.12
593.41	45851.09
593.57	45570.23
593.73	45921.31
593.89	45844.07
594.05	46213.88
594.20	45937.69
594.36	46340.27
594.52	45951.74
594.68	46143.66
594.84	45577.25
594.99	46424.53
595.15	46167.07
595.31	46028.98
595.47	46314.52
595.62	46401.12
595.78	45933.01
595.94	46344.95
596.10	46391.76
596.25	46047.70
596.41	46314.52
596.57	45811.31
596.73	46010.25
596.88	45752.79
597.04	46136.64
597.20	46398.78
597.36	46211.54
597.51	46157.70
597.67	46464.32
597.83	46248.99
597.99	46349.63
598.14	45944.72
598.30	45954.08
598.46	45944.72
598.61	46089.83
598.77	45717.68
598.93	45727.05
599.09	45954.08
599.24	46087.49
599.40	46405.80
599.56	46050.04
599.71	46190.47
599.87	46204.52
600.03	45944.72
600.18	45949.40
600.34	46209.20
600.50	46450.27
600.65	46265.37
600.81	46092.17
600.97	46380.06
601.12	46356.65
601.28	46202.18
601.44	46061.74
601.59	45333.84
601.75	45687.26
601.91	46279.41
602.06	45813.65
602.22	45956.42
602.37	45666.19
602.53	45993.87
602.69	46295.80
602.84	46019.61
603.00	45567.89
603.16	46183.45
603.31	46447.93
603.47	45883.86
603.62	46234.94
603.78	45783.22
603.94	45813.65
604.09	46260.69
604.25	46429.21
604.40	46518.15
604.56	45825.35
604.71	45993.87
604.87	45961.10
605.03	45696.62
605.18	45935.35
605.34	45776.20
605.49	45319.79
605.65	45546.82
605.80	45832.37
605.96	45766.84
606.12	45701.30
606.27	46185.79
606.43	45921.31
606.58	45853.44
606.74	45745.77
606.89	45645.13
607.05	45773.86
607.20	46080.47
607.36	45696.62
607.51	45890.88
607.67	45790.24
607.82	45471.93
607.98	45794.92
608.13	45652.15
608.29	45380.65
608.44	45387.67
608.60	45654.49
608.75	45574.91
608.91	45652.15
609.06	45331.50
609.22	45621.72
609.37	45188.72
609.53	45591.30
609.68	45563.21
609.84	45078.72
609.99	45432.14
610.15	44779.13
610.30	45378.31
610.46	45254.26
610.61	45242.56
610.76	45165.32
610.92	45387.67
611.07	45544.48
611.23	45521.08
611.38	45935.35
611.54	45092.76
611.69	45134.89
611.84	45109.14
612.00	45008.50
612.15	45139.57
612.31	45572.57
612.46	45020.20
612.62	45092.76
612.77	45265.96
612.92	45354.90
613.08	45350.22
613.23	45064.67
613.39	44680.83
613.54	44706.57
613.69	44921.90
613.85	44570.82
614.00	44903.18
614.15	45111.49
614.31	45387.67
614.46	45209.79
614.62	45249.58
614.77	44931.26
614.92	45062.33
615.08	44587.21
615.23	44514.65
615.38	44507.63
615.54	44844.66
615.69	44753.38
615.84	44655.08
616.00	44531.03
616.15	44554.44
616.30	44823.60
616.46	44554.44
616.61	44133.14
616.76	44875.09
616.92	44140.16
617.07	44006.75
617.22	44126.12
617.37	44453.79
617.53	44634.02
617.68	44552.10
617.83	44416.35
617.99	44261.87
618.14	44421.03
618.29	44367.20
618.45	44259.53
618.60	43873.34
618.75	44444.43
618.90	44313.36
619.06	44657.42
619.21	44500.61
619.36	44456.14
619.51	44198.68
619.67	43936.54
619.82	44774.45
619.97	44264.21
620.12	44196.34
620.28	43576.09
620.43	44130.80
620.58	44264.21
620.73	43636.95
620.89	44177.61
621.04	44395.28
621.19	44044.20
621.34	44027.82
621.49	43533.96
621.65	43473.11
621.80	44095.69
621.95	43718.87
622.10	43871.00
622.25	43585.46
622.41	43416.94
622.56	43311.61
622.71	44016.11
622.86	43625.25
623.01	43515.24
623.16	43524.60
623.32	43381.83
623.47	43515.24
623.62	43475.45
623.77	43194.59
623.92	43470.77
624.07	43248.42
624.23	43318.64
624.38	43100.97
624.53	42967.55
624.68	42960.53
624.83	43246.08
624.98	43040.11
625.13	43002.66
625.29	43643.97
625.44	43023.73
625.59	43346.72
625.74	42513.49
625.89	42880.95
626.04	42572.00
626.19	42972.24
626.34	42305.18
626.49	43243.74
626.65	42672.65
626.80	43199.27
626.95	42925.42
627.10	43021.39
627.25	42698.39
627.40	42476.04
627.55	42092.19
627.70	42108.58
627.85	42401.14
628.00	42686.69
628.15	42192.84
628.30	42408.17
628.45	42780.31
628.60	42422.21
628.76	42466.68
628.91	42630.52
629.06	42398.80
629.21	42422.21
629.36	41858.14
629.51	42281.78
629.66	42003.25
629.81	41816.01
629.96	42335.61
630.11	42160.07
630.26	42639.88
630.41	42094.53
630.56	42164.75
630.71	42415.19
630.86	42146.03
631.01	41820.69
631.16	41904.95
631.31	41956.44
631.46	41420.46
631.61	41570.25
631.76	41872.18
631.91	41729.41
632.06	41942.40
632.21	42007.94
632.36	42204.54
632.51	42052.41
632.66	41724.73
632.81	41280.03
632.96	42010.28
633.10	41677.92
633.25	41949.42
633.40	41493.02
633.55	41759.84
633.70	41401.74
633.85	41338.54
634.00	40942.99
634.15	41474.29
634.30	41209.81
634.45	42094.53
634.60	41750.48
634.75	41778.56
634.90	41429.82
635.05	41275.35
635.19	41219.17
635.34	41497.70
635.49	40919.59
635.64	40942.99
635.79	41397.06
635.94	41471.95
636.09	41191.09
636.24	40903.20
636.39	40692.55
636.53	40928.95
636.68	40781.49
636.83	41078.74
636.98	40924.27
637.13	40952.35
637.28	40952.35
637.43	41209.81
637.57	41350.24
637.72	41153.64
637.87	40701.92
638.02	41036.61
638.17	40577.87
638.32	40807.24
638.46	40863.41
638.61	40907.88
638.76	40509.99
638.91	40697.24
639.06	40804.90
639.20	40669.15
639.35	40694.89
639.50	40687.87
639.65	40610.64
639.80	40980.44
639.94	40343.81
640.09	40804.90
640.24	40203.38
640.39	40062.95
640.54	40355.52
640.68	40264.24
640.83	40362.54
640.98	40320.41
641.13	39873.37
641.27	40084.01
641.42	40147.21
641.57	39786.77
641.72	40179.98
641.86	39819.53
642.01	39943.58
642.16	39838.26
642.31	39632.29
642.45	39969.33
642.60	39438.03
642.75	39562.08
642.90	39828.90
643.04	39737.62
643.19	39878.05
643.34	40133.17
643.48	39627.61
643.63	39803.15
643.78	39700.17
643.93	39496.54
644.07	39576.12
644.22	39494.20
644.37	39636.97
644.51	39098.65
644.66	39840.60
644.81	39805.49
644.95	39704.85
645.10	39796.13
645.25	39585.48
645.39	39992.73
645.54	39515.26
645.69	39342.06
645.83	39335.04
645.98	39288.23
646.13	39440.37
646.27	39449.73
646.42	39419.30
646.57	39239.08
646.71	39431.01
646.86	39559.73
647.00	39576.12
647.15	39449.73
647.30	39105.67
647.44	39335.04
647.59	39136.10
647.74	38890.34
647.88	39023.75
648.03	39131.42
648.17	38761.61
648.32	39079.92
648.47	38899.70
648.61	39115.03
648.76	39295.25
648.90	39075.24
649.05	38806.08
649.20	38665.65
649.34	38766.29
649.49	38462.02
649.63	38871.62
649.78	38778.00
649.92	38520.54
650.07	38993.32
650.21	38703.10
650.36	38721.82
650.51	38438.62
650.65	38719.48
650.80	39096.31
650.94	38768.63
651.09	38518.20
651.23	38548.62
651.38	38770.97
651.52	38417.55
651.67	38209.25
651.81	37776.25
651.96	38302.87
652.10	38361.38
652.25	37542.19
652.39	38696.08
652.54	38492.45
652.68	38300.53
652.83	38085.20
652.97	38565.01
653.12	38536.92
653.26	38129.67
653.41	38054.77
653.55	37975.19
653.70	37801.99
653.84	38291.16
653.99	38455.00
654.13	37706.03
654.27	37998.60
654.42	37816.04
654.56	37563.26
654.71	37916.68
654.85	38052.43
655.00	37727.10
655.14	37738.80
655.29	37919.02
655.43	37408.78
655.57	37127.92
655.72	37322.18
655.86	37268.35
656.01	36994.51
656.15	37251.97
656.30	37195.79
656.44	37329.20
656.58	37097.49
656.73	36975.78
656.87	37228.56
657.01	37184.09
657.16	37516.45
657.30	37523.47
657.45	36861.10
657.59	37340.91
657.73	37471.98
657.88	37261.33
658.02	37769.22
658.16	37579.64
658.31	37469.64
658.45	37289.42
658.60	36868.12
658.74	36737.05
658.88	37076.43
659.03	37013.23
659.17	36690.24
659.31	36711.30
659.46	36671.51
659.60	36877.48
659.74	36765.14
659.89	36547.47
660.03	36687.90
660.17	36751.09
660.32	36495.97
660.46	36947.70
660.60	36465.55
660.74	36858.76
660.89	36605.98
661.03	36168.30
661.17	36060.63
661.32	36240.86
661.46	35873.39
661.60	36215.11
661.74	35934.24
661.89	36210.43
662.03	36315.75
662.17	35653.38
662.31	35810.20
662.46	36423.42
662.60	36217.45
662.74	35611.25
662.88	35803.17
663.03	35529.33
663.17	35885.09
663.31	35482.52
663.45	35538.69
663.60	35442.73
663.74	35040.16
663.88	35725.94
664.02	35470.82
664.17	35058.88
664.31	35435.71
664.45	35218.04
664.59	35353.79
664.73	35131.44
664.88	35292.94
665.02	34754.61
665.16	35033.14
665.30	34932.50
665.44	34955.90
665.59	34838.87
665.73	34967.60
665.87	34405.88
666.01	34721.85
666.15	34649.29
666.29	34284.17
666.44	34440.98
666.58	34094.58
666.72	34450.35
666.86	34630.57
667.00	34225.65
667.14	34071.18
667.28	33886.28
667.43	33951.81
667.57	34085.22
667.71	34092.24
667.85	33830.10
667.99	33998.62
668.13	34071.18
668.27	33596.05
668.41	34419.92
668.56	33493.07
668.70	33869.89
668.84	33443.91
668.98	33331.57
669.12	33305.82
669.26	33392.42
669.40	33394.76
669.54	33474.34
669.68	33413.49
669.82	33102.20
669.96	33200.50
670.10	33476.68
670.25	32879.85
670.39	33205.18
670.53	32865.80
670.67	33064.75
670.81	32917.29
670.95	32889.21
671.09	32666.86
671.23	32755.80
671.37	32716.01
671.51	32552.17
671.65	32306.41
671.79	32411.74
671.93	32133.21
672.07	31988.10
672.21	32222.16
672.35	32484.30
672.49	31763.41
672.63	32177.68
672.77	31988.10
672.91	32182.37
673.05	32217.47
673.19	31978.74
673.33	31346.79
673.47	31885.12
673.61	31070.61
673.75	31321.05
673.89	31433.39
674.03	31131.47
674.17	31335.09
674.31	31232.11
674.45	31454.46
674.59	31473.18
674.73	31824.26
674.87	31508.29
675.01	30675.06
675.15	30951.24
675.29	31110.40
675.43	31019.12
675.56	31009.76
675.70	30579.10
675.84	30190.57
675.98	29975.24
676.12	30756.98
676.26	30651.66
676.40	30134.40
676.54	30387.18
676.68	30012.69
676.82	29579.69
676.96	29961.20
677.10	29806.72
677.23	29888.64
677.37	29610.12
677.51	29497.77
677.65	29352.66
677.79	29139.67
677.93	29406.49
678.07	29207.55
678.21	29008.60
678.34	28870.51
678.48	28624.75
678.62	28538.15
678.76	28458.57
678.90	28465.60
679.04	28023.23
679.18	28416.44
679.31	28299.42
679.45	28271.33
679.59	28013.87
679.73	27826.63
679.87	27971.74
680.00	27824.29
680.14	27850.03
680.28	28041.96
680.42	27789.18
680.56	27967.06
680.70	27707.26
680.83	27796.20
680.97	27590.24
681.11	27583.21
681.25	27112.77
681.39	26785.09
681.52	27304.69
681.66	26862.33
681.80	26735.94
681.94	26857.65
682.07	26911.48
682.21	26794.45
682.35	26522.95
682.49	26705.51
682.62	26815.52
682.76	26162.51
682.90	26066.55
683.04	26174.21
683.17	25844.20
683.31	25818.45
683.45	26146.12
683.59	25752.91
683.72	25736.53
683.86	25614.82
684.00	25071.82
684.13	25518.86
684.27	25104.59
684.41	24898.62
684.55	25125.65
684.68	25130.33
684.82	24854.15
684.96	24882.24
685.09	24662.22
685.23	25041.39
685.37	24800.32
685.50	24821.38
685.64	24290.08
685.78	24341.57
685.91	23807.93
686.05	24009.22
686.19	24224.54
686.32	24053.69
686.46	23531.75
686.60	23513.02
686.73	23255.56
686.87	23440.47
687.01	23407.70
687.14	23166.62
687.28	23295.35
687.42	22883.42
687.55	23136.20
687.69	23307.05
687.82	23108.11
687.96	22965.34
688.10	23211.09
688.23	22852.99
688.37	22508.93
688.50	22251.47
688.64	22382.54
688.78	22221.05
688.91	22078.27
689.05	22499.57
689.18	22302.96
689.32	21895.71
689.46	21989.33
689.59	21905.07
689.73	22024.44
689.86	22047.85
690.00	21551.65
690.13	21827.84
690.27	21935.50
690.41	21638.25
690.54	21479.10
690.68	21397.18
690.81	21425.26
690.95	21275.47
691.08	20903.32
691.22	21027.37
691.35	21207.59
691.49	21467.39
691.62	21090.57
691.76	20889.28
691.89	20648.21
692.03	20552.24
692.16	20325.21
692.30	20683.31
692.43	20393.09
692.57	20432.88
692.70	20201.16
692.84	20163.72
692.97	19845.40
693.11	19845.40
693.24	19908.60
693.38	19693.27
693.51	19822.00
693.65	19796.25
693.78	19829.02
693.92	19688.59
694.05	19480.28
694.19	19351.55
694.32	19421.77
694.45	18934.93
694.59	18878.76
694.72	18740.67
694.86	18993.45
694.99	18686.84
695.13	18773.44
695.26	18728.97
695.39	18595.56
695.53	18871.74
695.66	18611.94
695.80	18537.04
695.93	18518.32
696.07	18253.84
696.20	18068.94
696.33	18473.85
696.47	17968.29
696.60	18157.88
696.73	17947.23
696.87	18010.42
697.00	17846.58
697.14	17736.58
697.27	17673.39
697.40	17682.75
697.54	17607.85
697.67	17481.46
697.80	17121.02
697.94	17071.87
698.07	17064.85
698.21	16954.84
698.34	16905.69
698.47	16847.18
698.61	17074.21
698.74	16863.56
698.87	16580.36
699.01	16444.60
699.14	16322.90
699.27	16243.32
699.40	16475.03
699.54	16219.91
699.67	16088.84
699.80	16105.23
699.94	16212.89
700.07	16173.10
700.20	15976.50
700.34	16159.06
700.47	16044.37
700.60	16060.76
700.73	16053.73
700.87	15693.29
701.00	15599.67
701.13	15367.96
701.26	15482.64
701.40	15262.63
701.53	15047.30
701.66	15346.89
701.79	15314.13
701.93	15279.02
702.06	15133.90
702.19	14878.79
702.32	14843.68
702.46	14843.68
702.59	14813.25
702.72	14827.29
702.85	14574.52
702.99	14635.37
703.12	14370.89
703.25	14511.32
703.38	14349.82
703.51	14171.94
703.65	14391.95
703.78	14361.53
703.91	14204.71
704.04	14197.69
704.17	14122.79
704.31	14104.07
704.44	14232.80
704.57	14066.62
704.70	13926.19
704.83	13804.48
704.96	13617.24
705.10	14059.60
705.23	13645.32
>>>>>End Processed Spectral Data<<<<<
