SpectraSuite Data File
++++++++++++++++++++++++++++++++++++
Date: Fri Oct 25 10:44:14 EDT 2013
User: price-jones
Dark Spectrum Present: No
Reference Spectrum Present: No
Number of Sampled Component Spectra: 1
Spectrometers: USB2+H05261
Integration Time (usec): 100000 (USB2+H05261)
Spectra Averaged: 1 (USB2+H05261)
Boxcar Smoothing: 0 (USB2+H05261)
Correct for Electrical Dark: No (USB2+H05261)
Strobe/Lamp Enabled: No (USB2+H05261)
Correct for Detector Non-linearity: No (USB2+H05261)
Correct for Stray Light: No (USB2+H05261)
Number of Pixels in Processed Spectrum: 2048
>>>>>Begin Processed Spectral Data<<<<<
365.73	126.39
365.92	126.39
366.12	126.39
366.32	56.17
366.52	60.85
366.72	28.09
366.91	11.70
367.11	44.47
367.31	7.02
367.51	39.79
367.70	25.75
367.90	16.38
368.10	0.00
368.30	0.00
368.49	49.15
368.69	14.04
368.89	63.19
369.09	4.68
369.28	117.03
369.48	0.00
369.68	16.38
369.87	88.94
370.07	14.04
370.27	147.45
370.47	236.39
370.66	451.72
370.86	425.98
371.06	440.02
371.25	507.90
371.45	512.58
371.65	463.43
371.84	482.15
372.04	449.38
372.24	482.15
372.44	451.72
372.63	519.60
372.83	557.05
373.03	514.92
373.22	500.87
373.42	496.19
373.62	496.19
373.81	561.73
374.01	594.50
374.21	507.90
374.40	561.73
374.60	547.69
374.79	531.30
374.99	482.15
375.19	594.50
375.38	594.50
375.58	533.64
375.78	615.56
375.97	606.20
376.17	575.77
376.37	573.43
376.56	650.67
376.76	631.94
376.95	624.92
377.15	587.47
377.35	645.99
377.54	685.78
377.74	627.26
377.93	664.71
378.13	559.39
378.33	713.86
378.52	627.26
378.72	636.63
378.91	692.80
379.11	629.60
379.31	676.41
379.50	662.37
379.70	655.35
379.89	681.10
380.09	697.48
380.28	711.52
380.48	695.14
380.68	606.20
380.87	681.10
381.07	678.76
381.26	751.31
381.46	800.46
381.65	664.71
381.85	793.44
382.04	641.31
382.24	744.29
382.43	706.84
382.63	699.82
382.83	615.56
383.02	706.84
383.22	737.27
383.41	704.50
383.61	725.57
383.80	798.12
384.00	753.65
384.19	837.91
384.39	704.50
384.58	863.66
384.78	807.48
384.97	901.11
385.17	748.97
385.36	807.48
385.56	741.95
385.75	800.46
385.95	781.74
386.14	882.38
386.34	819.19
386.53	741.95
386.72	774.72
386.92	809.83
387.11	849.61
387.31	870.68
387.50	856.64
387.70	821.53
387.89	880.04
388.09	971.32
388.28	840.25
388.48	891.74
388.67	917.49
388.86	943.24
389.06	915.15
389.25	966.64
389.45	905.79
389.64	966.64
389.84	1043.88
390.03	940.90
390.22	933.87
390.42	926.85
390.61	947.92
390.81	994.73
391.00	1062.60
391.19	1046.22
391.39	1064.94
391.58	1050.90
391.78	985.37
391.97	1039.20
392.16	1046.22
392.36	1163.25
392.55	976.00
392.75	999.41
392.94	1001.75
393.13	1015.79
393.33	987.71
393.52	1048.56
393.71	1224.10
393.91	1006.43
394.10	1102.39
394.29	1086.01
394.49	1149.20
394.68	1214.74
394.88	1179.63
395.07	1277.93
395.26	1277.93
395.46	1270.91
395.65	1207.72
395.84	1221.76
396.04	1322.40
396.23	1231.12
396.42	1139.84
396.62	1179.63
396.81	1212.40
397.00	1224.10
397.19	1299.00
397.39	1362.19
397.58	1329.42
397.77	1371.55
397.97	1458.15
398.16	1362.19
398.35	1371.55
398.55	1409.00
398.74	1409.00
398.93	1514.33
399.12	1467.52
399.32	1387.94
399.51	1554.12
399.70	1600.93
399.90	1563.48
400.09	1533.05
400.28	1626.67
400.47	1570.50
400.67	1600.93
400.86	1675.82
401.05	1596.25
401.24	1647.74
401.44	1764.76
401.63	1685.19
401.82	1643.06
402.01	1671.14
402.21	1851.36
402.40	1849.02
402.59	1790.51
402.78	1797.53
402.97	1657.10
403.17	1741.36
403.36	1888.81
403.55	1884.13
403.74	1844.34
403.93	1797.53
404.13	1884.13
404.32	1734.34
404.51	1811.57
404.70	1968.39
404.89	1947.33
405.09	1926.26
405.28	2031.58
405.47	2078.40
405.66	2029.24
405.85	2040.95
406.05	1963.71
406.24	2078.40
406.43	2001.16
406.62	2015.20
406.81	2087.76
407.00	2033.93
407.20	1930.94
407.39	2036.27
407.58	2214.15
407.77	2155.63
407.96	2256.28
408.15	2195.42
408.34	2256.28
408.54	2195.42
408.73	2225.85
408.92	2265.64
409.11	2296.07
409.30	2235.21
409.49	2218.83
409.68	2214.15
409.87	2279.68
410.07	2359.26
410.26	2389.69
410.45	2373.30
410.64	2415.43
410.83	2457.56
411.02	2422.45
411.21	2602.68
411.40	2644.81
411.59	2581.61
411.78	2497.35
411.98	2623.74
412.17	2644.81
412.36	2532.46
412.55	2649.49
412.74	2747.79
412.93	2700.98
413.12	2705.66
413.31	2747.79
413.50	2855.45
413.69	2785.24
413.88	2855.45
414.07	2906.95
414.26	2916.31
414.45	2813.32
414.64	2935.03
414.83	2956.10
415.02	2937.37
415.22	2963.12
415.41	3110.57
415.60	3066.10
415.79	3098.87
415.98	3262.71
416.17	3246.32
416.36	3176.11
416.55	3180.79
416.74	3255.69
416.93	3150.36
417.12	3194.83
417.31	3403.14
417.50	3283.77
417.69	3419.52
417.88	3421.86
418.07	3339.94
418.26	3545.91
418.45	3459.31
418.64	3583.36
418.83	3634.85
419.02	3503.78
419.21	3550.59
419.39	3571.66
419.58	3576.34
419.77	3588.04
419.96	3623.15
420.15	3786.99
420.34	3662.94
420.53	3740.18
420.72	3761.24
420.91	3815.07
421.10	3815.07
421.29	3887.63
421.48	3798.69
421.67	3999.98
421.86	3822.09
422.05	3847.84
422.24	3735.50
422.43	3707.41
422.61	3887.63
422.80	3871.25
422.99	3791.67
423.18	3976.57
423.37	4004.66
423.56	3882.95
423.75	3894.65
423.94	3999.98
424.13	3653.58
424.32	3756.56
424.50	4093.60
424.69	4032.74
424.88	3978.91
425.07	3955.51
425.26	3794.01
425.45	3815.07
425.64	3915.72
425.83	3882.95
426.01	4100.62
426.20	3925.08
426.39	4007.00
426.58	3868.91
426.77	4007.00
426.96	3878.27
427.15	4079.55
427.33	4102.96
427.52	4154.45
427.71	4042.11
427.90	4119.34
428.09	4093.60
428.28	4152.11
428.46	4280.84
428.65	4067.85
428.84	4297.22
429.03	4241.05
429.22	4095.94
429.40	4189.56
429.59	4234.03
429.78	3854.86
429.97	3950.82
430.16	4135.73
430.34	4042.11
430.53	4109.98
430.72	4098.28
430.91	4332.33
431.10	4285.52
431.28	4557.02
431.47	4685.75
431.66	4575.75
431.85	4550.00
432.03	4524.26
432.22	4561.70
432.41	4557.02
432.60	4554.68
432.79	4507.87
432.97	4814.48
433.16	4753.63
433.35	4650.64
433.54	4777.03
433.72	4727.88
433.91	4652.98
434.10	4695.11
434.28	4957.25
434.47	4741.93
434.66	4924.49
434.85	4835.55
435.03	4737.24
435.22	4966.62
435.41	5240.46
435.59	5074.28
435.78	5088.32
435.97	5172.58
436.16	5064.92
436.34	5210.03
436.53	5069.60
436.72	5165.56
436.90	5067.26
437.09	5135.14
437.28	5107.05
437.46	5177.26
437.65	5095.35
437.84	5221.74
438.02	5352.81
438.21	5203.01
438.40	5153.86
438.58	5406.64
438.77	5390.25
438.96	5320.04
439.14	5453.45
439.33	5661.76
439.52	5617.29
439.70	5673.46
439.89	5643.03
440.08	5490.90
440.26	5729.63
440.45	5636.01
440.63	5949.64
440.82	6019.86
441.01	5872.40
441.19	5888.79
441.38	6036.24
441.57	6108.80
441.75	6157.95
441.94	6136.88
442.12	6104.12
442.31	6232.85
442.50	6218.80
442.68	6232.85
442.87	6347.53
443.05	6375.62
443.24	6553.50
443.43	6415.41
443.61	6504.35
443.80	6588.61
443.98	6347.53
444.17	6029.22
444.35	6553.50
444.54	6726.70
444.73	6642.44
444.91	6516.05
445.10	6520.73
445.28	6420.09
445.47	6450.52
445.65	6462.22
445.84	6593.29
446.02	6555.84
446.21	6497.33
446.39	6548.82
446.58	6525.41
446.77	6682.23
446.95	6609.67
447.14	6724.36
447.32	6803.94
447.51	6588.61
447.69	6616.69
447.88	6848.41
448.06	6780.53
448.25	6672.87
448.43	6722.02
448.62	6778.19
448.80	6586.27
448.99	6743.08
449.17	6878.83
449.36	6892.88
449.54	6977.14
449.73	7075.44
449.91	7143.32
450.10	7030.97
450.28	7274.38
450.46	7232.26
450.65	7269.70
450.83	7171.40
451.02	7204.17
451.20	7307.15
451.39	7126.93
451.57	7094.16
451.76	7272.04
451.94	7304.81
452.13	7185.44
452.31	7204.17
452.49	7040.33
452.68	7143.32
452.86	7274.38
453.05	7225.23
453.23	7445.24
453.42	7433.54
453.60	7351.62
453.78	7307.15
453.97	7351.62
454.15	7412.48
454.34	7199.49
454.52	7433.54
454.70	7548.23
454.89	7494.40
455.07	7417.16
455.26	7756.54
455.44	7782.28
455.62	7660.57
455.81	7801.01
455.99	7861.86
456.17	7819.73
456.36	7854.84
456.54	7976.55
456.73	8011.65
456.91	7871.22
457.09	8105.28
457.28	8341.67
457.46	8016.33
457.64	7997.61
457.83	8119.32
458.01	8018.68
458.19	8166.13
458.38	8072.51
458.56	8353.37
458.74	8009.31
458.93	8231.66
459.11	8203.58
459.29	8161.45
459.48	8449.33
459.66	8304.22
459.84	8334.65
460.03	8552.32
460.21	8346.35
460.39	8341.67
460.57	8400.18
460.76	8690.41
460.94	8423.59
461.12	8594.45
461.31	8676.37
461.49	8688.07
461.67	8580.40
461.85	8589.77
462.04	8561.68
462.22	8681.05
462.40	8910.42
462.59	8903.40
462.77	8814.46
462.95	8819.14
463.13	9027.45
463.32	8802.75
463.50	8959.57
463.68	9137.45
463.86	9195.96
464.05	8971.27
464.23	8908.08
464.41	9156.18
464.59	8847.22
464.78	9060.21
464.96	9043.83
465.14	8903.40
465.32	9308.31
465.50	9221.71
465.69	9315.33
465.87	9116.39
466.05	9041.49
466.23	9008.72
466.41	9130.43
466.60	9334.06
466.78	9195.96
466.96	9125.75
467.14	9355.12
467.32	9322.35
467.51	9579.81
467.69	9092.98
467.87	9310.65
468.05	9628.96
468.23	9490.87
468.41	9355.12
468.60	9535.34
468.78	9696.84
468.96	9411.29
469.14	9657.05
469.32	9645.35
469.50	9472.15
469.69	9806.84
469.87	9717.90
470.05	9717.90
470.23	9776.42
470.41	9776.42
470.59	9966.00
470.77	9816.21
470.95	9853.66
471.14	10148.56
471.32	10071.33
471.50	10052.60
471.68	10286.65
471.86	10429.43
472.04	10333.47
472.22	10640.08
472.40	10211.76
472.58	10216.44
472.77	10331.12
472.95	10534.75
473.13	10576.88
473.31	10497.30
473.49	10597.95
473.67	10721.99
473.85	10656.46
474.03	11012.22
474.21	10857.75
474.39	11194.78
474.57	10967.75
474.75	11232.23
474.93	11222.87
475.12	11269.68
475.30	11316.49
475.48	11194.78
475.66	11375.00
475.84	11335.21
476.02	11272.02
476.20	11154.99
476.38	11494.37
476.56	11667.57
476.74	11653.53
476.92	11817.36
477.10	11918.01
477.28	11901.62
477.46	12065.46
477.64	12100.57
477.82	12400.16
478.00	12493.78
478.18	12362.71
478.36	12512.50
478.54	12540.59
478.72	12634.21
478.90	12891.67
479.08	13011.04
479.26	13018.06
479.44	13195.94
479.62	13266.16
479.80	12980.61
479.98	13319.99
480.16	13432.33
480.34	13322.33
480.52	13717.88
480.70	13951.93
480.88	13518.93
481.06	13736.60
481.24	13949.59
481.41	14188.33
481.59	14230.46
481.77	14434.08
481.95	14288.97
482.13	14501.96
482.31	14583.88
482.49	14981.77
482.67	14642.39
482.85	14986.45
483.03	15449.88
483.21	15257.95
483.39	15571.58
483.57	15391.36
483.74	15625.42
483.92	15449.88
484.10	15328.17
484.28	15822.02
484.46	16142.67
484.64	16301.83
484.82	15948.41
485.00	16133.31
485.18	16365.03
485.35	16451.63
485.53	16297.15
485.71	16299.49
485.89	16643.55
486.07	16266.72
486.25	17015.69
486.43	16783.98
486.61	17151.45
486.78	17139.74
486.96	17296.56
487.14	17972.97
487.32	17523.59
487.50	17633.60
487.68	17708.49
487.85	18604.92
488.03	18480.87
488.21	18485.55
488.39	18373.21
488.57	18551.09
488.75	18724.29
488.92	19094.09
489.10	19545.81
489.28	19506.02
489.46	19693.27
489.64	19372.61
489.81	20013.92
489.99	20095.84
490.17	20086.48
490.35	20470.33
490.53	20114.56
490.70	20404.79
490.88	20217.55
491.06	20662.25
491.24	20783.96
491.41	20467.98
491.59	21032.05
491.77	20552.24
491.95	20945.45
492.13	21167.80
492.30	21659.32
492.48	21619.53
492.66	21451.01
492.84	21867.63
493.01	22185.94
493.19	21811.45
493.37	21951.88
493.54	22579.15
493.72	22429.35
493.90	22513.61
494.08	22988.74
494.25	23290.67
494.43	23215.77
494.61	23213.43
494.79	23435.78
494.96	23585.58
495.14	23260.24
495.32	24009.22
495.49	23578.56
495.67	23850.06
495.85	24067.73
496.02	24325.19
496.20	24477.32
496.38	24474.98
496.55	24720.74
496.73	25209.91
496.91	24624.78
497.09	24886.92
497.26	25261.40
497.44	24924.36
497.62	25181.82
497.79	25472.05
497.97	24755.85
498.14	25467.37
498.32	25172.46
498.50	25434.60
498.67	25689.72
498.85	25647.59
499.03	26319.32
499.20	26150.81
499.38	26089.95
499.56	26431.67
499.73	26501.89
499.91	26593.17
500.08	26817.86
500.26	26066.55
500.44	26721.90
500.61	26436.35
500.79	26300.60
500.97	26904.46
501.14	27185.32
501.32	27063.61
501.49	27037.87
501.67	27505.98
501.84	27627.68
502.02	27681.52
502.20	27887.48
502.37	27524.70
502.55	27772.80
502.72	28060.68
502.90	28093.45
503.07	27997.49
503.25	28304.10
503.43	28322.82
503.60	28194.09
503.78	28128.56
503.95	28098.13
504.13	28442.19
504.30	28627.09
504.48	28465.60
504.65	28666.88
504.83	28943.06
505.01	29172.44
505.18	28980.51
505.36	29532.88
505.53	29200.52
505.71	29296.49
505.88	30015.03
506.06	29441.60
506.23	29841.83
506.41	29324.57
506.58	29551.60
506.76	29755.23
506.93	29921.41
507.11	30125.04
507.28	30113.33
507.46	30071.20
507.63	30642.29
507.81	30298.23
507.98	29879.28
508.16	30338.02
508.33	30614.21
508.50	30558.03
508.68	30759.32
508.85	31299.98
509.03	30904.43
509.20	31000.40
509.38	31063.59
509.55	30787.41
509.73	30972.31
509.90	31501.27
510.08	31665.11
510.25	30958.27
510.42	31339.77
510.60	31665.11
510.77	31990.44
510.95	32030.23
511.12	31908.52
511.30	32313.44
511.47	32378.97
511.64	31864.05
511.82	32446.85
511.99	32144.92
512.17	32910.27
512.34	32046.62
512.51	32732.39
512.69	32514.72
512.86	32950.06
513.04	33034.32
513.21	32687.92
513.38	32912.61
513.56	32713.67
513.73	32886.87
513.90	33010.92
514.08	32549.83
514.25	33345.61
514.43	33294.12
514.60	33144.33
514.77	33062.41
514.95	33296.46
515.12	33343.27
515.29	33780.95
515.47	33614.77
515.64	34181.18
515.81	33390.08
515.99	33940.11
516.16	34148.42
516.33	33525.83
516.51	33514.13
516.68	33296.46
516.85	33338.59
517.03	33319.87
517.20	34003.30
517.37	34309.91
517.54	34204.59
517.72	34373.11
517.89	33954.15
518.06	34125.01
518.24	34050.11
518.41	34494.82
518.58	34363.75
518.75	34761.64
518.93	34981.65
519.10	34780.36
519.27	35126.76
519.45	34831.85
519.62	34939.52
519.79	35517.63
519.96	34969.94
520.14	35786.79
520.31	35435.71
520.48	35704.87
520.65	35587.85
520.83	35959.99
521.00	35974.03
521.17	35852.33
521.34	35714.23
521.52	36322.77
521.69	36280.64
521.86	36390.65
522.03	36620.02
522.20	36470.23
522.38	36322.77
522.55	36348.52
522.72	36229.15
522.89	36369.58
523.07	36521.72
523.24	36711.30
523.41	36685.56
523.58	36973.44
523.75	36884.50
523.92	37010.89
524.10	37078.77
524.27	37696.67
524.44	37120.90
524.61	37319.84
524.78	37684.97
524.96	37738.80
525.13	37493.04
525.30	38120.31
525.47	37668.58
525.64	37645.18
525.81	37771.57
525.98	37986.89
526.16	37572.62
526.33	37078.77
526.50	37450.91
526.67	37123.24
526.84	37359.63
527.01	37329.20
527.18	38007.96
527.36	38014.98
527.53	38218.61
527.70	38422.23
527.87	38218.61
528.04	38258.40
528.21	38396.49
528.38	38237.33
528.55	39037.80
528.72	39009.71
528.89	38838.85
529.07	38569.69
529.24	38689.06
529.41	38677.35
529.58	39051.84
529.75	39079.92
529.92	38990.98
530.09	39065.88
530.26	39051.84
530.43	39335.04
530.60	39316.32
530.77	39498.88
530.94	39297.59
531.11	39367.81
531.28	39445.05
531.46	39739.96
531.63	39599.52
531.80	39459.09
531.97	39782.09
532.14	39454.41
532.31	39475.48
532.48	39199.29
532.65	40058.27
532.82	39920.18
532.99	40325.09
533.16	39693.15
533.33	40121.46
533.50	40081.67
533.67	39763.36
533.84	39718.89
534.01	40493.61
534.18	39969.33
534.35	40479.57
534.52	40388.28
534.69	40783.83
534.86	40367.22
535.03	40832.99
535.20	40788.52
535.37	41038.95
535.54	40739.36
535.71	41010.87
535.88	41088.10
536.05	40573.19
536.22	41399.40
536.38	40774.47
536.55	40678.51
536.72	40521.69
536.89	40655.11
537.06	40992.14
537.23	41509.40
537.40	40769.79
537.57	41015.55
537.74	41258.96
537.91	41406.42
538.08	41134.92
538.25	40449.14
538.42	41661.54
538.59	41661.54
538.75	40947.67
538.92	41123.21
539.09	41635.79
539.26	41701.32
539.43	41191.09
539.60	41509.40
539.77	41020.23
539.94	41212.15
540.11	41450.89
540.28	41698.98
540.44	41607.70
540.61	41631.11
540.78	41205.13
540.95	41310.46
541.12	41682.60
541.29	41975.17
541.46	41696.64
541.62	42052.41
541.79	42040.70
541.96	41542.17
542.13	41930.70
542.30	41911.97
542.47	42089.85
542.63	41965.81
542.80	41977.51
542.97	42522.85
543.14	42976.92
543.31	42873.93
543.48	42459.66
543.64	43189.91
543.81	42841.17
543.98	42756.91
544.15	42607.11
544.32	43517.58
544.48	43189.91
544.65	43335.02
544.82	42932.45
544.99	43014.37
545.16	42639.88
545.32	42740.52
545.49	43412.26
545.66	43447.36
545.83	43281.19
546.00	43849.94
546.16	43243.74
546.33	43194.59
546.50	42892.66
546.67	43246.08
546.83	43384.17
547.00	43232.04
547.17	43126.71
547.34	43496.52
547.50	43339.70
547.67	43707.16
547.84	43665.03
548.00	43770.36
548.17	43952.92
548.34	43662.69
548.51	43927.17
548.67	43702.48
548.84	43875.68
549.01	43842.92
549.18	43927.17
549.34	43887.39
549.51	44023.14
549.68	43924.83
549.84	44189.31
550.01	44011.43
550.18	44083.99
550.34	44018.46
550.51	43889.73
550.68	44189.31
550.84	44037.18
551.01	44411.67
551.18	43643.97
551.34	44392.94
551.51	44418.69
551.68	44081.65
551.84	44299.32
552.01	43849.94
552.18	44102.71
552.34	43821.85
552.51	44161.23
552.68	44486.56
552.84	44774.45
553.01	44643.38
553.18	44870.41
553.34	44657.42
553.51	44236.12
553.67	44758.06
553.84	45160.64
554.01	44978.07
554.17	44685.51
554.34	44872.75
554.51	44435.07
554.67	44900.84
554.84	44502.95
555.00	44498.26
555.17	44985.10
555.33	44594.23
555.50	44659.76
555.67	44488.90
555.83	44608.27
556.00	44898.50
556.16	45319.79
556.33	45158.30
556.50	44666.78
556.66	44989.78
556.83	44708.91
556.99	44748.70
557.16	45191.06
557.32	45261.28
557.49	45352.56
557.65	44858.71
557.82	45205.11
557.98	45092.76
558.15	45399.37
558.32	45162.98
558.48	44816.58
558.65	45219.15
558.81	45036.59
558.98	45031.91
559.14	45329.16
559.31	44982.76
559.47	45373.63
559.64	45244.90
559.80	45844.07
559.97	45303.41
560.13	45298.73
560.30	45324.47
560.46	45404.05
560.63	45595.98
560.79	45581.93
560.96	45759.81
561.12	45654.49
561.29	45284.68
561.45	45469.59
561.61	45331.50
561.78	45558.53
561.94	45368.94
562.11	45502.35
562.27	45427.46
562.44	45897.91
562.60	46028.98
562.77	46047.70
562.93	45315.11
563.10	46028.98
563.26	45399.37
563.42	45511.72
563.59	45263.62
563.75	45478.95
563.92	45893.22
564.08	45504.70
564.24	45876.84
564.41	45574.91
564.57	45626.40
564.74	45907.27
564.90	45401.71
565.07	45738.75
565.23	45762.15
565.39	45418.10
565.56	45815.99
565.72	45425.12
565.88	45844.07
566.05	45757.47
566.21	46054.72
566.38	45223.83
566.54	45951.74
566.70	46040.68
566.87	46188.13
567.03	45797.26
567.19	46188.13
567.36	46241.96
567.52	45902.59
567.68	45848.75
567.85	45965.78
568.01	46075.79
568.17	45757.47
568.34	45986.85
568.50	45823.01
568.66	46267.71
568.83	45818.33
568.99	45844.07
569.15	45890.88
569.32	45771.52
569.48	45429.80
569.64	46131.96
569.81	46103.87
569.97	45497.67
570.13	46005.57
570.30	45968.12
570.46	45556.19
570.62	45996.21
570.78	46064.08
570.95	45528.10
571.11	46260.69
571.27	45748.11
571.43	45886.20
571.60	46223.24
571.76	46005.57
571.92	46230.26
572.09	46073.45
572.25	45764.49
572.41	46408.14
572.57	46155.36
572.74	45762.15
572.90	46096.85
573.06	46387.08
573.22	46131.96
573.38	45970.46
573.55	45642.79
573.71	46211.54
573.87	46108.55
574.03	46136.64
574.20	46368.35
574.36	46141.32
574.52	46101.53
574.68	46609.43
574.84	46146.00
575.01	46220.90
575.17	45930.67
575.33	45825.35
575.49	45830.03
575.65	46478.36
575.82	46377.72
575.98	46148.34
576.14	46438.57
576.30	46583.68
576.46	46014.93
576.62	45710.66
576.79	46153.02
576.95	45560.87
577.11	46225.58
577.27	45954.08
577.43	46340.27
577.59	45811.31
577.75	46368.35
577.92	45752.79
578.08	46241.96
578.24	46021.95
578.40	46117.92
578.56	46471.34
578.72	46291.12
578.88	46478.36
579.04	46658.58
579.21	46218.56
579.37	45998.55
579.53	46064.08
579.69	45776.20
579.85	46162.39
580.01	46260.69
580.17	45801.94
580.33	46747.52
580.49	46248.99
580.65	46520.49
580.82	46342.61
580.98	46337.93
581.14	46312.18
581.30	46419.84
581.46	46162.39
581.62	46555.60
581.78	46478.36
581.94	46775.61
582.10	46459.63
582.26	46571.98
582.42	46218.56
582.58	46213.88
582.74	46307.50
582.90	46157.70
583.06	46721.77
583.22	46309.84
583.38	46312.18
583.54	46265.37
583.70	46653.90
583.86	46447.93
584.02	45968.12
584.18	46436.23
584.34	46007.91
584.50	46382.40
584.66	46433.89
584.82	46342.61
584.98	46466.66
585.14	46520.49
585.30	46227.92
585.46	46471.34
585.62	45717.68
585.78	46162.39
585.94	46075.79
586.10	46232.60
586.26	46403.46
586.42	46401.12
586.58	46466.66
586.74	46658.58
586.90	46354.31
587.06	46401.12
587.22	46822.42
587.38	46358.99
587.54	46169.41
587.70	46674.96
587.86	46237.28
588.02	46160.05
588.18	46461.97
588.34	45684.92
588.49	45574.91
588.65	45801.94
588.81	45986.85
588.97	46309.84
589.13	45743.43
589.29	46237.28
589.45	46241.96
589.61	46340.27
589.77	46454.95
589.93	46295.80
590.08	46258.35
590.24	46473.68
590.40	46408.14
590.56	46745.18
590.72	46096.85
590.88	46185.79
591.04	46504.10
591.20	46892.63
591.35	46710.07
591.51	47140.73
591.67	46574.32
591.83	46328.56
591.99	46335.59
592.15	46946.47
592.31	46759.22
592.46	46188.13
592.62	46801.35
592.78	46211.54
592.94	46848.16
593.10	46377.72
593.26	46017.27
593.41	46368.35
593.57	46436.23
593.73	46417.50
593.89	46452.61
594.05	46766.24
594.20	46740.50
594.36	46564.96
594.52	46494.74
594.68	46401.12
594.84	46258.35
594.99	46843.48
595.15	46529.85
595.31	46373.03
595.47	46562.62
595.62	46649.22
595.78	46108.55
595.94	46911.36
596.10	46981.57
596.25	46518.15
596.41	46632.83
596.57	46583.68
596.73	46806.03
596.88	46506.44
597.04	46405.80
597.20	46342.61
597.36	46616.45
597.51	46916.04
597.67	46387.08
597.83	46902.00
597.99	46174.09
598.14	46930.08
598.30	46433.89
598.46	46389.42
598.61	46293.46
598.77	46387.08
598.93	46651.56
599.09	46347.29
599.24	46775.61
599.40	46485.38
599.56	46869.23
599.71	46511.13
599.87	46415.16
600.03	46436.23
600.18	46370.69
600.34	46532.19
600.50	46593.04
600.65	46473.68
600.81	46754.54
600.97	46691.35
601.12	46546.23
601.28	46366.01
601.44	46396.44
601.59	45984.51
601.75	46361.33
601.91	46375.37
602.06	46178.77
602.22	46347.29
602.37	46452.61
602.53	46515.81
602.69	46611.77
602.84	46483.04
603.00	46337.93
603.16	46380.06
603.31	46539.21
603.47	46527.51
603.62	46333.24
603.78	46429.21
603.94	46438.57
604.09	46672.62
604.25	46696.03
604.40	46607.09
604.56	46485.38
604.71	46499.42
604.87	46607.09
605.03	46323.88
605.18	45738.75
605.34	46445.59
605.49	45916.63
605.65	46251.33
605.80	46782.63
605.96	46508.79
606.12	46571.98
606.27	46476.02
606.43	46213.88
606.58	46288.77
606.74	46057.06
606.89	45823.01
607.05	46354.31
607.20	46211.54
607.36	45979.82
607.51	46270.05
607.67	46349.63
607.82	46454.95
607.98	46223.24
608.13	45935.35
608.29	46274.73
608.44	46223.24
608.60	45366.60
608.75	46050.04
608.91	46066.42
609.06	46038.34
609.22	45975.14
609.37	45691.94
609.53	45986.85
609.68	45659.17
609.84	45930.67
609.99	46146.00
610.15	45638.11
610.30	45823.01
610.46	45478.95
610.61	45621.72
610.76	46181.11
610.92	46380.06
611.07	46286.43
611.23	46120.26
611.38	45801.94
611.54	45689.60
611.69	45549.17
611.84	45469.59
612.00	45509.38
612.15	45823.01
612.31	45598.32
612.46	45607.68
612.62	45680.24
612.77	45661.51
612.92	45682.58
613.08	45701.30
613.23	45881.52
613.39	45352.56
613.54	45123.19
613.69	45539.80
613.85	45600.66
614.00	45432.14
614.15	45624.06
614.31	45530.44
614.46	45511.72
614.62	45455.54
614.77	45605.34
614.92	45230.85
615.08	45462.57
615.23	45062.33
615.38	45207.45
615.54	44907.86
615.69	45045.95
615.84	45289.37
616.00	45251.92
616.15	44818.92
616.30	45457.88
616.46	44814.24
616.61	44886.79
616.76	44739.34
616.92	44596.57
617.07	45043.61
617.22	44545.08
617.37	44678.49
617.53	44940.63
617.68	44910.20
617.83	45254.26
617.99	45361.92
618.14	44680.83
618.29	45043.61
618.45	44254.85
618.60	44739.34
618.75	44313.36
618.90	45029.57
619.06	45090.42
619.21	45207.45
619.36	44980.42
619.51	44741.68
619.67	44474.86
619.82	44727.64
619.97	45076.38
620.12	44626.99
620.28	44491.24
620.43	44502.95
620.58	44788.49
620.73	44334.43
620.89	44591.89
621.04	44594.23
621.19	44086.33
621.34	44690.19
621.49	43973.98
621.65	43728.23
621.80	44507.63
621.95	43866.32
622.10	44044.20
622.25	43861.64
622.41	44196.34
622.56	43641.63
622.71	44147.18
622.86	44156.55
623.01	44048.88
623.16	44072.29
623.32	44004.41
623.47	43854.62
623.62	44048.88
623.77	43643.97
623.92	44208.04
624.07	43430.98
624.23	43627.59
624.38	43714.19
624.53	43468.43
624.68	43297.57
624.83	43225.01
624.98	43943.56
625.13	43115.01
625.29	43847.60
625.44	43281.19
625.59	43384.17
625.74	42983.94
625.89	43021.39
626.04	43367.79
626.19	43232.04
626.34	43072.88
626.49	43599.50
626.65	43140.75
626.80	43494.18
626.95	43374.81
627.10	43283.53
627.25	43491.83
627.40	42445.62
627.55	42890.32
627.70	42532.22
627.85	42689.03
628.00	42607.11
628.15	43262.46
628.30	42445.62
628.45	43084.58
628.60	43016.71
628.76	42852.87
628.91	43430.98
629.06	42607.11
629.21	42916.06
629.36	42377.74
629.51	42424.55
629.66	42436.25
629.81	42380.08
629.96	42492.43
630.11	42609.45
630.26	42976.92
630.41	42906.70
630.56	42810.74
630.71	42225.60
630.86	42291.14
631.01	42033.68
631.16	41958.78
631.31	42082.83
631.46	42099.22
631.61	42218.58
631.76	42335.61
631.91	42286.46
632.06	42220.92
632.21	42396.46
632.36	42469.02
632.51	41991.55
632.66	41907.29
632.81	41778.56
632.96	41902.61
633.10	42206.88
633.25	41958.78
633.40	42211.56
633.55	42438.59
633.70	41764.52
633.85	42146.03
634.00	42033.68
634.15	41895.59
634.30	42043.04
634.45	42211.56
634.60	41862.82
634.75	41706.01
634.90	41724.73
635.05	42068.79
635.19	41668.56
635.34	42115.60
635.49	41336.20
635.64	41738.77
635.79	41628.77
635.94	41392.37
636.09	41273.01
636.24	41273.01
636.39	41153.64
636.53	41113.85
636.68	41652.17
636.83	41235.56
636.98	41457.91
637.13	41270.67
637.28	41375.99
637.43	41549.19
637.57	41581.96
637.72	41486.00
637.87	41434.50
638.02	41221.52
638.17	41633.45
638.32	40933.63
638.46	41256.62
638.61	41029.59
638.76	41233.22
638.91	41219.17
639.06	40629.36
639.20	41015.55
639.35	41111.51
639.50	41268.33
639.65	41340.88
639.80	41146.62
639.94	40556.80
640.09	40891.50
640.24	40458.50
640.39	40634.04
640.54	40591.91
640.68	40809.58
640.83	40545.10
640.98	40741.71
641.13	40538.08
641.27	40931.29
641.42	40430.41
641.57	40404.67
641.72	40669.15
641.86	40781.49
642.01	40484.25
642.16	40128.48
642.31	40205.72
642.45	40416.37
642.60	40603.61
642.75	40280.62
642.90	40264.24
643.04	40528.72
643.19	39938.90
643.34	40189.34
643.48	39924.86
643.63	40009.12
643.78	40187.00
643.93	39995.07
644.07	39784.43
644.22	39976.35
644.37	39814.85
644.51	40009.12
644.66	40055.93
644.81	39868.69
644.95	39922.52
645.10	40149.55
645.25	39847.62
645.39	40430.41
645.54	39793.79
645.69	39548.03
645.83	39679.10
645.98	39847.62
646.13	40297.00
646.27	39566.76
646.42	39784.43
646.57	39409.94
646.71	39466.11
646.86	39683.78
647.00	39643.99
647.15	39550.37
647.30	39643.99
647.44	39709.53
647.59	39433.35
647.74	38892.68
647.88	39693.15
648.03	39482.50
648.17	39494.20
648.32	39323.34
648.47	39604.20
648.61	39033.11
648.76	39608.89
648.90	39136.10
649.05	38948.85
649.20	39096.31
649.34	39360.79
649.49	38813.10
649.63	38747.57
649.78	38808.42
649.92	39454.41
650.07	39487.18
650.21	38630.54
650.36	38838.85
650.51	39016.73
650.65	39660.38
650.80	39093.97
650.94	39225.04
651.09	39084.61
651.23	38747.57
651.38	38698.42
651.52	38380.10
651.67	38499.47
651.81	38981.62
651.96	38548.62
652.10	38684.37
652.25	38583.73
652.39	38586.07
652.54	38518.20
652.68	38822.47
652.83	38431.60
652.97	39108.01
653.12	38913.75
653.26	38239.67
653.41	38438.62
653.55	38265.42
653.70	38473.73
653.84	38778.00
653.99	38581.39
654.13	38321.59
654.27	37773.91
654.42	37848.80
654.56	37841.78
654.71	38359.04
654.85	38555.64
655.00	38054.77
655.14	38087.54
655.29	37968.17
655.43	37956.47
655.57	37701.35
655.72	37633.47
655.86	37046.00
656.01	37418.14
656.15	37085.79
656.30	37591.34
656.44	37495.38
656.58	37383.04
656.73	37743.48
656.87	37598.37
657.01	37565.60
657.16	37996.26
657.30	37436.87
657.45	37523.47
657.59	37331.54
657.73	37394.74
657.88	37736.46
658.02	37979.87
658.16	37778.59
658.31	37670.92
658.45	37137.28
658.60	37574.96
658.74	37759.86
658.88	37729.44
659.03	37198.13
659.17	36758.11
659.31	36816.63
659.46	36802.58
659.60	37270.69
659.74	37081.11
659.89	37048.34
660.03	36397.67
660.17	37069.40
660.32	36758.11
660.46	36954.72
660.60	36978.12
660.74	37003.87
660.89	36371.92
661.03	36664.49
661.17	36531.08
661.32	35971.69
661.46	36704.28
661.60	36659.81
661.74	36308.73
661.89	36280.64
662.03	36451.50
662.17	35709.55
662.31	36257.24
662.46	36327.45
662.60	36346.18
662.74	36109.78
662.88	35646.36
663.03	35704.87
663.17	36278.30
663.31	35929.56
663.45	36037.23
663.60	35716.58
663.74	35550.40
663.88	35899.14
664.02	35686.15
664.17	35641.68
664.31	35515.29
664.45	35601.89
664.59	35735.30
664.73	35683.81
664.88	35529.33
665.02	35105.70
665.16	35306.98
665.30	35267.19
665.44	35295.28
665.59	35105.70
665.73	34948.88
665.87	34948.88
666.01	34955.90
666.15	35089.31
666.29	35145.48
666.44	35084.63
666.58	35136.12
666.72	34897.39
666.86	34899.73
667.00	34569.71
667.14	34033.73
667.28	34668.02
667.43	34148.42
667.57	34490.13
667.71	34485.45
667.85	34029.05
667.99	34590.78
668.13	34089.90
668.27	34330.98
668.41	34078.20
668.56	34040.75
668.70	34279.49
668.84	33607.75
668.98	33741.16
669.12	33308.16
669.26	33947.13
669.40	33455.62
669.54	33654.56
669.68	33338.59
669.82	33549.24
669.96	33432.21
670.10	33371.36
670.25	33254.33
670.39	33013.26
670.53	33120.92
670.67	32755.80
670.81	33434.55
670.95	33291.78
671.09	33277.74
671.23	32797.93
671.37	32900.91
671.51	32954.74
671.65	32697.28
671.79	32556.85
671.93	32842.40
672.07	32725.37
672.21	32573.24
672.35	32453.87
672.49	32526.42
672.63	32161.30
672.77	32243.22
672.91	32650.47
673.05	32077.04
673.19	31967.04
673.33	32013.85
673.47	32013.85
673.61	32027.89
673.75	31686.17
673.89	31384.24
674.03	31393.61
674.17	31660.43
674.31	31297.64
674.45	31550.42
674.59	31030.82
674.73	31386.58
674.87	31108.06
675.01	31386.58
675.15	31124.44
675.29	31065.93
675.43	31302.32
675.56	31161.89
675.70	30958.27
675.84	30721.87
675.98	29663.95
676.12	30639.95
676.26	30574.42
676.40	30153.12
676.54	30635.27
676.68	30581.44
676.82	29839.49
676.96	30080.56
677.10	29699.06
677.23	30405.90
677.37	29720.12
677.51	29734.17
677.65	29633.52
677.79	29139.67
677.93	29385.43
678.07	29783.32
678.21	29017.96
678.34	28769.86
678.48	28982.85
678.62	29156.05
678.76	28636.45
678.90	28601.35
679.04	28233.88
679.18	28706.67
679.31	28161.33
679.45	28283.03
679.59	28070.04
679.73	27843.01
679.87	28032.60
680.00	28088.77
680.14	27936.63
680.28	27913.23
680.42	27704.92
680.56	27751.73
680.70	27496.61
680.83	28254.95
680.97	27857.06
681.11	27489.59
681.25	27070.64
681.39	27208.73
681.52	27138.51
681.66	27648.75
681.80	27075.32
681.94	27157.24
682.07	26948.93
682.21	26820.20
682.35	26595.51
682.49	26522.95
682.62	27105.74
682.76	26586.15
682.90	26300.60
683.04	26338.05
683.17	26225.70
683.31	25935.48
683.45	26218.68
683.59	26127.40
683.72	25916.75
683.86	25979.95
684.00	25879.30
684.13	25731.85
684.27	25331.62
684.41	25284.81
684.55	25469.71
684.68	25303.53
684.82	25518.86
684.96	25132.67
685.09	24940.75
685.23	24886.92
685.37	24648.18
685.50	24706.70
685.64	24599.03
685.78	24563.92
685.91	24259.65
686.05	24645.84
686.19	24264.33
686.32	24009.22
686.46	23718.99
686.60	23353.87
686.73	23733.03
686.87	23295.35
687.01	23323.44
687.14	23396.00
687.28	23229.82
687.42	23414.72
687.55	22979.38
687.69	23398.34
687.82	23016.83
687.96	23126.83
688.10	23028.53
688.23	22810.86
688.37	22717.24
688.50	22724.26
688.64	22487.87
688.78	22651.70
688.91	22361.48
689.05	22307.65
689.18	22424.67
689.32	21743.58
689.46	22148.49
689.59	22424.67
689.73	22171.89
689.86	22218.71
690.00	22169.55
690.13	21876.99
690.27	21696.77
690.41	22192.96
690.54	21479.10
690.68	21170.15
690.81	21448.67
690.95	21268.45
691.08	21294.19
691.22	21270.79
691.35	21223.98
691.49	21359.73
691.62	20893.96
691.76	20830.77
691.89	20821.41
692.03	20807.36
692.16	20542.88
692.30	20746.51
692.43	20285.42
692.57	20159.03
692.70	20458.62
692.84	20596.71
692.97	19943.70
693.11	20013.92
693.24	20020.94
693.38	19751.78
693.51	19803.27
693.65	19763.48
693.78	19917.96
693.92	19920.30
694.05	19763.48
694.19	19431.13
694.32	19374.95
694.45	19271.97
694.59	19255.59
694.72	19073.03
694.86	18906.85
694.99	18892.80
695.13	18899.83
695.26	18752.37
695.39	18576.83
695.53	18895.14
695.66	19225.16
695.80	18621.30
695.93	18625.98
696.07	18295.97
696.20	18560.45
696.33	18387.25
696.47	18237.45
696.60	18347.46
696.73	18071.28
696.87	17912.12
697.00	17649.98
697.14	17708.49
697.27	17987.02
697.40	17792.75
697.54	17694.45
697.67	17413.59
697.80	17399.54
697.94	17238.05
698.07	17092.93
698.21	17125.70
698.34	17153.79
698.47	16982.93
698.61	16631.85
698.74	16889.31
698.87	16819.09
699.01	16350.98
699.14	16702.06
699.27	16489.07
699.40	16552.27
699.54	16360.34
699.67	16210.55
699.80	16372.05
699.94	16020.97
700.07	16215.23
700.20	15927.35
700.34	15866.49
700.47	16039.69
700.60	16114.59
700.73	15990.54
700.87	16121.61
701.00	15925.00
701.13	15805.64
701.26	15456.90
701.40	15648.82
701.53	15318.81
701.66	15131.56
701.79	15124.54
701.93	14995.81
702.06	15176.03
702.19	15257.95
702.32	14944.32
702.46	15007.52
702.59	15035.60
702.72	15091.77
702.85	14941.98
702.99	15103.48
703.12	14698.56
703.25	14642.39
703.38	14225.78
703.51	14340.46
703.65	14394.29
703.78	14310.04
703.91	14359.19
704.04	14298.33
704.17	14267.91
704.31	14118.11
704.44	13879.38
704.57	13968.32
704.70	13685.11
704.83	13994.06
704.96	13982.36
705.10	13926.19
705.23	14003.43
>>>>>End Processed Spectral Data<<<<<
