SpectraSuite Data File
++++++++++++++++++++++++++++++++++++
Date: Fri Oct 25 11:33:28 EDT 2013
User: price-jones
Dark Spectrum Present: No
Reference Spectrum Present: No
Number of Sampled Component Spectra: 1
Spectrometers: USB2+H05261
Integration Time (usec): 100000 (USB2+H05261)
Spectra Averaged: 1 (USB2+H05261)
Boxcar Smoothing: 0 (USB2+H05261)
Correct for Electrical Dark: No (USB2+H05261)
Strobe/Lamp Enabled: No (USB2+H05261)
Correct for Detector Non-linearity: No (USB2+H05261)
Correct for Stray Light: No (USB2+H05261)
Number of Pixels in Processed Spectrum: 2048
>>>>>Begin Processed Spectral Data<<<<<
365.73	327.68
365.92	327.68
366.12	327.68
366.32	264.48
366.52	212.99
366.72	208.31
366.91	168.52
367.11	215.33
367.31	156.82
367.51	201.29
367.70	161.50
367.90	142.77
368.10	173.20
368.30	198.95
368.49	117.03
368.69	205.97
368.89	86.60
369.09	138.09
369.28	229.37
369.48	236.39
369.68	238.73
369.87	231.71
370.07	236.39
370.27	222.35
370.47	320.65
370.66	547.69
370.86	472.79
371.06	589.82
371.25	547.69
371.45	594.50
371.65	524.28
371.84	582.79
372.04	568.75
372.24	617.90
372.44	617.90
372.63	592.16
372.83	653.01
373.03	601.52
373.22	561.73
373.42	622.58
373.62	629.60
373.81	589.82
374.01	662.37
374.21	702.16
374.40	681.10
374.60	650.67
374.79	559.39
374.99	650.67
375.19	592.16
375.38	589.82
375.58	599.18
375.78	641.31
375.97	688.12
376.17	690.46
376.37	674.07
376.56	650.67
376.76	697.48
376.95	681.10
377.15	713.86
377.35	667.05
377.54	624.92
377.74	716.20
377.93	636.63
378.13	620.24
378.33	779.40
378.52	699.82
378.72	711.52
378.91	725.57
379.11	741.95
379.31	709.18
379.50	643.65
379.70	683.44
379.89	716.20
380.09	671.73
380.28	770.04
380.48	634.29
380.68	753.65
380.87	727.91
381.07	706.84
381.26	755.99
381.46	744.29
381.65	727.91
381.85	720.88
382.04	840.25
382.24	802.80
382.43	798.12
382.63	807.48
382.83	784.08
383.02	791.10
383.22	821.53
383.41	755.99
383.61	734.93
383.80	863.66
384.00	746.63
384.19	793.44
384.39	823.87
384.58	816.85
384.78	798.12
384.97	861.32
385.17	798.12
385.36	826.21
385.56	835.57
385.75	854.30
385.95	748.97
386.14	875.36
386.34	887.06
386.53	866.00
386.72	910.47
386.92	840.25
387.11	905.79
387.31	940.90
387.50	898.77
387.70	826.21
387.89	910.47
388.09	800.46
388.28	940.90
388.48	917.49
388.67	1004.09
388.86	868.34
389.06	971.32
389.25	959.62
389.45	954.94
389.64	924.51
389.84	882.38
390.03	978.34
390.22	917.49
390.42	1011.11
390.61	1020.47
390.81	903.45
391.00	992.39
391.19	999.41
391.39	966.64
391.58	1053.24
391.78	994.73
391.97	990.05
392.16	1015.79
392.36	1093.03
392.55	994.73
392.75	1074.31
392.94	1053.24
393.13	1125.80
393.33	1027.50
393.52	1050.90
393.71	1111.75
393.91	1123.46
394.10	1118.78
394.29	1048.56
394.49	1067.28
394.68	1156.22
394.88	1203.04
395.07	1191.33
395.26	1086.01
395.46	1188.99
395.65	1097.71
395.84	1132.82
396.04	1228.78
396.23	1139.84
396.42	1172.61
396.62	1247.51
396.81	1256.87
397.00	1177.29
397.19	1165.59
397.39	1153.88
397.58	1296.66
397.77	1186.65
397.97	1221.76
398.16	1256.87
398.35	1343.47
398.55	1327.08
398.74	1266.23
398.93	1252.19
399.12	1306.02
399.32	1291.98
399.51	1350.49
399.70	1376.24
399.90	1266.23
400.09	1364.53
400.28	1373.89
400.47	1277.93
400.67	1465.18
400.86	1451.13
401.05	1441.77
401.24	1441.77
401.44	1493.26
401.63	1387.94
401.82	1551.78
402.01	1451.13
402.21	1348.15
402.40	1528.37
402.59	1425.39
402.78	1500.28
402.97	1530.71
403.17	1535.39
403.36	1589.22
403.55	1556.46
403.74	1650.08
403.93	1647.74
404.13	1586.88
404.32	1666.46
404.51	1629.01
404.70	1624.33
404.89	1624.33
405.09	1650.08
405.28	1696.89
405.47	1645.40
405.66	1687.53
405.85	1633.69
406.05	1689.87
406.24	1802.21
406.43	1802.21
406.62	1891.15
406.81	1879.45
407.00	1750.72
407.20	1736.68
407.39	1867.75
407.58	1858.39
407.77	1823.28
407.96	1895.83
408.15	1853.70
408.34	1813.92
408.54	1921.58
408.73	1870.09
408.92	1968.39
409.11	2005.84
409.30	1977.75
409.49	1959.03
409.68	2120.53
409.87	1933.28
410.07	1928.60
410.26	2017.54
410.45	2080.74
410.64	2050.31
410.83	2150.95
411.02	2073.71
411.21	2232.87
411.40	2073.71
411.59	2181.38
411.78	2200.10
411.98	2209.47
412.17	2249.25
412.36	2237.55
412.55	2375.64
412.74	2349.90
412.93	2310.11
413.12	2279.68
413.31	2356.92
413.50	2291.38
413.69	2399.05
413.88	2569.91
414.07	2483.31
414.26	2588.63
414.45	2459.90
414.64	2579.27
414.83	2537.14
415.02	2572.25
415.22	2729.06
415.41	2710.34
415.60	2670.55
415.79	2663.53
415.98	2740.77
416.17	2630.76
416.36	2672.89
416.55	2775.88
416.74	2719.70
416.93	2700.98
417.12	2808.64
417.31	2857.79
417.50	2923.33
417.69	2977.16
417.88	2801.62
418.07	2857.79
418.26	2944.39
418.45	2937.37
418.64	3112.91
418.83	3089.51
419.02	3129.30
419.21	3047.38
419.39	3126.96
419.58	3129.30
419.77	3049.72
419.96	3164.40
420.15	3157.38
420.34	3112.91
420.53	3173.77
420.72	3281.43
420.91	3148.02
421.10	3213.56
421.29	3218.24
421.48	3152.70
421.67	3318.88
421.86	3342.28
422.05	3288.45
422.24	3229.94
422.43	3349.31
422.61	3300.16
422.80	3452.29
422.99	3463.99
423.18	3375.05
423.37	3361.01
423.56	3346.97
423.75	3325.90
423.94	3309.52
424.13	3171.43
424.32	3213.56
424.50	3431.23
424.69	3527.19
424.88	3517.83
425.07	3391.44
425.26	3389.10
425.45	3452.29
425.64	3375.05
425.83	3391.44
426.01	3377.39
426.20	3417.18
426.39	3501.44
426.58	3489.74
426.77	3510.80
426.96	3375.05
427.15	3541.23
427.33	3595.06
427.52	3487.40
427.71	3597.40
427.90	3548.25
428.09	3581.02
428.28	3667.62
428.46	3758.90
428.65	3646.55
428.84	3775.28
429.03	3892.31
429.22	3686.34
429.40	3693.37
429.59	3810.39
429.78	3688.68
429.97	3571.66
430.16	3712.09
430.34	3758.90
430.53	4011.68
430.72	3866.56
430.91	3934.44
431.10	3901.67
431.28	3985.93
431.47	3878.27
431.66	3983.59
431.85	4081.89
432.03	4011.68
432.22	4032.74
432.41	4021.04
432.60	4140.41
432.79	4037.42
432.97	4084.23
433.16	4138.07
433.35	4065.51
433.54	4154.45
433.72	4156.79
433.91	4229.35
434.10	4149.77
434.28	4222.33
434.47	4135.73
434.66	4234.03
434.85	4379.14
435.03	4231.69
435.22	4400.21
435.41	4376.80
435.59	4294.88
435.78	4372.12
435.97	4409.57
436.16	4484.47
436.34	4306.59
436.53	4430.63
436.72	4465.74
436.90	4285.52
437.09	4538.30
437.28	4447.02
437.46	4421.27
437.65	4580.43
437.84	4681.07
438.02	4709.16
438.21	4648.30
438.40	4667.03
438.58	4779.37
438.77	4905.76
438.96	4681.07
439.14	4917.47
439.33	4943.21
439.52	4887.04
439.70	4905.76
439.89	4999.38
440.08	5088.32
440.26	5081.30
440.45	5055.56
440.63	4980.66
440.82	5245.14
441.01	5146.84
441.19	5160.88
441.38	5263.86
441.57	5144.50
441.75	5378.55
441.94	5458.13
442.12	5355.15
442.31	5488.56
442.50	5507.28
442.68	5509.62
442.87	5467.49
443.05	5497.92
443.24	5664.10
443.43	5504.94
443.61	5481.53
443.80	5699.20
443.98	5549.41
444.17	5310.68
444.35	5753.04
444.54	5713.25
444.73	5591.54
444.91	5671.12
445.10	5633.67
445.28	5652.39
445.47	5626.65
445.65	5687.50
445.84	5760.06
446.02	5685.16
446.21	5628.99
446.39	5790.49
446.58	5895.81
446.77	5825.59
446.95	5647.71
447.14	5802.19
447.32	5846.66
447.51	5673.46
447.69	5769.42
447.88	5816.23
448.06	5713.25
448.25	5668.78
448.43	5811.55
448.62	5706.23
448.80	5654.73
448.99	5937.94
449.17	5881.77
449.36	5954.32
449.54	6071.35
449.73	5956.66
449.91	6193.06
450.10	6111.14
450.28	6066.67
450.46	6003.47
450.65	6120.50
450.83	6251.57
451.02	6113.48
451.20	6202.42
451.39	6265.61
451.57	6258.59
451.76	6326.47
451.94	6270.30
452.13	6504.35
452.31	6352.21
452.49	6244.55
452.68	6193.06
452.86	6335.83
453.05	6368.60
453.23	6511.37
453.42	6267.95
453.60	6176.67
453.78	6502.01
453.97	6401.37
454.15	6328.81
454.34	6363.92
454.52	6628.40
454.70	6502.01
454.89	6602.65
455.07	6604.99
455.26	6710.32
455.44	6773.51
455.62	6677.55
455.81	6487.96
455.99	6825.00
456.17	6757.13
456.36	6689.25
456.54	6707.98
456.73	6902.24
456.91	6848.41
457.09	6984.16
457.28	7103.53
457.46	6848.41
457.64	7021.61
457.83	7236.94
458.01	7073.10
458.19	7286.09
458.38	7028.63
458.56	7211.19
458.74	7087.14
458.93	7178.42
459.11	7250.98
459.29	7353.96
459.48	7227.57
459.66	7208.85
459.84	7339.92
460.03	7255.66
460.21	7325.88
460.39	7485.03
460.57	7445.24
460.76	7342.26
460.94	7487.37
461.12	7578.65
461.31	7478.01
461.49	7564.61
461.67	7405.46
461.85	7648.87
462.04	7653.55
462.22	8070.17
462.40	7803.35
462.59	7843.14
462.77	7861.86
462.95	7859.52
463.13	7651.21
463.32	7894.63
463.50	8037.40
463.68	8002.29
463.86	7803.35
464.05	7927.39
464.23	7962.50
464.41	7976.55
464.59	7976.55
464.78	8060.80
464.96	8053.78
465.14	7976.55
465.32	7962.50
465.50	8341.67
465.69	8072.51
465.87	8168.47
466.05	8105.28
466.23	8315.92
466.41	8126.34
466.60	8414.23
466.78	8166.13
466.96	8252.73
467.14	8287.84
467.32	8360.39
467.51	8367.42
467.69	8266.77
467.87	8322.94
468.05	8491.46
468.23	8320.60
468.41	8400.18
468.60	8362.73
468.78	8528.91
468.96	8421.25
469.14	8594.45
469.32	8702.11
469.50	8510.19
469.69	8659.98
469.87	8727.86
470.05	8739.56
470.23	8821.48
470.41	8858.93
470.59	8676.37
470.77	8664.66
470.95	8863.61
471.14	9167.88
471.32	9039.15
471.50	9132.77
471.68	9149.15
471.86	9083.62
472.04	9186.60
472.22	9331.72
472.40	9125.75
472.58	9104.68
472.77	9343.42
472.95	9439.38
473.13	9715.56
473.31	9488.53
473.49	9432.36
473.67	9437.04
473.85	9528.32
474.03	9493.21
474.21	9643.01
474.39	9729.61
474.57	9776.42
474.75	9823.23
474.93	10008.13
475.12	10008.13
475.30	9926.21
475.48	10064.30
475.66	10279.63
475.84	10118.14
476.02	10160.27
476.20	10497.30
476.38	10267.93
476.56	10483.26
476.74	10717.31
476.92	10445.81
477.10	10480.92
477.28	10773.49
477.46	10717.31
477.64	10710.29
477.82	11000.52
478.00	11136.27
478.18	11075.42
478.36	11349.26
478.54	11496.71
478.72	11365.64
478.90	11545.86
479.08	11775.24
479.26	11700.34
479.44	11723.74
479.62	11840.77
479.80	11920.35
479.98	12009.29
480.16	12149.72
480.34	11939.07
480.52	12154.40
480.70	12271.43
480.88	12308.88
481.06	12538.25
481.24	12496.12
481.41	12774.64
481.59	12760.60
481.77	12994.65
481.95	12765.28
482.13	13245.09
482.31	12919.76
482.49	13329.35
482.67	13315.31
482.85	13497.87
483.03	13682.77
483.21	13640.64
483.39	13743.63
483.57	13837.25
483.74	13823.20
483.92	14204.71
484.10	13989.38
484.28	14136.84
484.46	14504.30
484.64	14682.18
484.82	14368.55
485.00	14588.56
485.18	15157.31
485.35	15382.00
485.53	15091.77
485.71	15250.93
485.89	15482.64
486.07	15382.00
486.25	15723.72
486.43	15506.05
486.61	15864.15
486.78	15934.37
486.96	15917.98
487.14	16140.33
487.32	16439.92
487.50	16425.88
487.68	16727.81
487.85	16514.82
488.03	16659.93
488.21	16987.61
488.39	16908.03
488.57	17516.57
488.75	17226.34
488.92	17193.58
489.10	17788.07
489.28	17549.34
489.46	17811.48
489.64	17994.04
489.81	18052.55
489.99	18057.23
490.17	18260.86
490.35	18665.77
490.53	18546.40
490.70	18775.78
490.88	18696.20
491.06	18698.54
491.24	18848.33
491.41	19087.07
491.59	19501.34
491.77	19412.40
491.95	19695.61
492.13	19719.01
492.30	19796.25
492.48	19440.49
492.66	19896.89
492.84	19988.18
493.01	19800.93
493.19	20063.07
493.37	20236.27
493.54	20393.09
493.72	20699.70
493.90	20704.38
494.08	20659.91
494.25	21214.62
494.43	20908.01
494.61	21542.29
494.79	21366.75
494.96	21345.69
495.14	22005.72
495.32	21853.58
495.49	21624.21
495.67	21975.29
495.85	22080.61
496.02	22228.07
496.20	22555.74
496.38	22309.99
496.55	22513.61
496.73	22808.52
496.91	22682.13
497.09	22782.77
497.26	22977.04
497.44	22888.10
497.62	23000.44
497.79	23426.42
497.97	23367.91
498.14	23784.52
498.32	23683.88
498.50	23866.44
498.67	23704.95
498.85	24013.90
499.03	24212.84
499.20	24276.04
499.38	24482.00
499.56	24479.66
499.73	24599.03
499.91	24795.64
500.08	24847.13
500.26	24407.11
500.44	24748.82
500.61	24898.62
500.79	24783.93
500.97	24973.52
501.14	25427.58
501.32	25097.56
501.49	25317.57
501.67	25474.39
501.84	25638.23
502.02	25738.87
502.20	25717.81
502.37	25909.73
502.55	26080.59
502.72	26115.70
502.90	26059.52
503.07	26092.29
503.25	26228.04
503.43	25928.45
503.60	26396.56
503.78	26429.33
503.95	26429.33
504.13	26738.28
504.30	26717.22
504.48	26827.22
504.65	27080.00
504.83	26904.46
505.01	26895.10
505.18	27147.87
505.36	27356.18
505.53	27112.77
505.71	27405.33
505.88	27473.21
506.06	27653.43
506.23	27976.42
506.41	27541.08
506.58	27730.67
506.76	28182.39
506.93	28081.75
507.11	28107.49
507.28	28360.27
507.46	28322.82
507.63	28308.78
507.81	28533.47
507.98	28137.92
508.16	28524.11
508.33	28570.92
508.50	28800.29
508.68	29160.73
508.85	29303.51
509.03	28826.04
509.20	28849.44
509.38	29465.00
509.55	29422.87
509.73	29226.27
509.90	29577.35
510.08	29577.35
510.25	29219.25
510.42	30012.69
510.60	29926.09
510.77	30136.74
510.95	30204.61
511.12	30209.29
511.30	29975.24
511.47	30267.81
511.64	30225.68
511.82	30199.93
511.99	30178.87
512.17	29811.40
512.34	29984.60
512.51	30911.46
512.69	30721.87
512.86	30759.32
513.04	31079.97
513.21	30972.31
513.38	31381.90
513.56	31082.31
513.73	31278.92
513.90	31094.02
514.08	31445.10
514.25	31585.53
514.43	31639.36
514.60	31529.36
514.77	31459.14
514.95	31559.78
515.12	32238.54
515.29	31587.87
515.47	31824.26
515.64	32212.79
515.81	32591.96
515.99	32158.96
516.16	32367.27
516.33	32308.76
516.51	32252.58
516.68	32332.16
516.85	32496.00
517.03	33074.11
517.20	32931.34
517.37	33088.15
517.54	33064.75
517.72	32788.56
517.89	33240.29
518.06	32828.35
518.24	33212.20
518.41	33081.13
518.58	33165.39
518.75	33008.58
518.93	33614.77
519.10	33584.35
519.27	33081.13
519.45	33605.41
519.62	33905.00
519.79	34153.10
519.96	33998.62
520.14	34162.46
520.31	33649.88
520.48	34075.86
520.65	34249.06
520.83	34199.91
521.00	34178.84
521.17	34546.31
521.34	34614.18
521.52	34356.72
521.69	34246.72
521.86	34794.40
522.03	34881.00
522.20	35035.48
522.38	35014.41
522.55	35227.40
522.72	35009.73
522.89	35000.37
523.07	35716.58
523.24	35246.13
523.41	35438.05
523.58	35416.99
523.75	35700.19
523.92	35550.40
524.10	35730.62
524.27	36280.64
524.44	35971.69
524.61	35674.45
524.78	35887.43
524.96	36086.38
525.13	36292.35
525.30	36268.94
525.47	36247.88
525.64	35922.54
525.81	36451.50
525.98	36404.69
526.16	36334.48
526.33	35971.69
526.50	36662.15
526.67	36439.80
526.84	36645.77
527.01	36355.54
527.18	36498.31
527.36	36938.33
527.53	36903.23
527.70	37752.84
527.87	37521.13
528.04	37029.62
528.21	37062.38
528.38	37256.65
528.55	37727.10
528.72	37209.84
528.89	37722.41
529.07	37202.82
529.24	36992.17
529.41	37558.58
529.58	37794.97
529.75	37326.86
529.92	37345.59
530.09	37876.89
530.26	37703.69
530.43	38029.02
530.60	37600.71
530.77	37872.21
530.94	38220.95
531.11	38302.87
531.28	37806.67
531.46	38337.98
531.63	38471.39
531.80	38047.75
531.97	38567.35
532.14	38431.60
532.31	38670.33
532.48	38548.62
532.65	38630.54
532.82	38476.07
532.99	38888.00
533.16	38548.62
533.33	38841.19
533.50	38976.94
533.67	38717.14
533.84	38735.87
534.01	39075.24
534.18	39065.88
534.35	39346.75
534.52	39281.21
534.69	39384.19
534.86	40013.80
535.03	39124.40
535.20	39461.43
535.37	39625.27
535.54	39686.12
535.71	39756.34
535.88	39519.95
536.05	39531.65
536.22	39971.67
536.38	39260.15
536.55	40020.82
536.72	39871.03
536.89	39765.70
537.06	39934.22
537.23	40282.96
537.40	40062.95
537.57	40027.84
537.74	39592.50
537.91	40741.71
538.08	40034.86
538.25	40109.76
538.42	40697.24
538.59	40685.53
538.75	40264.24
538.92	40617.66
539.09	40790.86
539.26	40582.55
539.43	40678.51
539.60	40526.38
539.77	40872.78
539.94	40959.38
540.11	40514.67
540.28	41170.02
540.44	41123.21
540.61	40856.39
540.78	40959.38
540.95	40842.35
541.12	40886.82
541.29	40950.01
541.46	41195.77
541.62	41153.64
541.79	41443.87
541.96	40994.48
542.13	41338.54
542.30	40975.76
542.47	41614.72
542.63	41111.51
542.80	41558.55
542.97	41635.79
543.14	41979.85
543.31	41797.29
543.48	41757.50
543.64	42096.88
543.81	41940.06
543.98	42361.36
544.15	42471.36
544.32	41961.12
544.48	42752.23
544.65	42195.18
544.82	42543.92
544.99	42244.33
545.16	42188.16
545.32	42539.24
545.49	42895.00
545.66	42630.52
545.83	42958.19
546.00	42663.28
546.16	42422.21
546.33	42637.54
546.50	42660.94
546.67	43185.22
546.83	42312.20
547.00	42873.93
547.17	42672.65
547.34	43236.72
547.50	43042.45
547.67	43250.76
547.84	42777.97
548.00	43180.54
548.17	43363.11
548.34	43433.32
548.51	43311.61
548.67	43150.12
548.84	43351.40
549.01	43281.19
549.18	43835.89
549.34	43363.11
549.51	43620.56
549.68	43863.98
549.84	43536.30
550.01	43342.04
550.18	43484.81
550.34	43599.50
550.51	43643.97
550.68	43990.37
550.84	43468.43
551.01	43885.04
551.18	43372.47
551.34	43814.83
551.51	43711.84
551.68	43934.20
551.84	44212.72
552.01	43573.75
552.18	44095.69
552.34	44105.06
552.51	44507.63
552.68	43899.09
552.84	44032.50
553.01	44376.56
553.18	44442.09
553.34	44135.48
553.51	44217.40
553.67	44350.81
553.84	44467.84
554.01	44624.65
554.17	44725.30
554.34	44580.18
554.51	44793.17
554.67	45120.85
554.84	44641.04
555.00	44425.71
555.17	44718.28
555.33	44949.99
555.50	44456.14
555.67	44949.99
555.83	44898.50
556.00	44830.62
556.16	45399.37
556.33	45357.24
556.50	45347.88
556.66	45010.84
556.83	45095.10
556.99	45668.53
557.16	45530.44
557.32	45750.45
557.49	45338.52
557.65	45322.13
557.82	44994.46
557.98	45453.20
558.15	45148.93
558.32	45436.82
558.48	44619.97
558.65	45268.30
558.81	45137.23
558.98	45504.70
559.14	45059.99
559.31	45366.60
559.47	45132.55
559.64	45221.49
559.80	45209.79
559.97	45645.13
560.13	45052.97
560.30	45312.77
560.46	45354.90
560.63	45893.22
560.79	45755.13
560.96	45879.18
561.12	46059.40
561.29	45804.28
561.45	45984.51
561.61	45612.36
561.78	45483.63
561.94	45703.64
562.11	45813.65
562.27	45823.01
562.44	45722.37
562.60	45940.04
562.77	46206.86
562.93	45715.34
563.10	46602.41
563.26	45771.52
563.42	46157.70
563.59	46248.99
563.75	45811.31
563.92	46499.42
564.08	46017.27
564.24	46490.06
564.41	46267.71
564.57	46117.92
564.74	46326.22
564.90	46019.61
565.07	45762.15
565.23	46312.18
565.39	46300.48
565.56	46330.90
565.72	46583.68
565.88	46513.47
566.05	46115.58
566.21	45888.54
566.38	46106.21
566.54	46504.10
566.70	46307.50
566.87	46600.07
567.03	45982.16
567.19	46461.97
567.36	46892.63
567.52	46225.58
567.68	46930.08
567.85	46555.60
568.01	47002.64
568.17	46394.10
568.34	46674.96
568.50	46885.61
568.66	46277.07
568.83	47030.72
568.99	46670.28
569.15	46646.88
569.32	46649.22
569.48	46188.13
569.64	46880.93
569.81	46464.32
569.97	46674.96
570.13	46810.71
570.30	46579.00
570.46	46806.03
570.62	46815.40
570.78	46693.69
570.95	47084.56
571.11	46721.77
571.27	46852.84
571.43	46639.86
571.60	46557.94
571.76	46401.12
571.92	46679.64
572.09	46607.09
572.25	46698.37
572.41	46412.82
572.57	46902.00
572.74	47313.93
572.90	46927.74
573.06	47407.55
573.22	47199.24
573.38	47246.05
573.55	47136.05
573.71	47393.51
573.87	46951.15
574.03	46899.65
574.20	46955.83
574.36	47023.70
574.52	46967.53
574.68	47459.04
574.84	47311.59
575.01	47007.32
575.17	47262.44
575.33	47325.63
575.49	47047.11
575.65	47484.79
575.82	47515.22
575.98	47126.69
576.14	47306.91
576.30	47386.49
576.46	46997.96
576.62	47318.61
576.79	46904.34
576.95	46756.88
577.11	47049.45
577.27	46969.87
577.43	47217.97
577.59	47276.48
577.75	47124.35
577.92	46756.88
578.08	47215.63
578.24	47079.88
578.40	47463.72
578.56	47468.40
578.72	47615.86
578.88	47327.97
579.04	47363.08
579.21	47318.61
579.37	47114.98
579.53	47653.31
579.69	47674.37
579.85	47206.26
580.01	47421.59
580.17	47517.56
580.33	47508.19
580.49	47227.33
580.65	47360.74
580.82	47159.45
580.98	47302.23
581.14	46913.70
581.30	47100.94
581.46	47529.26
581.62	47215.63
581.78	47299.89
581.94	47398.19
582.10	47084.56
582.26	47679.05
582.42	47409.89
582.58	47304.57
582.74	47447.34
582.90	47360.74
583.06	47454.36
583.22	47309.25
583.38	47423.93
583.54	47657.99
583.70	47686.07
583.86	47377.12
584.02	47452.02
584.18	47924.81
584.34	47372.44
584.50	47767.99
584.66	47552.66
584.82	47494.15
584.98	47428.62
585.14	47721.18
585.30	47484.79
585.46	47433.30
585.62	47131.37
585.78	47622.88
585.94	46899.65
586.10	47786.72
586.26	47248.39
586.42	47239.03
586.58	47646.29
586.74	47412.23
586.90	47246.05
587.06	47007.32
587.22	47863.96
587.38	47262.44
587.54	47796.08
587.70	48098.01
587.86	47559.69
588.02	47358.40
588.18	47356.06
588.34	47585.43
588.49	47480.11
588.65	47679.05
588.81	47861.61
588.97	47702.46
589.13	48147.16
589.29	47360.74
589.45	48030.13
589.61	47744.59
589.77	47777.36
589.93	47601.82
590.08	47742.25
590.24	48149.50
590.40	48215.04
590.56	48500.58
590.72	47941.19
590.88	47831.19
591.04	47856.93
591.20	48086.31
591.35	48353.13
591.51	48697.19
591.67	48109.71
591.83	48093.33
591.99	48009.07
592.15	48034.81
592.31	47833.53
592.46	47966.94
592.62	47695.44
592.78	48430.36
592.94	48252.48
593.10	48215.04
593.26	48198.65
593.41	48453.77
593.57	48268.87
593.73	48058.22
593.89	48472.49
594.05	48378.87
594.20	48062.90
594.36	48825.92
594.52	48240.78
594.68	48245.46
594.84	47917.79
594.99	48357.81
595.15	48144.82
595.31	48226.74
595.47	48252.48
595.62	48072.26
595.78	48215.04
595.94	48149.50
596.10	48432.71
596.25	48418.66
596.41	48409.30
596.57	48032.47
596.73	48687.82
596.88	47821.83
597.04	48346.11
597.20	48502.92
597.36	48692.50
597.51	47976.30
597.67	47899.06
597.83	48395.26
597.99	48247.80
598.14	48568.46
598.30	48715.91
598.46	48168.22
598.61	48671.44
598.77	48493.56
598.93	48261.85
599.09	48191.63
599.24	48596.54
599.40	48266.53
599.56	48449.09
599.71	48994.43
599.87	48545.05
600.03	48612.93
600.18	48657.40
600.34	48678.46
600.50	48385.89
600.65	48638.67
600.81	48956.99
600.97	48788.47
601.12	48371.85
601.28	48442.07
601.44	48484.20
601.59	48268.87
601.75	48273.55
601.91	48641.01
602.06	48680.80
602.22	48994.43
602.37	48353.13
602.53	48533.35
602.69	48762.72
602.84	48044.18
603.00	48411.64
603.16	48584.84
603.31	48502.92
603.47	48346.11
603.62	48123.75
603.78	48758.04
603.94	48498.24
604.09	48163.54
604.25	48528.67
604.40	48247.80
604.56	48219.72
604.71	48528.67
604.87	48343.77
605.03	48158.86
605.18	48329.72
605.34	48905.49
605.49	48254.82
605.65	48568.46
605.80	48149.50
605.96	48467.81
606.12	48542.71
606.27	48556.75
606.43	48605.91
606.58	48292.27
606.74	48259.51
606.89	48526.33
607.05	48673.78
607.20	48479.52
607.36	48011.41
607.51	48186.95
607.67	48116.73
607.82	48240.78
607.98	48423.34
608.13	48308.66
608.29	47955.24
608.44	48013.75
608.60	48083.97
608.75	48072.26
608.91	48252.48
609.06	48002.05
609.22	48449.09
609.37	48170.57
609.53	48296.95
609.68	48179.93
609.84	48416.32
609.99	48240.78
610.15	47922.47
610.30	48545.05
610.46	47976.30
610.61	48243.12
610.76	48296.95
610.92	47409.89
611.07	48011.41
611.23	48006.73
611.38	47840.55
611.54	47611.18
611.69	48025.45
611.84	48177.59
612.00	48119.07
612.15	47578.41
612.31	48081.63
612.46	47938.85
612.62	48048.86
612.77	47990.34
612.92	48058.22
613.08	47657.99
613.23	48268.87
613.39	47770.33
613.54	47463.72
613.69	47880.34
613.85	47562.03
614.00	47758.63
614.15	47791.40
614.31	47538.62
614.46	47585.43
614.62	47938.85
614.77	47531.60
614.92	47681.39
615.08	47875.66
615.23	47959.92
615.38	47650.97
615.54	47491.81
615.69	47538.62
615.84	47709.48
616.00	48165.88
616.15	47695.44
616.30	47688.42
616.46	47423.93
616.61	47569.05
616.76	47454.36
616.92	47564.37
617.07	47594.79
617.22	47765.65
617.37	47075.19
617.53	47477.77
617.68	47222.65
617.83	47419.25
617.99	47547.98
618.14	47789.06
618.29	47206.26
618.45	47309.25
618.60	46974.55
618.75	46719.43
618.90	46897.31
619.06	46974.55
619.21	47304.57
619.36	47175.84
619.51	47000.30
619.67	47028.38
619.82	47381.80
619.97	47379.46
620.12	47349.04
620.28	46813.05
620.43	47587.77
620.58	46894.97
620.73	47051.79
620.89	47220.31
621.04	47203.92
621.19	47178.18
621.34	46981.57
621.49	46768.58
621.65	47023.70
621.80	47557.35
621.95	46791.99
622.10	47119.66
622.25	46651.56
622.41	46791.99
622.56	46539.21
622.71	46766.24
622.86	46857.52
623.01	47028.38
623.16	46658.58
623.32	46897.31
623.47	46784.97
623.62	46773.27
623.77	46684.33
623.92	46499.42
624.07	47119.66
624.23	46321.54
624.38	46801.35
624.53	46801.35
624.68	46454.95
624.83	46391.76
624.98	46396.44
625.13	46164.73
625.29	46241.96
625.44	46614.11
625.59	46211.54
625.74	46618.79
625.89	45965.78
626.04	46300.48
626.19	46176.43
626.34	46492.40
626.49	46075.79
626.65	46071.10
626.80	45918.97
626.95	46099.19
627.10	45731.73
627.25	46010.25
627.40	45928.33
627.55	46127.28
627.70	46232.60
627.85	46443.25
628.00	46401.12
628.15	46157.70
628.30	45336.18
628.45	45525.76
628.60	45464.91
628.76	45663.85
628.91	45970.46
629.06	45530.44
629.21	45617.04
629.36	45993.87
629.51	45722.37
629.66	45801.94
629.81	45682.58
629.96	45879.18
630.11	45535.12
630.26	45474.27
630.41	45710.66
630.56	45441.50
630.71	45830.03
630.86	44973.39
631.01	45345.54
631.16	45221.49
631.31	45258.94
631.46	45352.56
631.61	45546.82
631.76	45546.82
631.91	45710.66
632.06	45460.23
632.21	45415.76
632.36	45333.84
632.51	45081.06
632.66	45296.39
632.81	45516.40
632.96	45361.92
633.10	45373.63
633.25	45125.53
633.40	44961.69
633.55	45801.94
633.70	45195.74
633.85	44865.73
634.00	44942.97
634.15	44807.22
634.30	44919.56
634.45	44924.24
634.60	44715.93
634.75	45155.96
634.90	44949.99
635.05	44964.03
635.19	44215.06
635.34	44437.41
635.49	44753.38
635.64	45102.12
635.79	45029.57
635.94	44751.04
636.09	44942.97
636.24	44367.20
636.39	44685.51
636.53	45003.82
636.68	44390.60
636.83	44435.07
636.98	44397.62
637.13	44046.54
637.28	44313.36
637.43	44304.00
637.57	44882.11
637.72	43995.05
637.87	43903.77
638.02	44741.68
638.17	44280.60
638.32	44137.82
638.46	43786.74
638.61	44165.91
638.76	44186.97
638.91	44360.17
639.06	44114.42
639.20	43660.35
639.35	44289.96
639.50	43653.33
639.65	44016.11
639.80	44156.55
639.94	43997.39
640.09	44163.57
640.24	44055.90
640.39	43459.07
640.54	43402.89
640.68	43889.73
640.83	44076.97
640.98	44149.53
641.13	43386.51
641.27	43999.73
641.42	43920.15
641.57	43959.94
641.72	43922.49
641.86	43882.70
642.01	43398.21
642.16	43604.18
642.31	43557.37
642.45	43746.95
642.60	43260.12
642.75	43470.77
642.90	43562.05
643.04	43852.28
643.19	43320.98
643.34	43304.59
643.48	43229.69
643.63	43185.22
643.78	43683.76
643.93	43564.39
644.07	43166.50
644.22	43379.49
644.37	43196.93
644.51	43227.35
644.66	43454.39
644.81	43379.49
644.95	43309.27
645.10	43480.13
645.25	43201.61
645.39	42904.36
645.54	43044.79
645.69	42520.51
645.83	42873.93
645.98	42550.94
646.13	42770.95
646.27	42878.61
646.42	42733.50
646.57	43147.78
646.71	42827.12
646.86	43079.90
647.00	42820.10
647.15	42930.11
647.30	43342.04
647.44	42574.34
647.59	42295.82
647.74	42934.79
647.88	43178.20
648.03	43260.12
648.17	43246.08
648.32	42644.56
648.47	43178.20
648.61	42396.46
648.76	42873.93
648.90	42579.03
649.05	42576.69
649.20	42848.19
649.34	42780.31
649.49	42436.25
649.63	42913.72
649.78	42630.52
649.92	42174.11
650.07	42710.10
650.21	42967.55
650.36	42618.81
650.51	42234.97
650.65	42347.31
650.80	42822.44
650.94	42359.02
651.09	41989.21
651.23	42005.59
651.38	42139.00
651.52	42277.10
651.67	42026.66
651.81	42150.71
651.96	42005.59
652.10	41432.16
652.25	41853.46
652.39	41865.16
652.54	41635.79
652.68	41930.70
652.83	41848.78
652.97	42298.16
653.12	41935.38
653.26	42124.96
653.41	42059.43
653.55	42232.63
653.70	42057.09
653.84	41706.01
653.99	41649.83
654.13	41998.57
654.27	41839.42
654.42	41862.82
654.56	41523.44
654.71	41324.50
654.85	41837.08
655.00	41539.83
655.14	41734.09
655.29	42103.90
655.43	41816.01
655.57	41691.96
655.72	41455.57
655.86	40954.69
656.01	41165.34
656.15	41034.27
656.30	41572.60
656.44	40989.80
656.58	41350.24
656.73	41415.78
656.87	41069.38
657.01	41303.43
657.16	41179.39
657.30	41418.12
657.45	41139.60
657.59	41223.86
657.73	40905.54
657.88	41113.85
658.02	41455.57
658.16	41301.09
658.31	41118.53
658.45	41198.11
658.60	40552.12
658.74	41017.89
658.88	40699.58
659.03	40505.31
659.17	40690.21
659.31	40458.50
659.46	40802.56
659.60	40762.77
659.74	40102.74
659.89	40032.52
660.03	40278.28
660.17	40418.71
660.32	40346.15
660.46	39915.50
660.60	39552.71
660.74	40233.81
660.89	40355.52
661.03	39725.91
661.17	39524.63
661.32	39519.95
661.46	40196.36
661.60	39761.02
661.74	40074.65
661.89	39878.05
662.03	39618.25
662.17	39594.84
662.31	39697.83
662.46	39768.04
662.60	39442.71
662.74	38946.51
662.88	39325.68
663.03	39054.18
663.17	39243.76
663.31	38527.56
663.45	39112.69
663.60	39255.46
663.74	39365.47
663.88	39194.61
664.02	38932.47
664.17	39140.78
664.31	38705.44
664.45	38445.64
664.59	38789.70
664.73	38604.80
664.88	38644.59
665.02	38110.94
665.16	38375.42
665.30	38506.49
665.44	38447.98
665.59	38195.20
665.73	38431.60
665.87	37684.97
666.01	38316.91
666.15	38529.90
666.29	37874.55
666.44	37787.95
666.58	38539.26
666.72	37280.05
666.86	37942.42
667.00	38300.53
667.14	37759.86
667.28	37816.04
667.43	37858.17
667.57	38132.01
667.71	37673.26
667.85	37731.78
667.99	38239.67
668.13	37570.28
668.27	37366.65
668.41	37219.20
668.56	36891.52
668.70	37137.28
668.84	37188.77
668.98	36912.59
669.12	37134.94
669.26	37043.66
669.40	37099.83
669.54	36907.91
669.68	36821.31
669.82	36751.09
669.96	36367.24
670.10	36451.50
670.25	36517.04
670.39	36442.14
670.53	36538.10
670.67	36210.43
670.81	36629.38
670.95	36278.30
671.09	36306.39
671.23	35957.65
671.37	36009.14
671.51	35620.61
671.65	36067.66
671.79	35782.11
671.93	36030.21
672.07	36077.02
672.21	35763.39
672.35	35218.04
672.49	35412.31
672.63	35232.08
672.77	35040.16
672.91	35697.85
673.05	35014.41
673.19	35044.84
673.33	34934.84
673.47	35002.71
673.61	34763.98
673.75	34953.56
673.89	34274.80
674.03	34499.50
674.17	34251.40
674.31	33771.59
674.45	34377.79
674.59	34181.18
674.73	33998.62
674.87	33572.64
675.01	33600.73
675.15	33881.60
675.29	33778.61
675.43	33626.48
675.56	33921.38
675.70	33823.08
675.84	33610.09
675.98	32680.90
676.12	32697.28
676.26	33720.10
676.40	33113.90
676.54	32914.95
676.68	33216.88
676.82	33034.32
676.96	32994.53
677.10	32966.45
677.23	32964.10
677.37	32547.49
677.51	32563.87
677.65	32627.07
677.79	32584.94
677.93	32020.87
678.07	32063.00
678.21	32006.83
678.34	31690.85
678.48	32121.51
678.62	31826.60
678.76	31632.34
678.90	31545.74
679.04	31229.77
679.18	31608.93
679.31	31108.06
679.45	31145.51
679.59	31580.85
679.73	30892.73
679.87	30450.37
680.00	30656.34
680.14	30703.15
680.28	30749.96
680.42	30508.88
680.56	30000.99
680.70	30415.26
680.83	30228.02
680.97	29663.95
681.11	29766.93
681.25	29741.19
681.39	29432.24
681.52	29717.78
681.66	29708.42
681.80	28929.02
681.94	28807.31
682.07	28652.84
682.21	29109.24
682.35	28966.47
682.49	29006.26
682.62	29013.28
682.76	28762.84
682.90	28540.49
683.04	28472.62
683.17	28577.94
683.31	28198.77
683.45	28205.80
683.59	27850.03
683.72	27824.29
683.86	27814.93
684.00	27786.84
684.13	27655.77
684.27	27449.80
684.41	27461.51
684.55	27274.26
684.68	27285.97
684.82	27101.06
684.96	27779.82
685.09	27262.56
685.23	26981.70
685.37	27103.40
685.50	27311.71
685.64	26824.88
685.78	26888.07
685.91	26312.30
686.05	26232.72
686.19	25834.83
686.32	26466.78
686.46	25975.27
686.60	25383.11
686.73	25736.53
686.87	25525.88
687.01	25909.73
687.14	26003.35
687.28	25572.69
687.42	25493.12
687.55	25242.68
687.69	25130.33
687.82	24788.61
687.96	24819.04
688.10	25095.22
688.23	24964.15
688.37	25493.12
688.50	24709.04
688.64	24702.01
688.78	24781.59
688.91	24760.53
689.05	24601.37
689.18	24343.91
689.32	23688.56
689.46	23969.43
689.59	24119.22
689.73	23894.53
689.86	23889.85
690.00	23906.23
690.13	23852.40
690.27	23700.26
690.41	23826.65
690.54	23278.97
690.68	23293.01
690.81	23012.15
690.95	22911.50
691.08	23091.73
691.22	22836.61
691.35	22703.20
691.49	22733.62
691.62	22693.83
691.76	22419.99
691.89	21926.14
692.03	21898.05
692.16	22265.52
692.30	22141.47
692.43	21769.32
692.57	21521.23
692.70	21727.19
692.84	21710.81
692.97	21317.60
693.11	21458.03
693.24	21223.98
693.38	21507.18
693.51	21303.56
693.65	21111.63
693.78	20999.29
693.92	20837.79
694.05	20601.40
694.19	21055.46
694.32	20868.22
694.45	20776.94
694.59	20699.70
694.72	20376.70
694.86	20369.68
694.99	19981.15
695.13	20128.61
695.26	19899.23
695.39	19934.34
695.53	19985.83
695.66	19950.73
695.80	19943.70
695.93	19697.95
696.07	19538.79
696.20	19566.88
696.33	18998.13
696.47	19131.54
696.60	19201.76
696.73	19239.20
696.87	19176.01
697.00	19145.58
697.14	18597.90
697.27	18810.89
697.40	18810.89
697.54	18384.91
697.67	18860.04
697.80	18366.18
697.94	18473.85
698.07	18277.24
698.21	18185.96
698.34	18026.81
698.47	18040.85
698.61	17451.03
698.74	17483.80
698.87	17612.53
699.01	17797.43
699.14	17654.66
699.27	17472.10
699.40	17434.65
699.54	17289.54
699.67	17397.20
699.80	17287.20
699.94	17011.01
700.07	17092.93
700.20	17022.72
700.34	16828.45
700.47	16657.59
700.60	17001.65
700.73	16912.71
700.87	16805.05
701.00	16353.32
701.13	16327.58
701.26	16311.19
701.40	16456.31
701.53	16126.29
701.66	16280.77
701.79	15969.48
701.93	15564.56
702.06	15683.93
702.19	15765.85
702.32	15697.97
702.46	15730.74
702.59	15807.98
702.72	15819.68
702.85	15417.11
702.99	15438.17
703.12	15393.70
703.25	14813.25
703.38	14956.02
703.51	15082.41
703.65	14794.53
703.78	14637.71
703.91	14864.74
704.04	14689.20
704.17	14480.89
704.31	14593.24
704.44	14523.02
704.57	14391.95
704.70	14485.58
704.83	14310.04
704.96	14185.99
705.10	14319.40
705.23	13937.89
>>>>>End Processed Spectral Data<<<<<
