SpectraSuite Data File
++++++++++++++++++++++++++++++++++++
Date: Fri Oct 25 11:33:16 EDT 2013
User: price-jones
Dark Spectrum Present: No
Reference Spectrum Present: No
Number of Sampled Component Spectra: 1
Spectrometers: USB2+H05261
Integration Time (usec): 100000 (USB2+H05261)
Spectra Averaged: 1 (USB2+H05261)
Boxcar Smoothing: 0 (USB2+H05261)
Correct for Electrical Dark: No (USB2+H05261)
Strobe/Lamp Enabled: No (USB2+H05261)
Correct for Detector Non-linearity: No (USB2+H05261)
Correct for Stray Light: No (USB2+H05261)
Number of Pixels in Processed Spectrum: 2048
>>>>>Begin Processed Spectral Data<<<<<
365.73	215.33
365.92	215.33
366.12	215.33
366.32	208.31
366.52	135.75
366.72	112.35
366.91	152.13
367.11	205.97
367.31	159.16
367.51	187.24
367.70	145.11
367.90	269.16
368.10	182.56
368.30	224.69
368.49	191.92
368.69	224.69
368.89	236.39
369.09	156.82
369.28	191.92
369.48	208.31
369.68	173.20
369.87	170.86
370.07	243.42
370.27	269.16
370.47	306.61
370.66	484.49
370.86	454.06
371.06	592.16
371.25	543.00
371.45	559.39
371.65	547.69
371.84	533.64
372.04	503.22
372.24	578.11
372.44	545.34
372.63	543.00
372.83	564.07
373.03	568.75
373.22	620.24
373.42	653.01
373.62	636.63
373.81	573.43
374.01	643.65
374.21	636.63
374.40	648.33
374.60	629.60
374.79	601.52
374.99	617.90
375.19	657.69
375.38	704.50
375.58	645.99
375.78	585.13
375.97	718.54
376.17	688.12
376.37	753.65
376.56	657.69
376.76	692.80
376.95	629.60
377.15	770.04
377.35	629.60
377.54	650.67
377.74	657.69
377.93	657.69
378.13	758.33
378.33	774.72
378.52	753.65
378.72	791.10
378.91	683.44
379.11	704.50
379.31	671.73
379.50	681.10
379.70	758.33
379.89	793.44
380.09	746.63
380.28	793.44
380.48	737.27
380.68	758.33
380.87	690.46
381.07	692.80
381.26	730.25
381.46	837.91
381.65	821.53
381.85	788.76
382.04	767.70
382.24	795.78
382.43	784.08
382.63	781.74
382.83	755.99
383.02	828.55
383.22	861.32
383.41	718.54
383.61	858.98
383.80	905.79
384.00	854.30
384.19	772.38
384.39	826.21
384.58	856.64
384.78	863.66
384.97	816.85
385.17	851.96
385.36	802.80
385.56	823.87
385.75	774.72
385.95	866.00
386.14	873.02
386.34	823.87
386.53	844.93
386.72	854.30
386.92	896.43
387.11	884.72
387.31	917.49
387.50	854.30
387.70	915.15
387.89	875.36
388.09	924.51
388.28	877.70
388.48	987.71
388.67	964.30
388.86	861.32
389.06	884.72
389.25	931.53
389.45	940.90
389.64	880.04
389.84	1100.05
390.03	1043.88
390.22	1029.84
390.42	947.92
390.61	929.19
390.81	1015.79
391.00	997.07
391.19	1062.60
391.39	1027.50
391.58	908.13
391.78	1013.45
391.97	1013.45
392.16	1053.24
392.36	1036.86
392.55	1043.88
392.75	1041.54
392.94	1048.56
393.13	1107.07
393.33	987.71
393.52	1064.94
393.71	1102.39
393.91	1139.84
394.10	1081.33
394.29	1158.57
394.49	1102.39
394.68	1144.52
394.88	1160.91
395.07	1165.59
395.26	1151.54
395.46	1200.69
395.65	1177.29
395.84	1174.95
396.04	1228.78
396.23	1207.72
396.42	1203.04
396.62	1210.06
396.81	1238.14
397.00	1315.38
397.19	1259.21
397.39	1320.06
397.58	1320.06
397.77	1240.48
397.97	1282.61
398.16	1327.08
398.35	1320.06
398.55	1226.44
398.74	1373.89
398.93	1343.47
399.12	1245.16
399.32	1324.74
399.51	1348.15
399.70	1306.02
399.90	1390.28
400.09	1430.07
400.28	1441.77
400.47	1359.85
400.67	1376.24
400.86	1432.41
401.05	1481.56
401.24	1444.11
401.44	1549.43
401.63	1516.67
401.82	1486.24
402.01	1575.18
402.21	1495.60
402.40	1409.00
402.59	1453.47
402.78	1535.39
402.97	1511.99
403.17	1453.47
403.36	1500.28
403.55	1448.79
403.74	1621.99
403.93	1603.27
404.13	1685.19
404.32	1584.54
404.51	1596.25
404.70	1612.63
404.89	1584.54
405.09	1715.61
405.28	1734.34
405.47	1664.12
405.66	1659.44
405.85	1767.10
406.05	1652.42
406.24	1696.89
406.43	1767.10
406.62	1886.47
406.81	1863.07
407.00	1778.81
407.20	1708.59
407.39	1818.60
407.58	1898.17
407.77	1891.15
407.96	1912.22
408.15	1912.22
408.34	1879.45
408.54	1966.05
408.73	1944.99
408.92	1987.11
409.11	1959.03
409.30	2115.84
409.49	2038.61
409.68	2022.22
409.87	2062.01
410.07	2012.86
410.26	1996.48
410.45	2122.87
410.64	1973.07
410.83	1977.75
411.02	2298.41
411.21	2176.70
411.40	2160.31
411.59	2179.04
411.78	2146.27
411.98	2162.66
412.17	2214.15
412.36	2242.23
412.55	2279.68
412.74	2296.07
412.93	2347.56
413.12	2333.51
413.31	2443.52
413.50	2382.67
413.69	2513.74
413.88	2516.08
414.07	2502.03
414.26	2647.15
414.45	2417.77
414.64	2495.01
414.83	2406.07
415.02	2605.02
415.22	2626.08
415.41	2663.53
415.60	2649.49
415.79	2754.81
415.98	2766.51
416.17	2773.53
416.36	2705.66
416.55	2773.53
416.74	2820.35
416.93	2696.30
417.12	2799.28
417.31	2810.98
417.50	2918.65
417.69	2904.60
417.88	3054.40
418.07	2902.26
418.26	2920.99
418.45	3098.87
418.64	3157.38
418.83	3045.04
419.02	3019.29
419.21	3016.95
419.39	3269.73
419.58	3138.66
419.77	3066.10
419.96	3073.12
420.15	3229.94
420.34	3129.30
420.53	3101.21
420.72	3126.96
420.91	3258.03
421.10	3246.32
421.29	3328.24
421.48	3330.58
421.67	3405.48
421.86	3281.43
422.05	3279.09
422.24	3290.79
422.43	3468.67
422.61	3400.80
422.80	3424.20
422.99	3400.80
423.18	3396.12
423.37	3398.46
423.56	3396.12
423.75	3494.42
423.94	3391.44
424.13	3211.22
424.32	3325.90
424.50	3543.57
424.69	3559.95
424.88	3524.85
425.07	3513.14
425.26	3496.76
425.45	3466.33
425.64	3487.40
425.83	3403.14
426.01	3515.48
426.20	3492.08
426.39	3459.31
426.58	3616.13
426.77	3520.17
426.96	3552.93
427.15	3616.13
427.33	3595.06
427.52	3611.45
427.71	3691.02
427.90	3557.61
428.09	3651.24
428.28	3794.01
428.46	3768.26
428.65	3810.39
428.84	3669.96
429.03	3684.00
429.22	3878.27
429.40	3751.88
429.59	3756.56
429.78	3716.77
429.97	3686.34
430.16	3911.04
430.34	3894.65
430.53	3873.59
430.72	3913.38
430.91	3899.33
431.10	3712.09
431.28	3962.53
431.47	4030.40
431.66	3925.08
431.85	3974.23
432.03	4077.21
432.22	4154.45
432.41	4142.75
432.60	4037.42
432.79	4184.88
432.97	4102.96
433.16	4156.79
433.35	4142.75
433.54	4219.99
433.72	4201.26
433.91	4266.80
434.10	4208.28
434.28	4203.60
434.47	4189.56
434.66	4376.80
434.85	4388.50
435.03	4360.42
435.22	4329.99
435.41	4360.42
435.59	4414.25
435.78	4533.62
435.97	4484.47
436.16	4386.16
436.34	4301.90
436.53	4440.00
436.72	4568.73
436.90	4437.66
437.09	4505.53
437.28	4409.57
437.46	4566.39
437.65	4683.41
437.84	4674.05
438.02	4753.63
438.21	4681.07
438.40	4734.90
438.58	4753.63
438.77	4940.87
438.96	4821.50
439.14	4856.61
439.33	4975.98
439.52	4912.78
439.70	4896.40
439.89	5020.45
440.08	4917.47
440.26	4999.38
440.45	4987.68
440.63	5135.14
440.82	5207.69
441.01	5100.03
441.19	5313.02
441.38	5350.46
441.57	5233.44
441.75	5214.71
441.94	5465.15
442.12	5369.19
442.31	5528.35
442.50	5563.45
442.68	5535.37
442.87	5509.62
443.05	5535.37
443.24	5729.63
443.43	5533.03
443.61	5551.75
443.80	5734.31
443.98	5451.11
444.17	5343.44
444.35	5624.31
444.54	5825.59
444.73	5750.70
444.91	5731.97
445.10	5781.12
445.28	5720.27
445.47	5633.67
445.65	5523.66
445.84	5790.49
446.02	5809.21
446.21	5902.83
446.39	5652.39
446.58	5781.12
446.77	5717.93
446.95	5680.48
447.14	5748.36
447.32	5820.91
447.51	5905.17
447.69	5682.82
447.88	6054.97
448.06	5839.64
448.25	5774.10
448.43	5886.45
448.62	5870.06
448.80	5774.10
448.99	5792.83
449.17	6118.16
449.36	5900.49
449.54	6118.16
449.73	6141.57
449.91	6300.72
450.10	6148.59
450.28	6101.78
450.46	6127.52
450.65	6214.12
450.83	6223.48
451.02	6136.88
451.20	6298.38
451.39	6265.61
451.57	6352.21
451.76	6242.21
451.94	6242.21
452.13	6342.85
452.31	6462.22
452.49	6314.77
452.68	6352.21
452.86	6225.82
453.05	6483.28
453.23	6452.86
453.42	6422.43
453.60	6328.81
453.78	6492.65
453.97	6590.95
454.15	6450.52
454.34	6382.64
454.52	6600.31
454.70	6647.12
454.89	6567.54
455.07	6628.40
455.26	6761.81
455.44	6745.42
455.62	6689.25
455.81	6761.81
455.99	6878.83
456.17	6839.05
456.36	6916.28
456.54	6874.15
456.73	7000.54
456.91	7091.82
457.09	7026.29
457.28	7108.21
457.46	7054.37
457.64	7126.93
457.83	7089.48
458.01	7272.04
458.19	7138.63
458.38	7236.94
458.56	7150.34
458.74	7269.70
458.93	7157.36
459.11	7346.94
459.29	7234.60
459.48	7269.70
459.66	7286.09
459.84	7398.43
460.03	7620.78
460.21	7442.90
460.39	7531.84
460.57	7276.73
460.76	7581.00
460.94	7510.78
461.12	7485.03
461.31	7494.40
461.49	7478.01
461.67	7503.76
461.85	7651.21
462.04	7707.38
462.22	8021.02
462.40	7859.52
462.59	7777.60
462.77	7793.98
462.95	7997.61
463.13	7882.92
463.32	7817.39
463.50	7960.16
463.68	7854.84
463.86	8081.87
464.05	8004.63
464.23	7971.86
464.41	7983.57
464.59	7754.19
464.78	8135.70
464.96	8004.63
465.14	8049.10
465.32	8156.77
465.50	8006.97
465.69	8175.49
465.87	8060.80
466.05	8147.40
466.23	8243.37
466.41	8063.15
466.60	8294.86
466.78	8257.41
466.96	8044.42
467.14	8306.56
467.32	8283.16
467.51	8500.83
467.69	8191.88
467.87	8575.72
468.05	8505.51
468.23	8266.77
468.41	8400.18
468.60	8411.89
468.78	8542.96
468.96	8400.18
469.14	8734.88
469.32	8545.30
469.50	8517.21
469.69	8826.16
469.87	8744.24
470.05	8769.99
470.23	8809.78
470.41	8961.91
470.59	8964.25
470.77	9074.26
470.95	8950.21
471.14	8971.27
471.32	8980.64
471.50	9032.13
471.68	9165.54
471.86	9195.96
472.04	9263.84
472.22	9509.60
472.40	9259.16
472.58	9238.09
472.77	9451.08
472.95	9439.38
473.13	9764.72
473.31	9312.99
473.49	9488.53
473.67	9570.45
473.85	9439.38
474.03	9762.37
474.21	10005.79
474.39	9933.23
474.57	9736.63
474.75	10068.98
474.93	10106.43
475.12	10005.79
475.30	10008.13
475.48	10134.52
475.66	10073.67
475.84	10043.24
476.02	10417.72
476.20	10225.80
476.38	10251.55
476.56	10497.30
476.74	10752.42
476.92	10630.71
477.10	10651.78
477.28	10839.02
477.46	10747.74
477.64	10906.90
477.82	11185.42
478.00	11412.45
478.18	11040.31
478.36	11262.66
478.54	11267.34
478.72	11421.81
478.90	11414.79
479.08	11887.58
479.26	11836.09
479.44	11637.14
479.62	11847.79
479.80	12072.48
479.98	12255.04
480.16	12482.08
480.34	12149.72
480.52	12428.24
480.70	12374.41
480.88	12219.94
481.06	12500.80
481.24	12500.80
481.41	12692.73
481.59	12936.14
481.77	12964.23
481.95	12982.95
482.13	13294.24
482.31	13114.02
482.49	13280.20
482.67	13282.54
482.85	13671.07
483.03	13633.62
483.21	13729.58
483.39	13865.33
483.57	13926.19
483.74	14075.98
483.92	14202.37
484.10	14113.43
484.28	14569.83
484.46	14668.14
484.64	14820.27
484.82	14396.64
485.00	14757.08
485.18	14916.23
485.35	14981.77
485.53	15033.26
485.71	15353.91
485.89	15559.88
486.07	15358.60
486.25	15686.27
486.43	15716.70
486.61	16058.42
486.78	15815.00
486.96	15857.13
487.14	16121.61
487.32	16112.25
487.50	16512.48
487.68	16308.85
487.85	16673.98
488.03	16858.88
488.21	17252.09
488.39	17170.17
488.57	17205.28
488.75	17392.52
488.92	17579.76
489.10	17673.39
489.28	17678.07
489.46	17694.45
489.64	18122.77
489.81	18398.95
489.99	18356.82
490.17	18202.35
490.35	18405.97
490.53	18518.32
490.70	18881.10
490.88	18579.17
491.06	19051.96
491.24	18780.46
491.41	19105.79
491.59	19510.71
491.77	19271.97
491.95	19887.53
492.13	19726.04
492.30	19690.93
492.48	19838.38
492.66	20278.40
492.84	20100.52
493.01	20065.41
493.19	20262.02
493.37	20477.35
493.54	20554.58
493.72	20680.97
493.90	20680.97
494.08	21109.29
494.25	21350.37
494.43	21233.34
494.61	21558.67
494.79	21589.10
494.96	21577.40
495.14	21514.20
495.32	21619.53
495.49	21855.92
495.67	22314.67
495.85	22256.15
496.02	22412.97
496.20	22534.68
496.38	22661.07
496.55	22384.88
496.73	23307.05
496.91	22979.38
497.09	23173.64
497.26	23105.77
497.44	22993.42
497.62	23243.86
497.79	23513.02
497.97	23625.37
498.14	23887.51
498.32	23646.43
498.50	24161.35
498.67	24006.87
498.85	23931.98
499.03	24444.56
499.20	24025.60
499.38	24446.90
499.56	24517.11
499.73	24613.07
499.91	24746.48
500.08	24922.02
500.26	24863.51
500.44	24924.36
500.61	24999.26
500.79	24709.04
500.97	25413.54
501.14	25692.06
501.32	25628.87
501.49	25820.79
501.67	25645.25
501.84	25605.46
502.02	25731.85
502.20	25296.51
502.37	25813.77
502.55	25551.63
502.72	25881.64
502.90	25963.56
503.07	26038.46
503.25	26485.50
503.43	26169.53
503.60	26738.28
503.78	26649.34
503.95	26560.40
504.13	26871.69
504.30	26944.25
504.48	26625.93
504.65	27094.04
504.83	27101.06
505.01	27229.79
505.18	27253.20
505.36	27611.30
505.53	27391.29
505.71	27761.09
505.88	27594.92
506.06	27395.97
506.23	27545.76
506.41	27831.31
506.58	27967.06
506.76	27999.83
506.93	28245.58
507.11	28137.92
507.28	28870.51
507.46	28346.23
507.63	28524.11
507.81	28694.97
507.98	28608.37
508.16	28521.77
508.33	28868.17
508.50	29216.91
508.68	29053.07
508.85	28730.08
509.03	29050.73
509.20	29343.30
509.38	29565.65
509.55	29462.66
509.73	29752.89
509.90	29497.77
510.08	29373.72
510.25	29642.88
510.42	30029.07
510.60	29701.40
510.77	30050.14
510.95	30110.99
511.12	30197.59
511.30	29802.04
511.47	30274.83
511.64	30356.75
511.82	30553.35
511.99	30368.45
512.17	30539.31
512.34	30754.64
512.51	30555.69
512.69	31091.68
512.86	30888.05
513.04	30906.77
513.21	31239.13
513.38	31721.28
513.56	31150.19
513.73	31302.32
513.90	30951.24
514.08	31524.68
514.25	31667.45
514.43	31674.47
514.60	32184.71
514.77	32053.64
514.95	32254.92
515.12	31967.04
515.29	32287.69
515.47	32135.56
515.64	32458.55
515.81	32074.70
515.99	32294.71
516.16	32535.79
516.33	32133.21
516.51	32617.71
516.68	32699.62
516.85	32460.89
517.03	33179.43
517.20	33137.30
517.37	32800.27
517.54	32945.38
517.72	33507.11
517.89	33039.00
518.06	33331.57
518.24	33137.30
518.41	33338.59
518.58	33390.08
518.75	33125.60
518.93	33785.63
519.10	33350.29
519.27	33619.46
519.45	33717.76
519.62	34197.57
519.79	34380.13
519.96	33897.98
520.14	34064.16
520.31	33804.36
520.48	34242.04
520.65	34356.72
520.83	34803.77
521.00	34707.80
521.17	34672.70
521.34	34714.83
521.52	35395.92
521.69	34778.02
521.86	35002.71
522.03	35084.63
522.20	35030.80
522.38	35461.46
522.55	35409.96
522.72	34953.56
522.89	35161.87
523.07	35833.60
523.24	35482.52
523.41	35737.64
523.58	35587.85
523.75	35695.51
523.92	35475.50
524.10	35950.63
524.27	35962.33
524.44	35821.90
524.61	35861.69
524.78	36392.99
524.96	36140.21
525.13	36210.43
525.30	36360.22
525.47	36641.09
525.64	36318.09
525.81	36861.10
525.98	36765.14
526.16	36739.39
526.33	36563.85
526.50	36933.65
526.67	36664.49
526.84	37141.96
527.01	36491.29
527.18	36753.43
527.36	37357.29
527.53	37013.23
527.70	37748.16
527.87	37312.82
528.04	36816.63
528.21	37235.58
528.38	37490.70
528.55	37888.59
528.72	37581.98
528.89	37036.64
529.07	37500.06
529.24	38054.77
529.41	37820.72
529.58	37865.19
529.75	37982.21
529.92	38094.56
530.09	37912.00
530.26	37991.58
530.43	38167.12
530.60	38019.66
530.77	37928.38
530.94	38316.91
531.11	37635.81
531.28	38433.94
531.46	38274.78
531.63	38209.25
531.80	38539.26
531.97	38588.41
532.14	38408.19
532.31	38593.09
532.48	39026.09
532.65	39157.16
532.82	38813.10
532.99	38787.36
533.16	38808.42
533.33	39164.18
533.50	39290.57
533.67	39241.42
533.84	38714.80
534.01	39140.78
534.18	39206.31
534.35	39632.29
534.52	39583.14
534.69	39580.80
534.86	39805.49
535.03	39381.85
535.20	39852.30
535.37	40102.74
535.54	40280.62
535.71	39594.84
535.88	39929.54
536.05	39817.19
536.22	40109.76
536.38	39899.11
536.55	40055.93
536.72	40229.13
536.89	39636.97
537.06	39831.24
537.23	40287.64
537.40	40198.70
537.57	40079.33
537.74	39999.76
537.91	40325.09
538.08	39922.52
538.25	40149.55
538.42	40554.46
538.59	40772.13
538.75	40292.32
538.92	41111.51
539.09	40617.66
539.26	41060.02
539.43	40727.66
539.60	40727.66
539.77	40891.50
539.94	41188.75
540.11	41284.71
540.28	41490.68
540.44	41045.97
540.61	41069.38
540.78	40992.14
540.95	41317.48
541.12	41113.85
541.29	41523.44
541.46	41221.52
541.62	41539.83
541.79	41633.45
541.96	41305.77
542.13	41303.43
542.30	41301.09
542.47	41708.35
542.63	41628.77
542.80	41600.68
542.97	42061.77
543.14	42237.31
543.31	42181.13
543.48	42017.30
543.64	42679.67
543.81	42403.49
543.98	42557.96
544.15	42174.11
544.32	42426.89
544.48	42501.79
544.65	42504.13
544.82	42572.00
544.99	42459.66
545.16	42230.29
545.32	42450.30
545.49	43395.87
545.66	43026.07
545.83	43119.69
546.00	43100.97
546.16	43103.31
546.33	42813.08
546.50	43037.77
546.67	43122.03
546.83	42913.72
547.00	42787.33
547.17	43075.22
547.34	43030.75
547.50	43126.71
547.67	43604.18
547.84	43309.27
548.00	43440.34
548.17	43840.57
548.34	43662.69
548.51	43370.13
548.67	43466.09
548.84	43964.62
549.01	43714.19
549.18	43718.87
549.34	43901.43
549.51	44002.07
549.68	44294.64
549.84	43578.43
550.01	43763.34
550.18	43573.75
550.34	43789.08
550.51	44098.03
550.68	44376.56
550.84	43632.27
551.01	44009.09
551.18	43988.03
551.34	44018.46
551.51	44137.82
551.68	43838.23
551.84	44072.29
552.01	43934.20
552.18	43995.05
552.34	44217.40
552.51	44641.04
552.68	44161.23
552.84	44376.56
553.01	44619.97
553.18	44624.65
553.34	44839.98
553.51	44315.70
553.67	44676.15
553.84	44926.58
554.01	45062.33
554.17	44800.19
554.34	45008.50
554.51	44664.44
554.67	45195.74
554.84	44999.14
555.00	44842.32
555.17	44935.95
555.33	45022.54
555.50	45085.74
555.67	44957.01
555.83	45272.98
556.00	45216.81
556.16	45811.31
556.33	45272.98
556.50	45200.43
556.66	45261.28
556.83	45074.04
556.99	45521.08
557.16	45315.11
557.32	45371.28
557.49	45720.02
557.65	45298.73
557.82	45280.00
557.98	45443.84
558.15	45329.16
558.32	45345.54
558.48	44823.60
558.65	45460.23
558.81	45345.54
558.98	45577.25
559.14	45347.88
559.31	45509.38
559.47	45605.34
559.64	45638.11
559.80	45411.07
559.97	46003.23
560.13	45453.20
560.30	45818.33
560.46	45930.67
560.63	46162.39
560.79	46120.26
560.96	46295.80
561.12	45993.87
561.29	46122.60
561.45	45991.53
561.61	45958.76
561.78	45738.75
561.94	45982.16
562.11	45876.84
562.27	46089.83
562.44	46127.28
562.60	45914.29
562.77	46490.06
562.93	46408.14
563.10	46277.07
563.26	46071.10
563.42	46319.20
563.59	46422.19
563.75	46143.66
563.92	46550.91
564.08	46167.07
564.24	46513.47
564.41	45734.07
564.57	46628.15
564.74	46429.21
564.90	46508.79
565.07	46272.39
565.23	46309.84
565.39	46405.80
565.56	46574.32
565.72	46541.55
565.88	46300.48
566.05	46480.70
566.21	46363.67
566.38	46450.27
566.54	46518.15
566.70	46548.57
566.87	46270.05
567.03	46197.49
567.19	46639.86
567.36	46642.20
567.52	46621.13
567.68	46990.94
567.85	46632.83
568.01	46747.52
568.17	46550.91
568.34	47028.38
568.50	46974.55
568.66	46728.80
568.83	46883.27
568.99	47044.77
569.15	46719.43
569.32	46979.23
569.48	46571.98
569.64	47171.16
569.81	46759.22
569.97	46714.75
570.13	47070.51
570.30	46660.92
570.46	46990.94
570.62	47414.57
570.78	47103.28
570.95	46625.81
571.11	47257.76
571.27	46775.61
571.43	46822.42
571.60	47445.00
571.76	46536.87
571.92	47147.75
572.09	47124.35
572.25	46703.05
572.41	47232.01
572.57	47210.95
572.74	47863.96
572.90	46724.11
573.06	47185.20
573.22	47234.35
573.38	47508.19
573.55	47377.12
573.71	47791.40
573.87	46894.97
574.03	47227.33
574.20	47215.63
574.36	47154.77
574.52	47309.25
574.68	47264.78
574.84	47323.29
575.01	47550.32
575.17	47234.35
575.33	47264.78
575.49	47402.87
575.65	47386.49
575.82	47522.24
575.98	47150.09
576.14	47557.35
576.30	47538.62
576.46	47388.83
576.62	46967.53
576.79	47393.51
576.95	46997.96
577.11	46981.57
577.27	47262.44
577.43	47618.20
577.59	47026.04
577.75	47180.52
577.92	47110.30
578.08	47058.81
578.24	47365.42
578.40	47714.16
578.56	47873.32
578.72	47182.86
578.88	47896.72
579.04	47423.93
579.21	47278.82
579.37	47608.84
579.53	47585.43
579.69	47459.04
579.85	47400.53
580.01	47599.47
580.17	47222.65
580.33	47697.78
580.49	47669.69
580.65	47161.79
580.82	46948.81
580.98	47276.48
581.14	47536.28
581.30	47370.10
581.46	47304.57
581.62	46906.68
581.78	47512.88
581.94	47339.68
582.10	47622.88
582.26	47721.18
582.42	47770.33
582.58	47669.69
582.74	47566.71
582.90	47587.77
583.06	47686.07
583.22	47849.91
583.38	47817.14
583.54	47735.23
583.70	48004.39
583.86	47931.83
584.02	47503.51
584.18	48137.80
584.34	47770.33
584.50	48332.06
584.66	48189.29
584.82	47924.81
584.98	48252.48
585.14	47756.29
585.30	47746.93
585.46	47620.54
585.62	47564.37
585.78	47753.95
585.94	47625.22
586.10	47629.90
586.26	47477.77
586.42	47812.46
586.58	47840.55
586.74	47498.83
586.90	47707.14
587.06	47674.37
587.22	47742.25
587.38	47639.26
587.54	47906.08
587.70	48233.76
587.86	47606.50
588.02	47662.67
588.18	47973.96
588.34	47859.27
588.49	47924.81
588.65	47863.96
588.81	47749.27
588.97	47695.44
589.13	47555.00
589.29	48004.39
589.45	48250.14
589.61	48175.25
589.77	48362.49
589.93	47819.49
590.08	48079.28
590.24	48240.78
590.40	48128.44
590.56	48231.42
590.72	48107.37
590.88	48023.11
591.04	47955.24
591.20	48514.62
591.35	48280.57
591.51	48308.66
591.67	48114.39
591.83	48367.17
591.99	48030.13
592.15	48018.43
592.31	48098.01
592.46	48133.12
592.62	48303.98
592.78	48568.46
592.94	48435.05
593.10	48678.46
593.26	48280.57
593.41	48488.88
593.57	48486.54
593.73	48343.77
593.89	48512.28
594.05	48538.03
594.20	48278.23
594.36	48842.30
594.52	48790.81
594.68	48245.46
594.84	48362.49
594.99	48243.12
595.15	48385.89
595.31	48619.95
595.47	48264.19
595.62	48374.19
595.78	48273.55
595.94	48163.54
596.10	48577.82
596.25	48423.34
596.41	48474.84
596.57	48362.49
596.73	48718.25
596.88	48631.65
597.04	48615.27
597.20	48835.28
597.36	48753.36
597.51	48460.79
597.67	48381.21
597.83	48498.24
597.99	48353.13
598.14	48360.15
598.30	48500.58
598.46	48582.50
598.61	48802.51
598.77	48493.56
598.93	48538.03
599.09	48364.83
599.24	48985.07
599.40	48622.29
599.56	48774.42
599.71	49010.82
599.87	48851.66
600.03	48903.15
600.18	48846.98
600.34	48648.03
600.50	48671.44
600.65	48751.02
600.81	49181.68
600.97	48751.02
601.12	48659.74
601.28	48437.39
601.44	48573.14
601.59	48701.87
601.75	48697.19
601.91	49045.93
602.06	48533.35
602.22	48729.95
602.37	48311.00
602.53	49034.22
602.69	48896.13
602.84	48519.31
603.00	48531.01
603.16	48711.23
603.31	48575.48
603.47	48804.85
603.62	48861.02
603.78	48786.13
603.94	48739.32
604.09	48680.80
604.25	48690.16
604.40	48271.21
604.56	48381.21
604.71	49151.25
604.87	48659.74
605.03	48303.98
605.18	48247.80
605.34	48952.30
605.49	48535.69
605.65	48793.15
605.80	48364.83
605.96	48542.71
606.12	48767.40
606.27	48205.67
606.43	48449.09
606.58	48449.09
606.74	48392.92
606.89	48549.73
607.05	48992.09
607.20	48832.94
607.36	48500.58
607.51	48533.35
607.67	48453.77
607.82	48535.69
607.98	48669.10
608.13	48474.84
608.29	48411.64
608.44	48736.98
608.60	48568.46
608.75	48474.84
608.91	48577.82
609.06	48210.35
609.22	48533.35
609.37	48470.15
609.53	48650.38
609.68	48404.62
609.84	48247.80
609.99	48268.87
610.15	48488.88
610.30	48023.11
610.46	48135.46
610.61	48451.43
610.76	48573.14
610.92	48156.52
611.07	47688.42
611.23	48341.42
611.38	47985.66
611.54	48259.51
611.69	48350.79
611.84	48226.74
612.00	48154.18
612.15	48144.82
612.31	48114.39
612.46	47648.63
612.62	47896.72
612.77	48273.55
612.92	48533.35
613.08	48259.51
613.23	47814.80
613.39	47686.07
613.54	48041.84
613.69	48271.21
613.85	47957.58
614.00	47606.50
614.15	47889.70
614.31	48154.18
614.46	48163.54
614.62	48140.14
614.77	47976.30
614.92	47863.96
615.08	48175.25
615.23	47948.21
615.38	47938.85
615.54	48013.75
615.69	48034.81
615.84	48205.67
616.00	47950.56
616.15	47983.32
616.30	48034.81
616.46	47758.63
616.61	48266.53
616.76	47667.35
616.92	47674.37
617.07	47709.48
617.22	47681.39
617.37	47208.61
617.53	47840.55
617.68	47456.70
617.83	47461.38
617.99	48055.88
618.14	47931.83
618.29	47503.51
618.45	47381.80
618.60	47576.07
618.75	47227.33
618.90	47501.17
619.06	47634.58
619.21	47767.99
619.36	47435.64
619.51	47728.20
619.67	47454.36
619.82	47381.80
619.97	47903.74
620.12	47775.02
620.28	47091.58
620.43	47889.70
620.58	47323.29
620.73	47442.66
620.89	47601.82
621.04	47484.79
621.19	47402.87
621.34	47311.59
621.49	47103.28
621.65	46939.44
621.80	47775.02
621.95	47353.72
622.10	46766.24
622.25	47196.90
622.41	46885.61
622.56	47334.99
622.71	47175.84
622.86	47070.51
623.01	46808.37
623.16	46902.00
623.32	47042.43
623.47	47175.84
623.62	47079.88
623.77	46791.99
623.92	46876.25
624.07	46904.34
624.23	47068.17
624.38	47150.09
624.53	46632.83
624.68	46541.55
624.83	46876.25
624.98	46719.43
625.13	46487.72
625.29	46401.12
625.44	47189.88
625.59	46447.93
625.74	46394.10
625.89	46443.25
626.04	46363.67
626.19	46532.19
626.34	46248.99
626.49	46501.76
626.65	46050.04
626.80	46550.91
626.95	46300.48
627.10	46157.70
627.25	46204.52
627.40	46136.64
627.55	46370.69
627.70	46171.75
627.85	46499.42
628.00	46504.10
628.15	46127.28
628.30	46036.00
628.45	45663.85
628.60	45806.62
628.76	45645.13
628.91	46080.47
629.06	45778.54
629.21	45605.34
629.36	45815.99
629.51	45823.01
629.66	46248.99
629.81	46307.50
629.96	45794.92
630.11	45837.05
630.26	45509.38
630.41	45944.72
630.56	45544.48
630.71	45883.86
630.86	46120.26
631.01	45212.13
631.16	45525.76
631.31	45811.31
631.46	45815.99
631.61	45846.41
631.76	46106.21
631.91	46068.76
632.06	45888.54
632.21	45949.40
632.36	45951.74
632.51	45331.50
632.66	45600.66
632.81	45509.38
632.96	45235.53
633.10	45216.81
633.25	44999.14
633.40	45553.85
633.55	45598.32
633.70	45375.97
633.85	45385.33
634.00	45059.99
634.15	45109.14
634.30	45460.23
634.45	45471.93
634.60	44982.76
634.75	45280.00
634.90	45359.58
635.05	45434.48
635.19	45504.70
635.34	45446.18
635.49	44748.70
635.64	45390.01
635.79	45249.58
635.94	45116.17
636.09	45071.70
636.24	45113.83
636.39	44626.99
636.53	45057.65
636.68	44814.24
636.83	44612.95
636.98	44882.11
637.13	44626.99
637.28	44760.40
637.43	44772.11
637.57	44697.21
637.72	44137.82
637.87	44507.63
638.02	44755.72
638.17	44706.57
638.32	44669.12
638.46	44507.63
638.61	43995.05
638.76	44514.65
638.91	43957.60
639.06	44254.85
639.20	44243.15
639.35	43789.08
639.50	44048.88
639.65	44568.48
639.80	44591.89
639.94	44732.32
640.09	44556.78
640.24	44215.06
640.39	43833.55
640.54	43665.03
640.68	44268.89
640.83	44418.69
640.98	44313.36
641.13	43672.06
641.27	43800.79
641.42	44259.53
641.57	43831.21
641.72	44451.45
641.86	43636.95
642.01	43545.67
642.16	44011.43
642.31	43805.47
642.45	43971.64
642.60	43775.04
642.75	44004.41
642.90	43655.67
643.04	44048.88
643.19	43814.83
643.34	43452.05
643.48	43217.99
643.63	43257.78
643.78	43917.81
643.93	44109.74
644.07	43498.86
644.22	43880.36
644.37	43648.65
644.51	43849.94
644.66	43522.26
644.81	43665.03
644.95	43262.46
645.10	43243.74
645.25	43126.71
645.39	43063.52
645.54	43213.31
645.69	42974.58
645.83	43316.29
645.98	43356.08
646.13	42873.93
646.27	42794.36
646.42	42649.24
646.57	43075.22
646.71	43732.91
646.86	43629.93
647.00	43599.50
647.15	43103.31
647.30	42885.64
647.44	42976.92
647.59	42789.67
647.74	43112.67
647.88	43185.22
648.03	43168.84
648.17	43084.58
648.32	42983.94
648.47	42899.68
648.61	43049.47
648.76	43012.02
648.90	42813.08
649.05	42983.94
649.20	42866.91
649.34	42773.29
649.49	42862.23
649.63	42824.78
649.78	42911.38
649.92	42689.03
650.07	43019.05
650.21	43007.34
650.36	42932.45
650.51	42607.11
650.65	42714.78
650.80	42721.80
650.94	42740.52
651.09	42536.90
651.23	42230.29
651.38	42363.70
651.52	41897.93
651.67	42234.97
651.81	42637.54
651.96	42410.51
652.10	42103.90
652.25	42230.29
652.39	42204.54
652.54	42040.70
652.68	42389.44
652.83	42419.87
652.97	42204.54
653.12	42337.95
653.26	42124.96
653.41	42827.12
653.55	42265.39
653.70	42211.56
653.84	42424.55
653.99	42281.78
654.13	42064.11
654.27	41872.18
654.42	42157.73
654.56	41816.01
654.71	42342.63
654.85	41862.82
655.00	41696.64
655.14	42029.00
655.29	41935.38
655.43	42014.96
655.57	41944.74
655.72	41347.90
655.86	41514.08
656.01	41273.01
656.15	41729.41
656.30	41701.32
656.44	41687.28
656.58	41596.00
656.73	41591.32
656.87	41008.53
657.01	41469.61
657.16	41418.12
657.30	41375.99
657.45	41530.47
657.59	41067.04
657.73	41085.76
657.88	41294.07
658.02	41542.17
658.16	41373.65
658.31	41155.98
658.45	41476.63
658.60	41123.21
658.74	40840.01
658.88	40999.16
659.03	40814.26
659.17	40657.45
659.31	40472.54
659.46	40973.42
659.60	40793.20
659.74	41024.91
659.89	40444.46
660.03	40285.30
660.17	40577.87
660.32	40297.00
660.46	40589.57
660.60	40285.30
660.74	40395.31
660.89	40423.39
661.03	39889.75
661.17	40390.62
661.32	40313.39
661.46	40449.14
661.60	39976.35
661.74	39522.29
661.89	40004.44
662.03	39845.28
662.17	39768.04
662.31	39555.05
662.46	39899.11
662.60	39908.47
662.74	39463.77
662.88	39278.87
663.03	39262.49
663.17	39182.91
663.31	39213.34
663.45	39569.10
663.60	39529.31
663.74	39660.38
663.88	39632.29
664.02	39379.51
664.17	39697.83
664.31	39086.95
664.45	39026.09
664.59	39164.18
664.73	38848.21
664.88	38834.17
665.02	38595.43
665.16	38813.10
665.30	38749.91
665.44	38731.18
665.59	38462.02
665.73	38328.61
665.87	38202.22
666.01	38361.38
666.15	38794.38
666.29	38108.60
666.44	38909.07
666.58	38440.96
666.72	37949.45
666.86	38646.93
667.00	37986.89
667.14	37790.29
667.28	38321.59
667.43	38176.48
667.57	38440.96
667.71	38253.72
667.85	38073.49
667.99	37659.22
668.13	37717.73
668.27	37354.95
668.41	37336.23
668.56	37280.05
668.70	37127.92
668.84	37067.06
668.98	36811.95
669.12	37312.82
669.26	37123.24
669.40	37273.03
669.54	36903.23
669.68	37326.86
669.82	37186.43
669.96	37010.89
670.10	36547.47
670.25	36769.82
670.39	36884.50
670.53	36479.59
670.67	36566.19
670.81	36879.82
670.95	36332.14
671.09	36692.58
671.23	36212.77
671.37	36432.78
671.51	36009.14
671.65	36030.21
671.79	35924.88
671.93	36353.20
672.07	36060.63
672.21	36032.55
672.35	35454.44
672.49	35765.73
672.63	35695.51
672.77	35424.01
672.91	35409.96
673.05	35557.42
673.19	35138.46
673.33	34944.20
673.47	35005.05
673.61	34649.29
673.75	34586.10
673.89	34983.99
674.03	34492.47
674.17	34244.38
674.31	34012.66
674.45	34431.62
674.59	34572.05
674.73	34181.18
674.87	34115.65
675.01	33509.45
675.15	34272.46
675.29	33734.14
675.43	33832.44
675.56	34330.98
675.70	33670.95
675.84	33467.32
675.98	32477.27
676.12	33532.86
676.26	33722.44
676.40	33322.21
676.54	33345.61
676.68	32800.27
676.82	32376.63
676.96	33209.86
677.10	32697.28
677.23	32957.08
677.37	32620.05
677.51	32154.28
677.65	32318.12
677.79	32070.02
677.93	31960.02
678.07	32308.76
678.21	32161.30
678.34	31646.38
678.48	31920.23
678.62	31838.31
678.76	31700.22
678.90	31091.68
679.04	31466.16
679.18	31740.00
679.31	31250.83
679.45	30925.50
679.59	31157.21
679.73	31248.49
679.87	30621.23
680.00	30492.50
680.14	30976.99
680.28	30710.17
680.42	30403.56
680.56	30902.09
680.70	30515.90
680.83	30298.23
680.97	30216.32
681.11	30302.92
681.25	29776.30
681.39	29596.07
681.52	29837.15
681.66	29237.97
681.80	29355.00
681.94	28842.42
682.07	28917.32
682.21	28854.12
682.35	28739.44
682.49	28982.85
682.62	29013.28
682.76	29237.97
682.90	28957.11
683.04	28481.98
683.17	28521.77
683.31	28339.21
683.45	28587.30
683.59	27964.72
683.72	28053.66
683.86	28056.00
684.00	27910.89
684.13	27927.27
684.27	27669.81
684.41	27459.16
684.55	27611.30
684.68	27419.38
684.82	27150.21
684.96	27491.93
685.09	27660.45
685.23	27534.06
685.37	27243.84
685.50	27459.16
685.64	27070.64
685.78	26773.39
685.91	26801.47
686.05	26237.41
686.19	25919.09
686.32	26237.41
686.46	26251.45
686.60	25680.36
686.73	25998.67
686.87	25549.29
687.01	26001.01
687.14	26010.37
687.28	25720.15
687.42	25914.41
687.55	25149.06
687.69	25462.69
687.82	25411.20
687.96	25113.95
688.10	25394.81
688.23	24903.30
688.37	25287.15
688.50	25205.23
688.64	24835.42
688.78	24915.00
688.91	24964.15
689.05	24357.96
689.18	24254.97
689.32	23714.31
689.46	23976.45
689.59	24032.62
689.73	24549.88
689.86	24198.80
690.00	23840.70
690.13	24208.16
690.27	23634.73
690.41	23421.74
690.54	23454.51
690.68	23503.66
690.81	23065.98
690.95	23271.95
691.08	23049.60
691.22	22855.33
691.35	22714.90
691.49	23054.28
691.62	22789.80
691.76	22452.76
691.89	22349.78
692.03	22073.59
692.16	21839.54
692.30	22321.69
692.43	22164.87
692.57	21895.71
692.70	21645.27
692.84	21635.91
692.97	21626.55
693.11	21795.07
693.24	21366.75
693.38	21326.96
693.51	21284.83
693.65	21195.89
693.78	20982.90
693.92	21003.97
694.05	20889.28
694.19	20718.42
694.32	20854.17
694.45	21125.68
694.59	20783.96
694.72	20903.32
694.86	20589.69
694.99	20222.23
695.13	20175.42
695.26	20025.62
695.39	19616.03
695.53	19878.17
695.66	20177.76
695.80	19522.41
695.93	19751.78
696.07	19396.02
696.20	19246.23
696.33	19253.25
696.47	19356.23
696.60	19417.08
696.73	19213.46
696.87	19185.37
697.00	19260.27
697.14	18778.12
697.27	19117.50
697.40	18810.89
697.54	18569.81
697.67	18794.50
697.80	18717.26
697.94	18232.77
698.07	18455.12
698.21	18288.95
698.34	18281.92
698.47	18207.03
698.61	17781.05
698.74	17493.16
698.87	17928.50
699.01	17762.33
699.14	17820.84
699.27	17806.80
699.40	17671.04
699.54	17542.32
699.67	17315.28
699.80	17451.03
699.94	17195.92
700.07	17144.42
700.20	16732.49
700.34	16912.71
700.47	16847.18
700.60	17032.08
700.73	16748.87
700.87	16776.96
701.00	16676.32
701.13	16386.09
701.26	16343.96
701.40	16402.47
701.53	16465.67
701.66	16203.53
701.79	16301.83
701.93	15775.21
702.06	15461.58
702.19	15800.96
702.32	15903.94
702.46	15922.66
702.59	15829.04
702.72	15953.09
702.85	15616.05
702.99	15463.92
703.12	15564.56
703.25	15091.77
703.38	15075.39
703.51	15119.86
703.65	14923.26
703.78	14824.95
703.91	14642.39
704.04	14649.41
704.17	14703.25
704.31	14738.35
704.44	14382.59
704.57	14288.97
704.70	14211.73
704.83	14223.44
704.96	14368.55
705.10	14281.95
705.23	14178.97
>>>>>End Processed Spectral Data<<<<<
