SpectraSuite Data File
++++++++++++++++++++++++++++++++++++
Date: Fri Oct 25 11:33:45 EDT 2013
User: price-jones
Dark Spectrum Present: No
Reference Spectrum Present: No
Number of Sampled Component Spectra: 1
Spectrometers: USB2+H05261
Integration Time (usec): 100000 (USB2+H05261)
Spectra Averaged: 1 (USB2+H05261)
Boxcar Smoothing: 0 (USB2+H05261)
Correct for Electrical Dark: No (USB2+H05261)
Strobe/Lamp Enabled: No (USB2+H05261)
Correct for Detector Non-linearity: No (USB2+H05261)
Correct for Stray Light: No (USB2+H05261)
Number of Pixels in Processed Spectrum: 2048
>>>>>Begin Processed Spectral Data<<<<<
365.73	315.97
365.92	315.97
366.12	315.97
366.32	238.73
366.52	191.92
366.72	168.52
366.91	147.45
367.11	161.50
367.31	180.22
367.51	215.33
367.70	177.88
367.90	191.92
368.10	100.64
368.30	180.22
368.49	173.20
368.69	210.65
368.89	212.99
369.09	180.22
369.28	227.03
369.48	198.95
369.68	194.26
369.87	205.97
370.07	184.90
370.27	220.01
370.47	418.96
370.66	538.32
370.86	465.77
371.06	573.43
371.25	573.43
371.45	543.00
371.65	505.56
371.84	526.62
372.04	519.60
372.24	535.98
372.44	526.62
372.63	561.73
372.83	603.86
373.03	545.34
373.22	603.86
373.42	610.88
373.62	655.35
373.81	674.07
374.01	678.76
374.21	655.35
374.40	645.99
374.60	688.12
374.79	657.69
374.99	695.14
375.19	603.86
375.38	613.22
375.58	660.03
375.78	702.16
375.97	653.01
376.17	702.16
376.37	657.69
376.56	634.29
376.76	734.93
376.95	655.35
377.15	667.05
377.35	706.84
377.54	713.86
377.74	758.33
377.93	685.78
378.13	587.47
378.33	793.44
378.52	699.82
378.72	720.88
378.91	716.20
379.11	718.54
379.31	755.99
379.50	739.61
379.70	683.44
379.89	812.17
380.09	638.97
380.28	758.33
380.48	772.38
380.68	683.44
380.87	741.95
381.07	741.95
381.26	788.76
381.46	739.61
381.65	772.38
381.85	805.14
382.04	751.31
382.24	763.01
382.43	809.83
382.63	812.17
382.83	809.83
383.02	814.51
383.22	873.02
383.41	814.51
383.61	868.34
383.80	798.12
384.00	873.02
384.19	837.91
384.39	699.82
384.58	795.78
384.78	819.19
384.97	816.85
385.17	856.64
385.36	837.91
385.56	858.98
385.75	734.93
385.95	805.14
386.14	877.70
386.34	844.93
386.53	781.74
386.72	884.72
386.92	929.19
387.11	814.51
387.31	976.00
387.50	915.15
387.70	917.49
387.89	945.58
388.09	924.51
388.28	901.11
388.48	924.51
388.67	980.68
388.86	931.53
389.06	814.51
389.25	873.02
389.45	919.83
389.64	917.49
389.84	1013.45
390.03	1064.94
390.22	992.39
390.42	999.41
390.61	957.28
390.81	987.71
391.00	1020.47
391.19	1046.22
391.39	938.55
391.58	1100.05
391.78	1048.56
391.97	1018.13
392.16	952.60
392.36	1107.07
392.55	1020.47
392.75	1050.90
392.94	1036.86
393.13	1090.69
393.33	1015.79
393.52	1167.93
393.71	1181.97
393.91	1055.58
394.10	1170.27
394.29	1107.07
394.49	1132.82
394.68	1111.75
394.88	1221.76
395.07	1146.86
395.26	1083.67
395.46	1128.14
395.65	1160.91
395.84	1118.78
396.04	1196.01
396.23	1184.31
396.42	1149.20
396.62	1207.72
396.81	1228.78
397.00	1219.42
397.19	1170.27
397.39	1217.08
397.58	1303.68
397.77	1322.40
397.97	1301.34
398.16	1294.32
398.35	1266.23
398.55	1249.85
398.74	1308.36
398.93	1357.51
399.12	1336.45
399.32	1310.70
399.51	1357.51
399.70	1385.60
399.90	1469.86
400.09	1380.92
400.28	1416.02
400.47	1355.17
400.67	1380.92
400.86	1423.05
401.05	1469.86
401.24	1409.00
401.44	1446.45
401.63	1479.22
401.82	1481.56
402.01	1385.60
402.21	1469.86
402.40	1483.90
402.59	1481.56
402.78	1535.39
402.97	1596.25
403.17	1537.73
403.36	1568.16
403.55	1542.41
403.74	1617.31
403.93	1572.84
404.13	1582.20
404.32	1708.59
404.51	1687.53
404.70	1645.40
404.89	1703.91
405.09	1755.40
405.28	1685.19
405.47	1699.23
405.66	1671.14
405.85	1771.79
406.05	1781.15
406.24	1853.70
406.43	1715.61
406.62	1748.38
406.81	1830.30
407.00	1781.15
407.20	1813.92
407.39	1902.86
407.58	1863.07
407.77	1846.68
407.96	1923.92
408.15	1783.49
408.34	1856.04
408.54	1867.75
408.73	1984.77
408.92	1930.94
409.11	1863.07
409.30	2085.42
409.49	2024.56
409.68	1984.77
409.87	1916.90
410.07	2033.93
410.26	1966.05
410.45	2052.65
410.64	2148.61
410.83	2127.55
411.02	2190.74
411.21	2263.30
411.40	2141.59
411.59	2153.29
411.78	2176.70
411.98	2237.55
412.17	2186.06
412.36	2284.36
412.55	2228.19
412.74	2396.71
412.93	2312.45
413.12	2335.85
413.31	2452.88
413.50	2401.39
413.69	2361.60
413.88	2523.10
414.07	2581.61
414.26	2434.16
414.45	2527.78
414.64	2471.61
414.83	2626.08
415.02	2654.17
415.22	2670.55
415.41	2733.75
415.60	2581.61
415.79	2736.09
415.98	2764.17
416.17	2757.15
416.36	2815.66
416.55	2693.96
416.74	2672.89
416.93	2703.32
417.12	2848.43
417.31	2953.76
417.50	2888.22
417.69	2986.52
417.88	2871.84
418.07	3007.59
418.26	3030.99
418.45	2972.48
418.64	3148.02
418.83	3054.40
419.02	3084.83
419.21	3105.89
419.39	3145.68
419.58	3112.91
419.77	2977.16
419.96	3239.30
420.15	3225.26
420.34	3148.02
420.53	3201.85
420.72	3227.60
420.91	3307.18
421.10	3246.32
421.29	3318.88
421.48	3234.62
421.67	3222.92
421.86	3342.28
422.05	3316.54
422.24	3176.11
422.43	3260.37
422.61	3435.91
422.80	3379.73
422.99	3499.10
423.18	3440.59
423.37	3328.24
423.56	3398.46
423.75	3375.05
423.94	3414.84
424.13	3173.77
424.32	3353.99
424.50	3421.86
424.69	3515.48
424.88	3599.74
425.07	3534.21
425.26	3550.59
425.45	3419.52
425.64	3372.71
425.83	3386.76
426.01	3527.19
426.20	3478.04
426.39	3435.91
426.58	3468.67
426.77	3548.25
426.96	3543.57
427.15	3456.97
427.33	3627.83
427.52	3510.80
427.71	3609.11
427.90	3588.04
428.09	3599.74
428.28	3686.34
428.46	3763.58
428.65	3709.75
428.84	3716.77
429.03	3901.67
429.22	3817.41
429.40	3803.37
429.59	3653.58
429.78	3819.75
429.97	3735.50
430.16	3772.94
430.34	3871.25
430.53	3974.23
430.72	3892.31
430.91	3957.85
431.10	3831.46
431.28	3908.69
431.47	3978.91
431.66	4014.02
431.85	4039.76
432.03	3985.93
432.22	4121.68
432.41	3953.16
432.60	3978.91
432.79	4131.05
432.97	4278.50
433.16	4175.52
433.35	4088.92
433.54	4114.66
433.72	4205.94
433.91	4161.47
434.10	4252.75
434.28	4250.41
434.47	4285.52
434.66	4327.65
434.85	4243.39
435.03	4184.88
435.22	4283.18
435.41	4463.40
435.59	4435.32
435.78	4442.34
435.97	4456.38
436.16	4425.95
436.34	4442.34
436.53	4418.93
436.72	4582.77
436.90	4489.15
437.09	4550.00
437.28	4540.64
437.46	4531.28
437.65	4599.15
437.84	4638.94
438.02	4531.28
438.21	4755.97
438.40	4468.08
438.58	4709.16
438.77	4922.15
438.96	4788.74
439.14	4950.23
439.33	4865.97
439.52	4936.19
439.70	4938.53
439.89	5011.09
440.08	4877.68
440.26	5177.26
440.45	4957.25
440.63	5200.67
440.82	5158.54
441.01	5097.69
441.19	5104.71
441.38	5200.67
441.57	5280.25
441.75	5282.59
441.94	5420.68
442.12	5362.17
442.31	5462.81
442.50	5535.37
442.68	5322.38
442.87	5483.88
443.05	5633.67
443.24	5600.90
443.43	5577.50
443.61	5645.37
443.80	5654.73
443.98	5500.26
444.17	5298.97
444.35	5633.67
444.54	5584.52
444.73	5607.92
444.91	5612.60
445.10	5483.88
445.28	5607.92
445.47	5640.69
445.65	5509.62
445.84	5708.57
446.02	5678.14
446.21	5713.25
446.39	5628.99
446.58	5823.25
446.77	5617.29
446.95	5680.48
447.14	5750.70
447.32	5720.27
447.51	5837.30
447.69	5703.89
447.88	5724.95
448.06	5748.36
448.25	5959.00
448.43	5907.51
448.62	5762.40
448.80	5734.31
448.99	5902.83
449.17	5940.28
449.36	5809.21
449.54	6073.69
449.73	6186.04
449.91	6008.16
450.10	6129.86
450.28	6216.46
450.46	6129.86
450.65	6157.95
450.83	6118.16
451.02	6148.59
451.20	6139.23
451.39	6279.66
451.57	6047.94
451.76	6146.25
451.94	6349.87
452.13	6310.08
452.31	6427.11
452.49	6265.61
452.68	6258.59
452.86	6307.74
453.05	6326.47
453.23	6373.28
453.42	6331.15
453.60	6314.77
453.78	6312.42
453.97	6445.84
454.15	6513.71
454.34	6403.71
454.52	6581.59
454.70	6558.18
454.89	6499.67
455.07	6630.74
455.26	6642.44
455.44	6707.98
455.62	6733.72
455.81	6820.32
455.99	6778.19
456.17	6773.51
456.36	6803.94
456.54	6801.60
456.73	6888.20
456.91	6932.67
457.09	7145.66
457.28	7108.21
457.46	6799.26
457.64	7248.64
457.83	7122.25
458.01	7009.90
458.19	7049.69
458.38	7119.91
458.56	7339.92
458.74	7206.51
458.93	7286.09
459.11	7494.40
459.29	7426.52
459.48	7400.77
459.66	7269.70
459.84	7297.79
460.03	7646.53
460.21	7459.29
460.39	7489.71
460.57	7456.95
460.76	7485.03
460.94	7445.24
461.12	7569.29
461.31	7627.81
461.49	7417.16
461.67	7447.58
461.85	7889.95
462.04	7630.15
462.22	8039.74
462.40	7796.32
462.59	7669.94
462.77	7889.95
462.95	7903.99
463.13	7899.31
463.32	7852.50
463.50	7899.31
463.68	7960.16
463.86	8009.31
464.05	7822.07
464.23	8006.97
464.41	8042.08
464.59	7730.79
464.78	8081.87
464.96	7894.63
465.14	7985.91
465.32	8011.65
465.50	8255.07
465.69	8189.53
465.87	8245.71
466.05	8400.18
466.23	8262.09
466.41	8217.62
466.60	8093.57
466.78	8180.17
466.96	8194.22
467.14	8299.54
467.32	8351.03
467.51	8435.29
467.69	8035.06
467.87	8292.52
468.05	8423.59
468.23	8271.45
468.41	8451.67
468.60	8465.72
468.78	8439.97
468.96	8484.44
469.14	8564.02
469.32	8603.81
469.50	8594.45
469.69	8805.10
469.87	8748.92
470.05	8903.40
470.23	8744.24
470.41	8816.80
470.59	8865.95
470.77	8755.94
470.95	8830.84
471.14	9200.65
471.32	9025.11
471.50	8912.76
471.68	9160.86
471.86	9195.96
472.04	9043.83
472.22	9303.63
472.40	9219.37
472.58	9139.79
472.77	9411.29
472.95	9544.70
473.13	9816.21
473.31	9476.83
473.49	9493.21
473.67	9425.34
473.85	9640.67
474.03	9685.14
474.21	9692.16
474.39	9556.41
474.57	9734.29
474.75	9848.97
474.93	9996.43
475.12	9846.63
475.30	10148.56
475.48	9940.26
475.66	10155.58
475.84	10052.60
476.02	10307.72
476.20	10394.32
476.38	10429.43
476.56	10693.91
476.74	10415.38
476.92	10406.02
477.10	10448.15
477.28	10736.04
477.46	10773.49
477.64	10764.12
477.82	11005.20
478.00	11103.50
478.18	11016.90
478.36	11138.61
478.54	11377.34
478.72	11367.98
478.90	11712.04
479.08	11660.55
479.26	11655.87
479.44	11695.66
479.62	11885.24
479.80	11702.68
479.98	12006.95
480.16	12259.73
480.34	12058.44
480.52	12308.88
480.70	12379.09
480.88	12086.53
481.06	12362.71
481.24	12414.20
481.41	12779.32
481.59	12699.75
481.77	12924.44
481.95	13027.42
482.13	13137.43
482.31	13064.87
482.49	13413.61
482.67	13542.34
482.85	13174.88
483.03	13591.49
483.21	13635.96
483.39	13951.93
483.57	13802.14
483.74	13710.86
483.92	14059.60
484.10	14118.11
484.28	14508.98
484.46	14492.60
484.64	14483.24
484.82	14555.79
485.00	14792.19
485.18	14991.13
485.35	15328.17
485.53	15059.01
485.71	15201.78
485.89	15454.56
486.07	15318.81
486.25	15527.11
486.43	15819.68
486.61	15969.48
486.78	15859.47
486.96	15978.84
487.14	16205.87
487.32	16114.59
487.50	16425.88
487.68	16570.99
487.85	16587.38
488.03	16980.59
488.21	17507.21
488.39	16957.18
488.57	16910.37
488.75	17233.36
488.92	17518.91
489.10	17502.53
489.28	17757.64
489.46	18057.23
489.64	17916.80
489.81	18094.68
489.99	18221.07
490.17	18157.88
490.35	18551.09
490.53	18712.58
490.70	18888.12
490.88	18618.96
491.06	18909.19
491.24	19040.26
491.41	19634.75
491.59	19250.91
491.77	19494.32
491.95	19419.42
492.13	19454.53
492.30	19913.28
492.48	19747.10
492.66	19974.13
492.84	19997.54
493.01	20013.92
493.19	20095.84
493.37	20149.67
493.54	20592.03
493.72	20505.43
493.90	20587.35
494.08	20954.82
494.25	20851.83
494.43	21085.89
494.61	21362.07
494.79	21479.10
494.96	21315.26
495.14	21500.16
495.32	21614.85
495.49	22122.74
495.67	21631.23
495.85	22174.24
496.02	22026.78
496.20	22368.50
496.38	22373.18
496.55	22059.55
496.73	23278.97
496.91	22752.35
497.09	23295.35
497.26	22857.67
497.44	22827.24
497.62	23063.64
497.79	23454.51
497.97	23388.97
498.14	23569.19
498.32	23800.91
498.50	23531.75
498.67	24311.14
498.85	23847.72
499.03	23997.51
499.20	23964.75
499.38	24049.00
499.56	24407.11
499.73	24566.26
499.91	24950.11
500.08	24774.57
500.26	24795.64
500.44	24912.66
500.61	25078.84
500.79	25071.82
500.97	25212.25
501.14	25249.70
501.32	25369.07
501.49	25582.06
501.67	25280.13
501.84	25907.39
502.02	25916.75
502.20	25577.37
502.37	25781.00
502.55	26024.42
502.72	25816.11
502.90	26258.47
503.07	26153.15
503.25	26380.18
503.43	25905.05
503.60	26387.20
503.78	26555.72
503.95	26607.21
504.13	27033.19
504.30	26995.74
504.48	26520.61
504.65	26771.05
504.83	27269.58
505.01	27300.01
505.18	27292.99
505.36	26988.72
505.53	27449.80
505.71	27496.61
505.88	27571.51
506.06	27288.31
506.23	27711.94
506.41	27791.52
506.58	27896.85
506.76	27843.01
506.93	28322.82
507.11	27894.50
507.28	28290.06
507.46	28496.02
507.63	27950.68
507.81	28189.41
507.98	28313.46
508.16	28456.23
508.33	28582.62
508.50	28821.36
508.68	28641.14
508.85	28971.15
509.03	29043.71
509.20	29074.13
509.38	29181.80
509.55	29216.91
509.73	29474.37
509.90	29619.48
510.08	29305.85
510.25	29748.21
510.42	29635.86
510.60	30237.38
510.77	29549.26
510.95	30267.81
511.12	29970.56
511.30	30272.49
511.47	30118.01
511.64	30291.21
511.82	30499.52
511.99	30326.32
512.17	30689.10
512.34	30738.26
512.51	30726.55
512.69	30789.75
512.86	30838.90
513.04	31154.87
513.21	30890.39
513.38	31468.50
513.56	31372.54
513.73	31079.97
513.90	31374.88
514.08	31674.47
514.25	31669.79
514.43	31398.29
514.60	31466.16
514.77	31831.29
514.95	31803.20
515.12	31845.33
515.29	31803.20
515.47	32226.84
515.64	32233.86
515.81	31819.58
515.99	32601.32
516.16	32285.35
516.33	32566.21
516.51	32620.05
516.68	32460.89
516.85	32460.89
517.03	32694.94
517.20	32552.17
517.37	32528.77
517.54	32842.40
517.72	32517.06
517.89	33205.18
518.06	33062.41
518.24	33200.50
518.41	33149.01
518.58	33476.68
518.75	33181.77
518.93	33233.27
519.10	33436.89
519.27	33411.15
519.45	33900.32
519.62	33738.82
519.79	33916.70
519.96	33862.87
520.14	34061.82
520.31	33888.62
520.48	34249.06
520.65	33865.21
520.83	34122.67
521.00	34288.85
521.17	34396.51
521.34	34321.62
521.52	34829.51
521.69	34672.70
521.86	35056.54
522.03	34759.30
522.20	35115.06
522.38	35225.06
522.55	35241.45
522.72	34855.26
522.89	35182.93
523.07	35393.58
523.24	35316.34
523.41	35466.14
523.58	35552.74
523.75	35974.03
523.92	35798.49
524.10	35611.25
524.27	35384.22
524.44	36023.19
524.61	36060.63
524.78	36140.21
524.96	36446.82
525.13	36231.49
525.30	36156.60
525.47	36334.48
525.64	36151.91
525.81	36573.21
525.98	36711.30
526.16	36039.57
526.33	36243.20
526.50	36615.34
526.67	36334.48
526.84	36800.24
527.01	36760.45
527.18	37109.19
527.36	36978.12
527.53	37184.09
527.70	37137.28
527.87	37046.00
528.04	36737.05
528.21	37415.80
528.38	37291.76
528.55	37371.33
528.72	37656.88
528.89	37427.51
529.07	37123.24
529.24	37441.55
529.41	37553.90
529.58	37422.83
529.75	37806.67
529.92	37769.22
530.09	37883.91
530.26	37825.40
530.43	37993.92
530.60	37986.89
530.77	38010.30
530.94	38209.25
531.11	38103.92
531.28	38258.40
531.46	38485.43
531.63	38258.40
531.80	38251.38
531.97	38419.89
532.14	38417.55
532.31	38363.72
532.48	38550.96
532.65	38536.92
532.82	38618.84
532.99	39192.27
533.16	38653.95
533.33	39089.29
533.50	39093.97
533.67	38967.58
533.84	38719.48
534.01	39196.95
534.18	38803.74
534.35	39578.46
534.52	38880.98
534.69	39239.08
534.86	39440.37
535.03	39449.73
535.20	39541.01
535.37	39187.59
535.54	39618.25
535.71	39646.33
535.88	39629.95
536.05	39756.34
536.22	40025.50
536.38	40006.78
536.55	40252.53
536.72	39545.69
536.89	39754.00
537.06	40294.66
537.23	40093.38
537.40	39819.53
537.57	39784.43
537.74	40311.05
537.91	40339.13
538.08	40575.53
538.25	40137.85
538.42	40158.91
538.59	40751.07
538.75	40605.95
538.92	40634.04
539.09	41008.53
539.26	40751.07
539.43	40517.01
539.60	40748.73
539.77	40825.96
539.94	41109.17
540.11	40715.96
540.28	41118.53
540.44	41244.92
540.61	40954.69
540.78	40840.01
540.95	41029.59
541.12	40989.80
541.29	41188.75
541.46	41106.83
541.62	41081.08
541.79	41305.77
541.96	41120.87
542.13	40940.65
542.30	41394.71
542.47	41280.03
542.63	41666.22
542.80	42141.35
542.97	42061.77
543.14	42113.26
543.31	41572.60
543.48	41652.17
543.64	42337.95
543.81	42148.37
543.98	42174.11
544.15	42134.32
544.32	42157.73
544.48	42462.00
544.65	42380.08
544.82	42649.24
544.99	42190.50
545.16	42541.58
545.32	42384.76
545.49	42995.64
545.66	42817.76
545.83	42726.48
546.00	42300.50
546.16	42653.92
546.33	42529.87
546.50	42366.04
546.67	42536.90
546.83	41968.15
547.00	42281.78
547.17	42529.87
547.34	42693.71
547.50	42398.80
547.67	43426.30
547.84	43217.99
548.00	43079.90
548.17	43281.19
548.34	43178.20
548.51	43180.54
548.67	43313.95
548.84	43473.11
549.01	43419.28
549.18	43386.51
549.34	43344.38
549.51	43430.98
549.68	43660.35
549.84	43344.38
550.01	43927.17
550.18	43480.13
550.34	43981.01
550.51	43650.99
550.68	43981.01
550.84	43725.89
551.01	44044.20
551.18	43863.98
551.34	43636.95
551.51	43765.68
551.68	43908.45
551.84	43592.48
552.01	44027.82
552.18	43955.26
552.34	43931.86
552.51	44645.72
552.68	43861.64
552.84	44168.25
553.01	44348.47
553.18	43922.49
553.34	44425.71
553.51	44322.72
553.67	44226.76
553.84	44605.93
554.01	44320.38
554.17	44516.99
554.34	44535.71
554.51	44729.98
554.67	44793.17
554.84	44409.32
555.00	44664.44
555.17	44346.13
555.33	44992.12
555.50	44795.51
555.67	44659.76
555.83	44453.79
556.00	44767.43
556.16	45626.40
556.33	45291.71
556.50	44959.35
556.66	45544.48
556.83	44720.62
556.99	44924.24
557.16	45308.09
557.32	45184.04
557.49	45280.00
557.65	44964.03
557.82	45235.53
557.98	45450.86
558.15	45244.90
558.32	45244.90
558.48	45024.89
558.65	44931.26
558.81	45399.37
558.98	45151.27
559.14	45371.28
559.31	45109.14
559.47	45717.68
559.64	45336.18
559.80	45687.26
559.97	45612.36
560.13	45652.15
560.30	45432.14
560.46	46017.27
560.63	45705.98
560.79	45682.58
560.96	46108.55
561.12	45708.32
561.29	45837.05
561.45	45673.21
561.61	45769.18
561.78	46129.62
561.94	45507.04
562.11	45811.31
562.27	45900.25
562.44	45720.02
562.60	45776.20
562.77	45883.86
562.93	45928.33
563.10	46422.19
563.26	46012.59
563.42	46167.07
563.59	45991.53
563.75	45940.04
563.92	45886.20
564.08	45869.82
564.24	46560.28
564.41	46131.96
564.57	46541.55
564.74	46433.89
564.90	46043.02
565.07	45874.50
565.23	46373.03
565.39	46085.15
565.56	46300.48
565.72	46155.36
565.88	46036.00
566.05	46700.71
566.21	46253.67
566.38	46632.83
566.54	46356.65
566.70	46312.18
566.87	46237.28
567.03	46014.93
567.19	45996.21
567.36	46438.57
567.52	46419.84
567.68	46775.61
567.85	46307.50
568.01	46693.69
568.17	46361.33
568.34	46768.58
568.50	46719.43
568.66	46478.36
568.83	46522.83
568.99	46567.30
569.15	46768.58
569.32	46239.62
569.48	46806.03
569.64	47217.97
569.81	46557.94
569.97	46894.97
570.13	46651.56
570.30	46174.09
570.46	46571.98
570.62	46862.21
570.78	46770.93
570.95	46733.48
571.11	46951.15
571.27	46988.60
571.43	46562.62
571.60	46700.71
571.76	46227.92
571.92	46548.57
572.09	46752.20
572.25	46464.32
572.41	46630.49
572.57	46869.23
572.74	47393.51
572.90	47173.50
573.06	46927.74
573.22	46838.80
573.38	47131.37
573.55	47327.97
573.71	47332.65
573.87	47098.60
574.03	46972.21
574.20	46927.74
574.36	47136.05
574.52	47250.74
574.68	47070.51
574.84	47585.43
575.01	47337.33
575.17	47206.26
575.33	47285.84
575.49	46869.23
575.65	47370.10
575.82	47140.73
575.98	47313.93
576.14	47550.32
576.30	47175.84
576.46	47103.28
576.62	47311.59
576.79	47178.18
576.95	46791.99
577.11	46890.29
577.27	47096.26
577.43	46916.04
577.59	47227.33
577.75	47012.00
577.92	46979.23
578.08	47166.48
578.24	47426.28
578.40	47217.97
578.56	47267.12
578.72	47400.53
578.88	47742.25
579.04	47683.73
579.21	47168.82
579.37	47124.35
579.53	47353.72
579.69	47206.26
579.85	47012.00
580.01	47374.78
580.17	47004.98
580.33	47159.45
580.49	47232.01
580.65	47473.09
580.82	47377.12
580.98	47566.71
581.14	47002.64
581.30	47498.83
581.46	47430.96
581.62	47192.22
581.78	46789.65
581.94	47435.64
582.10	47189.88
582.26	47140.73
582.42	47323.29
582.58	47370.10
582.74	47330.31
582.90	47601.82
583.06	47990.34
583.22	46967.53
583.38	47611.18
583.54	47206.26
583.70	47793.74
583.86	47281.16
584.02	47386.49
584.18	47540.96
584.34	47526.92
584.50	47700.12
584.66	47669.69
584.82	47440.32
584.98	47924.81
585.14	47463.72
585.30	47395.85
585.46	47246.05
585.62	47313.93
585.78	47503.51
585.94	47430.96
586.10	47342.02
586.26	47351.38
586.42	47503.51
586.58	47585.43
586.74	47318.61
586.90	47489.47
587.06	47435.64
587.22	47803.10
587.38	47468.40
587.54	47538.62
587.70	47379.46
587.86	47440.32
588.02	47564.37
588.18	47508.19
588.34	47299.89
588.49	47196.90
588.65	47456.70
588.81	47814.80
588.97	47636.92
589.13	47545.64
589.29	47524.58
589.45	48004.39
589.61	47739.91
589.77	47878.00
589.93	47732.89
590.08	47973.96
590.24	47681.39
590.40	48170.57
590.56	48296.95
590.72	47873.32
590.88	47976.30
591.04	47587.77
591.20	47849.91
591.35	47992.68
591.51	48200.99
591.67	47594.79
591.83	48381.21
591.99	47828.85
592.15	47966.94
592.31	48119.07
592.46	47381.80
592.62	47894.38
592.78	48191.63
592.94	48428.02
593.10	47978.64
593.26	48591.86
593.41	48367.17
593.57	48168.22
593.73	48081.63
593.89	48622.29
594.05	48280.57
594.20	48236.10
594.36	48486.54
594.52	48542.71
594.68	48205.67
594.84	48308.66
594.99	48133.12
595.15	48231.42
595.31	48027.79
595.47	47775.02
595.62	48514.62
595.78	47725.86
595.94	48215.04
596.10	47929.49
596.25	48287.59
596.41	47966.94
596.57	48083.97
596.73	48350.79
596.88	48547.39
597.04	48566.12
597.20	48484.20
597.36	48381.21
597.51	48442.07
597.67	48044.18
597.83	48287.59
597.99	48575.48
598.14	48423.34
598.30	48392.92
598.46	48177.59
598.61	48325.04
598.77	47952.90
598.93	48610.59
599.09	48605.91
599.24	48343.77
599.40	48652.72
599.56	48573.14
599.71	48245.46
599.87	48484.20
600.03	48666.76
600.18	48196.31
600.34	47723.52
600.50	48533.35
600.65	48390.58
600.81	48673.78
600.97	48477.18
601.12	48575.48
601.28	48612.93
601.44	48430.36
601.59	48453.77
601.75	48294.61
601.91	48633.99
602.06	48095.67
602.22	48385.89
602.37	48336.74
602.53	48711.23
602.69	48547.39
602.84	48325.04
603.00	48154.18
603.16	48074.60
603.31	48659.74
603.47	48348.45
603.62	48507.60
603.78	48725.27
603.94	48404.62
604.09	48507.60
604.25	48435.05
604.40	48404.62
604.56	48212.70
604.71	48687.82
604.87	48048.86
605.03	48055.88
605.18	47995.03
605.34	48280.57
605.49	48158.86
605.65	48240.78
605.80	48072.26
605.96	48273.55
606.12	48247.80
606.27	48655.06
606.43	48299.30
606.58	48292.27
606.74	48100.35
606.89	48025.45
607.05	48470.15
607.20	48516.96
607.36	48296.95
607.51	48285.25
607.67	48030.13
607.82	47950.56
607.98	48238.44
608.13	48336.74
608.29	48343.77
608.44	47887.36
608.60	48411.64
608.75	48254.82
608.91	48203.33
609.06	47835.87
609.22	48493.56
609.37	47587.77
609.53	48423.34
609.68	47908.43
609.84	48259.51
609.99	48126.10
610.15	48072.26
610.30	48322.70
610.46	48072.26
610.61	48437.39
610.76	48229.08
610.92	47833.53
611.07	48002.05
611.23	48044.18
611.38	47732.89
611.54	47892.04
611.69	47915.45
611.84	47611.18
612.00	48093.33
612.15	47709.48
612.31	47980.98
612.46	47604.16
612.62	47779.70
612.77	48109.71
612.92	48081.63
613.08	47840.55
613.23	48025.45
613.39	47618.20
613.54	47349.04
613.69	47929.49
613.85	47878.00
614.00	47948.21
614.15	48158.86
614.31	47819.49
614.46	47606.50
614.62	47688.42
614.77	47508.19
614.92	47639.26
615.08	47643.94
615.23	47655.65
615.38	47840.55
615.54	47812.46
615.69	47966.94
615.84	47749.27
616.00	47725.86
616.15	47980.98
616.30	47772.67
616.46	47531.60
616.61	47683.73
616.76	47861.61
616.92	47208.61
617.07	47758.63
617.22	47510.53
617.37	47217.97
617.53	47430.96
617.68	47421.59
617.83	47248.39
617.99	47437.98
618.14	47367.76
618.29	47035.41
618.45	46993.28
618.60	46731.14
618.75	46941.78
618.90	47042.43
619.06	46939.44
619.21	47318.61
619.36	47241.37
619.51	47091.58
619.67	46967.53
619.82	46951.15
619.97	47019.02
620.12	47269.46
620.28	46993.28
620.43	47194.56
620.58	46859.87
620.73	47299.89
620.89	46965.19
621.04	47117.32
621.19	46948.81
621.34	47042.43
621.49	46422.19
621.65	46939.44
621.80	47178.18
621.95	47072.85
622.10	47124.35
622.25	46658.58
622.41	46586.02
622.56	46532.19
622.71	47033.07
622.86	46614.11
623.01	46506.44
623.16	46586.02
623.32	46770.93
623.47	46574.32
623.62	46452.61
623.77	46981.57
623.92	46784.97
624.07	46555.60
624.23	46827.10
624.38	47164.14
624.53	46553.26
624.68	46579.00
624.83	46595.38
624.98	46777.95
625.13	46305.16
625.29	46447.93
625.44	46433.89
625.59	46522.83
625.74	46071.10
625.89	46096.85
626.04	46443.25
626.19	46036.00
626.34	45989.19
626.49	46211.54
626.65	45792.58
626.80	46202.18
626.95	45748.11
627.10	46087.49
627.25	45918.97
627.40	46108.55
627.55	46036.00
627.70	45923.65
627.85	46284.09
628.00	46284.09
628.15	46103.87
628.30	45914.29
628.45	45537.46
628.60	45345.54
628.76	45933.01
628.91	45680.24
629.06	45638.11
629.21	45656.83
629.36	46117.92
629.51	45373.63
629.66	45897.91
629.81	45837.05
629.96	45743.43
630.11	45705.98
630.26	45280.00
630.41	45638.11
630.56	45296.39
630.71	45333.84
630.86	45490.65
631.01	45247.24
631.16	45301.07
631.31	45202.77
631.46	45331.50
631.61	45989.19
631.76	45595.98
631.91	45619.38
632.06	45647.47
632.21	45226.17
632.36	45434.48
632.51	45095.10
632.66	45310.43
632.81	45184.04
632.96	45427.46
633.10	45263.62
633.25	45141.91
633.40	44971.05
633.55	45750.45
633.70	44933.60
633.85	44945.31
634.00	44718.28
634.15	44774.45
634.30	44692.53
634.45	44865.73
634.60	44741.68
634.75	44729.98
634.90	45177.02
635.05	45237.87
635.19	44432.73
635.34	44835.30
635.49	44947.65
635.64	44996.80
635.79	44858.71
635.94	44985.10
636.09	44980.42
636.24	44460.82
636.39	44870.41
636.53	44802.53
636.68	44404.64
636.83	44491.24
636.98	44385.92
637.13	44287.62
637.28	44210.38
637.43	44357.83
637.57	44673.81
637.72	44229.10
637.87	44247.83
638.02	44512.31
638.17	44343.79
638.32	44236.12
638.46	43449.70
638.61	43927.17
638.76	43913.13
638.91	44201.02
639.06	43597.16
639.20	43847.60
639.35	43613.54
639.50	43566.73
639.65	44081.65
639.80	43859.30
639.94	43938.88
640.09	44538.05
640.24	44313.36
640.39	43555.03
640.54	43498.86
640.68	44217.40
640.83	44032.50
640.98	43545.67
641.13	43409.92
641.27	44027.82
641.42	43859.30
641.57	43276.51
641.72	44151.87
641.86	43604.18
642.01	43489.49
642.16	43587.80
642.31	42880.95
642.45	43613.54
642.60	43430.98
642.75	43374.81
642.90	43718.87
643.04	43550.35
643.19	43227.35
643.34	43313.95
643.48	43005.00
643.63	43075.22
643.78	43597.16
643.93	43559.71
644.07	43725.89
644.22	43320.98
644.37	43037.77
644.51	43761.00
644.66	43260.12
644.81	43388.85
644.95	43119.69
645.10	43395.87
645.25	42923.08
645.39	42880.95
645.54	43009.68
645.69	43068.20
645.83	42450.30
645.98	42513.49
646.13	42452.64
646.27	42817.76
646.42	42473.70
646.57	42880.95
646.71	43040.11
646.86	43402.89
647.00	42946.49
647.15	43023.73
647.30	42658.60
647.44	42204.54
647.59	42527.53
647.74	42459.66
647.88	42969.90
648.03	42754.57
648.17	43203.95
648.32	42555.62
648.47	42974.58
648.61	42279.44
648.76	42529.87
648.90	42728.82
649.05	42532.22
649.20	42653.92
649.34	42635.20
649.49	42752.23
649.63	42424.55
649.78	42609.45
649.92	42202.20
650.07	43236.72
650.21	42459.66
650.36	42227.95
650.51	42150.71
650.65	42522.85
650.80	42249.01
650.94	42464.34
651.09	42344.97
651.23	41551.53
651.38	42010.28
651.52	41816.01
651.67	42246.67
651.81	41979.85
651.96	42281.78
652.10	41476.63
652.25	41577.28
652.39	41605.36
652.54	42300.50
652.68	41923.68
652.83	42012.62
652.97	41764.52
653.12	42038.36
653.26	41654.51
653.41	41848.78
653.55	42199.86
653.70	42113.26
653.84	42232.63
653.99	42323.91
654.13	41902.61
654.27	41734.09
654.42	41890.91
654.56	41408.76
654.71	41808.99
654.85	41902.61
655.00	41483.66
655.14	41642.81
655.29	41853.46
655.43	41691.96
655.57	41191.09
655.72	41603.02
655.86	41111.51
656.01	41151.30
656.15	41247.26
656.30	41223.86
656.44	41205.13
656.58	41324.50
656.73	40968.74
656.87	41240.24
657.01	40636.38
657.16	41170.02
657.30	41167.68
657.45	41354.93
657.59	40509.99
657.73	40278.28
657.88	41223.86
658.02	41148.96
658.16	40982.78
658.31	41153.64
658.45	40718.30
658.60	40627.02
658.74	40821.28
658.88	41134.92
659.03	40884.48
659.17	40498.29
659.31	40212.74
659.46	40212.74
659.60	40823.62
659.74	40217.43
659.89	39908.47
660.03	40238.49
660.17	40039.54
660.32	39948.26
660.46	40172.96
660.60	40034.86
660.74	39955.29
660.89	40292.32
661.03	39433.35
661.17	39978.69
661.32	39541.01
661.46	39864.00
661.60	39749.32
661.74	39381.85
661.89	39791.45
662.03	39828.90
662.17	39484.84
662.31	39807.83
662.46	39473.13
662.60	39409.94
662.74	39072.90
662.88	39292.91
663.03	38934.81
663.17	38682.03
663.31	38677.35
663.45	39358.45
663.60	39679.10
663.74	38941.83
663.88	39002.69
664.02	38532.24
664.17	39037.80
664.31	38803.74
664.45	39131.42
664.59	38288.82
664.73	38433.94
664.88	38974.60
665.02	38410.53
665.16	38579.05
665.30	38401.17
665.44	38333.29
665.59	38272.44
665.73	38040.73
665.87	37652.20
666.01	38117.96
666.15	38438.62
666.29	38113.28
666.44	38059.45
666.58	38092.22
666.72	38040.73
666.86	37879.23
667.00	37596.03
667.14	37771.57
667.28	37869.87
667.43	38045.41
667.57	37773.91
667.71	37855.82
667.85	37818.38
667.99	37780.93
668.13	37638.15
668.27	36875.14
668.41	37207.50
668.56	36950.04
668.70	36765.14
668.84	37060.04
668.98	36620.02
669.12	36704.28
669.26	37031.96
669.40	36837.69
669.54	36931.31
669.68	36423.42
669.82	36575.55
669.96	36067.66
670.10	36100.42
670.25	36395.33
670.39	36657.47
670.53	36362.56
670.67	36180.00
670.81	36718.32
670.95	36102.76
671.09	36060.63
671.23	35974.03
671.37	36172.98
671.51	35651.04
671.65	35667.42
671.79	35512.95
671.93	35887.43
672.07	35831.26
672.21	35941.27
672.35	35241.45
672.49	35211.02
672.63	35754.02
672.77	35077.61
672.91	35082.29
673.05	35026.12
673.19	35016.75
673.33	34794.40
673.47	34892.71
673.61	34735.89
673.75	34478.43
673.89	34663.33
674.03	34443.32
674.17	34204.59
674.31	33795.00
674.45	34050.11
674.59	34068.84
674.73	34113.31
674.87	33881.60
675.01	33778.61
675.15	33589.03
675.29	33486.04
675.43	33476.68
675.56	33443.91
675.70	33383.06
675.84	33483.70
675.98	32107.47
676.12	33605.41
676.26	33120.92
676.40	32968.79
676.54	32701.96
676.68	32708.99
676.82	32470.25
676.96	32622.39
677.10	32844.74
677.23	32830.69
677.37	32685.58
677.51	32180.03
677.65	31941.29
677.79	31878.10
677.93	32203.43
678.07	31807.88
678.21	31894.48
678.34	31138.49
678.48	31796.18
678.62	31793.84
678.76	31269.56
678.90	31487.23
679.04	31477.86
679.18	31417.01
679.31	30972.31
679.45	30937.20
679.59	30984.01
679.73	30850.60
679.87	30616.55
680.00	30668.04
680.14	30677.40
680.28	30190.57
680.42	30160.14
680.56	30136.74
680.70	29851.19
680.83	29661.61
680.97	29834.81
681.11	29862.90
681.25	30064.18
681.39	29394.79
681.52	29493.09
681.66	29076.48
681.80	28987.53
681.94	28877.53
682.07	29127.97
682.21	28863.49
682.35	28716.03
682.49	28926.68
682.62	28765.18
682.76	28737.10
682.90	28655.18
683.04	28395.38
683.17	27934.29
683.31	28549.85
683.45	28030.26
683.59	27782.16
683.72	27838.33
683.86	27725.99
684.00	27697.90
684.13	27761.09
684.27	27110.43
684.41	27094.04
684.55	27332.78
684.68	27475.55
684.82	26977.01
684.96	27213.41
685.09	27246.18
685.23	27147.87
685.37	27159.58
685.50	27316.39
685.64	26588.49
685.78	26417.63
685.91	26764.03
686.05	26265.49
686.19	25858.24
686.32	25689.72
686.46	25804.41
686.60	25493.12
686.73	25748.23
686.87	25612.48
687.01	25830.15
687.14	25560.99
687.28	25603.12
687.42	25429.92
687.55	25472.05
687.69	25645.25
687.82	24772.23
687.96	25291.83
688.10	24989.90
688.23	24870.53
688.37	24847.13
688.50	25116.29
688.64	24608.39
688.78	24556.90
688.91	24446.90
689.05	24271.36
689.18	24147.31
689.32	23758.78
689.46	23929.64
689.59	23658.14
689.73	23857.08
689.86	24130.92
690.00	24151.99
690.13	23779.84
690.27	23428.76
690.41	23358.55
690.54	23112.79
690.68	22895.12
690.81	23278.97
690.95	22918.53
691.08	22946.61
691.22	22649.36
691.35	22967.68
691.49	22801.50
691.62	22773.41
691.76	22148.49
691.89	22492.55
692.03	22183.60
692.16	22225.73
692.30	21916.78
692.43	21706.13
692.57	21640.59
692.70	21535.27
692.84	21579.74
692.97	21359.73
693.11	21184.19
693.24	21158.44
693.38	21357.39
693.51	21207.59
693.65	21097.59
693.78	20830.77
693.92	20910.35
694.05	20854.17
694.19	20697.36
694.32	20592.03
694.45	20734.81
694.59	20664.59
694.72	20563.95
694.86	20510.11
694.99	20020.94
695.13	19924.98
695.26	19932.00
695.39	20135.63
695.53	20004.56
695.66	19508.37
695.80	19548.15
695.93	19810.29
696.07	19405.38
696.20	19150.26
696.33	19082.39
696.47	18806.20
696.60	19229.84
696.73	19051.96
696.87	19129.20
697.00	18869.40
697.14	18628.32
697.27	18654.07
697.40	18815.57
697.54	18841.31
697.67	18478.53
697.80	18471.51
697.94	18319.37
698.07	18232.77
698.21	18132.13
698.34	18174.26
698.47	17785.73
698.61	17472.10
698.74	17516.57
698.87	17734.24
699.01	17682.75
699.14	17547.00
699.27	17610.19
699.40	17373.80
699.54	17322.30
699.67	17216.98
699.80	17240.39
699.94	16936.12
700.07	17324.65
700.20	16975.91
700.34	16486.73
700.47	16802.71
700.60	16980.59
700.73	16851.86
700.87	16592.06
701.00	16329.92
701.13	16273.74
701.26	16198.85
701.40	16042.03
701.53	15997.56
701.66	16123.95
701.79	16290.13
701.93	15653.50
702.06	15798.62
702.19	15494.35
702.32	15667.55
702.46	15777.55
702.59	15756.49
702.72	15765.85
702.85	15389.02
702.99	15529.45
703.12	15382.00
703.25	15176.03
703.38	14977.09
703.51	15066.03
703.65	14810.91
703.78	14927.94
703.91	14576.86
704.04	14478.55
704.17	14431.74
704.31	14621.33
704.44	14558.13
704.57	14551.11
704.70	14202.37
704.83	14263.22
704.96	13996.40
705.10	13975.34
705.23	13764.69
>>>>>End Processed Spectral Data<<<<<
