SpectraSuite Data File
++++++++++++++++++++++++++++++++++++
Date: Fri Oct 25 10:44:38 EDT 2013
User: price-jones
Dark Spectrum Present: No
Reference Spectrum Present: No
Number of Sampled Component Spectra: 1
Spectrometers: USB2+H05261
Integration Time (usec): 100000 (USB2+H05261)
Spectra Averaged: 1 (USB2+H05261)
Boxcar Smoothing: 0 (USB2+H05261)
Correct for Electrical Dark: No (USB2+H05261)
Strobe/Lamp Enabled: No (USB2+H05261)
Correct for Detector Non-linearity: No (USB2+H05261)
Correct for Stray Light: No (USB2+H05261)
Number of Pixels in Processed Spectrum: 2048
>>>>>Begin Processed Spectral Data<<<<<
365.73	173.20
365.92	173.20
366.12	173.20
366.32	63.19
366.52	0.00
366.72	63.19
366.91	2.34
367.11	0.00
367.31	0.00
367.51	67.88
367.70	14.04
367.90	28.09
368.10	37.45
368.30	114.69
368.49	4.68
368.69	77.24
368.89	105.32
369.09	37.45
369.28	74.90
369.48	14.04
369.68	21.06
369.87	86.60
370.07	110.01
370.27	114.69
370.47	170.86
370.66	390.87
370.86	440.02
371.06	402.57
371.25	372.15
371.45	414.27
371.65	390.87
371.84	379.17
372.04	423.64
372.24	477.47
372.44	458.74
372.63	397.89
372.83	519.60
373.03	517.26
373.22	540.66
373.42	435.34
373.62	498.53
373.81	533.64
374.01	526.62
374.21	540.66
374.40	463.43
374.60	566.41
374.79	535.98
374.99	507.90
375.19	554.71
375.38	582.79
375.58	571.09
375.78	692.80
375.97	578.11
376.17	573.43
376.37	491.51
376.56	627.26
376.76	554.71
376.95	690.46
377.15	599.18
377.35	535.98
377.54	566.41
377.74	615.56
377.93	557.05
378.13	582.79
378.33	606.20
378.52	599.18
378.72	681.10
378.91	599.18
379.11	622.58
379.31	657.69
379.50	552.37
379.70	631.94
379.89	648.33
380.09	660.03
380.28	695.14
380.48	589.82
380.68	636.63
380.87	594.50
381.07	610.88
381.26	664.71
381.46	772.38
381.65	692.80
381.85	678.76
382.04	664.71
382.24	650.67
382.43	655.35
382.63	627.26
382.83	737.27
383.02	660.03
383.22	746.63
383.41	676.41
383.61	641.31
383.80	732.59
384.00	709.18
384.19	638.97
384.39	774.72
384.58	718.54
384.78	770.04
384.97	826.21
385.17	662.37
385.36	730.25
385.56	786.42
385.75	744.29
385.95	737.27
386.14	770.04
386.34	784.08
386.53	807.48
386.72	763.01
386.92	795.78
387.11	755.99
387.31	795.78
387.50	823.87
387.70	802.80
387.89	849.61
388.09	929.19
388.28	819.19
388.48	837.91
388.67	910.47
388.86	837.91
389.06	896.43
389.25	884.72
389.45	866.00
389.64	833.23
389.84	957.28
390.03	945.58
390.22	875.36
390.42	847.27
390.61	973.66
390.81	945.58
391.00	976.00
391.19	964.30
391.39	957.28
391.58	896.43
391.78	945.58
391.97	999.41
392.16	922.17
392.36	931.53
392.55	973.66
392.75	945.58
392.94	915.15
393.13	952.60
393.33	880.04
393.52	936.21
393.71	1039.20
393.91	1078.99
394.10	978.34
394.29	1083.67
394.49	1025.15
394.68	1053.24
394.88	1146.86
395.07	1093.03
395.26	1050.90
395.46	964.30
395.65	1137.50
395.84	1053.24
396.04	1076.65
396.23	1160.91
396.42	990.05
396.62	1062.60
396.81	1090.69
397.00	1025.15
397.19	1109.41
397.39	1090.69
397.58	1167.93
397.77	1184.31
397.97	1327.08
398.16	1217.08
398.35	1299.00
398.55	1273.25
398.74	1313.04
398.93	1341.13
399.12	1259.21
399.32	1338.79
399.51	1273.25
399.70	1385.60
399.90	1413.68
400.09	1345.81
400.28	1397.30
400.47	1394.96
400.67	1504.96
400.86	1453.47
401.05	1497.94
401.24	1432.41
401.44	1439.43
401.63	1514.33
401.82	1420.71
402.01	1530.71
402.21	1507.30
402.40	1614.97
402.59	1483.90
402.78	1481.56
402.97	1467.52
403.17	1603.27
403.36	1544.75
403.55	1605.61
403.74	1528.37
403.93	1579.86
404.13	1626.67
404.32	1605.61
404.51	1666.46
404.70	1732.00
404.89	1659.44
405.09	1788.17
405.28	1792.85
405.47	1746.04
405.66	1643.06
405.85	1706.25
406.05	1781.15
406.24	1762.42
406.43	1778.81
406.62	1912.22
406.81	1792.85
407.00	1706.25
407.20	1811.57
407.39	1781.15
407.58	1895.83
407.77	1935.62
407.96	1989.46
408.15	1989.46
408.34	1952.01
408.54	1970.73
408.73	1952.01
408.92	2038.61
409.11	1961.37
409.30	1973.07
409.49	1996.48
409.68	2052.65
409.87	2010.52
410.07	1987.11
410.26	2118.18
410.45	2153.29
410.64	2129.89
410.83	2239.89
411.02	2155.63
411.21	2251.60
411.40	2275.00
411.59	2253.94
411.78	2307.77
411.98	2239.89
412.17	2363.94
412.36	2267.98
412.55	2408.41
412.74	2359.26
412.93	2392.03
413.12	2476.29
413.31	2492.67
413.50	2523.10
413.69	2558.21
413.88	2558.21
414.07	2523.10
414.26	2647.15
414.45	2757.15
414.64	2642.46
414.83	2698.64
415.02	2754.81
415.22	2642.46
415.41	2663.53
415.60	2635.44
415.79	2766.51
415.98	2768.85
416.17	2841.41
416.36	2909.29
416.55	2913.97
416.74	2869.50
416.93	2970.14
417.12	2963.12
417.31	2998.23
417.50	3035.67
417.69	3119.93
417.88	3009.93
418.07	3131.64
418.26	3073.12
418.45	3218.24
418.64	3199.51
418.83	3243.98
419.02	3173.77
419.21	3194.83
419.39	3190.15
419.58	3129.30
419.77	3105.89
419.96	3229.94
420.15	3314.20
420.34	3276.75
420.53	3304.84
420.72	3358.67
420.91	3276.75
421.10	3538.89
421.29	3370.37
421.48	3265.05
421.67	3351.65
421.86	3428.88
422.05	3527.19
422.24	3447.61
422.43	3454.63
422.61	3398.46
422.80	3396.12
422.99	3473.36
423.18	3520.17
423.37	3728.47
423.56	3595.06
423.75	3569.32
423.94	3456.97
424.13	3309.52
424.32	3349.31
424.50	3463.99
424.69	3627.83
424.88	3665.28
425.07	3611.45
425.26	3492.08
425.45	3555.27
425.64	3489.74
425.83	3452.29
426.01	3604.42
426.20	3522.51
426.39	3613.79
426.58	3557.61
426.77	3557.61
426.96	3503.78
427.15	3609.11
427.33	3550.59
427.52	3712.09
427.71	3679.32
427.90	3730.81
428.09	3763.58
428.28	3756.56
428.46	3613.79
428.65	3754.22
428.84	3918.06
429.03	3915.72
429.22	3712.09
429.40	3765.92
429.59	3873.59
429.78	3714.43
429.97	3641.87
430.16	3742.52
430.34	3829.12
430.53	3880.61
430.72	3756.56
430.91	3878.27
431.10	3920.40
431.28	4009.34
431.47	4161.47
431.66	4255.09
431.85	3941.46
432.03	4091.26
432.22	4203.60
432.41	4102.96
432.60	4177.86
432.79	4147.43
432.97	4292.54
433.16	4173.18
433.35	4049.13
433.54	4205.94
433.72	4283.18
433.91	4177.86
434.10	4369.78
434.28	4252.75
434.47	4327.65
434.66	4407.23
434.85	4348.72
435.03	4418.93
435.22	4397.87
435.41	4603.83
435.59	4472.76
435.78	4507.87
435.97	4620.22
436.16	4470.42
436.34	4580.43
436.53	4713.84
436.72	4608.51
436.90	4486.81
437.09	4734.90
437.28	4472.76
437.46	4690.43
437.65	4657.67
437.84	4636.60
438.02	4681.07
438.21	4662.35
438.40	4608.51
438.58	4734.90
438.77	4809.80
438.96	4802.78
439.14	5001.72
439.33	4912.78
439.52	5011.09
439.70	5170.24
439.89	5130.45
440.08	4992.36
440.26	5156.20
440.45	5130.45
440.63	5100.03
440.82	5275.57
441.01	5172.58
441.19	5399.62
441.38	5472.17
441.57	5493.24
441.75	5547.07
441.94	5537.71
442.12	5640.69
442.31	5650.05
442.50	5624.31
442.68	5507.28
442.87	5680.48
443.05	5582.18
443.24	5767.08
443.43	5764.74
443.61	5713.25
443.80	5783.46
443.98	5841.98
444.17	5565.79
444.35	5722.61
444.54	5858.36
444.73	5799.85
444.91	5825.59
445.10	5785.80
445.28	5795.17
445.47	5905.17
445.65	5792.83
445.84	5863.04
446.02	5895.81
446.21	5811.55
446.39	5811.55
446.58	5783.46
446.77	6005.81
446.95	5769.42
447.14	5806.87
447.32	5984.75
447.51	5832.62
447.69	5930.92
447.88	5947.30
448.06	5888.79
448.25	6026.88
448.43	6003.47
448.62	5893.47
448.80	6139.23
448.99	6171.99
449.17	6148.59
449.36	6078.37
449.54	6277.32
449.73	6083.05
449.91	6436.47
450.10	6286.68
450.28	6546.48
450.46	6616.69
450.65	6246.89
450.83	6448.18
451.02	6352.21
451.20	6455.20
451.39	6333.49
451.57	6574.56
451.76	6525.41
451.94	6377.96
452.13	6499.67
452.31	6420.09
452.49	6139.23
452.68	6436.47
452.86	6396.68
453.05	6626.06
453.23	6436.47
453.42	6525.41
453.60	6581.59
453.78	6649.46
453.97	6527.75
454.15	6705.63
454.34	6544.14
454.52	6773.51
454.70	6773.51
454.89	6930.33
455.07	6682.23
455.26	6874.15
455.44	7091.82
455.62	7009.90
455.81	6972.46
455.99	7077.78
456.17	6925.65
456.36	7157.36
456.54	7166.72
456.73	7091.82
456.91	7201.83
457.09	7204.17
457.28	7225.23
457.46	7108.21
457.64	7136.29
457.83	7199.49
458.01	7136.29
458.19	7255.66
458.38	7101.19
458.56	7499.08
458.74	7342.26
458.93	7517.80
459.11	7365.67
459.29	7243.96
459.48	7396.09
459.66	7524.82
459.84	7623.12
460.03	7674.62
460.21	7639.51
460.39	7618.44
460.57	7721.43
460.76	7611.42
460.94	7871.22
461.12	7693.34
461.31	7648.87
461.49	7733.13
461.67	7698.02
461.85	7709.72
462.04	7702.70
462.22	7908.67
462.40	7999.95
462.59	7992.93
462.77	7817.39
462.95	7864.20
463.13	7901.65
463.32	8067.83
463.50	7969.52
463.68	8121.66
463.86	8170.81
464.05	7999.95
464.23	8133.36
464.41	8351.03
464.59	7915.69
464.78	8446.99
464.96	8315.92
465.14	7936.76
465.32	8292.52
465.50	8290.18
465.69	8449.33
465.87	8292.52
466.05	8201.24
466.23	8145.06
466.41	8355.71
466.60	8484.44
466.78	8327.63
466.96	8278.47
467.14	8381.46
467.32	8510.19
467.51	8486.78
467.69	8285.50
467.87	8294.86
468.05	8549.98
468.23	8365.07
468.41	8486.78
468.60	8716.16
468.78	8737.22
468.96	8360.39
469.14	8585.08
469.32	8823.82
469.50	8578.06
469.69	8709.13
469.87	8872.97
470.05	8994.68
470.23	8992.34
470.41	8943.19
470.59	8973.61
470.77	8994.68
470.95	9071.92
471.14	9329.38
471.32	8973.61
471.50	9062.55
471.68	9315.33
471.86	9092.98
472.04	9249.80
472.22	9605.56
472.40	9408.95
472.58	9303.63
472.77	9413.63
472.95	9441.72
473.13	9713.22
473.31	9479.17
473.49	9385.55
473.67	9568.11
473.85	9851.31
474.03	9907.49
474.21	10061.96
474.39	9956.64
474.57	10218.78
474.75	10087.71
474.93	10094.73
475.12	10045.58
475.30	10232.82
475.48	10066.64
475.66	10193.03
475.84	10260.91
476.02	10354.53
476.20	10516.03
476.38	10806.25
476.56	10499.64
476.74	10693.91
476.92	10768.80
477.10	10640.08
477.28	11009.88
477.46	11087.12
477.64	11009.88
477.82	11293.08
478.00	11391.39
478.18	11398.41
478.36	11400.75
478.54	11552.88
478.72	11580.97
478.90	11679.27
479.08	11698.00
479.26	11815.02
479.44	11719.06
479.62	11964.82
479.80	12058.44
479.98	12056.10
480.16	12280.79
480.34	12320.58
480.52	12519.53
480.70	12512.50
480.88	12248.02
481.06	12737.20
481.24	12456.33
481.41	13008.70
481.59	13268.50
481.77	12961.89
481.95	13013.38
482.13	13327.01
482.31	13214.66
482.49	13638.30
482.67	13448.72
482.85	13605.53
483.03	13785.76
483.21	13963.64
483.39	13785.76
483.57	13853.63
483.74	14068.96
483.92	14190.67
484.10	13870.01
484.28	14335.78
484.46	14565.15
484.64	14705.59
484.82	14693.88
485.00	14600.26
485.18	14857.72
485.35	15147.95
485.53	14714.95
485.71	14857.72
485.89	14939.64
486.07	15274.34
486.25	15199.44
486.43	15728.40
486.61	15606.69
486.78	15810.32
486.96	15761.17
487.14	16027.99
487.32	16336.94
487.50	16383.75
487.68	16456.31
487.85	16690.36
488.03	16872.92
488.21	16861.22
488.39	16957.18
488.57	17282.52
488.75	17282.52
488.92	17380.82
489.10	17638.28
489.28	17605.51
489.46	17816.16
489.64	17942.55
489.81	18200.01
489.99	18230.43
490.17	18340.44
490.35	18471.51
490.53	18508.96
490.70	18700.88
490.88	18679.82
491.06	18977.06
491.24	19042.60
491.41	19138.56
491.59	19180.69
491.77	18881.10
491.95	19199.41
492.13	19377.30
492.30	19791.57
492.48	19990.52
492.66	19871.15
492.84	19910.94
493.01	20046.69
493.19	20056.05
493.37	20205.84
493.54	20292.44
493.72	20510.11
493.90	20725.44
494.08	20732.47
494.25	21303.56
494.43	21392.50
494.61	21635.91
494.79	21357.39
494.96	21326.96
495.14	21312.92
495.32	21228.66
495.49	21678.04
495.67	21965.93
495.85	22050.19
496.02	22085.30
496.20	22256.15
496.38	22321.69
496.55	22218.71
496.73	22845.97
496.91	22632.98
497.09	22902.14
497.26	23119.81
497.44	22852.99
497.62	23016.83
497.79	23136.20
497.97	23042.57
498.14	23407.70
498.32	23524.72
498.50	23655.79
498.67	24126.24
498.85	23660.48
499.03	24397.74
499.20	23845.38
499.38	24156.67
499.56	24266.67
499.73	24266.67
499.91	24554.56
500.08	24273.70
500.26	24020.92
500.44	24308.80
500.61	24453.92
500.79	24620.10
500.97	24805.00
501.14	24966.49
501.32	25027.35
501.49	24924.36
501.67	24814.36
501.84	25226.29
502.02	25266.08
502.20	25586.74
502.37	25846.54
502.55	25600.78
502.72	25745.89
502.90	26010.37
503.07	25603.12
503.25	25781.00
503.43	26316.98
503.60	25640.57
503.78	25703.76
503.95	26218.68
504.13	26225.70
504.30	26309.96
504.48	26476.14
504.65	26366.13
504.83	26684.45
505.01	26913.82
505.18	26768.71
505.36	27211.07
505.53	27208.73
505.71	27335.12
505.88	27058.93
506.06	27051.91
506.23	27641.73
506.41	27358.52
506.58	27337.46
506.76	27655.77
506.93	27667.47
507.11	27482.57
507.28	27768.12
507.46	27648.75
507.63	28016.21
507.81	28280.69
507.98	27798.54
508.16	28477.30
508.33	28254.95
508.50	28524.11
508.68	28446.87
508.85	28907.96
509.03	28465.60
509.20	28664.54
509.38	28664.54
509.55	28676.24
509.73	28755.82
509.90	28964.13
510.08	29104.56
510.25	28741.78
510.42	29022.64
510.60	29413.51
510.77	29352.66
510.95	29626.50
511.12	29701.40
511.30	29549.26
511.47	29811.40
511.64	30110.99
511.82	29991.62
511.99	30436.33
512.17	29872.26
512.34	29567.99
512.51	30061.84
512.69	30204.61
512.86	30368.45
513.04	30665.70
513.21	30424.62
513.38	30342.70
513.56	30199.93
513.73	30490.16
513.90	30810.81
514.08	30445.69
514.25	30815.49
514.43	31094.02
514.60	30939.54
514.77	31070.61
514.95	31016.78
515.12	30749.96
515.29	31409.99
515.47	31908.52
515.64	31768.09
515.81	31115.08
515.99	31250.83
516.16	31402.97
516.33	31384.24
516.51	31639.36
516.68	31278.92
516.85	31290.62
517.03	31578.51
517.20	31625.32
517.37	31920.23
517.54	31873.42
517.72	31831.29
517.89	31880.44
518.06	31882.78
518.24	31868.73
518.41	31934.27
518.58	32322.80
518.75	32044.27
518.93	32610.68
519.10	32299.39
519.27	32114.49
519.45	32381.31
519.62	32496.00
519.79	32645.79
519.96	33214.54
520.14	33179.43
520.31	32713.67
520.48	32992.19
520.65	32828.35
520.83	33607.75
521.00	33212.20
521.17	33521.15
521.34	33764.57
521.52	33427.53
521.69	33724.78
521.86	33881.60
522.03	33909.68
522.20	33820.74
522.38	33851.17
522.55	34052.45
522.72	33937.77
522.89	33823.08
523.07	34417.58
523.24	34043.09
523.41	34082.88
523.58	34045.43
523.75	34700.78
523.92	34754.61
524.10	34836.53
524.27	34668.02
524.44	34721.85
524.61	34944.20
524.78	35129.10
524.96	35161.87
525.13	35044.84
525.30	34693.76
525.47	35433.37
525.64	34672.70
525.81	34981.65
525.98	35178.25
526.16	35180.59
526.33	35042.50
526.50	35304.64
526.67	35379.54
526.84	35311.66
527.01	34993.35
527.18	35342.09
527.36	35915.52
527.53	35779.77
527.70	35859.35
527.87	36006.80
528.04	35587.85
528.21	35936.59
528.38	35974.03
528.55	36528.74
528.72	36219.79
528.89	35995.10
529.07	36051.27
529.24	36198.73
529.41	36458.52
529.58	36130.85
529.75	36203.41
529.92	36730.03
530.09	36620.02
530.26	36964.08
530.43	36615.34
530.60	36390.65
530.77	36746.41
530.94	36840.03
531.11	36439.80
531.28	37156.00
531.46	36947.70
531.63	37046.00
531.80	36793.22
531.97	36950.04
532.14	37294.10
532.31	36573.21
532.48	37338.57
532.65	37518.79
532.82	37050.68
532.99	37258.99
533.16	37029.62
533.33	37139.62
533.50	37434.53
533.67	37422.83
533.84	37628.79
534.01	37565.60
534.18	37446.23
534.35	37549.21
534.52	37633.47
534.69	38050.09
534.86	37572.62
535.03	37958.81
535.20	38110.94
535.37	38213.93
535.54	38752.25
535.71	38249.03
535.88	38064.13
536.05	37998.60
536.22	38555.64
536.38	38220.95
536.55	38412.87
536.72	38597.77
536.89	38183.50
537.06	38595.43
537.23	38352.02
537.40	38171.80
537.57	38511.17
537.74	38880.98
537.91	38923.11
538.08	38972.26
538.25	38511.17
538.42	39112.69
538.59	38679.69
538.75	38672.67
538.92	38927.79
539.09	38672.67
539.26	39049.50
539.43	38916.09
539.60	38817.78
539.77	38796.72
539.94	38822.47
540.11	38770.97
540.28	39545.69
540.44	39225.04
540.61	39292.91
540.78	39108.01
540.95	39824.22
541.12	39508.24
541.29	38937.15
541.46	39346.75
541.62	39447.39
541.79	39927.20
541.96	39580.80
542.13	39194.61
542.30	39236.74
542.47	39849.96
542.63	39559.73
542.80	40065.29
542.97	40009.12
543.14	40343.81
543.31	40062.95
543.48	40325.09
543.64	40889.16
543.81	40514.67
543.98	40411.69
544.15	40472.54
544.32	41008.53
544.48	40830.65
544.65	40676.17
544.82	40442.12
544.99	40334.45
545.16	40350.84
545.32	40701.92
545.49	40797.88
545.66	41099.81
545.83	40964.06
546.00	40891.50
546.16	40575.53
546.33	40788.52
546.50	40526.38
546.67	40861.07
546.83	40905.54
547.00	40727.66
547.17	40748.73
547.34	40783.83
547.50	41062.36
547.67	41624.09
547.84	40781.49
548.00	41221.52
548.17	41478.97
548.34	41322.16
548.51	41273.01
548.67	41188.75
548.84	41544.51
549.01	41076.40
549.18	41502.38
549.34	41315.14
549.51	41584.30
549.68	41710.69
549.84	41598.34
550.01	41621.75
550.18	41635.79
550.34	41708.35
550.51	41827.71
550.68	41696.64
550.84	41254.28
551.01	41329.18
551.18	42052.41
551.34	41972.83
551.51	41450.89
551.68	41752.82
551.84	42045.38
552.01	42031.34
552.18	42052.41
552.34	41713.03
552.51	41766.86
552.68	42108.58
552.84	42181.13
553.01	42295.82
553.18	42576.69
553.34	41965.81
553.51	42014.96
553.67	42089.85
553.84	42511.15
554.01	42160.07
554.17	42464.34
554.34	42253.69
554.51	42433.91
554.67	42431.57
554.84	42632.86
555.00	42906.70
555.17	42103.90
555.33	42300.50
555.50	42045.38
555.67	42230.29
555.83	42639.88
556.00	42457.32
556.16	42801.38
556.33	42864.57
556.50	42644.56
556.66	43133.73
556.83	42452.64
556.99	42726.48
557.16	42829.46
557.32	43140.75
557.49	42946.49
557.65	42740.52
557.82	42724.14
557.98	43063.52
558.15	42560.30
558.32	43210.97
558.48	42962.87
558.65	43105.65
558.81	42913.72
558.98	42719.46
559.14	42775.63
559.31	42997.98
559.47	43398.21
559.64	43330.34
559.80	43409.92
559.97	43061.18
560.13	43000.32
560.30	42600.09
560.46	43147.78
560.63	42864.57
560.79	43480.13
560.96	43459.07
561.12	43566.73
561.29	43257.78
561.45	43262.46
561.61	43061.18
561.78	43269.48
561.94	43255.44
562.11	43281.19
562.27	43297.57
562.44	43400.55
562.60	43700.14
562.77	43576.09
562.93	43398.21
563.10	43367.79
563.26	42740.52
563.42	43440.34
563.59	43037.77
563.75	43477.79
563.92	43892.07
564.08	43468.43
564.24	43873.34
564.41	43728.23
564.57	43679.08
564.74	43323.32
564.90	43468.43
565.07	43227.35
565.23	43363.11
565.39	43267.14
565.56	43849.94
565.72	43641.63
565.88	43742.27
566.05	43693.12
566.21	44032.50
566.38	43056.50
566.54	43613.54
566.70	44114.42
566.87	44025.48
567.03	43730.57
567.19	44189.31
567.36	43976.33
567.52	43674.40
567.68	44032.50
567.85	43416.94
568.01	43945.90
568.17	44030.16
568.34	43791.42
568.50	43910.79
568.66	43519.92
568.83	43903.77
568.99	43988.03
569.15	43494.18
569.32	43452.05
569.48	44025.48
569.64	44219.74
569.81	43927.17
569.97	44002.07
570.13	43943.56
570.30	43770.36
570.46	43791.42
570.62	43878.02
570.78	43215.65
570.95	43871.00
571.11	44217.40
571.27	43854.62
571.43	43615.88
571.60	44179.95
571.76	43959.94
571.92	43587.80
572.09	44009.09
572.25	43702.48
572.41	43735.25
572.57	44093.35
572.74	44231.44
572.90	43660.35
573.06	44039.52
573.22	44137.82
573.38	44072.29
573.55	44067.61
573.71	43999.73
573.87	44247.83
574.03	44395.28
574.20	43835.89
574.36	43920.15
574.52	43896.75
574.68	44102.71
574.84	44325.07
575.01	43920.15
575.17	43856.96
575.33	43784.40
575.49	43555.03
575.65	44254.85
575.82	44275.91
575.98	44182.29
576.14	44556.78
576.30	44259.53
576.46	43955.26
576.62	44229.10
576.79	44299.32
576.95	43871.00
577.11	43971.64
577.27	44261.87
577.43	44095.69
577.59	44343.79
577.75	44034.84
577.92	43938.88
578.08	43990.37
578.24	43915.47
578.40	43842.92
578.56	44016.11
578.72	44311.02
578.88	44383.58
579.04	44531.03
579.21	43957.60
579.37	43847.60
579.53	44257.19
579.69	44011.43
579.85	44477.20
580.01	44046.54
580.17	44041.86
580.33	44357.83
580.49	44559.12
580.65	44547.42
580.82	44411.67
580.98	43913.13
581.14	44350.81
581.30	44442.09
581.46	43962.28
581.62	44465.50
581.78	44051.22
581.94	44121.44
582.10	44304.00
582.26	44158.89
582.42	44135.48
582.58	44348.47
582.74	43957.60
582.90	44201.02
583.06	44591.89
583.22	44563.80
583.38	44346.13
583.54	44362.51
583.70	44121.44
583.86	44493.58
584.02	44165.91
584.18	44275.91
584.34	43922.49
584.50	43948.24
584.66	43878.02
584.82	44226.76
584.98	44631.68
585.14	44374.22
585.30	44151.87
585.46	44121.44
585.62	44528.69
585.78	44030.16
585.94	44439.75
586.10	44811.90
586.26	44285.28
586.42	44030.16
586.58	44491.24
586.74	44458.48
586.90	43880.36
587.06	44212.72
587.22	44383.58
587.38	44170.59
587.54	44484.22
587.70	44608.27
587.86	44402.30
588.02	44685.51
588.18	44177.61
588.34	44390.60
588.49	43969.30
588.65	43852.28
588.81	43686.10
588.97	44406.98
589.13	44313.36
589.29	44133.14
589.45	44105.06
589.61	43894.41
589.77	44425.71
589.93	44718.28
590.08	44486.56
590.24	44935.95
590.40	44638.70
590.56	44367.20
590.72	44456.14
590.88	44498.26
591.04	44374.22
591.20	44776.79
591.35	44327.41
591.51	44783.81
591.67	44552.10
591.83	44617.63
591.99	44737.00
592.15	44521.67
592.31	44348.47
592.46	44285.28
592.62	44563.80
592.78	44940.63
592.94	44999.14
593.10	44479.54
593.26	44992.12
593.41	44463.16
593.57	44605.93
593.73	44577.84
593.89	44926.58
594.05	44842.32
594.20	44531.03
594.36	44776.79
594.52	44521.67
594.68	44861.05
594.84	44414.01
594.99	44971.05
595.15	44842.32
595.31	44402.30
595.47	44680.83
595.62	44493.58
595.78	44779.13
595.94	44940.63
596.10	45057.65
596.25	44978.07
596.41	45048.29
596.57	44491.24
596.73	44835.30
596.88	44215.06
597.04	44828.28
597.20	44713.59
597.36	44765.09
597.51	44861.05
597.67	44704.23
597.83	44961.69
597.99	44823.60
598.14	44699.55
598.30	45050.63
598.46	44591.89
598.61	44924.24
598.77	44559.12
598.93	45003.82
599.09	45076.38
599.24	45132.55
599.40	45050.63
599.56	45043.61
599.71	44486.56
599.87	44818.92
600.03	44938.29
600.18	44985.10
600.34	45104.46
600.50	45013.18
600.65	44540.39
600.81	44711.25
600.97	45434.48
601.12	44641.04
601.28	45041.27
601.44	44729.98
601.59	44645.72
601.75	44458.48
601.91	44561.46
602.06	44580.18
602.22	44652.74
602.37	44301.66
602.53	44931.26
602.69	44947.65
602.84	44418.69
603.00	44863.39
603.16	44772.11
603.31	44966.37
603.47	44563.80
603.62	44636.36
603.78	44495.92
603.94	44650.40
604.09	44725.30
604.25	44893.82
604.40	45118.51
604.56	44741.68
604.71	45013.18
604.87	44615.29
605.03	44442.09
605.18	44615.29
605.34	44638.70
605.49	44266.55
605.65	44718.28
605.80	44559.12
605.96	44589.55
606.12	44830.62
606.27	44865.73
606.43	44959.35
606.58	44350.81
606.74	44313.36
606.89	44212.72
607.05	44889.13
607.20	44861.05
607.36	44694.87
607.51	44278.25
607.67	44217.40
607.82	44631.68
607.98	44472.52
608.13	43976.33
608.29	43966.96
608.44	44332.09
608.60	44133.14
608.75	44079.31
608.91	44135.48
609.06	44261.87
609.22	44474.86
609.37	44425.71
609.53	44051.22
609.68	44292.30
609.84	44561.46
609.99	44315.70
610.15	43964.62
610.30	44514.65
610.46	43910.79
610.61	43995.05
610.76	44229.10
610.92	44217.40
611.07	44573.16
611.23	44458.48
611.38	44023.14
611.54	43847.60
611.69	43978.67
611.84	44215.06
612.00	43737.59
612.15	43398.21
612.31	44268.89
612.46	43835.89
612.62	44301.66
612.77	43728.23
612.92	44137.82
613.08	43966.96
613.23	44112.08
613.39	43901.43
613.54	43487.15
613.69	43435.66
613.85	43665.03
614.00	43990.37
614.15	44112.08
614.31	43948.24
614.46	44086.33
614.62	44158.89
614.77	43540.99
614.92	44027.82
615.08	43414.60
615.23	43377.15
615.38	43276.51
615.54	43232.04
615.69	43477.79
615.84	43367.79
616.00	43585.46
616.15	43674.40
616.30	43159.48
616.46	43316.29
616.61	43171.18
616.76	43220.33
616.92	42972.24
617.07	43353.74
617.22	43107.99
617.37	43091.60
617.53	43388.85
617.68	43494.18
617.83	43395.87
617.99	43372.47
618.14	43604.18
618.29	43227.35
618.45	42916.06
618.60	43248.42
618.75	42944.15
618.90	42948.83
619.06	43147.78
619.21	43171.18
619.36	43863.98
619.51	42904.36
619.67	43192.25
619.82	43093.94
619.97	43569.07
620.12	42923.08
620.28	42490.09
620.43	42351.99
620.58	42707.76
620.73	42677.33
620.89	42925.42
621.04	42836.48
621.19	42801.38
621.34	42887.98
621.49	42761.59
621.65	42642.22
621.80	42691.37
621.95	42735.84
622.10	42443.27
622.25	42150.71
622.41	42260.71
622.56	42279.44
622.71	42700.73
622.86	42333.27
623.01	42281.78
623.16	42326.25
623.32	42363.70
623.47	42417.53
623.62	42775.63
623.77	42466.68
623.92	42117.94
624.07	42038.36
624.23	42307.52
624.38	42230.29
624.53	42085.17
624.68	42061.77
624.83	42115.60
624.98	42113.26
625.13	42033.68
625.29	42064.11
625.44	42178.79
625.59	41450.89
625.74	41727.07
625.89	41663.88
626.04	41940.06
626.19	41780.90
626.34	41649.83
626.49	41743.45
626.65	41724.73
626.80	41998.57
626.95	41921.34
627.10	42066.45
627.25	41816.01
627.40	41769.20
627.55	41469.61
627.70	41441.53
627.85	41336.20
628.00	41324.50
628.15	41722.39
628.30	41031.93
628.45	41373.65
628.60	41708.35
628.76	41918.99
628.91	41869.84
629.06	41097.47
629.21	41322.16
629.36	41223.86
629.51	40978.10
629.66	41368.97
629.81	40620.00
629.96	41273.01
630.11	41261.30
630.26	41411.10
630.41	40840.01
630.56	40776.81
630.71	41067.04
630.86	40935.97
631.01	40863.41
631.16	40989.80
631.31	41144.28
631.46	40573.19
631.61	41163.00
631.76	41036.61
631.91	40779.15
632.06	41085.76
632.21	41298.75
632.36	41249.60
632.51	40744.05
632.66	40744.05
632.81	39988.05
632.96	40505.31
633.10	40409.35
633.25	40535.74
633.40	40708.94
633.55	40802.56
633.70	40545.10
633.85	40507.65
634.00	40865.75
634.15	40495.95
634.30	40687.87
634.45	40458.50
634.60	40285.30
634.75	40622.34
634.90	40210.40
635.05	40067.63
635.19	39950.60
635.34	40552.12
635.49	40563.82
635.64	40224.45
635.79	40137.85
635.94	40149.55
636.09	40526.38
636.24	39826.56
636.39	39901.45
636.53	39686.12
636.68	39931.88
636.83	39831.24
636.98	40245.51
637.13	40215.08
637.28	40201.04
637.43	40149.55
637.57	40294.66
637.72	40151.89
637.87	39875.71
638.02	39910.82
638.17	39629.95
638.32	39541.01
638.46	39599.52
638.61	39873.37
638.76	39618.25
638.91	39550.37
639.06	39824.22
639.20	39047.16
639.35	39901.45
639.50	39814.85
639.65	40048.91
639.80	39620.59
639.94	39669.74
640.09	39337.38
640.24	39117.37
640.39	38972.26
640.54	39339.72
640.68	39503.56
640.83	39438.03
640.98	39475.48
641.13	39096.31
641.27	38951.20
641.42	39203.97
641.57	38890.34
641.72	39412.28
641.86	38443.30
642.01	39051.84
642.16	38944.17
642.31	38670.33
642.45	39435.69
642.60	38899.70
642.75	38763.95
642.90	38623.52
643.04	38967.58
643.19	38466.70
643.34	38806.08
643.48	38974.60
643.63	38565.01
643.78	38667.99
643.93	38768.63
644.07	38600.12
644.22	38415.21
644.37	38565.01
644.51	38747.57
644.66	38941.83
644.81	38380.10
644.95	39175.89
645.10	38628.20
645.25	38993.32
645.39	38717.14
645.54	38986.30
645.69	38249.03
645.83	38494.79
645.98	38803.74
646.13	38813.10
646.27	38717.14
646.42	38590.75
646.57	38494.79
646.71	38405.85
646.86	38452.66
647.00	38560.33
647.15	38621.18
647.30	38337.98
647.44	38197.54
647.59	38457.34
647.74	38209.25
647.88	38216.27
648.03	38464.36
648.17	37989.24
648.32	37956.47
648.47	38148.39
648.61	37762.20
648.76	38029.02
648.90	37869.87
649.05	38183.50
649.20	38134.35
649.34	38050.09
649.49	37883.91
649.63	37493.04
649.78	38017.32
649.92	37638.15
650.07	38260.74
650.21	37607.73
650.36	38092.22
650.51	37769.22
650.65	37792.63
650.80	38094.56
650.94	37933.06
651.09	37574.96
651.23	37860.51
651.38	37530.49
651.52	37415.80
651.67	37610.07
651.81	37624.11
651.96	37179.41
652.10	37258.99
652.25	37055.36
652.39	37195.79
652.54	37919.02
652.68	37811.35
652.83	37574.96
652.97	37530.49
653.12	37722.41
653.26	37270.69
653.41	37511.77
653.55	36971.10
653.70	37078.77
653.84	37043.66
653.99	37064.72
654.13	36919.61
654.27	37015.57
654.42	36872.80
654.56	36961.74
654.71	37127.92
654.85	37116.22
655.00	37240.26
655.14	36891.52
655.29	36849.39
655.43	36739.39
655.57	36622.36
655.72	36198.73
655.86	36313.41
656.01	36364.90
656.15	36680.88
656.30	36329.80
656.44	36893.86
656.58	36687.90
656.73	36774.50
656.87	36781.52
657.01	36362.56
657.16	36685.56
657.30	36144.89
657.45	35772.75
657.59	36402.35
657.73	35826.58
657.88	36692.58
658.02	36404.69
658.16	36882.16
658.31	36512.36
658.45	36484.27
658.60	36156.60
658.74	36100.42
658.88	36041.91
659.03	36177.66
659.17	36105.10
659.31	36086.38
659.46	35842.96
659.60	35969.35
659.74	36694.92
659.89	35653.38
660.03	35730.62
660.17	35995.10
660.32	35849.99
660.46	35857.01
660.60	35517.63
660.74	35838.28
660.89	35585.50
661.03	35679.13
661.17	35178.25
661.32	35117.40
661.46	35629.98
661.60	34895.05
661.74	35346.77
661.89	35424.01
662.03	35363.15
662.17	35276.55
662.31	34817.81
662.46	35086.97
662.60	35269.53
662.74	34845.90
662.88	35079.95
663.03	35016.75
663.17	34845.90
663.31	34789.72
663.45	34799.08
663.60	34485.45
663.74	34682.06
663.88	34576.73
664.02	34876.32
664.17	34625.89
664.31	33886.28
664.45	34567.37
664.59	34321.62
664.73	34225.65
664.88	34710.14
665.02	33977.56
665.16	34419.92
665.30	34171.82
665.44	34148.42
665.59	33930.75
665.73	33874.57
665.87	34323.96
666.01	33806.70
666.15	33729.46
666.29	33799.68
666.44	33942.45
666.58	33694.35
666.72	33488.38
666.86	33832.44
667.00	33558.60
667.14	33392.42
667.28	33221.56
667.43	32861.12
667.57	33446.26
667.71	32999.21
667.85	32940.70
667.99	33106.88
668.13	33109.22
668.27	33230.93
668.41	33113.90
668.56	32910.27
668.70	33364.34
668.84	33207.52
668.98	32868.14
669.12	33039.00
669.26	32718.35
669.40	32224.50
669.54	32460.89
669.68	32730.05
669.82	32451.53
669.96	32517.06
670.10	32173.00
670.25	32416.42
670.39	32030.23
670.53	32198.75
670.67	32322.80
670.81	32004.49
670.95	32304.07
671.09	31786.82
671.23	32191.73
671.37	32194.07
671.51	31927.25
671.65	31519.99
671.79	31768.09
671.93	31402.97
672.07	32027.89
672.21	31683.83
672.35	31749.37
672.49	31440.42
672.63	31606.59
672.77	31215.72
672.91	31096.36
673.05	31763.41
673.19	31271.90
673.33	30876.35
673.47	30859.96
673.61	30864.64
673.75	30927.84
673.89	30548.67
674.03	30665.70
674.17	30553.35
674.31	30417.60
674.45	30583.78
674.59	30305.26
674.73	30822.51
674.87	30295.89
675.01	30586.12
675.15	30485.48
675.29	30153.12
675.43	30333.34
675.56	29979.92
675.70	29743.53
675.84	29762.25
675.98	29113.92
676.12	29961.20
676.26	29773.95
676.40	29575.01
676.54	29308.19
676.68	29312.87
676.82	29024.98
676.96	28987.53
677.10	29364.36
677.23	29472.03
677.37	29226.27
677.51	28835.40
677.65	28690.29
677.79	28109.83
677.93	28395.38
678.07	28503.04
678.21	28095.79
678.34	28535.81
678.48	28135.58
678.62	28184.73
678.76	27962.38
678.90	27632.36
679.04	27791.52
679.18	27737.69
679.31	27503.64
679.45	27456.82
679.59	26899.78
679.73	27248.52
679.87	27309.37
680.00	27241.50
680.14	26941.91
680.28	27185.32
680.42	27126.81
680.56	27215.75
680.70	26930.20
680.83	26991.06
680.97	26888.07
681.11	26991.06
681.25	26391.88
681.39	26546.36
681.52	26668.06
681.66	26644.66
681.80	26249.11
681.94	26043.14
682.07	26293.58
682.21	25942.50
682.35	25949.52
682.49	25926.11
682.62	26031.44
682.76	25752.91
682.90	25446.30
683.04	25671.00
683.17	25383.11
683.31	25511.84
683.45	25025.01
683.59	25254.38
683.72	25200.55
683.86	24971.18
684.00	25118.63
684.13	24868.19
684.27	24922.02
684.41	24655.20
684.55	24194.12
684.68	24617.75
684.82	24500.73
684.96	24353.27
685.09	24599.03
685.23	24341.57
685.37	24411.79
685.50	24231.57
685.64	24067.73
685.78	23606.64
685.91	23889.85
686.05	23630.05
686.19	23276.63
686.32	23639.41
686.46	23154.92
686.60	22972.36
686.73	23232.16
686.87	22951.29
687.01	23049.60
687.14	22724.26
687.28	23042.57
687.42	22537.02
687.55	22984.06
687.69	22712.56
687.82	22403.61
687.96	22897.46
688.10	22515.95
688.23	22288.92
688.37	22125.08
688.50	21827.84
688.64	22022.10
688.78	22127.42
688.91	22183.60
689.05	22115.72
689.18	22015.08
689.32	21694.43
689.46	21556.33
689.59	21621.87
689.73	21982.31
689.86	21488.46
690.00	21518.89
690.13	21195.89
690.27	21465.05
690.41	21186.53
690.54	20950.14
690.68	20727.78
690.81	20798.00
690.95	20802.68
691.08	20830.77
691.22	20755.87
691.35	20879.92
691.49	20582.67
691.62	20938.43
691.76	20297.13
691.89	20641.18
692.03	20196.48
692.16	20353.30
692.30	20187.12
692.43	19936.68
692.57	19627.73
692.70	19723.69
692.84	19770.51
692.97	19627.73
693.11	19428.79
693.24	19290.70
693.38	19276.65
693.51	19300.06
693.65	19391.34
693.78	19440.49
693.92	19466.24
694.05	18911.53
694.19	19278.99
694.32	19103.45
694.45	18803.86
694.59	18553.43
694.72	18562.79
694.86	18586.19
694.99	18497.25
695.13	18235.11
695.26	18515.98
695.39	18434.06
695.53	18274.90
695.66	18162.56
695.80	18293.63
695.93	17972.97
696.07	17862.97
696.20	17923.82
696.33	17823.18
696.47	17860.63
696.60	17535.29
696.73	17579.76
696.87	17514.23
697.00	17488.48
697.14	17724.88
697.27	17109.32
697.40	17467.42
697.54	17219.32
697.67	17053.14
697.80	17259.11
697.94	16783.98
698.07	16723.13
698.21	16585.04
698.34	16676.32
698.47	16552.27
698.61	16278.43
698.74	16081.82
698.87	16154.38
699.01	15903.94
699.14	16039.69
699.27	16114.59
699.40	15999.90
699.54	15990.54
699.67	16049.05
699.80	16013.95
699.94	15756.49
700.07	15686.27
700.20	15414.77
700.34	15309.44
700.47	15641.80
700.60	15845.43
700.73	15770.53
700.87	15442.85
701.00	15356.25
701.13	15456.90
701.26	15264.97
701.40	15161.99
701.53	14815.59
701.66	15042.62
701.79	14803.89
701.93	14604.94
702.06	14469.19
702.19	14712.61
702.32	14834.32
702.46	14518.34
702.59	14506.64
702.72	14633.03
702.85	14445.79
702.99	14490.26
703.12	14101.73
703.25	14143.86
703.38	13987.04
703.51	14008.11
703.65	14139.18
703.78	14178.97
703.91	13937.89
704.04	13900.44
704.17	13839.59
704.31	13764.69
704.44	13645.32
704.57	13839.59
704.70	13336.37
704.83	13556.38
704.96	13603.19
705.10	13701.50
705.23	13493.19
>>>>>End Processed Spectral Data<<<<<
