SpectraSuite Data File
++++++++++++++++++++++++++++++++++++
Date: Fri Oct 25 10:43:13 EDT 2013
User: price-jones
Dark Spectrum Present: No
Reference Spectrum Present: No
Number of Sampled Component Spectra: 1
Spectrometers: USB2+H05261
Integration Time (usec): 100000 (USB2+H05261)
Spectra Averaged: 1 (USB2+H05261)
Boxcar Smoothing: 0 (USB2+H05261)
Correct for Electrical Dark: No (USB2+H05261)
Strobe/Lamp Enabled: No (USB2+H05261)
Correct for Detector Non-linearity: No (USB2+H05261)
Correct for Stray Light: No (USB2+H05261)
Number of Pixels in Processed Spectrum: 2048
>>>>>Begin Processed Spectral Data<<<<<
365.73	156.82
365.92	156.82
366.12	156.82
366.32	44.47
366.52	23.41
366.72	49.15
366.91	0.00
367.11	30.43
367.31	0.00
367.51	0.00
367.70	4.68
367.90	14.04
368.10	23.41
368.30	0.00
368.49	11.70
368.69	56.17
368.89	0.00
369.09	21.06
369.28	60.85
369.48	58.51
369.68	107.66
369.87	86.60
370.07	72.56
370.27	124.05
370.47	212.99
370.66	386.19
370.86	435.34
371.06	437.68
371.25	454.06
371.45	395.55
371.65	458.74
371.84	486.83
372.04	514.92
372.24	531.30
372.44	491.51
372.63	461.09
372.83	545.34
373.03	582.79
373.22	451.72
373.42	498.53
373.62	561.73
373.81	533.64
374.01	624.92
374.21	550.03
374.40	552.37
374.60	554.71
374.79	610.88
374.99	545.34
375.19	638.97
375.38	653.01
375.58	645.99
375.78	704.50
375.97	608.54
376.17	638.97
376.37	634.29
376.56	620.24
376.76	610.88
376.95	568.75
377.15	648.33
377.35	589.82
377.54	582.79
377.74	615.56
377.93	634.29
378.13	648.33
378.33	704.50
378.52	681.10
378.72	690.46
378.91	638.97
379.11	660.03
379.31	568.75
379.50	592.16
379.70	641.31
379.89	697.48
380.09	690.46
380.28	746.63
380.48	704.50
380.68	657.69
380.87	718.54
381.07	695.14
381.26	739.61
381.46	723.23
381.65	678.76
381.85	678.76
382.04	622.58
382.24	784.08
382.43	723.23
382.63	615.56
382.83	678.76
383.02	760.67
383.22	704.50
383.41	617.90
383.61	704.50
383.80	812.17
384.00	734.93
384.19	695.14
384.39	779.40
384.58	828.55
384.78	812.17
384.97	791.10
385.17	802.80
385.36	840.25
385.56	751.31
385.75	770.04
385.95	814.51
386.14	877.70
386.34	835.57
386.53	765.36
386.72	826.21
386.92	795.78
387.11	894.08
387.31	833.23
387.50	894.08
387.70	786.42
387.89	863.66
388.09	849.61
388.28	875.36
388.48	903.45
388.67	880.04
388.86	997.07
389.06	961.96
389.25	966.64
389.45	924.51
389.64	985.37
389.84	1015.79
390.03	1039.20
390.22	1022.81
390.42	919.83
390.61	1011.11
390.81	992.39
391.00	1090.69
391.19	1027.50
391.39	987.71
391.58	1078.99
391.78	1036.86
391.97	1039.20
392.16	999.41
392.36	1067.28
392.55	992.39
392.75	1022.81
392.94	985.37
393.13	968.98
393.33	976.00
393.52	1067.28
393.71	1027.50
393.91	1090.69
394.10	1060.26
394.29	1146.86
394.49	1191.33
394.68	1217.08
394.88	1163.25
395.07	1289.64
395.26	1277.93
395.46	1196.01
395.65	1235.80
395.84	1181.97
396.04	1310.70
396.23	1214.74
396.42	1137.50
396.62	1142.18
396.81	1259.21
397.00	1196.01
397.19	1268.57
397.39	1343.47
397.58	1430.07
397.77	1350.49
397.97	1366.87
398.16	1432.41
398.35	1345.81
398.55	1406.66
398.74	1481.56
398.93	1568.16
399.12	1547.09
399.32	1535.39
399.51	1544.75
399.70	1598.59
399.90	1579.86
400.09	1441.77
400.28	1579.86
400.47	1554.12
400.67	1692.21
400.86	1605.61
401.05	1631.35
401.24	1682.85
401.44	1760.08
401.63	1715.61
401.82	1675.82
402.01	1699.23
402.21	1750.72
402.40	1776.47
402.59	1689.87
402.78	1748.38
402.97	1748.38
403.17	1764.76
403.36	1804.55
403.55	1823.28
403.74	1874.77
403.93	1813.92
404.13	1870.09
404.32	1792.85
404.51	1905.20
404.70	1921.58
404.89	1959.03
405.09	1977.75
405.28	1923.92
405.47	1856.04
405.66	1940.30
405.85	2019.88
406.05	1872.43
406.24	1982.43
406.43	1865.41
406.62	1996.48
406.81	2080.74
407.00	2108.82
407.20	2036.27
407.39	2069.03
407.58	2162.66
407.77	2190.74
407.96	2275.00
408.15	2277.34
408.34	2200.10
408.54	2260.96
408.73	2174.36
408.92	2181.38
409.11	2249.25
409.30	2176.70
409.49	2204.78
409.68	2293.72
409.87	2403.73
410.07	2310.11
410.26	2340.54
410.45	2392.03
410.64	2513.74
410.83	2427.14
411.02	2502.03
411.21	2518.42
411.40	2558.21
411.59	2633.10
411.78	2509.05
411.98	2649.49
412.17	2691.62
412.36	2541.82
412.55	2693.96
412.74	2658.85
412.93	2752.47
413.12	2658.85
413.31	2820.35
413.50	2836.73
413.69	2761.83
413.88	2843.75
414.07	2857.79
414.26	2944.39
414.45	2944.39
414.64	2834.39
414.83	2892.90
415.02	3016.95
415.22	3126.96
415.41	3133.98
415.60	3145.68
415.79	3307.18
415.98	3215.90
416.17	3145.68
416.36	3328.24
416.55	3164.40
416.74	3176.11
416.93	3330.58
417.12	3206.53
417.31	3318.88
417.50	3335.26
417.69	3379.73
417.88	3426.54
418.07	3330.58
418.26	3564.64
418.45	3482.72
418.64	3571.66
418.83	3524.85
419.02	3557.61
419.21	3637.19
419.39	3637.19
419.58	3405.48
419.77	3583.36
419.96	3616.13
420.15	3658.26
420.34	3555.27
420.53	3726.13
420.72	3662.94
420.91	3655.92
421.10	3744.86
421.29	3899.33
421.48	3737.84
421.67	3768.26
421.86	3786.99
422.05	3815.07
422.24	3705.07
422.43	3602.08
422.61	3798.69
422.80	3728.47
422.99	4051.47
423.18	3850.18
423.37	4093.60
423.56	4070.19
423.75	3836.14
423.94	3875.93
424.13	3733.15
424.32	3681.66
424.50	3929.76
424.69	3887.63
424.88	4007.00
425.07	3915.72
425.26	4002.32
425.45	3859.54
425.64	3805.71
425.83	3873.59
426.01	3978.91
426.20	3992.95
426.39	4042.11
426.58	3948.48
426.77	3915.72
426.96	3983.59
427.15	3953.16
427.33	4053.81
427.52	3964.87
427.71	3981.25
427.90	4142.75
428.09	4215.30
428.28	4201.26
428.46	4079.55
428.65	4079.55
428.84	4198.92
429.03	4308.93
429.22	4086.58
429.40	4124.02
429.59	4166.15
429.78	3992.95
429.97	3751.88
430.16	4093.60
430.34	3999.98
430.53	4009.34
430.72	4173.18
430.91	4229.35
431.10	4402.55
431.28	4477.44
431.47	4512.55
431.66	4617.88
431.85	4505.53
432.03	4723.20
432.22	4873.00
432.41	4592.13
432.60	4676.39
432.79	4582.77
432.97	4667.03
433.16	4669.37
433.35	4521.92
433.54	4496.17
433.72	4538.30
433.91	4496.17
434.10	4793.42
434.28	4709.16
434.47	4856.61
434.66	4987.68
434.85	4908.10
435.03	5008.75
435.22	4830.87
435.41	5041.51
435.59	5114.07
435.78	5039.17
435.97	5184.29
436.16	5020.45
436.34	5203.01
436.53	5144.50
436.72	5242.80
436.90	4912.78
437.09	5186.63
437.28	5001.72
437.46	5210.03
437.65	5123.43
437.84	5144.50
438.02	5088.32
438.21	5268.55
438.40	5188.97
438.58	5212.37
438.77	5467.49
438.96	5518.98
439.14	5582.18
439.33	5568.13
439.52	5682.82
439.70	5729.63
439.89	5565.79
440.08	5617.29
440.26	5659.42
440.45	5507.28
440.63	5750.70
440.82	5853.68
441.01	6066.67
441.19	5928.58
441.38	6267.95
441.57	6031.56
441.75	6045.60
441.94	6167.31
442.12	6190.72
442.31	6394.34
442.50	6333.49
442.68	6260.93
442.87	6380.30
443.05	6270.30
443.24	6394.34
443.43	6434.13
443.61	6429.45
443.80	6623.72
443.98	6321.79
444.17	6214.12
444.35	6469.24
444.54	6438.81
444.73	6513.71
444.91	6366.26
445.10	6560.52
445.28	6181.35
445.47	6392.00
445.65	6326.47
445.84	6509.03
446.02	6691.59
446.21	6457.54
446.39	6586.27
446.58	6544.14
446.77	6654.14
446.95	6303.06
447.14	6586.27
447.32	6614.35
447.51	6754.79
447.69	6525.41
447.88	6626.06
448.06	6661.16
448.25	6700.95
448.43	6750.10
448.62	6597.97
448.80	6719.68
448.99	6644.78
449.17	6761.81
449.36	6829.68
449.54	6956.07
449.73	7096.50
449.91	6949.05
450.10	7122.25
450.28	7112.89
450.46	7054.37
450.65	7061.40
450.83	7094.16
451.02	7171.40
451.20	7314.17
451.39	7166.72
451.57	7250.98
451.76	7183.10
451.94	7159.70
452.13	7323.54
452.31	7091.82
452.49	6927.99
452.68	7112.89
452.86	7222.89
453.05	7150.34
453.23	7155.02
453.42	7101.19
453.60	7211.19
453.78	7494.40
453.97	7552.91
454.15	7449.93
454.34	7353.96
454.52	7513.12
454.70	7480.35
454.89	7524.82
455.07	7515.46
455.26	7581.00
455.44	7616.10
455.62	7543.55
455.81	7681.64
455.99	7833.77
456.17	7777.60
456.36	7901.65
456.54	7826.75
456.73	7770.58
456.91	8084.21
457.09	8147.40
457.28	8016.33
457.46	8070.17
457.64	8028.04
457.83	8236.35
458.01	7936.76
458.19	8049.10
458.38	7868.88
458.56	8210.60
458.74	8074.85
458.93	8365.07
459.11	8177.83
459.29	8180.17
459.48	8107.62
459.66	8187.19
459.84	8355.71
460.03	8557.00
460.21	8498.49
460.39	8402.52
460.57	8479.76
460.76	8608.49
460.94	8526.57
461.12	8657.64
461.31	8837.86
461.49	8671.68
461.67	8606.15
461.85	8552.32
462.04	8786.37
462.22	9156.18
462.40	8875.31
462.59	8718.50
462.77	8837.86
462.95	8800.41
463.13	8755.94
463.32	8938.51
463.50	8964.25
463.68	8837.86
463.86	8821.48
464.05	8875.31
464.23	8929.14
464.41	8936.17
464.59	8833.18
464.78	9233.41
464.96	8929.14
465.14	9013.40
465.32	9186.60
465.50	9205.33
465.69	9273.20
465.87	9064.89
466.05	9055.53
466.23	9027.45
466.41	9078.94
466.60	9490.87
466.78	9153.84
466.96	9268.52
467.14	9085.96
467.32	9523.64
467.51	9507.26
467.69	9025.11
467.87	9186.60
468.05	9350.44
468.23	9195.96
468.41	9551.73
468.60	9467.47
468.78	9731.95
468.96	9570.45
469.14	9577.47
469.32	9521.30
469.50	9291.93
469.69	9556.41
469.87	9738.97
470.05	9699.18
470.23	9818.55
470.41	9540.02
470.59	10052.60
470.77	9790.46
470.95	10047.92
471.14	10141.54
471.32	9877.06
471.50	10237.50
471.68	10120.48
471.86	10253.89
472.04	10427.09
472.22	10703.27
472.40	10223.46
472.58	10314.74
472.77	10303.04
472.95	10637.73
473.13	10698.59
473.31	10462.19
473.49	10380.28
473.67	10628.37
473.85	10544.11
474.03	10892.85
474.21	11016.90
474.39	11117.54
474.57	11147.97
474.75	11126.91
474.93	11183.08
475.12	10979.45
475.30	11084.78
475.48	11098.82
475.66	11197.12
475.84	11119.89
476.02	11159.67
476.20	11257.98
476.38	11587.99
476.56	11536.50
476.74	11716.72
476.92	11485.01
477.10	11800.98
477.28	11950.78
477.46	12004.61
477.64	12142.70
477.82	12215.26
478.00	12329.94
478.18	12453.99
478.36	12430.59
478.54	12608.47
478.72	12805.07
478.90	12791.03
479.08	13156.15
479.26	13174.88
479.44	13104.66
479.62	13074.23
479.80	13284.88
479.98	13081.25
480.16	13579.79
480.34	13631.28
480.52	13703.84
480.70	13547.02
480.88	13479.15
481.06	13635.96
481.24	13968.32
481.41	14143.86
481.59	14150.88
481.77	14478.55
481.95	14298.33
482.13	14389.61
482.31	14417.70
482.49	14782.82
482.67	14806.23
482.85	14700.90
483.03	15023.90
483.21	15133.90
483.39	15335.19
483.57	15297.74
483.74	15227.53
483.92	15328.17
484.10	15445.20
484.28	15470.94
484.46	15922.66
484.64	16322.90
484.82	15641.80
485.00	16252.68
485.18	16512.48
485.35	16149.70
485.53	16009.26
485.71	16189.49
485.89	16264.38
486.07	16009.26
486.25	16407.16
486.43	16690.36
486.61	16791.00
486.78	16952.50
486.96	17071.87
487.14	17759.98
487.32	17586.79
487.50	17694.45
487.68	17949.57
487.85	18129.79
488.03	18256.18
488.21	18441.08
488.39	18195.32
488.57	18480.87
488.75	18743.01
488.92	18752.37
489.10	19419.42
489.28	19211.12
489.46	19630.07
489.64	19545.81
489.81	19847.74
489.99	19822.00
490.17	19934.34
490.35	20414.15
490.53	20400.11
490.70	20210.53
490.88	20404.79
491.06	20662.25
491.24	20549.90
491.41	20662.25
491.59	20802.68
491.77	20613.10
491.95	20966.52
492.13	21050.78
492.30	21404.20
492.48	21500.16
492.66	21656.98
492.84	21869.97
493.01	21919.12
493.19	21642.93
493.37	21909.75
493.54	21881.67
493.72	22059.55
493.90	22541.70
494.08	22698.52
494.25	22977.04
494.43	23073.00
494.61	23208.75
494.79	23323.44
494.96	23215.77
495.14	23342.16
495.32	23494.30
495.49	23403.02
495.67	23644.09
495.85	23782.18
496.02	23983.47
496.20	24226.89
496.38	24294.76
496.55	24023.26
496.73	24458.60
496.91	24971.18
497.09	24666.91
497.26	24528.81
497.44	25135.01
497.62	25067.14
497.79	25188.85
497.97	25158.42
498.14	25448.64
498.32	25465.03
498.50	25729.51
498.67	25624.18
498.85	25977.61
499.03	25926.11
499.20	26377.84
499.38	26125.06
499.56	26066.55
499.73	26417.63
499.91	25905.05
500.08	26256.13
500.26	26064.21
500.44	26757.00
500.61	26586.15
500.79	26302.94
500.97	26560.40
501.14	26597.85
501.32	26499.55
501.49	26843.60
501.67	27222.77
501.84	27199.37
502.02	27091.70
502.20	27007.44
502.37	27482.57
502.55	27292.99
502.72	27793.86
502.90	27370.22
503.07	27803.22
503.25	28224.52
503.43	27910.89
503.60	27522.36
503.78	27843.01
503.95	28215.16
504.13	28357.93
504.30	28212.82
504.48	28173.03
504.65	28517.09
504.83	28617.73
505.01	28882.21
505.18	28893.91
505.36	29195.84
505.53	29301.17
505.71	29607.78
505.88	29659.27
506.06	29287.12
506.23	29546.92
506.41	29123.29
506.58	29764.59
506.76	29769.27
506.93	29696.72
507.11	29308.19
507.28	29469.69
507.46	29790.34
507.63	29982.26
507.81	29956.52
507.98	29638.20
508.16	30050.14
508.33	30527.61
508.50	30387.18
508.68	30712.51
508.85	30962.95
509.03	30932.52
509.20	30775.70
509.38	30909.11
509.55	30993.37
509.73	31143.17
509.90	31028.48
510.08	31047.21
510.25	31239.13
510.42	31754.05
510.60	31709.58
510.77	31648.72
510.95	31482.55
511.12	31695.53
511.30	31463.82
511.47	31915.54
511.64	32374.29
511.82	32498.34
511.99	31828.95
512.17	32081.72
512.34	32039.59
512.51	32175.34
512.69	32395.35
512.86	32173.00
513.04	32903.25
513.21	32381.31
513.38	32402.38
513.56	32718.35
513.73	32173.00
513.90	32673.88
514.08	32601.32
514.25	33085.81
514.43	33036.66
514.60	33067.09
514.77	32985.17
514.95	33425.19
515.12	33069.43
515.29	33338.59
515.47	33940.11
515.64	33947.13
515.81	33516.47
515.99	33546.90
516.16	33432.21
516.33	33237.95
516.51	33156.03
516.68	33076.45
516.85	32526.42
517.03	33469.66
517.20	33773.93
517.37	33928.41
517.54	34312.25
517.72	33612.43
517.89	33626.48
518.06	33076.45
518.24	33989.26
518.41	33876.91
518.58	34129.69
518.75	33982.24
518.93	34352.04
519.10	34394.17
519.27	34621.20
519.45	34731.21
519.62	34668.02
519.79	35426.35
519.96	35325.71
520.14	35269.53
520.31	35115.06
520.48	35138.46
520.65	35126.76
520.83	35475.50
521.00	35915.52
521.17	35627.63
521.34	35873.39
521.52	35597.21
521.69	35962.33
521.86	35875.73
522.03	36102.76
522.20	35945.95
522.38	36158.94
522.55	36437.46
522.72	36109.78
522.89	36360.22
523.07	36474.91
523.24	36081.70
523.41	36833.01
523.58	36531.08
523.75	37373.67
523.92	36657.47
524.10	36959.40
524.27	36978.12
524.44	36940.68
524.61	37249.63
524.78	36905.57
524.96	37359.63
525.13	37078.77
525.30	37581.98
525.47	37596.03
525.64	37380.70
525.81	37500.06
525.98	37338.57
526.16	37017.91
526.33	36989.83
526.50	37301.12
526.67	36957.06
526.84	37247.29
527.01	36786.20
527.18	37354.95
527.36	37628.79
527.53	37984.55
527.70	38242.01
527.87	37748.16
528.04	38218.61
528.21	38120.31
528.38	38117.96
528.55	38195.20
528.72	38256.06
528.89	38536.92
529.07	38738.21
529.24	38192.86
529.41	38651.61
529.58	38433.94
529.75	38487.77
529.92	38785.02
530.09	38981.62
530.26	39047.16
530.43	38693.74
530.60	38986.30
530.77	39068.22
530.94	39154.82
531.11	39112.69
531.28	39323.34
531.46	39159.50
531.63	38890.34
531.80	39150.14
531.97	38834.17
532.14	38962.90
532.31	38953.54
532.48	38930.13
532.65	39529.31
532.82	38700.76
532.99	39660.38
533.16	39321.00
533.33	39669.74
533.50	39793.79
533.67	39517.60
533.84	39597.18
534.01	39803.15
534.18	39730.59
534.35	40044.23
534.52	39246.10
534.69	40086.36
534.86	40308.71
535.03	39763.36
535.20	40304.02
535.37	40325.09
535.54	40399.99
535.71	39955.29
535.88	40858.73
536.05	40140.19
536.22	40622.34
536.38	40421.05
536.55	40297.00
536.72	40491.27
536.89	39791.45
537.06	40184.66
537.23	40636.38
537.40	40414.03
537.57	40664.47
537.74	40715.96
537.91	41120.87
538.08	40493.61
538.25	40289.98
538.42	41127.89
538.59	40978.10
538.75	40921.93
538.92	41448.55
539.09	41003.85
539.26	41113.85
539.43	40809.58
539.60	41181.73
539.77	40814.26
539.94	40788.52
540.11	41024.91
540.28	41429.82
540.44	41436.84
540.61	41177.04
540.78	40814.26
540.95	41270.67
541.12	41041.29
541.29	41338.54
541.46	41614.72
541.62	41509.40
541.79	41738.77
541.96	41333.86
542.13	41507.06
542.30	41832.39
542.47	41523.44
542.63	41565.57
542.80	41804.31
542.97	42197.52
543.14	42263.05
543.31	42033.68
543.48	42029.00
543.64	42916.06
543.81	42593.07
543.98	42309.86
544.15	42064.11
544.32	42447.96
544.48	42698.39
544.65	42553.28
544.82	42712.44
544.99	42061.77
545.16	42710.10
545.32	42050.06
545.49	42628.18
545.66	42983.94
545.83	42808.40
546.00	42897.34
546.16	42967.55
546.33	42801.38
546.50	42433.91
546.67	42672.65
546.83	42394.12
547.00	42890.32
547.17	43246.08
547.34	42705.41
547.50	42906.70
547.67	43236.72
547.84	43337.36
548.00	43295.23
548.17	43381.83
548.34	43304.59
548.51	43702.48
548.67	43531.62
548.84	43241.40
549.01	43288.21
549.18	43175.86
549.34	43438.00
549.51	43140.75
549.68	43283.53
549.84	43615.88
550.01	43835.89
550.18	43283.53
550.34	43278.85
550.51	43655.67
550.68	44158.89
550.84	42752.23
551.01	43508.22
551.18	43606.52
551.34	43576.09
551.51	44053.56
551.68	44013.77
551.84	43580.78
552.01	43746.95
552.18	43786.74
552.34	43529.28
552.51	44119.10
552.68	43648.65
552.84	44076.97
553.01	44067.61
553.18	43625.25
553.34	44191.65
553.51	43856.96
553.67	44198.68
553.84	44477.20
554.01	44254.85
554.17	44421.03
554.34	44374.22
554.51	44502.95
554.67	44406.98
554.84	44559.12
555.00	43901.43
555.17	44399.96
555.33	44011.43
555.50	44470.18
555.67	44381.24
555.83	44406.98
556.00	44610.61
556.16	44561.46
556.33	44577.84
556.50	44198.68
556.66	44296.98
556.83	43964.62
556.99	44722.96
557.16	44638.70
557.32	44196.34
557.49	44762.75
557.65	44147.18
557.82	44371.88
557.98	44912.54
558.15	44769.77
558.32	44849.35
558.48	44421.03
558.65	44561.46
558.81	44605.93
558.98	44339.11
559.14	44720.62
559.31	44914.88
559.47	45198.09
559.64	44872.75
559.80	44992.12
559.97	44992.12
560.13	44491.24
560.30	44713.59
560.46	45162.98
560.63	45036.59
560.79	45034.25
560.96	45497.67
561.12	44957.01
561.29	44680.83
561.45	44858.71
561.61	44942.97
561.78	44610.61
561.94	45102.12
562.11	45170.00
562.27	45071.70
562.44	45284.68
562.60	44847.00
562.77	45605.34
562.93	45490.65
563.10	45390.01
563.26	44964.03
563.42	45221.49
563.59	45113.83
563.75	45305.75
563.92	45364.26
564.08	45359.58
564.24	45483.63
564.41	44947.65
564.57	45261.28
564.74	45394.69
564.90	45212.13
565.07	45034.25
565.23	45333.84
565.39	45666.19
565.56	45420.44
565.72	45184.04
565.88	45242.56
566.05	45219.15
566.21	45216.81
566.38	45172.34
566.54	45553.85
566.70	45485.97
566.87	45961.10
567.03	45354.90
567.19	45673.21
567.36	45361.92
567.52	45991.53
567.68	46326.22
567.85	45193.40
568.01	45610.02
568.17	45366.60
568.34	45872.16
568.50	45179.36
568.66	45425.12
568.83	45432.14
568.99	45394.69
569.15	45368.94
569.32	45635.77
569.48	45380.65
569.64	45853.44
569.81	45560.87
569.97	45598.32
570.13	45439.16
570.30	45275.32
570.46	45137.23
570.62	44814.24
570.78	45322.13
570.95	44919.56
571.11	45425.12
571.27	45371.28
571.43	45013.18
571.60	45668.53
571.76	44931.26
571.92	45647.47
572.09	45617.04
572.25	45605.34
572.41	45404.05
572.57	45720.02
572.74	45801.94
572.90	45483.63
573.06	45404.05
573.22	45649.81
573.38	45801.94
573.55	45003.82
573.71	45862.80
573.87	45457.88
574.03	45240.21
574.20	45495.33
574.36	45404.05
574.52	45570.23
574.68	45610.02
574.84	45827.69
575.01	45918.97
575.17	45382.99
575.33	45336.18
575.49	45228.51
575.65	45563.21
575.82	45673.21
575.98	45610.02
576.14	45762.15
576.30	45481.29
576.46	45359.58
576.62	45497.67
576.79	45333.84
576.95	45624.06
577.11	45890.88
577.27	45514.06
577.43	45523.42
577.59	45429.80
577.75	45406.39
577.92	45298.73
578.08	45064.67
578.24	45198.09
578.40	45378.31
578.56	45588.95
578.72	45455.54
578.88	45986.85
579.04	46007.91
579.21	45296.39
579.37	45682.58
579.53	45972.80
579.69	45448.52
579.85	45911.95
580.01	45703.64
580.17	45801.94
580.33	46085.15
580.49	45841.73
580.65	45799.60
580.82	45567.89
580.98	45457.88
581.14	45338.52
581.30	45930.67
581.46	45647.47
581.62	45872.16
581.78	45848.75
581.94	45853.44
582.10	45935.35
582.26	45408.73
582.42	45682.58
582.58	46057.06
582.74	45507.04
582.90	45193.40
583.06	45979.82
583.22	45825.35
583.38	45867.48
583.54	45848.75
583.70	46057.06
583.86	45600.66
584.02	45521.08
584.18	45914.29
584.34	45647.47
584.50	45710.66
584.66	45713.00
584.82	45446.18
584.98	45762.15
585.14	45933.01
585.30	45675.55
585.46	45467.25
585.62	45694.28
585.78	45544.48
585.94	45462.57
586.10	45514.06
586.26	45684.92
586.42	46391.76
586.58	45853.44
586.74	45633.42
586.90	45586.61
587.06	45818.33
587.22	45514.06
587.38	45600.66
587.54	45666.19
587.70	46183.45
587.86	45586.61
588.02	45738.75
588.18	45612.36
588.34	45705.98
588.49	44741.68
588.65	45441.50
588.81	44999.14
588.97	45303.41
589.13	45270.64
589.29	45272.98
589.45	45572.57
589.61	45705.98
589.77	45986.85
589.93	45766.84
590.08	45839.39
590.24	45837.05
590.40	45984.51
590.56	46117.92
590.72	45565.55
590.88	45483.63
591.04	46183.45
591.20	45925.99
591.35	46155.36
591.51	45942.38
591.67	45752.79
591.83	46171.75
591.99	45776.20
592.15	45958.76
592.31	46190.47
592.46	46155.36
592.62	45900.25
592.78	45722.37
592.94	46108.55
593.10	45825.35
593.26	46450.27
593.41	45848.75
593.57	45581.93
593.73	45762.15
593.89	46155.36
594.05	45848.75
594.20	46005.57
594.36	46122.60
594.52	45853.44
594.68	45921.31
594.84	45682.58
594.99	46136.64
595.15	46071.10
595.31	45907.27
595.47	46080.47
595.62	45841.73
595.78	46209.20
595.94	46117.92
596.10	46223.24
596.25	45944.72
596.41	45869.82
596.57	46036.00
596.73	45631.08
596.88	45544.48
597.04	45862.80
597.20	45682.58
597.36	45958.76
597.51	46387.08
597.67	45701.30
597.83	46143.66
597.99	46031.32
598.14	45801.94
598.30	46103.87
598.46	45855.78
598.61	46127.28
598.77	45923.65
598.93	46136.64
599.09	45621.72
599.24	46197.49
599.40	46138.98
599.56	45935.35
599.71	45890.88
599.87	46033.66
600.03	46452.61
600.18	45808.96
600.34	45890.88
600.50	45687.26
600.65	45696.62
600.81	46024.29
600.97	46333.24
601.12	45954.08
601.28	45841.73
601.44	45647.47
601.59	46286.43
601.75	45521.08
601.91	45680.24
602.06	46045.36
602.22	46267.71
602.37	45792.58
602.53	45853.44
602.69	46375.37
602.84	45925.99
603.00	46026.63
603.16	45713.00
603.31	45436.82
603.47	46127.28
603.62	45689.60
603.78	46377.72
603.94	46000.89
604.09	45947.06
604.25	45633.42
604.40	46052.38
604.56	45736.41
604.71	45916.63
604.87	45797.26
605.03	45865.14
605.18	45514.06
605.34	46101.53
605.49	45436.82
605.65	45574.91
605.80	45495.33
605.96	45968.12
606.12	45366.60
606.27	46408.14
606.43	45525.76
606.58	45783.22
606.74	45862.80
606.89	45766.84
607.05	45792.58
607.20	45654.49
607.36	45532.78
607.51	45888.54
607.67	45787.90
607.82	45270.64
607.98	45610.02
608.13	45565.55
608.29	45588.95
608.44	45375.97
608.60	45191.06
608.75	45621.72
608.91	45188.72
609.06	45490.65
609.22	45429.80
609.37	45436.82
609.53	45008.50
609.68	45640.45
609.84	45162.98
609.99	45338.52
610.15	45071.70
610.30	45317.45
610.46	44989.78
610.61	44985.10
610.76	45518.74
610.92	45132.55
611.07	45343.20
611.23	45170.00
611.38	45184.04
611.54	45184.04
611.69	45076.38
611.84	44879.77
612.00	44898.50
612.15	45102.12
612.31	45668.53
612.46	44832.96
612.62	45469.59
612.77	45429.80
612.92	45020.20
613.08	44835.30
613.23	44594.23
613.39	44931.26
613.54	44734.66
613.69	44879.77
613.85	44615.29
614.00	44779.13
614.15	44814.24
614.31	44685.51
614.46	45195.74
614.62	45432.14
614.77	44762.75
614.92	45118.51
615.08	44772.11
615.23	44720.62
615.38	44924.24
615.54	44671.46
615.69	44519.33
615.84	44114.42
616.00	44769.77
616.15	44858.71
616.30	44563.80
616.46	44320.38
616.61	44406.98
616.76	44715.93
616.92	43796.10
617.07	44095.69
617.22	44348.47
617.37	44273.57
617.53	44493.58
617.68	44325.07
617.83	44128.46
617.99	44313.36
618.14	44161.23
618.29	43978.67
618.45	44058.24
618.60	44266.55
618.75	43899.09
618.90	43323.32
619.06	43943.56
619.21	43878.02
619.36	44304.00
619.51	43938.88
619.67	43491.83
619.82	43627.59
619.97	43828.87
620.12	43276.51
620.28	43152.46
620.43	43690.78
620.58	43784.40
620.73	43442.68
620.89	43634.61
621.04	43966.96
621.19	43751.63
621.34	43622.90
621.49	43793.76
621.65	43466.09
621.80	43985.69
621.95	43402.89
622.10	43597.16
622.25	43517.58
622.41	43540.99
622.56	43225.01
622.71	43646.31
622.86	42885.64
623.01	43281.19
623.16	43227.35
623.32	43267.14
623.47	43145.44
623.62	43405.23
623.77	43077.56
623.92	43421.62
624.07	43058.84
624.23	42712.44
624.38	43107.99
624.53	43255.44
624.68	43098.62
624.83	43482.47
624.98	43091.60
625.13	42946.49
625.29	43129.05
625.44	42878.61
625.59	43084.58
625.74	42656.26
625.89	42829.46
626.04	42576.69
626.19	42588.39
626.34	42717.12
626.49	42857.55
626.65	42394.12
626.80	42628.18
626.95	42635.20
627.10	42092.19
627.25	42656.26
627.40	42258.37
627.55	42181.13
627.70	41940.06
627.85	42415.19
628.00	41818.35
628.15	42169.43
628.30	42115.60
628.45	42504.13
628.60	42494.77
628.76	42302.84
628.91	41701.32
629.06	42031.34
629.21	42249.01
629.36	42124.96
629.51	41619.41
629.66	41818.35
629.81	41670.90
629.96	41794.95
630.11	42314.55
630.26	42150.71
630.41	41879.21
630.56	41675.58
630.71	42183.48
630.86	42031.34
631.01	41808.99
631.16	41893.25
631.31	41780.90
631.46	41394.71
631.61	41532.81
631.76	41551.53
631.91	41713.03
632.06	41710.69
632.21	41687.28
632.36	41727.07
632.51	41329.18
632.66	41619.41
632.81	41333.86
632.96	41523.44
633.10	41390.03
633.25	41734.09
633.40	41324.50
633.55	41773.88
633.70	41888.57
633.85	41523.44
634.00	41432.16
634.15	41116.19
634.30	41298.75
634.45	41024.91
634.60	41127.89
634.75	41404.08
634.90	41099.81
635.05	41209.81
635.19	41074.06
635.34	41500.04
635.49	41090.44
635.64	41280.03
635.79	41137.26
635.94	40545.10
636.09	40992.14
636.24	40601.27
636.39	40439.78
636.53	40631.70
636.68	40371.90
636.83	41022.57
636.98	40851.71
637.13	40367.22
637.28	41153.64
637.43	40961.72
637.57	40830.65
637.72	40765.11
637.87	40582.55
638.02	40488.93
638.17	40708.94
638.32	40659.79
638.46	40472.54
638.61	40514.67
638.76	40704.26
638.91	40369.56
639.06	40472.54
639.20	40334.45
639.35	40987.46
639.50	40580.21
639.65	40708.94
639.80	39934.22
639.94	39999.76
640.09	40374.24
640.24	40140.19
640.39	40109.76
640.54	40067.63
640.68	40172.96
640.83	40091.04
640.98	39725.91
641.13	39662.72
641.27	40346.15
641.42	39819.53
641.57	39758.68
641.72	39845.28
641.86	39927.20
642.01	39676.76
642.16	39842.94
642.31	39697.83
642.45	39838.26
642.60	39281.21
642.75	39906.13
642.90	39861.66
643.04	39885.07
643.19	40025.50
643.34	39667.40
643.48	39442.71
643.63	39487.18
643.78	39473.13
643.93	39634.63
644.07	39232.06
644.22	39187.59
644.37	39229.72
644.51	39344.41
644.66	39278.87
644.81	39220.36
644.95	39292.91
645.10	39248.44
645.25	39292.91
645.39	39145.46
645.54	39208.65
645.69	39515.26
645.83	38934.81
645.98	39047.16
646.13	39152.48
646.27	39007.37
646.42	38756.93
646.57	39145.46
646.71	38930.13
646.86	38955.88
647.00	38913.75
647.15	38878.64
647.30	39227.38
647.44	39215.68
647.59	38920.77
647.74	38457.34
647.88	38457.34
648.03	38494.79
648.17	38890.34
648.32	38419.89
648.47	38752.25
648.61	38515.86
648.76	38813.10
648.90	38560.33
649.05	38923.11
649.20	38955.88
649.34	38438.62
649.49	38066.47
649.63	38520.54
649.78	38457.34
649.92	38277.12
650.07	39028.43
650.21	38323.93
650.36	38363.72
650.51	38103.92
650.65	38822.47
650.80	38768.63
650.94	38300.53
651.09	38380.10
651.23	38117.96
651.38	37642.84
651.52	38209.25
651.67	37900.29
651.81	37738.80
651.96	37816.04
652.10	38059.45
652.25	38288.82
652.39	38178.82
652.54	38101.58
652.68	38122.65
652.83	38253.72
652.97	38518.20
653.12	38136.69
653.26	37558.58
653.41	37762.20
653.55	37916.68
653.70	38192.86
653.84	37762.20
653.99	37600.71
654.13	37525.81
654.27	37504.74
654.42	37619.43
654.56	37600.71
654.71	37825.40
654.85	37841.78
655.00	37577.30
655.14	37790.29
655.29	36992.17
655.43	37483.68
655.57	37308.14
655.72	36971.10
655.86	36847.05
656.01	36659.81
656.15	36430.44
656.30	36610.66
656.44	36947.70
656.58	37069.40
656.73	37125.58
656.87	36748.75
657.01	36926.63
657.16	36783.86
657.30	36603.64
657.45	36524.06
657.59	36938.33
657.73	36840.03
657.88	36917.27
658.02	37092.81
658.16	36718.32
658.31	36746.41
658.45	37069.40
658.60	36966.42
658.74	36816.63
658.88	36622.36
659.03	36601.30
659.17	36369.58
659.31	36615.34
659.46	35997.44
659.60	36723.01
659.74	36505.34
659.89	36404.69
660.03	36322.77
660.17	36187.02
660.32	36290.01
660.46	36594.28
660.60	36187.02
660.74	36266.60
660.89	36105.10
661.03	36039.57
661.17	35812.54
661.32	35988.08
661.46	36381.29
661.60	35477.84
661.74	35400.60
661.89	35819.56
662.03	35892.12
662.17	35555.08
662.31	36041.91
662.46	36453.84
662.60	35934.24
662.74	35943.61
662.88	35489.54
663.03	35215.70
663.17	35309.32
663.31	35012.07
663.45	35267.19
663.60	34960.58
663.74	35063.57
663.88	34724.19
664.02	34883.34
664.17	34981.65
664.31	34586.10
664.45	34792.06
664.59	34672.70
664.73	35054.20
664.88	34731.21
665.02	34431.62
665.16	34359.06
665.30	34494.82
665.44	34197.57
665.59	34429.28
665.73	34501.84
665.87	34419.92
666.01	34225.65
666.15	34356.72
666.29	34452.69
666.44	34415.24
666.58	33914.36
666.72	34160.12
666.86	34120.33
667.00	34188.21
667.14	34064.16
667.28	33914.36
667.43	33954.15
667.57	34129.69
667.71	33642.86
667.85	34099.26
667.99	33895.64
668.13	34220.97
668.27	33603.07
668.41	33956.49
668.56	33390.08
668.70	33495.41
668.84	32966.45
668.98	33406.47
669.12	33160.71
669.26	33099.86
669.40	33209.86
669.54	33111.56
669.68	32519.40
669.82	32718.35
669.96	32917.29
670.10	33153.69
670.25	32992.19
670.39	32456.21
670.53	32781.54
670.67	32144.92
670.81	32547.49
670.95	32388.33
671.09	32414.08
671.23	32325.14
671.37	32165.98
671.51	32343.86
671.65	32154.28
671.79	32098.11
671.93	31618.30
672.07	31779.79
672.21	31662.77
672.35	31449.78
672.49	31651.06
672.63	31620.64
672.77	31475.52
672.91	31873.42
673.05	31428.71
673.19	31814.90
673.33	31168.91
673.47	31248.49
673.61	31026.14
673.75	30916.14
673.89	30747.62
674.03	31189.98
674.17	31175.94
674.31	30902.09
674.45	30923.16
674.59	30700.81
674.73	30766.34
674.87	30927.84
675.01	30663.36
675.15	30852.94
675.29	30506.54
675.43	30429.30
675.56	30611.87
675.70	30574.42
675.84	30333.34
675.98	29427.56
676.12	30340.36
676.26	30551.01
676.40	30487.82
676.54	29933.11
676.68	30347.39
676.82	29010.94
676.96	29677.99
677.10	29734.17
677.23	29556.28
677.37	29642.88
677.51	29399.47
677.65	28964.13
677.79	28559.22
677.93	28879.87
678.07	28620.07
678.21	28147.28
678.34	28435.17
678.48	28582.62
678.62	28215.16
678.76	28156.64
678.90	27999.83
679.04	28051.32
679.18	28481.98
679.31	27641.73
679.45	27697.90
679.59	27754.07
679.73	28053.66
679.87	27814.93
680.00	27786.84
680.14	27625.34
680.28	27618.32
680.42	27133.83
680.56	27290.65
680.70	27140.85
680.83	27152.55
680.97	27328.10
681.11	27049.57
681.25	26892.76
681.39	26693.81
681.52	26955.95
681.66	26476.14
681.80	26541.68
681.94	26766.37
682.07	26370.82
682.21	26167.19
682.35	26178.89
682.49	25937.82
682.62	25956.54
682.76	26307.62
682.90	25984.63
683.04	25764.62
683.17	25717.81
683.31	25647.59
683.45	25724.83
683.59	25216.93
683.72	25392.47
683.86	25142.03
684.00	25156.08
684.13	24837.76
684.27	24470.30
684.41	24872.87
684.55	24893.94
684.68	24910.32
684.82	24662.22
684.96	24615.41
685.09	24575.62
685.23	24170.71
685.37	24446.90
685.50	24004.53
685.64	24348.59
685.78	24130.92
685.91	23791.55
686.05	24320.51
686.19	23454.51
686.32	23388.97
686.46	23580.90
686.60	23218.11
686.73	23164.28
686.87	23171.30
687.01	23136.20
687.14	22644.68
687.28	22754.69
687.42	22721.92
687.55	22794.48
687.69	22927.89
687.82	22799.16
687.96	22696.17
688.10	22661.07
688.23	22401.27
688.37	22525.32
688.50	22546.38
688.64	22398.93
688.78	22068.91
688.91	21572.72
689.05	22012.74
689.18	21848.90
689.32	21717.83
689.46	21837.20
689.59	21633.57
689.73	21673.36
689.86	21355.05
690.00	21074.18
690.13	21144.40
690.27	21172.49
690.41	21010.99
690.54	21128.02
690.68	21280.15
690.81	21160.78
690.95	20807.36
691.08	20664.59
691.22	20709.06
691.35	20636.50
691.49	20875.24
691.62	20690.34
691.76	20453.94
691.89	20189.46
692.03	20449.26
692.16	20505.43
692.30	20205.84
692.43	20114.56
692.57	20276.06
692.70	19784.55
692.84	19538.79
692.97	19641.78
693.11	19468.58
693.24	19583.26
693.38	19346.87
693.51	19391.34
693.65	19517.73
693.78	19363.25
693.92	19183.03
694.05	19161.97
694.19	19171.33
694.32	19248.57
694.45	19208.78
694.59	18920.89
694.72	18958.34
694.86	18714.92
694.99	18878.76
695.13	18548.75
695.26	18677.48
695.39	18310.01
695.53	18773.44
695.66	18340.44
695.80	18415.34
695.93	18073.62
696.07	18200.01
696.20	18256.18
696.33	18228.09
696.47	18022.12
696.60	17750.62
696.73	17696.79
696.87	17734.24
697.00	17509.55
697.14	17544.66
697.27	17018.04
697.40	17284.86
697.54	17387.84
697.67	17224.00
697.80	17326.99
697.94	16989.95
698.07	16901.01
698.21	17128.04
698.34	17156.13
698.47	16760.58
698.61	16507.80
698.74	16669.30
698.87	16528.86
699.01	16542.91
699.14	16224.59
699.27	16051.39
699.40	16198.85
699.54	15964.79
699.67	15906.28
699.80	15927.35
699.94	15880.53
700.07	16086.50
700.20	15995.22
700.34	15602.01
700.47	15587.97
700.60	15658.18
700.73	15470.94
700.87	15627.76
701.00	15332.85
701.13	15332.85
701.26	15328.17
701.40	15246.25
701.53	15194.76
701.66	15166.67
701.79	14714.95
701.93	14925.60
702.06	14801.55
702.19	14869.42
702.32	14721.97
702.46	14565.15
702.59	14693.88
702.72	14621.33
702.85	14600.26
702.99	14389.61
703.12	14422.38
703.25	14200.03
703.38	14422.38
703.51	14298.33
703.65	13865.33
703.78	13790.44
703.91	13837.25
704.04	13855.97
704.17	13884.06
704.31	13678.09
704.44	13626.60
704.57	13642.98
704.70	13525.96
704.83	13364.46
704.96	13238.07
705.10	13280.20
705.23	13247.43
>>>>>End Processed Spectral Data<<<<<
