SpectraSuite Data File
++++++++++++++++++++++++++++++++++++
Date: Fri Oct 25 11:33:09 EDT 2013
User: price-jones
Dark Spectrum Present: No
Reference Spectrum Present: No
Number of Sampled Component Spectra: 1
Spectrometers: USB2+H05261
Integration Time (usec): 100000 (USB2+H05261)
Spectra Averaged: 1 (USB2+H05261)
Boxcar Smoothing: 0 (USB2+H05261)
Correct for Electrical Dark: No (USB2+H05261)
Strobe/Lamp Enabled: No (USB2+H05261)
Correct for Detector Non-linearity: No (USB2+H05261)
Correct for Stray Light: No (USB2+H05261)
Number of Pixels in Processed Spectrum: 2048
>>>>>Begin Processed Spectral Data<<<<<
365.73	241.08
365.92	241.08
366.12	241.08
366.32	229.37
366.52	236.39
366.72	149.79
366.91	140.43
367.11	152.13
367.31	177.88
367.51	173.20
367.70	91.28
367.90	189.58
368.10	182.56
368.30	182.56
368.49	166.18
368.69	112.35
368.89	273.84
369.09	208.31
369.28	224.69
369.48	177.88
369.68	299.59
369.87	264.48
370.07	264.48
370.27	299.59
370.47	327.68
370.66	442.36
370.86	507.90
371.06	517.26
371.25	559.39
371.45	564.07
371.65	505.56
371.84	524.28
372.04	470.45
372.24	645.99
372.44	533.64
372.63	564.07
372.83	589.82
373.03	594.50
373.22	566.41
373.42	699.82
373.62	660.03
373.81	617.90
374.01	678.76
374.21	627.26
374.40	580.45
374.60	631.94
374.79	746.63
374.99	578.11
375.19	655.35
375.38	610.88
375.58	615.56
375.78	617.90
375.97	643.65
376.17	702.16
376.37	664.71
376.56	678.76
376.76	636.63
376.95	610.88
377.15	671.73
377.35	669.39
377.54	688.12
377.74	706.84
377.93	662.37
378.13	779.40
378.33	664.71
378.52	699.82
378.72	723.23
378.91	711.52
379.11	634.29
379.31	678.76
379.50	681.10
379.70	713.86
379.89	732.59
380.09	655.35
380.28	744.29
380.48	730.25
380.68	751.31
380.87	645.99
381.07	741.95
381.26	823.87
381.46	840.25
381.65	819.19
381.85	723.23
382.04	788.76
382.24	737.27
382.43	741.95
382.63	734.93
382.83	730.25
383.02	805.14
383.22	840.25
383.41	765.36
383.61	807.48
383.80	861.32
384.00	849.61
384.19	894.08
384.39	861.32
384.58	873.02
384.78	875.36
384.97	851.96
385.17	854.30
385.36	861.32
385.56	793.44
385.75	809.83
385.95	788.76
386.14	884.72
386.34	863.66
386.53	929.19
386.72	795.78
386.92	851.96
387.11	840.25
387.31	908.13
387.50	849.61
387.70	870.68
387.89	943.24
388.09	901.11
388.28	863.66
388.48	929.19
388.67	877.70
388.86	833.23
389.06	905.79
389.25	903.45
389.45	926.85
389.64	933.87
389.84	985.37
390.03	1001.75
390.22	1039.20
390.42	947.92
390.61	976.00
390.81	938.55
391.00	950.26
391.19	978.34
391.39	990.05
391.58	997.07
391.78	1060.26
391.97	1015.79
392.16	966.64
392.36	1088.35
392.55	1074.31
392.75	1064.94
392.94	1004.09
393.13	1006.43
393.33	1041.54
393.52	1069.62
393.71	1048.56
393.91	1083.67
394.10	1130.48
394.29	1121.12
394.49	1008.77
394.68	1055.58
394.88	1163.25
395.07	1144.52
395.26	1116.44
395.46	1235.80
395.65	1149.20
395.84	1172.61
396.04	1348.15
396.23	1132.82
396.42	1245.16
396.62	1247.51
396.81	1163.25
397.00	1200.69
397.19	1240.48
397.39	1261.55
397.58	1291.98
397.77	1235.80
397.97	1303.68
398.16	1338.79
398.35	1331.76
398.55	1306.02
398.74	1294.32
398.93	1460.49
399.12	1261.55
399.32	1322.40
399.51	1261.55
399.70	1341.13
399.90	1376.24
400.09	1291.98
400.28	1364.53
400.47	1387.94
400.67	1371.55
400.86	1465.18
401.05	1453.47
401.24	1462.83
401.44	1371.55
401.63	1493.26
401.82	1490.92
402.01	1460.49
402.21	1416.02
402.40	1584.54
402.59	1514.33
402.78	1474.54
402.97	1544.75
403.17	1596.25
403.36	1619.65
403.55	1535.39
403.74	1638.38
403.93	1575.18
404.13	1577.52
404.32	1603.27
404.51	1614.97
404.70	1673.48
404.89	1586.88
405.09	1699.23
405.28	1638.38
405.47	1645.40
405.66	1710.93
405.85	1699.23
406.05	1717.95
406.24	1732.00
406.43	1804.55
406.62	1813.92
406.81	1813.92
407.00	1743.70
407.20	1881.79
407.39	1776.47
407.58	1811.57
407.77	1781.15
407.96	1863.07
408.15	1860.73
408.34	1879.45
408.54	1895.83
408.73	1952.01
408.92	1881.79
409.11	1959.03
409.30	1905.20
409.49	2071.37
409.68	1982.43
409.87	2045.63
410.07	2080.74
410.26	2120.53
410.45	2019.88
410.64	2087.76
410.83	2200.10
411.02	2043.29
411.21	2120.53
411.40	2193.08
411.59	2204.78
411.78	2256.28
411.98	2183.72
412.17	2209.47
412.36	2319.47
412.55	2275.00
412.74	2420.11
412.93	2387.35
413.12	2417.77
413.31	2431.82
413.50	2469.27
413.69	2466.92
413.88	2530.12
414.07	2485.65
414.26	2504.37
414.45	2471.61
414.64	2555.86
414.83	2619.06
415.02	2466.92
415.22	2633.10
415.41	2789.92
415.60	2731.41
415.79	2705.66
415.98	2745.45
416.17	2708.00
416.36	2787.58
416.55	2822.69
416.74	2825.03
416.93	2913.97
417.12	2743.11
417.31	2916.31
417.50	2951.42
417.69	2920.99
417.88	3007.59
418.07	2890.56
418.26	2911.63
418.45	2928.01
418.64	3178.45
418.83	3096.53
419.02	3166.74
419.21	3155.04
419.39	3164.40
419.58	3080.14
419.77	3014.61
419.96	3129.30
420.15	3117.59
420.34	3143.34
420.53	3236.96
420.72	3094.19
420.91	3269.73
421.10	3382.07
421.29	3246.32
421.48	3225.26
421.67	3379.73
421.86	3346.97
422.05	3353.99
422.24	3386.76
422.43	3473.36
422.61	3335.26
422.80	3398.46
422.99	3391.44
423.18	3382.07
423.37	3559.95
423.56	3398.46
423.75	3541.23
423.94	3206.53
424.13	3192.49
424.32	3332.92
424.50	3365.69
424.69	3578.68
424.88	3496.76
425.07	3478.04
425.26	3379.73
425.45	3475.70
425.64	3386.76
425.83	3447.61
426.01	3456.97
426.20	3531.87
426.39	3445.27
426.58	3641.87
426.77	3564.64
426.96	3684.00
427.15	3625.49
427.33	3667.62
427.52	3597.40
427.71	3723.79
427.90	3550.59
428.09	3660.60
428.28	3665.28
428.46	3688.68
428.65	3679.32
428.84	3822.09
429.03	3885.29
429.22	3674.64
429.40	3796.35
429.59	3822.09
429.78	3681.66
429.97	3712.09
430.16	3728.47
430.34	3838.48
430.53	3857.20
430.72	3936.78
430.91	3939.12
431.10	3882.95
431.28	3964.87
431.47	4016.36
431.66	4032.74
431.85	3896.99
432.03	4021.04
432.22	4231.69
432.41	4051.47
432.60	3932.10
432.79	4074.87
432.97	4238.71
433.16	4215.30
433.35	4035.08
433.54	4124.02
433.72	4280.84
433.91	4112.32
434.10	4306.59
434.28	4210.62
434.47	4191.90
434.66	4280.84
434.85	4280.84
435.03	4344.03
435.22	4372.12
435.41	4322.97
435.59	4585.11
435.78	4402.55
435.97	4425.95
436.16	4437.66
436.34	4341.69
436.53	4486.81
436.72	4676.39
436.90	4327.65
437.09	4652.98
437.28	4444.68
437.46	4613.20
437.65	4442.34
437.84	4711.50
438.02	4753.63
438.21	4772.35
438.40	4493.83
438.58	4842.57
438.77	4856.61
438.96	4842.57
439.14	4833.21
439.33	4873.00
439.52	5071.94
439.70	4954.91
439.89	4945.55
440.08	4987.68
440.26	5128.11
440.45	5006.41
440.63	5153.86
440.82	5114.07
441.01	5041.51
441.19	5298.97
441.38	5352.81
441.57	5376.21
441.75	5362.17
441.94	5432.38
442.12	5399.62
442.31	5413.66
442.50	5322.38
442.68	5458.13
442.87	5465.15
443.05	5488.56
443.24	5549.41
443.43	5465.15
443.61	5586.86
443.80	5652.39
443.98	5425.36
444.17	5411.32
444.35	5668.78
444.54	5769.42
444.73	5792.83
444.91	5792.83
445.10	5619.63
445.28	5654.73
445.47	5788.14
445.65	5860.70
445.84	5729.63
446.02	5893.47
446.21	5682.82
446.39	5764.74
446.58	5769.42
446.77	5926.24
446.95	5755.38
447.14	5631.33
447.32	5708.57
447.51	5636.01
447.69	5804.53
447.88	5830.27
448.06	5860.70
448.25	5774.10
448.43	5975.39
448.62	5947.30
448.80	5825.59
448.99	5928.58
449.17	5935.60
449.36	5863.04
449.54	6078.37
449.73	6230.51
449.91	6097.10
450.10	6040.92
450.28	6300.72
450.46	6223.48
450.65	6382.64
450.83	6146.25
451.02	6167.31
451.20	6335.83
451.39	6183.70
451.57	6218.80
451.76	6120.50
451.94	6129.86
452.13	6401.37
452.31	6392.00
452.49	6139.23
452.68	6335.83
452.86	6338.17
453.05	6417.75
453.23	6504.35
453.42	6263.27
453.60	6396.68
453.78	6487.96
453.97	6380.30
454.15	6492.65
454.34	6459.88
454.52	6710.32
454.70	6436.47
454.89	6499.67
455.07	6649.46
455.26	6832.02
455.44	6829.68
455.62	6621.38
455.81	6710.32
455.99	6867.13
456.17	6878.83
456.36	6899.90
456.54	6923.30
456.73	7007.56
456.91	7042.67
457.09	7052.03
457.28	7124.59
457.46	7192.47
457.64	7283.75
457.83	7068.42
458.01	7063.74
458.19	7288.43
458.38	7194.81
458.56	7262.68
458.74	7211.19
458.93	7414.82
459.11	7353.96
459.29	7183.10
459.48	7286.09
459.66	7332.90
459.84	7440.56
460.03	7597.38
460.21	7492.05
460.39	7426.52
460.57	7384.39
460.76	7428.86
460.94	7543.55
461.12	7438.22
461.31	7454.61
461.49	7581.00
461.67	7440.56
461.85	7782.28
462.04	7641.85
462.22	8093.57
462.40	7812.71
462.59	7742.49
462.77	7702.70
462.95	7829.09
463.13	7712.07
463.32	7751.85
463.50	7967.18
463.68	8009.31
463.86	7903.99
464.05	7798.66
464.23	7871.22
464.41	8018.68
464.59	7864.20
464.78	8203.58
464.96	8051.44
465.14	7981.23
465.32	8175.49
465.50	8079.53
465.69	8201.24
465.87	8149.75
466.05	8126.34
466.23	8255.07
466.41	8245.71
466.60	8559.34
466.78	8226.98
466.96	8219.96
467.14	8262.09
467.32	8355.71
467.51	8491.46
467.69	8198.90
467.87	8257.41
468.05	8451.67
468.23	8358.05
468.41	8503.17
468.60	8468.06
468.78	8690.41
468.96	8535.93
469.14	8667.00
469.32	8706.79
469.50	8372.10
469.69	8779.35
469.87	8777.01
470.05	8753.60
470.23	8716.16
470.41	8879.99
470.59	9050.85
470.77	8917.44
470.95	8891.70
471.14	9092.98
471.32	8926.80
471.50	9247.46
471.68	9149.15
471.86	9256.82
472.04	9179.58
472.22	9481.51
472.40	9411.29
472.58	9291.93
472.77	9418.32
472.95	9399.59
473.13	9535.34
473.31	9533.00
473.49	9556.41
473.67	9514.28
473.85	9600.88
474.03	9701.52
474.21	9734.29
474.39	9872.38
474.57	9811.53
474.75	9966.00
474.93	10118.14
475.12	9823.23
475.30	9994.09
475.48	10059.62
475.66	10216.44
475.84	10092.39
476.02	10207.08
476.20	10279.63
476.38	10424.75
476.56	10441.13
476.74	10724.33
476.92	10572.20
477.10	10640.08
477.28	10696.25
477.46	10600.29
477.64	10640.08
477.82	10972.43
478.00	11349.26
478.18	11225.21
478.36	11506.07
478.54	11466.28
478.72	11524.80
478.90	11751.83
479.08	11552.88
479.26	11681.61
479.44	11857.15
479.62	11796.30
479.80	11955.46
479.98	11838.43
480.16	12149.72
480.34	12091.21
480.52	12414.20
480.70	12400.16
480.88	12173.13
481.06	12517.18
481.24	12479.74
481.41	12432.93
481.59	12875.29
481.77	12830.82
481.95	12943.16
482.13	13195.94
482.31	12922.10
482.49	13516.59
482.67	13373.82
482.85	13729.58
483.03	13542.34
483.21	13745.97
483.39	13933.21
483.57	13734.26
483.74	14075.98
483.92	14204.71
484.10	14469.19
484.28	14464.51
484.46	14668.14
484.64	14754.74
484.82	14551.11
485.00	14789.85
485.18	14799.21
485.35	15276.68
485.53	15082.41
485.71	15073.05
485.89	15405.41
486.07	15686.27
486.25	15749.46
486.43	15826.70
486.61	15817.34
486.78	16011.60
486.96	16194.17
487.14	16322.90
487.32	16058.42
487.50	16493.76
487.68	16460.99
487.85	16650.57
488.03	16800.37
488.21	16915.05
488.39	16957.18
488.57	17362.09
488.75	17397.20
488.92	17598.49
489.10	17528.27
489.28	17778.71
489.46	18050.21
489.64	17741.26
489.81	18200.01
489.99	18345.12
490.17	18302.99
490.35	18567.47
490.53	18611.94
490.70	18710.24
490.88	18668.11
491.06	18920.89
491.24	19276.65
491.41	19281.33
491.59	19321.12
491.77	19447.51
491.95	19613.69
492.13	19859.45
492.30	20166.06
492.48	19831.36
492.66	19789.23
492.84	20205.84
493.01	20027.96
493.19	20247.97
493.37	20428.20
493.54	20367.34
493.72	20959.50
493.90	20884.60
494.08	20950.14
494.25	21490.80
494.43	21443.99
494.61	21493.14
494.79	21542.29
494.96	21561.02
495.14	21507.18
495.32	21998.70
495.49	22066.57
495.67	22106.36
495.85	22401.27
496.02	22225.73
496.20	22352.12
496.38	22572.13
496.55	22335.73
496.73	22981.72
496.91	22806.18
497.09	22761.71
497.26	23274.29
497.44	23215.77
497.62	23365.57
497.79	23744.73
497.97	23445.15
498.14	23777.50
498.32	24245.61
498.50	24425.83
498.67	24170.71
498.85	24074.75
499.03	24388.38
499.20	24580.31
499.38	24383.70
499.56	24718.40
499.73	24655.20
499.91	24753.51
500.08	25167.78
500.26	24816.70
500.44	24542.86
500.61	24889.26
500.79	25022.67
500.97	25088.20
501.14	25450.99
501.32	25675.68
501.49	25783.34
501.67	25511.84
501.84	25514.18
502.02	25832.49
502.20	25659.29
502.37	25596.10
502.55	25624.18
502.72	26094.63
502.90	26286.56
503.07	26335.71
503.25	26438.69
503.43	26448.05
503.60	26501.89
503.78	26548.70
503.95	26398.90
504.13	26965.31
504.30	27208.73
504.48	27112.77
504.65	27108.08
504.83	27358.52
505.01	27166.60
505.18	27302.35
505.36	27772.80
505.53	27557.47
505.71	27927.27
505.88	27735.35
506.06	27632.36
506.23	28102.81
506.41	27559.81
506.58	28013.87
506.76	27913.23
506.93	28334.53
507.11	28135.58
507.28	28381.34
507.46	28151.96
507.63	28826.04
507.81	28402.40
507.98	28655.18
508.16	28657.52
508.33	28657.52
508.50	29067.11
508.68	28929.02
508.85	29525.86
509.03	28882.21
509.20	29130.31
509.38	29696.72
509.55	29635.86
509.73	29273.08
509.90	29624.16
510.08	29589.05
510.25	29972.90
510.42	29947.15
510.60	29883.96
510.77	30136.74
510.95	30441.01
511.12	29867.58
511.30	29930.77
511.47	30270.15
511.64	30237.38
511.82	31016.78
511.99	30583.78
512.17	30764.00
512.34	30962.95
512.51	31311.69
512.69	31131.47
512.86	31129.12
513.04	31304.67
513.21	31164.23
513.38	31335.09
513.56	31583.19
513.73	31676.81
513.90	31292.96
514.08	31660.43
514.25	31693.19
514.43	31702.56
514.60	32027.89
514.77	31723.62
514.95	31899.16
515.12	32161.30
515.29	32556.85
515.47	32100.45
515.64	32575.58
515.81	31868.73
515.99	32573.24
516.16	32830.69
516.33	32865.80
516.51	32837.72
516.68	32645.79
516.85	32584.94
517.03	33195.82
517.20	33209.86
517.37	33132.62
517.54	33221.56
517.72	33092.83
517.89	33394.76
518.06	33153.69
518.24	33193.48
518.41	33303.48
518.58	33806.70
518.75	33062.41
518.93	33596.05
519.10	33549.24
519.27	33935.43
519.45	33916.70
519.62	34101.61
519.79	34148.42
519.96	34235.02
520.14	34340.34
520.31	33876.91
520.48	34373.11
520.65	34487.79
520.83	34703.12
521.00	34745.25
521.17	34686.74
521.34	34691.42
521.52	35047.18
521.69	34960.58
521.86	34831.85
522.03	35182.93
522.20	35180.59
522.38	35271.87
522.55	35459.12
522.72	35201.66
522.89	35388.90
523.07	35545.72
523.24	35716.58
523.41	35632.32
523.58	35480.18
523.75	35812.54
523.92	35887.43
524.10	36074.68
524.27	36287.67
524.44	36217.45
524.61	35992.76
524.78	36009.14
524.96	36495.97
525.13	36102.76
525.30	36701.94
525.47	36463.21
525.64	36526.40
525.81	36849.39
525.98	37038.98
526.16	36753.43
526.33	36362.56
526.50	37071.75
526.67	36500.65
526.84	37050.68
527.01	36959.40
527.18	36842.37
527.36	37067.06
527.53	37125.58
527.70	37357.29
527.87	37448.57
528.04	36737.05
528.21	37652.20
528.38	37600.71
528.55	37701.35
528.72	37834.76
528.89	37708.37
529.07	37511.77
529.24	37694.33
529.41	38305.21
529.58	37729.44
529.75	37394.74
529.92	38003.28
530.09	38148.39
530.26	37743.48
530.43	38148.39
530.60	38054.77
530.77	38293.50
530.94	38326.27
531.11	37977.53
531.28	37975.19
531.46	38487.77
531.63	38291.16
531.80	38714.80
531.97	38841.19
532.14	38843.53
532.31	38639.90
532.48	38698.42
532.65	38906.73
532.82	39044.82
532.99	39447.39
533.16	38609.48
533.33	38993.32
533.50	39051.84
533.67	38965.24
533.84	39365.47
534.01	39618.25
534.18	39599.52
534.35	39522.29
534.52	39103.33
534.69	39796.13
534.86	39934.22
535.03	39154.82
535.20	39473.13
535.37	39655.70
535.54	39997.41
535.71	39583.14
535.88	40261.90
536.05	40456.16
536.22	40367.22
536.38	39882.73
536.55	39964.65
536.72	40399.99
536.89	39999.76
537.06	40158.91
537.23	40149.55
537.40	40198.70
537.57	39955.29
537.74	40353.18
537.91	40500.63
538.08	40683.19
538.25	40477.22
538.42	40479.57
538.59	41188.75
538.75	40491.27
538.92	40760.43
539.09	40854.05
539.26	40914.90
539.43	40863.41
539.60	40903.20
539.77	40690.21
539.94	41670.90
540.11	41127.89
540.28	41397.06
540.44	41495.36
540.61	41357.27
540.78	40973.42
540.95	41184.07
541.12	41354.93
541.29	40910.22
541.46	41324.50
541.62	41443.87
541.79	41413.44
541.96	41808.99
542.13	41015.55
542.30	41694.30
542.47	41717.71
542.63	41722.39
542.80	41647.49
542.97	42021.98
543.14	42099.22
543.31	42260.71
543.48	42361.36
543.64	42520.51
543.81	42429.23
543.98	42419.87
544.15	42396.46
544.32	42534.56
544.48	42564.98
544.65	42637.54
544.82	42415.19
544.99	42635.20
545.16	42658.60
545.32	42188.16
545.49	43325.66
545.66	43147.78
545.83	43241.40
546.00	43168.84
546.16	43026.07
546.33	42937.13
546.50	42747.54
546.67	43442.68
546.83	42581.37
547.00	42707.76
547.17	42794.36
547.34	42979.26
547.50	43426.30
547.67	43550.35
547.84	43299.91
548.00	43103.31
548.17	43672.06
548.34	43601.84
548.51	43840.57
548.67	43849.94
548.84	43323.32
549.01	43704.82
549.18	43564.39
549.34	43695.46
549.51	44488.90
549.68	44304.00
549.84	43969.30
550.01	43920.15
550.18	44172.93
550.34	43948.24
550.51	44114.42
550.68	43885.04
550.84	43824.19
551.01	44009.09
551.18	44151.87
551.34	43995.05
551.51	44481.88
551.68	44325.07
551.84	43983.35
552.01	44336.77
552.18	44261.87
552.34	43978.67
552.51	44741.68
552.68	43966.96
552.84	44128.46
553.01	44683.17
553.18	44343.79
553.34	44444.43
553.51	44664.44
553.67	44971.05
553.84	44451.45
554.01	44903.18
554.17	45062.33
554.34	45015.52
554.51	44795.51
554.67	44889.13
554.84	45174.68
555.00	44987.44
555.17	44570.82
555.33	45071.70
555.50	44847.00
555.67	45361.92
555.83	44961.69
556.00	45385.33
556.16	45525.76
556.33	45755.13
556.50	45153.62
556.66	45240.21
556.83	44741.68
556.99	45867.48
557.16	45813.65
557.32	45448.52
557.49	45729.39
557.65	45134.89
557.82	45525.76
557.98	45326.81
558.15	45331.50
558.32	45743.43
558.48	45827.69
558.65	45418.10
558.81	45879.18
558.98	45516.40
559.14	45404.05
559.31	45408.73
559.47	45619.38
559.64	45682.58
559.80	45652.15
559.97	45909.61
560.13	45507.04
560.30	46239.62
560.46	46274.73
560.63	46157.70
560.79	46375.37
560.96	45909.61
561.12	46195.15
561.29	46419.84
561.45	46000.89
561.61	45797.26
561.78	45841.73
561.94	45904.93
562.11	46017.27
562.27	46340.27
562.44	46003.23
562.60	46546.23
562.77	46113.23
562.93	46099.19
563.10	46316.86
563.26	46110.89
563.42	46248.99
563.59	46557.94
563.75	46127.28
563.92	46295.80
564.08	46375.37
564.24	46370.69
564.41	46270.05
564.57	46588.36
564.74	46263.03
564.90	46358.99
565.07	46607.09
565.23	46241.96
565.39	46614.11
565.56	46436.23
565.72	46272.39
565.88	46274.73
566.05	46473.68
566.21	46672.62
566.38	46588.36
566.54	46260.69
566.70	46749.86
566.87	46515.81
567.03	46586.02
567.19	46639.86
567.36	46752.20
567.52	46452.61
567.68	46799.01
567.85	46602.41
568.01	47049.45
568.17	46916.04
568.34	46834.12
568.50	46873.91
568.66	46710.07
568.83	47037.75
568.99	46887.95
569.15	46916.04
569.32	46831.78
569.48	46548.57
569.64	47276.48
569.81	47229.67
569.97	47311.59
570.13	47126.69
570.30	46775.61
570.46	47377.12
570.62	47372.44
570.78	46670.28
570.95	47302.23
571.11	47599.47
571.27	47131.37
571.43	46436.23
571.60	46909.02
571.76	47098.60
571.92	46923.06
572.09	46691.35
572.25	47220.31
572.41	47077.54
572.57	47077.54
572.74	47452.02
572.90	47117.32
573.06	47428.62
573.22	47398.19
573.38	47356.06
573.55	47133.71
573.71	47613.52
573.87	47381.80
574.03	47332.65
574.20	47430.96
574.36	47538.62
574.52	47285.84
574.68	47395.85
574.84	47381.80
575.01	47543.30
575.17	47665.01
575.33	47068.17
575.49	47232.01
575.65	47564.37
575.82	47334.99
575.98	47496.49
576.14	47419.25
576.30	47445.00
576.46	47262.44
576.62	47405.21
576.79	47337.33
576.95	47091.58
577.11	47276.48
577.27	47601.82
577.43	47487.13
577.59	47426.28
577.75	47145.41
577.92	47096.26
578.08	47653.31
578.24	47636.92
578.40	47580.75
578.56	47608.84
578.72	47590.11
578.88	47833.53
579.04	47466.06
579.21	47269.46
579.37	47849.91
579.53	47938.85
579.69	47597.13
579.85	47660.33
580.01	47590.11
580.17	47592.45
580.33	47538.62
580.49	48222.06
580.65	47880.34
580.82	47693.10
580.98	47510.53
581.14	47365.42
581.30	47569.05
581.46	47739.91
581.62	47311.59
581.78	47437.98
581.94	47374.78
582.10	47452.02
582.26	47840.55
582.42	47498.83
582.58	47728.20
582.74	47962.26
582.90	47817.14
583.06	47852.25
583.22	47278.82
583.38	47709.48
583.54	47873.32
583.70	47538.62
583.86	47992.68
584.02	47796.08
584.18	47894.38
584.34	47856.93
584.50	47688.42
584.66	47760.97
584.82	47725.86
584.98	47760.97
585.14	47835.87
585.30	47849.91
585.46	47704.80
585.62	47452.02
585.78	48112.05
585.94	47370.10
586.10	47442.66
586.26	47657.99
586.42	47885.02
586.58	48133.12
586.74	47934.17
586.90	47395.85
587.06	47501.17
587.22	48184.61
587.38	47522.24
587.54	47777.36
587.70	47983.32
587.86	47870.98
588.02	47662.67
588.18	47753.95
588.34	47601.82
588.49	47910.77
588.65	47828.85
588.81	47824.17
588.97	48041.84
589.13	47798.42
589.29	47973.96
589.45	48079.28
589.61	47793.74
589.77	48020.77
589.93	48069.92
590.08	48193.97
590.24	48561.44
590.40	48315.68
590.56	48404.62
590.72	48275.89
590.88	47547.98
591.04	47988.00
591.20	48479.52
591.35	48402.28
591.51	48636.33
591.67	48341.42
591.83	48065.24
591.99	48182.27
592.15	48088.65
592.31	48254.82
592.46	48006.73
592.62	48535.69
592.78	48308.66
592.94	48793.15
593.10	48767.40
593.26	48821.23
593.41	48381.21
593.57	48247.80
593.73	48744.00
593.89	48678.46
594.05	48734.63
594.20	48502.92
594.36	48842.30
594.52	48528.67
594.68	48474.84
594.84	48247.80
594.99	48643.35
595.15	48505.26
595.31	48435.05
595.47	48343.77
595.62	48147.16
595.78	48287.59
595.94	48334.40
596.10	48678.46
596.25	48662.08
596.41	48275.89
596.57	48509.94
596.73	48982.73
596.88	48626.97
597.04	48713.57
597.20	48311.00
597.36	48378.87
597.51	48659.74
597.67	48650.38
597.83	48493.56
597.99	48531.01
598.14	48254.82
598.30	48818.89
598.46	48858.68
598.61	49078.69
598.77	48671.44
598.93	48603.56
599.09	48538.03
599.24	49074.01
599.40	49003.80
599.56	48699.53
599.71	49265.94
599.87	49148.91
600.03	49120.82
600.18	48601.22
600.34	48605.91
600.50	48512.28
600.65	48669.10
600.81	48589.52
600.97	49006.14
601.12	48692.50
601.28	48781.45
601.44	48729.95
601.59	48903.15
601.75	48325.04
601.91	48954.64
602.06	48573.14
602.22	48837.62
602.37	48825.92
602.53	48863.36
602.69	48879.75
602.84	48399.94
603.00	48198.65
603.16	48498.24
603.31	48765.06
603.47	48839.96
603.62	48802.51
603.78	48856.34
603.94	48678.46
604.09	48680.80
604.25	48954.64
604.40	48605.91
604.56	48828.26
604.71	48626.97
604.87	48729.95
605.03	48369.51
605.18	48633.99
605.34	48802.51
605.49	48718.25
605.65	48657.40
605.80	48671.44
605.96	48540.37
606.12	48554.41
606.27	48399.94
606.43	48739.32
606.58	48626.97
606.74	48236.10
606.89	48486.54
607.05	48549.73
607.20	48676.12
607.36	48456.11
607.51	48781.45
607.67	48615.27
607.82	48069.92
607.98	48655.06
608.13	48624.63
608.29	48158.86
608.44	48664.42
608.60	48397.60
608.75	48378.87
608.91	48500.58
609.06	48273.55
609.22	48612.93
609.37	47976.30
609.53	48828.26
609.68	48608.25
609.84	48252.48
609.99	48526.33
610.15	48416.32
610.30	48486.54
610.46	48809.53
610.61	48243.12
610.76	48538.03
610.92	48147.16
611.07	47938.85
611.23	48444.41
611.38	48329.72
611.54	48832.94
611.69	48418.66
611.84	48252.48
612.00	47985.66
612.15	48294.61
612.31	48065.24
612.46	47929.49
612.62	48308.66
612.77	48100.35
612.92	48275.89
613.08	47920.13
613.23	48123.75
613.39	48090.99
613.54	47894.38
613.69	48048.86
613.85	47531.60
614.00	47702.46
614.15	48411.64
614.31	48196.31
614.46	48114.39
614.62	48030.13
614.77	48210.35
614.92	48168.22
615.08	47971.62
615.23	47964.60
615.38	48203.33
615.54	47948.21
615.69	48161.20
615.84	48109.71
616.00	48065.24
616.15	48013.75
616.30	47885.02
616.46	47924.81
616.61	47978.64
616.76	47590.11
616.92	47885.02
617.07	47966.94
617.22	47454.36
617.37	47473.09
617.53	47739.91
617.68	47576.07
617.83	47613.52
617.99	48041.84
618.14	47952.90
618.29	47374.78
618.45	47295.21
618.60	47571.39
618.75	47140.73
618.90	47215.63
619.06	47283.50
619.21	47334.99
619.36	47660.33
619.51	47463.72
619.67	47126.69
619.82	47264.78
619.97	47920.13
620.12	47318.61
620.28	47459.04
620.43	47454.36
620.58	47311.59
620.73	47306.91
620.89	47171.16
621.04	47232.01
621.19	47484.79
621.34	47234.35
621.49	46714.75
621.65	47112.64
621.80	47629.90
621.95	47531.60
622.10	47775.02
622.25	46822.42
622.41	47241.37
622.56	47299.89
622.71	47075.19
622.86	46997.96
623.01	47145.41
623.16	47250.74
623.32	47004.98
623.47	46993.28
623.62	46934.76
623.77	46873.91
623.92	47187.54
624.07	47014.34
624.23	47112.64
624.38	46948.81
624.53	46583.68
624.68	46693.69
624.83	46721.77
624.98	46794.33
625.13	46321.54
625.29	46295.80
625.44	47051.79
625.59	46691.35
625.74	46686.67
625.89	46595.38
626.04	46335.59
626.19	46539.21
626.34	46525.17
626.49	46522.83
626.65	46499.42
626.80	46499.42
626.95	46291.12
627.10	45858.12
627.25	46279.41
627.40	46733.48
627.55	46387.08
627.70	46522.83
627.85	46354.31
628.00	46225.58
628.15	46155.36
628.30	45956.42
628.45	45556.19
628.60	45521.08
628.76	46007.91
628.91	46026.63
629.06	45874.50
629.21	45731.73
629.36	45925.99
629.51	45897.91
629.66	46190.47
629.81	45897.91
629.96	45993.87
630.11	45743.43
630.26	45792.58
630.41	45860.46
630.56	45729.39
630.71	45614.70
630.86	45617.04
631.01	45535.12
631.16	45448.52
631.31	45385.33
631.46	45769.18
631.61	45867.48
631.76	45925.99
631.91	46225.58
632.06	45766.84
632.21	45668.53
632.36	45872.16
632.51	45588.95
632.66	45663.85
632.81	45333.84
632.96	45544.48
633.10	44989.78
633.25	45509.38
633.40	45691.94
633.55	45701.30
633.70	45518.74
633.85	45315.11
634.00	45048.29
634.15	45045.95
634.30	45106.80
634.45	44968.71
634.60	45153.62
634.75	45488.31
634.90	45235.53
635.05	45588.95
635.19	45118.51
635.34	45312.77
635.49	45024.89
635.64	45167.66
635.79	45312.77
635.94	45242.56
636.09	45422.78
636.24	45654.49
636.39	44912.54
636.53	45329.16
636.68	44521.67
636.83	44636.36
636.98	44999.14
637.13	44406.98
637.28	44905.52
637.43	44790.83
637.57	44788.49
637.72	44832.96
637.87	44744.02
638.02	44732.32
638.17	44638.70
638.32	44556.78
638.46	44587.21
638.61	44128.46
638.76	44212.72
638.91	44566.14
639.06	44311.02
639.20	44334.43
639.35	44074.63
639.50	43716.53
639.65	44528.69
639.80	44949.99
639.94	44470.18
640.09	44538.05
640.24	44467.84
640.39	44208.04
640.54	43976.33
640.68	44304.00
640.83	44556.78
640.98	44163.57
641.13	43585.46
641.27	44088.67
641.42	43941.22
641.57	44217.40
641.72	44175.27
641.86	44194.00
642.01	43564.39
642.16	43620.56
642.31	43552.69
642.45	43962.28
642.60	43461.41
642.75	43555.03
642.90	44051.22
643.04	44053.56
643.19	43622.90
643.34	43550.35
643.48	43838.23
643.63	43459.07
643.78	43709.50
643.93	44308.68
644.07	43648.65
644.22	43805.47
644.37	43583.12
644.51	43629.93
644.66	43964.62
644.81	43349.06
644.95	43271.82
645.10	43536.30
645.25	43353.74
645.39	43143.09
645.54	43255.44
645.69	43501.20
645.83	42951.17
645.98	42997.98
646.13	42909.04
646.27	43276.51
646.42	43150.12
646.57	43110.33
646.71	43311.61
646.86	43056.50
647.00	43206.29
647.15	43267.14
647.30	43297.57
647.44	43292.89
647.59	42784.99
647.74	43023.73
647.88	43049.47
648.03	43761.00
648.17	43629.93
648.32	43042.45
648.47	43030.75
648.61	42773.29
648.76	42501.79
648.90	42689.03
649.05	43007.34
649.20	42831.80
649.34	42768.61
649.49	42995.64
649.63	42656.26
649.78	42817.76
649.92	42440.93
650.07	43100.97
650.21	42836.48
650.36	43243.74
650.51	42532.22
650.65	42801.38
650.80	42754.57
650.94	42700.73
651.09	42820.10
651.23	42438.59
651.38	42618.81
651.52	42422.21
651.67	42562.64
651.81	42672.65
651.96	42471.36
652.10	41792.61
652.25	42616.47
652.39	42333.27
652.54	42295.82
652.68	42464.34
652.83	42115.60
652.97	42223.26
653.12	41977.51
653.26	41954.10
653.41	42127.30
653.55	42181.13
653.70	42466.68
653.84	42326.25
653.99	41680.26
654.13	41771.54
654.27	42019.64
654.42	42043.04
654.56	41467.27
654.71	41954.10
654.85	42211.56
655.00	41928.36
655.14	42176.45
655.29	42143.69
655.43	42120.28
655.57	42171.77
655.72	41584.30
655.86	41743.45
656.01	41516.42
656.15	41214.49
656.30	41621.75
656.44	41776.22
656.58	41654.51
656.73	41486.00
656.87	41041.29
657.01	41319.82
657.16	41333.86
657.30	41340.88
657.45	41579.62
657.59	41371.31
657.73	40531.06
657.88	40987.46
658.02	41294.07
658.16	41237.90
658.31	41401.74
658.45	41404.08
658.60	41212.15
658.74	40617.66
658.88	40919.59
659.03	41083.42
659.17	40706.60
659.31	41221.52
659.46	40994.48
659.60	40699.58
659.74	41141.94
659.89	40704.26
660.03	40474.88
660.17	40666.81
660.32	40444.46
660.46	40470.20
660.60	40098.06
660.74	40051.25
660.89	40680.85
661.03	39868.69
661.17	40062.95
661.32	40421.05
661.46	40027.84
661.60	39856.98
661.74	39859.32
661.89	40093.38
662.03	40142.53
662.17	39749.32
662.31	39856.98
662.46	39576.12
662.60	39786.77
662.74	39536.33
662.88	39442.71
663.03	39178.23
663.17	39402.92
663.31	39079.92
663.45	39648.68
663.60	39735.27
663.74	39391.22
663.88	39253.12
664.02	39297.59
664.17	39290.57
664.31	39697.83
664.45	38880.98
664.59	39299.94
664.73	38726.50
664.88	38824.81
665.02	38899.70
665.16	39243.76
665.30	38644.59
665.44	39168.87
665.59	38581.39
665.73	38590.75
665.87	38335.63
666.01	38499.47
666.15	38616.50
666.29	38256.06
666.44	38288.82
666.58	38440.96
666.72	38014.98
666.86	38267.76
667.00	37722.41
667.14	37930.72
667.28	38176.48
667.43	37481.34
667.57	38047.75
667.71	38223.29
667.85	37923.70
667.99	37902.64
668.13	37659.22
668.27	37085.79
668.41	37600.71
668.56	36760.45
668.70	37603.05
668.84	36917.27
668.98	37296.44
669.12	37415.80
669.26	37170.05
669.40	37226.22
669.54	37350.27
669.68	37118.56
669.82	36638.75
669.96	36863.44
670.10	36460.87
670.25	36737.05
670.39	36840.03
670.53	36790.88
670.67	36608.32
670.81	36713.64
670.95	36488.95
671.09	36032.55
671.23	35957.65
671.37	36477.25
671.51	36119.15
671.65	35997.44
671.79	35842.96
671.93	36170.64
672.07	36229.15
672.21	35852.33
672.35	35321.02
672.49	35538.69
672.63	35281.24
672.77	35611.25
672.91	35749.34
673.05	35370.18
673.19	35225.06
673.33	35152.51
673.47	34958.24
673.61	34883.34
673.75	35143.14
673.89	34829.51
674.03	35098.67
674.17	34312.25
674.31	34616.52
674.45	34270.12
674.59	34216.29
674.73	34749.93
674.87	34330.98
675.01	34349.70
675.15	33694.35
675.29	34139.05
675.43	34220.97
675.56	34347.36
675.70	33532.86
675.84	33542.22
675.98	32737.07
676.12	33804.36
676.26	33865.21
676.40	33219.22
676.54	33240.29
676.68	32769.84
676.82	32367.27
676.96	33259.01
677.10	32910.27
677.23	33266.03
677.37	33137.30
677.51	32655.15
677.65	32793.25
677.79	32430.46
677.93	32334.50
678.07	32477.27
678.21	32147.26
678.34	31714.26
678.48	31882.78
678.62	31714.26
678.76	31475.52
678.90	31613.62
679.04	31676.81
679.18	31676.81
679.31	31557.44
679.45	31047.21
679.59	31262.54
679.73	30976.99
679.87	30625.91
680.00	31269.56
680.14	30955.93
680.28	30934.86
680.42	30878.69
680.56	30443.35
680.70	30326.32
680.83	29790.34
680.97	29869.92
681.11	30347.39
681.25	29759.91
681.39	29790.34
681.52	29951.84
681.66	29596.07
681.80	29460.32
681.94	29003.92
682.07	29050.73
682.21	29099.88
682.35	28863.49
682.49	29081.16
682.62	28992.22
682.76	29352.66
682.90	28851.78
683.04	28601.35
683.17	28456.23
683.31	28563.90
683.45	28407.08
683.59	28278.35
683.72	27938.97
683.86	27948.34
684.00	27704.92
684.13	27936.63
684.27	27880.46
684.41	27414.69
684.55	27894.50
684.68	27491.93
684.82	27520.02
684.96	27185.32
685.09	27449.80
685.23	27473.21
685.37	27805.56
685.50	27449.80
685.64	27035.53
685.78	26749.98
685.91	26714.87
686.05	26242.09
686.19	25986.97
686.32	26305.28
686.46	25979.95
686.60	25781.00
686.73	26155.49
686.87	25715.47
687.01	26342.73
687.14	26228.04
687.28	25689.72
687.42	26169.53
687.55	25481.41
687.69	25453.33
687.82	25254.38
687.96	25371.41
688.10	25352.68
688.23	25230.98
688.37	25076.50
688.50	25350.34
688.64	24758.19
688.78	24936.07
688.91	25092.88
689.05	24643.50
689.18	24437.53
689.32	24210.50
689.46	23857.08
689.59	24126.24
689.73	23943.68
689.86	24528.81
690.00	24056.03
690.13	23969.43
690.27	23805.59
690.41	23653.45
690.54	22803.84
690.68	23524.72
690.81	22955.97
690.95	23192.37
691.08	23190.03
691.22	22958.31
691.35	22852.99
691.49	23035.55
691.62	22939.59
691.76	22642.34
691.89	22317.01
692.03	22099.34
692.16	22015.08
692.30	22551.06
692.43	22569.79
692.57	21968.27
692.70	21729.53
692.84	21750.60
692.97	21825.50
693.11	21474.42
693.24	21603.14
693.38	21202.91
693.51	21130.36
693.65	20978.22
693.78	21069.50
693.92	20861.19
694.05	20828.43
694.19	20842.47
694.32	21312.92
694.45	21252.06
694.59	20812.04
694.72	20856.51
694.86	20692.68
694.99	20362.66
695.13	20269.04
695.26	19939.02
695.39	20130.95
695.53	19646.46
695.66	19934.34
695.80	19885.19
695.93	19857.10
696.07	19360.91
696.20	19618.37
696.33	19166.65
696.47	19183.03
696.60	19098.77
696.73	19215.80
696.87	19178.35
697.00	19077.71
697.14	18930.25
697.27	18743.01
697.40	18750.03
697.54	18827.27
697.67	18675.13
697.80	18539.38
697.94	18609.60
698.07	18345.12
698.21	18473.85
698.34	18314.69
698.47	18097.02
698.61	17898.08
698.74	17776.37
698.87	17893.40
699.01	17635.94
699.14	17778.71
699.27	17759.98
699.40	17617.21
699.54	17380.82
699.67	17404.22
699.80	17488.48
699.94	16978.25
700.07	17153.79
700.20	17118.68
700.34	16964.20
700.47	16954.84
700.60	17041.44
700.73	17123.36
700.87	16524.18
701.00	16468.01
701.13	16559.29
701.26	16184.80
701.40	16350.98
701.53	15990.54
701.66	16269.06
701.79	16177.78
701.93	15587.97
702.06	15494.35
702.19	15662.86
702.32	15674.57
702.46	16023.31
702.59	15885.22
702.72	15620.74
702.85	15630.10
702.99	15477.96
703.12	15150.29
703.25	15302.42
703.38	15281.36
703.51	15084.75
703.65	14860.06
703.78	14927.94
703.91	14750.06
704.04	14590.90
704.17	14581.54
704.31	14869.42
704.44	14759.42
704.57	14532.39
704.70	14504.30
704.83	14478.55
704.96	14303.01
705.10	14281.95
705.23	14277.27
>>>>>End Processed Spectral Data<<<<<
