SpectraSuite Data File
++++++++++++++++++++++++++++++++++++
Date: Fri Oct 25 11:34:44 EDT 2013
User: price-jones
Dark Spectrum Present: No
Reference Spectrum Present: No
Number of Sampled Component Spectra: 1
Spectrometers: USB2+H05261
Integration Time (usec): 100000 (USB2+H05261)
Spectra Averaged: 1 (USB2+H05261)
Boxcar Smoothing: 0 (USB2+H05261)
Correct for Electrical Dark: No (USB2+H05261)
Strobe/Lamp Enabled: No (USB2+H05261)
Correct for Detector Non-linearity: No (USB2+H05261)
Correct for Stray Light: No (USB2+H05261)
Number of Pixels in Processed Spectrum: 2048
>>>>>Begin Processed Spectral Data<<<<<
365.73	306.61
365.92	306.61
366.12	306.61
366.32	273.84
366.52	184.90
366.72	234.05
366.91	112.35
367.11	147.45
367.31	217.67
367.51	168.52
367.70	114.69
367.90	250.44
368.10	159.16
368.30	93.62
368.49	163.84
368.69	212.99
368.89	201.29
369.09	205.97
369.28	191.92
369.48	222.35
369.68	259.80
369.87	227.03
370.07	271.50
370.27	299.59
370.47	280.86
370.66	512.58
370.86	496.19
371.06	543.00
371.25	613.22
371.45	510.24
371.65	571.09
371.84	587.47
372.04	423.64
372.24	557.05
372.44	538.32
372.63	596.84
372.83	601.52
373.03	603.86
373.22	674.07
373.42	585.13
373.62	643.65
373.81	655.35
374.01	629.60
374.21	690.46
374.40	671.73
374.60	592.16
374.79	641.31
374.99	664.71
375.19	608.54
375.38	685.78
375.58	664.71
375.78	573.43
375.97	650.67
376.17	674.07
376.37	629.60
376.56	641.31
376.76	685.78
376.95	634.29
377.15	690.46
377.35	631.94
377.54	564.07
377.74	704.50
377.93	697.48
378.13	748.97
378.33	610.88
378.52	662.37
378.72	767.70
378.91	734.93
379.11	706.84
379.31	634.29
379.50	713.86
379.70	744.29
379.89	765.36
380.09	727.91
380.28	744.29
380.48	671.73
380.68	751.31
380.87	688.12
381.07	664.71
381.26	786.42
381.46	704.50
381.65	772.38
381.85	727.91
382.04	741.95
382.24	760.67
382.43	784.08
382.63	816.85
382.83	765.36
383.02	779.40
383.22	851.96
383.41	781.74
383.61	795.78
383.80	833.23
384.00	718.54
384.19	858.98
384.39	849.61
384.58	830.89
384.78	767.70
384.97	720.88
385.17	842.59
385.36	802.80
385.56	800.46
385.75	830.89
385.95	798.12
386.14	793.44
386.34	823.87
386.53	924.51
386.72	816.85
386.92	856.64
387.11	866.00
387.31	844.93
387.50	809.83
387.70	903.45
387.89	884.72
388.09	823.87
388.28	842.59
388.48	889.40
388.67	844.93
388.86	945.58
389.06	884.72
389.25	997.07
389.45	917.49
389.64	905.79
389.84	924.51
390.03	997.07
390.22	915.15
390.42	1008.77
390.61	950.26
390.81	964.30
391.00	898.77
391.19	983.02
391.39	957.28
391.58	1001.75
391.78	1062.60
391.97	1001.75
392.16	1018.13
392.36	1034.52
392.55	1050.90
392.75	992.39
392.94	1022.81
393.13	1062.60
393.33	959.62
393.52	1057.92
393.71	1090.69
393.91	1107.07
394.10	1046.22
394.29	1036.86
394.49	966.64
394.68	1142.18
394.88	1118.78
395.07	1137.50
395.26	1151.54
395.46	1137.50
395.65	1111.75
395.84	1081.33
396.04	1114.10
396.23	1263.89
396.42	1186.65
396.62	1188.99
396.81	1165.59
397.00	1156.22
397.19	1114.10
397.39	1074.31
397.58	1214.74
397.77	1130.48
397.97	1198.35
398.16	1172.61
398.35	1226.44
398.55	1207.72
398.74	1228.78
398.93	1247.51
399.12	1174.95
399.32	1217.08
399.51	1163.25
399.70	1221.76
399.90	1315.38
400.09	1324.74
400.28	1324.74
400.47	1352.83
400.67	1366.87
400.86	1329.42
401.05	1383.26
401.24	1345.81
401.44	1357.51
401.63	1306.02
401.82	1446.45
402.01	1380.92
402.21	1423.05
402.40	1411.34
402.59	1334.11
402.78	1493.26
402.97	1387.94
403.17	1416.02
403.36	1409.00
403.55	1439.43
403.74	1589.22
403.93	1537.73
404.13	1507.30
404.32	1556.46
404.51	1497.94
404.70	1607.95
404.89	1561.14
405.09	1657.10
405.28	1626.67
405.47	1582.20
405.66	1631.35
405.85	1710.93
406.05	1537.73
406.24	1706.25
406.43	1706.25
406.62	1694.55
406.81	1748.38
407.00	1682.85
407.20	1664.12
407.39	1717.95
407.58	1802.21
407.77	1724.97
407.96	1776.47
408.15	1856.04
408.34	1788.17
408.54	1830.30
408.73	1853.70
408.92	1921.58
409.11	1886.47
409.30	1905.20
409.49	1842.00
409.68	1797.53
409.87	1844.34
410.07	1940.30
410.26	1973.07
410.45	1980.09
410.64	1942.64
410.83	2015.20
411.02	1912.22
411.21	2015.20
411.40	2092.44
411.59	2038.61
411.78	2129.89
411.98	2132.23
412.17	2118.18
412.36	2169.68
412.55	2186.06
412.74	2176.70
412.93	2080.74
413.12	2324.15
413.31	2382.67
413.50	2270.32
413.69	2366.28
413.88	2399.05
414.07	2354.58
414.26	2406.07
414.45	2532.46
414.64	2352.24
414.83	2466.92
415.02	2469.27
415.22	2567.57
415.41	2520.76
415.60	2495.01
415.79	2619.06
415.98	2506.71
416.17	2597.99
416.36	2551.18
416.55	2668.21
416.74	2775.88
416.93	2642.46
417.12	2813.32
417.31	2654.17
417.50	2719.70
417.69	2794.60
417.88	2871.84
418.07	2780.56
418.26	2649.49
418.45	2860.13
418.64	2850.77
418.83	2843.75
419.02	2876.52
419.21	2967.80
419.39	2974.82
419.58	2918.65
419.77	2810.98
419.96	3000.57
420.15	3016.95
420.34	3007.59
420.53	2993.55
420.72	3166.74
420.91	3075.46
421.10	3087.17
421.29	3103.55
421.48	3019.29
421.67	3119.93
421.86	3075.46
422.05	3180.79
422.24	3199.51
422.43	3194.83
422.61	3117.59
422.80	3304.84
422.99	3192.49
423.18	3279.09
423.37	3351.65
423.56	3124.62
423.75	3204.19
423.94	3190.15
424.13	3112.91
424.32	3136.32
424.50	3372.71
424.69	3349.31
424.88	3335.26
425.07	3239.30
425.26	3314.20
425.45	3070.78
425.64	3241.64
425.83	3243.98
426.01	3353.99
426.20	3325.90
426.39	3300.16
426.58	3358.67
426.77	3246.32
426.96	3286.11
427.15	3344.63
427.33	3421.86
427.52	3384.41
427.71	3445.27
427.90	3295.47
428.09	3449.95
428.28	3627.83
428.46	3424.20
428.65	3487.40
428.84	3503.78
429.03	3688.68
429.22	3440.59
429.40	3562.30
429.59	3499.10
429.78	3389.10
429.97	3454.63
430.16	3555.27
430.34	3662.94
430.53	3714.43
430.72	3651.24
430.91	3824.44
431.10	3772.94
431.28	3754.22
431.47	3904.01
431.66	3765.92
431.85	3756.56
432.03	3878.27
432.22	3948.48
432.41	3758.90
432.60	3927.42
432.79	3845.50
432.97	3922.74
433.16	3939.12
433.35	3911.04
433.54	4016.36
433.72	3861.88
433.91	3969.55
434.10	4037.42
434.28	3913.38
434.47	4002.32
434.66	4161.47
434.85	4109.98
435.03	4124.02
435.22	4042.11
435.41	4170.83
435.59	4088.92
435.78	4077.21
435.97	4093.60
436.16	4177.86
436.34	4250.41
436.53	4255.09
436.72	4337.01
436.90	4278.50
437.09	4287.86
437.28	4088.92
437.46	4322.97
437.65	4367.44
437.84	4344.03
438.02	4339.35
438.21	4545.32
438.40	4304.25
438.58	4477.44
438.77	4610.86
438.96	4381.48
439.14	4507.87
439.33	4669.37
439.52	4699.80
439.70	4826.18
439.89	4798.10
440.08	4702.14
440.26	4762.99
440.45	4713.84
440.63	4847.25
440.82	4943.21
441.01	4823.84
441.19	4863.63
441.38	5107.05
441.57	4950.23
441.75	5121.09
441.94	5057.90
442.12	5277.91
442.31	5280.25
442.50	5305.99
442.68	5057.90
442.87	5149.18
443.05	5348.12
443.24	5266.21
443.43	5198.33
443.61	5256.84
443.80	5298.97
443.98	5165.56
444.17	5097.69
444.35	5364.51
444.54	5401.96
444.73	5273.23
444.91	5378.55
445.10	5504.94
445.28	5380.89
445.47	5289.61
445.65	5413.66
445.84	5458.13
446.02	5493.24
446.21	5481.53
446.39	5343.44
446.58	5479.19
446.77	5467.49
446.95	5315.36
447.14	5406.64
447.32	5673.46
447.51	5273.23
447.69	5495.58
447.88	5434.72
448.06	5481.53
448.25	5373.87
448.43	5621.97
448.62	5355.15
448.80	5579.84
448.99	5614.95
449.17	5556.43
449.36	5542.39
449.54	5715.59
449.73	5816.23
449.91	5724.95
450.10	5636.01
450.28	5799.85
450.46	5909.85
450.65	5865.38
450.83	5708.57
451.02	5832.62
451.20	5832.62
451.39	5738.99
451.57	6059.65
451.76	5811.55
451.94	5783.46
452.13	5987.09
452.31	6012.84
452.49	5935.60
452.68	5933.26
452.86	6218.80
453.05	6188.38
453.23	6015.18
453.42	6118.16
453.60	6080.71
453.78	6090.07
453.97	5994.11
454.15	5968.37
454.34	5973.05
454.52	6331.15
454.70	6113.48
454.89	6073.69
455.07	6235.19
455.26	6345.19
455.44	6389.66
455.62	6338.17
455.81	6314.77
455.99	6389.66
456.17	6574.56
456.36	6361.58
456.54	6356.90
456.73	6513.71
456.91	6583.93
457.09	6705.63
457.28	6567.54
457.46	6516.05
457.64	6630.74
457.83	6670.53
458.01	6480.94
458.19	6923.30
458.38	6661.16
458.56	6724.36
458.74	6848.41
458.93	6874.15
459.11	6930.33
459.29	6817.98
459.48	6867.13
459.66	7023.95
459.84	6878.83
460.03	6963.09
460.21	7047.35
460.39	7068.42
460.57	7117.57
460.76	6984.16
460.94	7103.53
461.12	7211.19
461.31	7150.34
461.49	7145.66
461.67	7007.56
461.85	7281.41
462.04	7206.51
462.22	7456.95
462.40	7248.64
462.59	7414.82
462.77	7243.96
462.95	7485.03
463.13	7309.49
463.32	7431.20
463.50	7403.11
463.68	7396.09
463.86	7421.84
464.05	7531.84
464.23	7407.80
464.41	7688.66
464.59	7405.46
464.78	7805.69
464.96	7431.20
465.14	7513.12
465.32	7679.30
465.50	7597.38
465.69	7501.42
465.87	7709.72
466.05	7735.47
466.23	7782.28
466.41	7723.77
466.60	7765.90
466.78	7569.29
466.96	7782.28
467.14	7756.54
467.32	7770.58
467.51	7726.11
467.69	7829.09
467.87	7688.66
468.05	8098.25
468.23	7882.92
468.41	7815.05
468.60	7992.93
468.78	8102.93
468.96	8114.64
469.14	8432.95
469.32	8346.35
469.50	8035.06
469.69	7943.78
469.87	8217.62
470.05	8177.83
470.23	8198.90
470.41	8278.47
470.59	8322.94
470.77	8395.50
470.95	8409.54
471.14	8538.27
471.32	8432.95
471.50	8566.36
471.68	8561.68
471.86	8585.08
472.04	8652.96
472.22	8802.75
472.40	8599.13
472.58	8772.33
472.77	8861.27
472.95	9034.47
473.13	9050.85
473.31	9109.36
473.49	8947.87
473.67	8910.42
473.85	9008.72
474.03	8990.00
474.21	9249.80
474.39	9277.88
474.57	9193.62
474.75	9352.78
474.93	9174.90
475.12	9327.03
475.30	9635.99
475.48	9476.83
475.66	9451.08
475.84	9495.55
476.02	9540.02
476.20	9645.35
476.38	9724.93
476.56	10097.07
476.74	9923.87
476.92	10239.84
477.10	9853.66
477.28	10115.80
477.46	10015.15
477.64	10134.52
477.82	10377.94
478.00	10616.67
478.18	10373.25
478.36	10696.25
478.54	10846.04
478.72	10733.70
478.90	10642.42
479.08	10991.16
479.26	10836.68
479.44	10944.34
479.62	11059.03
479.80	11204.14
479.98	11613.74
480.16	11573.95
480.34	11475.65
480.52	11908.65
480.70	11719.06
480.88	11279.04
481.06	11585.65
481.24	11763.53
481.41	11887.58
481.59	11882.90
481.77	12187.17
481.95	12245.68
482.13	12128.66
482.31	12198.87
482.49	12622.51
482.67	12484.42
482.85	12601.44
483.03	12828.48
483.21	13004.02
483.39	13107.00
483.57	13158.49
483.74	13198.28
483.92	13123.38
484.10	13137.43
484.28	13460.42
484.46	13790.44
484.64	13923.85
484.82	13631.28
485.00	13855.97
485.18	14106.41
485.35	14363.87
485.53	14331.10
485.71	14504.30
485.89	14633.03
486.07	14520.68
486.25	14691.54
486.43	14801.55
486.61	14778.14
486.78	15012.20
486.96	14920.92
487.14	15145.61
487.32	15232.21
487.50	15438.17
487.68	15690.95
487.85	15749.46
488.03	15936.71
488.21	16299.49
488.39	16219.91
488.57	15962.45
488.75	16109.91
488.92	16468.01
489.10	16435.24
489.28	16856.54
489.46	16898.67
489.64	16589.72
489.81	17099.95
489.99	17165.49
490.17	17287.20
490.35	17205.28
490.53	17085.91
490.70	17568.06
490.88	17645.30
491.06	17797.43
491.24	17998.72
491.41	18345.12
491.59	18097.02
491.77	17987.02
491.95	18469.17
492.13	18412.99
492.30	18838.97
492.48	18515.98
492.66	18885.78
492.84	18895.14
493.01	18967.70
493.19	18963.02
493.37	19468.58
493.54	19246.23
493.72	19316.44
493.90	19421.77
494.08	19508.37
494.25	19875.83
494.43	19871.15
494.61	19880.51
494.79	20257.34
494.96	20037.33
495.14	20163.72
495.32	20460.96
495.49	20620.12
495.67	20278.40
495.85	20971.20
496.02	20388.41
496.20	21273.13
496.38	20954.82
496.55	21177.17
496.73	21795.07
496.91	21289.51
497.09	21642.93
497.26	21441.65
497.44	21942.52
497.62	21944.86
497.79	22068.91
497.97	21858.26
498.14	22249.13
498.32	22312.33
498.50	22178.92
498.67	22934.91
498.85	22794.48
499.03	22600.21
499.20	22611.92
499.38	23028.53
499.56	22820.22
499.73	23019.17
499.91	23124.49
500.08	23047.26
500.26	23318.76
500.44	23353.87
500.61	23248.54
500.79	23571.54
500.97	23524.72
501.14	23946.02
501.32	23840.70
501.49	23852.40
501.67	23931.98
501.84	24252.63
502.02	23974.11
502.20	23585.58
502.37	24271.36
502.55	24182.42
502.72	24531.15
502.90	24240.93
503.07	24353.27
503.25	24823.72
503.43	24519.45
503.60	24826.06
503.78	25090.54
503.95	24774.57
504.13	25144.38
504.30	25282.47
504.48	25177.14
504.65	25219.27
504.83	25582.06
505.01	25652.27
505.18	25256.72
505.36	26167.19
505.53	25514.18
505.71	25593.76
505.88	25628.87
506.06	25605.46
506.23	26354.43
506.41	26288.90
506.58	25930.80
506.76	26235.06
506.93	26384.86
507.11	26316.98
507.28	26775.73
507.46	26555.72
507.63	26824.88
507.81	26724.24
507.98	26742.96
508.16	26611.89
508.33	26801.47
508.50	27227.45
508.68	26803.82
508.85	27599.60
509.03	27585.55
509.20	27613.64
509.38	27688.54
509.55	27763.43
509.73	27634.71
509.90	27676.83
510.08	27768.12
510.25	27520.02
510.42	27763.43
510.60	27885.14
510.77	28070.04
510.95	28163.67
511.12	28158.99
511.30	28566.24
511.47	28311.12
511.64	28278.35
511.82	28512.41
511.99	28704.33
512.17	28709.01
512.34	28645.82
512.51	28959.45
512.69	28945.41
512.86	28879.87
513.04	29617.14
513.21	29268.40
513.38	29048.39
513.56	29865.24
513.73	29242.65
513.90	29436.92
514.08	29408.83
514.25	29706.08
514.43	29652.25
514.60	29762.25
514.77	29986.94
514.95	29881.62
515.12	29830.13
515.29	30010.35
515.47	30281.85
515.64	30354.41
515.81	30368.45
515.99	30569.74
516.16	30796.77
516.33	30263.13
516.51	30536.97
516.68	30361.43
516.85	30831.88
517.03	30696.13
517.20	31009.76
517.37	30822.51
517.54	30752.30
517.72	31105.72
517.89	31384.24
518.06	31304.67
518.24	31185.30
518.41	31316.37
518.58	31145.51
518.75	30862.30
518.93	31686.17
519.10	31271.90
519.27	31363.18
519.45	31658.09
519.62	31807.88
519.79	31950.65
519.96	31686.17
520.14	31885.12
520.31	32058.32
520.48	32072.36
520.65	32271.31
520.83	32467.91
521.00	32381.31
521.17	32385.99
521.34	32652.81
521.52	32856.44
521.69	32552.17
521.86	32903.25
522.03	32610.68
522.20	32840.06
522.38	33151.35
522.55	32870.48
522.72	33132.62
522.89	32985.17
523.07	33228.59
523.24	33216.88
523.41	33259.01
523.58	32889.21
523.75	33673.29
523.92	33441.57
524.10	33523.49
524.27	33876.91
524.44	33865.21
524.61	33795.00
524.78	33855.85
524.96	34057.14
525.13	34202.25
525.30	34539.29
525.47	33886.28
525.64	34005.64
525.81	34450.35
525.98	34017.35
526.16	34298.21
526.33	34101.61
526.50	34565.03
526.67	34504.18
526.84	34483.11
527.01	34513.54
527.18	34569.71
527.36	34923.13
527.53	34724.19
527.70	34998.03
527.87	34998.03
528.04	34560.35
528.21	34616.52
528.38	35065.91
528.55	34897.39
528.72	34742.91
528.89	35215.70
529.07	34745.25
529.24	34731.21
529.41	35470.82
529.58	35178.25
529.75	35201.66
529.92	35562.10
530.09	35409.96
530.26	35508.27
530.43	35906.16
530.60	35386.56
530.77	35798.49
530.94	35817.22
531.11	35505.93
531.28	35770.41
531.46	35739.98
531.63	35899.14
531.80	35721.26
531.97	36318.09
532.14	36051.27
532.31	36341.50
532.48	36617.68
532.65	36105.10
532.82	36357.88
532.99	36215.11
533.16	36474.91
533.33	36409.37
533.50	36755.77
533.67	36613.00
533.84	36308.73
534.01	36713.64
534.18	36629.38
534.35	36933.65
534.52	37188.77
534.69	36947.70
534.86	37605.39
535.03	36912.59
535.20	36926.63
535.37	37099.83
535.54	37490.70
535.71	37062.38
535.88	37551.56
536.05	37471.98
536.22	37553.90
536.38	37443.89
536.55	37118.56
536.72	37289.42
536.89	37233.24
537.06	37530.49
537.23	37689.65
537.40	37881.57
537.57	37230.90
537.74	37593.68
537.91	38059.45
538.08	37479.00
538.25	37467.30
538.42	38029.02
538.59	38190.52
538.75	37687.31
538.92	38242.01
539.09	38249.03
539.26	38284.14
539.43	38272.44
539.60	38803.74
539.77	38326.27
539.94	38267.76
540.11	38408.19
540.28	38256.06
540.44	38712.46
540.61	38403.51
540.78	38270.10
540.95	38998.01
541.12	38817.78
541.29	38520.54
541.46	39077.58
541.62	38904.38
541.79	38958.22
541.96	38682.03
542.13	38279.46
542.30	38852.89
542.47	38607.14
542.63	39309.30
542.80	39253.12
542.97	39306.96
543.14	39526.97
543.31	39292.91
543.48	39271.85
543.64	40229.13
543.81	39669.74
543.98	40172.96
544.15	39604.20
544.32	39892.09
544.48	40039.54
544.65	39763.36
544.82	39833.58
544.99	39709.53
545.16	40219.77
545.32	39885.07
545.49	40343.81
545.66	40121.46
545.83	39971.67
546.00	40371.90
546.16	40128.48
546.33	40053.59
546.50	39810.17
546.67	40264.24
546.83	39964.65
547.00	40407.01
547.17	40219.77
547.34	40158.91
547.50	40538.08
547.67	40334.45
547.84	40645.74
548.00	40502.97
548.17	40797.88
548.34	40500.63
548.51	40741.71
548.67	40685.53
548.84	40842.35
549.01	40509.99
549.18	40896.18
549.34	41132.57
549.51	40935.97
549.68	40753.41
549.84	40898.52
550.01	41116.19
550.18	40928.95
550.34	41390.03
550.51	41120.87
550.68	41483.66
550.84	41357.27
551.01	41233.22
551.18	41350.24
551.34	41045.97
551.51	41436.84
551.68	41254.28
551.84	41469.61
552.01	41457.91
552.18	41851.12
552.34	40961.72
552.51	41317.48
552.68	41415.78
552.84	41464.93
553.01	41654.51
553.18	41982.19
553.34	41734.09
553.51	41497.70
553.67	41778.56
553.84	42155.39
554.01	41923.68
554.17	41930.70
554.34	41808.99
554.51	41780.90
554.67	42295.82
554.84	42174.11
555.00	42291.14
555.17	42024.32
555.33	41914.31
555.50	42354.33
555.67	42124.96
555.83	42382.42
556.00	42176.45
556.16	42469.02
556.33	42604.77
556.50	42403.49
556.66	42550.94
556.83	42478.38
556.99	42843.51
557.16	42529.87
557.32	42686.69
557.49	42564.98
557.65	42567.32
557.82	42557.96
557.98	42752.23
558.15	42775.63
558.32	42906.70
558.48	42815.42
558.65	42637.54
558.81	43005.00
558.98	42602.43
559.14	42602.43
559.31	42731.16
559.47	42742.86
559.64	42646.90
559.80	42876.27
559.97	43489.49
560.13	42803.72
560.30	42656.26
560.46	43236.72
560.63	43061.18
560.79	43318.64
560.96	43573.75
561.12	43482.47
561.29	43030.75
561.45	43100.97
561.61	43112.67
561.78	43215.65
561.94	43194.59
562.11	43650.99
562.27	43360.76
562.44	43133.73
562.60	43709.50
562.77	43580.78
562.93	43140.75
563.10	43433.32
563.26	43372.47
563.42	43377.15
563.59	43573.75
563.75	43328.00
563.92	43217.99
564.08	43550.35
564.24	43573.75
564.41	43416.94
564.57	43545.67
564.74	43707.16
564.90	43585.46
565.07	43899.09
565.23	43344.38
565.39	43667.37
565.56	43641.63
565.72	43557.37
565.88	43756.32
566.05	43702.48
566.21	43966.96
566.38	43812.49
566.54	44004.41
566.70	43831.21
566.87	43360.76
567.03	43669.72
567.19	43885.04
567.36	43681.42
567.52	43393.53
567.68	44212.72
567.85	43786.74
568.01	44294.64
568.17	43508.22
568.34	44116.76
568.50	44357.83
568.66	43812.49
568.83	43931.86
568.99	44381.24
569.15	43999.73
569.32	43849.94
569.48	44016.11
569.64	44215.06
569.81	44264.21
569.97	44435.07
570.13	44545.08
570.30	44147.18
570.46	44208.04
570.62	44151.87
570.78	44151.87
570.95	44519.33
571.11	44577.84
571.27	44018.46
571.43	43908.45
571.60	44507.63
571.76	44339.11
571.92	44109.74
572.09	44083.99
572.25	44119.10
572.41	44208.04
572.57	44369.54
572.74	44781.47
572.90	44301.66
573.06	44219.74
573.22	44659.76
573.38	44697.21
573.55	44095.69
573.71	44360.17
573.87	44217.40
574.03	44552.10
574.20	44729.98
574.36	44357.83
574.52	44320.38
574.68	44648.06
574.84	44594.23
575.01	44392.94
575.17	44261.87
575.33	44577.84
575.49	44247.83
575.65	44439.75
575.82	44568.48
575.98	44165.91
576.14	44776.79
576.30	44842.32
576.46	44327.41
576.62	44498.26
576.79	44507.63
576.95	44287.62
577.11	44418.69
577.27	44406.98
577.43	44940.63
577.59	44603.59
577.75	44477.20
577.92	43842.92
578.08	44212.72
578.24	44580.18
578.40	45272.98
578.56	45024.89
578.72	44467.84
578.88	44629.34
579.04	44559.12
579.21	44392.94
579.37	44584.86
579.53	44650.40
579.69	44612.95
579.85	44744.02
580.01	44280.60
580.17	44528.69
580.33	45062.33
580.49	44882.11
580.65	45088.08
580.82	44832.96
580.98	44669.12
581.14	44439.75
581.30	44552.10
581.46	45059.99
581.62	44559.12
581.78	44231.44
581.94	44758.06
582.10	44516.99
582.26	44875.09
582.42	44662.10
582.58	44598.91
582.74	44624.65
582.90	44502.95
583.06	44790.83
583.22	44421.03
583.38	44839.98
583.54	45202.77
583.70	44261.87
583.86	44488.90
584.02	44825.94
584.18	44907.86
584.34	45020.20
584.50	44809.56
584.66	44879.77
584.82	44978.07
584.98	45287.03
585.14	45392.35
585.30	45020.20
585.46	44985.10
585.62	45038.93
585.78	44910.20
585.94	44484.22
586.10	44416.35
586.26	44648.06
586.42	44781.47
586.58	44914.88
586.74	44767.43
586.90	44582.52
587.06	45048.29
587.22	44987.44
587.38	44907.86
587.54	45146.59
587.70	45291.71
587.86	45148.93
588.02	44734.66
588.18	44935.95
588.34	44722.96
588.49	45008.50
588.65	44465.50
588.81	45223.83
588.97	45090.42
589.13	44708.91
589.29	44903.18
589.45	45546.82
589.61	44914.88
589.77	45368.94
589.93	45324.47
590.08	45031.91
590.24	45223.83
590.40	45874.50
590.56	45736.41
590.72	45340.86
590.88	44748.70
591.04	45350.22
591.20	45598.32
591.35	45492.99
591.51	45572.57
591.67	45551.51
591.83	45551.51
591.99	45268.30
592.15	45127.87
592.31	45439.16
592.46	45006.16
592.62	45420.44
592.78	45390.01
592.94	45808.96
593.10	45638.11
593.26	45579.59
593.41	45614.70
593.57	45303.41
593.73	45193.40
593.89	45914.29
594.05	46370.69
594.20	45794.92
594.36	45343.20
594.52	45631.08
594.68	45242.56
594.84	45287.03
594.99	45858.12
595.15	45771.52
595.31	45535.12
595.47	45567.89
595.62	45638.11
595.78	45546.82
595.94	45872.16
596.10	45670.87
596.25	45916.63
596.41	45961.10
596.57	45319.79
596.73	45872.16
596.88	45989.19
597.04	45682.58
597.20	45907.27
597.36	45696.62
597.51	45794.92
597.67	45542.14
597.83	45549.17
597.99	45790.24
598.14	45237.87
598.30	45514.06
598.46	45698.96
598.61	46089.83
598.77	45584.27
598.93	45937.69
599.09	45628.74
599.24	46307.50
599.40	45970.46
599.56	45577.25
599.71	45752.79
599.87	46146.00
600.03	45874.50
600.18	45961.10
600.34	45738.75
600.50	45617.04
600.65	46003.23
600.81	46162.39
600.97	45654.49
601.12	45977.48
601.28	45497.67
601.44	45703.64
601.59	45640.45
601.75	45757.47
601.91	46373.03
602.06	45780.88
602.22	46237.28
602.37	45979.82
602.53	46122.60
602.69	45720.02
602.84	45965.78
603.00	45806.62
603.16	45918.97
603.31	45577.25
603.47	45998.55
603.62	45492.99
603.78	45661.51
603.94	46038.34
604.09	46106.21
604.25	45729.39
604.40	45705.98
604.56	45911.95
604.71	46143.66
604.87	45734.07
605.03	45553.85
605.18	45984.51
605.34	45509.38
605.49	45673.21
605.65	45411.07
605.80	45329.16
605.96	45553.85
606.12	45516.40
606.27	45638.11
606.43	45617.04
606.58	45808.96
606.74	44931.26
606.89	45570.23
607.05	45455.54
607.20	45837.05
607.36	45687.26
607.51	45621.72
607.67	45350.22
607.82	45490.65
607.98	45514.06
608.13	45743.43
608.29	45242.56
608.44	45673.21
608.60	45390.01
608.75	45808.96
608.91	45462.57
609.06	45553.85
609.22	45539.80
609.37	45223.83
609.53	45343.20
609.68	45881.52
609.84	44708.91
609.99	45958.76
610.15	45771.52
610.30	45162.98
610.46	45521.08
610.61	45298.73
610.76	45703.64
610.92	45357.24
611.07	45251.92
611.23	45516.40
611.38	45397.03
611.54	45525.76
611.69	45106.80
611.84	45588.95
612.00	45207.45
612.15	44825.94
612.31	45277.66
612.46	44931.26
612.62	44882.11
612.77	45427.46
612.92	45242.56
613.08	44933.60
613.23	45778.54
613.39	45429.80
613.54	45174.68
613.69	45382.99
613.85	45280.00
614.00	45179.36
614.15	45193.40
614.31	44694.87
614.46	45139.57
614.62	44940.63
614.77	45153.62
614.92	44828.28
615.08	44999.14
615.23	44865.73
615.38	44917.22
615.54	45340.86
615.69	44959.35
615.84	44959.35
616.00	44961.69
616.15	45097.44
616.30	45134.89
616.46	44767.43
616.61	44666.78
616.76	44746.36
616.92	44451.45
617.07	44715.93
617.22	44341.45
617.37	44217.40
617.53	44767.43
617.68	44521.67
617.83	44690.19
617.99	45146.59
618.14	44994.46
618.29	44605.93
618.45	44402.30
618.60	44261.87
618.75	44144.84
618.90	44509.97
619.06	44502.95
619.21	44339.11
619.36	44917.22
619.51	44301.66
619.67	44093.35
619.82	44051.22
619.97	44638.70
620.12	44488.90
620.28	44392.94
620.43	44383.58
620.58	44175.27
620.73	44573.16
620.89	44610.61
621.04	44774.45
621.19	44184.63
621.34	44318.04
621.49	44175.27
621.65	44240.81
621.80	44634.02
621.95	44142.50
622.10	44247.83
622.25	44215.06
622.41	44226.76
622.56	44083.99
622.71	44086.33
622.86	44175.27
623.01	44472.52
623.16	44219.74
623.32	43908.45
623.47	44039.52
623.62	44081.65
623.77	43957.60
623.92	44327.41
624.07	44065.27
624.23	44172.93
624.38	44238.47
624.53	44081.65
624.68	43531.62
624.83	43805.47
624.98	43592.48
625.13	43412.26
625.29	43540.99
625.44	43880.36
625.59	43723.55
625.74	43587.80
625.89	43728.23
626.04	43353.74
626.19	43728.23
626.34	43613.54
626.49	43009.68
626.65	43372.47
626.80	43283.53
626.95	42628.18
627.10	42848.19
627.25	43115.01
627.40	43292.89
627.55	43456.73
627.70	43145.44
627.85	42939.47
628.00	43126.71
628.15	43278.85
628.30	43075.22
628.45	43063.52
628.60	43147.78
628.76	42817.76
628.91	43175.86
629.06	42813.08
629.21	42763.93
629.36	42731.16
629.51	43079.90
629.66	42969.90
629.81	43082.24
629.96	42817.76
630.11	42899.68
630.26	42586.05
630.41	42951.17
630.56	43320.98
630.71	43227.35
630.86	42813.08
631.01	42911.38
631.16	42387.10
631.31	42335.61
631.46	42436.25
631.61	42817.76
631.76	42869.25
631.91	42775.63
632.06	43145.44
632.21	42841.17
632.36	42808.40
632.51	42082.83
632.66	42895.00
632.81	42579.03
632.96	42616.47
633.10	42131.98
633.25	42113.26
633.40	42827.12
633.55	42644.56
633.70	42649.24
633.85	42335.61
634.00	42351.99
634.15	41965.81
634.30	42089.85
634.45	41752.82
634.60	42199.86
634.75	42110.92
634.90	42443.27
635.05	42225.60
635.19	42553.28
635.34	42279.44
635.49	42213.90
635.64	41933.04
635.79	41844.10
635.94	42291.14
636.09	41834.74
636.24	41687.28
636.39	41741.11
636.53	42218.58
636.68	41766.86
636.83	41366.63
636.98	41523.44
637.13	41401.74
637.28	42127.30
637.43	41364.29
637.57	41904.95
637.72	41284.71
637.87	41406.42
638.02	41825.37
638.17	41787.92
638.32	41427.48
638.46	41340.88
638.61	41268.33
638.76	41310.46
638.91	41530.47
639.06	41617.07
639.20	41219.17
639.35	41462.59
639.50	41081.08
639.65	41778.56
639.80	41551.53
639.94	41471.95
640.09	41467.27
640.24	41570.25
640.39	40781.49
640.54	40837.67
640.68	41027.25
640.83	41450.89
640.98	41062.36
641.13	41081.08
641.27	41275.35
641.42	41109.17
641.57	41333.86
641.72	41038.95
641.86	40758.09
642.01	40914.90
642.16	40912.56
642.31	40645.74
642.45	40795.54
642.60	40399.99
642.75	41193.43
642.90	41165.34
643.04	40664.47
643.19	40542.76
643.34	41048.32
643.48	40179.98
643.63	40325.09
643.78	40292.32
643.93	41177.04
644.07	41064.70
644.22	40385.94
644.37	40919.59
644.51	41127.89
644.66	40774.47
644.81	40404.67
644.95	40655.11
645.10	40683.19
645.25	40388.28
645.39	40575.53
645.54	40439.78
645.69	40453.82
645.83	39976.35
645.98	40116.78
646.13	40142.53
646.27	40203.38
646.42	40421.05
646.57	40098.06
646.71	40477.22
646.86	40669.15
647.00	40322.75
647.15	40488.93
647.30	40435.10
647.44	40233.81
647.59	39971.67
647.74	39906.13
647.88	40671.49
648.03	40327.43
648.17	40329.77
648.32	40273.60
648.47	40245.51
648.61	40011.46
648.76	39756.34
648.90	39903.79
649.05	40168.27
649.20	39688.46
649.34	39831.24
649.49	39924.86
649.63	39625.27
649.78	39754.00
649.92	39943.58
650.07	40367.22
650.21	40058.27
650.36	39803.15
650.51	39669.74
650.65	39955.29
650.80	39920.18
650.94	39852.30
651.09	39676.76
651.23	39220.36
651.38	38880.98
651.52	39255.46
651.67	39456.75
651.81	39756.34
651.96	40114.44
652.10	39079.92
652.25	38855.23
652.39	39138.44
652.54	39236.74
652.68	39318.66
652.83	39262.49
652.97	39601.86
653.12	38990.98
653.26	39089.29
653.41	39297.59
653.55	39702.51
653.70	39482.50
653.84	39185.25
653.99	39316.32
654.13	38878.64
654.27	38892.68
654.42	39222.70
654.56	38920.77
654.71	39075.24
654.85	38972.26
655.00	38859.91
655.14	39054.18
655.29	39159.50
655.43	39028.43
655.57	38478.41
655.72	38202.22
655.86	38370.74
656.01	38553.30
656.15	38546.28
656.30	38380.10
656.44	38836.51
656.58	38684.37
656.73	38808.42
656.87	38375.42
657.01	38408.19
657.16	38733.53
657.30	38405.85
657.45	38249.03
657.59	38267.76
657.73	38127.33
657.88	38651.61
658.02	39159.50
658.16	38497.13
658.31	38038.39
658.45	38370.74
658.60	37888.59
658.74	38160.09
658.88	37998.60
659.03	37956.47
659.17	37947.11
659.31	37874.55
659.46	37621.77
659.60	38000.94
659.74	37944.76
659.89	37537.51
660.03	37516.45
660.17	37649.86
660.32	37801.99
660.46	37787.95
660.60	36964.08
660.74	37347.93
660.89	37612.41
661.03	37397.08
661.17	37027.28
661.32	37305.80
661.46	37266.01
661.60	37188.77
661.74	37280.05
661.89	37160.69
662.03	37280.05
662.17	37006.21
662.31	36889.18
662.46	36924.29
662.60	36711.30
662.74	36952.38
662.88	36477.25
663.03	36395.33
663.17	36154.26
663.31	36383.63
663.45	36519.38
663.60	37354.95
663.74	36786.20
663.88	36407.03
664.02	36598.96
664.17	36442.14
664.31	36294.69
664.45	36154.26
664.59	36114.47
664.73	36004.46
664.88	36484.27
665.02	35842.96
665.16	35990.42
665.30	36219.79
665.44	36280.64
665.59	35798.49
665.73	35501.25
665.87	35424.01
666.01	35384.22
666.15	35538.69
666.29	35496.56
666.44	35739.98
666.58	35772.75
666.72	35601.89
666.86	35372.52
667.00	35522.31
667.14	35332.73
667.28	35068.25
667.43	35044.84
667.57	35442.73
667.71	35519.97
667.85	35124.42
667.99	35365.49
668.13	34878.66
668.27	34693.76
668.41	34513.54
668.56	34789.72
668.70	34483.11
668.84	34543.97
668.98	34211.61
669.12	34394.17
669.26	34338.00
669.40	34508.86
669.54	34450.35
669.68	34780.36
669.82	34085.22
669.96	33869.89
670.10	34148.42
670.25	34415.24
670.39	34033.73
670.53	33902.66
670.67	34033.73
670.81	34199.91
670.95	33673.29
671.09	33741.16
671.23	33380.72
671.37	33764.57
671.51	33305.82
671.65	33446.26
671.79	33387.74
671.93	33319.87
672.07	33656.90
672.21	33209.86
672.35	32858.78
672.49	33141.99
672.63	32809.63
672.77	32755.80
672.91	33055.39
673.05	33102.20
673.19	32683.24
673.33	32584.94
673.47	33074.11
673.61	32306.41
673.75	32151.94
673.89	31943.63
674.03	32383.65
674.17	31999.80
674.31	32046.62
674.45	32119.17
674.59	32081.72
674.73	31763.41
674.87	31845.33
675.01	31276.58
675.15	31508.29
675.29	31311.69
675.43	31424.03
675.56	31924.91
675.70	31314.03
675.84	31129.12
675.98	30183.55
676.12	31218.07
676.26	31236.79
676.40	30616.55
676.54	30850.60
676.68	30672.72
676.82	30242.06
676.96	30562.72
677.10	30639.95
677.23	30902.09
677.37	30190.57
677.51	30370.79
677.65	30300.58
677.79	29940.13
677.93	29816.08
678.07	29722.46
678.21	29467.34
678.34	29713.10
678.48	29153.71
678.62	29544.58
678.76	29092.86
678.90	29268.40
679.04	29553.94
679.18	29095.20
679.31	29034.35
679.45	29036.69
679.59	28989.88
679.73	29008.60
679.87	28701.99
680.00	28912.64
680.14	28414.10
680.28	28390.70
680.42	28114.52
680.56	28379.00
680.70	28238.56
680.83	27789.18
680.97	28037.28
681.11	28133.24
681.25	27522.36
681.39	27735.35
681.52	27372.57
681.66	27552.79
681.80	26775.73
681.94	26808.50
682.07	27005.10
682.21	27000.42
682.35	26742.96
682.49	26890.41
682.62	26712.53
682.76	26888.07
682.90	26558.06
683.04	26768.71
683.17	26623.59
683.31	26113.36
683.45	26471.46
683.59	26017.40
683.72	26047.82
683.86	26113.36
684.00	25750.57
684.13	25783.34
684.27	25652.27
684.41	25577.37
684.55	25593.76
684.68	25305.87
684.82	25488.43
684.96	25415.88
685.09	24931.39
685.23	24999.26
685.37	25446.30
685.50	25172.46
685.64	25158.42
685.78	25106.93
685.91	24620.10
686.05	24400.08
686.19	24133.26
686.32	24592.01
686.46	24304.12
686.60	23639.41
686.73	24292.42
686.87	23936.66
687.01	24372.00
687.14	23995.17
687.28	23786.86
687.42	23751.76
687.55	23889.85
687.69	23522.38
687.82	23260.24
687.96	23419.40
688.10	23585.58
688.23	23222.80
688.37	23255.56
688.50	22998.10
688.64	22724.26
688.78	22735.96
688.91	23028.53
689.05	22874.06
689.18	22410.63
689.32	22073.59
689.46	22239.77
689.59	22405.95
689.73	22464.46
689.86	22216.36
690.00	22162.53
690.13	22202.32
690.27	21961.25
690.41	22202.32
690.54	21675.70
690.68	21891.03
690.81	21460.37
690.95	21060.14
691.08	21001.63
691.22	21322.28
691.35	21165.46
691.49	21238.02
691.62	21200.57
691.76	20870.56
691.89	20460.96
692.03	20559.27
692.16	20746.51
692.30	20587.35
692.43	20343.94
692.57	19903.92
692.70	20222.23
692.84	20386.07
692.97	19826.68
693.11	19988.18
693.24	19988.18
693.38	19704.97
693.51	19550.49
693.65	19545.81
693.78	19433.47
693.92	19419.42
694.05	19370.27
694.19	19194.73
694.32	19445.17
694.45	19339.85
694.59	19295.38
694.72	19328.14
694.86	19009.83
694.99	18689.18
695.13	18913.87
695.26	18424.70
695.39	18384.91
695.53	18324.05
695.66	18415.34
695.80	18270.22
695.93	18679.82
696.07	18167.24
696.20	18101.70
696.33	17673.39
696.47	17839.56
696.60	17907.44
696.73	17759.98
696.87	18012.76
697.00	17818.50
697.14	17451.03
697.27	17472.10
697.40	17532.95
697.54	17188.89
697.67	17352.73
697.80	17181.87
697.94	17172.51
698.07	16755.90
698.21	16901.01
698.34	17083.57
698.47	16856.54
698.61	16255.02
698.74	16528.86
698.87	16365.03
699.01	16269.06
699.14	16479.71
699.27	16011.60
699.40	16219.91
699.54	16065.44
699.67	16210.55
699.80	16109.91
699.94	15775.21
700.07	16020.97
700.20	16027.99
700.34	15688.61
700.47	15468.60
700.60	15936.71
700.73	15506.05
700.87	15587.97
701.00	15330.51
701.13	15169.01
701.26	14920.92
701.40	15183.06
701.53	15246.25
701.66	14981.77
701.79	14984.11
701.93	14796.87
702.06	14567.49
702.19	14520.68
702.32	14895.17
702.46	14897.51
702.59	14565.15
702.72	14586.22
702.85	14483.24
702.99	14211.73
703.12	14485.58
703.25	13975.34
703.38	14064.28
703.51	13968.32
703.65	13867.67
703.78	13872.36
703.91	13752.99
704.04	13458.08
704.17	13413.61
704.31	13591.49
704.44	13537.66
704.57	13535.32
704.70	13151.47
704.83	13317.65
704.96	13137.43
705.10	13095.30
705.23	13118.70
>>>>>End Processed Spectral Data<<<<<
