SpectraSuite Data File
++++++++++++++++++++++++++++++++++++
Date: Fri Oct 25 11:33:55 EDT 2013
User: price-jones
Dark Spectrum Present: No
Reference Spectrum Present: No
Number of Sampled Component Spectra: 1
Spectrometers: USB2+H05261
Integration Time (usec): 100000 (USB2+H05261)
Spectra Averaged: 1 (USB2+H05261)
Boxcar Smoothing: 0 (USB2+H05261)
Correct for Electrical Dark: No (USB2+H05261)
Strobe/Lamp Enabled: No (USB2+H05261)
Correct for Detector Non-linearity: No (USB2+H05261)
Correct for Stray Light: No (USB2+H05261)
Number of Pixels in Processed Spectrum: 2048
>>>>>Begin Processed Spectral Data<<<<<
365.73	280.86
365.92	280.86
366.12	280.86
366.32	222.35
366.52	131.07
366.72	177.88
366.91	194.26
367.11	177.88
367.31	177.88
367.51	198.95
367.70	278.52
367.90	187.24
368.10	142.77
368.30	184.90
368.49	205.97
368.69	229.37
368.89	229.37
369.09	173.20
369.28	238.73
369.48	180.22
369.68	266.82
369.87	217.67
370.07	241.08
370.27	283.20
370.47	292.57
370.66	463.43
370.86	437.68
371.06	533.64
371.25	573.43
371.45	526.62
371.65	545.34
371.84	528.96
372.04	496.19
372.24	533.64
372.44	589.82
372.63	592.16
372.83	559.39
373.03	620.24
373.22	622.58
373.42	582.79
373.62	613.22
373.81	695.14
374.01	660.03
374.21	622.58
374.40	622.58
374.60	599.18
374.79	634.29
374.99	706.84
375.19	622.58
375.38	660.03
375.58	690.46
375.78	713.86
375.97	638.97
376.17	709.18
376.37	622.58
376.56	669.39
376.76	671.73
376.95	688.12
377.15	674.07
377.35	655.35
377.54	641.31
377.74	650.67
377.93	657.69
378.13	627.26
378.33	718.54
378.52	622.58
378.72	690.46
378.91	716.20
379.11	723.23
379.31	669.39
379.50	685.78
379.70	709.18
379.89	678.76
380.09	788.76
380.28	711.52
380.48	758.33
380.68	685.78
380.87	784.08
381.07	765.36
381.26	772.38
381.46	760.67
381.65	807.48
381.85	723.23
382.04	758.33
382.24	748.97
382.43	709.18
382.63	706.84
382.83	765.36
383.02	819.19
383.22	833.23
383.41	816.85
383.61	814.51
383.80	791.10
384.00	739.61
384.19	758.33
384.39	772.38
384.58	814.51
384.78	870.68
384.97	760.67
385.17	805.14
385.36	880.04
385.56	830.89
385.75	823.87
385.95	880.04
386.14	933.87
386.34	835.57
386.53	837.91
386.72	805.14
386.92	992.39
387.11	950.26
387.31	894.08
387.50	854.30
387.70	891.74
387.89	837.91
388.09	835.57
388.28	887.06
388.48	905.79
388.67	898.77
388.86	940.90
389.06	901.11
389.25	866.00
389.45	929.19
389.64	936.21
389.84	924.51
390.03	1001.75
390.22	947.92
390.42	933.87
390.61	943.24
390.81	987.71
391.00	968.98
391.19	1006.43
391.39	968.98
391.58	1004.09
391.78	999.41
391.97	1008.77
392.16	1048.56
392.36	1015.79
392.55	999.41
392.75	1076.65
392.94	1025.15
393.13	1018.13
393.33	1020.47
393.52	990.05
393.71	1027.50
393.91	1053.24
394.10	1116.44
394.29	1041.54
394.49	1107.07
394.68	1043.88
394.88	1057.92
395.07	1146.86
395.26	1146.86
395.46	1156.22
395.65	1203.04
395.84	1160.91
396.04	1167.93
396.23	1163.25
396.42	1186.65
396.62	1224.10
396.81	1228.78
397.00	1177.29
397.19	1231.12
397.39	1193.67
397.58	1261.55
397.77	1270.91
397.97	1268.57
398.16	1317.72
398.35	1277.93
398.55	1217.08
398.74	1355.17
398.93	1263.89
399.12	1273.25
399.32	1270.91
399.51	1287.29
399.70	1280.27
399.90	1338.79
400.09	1301.34
400.28	1366.87
400.47	1355.17
400.67	1423.05
400.86	1380.92
401.05	1413.68
401.24	1406.66
401.44	1519.01
401.63	1387.94
401.82	1397.30
402.01	1385.60
402.21	1460.49
402.40	1409.00
402.59	1537.73
402.78	1479.22
402.97	1451.13
403.17	1570.50
403.36	1591.56
403.55	1500.28
403.74	1626.67
403.93	1467.52
404.13	1600.93
404.32	1593.90
404.51	1624.33
404.70	1612.63
404.89	1664.12
405.09	1633.69
405.28	1689.87
405.47	1685.19
405.66	1717.95
405.85	1689.87
406.05	1671.14
406.24	1657.10
406.43	1710.93
406.62	1774.13
406.81	1830.30
407.00	1771.79
407.20	1769.44
407.39	1724.97
407.58	1783.49
407.77	1788.17
407.96	1919.24
408.15	1870.09
408.34	1853.70
408.54	1930.94
408.73	1919.24
408.92	1902.86
409.11	1851.36
409.30	1963.71
409.49	1970.73
409.68	1905.20
409.87	2036.27
410.07	2176.70
410.26	2087.76
410.45	2038.61
410.64	2045.63
410.83	2218.83
411.02	2134.57
411.21	2001.16
411.40	2172.02
411.59	2136.91
411.78	2101.80
411.98	2136.91
412.17	2242.23
412.36	2272.66
412.55	2289.04
412.74	2242.23
412.93	2331.17
413.12	2310.11
413.31	2340.54
413.50	2263.30
413.69	2284.36
413.88	2490.33
414.07	2324.15
414.26	2480.97
414.45	2555.86
414.64	2445.86
414.83	2548.84
415.02	2572.25
415.22	2686.94
415.41	2649.49
415.60	2593.31
415.79	2745.45
415.98	2703.32
416.17	2712.68
416.36	2583.95
416.55	2857.79
416.74	2782.90
416.93	2839.07
417.12	2813.32
417.31	2775.88
417.50	3016.95
417.69	2836.73
417.88	3016.95
418.07	2860.13
418.26	2843.75
418.45	3049.72
418.64	3007.59
418.83	2970.14
419.02	3119.93
419.21	3138.66
419.39	3028.65
419.58	3028.65
419.77	2988.86
419.96	3077.80
420.15	3133.98
420.34	3206.53
420.53	3131.64
420.72	3148.02
420.91	3232.28
421.10	3243.98
421.29	3342.28
421.48	3126.96
421.67	3311.86
421.86	3274.41
422.05	3314.20
422.24	3164.40
422.43	3311.86
422.61	3349.31
422.80	3321.22
422.99	3365.69
423.18	3346.97
423.37	3543.57
423.56	3365.69
423.75	3372.71
423.94	3255.69
424.13	3152.70
424.32	3225.26
424.50	3368.03
424.69	3393.78
424.88	3400.80
425.07	3442.93
425.26	3403.14
425.45	3382.07
425.64	3372.71
425.83	3396.12
426.01	3478.04
426.20	3463.99
426.39	3393.78
426.58	3452.29
426.77	3496.76
426.96	3440.59
427.15	3620.81
427.33	3529.53
427.52	3581.02
427.71	3618.47
427.90	3487.40
428.09	3487.40
428.28	3583.36
428.46	3578.68
428.65	3688.68
428.84	3747.20
429.03	3740.18
429.22	3658.26
429.40	3723.79
429.59	3850.18
429.78	3630.17
429.97	3625.49
430.16	3684.00
430.34	3871.25
430.53	3950.82
430.72	3756.56
430.91	3866.56
431.10	3875.93
431.28	3861.88
431.47	3763.58
431.66	4051.47
431.85	4009.34
432.03	4025.72
432.22	3978.91
432.41	3988.27
432.60	4100.62
432.79	3953.16
432.97	4011.68
433.16	4032.74
433.35	3992.95
433.54	4142.75
433.72	4201.26
433.91	4212.96
434.10	4016.36
434.28	4098.28
434.47	4348.72
434.66	4327.65
434.85	4243.39
435.03	4353.40
435.22	4409.57
435.41	4456.38
435.59	4407.23
435.78	4442.34
435.97	4393.19
436.16	4339.35
436.34	4299.56
436.53	4470.42
436.72	4379.14
436.90	4262.12
437.09	4227.01
437.28	4449.36
437.46	4554.68
437.65	4505.53
437.84	4601.49
438.02	4568.73
438.21	4657.67
438.40	4568.73
438.58	4882.36
438.77	4634.26
438.96	4702.14
439.14	4851.93
439.33	4821.50
439.52	4847.25
439.70	4823.84
439.89	5048.54
440.08	4919.81
440.26	4868.31
440.45	4961.94
440.63	4837.89
440.82	5163.22
441.01	5041.51
441.19	5195.99
441.38	5153.86
441.57	5238.12
441.75	5228.76
441.94	5387.91
442.12	5427.70
442.31	5359.83
442.50	5324.72
442.68	5329.40
442.87	5411.32
443.05	5465.15
443.24	5547.07
443.43	5376.21
443.61	5493.24
443.80	5607.92
443.98	5408.98
444.17	5217.05
444.35	5488.56
444.54	5600.90
444.73	5516.64
444.91	5488.56
445.10	5633.67
445.28	5530.69
445.47	5657.07
445.65	5586.86
445.84	5591.54
446.02	5603.24
446.21	5729.63
446.39	5542.39
446.58	5816.23
446.77	5746.02
446.95	5607.92
447.14	5785.80
447.32	5713.25
447.51	5612.60
447.69	5617.29
447.88	5701.54
448.06	5685.16
448.25	5816.23
448.43	5846.66
448.62	5724.95
448.80	5706.23
448.99	5949.64
449.17	6017.52
449.36	5792.83
449.54	5853.68
449.73	5968.37
449.91	6015.18
450.10	5928.58
450.28	6052.63
450.46	6146.25
450.65	6146.25
450.83	5879.43
451.02	6010.50
451.20	6090.07
451.39	6038.58
451.57	6225.82
451.76	5872.40
451.94	6061.99
452.13	6141.57
452.31	6286.68
452.49	6164.97
452.68	6303.06
452.86	6270.30
453.05	6272.64
453.23	6403.71
453.42	6356.90
453.60	6202.42
453.78	6331.15
453.97	6237.53
454.15	6464.56
454.34	6396.68
454.52	6670.53
454.70	6567.54
454.89	6490.31
455.07	6466.90
455.26	6619.04
455.44	6684.57
455.62	6782.87
455.81	6635.42
455.99	6682.23
456.17	6663.51
456.36	6656.48
456.54	6775.85
456.73	6778.19
456.91	6981.82
457.09	6913.94
457.28	7061.40
457.46	6792.23
457.64	6951.39
457.83	7157.36
458.01	7007.56
458.19	7190.13
458.38	7082.46
458.56	7129.27
458.74	7148.00
458.93	7187.79
459.11	7241.62
459.29	7201.83
459.48	7026.29
459.66	7122.25
459.84	7218.21
460.03	7419.50
460.21	7468.65
460.39	7283.75
460.57	7386.73
460.76	7503.76
460.94	7576.31
461.12	7454.61
461.31	7447.58
461.49	7342.26
461.67	7403.11
461.85	7597.38
462.04	7536.52
462.22	7976.55
462.40	7709.72
462.59	7705.04
462.77	7723.77
462.95	7817.39
463.13	7646.53
463.32	7763.56
463.50	7810.37
463.68	7840.79
463.86	7815.05
464.05	7791.64
464.23	7805.69
464.41	7894.63
464.59	7784.62
464.78	8067.83
464.96	8016.33
465.14	7815.05
465.32	7936.76
465.50	7967.18
465.69	8046.76
465.87	7735.47
466.05	8067.83
466.23	8159.11
466.41	8266.77
466.60	8264.43
466.78	8112.30
466.96	8292.52
467.14	8191.88
467.32	8259.75
467.51	8219.96
467.69	7999.95
467.87	8294.86
468.05	8231.66
468.23	8077.19
468.41	8180.17
468.60	8449.33
468.78	8430.61
468.96	8287.84
469.14	8538.27
469.32	8683.39
469.50	8250.39
469.69	8807.44
469.87	8500.83
470.05	8573.38
470.23	8753.60
470.41	8664.66
470.59	8919.78
470.77	8435.29
470.95	8814.46
471.14	8823.82
471.32	8608.49
471.50	8940.85
471.68	8812.12
471.86	8961.91
472.04	9116.39
472.22	9408.95
472.40	9259.16
472.58	9067.24
472.77	9149.15
472.95	9383.21
473.13	9727.27
473.31	9280.22
473.49	9390.23
473.67	9411.29
473.85	9406.61
474.03	9497.89
474.21	9596.20
474.39	9575.13
474.57	9643.01
474.75	10026.86
474.93	9846.63
475.12	9860.68
475.30	9980.04
475.48	9921.53
475.66	10113.45
475.84	9912.17
476.02	9937.91
476.20	9942.60
476.38	10291.34
476.56	10551.14
476.74	10581.56
476.92	10501.98
477.10	10267.93
477.28	10560.50
477.46	10527.73
477.64	10693.91
477.82	10895.19
478.00	10960.73
478.18	10897.53
478.36	11197.12
478.54	11194.78
478.72	11239.25
478.90	11529.48
479.08	11513.10
479.26	11396.07
479.44	11492.03
479.62	11578.63
479.80	11889.92
479.98	11740.13
480.16	11873.54
480.34	11756.51
480.52	12100.57
480.70	12020.99
480.88	11969.50
481.06	12224.62
481.24	12255.04
481.41	12552.29
481.59	12512.50
481.77	12748.90
481.95	12901.03
482.13	12837.84
482.31	12917.42
482.49	13121.04
482.67	13219.35
482.85	13348.08
483.03	13444.04
483.21	13671.07
483.39	13586.81
483.57	13535.32
483.74	13855.97
483.92	13827.88
484.10	13820.86
484.28	14033.85
484.46	14345.14
484.64	14988.79
484.82	13977.68
485.00	14508.98
485.18	14640.05
485.35	14977.09
485.53	14941.98
485.71	15016.88
485.89	15012.20
486.07	15234.55
486.25	15398.38
486.43	15318.81
486.61	15845.43
486.78	15524.77
486.96	15758.83
487.14	15690.95
487.32	16013.95
487.50	15941.39
487.68	16566.31
487.85	16336.94
488.03	16517.16
488.21	16629.51
488.39	16568.65
488.57	16802.71
488.75	17003.99
488.92	17179.53
489.10	17387.84
489.28	17125.70
489.46	17642.96
489.64	17607.85
489.81	17764.67
489.99	18078.30
490.17	18127.45
490.35	18312.35
490.53	18288.95
490.70	18494.91
490.88	18476.19
491.06	18551.09
491.24	18787.48
491.41	18710.24
491.59	19126.86
491.77	18780.46
491.95	19066.00
492.13	19396.02
492.30	19417.08
492.48	19845.40
492.66	19473.26
492.84	19697.95
493.01	19917.96
493.19	19934.34
493.37	19967.11
493.54	19927.32
493.72	20381.38
493.90	20273.72
494.08	20475.01
494.25	20400.11
494.43	20959.50
494.61	21008.65
494.79	20968.86
494.96	21146.74
495.14	21425.26
495.32	21785.71
495.49	21507.18
495.67	21151.42
495.85	21359.73
496.02	21591.44
496.20	21907.41
496.38	22071.25
496.55	22104.02
496.73	22607.23
496.91	22469.14
497.09	22752.35
497.26	22869.37
497.44	22813.20
497.62	22958.31
497.79	23033.21
497.97	23283.65
498.14	23342.16
498.32	23480.25
498.50	23393.65
498.67	23529.41
498.85	23545.79
499.03	23908.57
499.20	23749.42
499.38	23740.05
499.56	24226.89
499.73	24088.79
499.91	24313.48
500.08	24299.44
500.26	24540.52
500.44	24456.26
500.61	24606.05
500.79	24627.12
500.97	25097.56
501.14	25177.14
501.32	25083.52
501.49	24973.52
501.67	25071.82
501.84	25387.79
502.02	24987.56
502.20	25195.87
502.37	25469.71
502.55	25825.47
502.72	25710.78
502.90	25284.81
503.07	25741.21
503.25	25795.04
503.43	26057.18
503.60	26218.68
503.78	26218.68
503.95	25963.56
504.13	25984.63
504.30	26565.08
504.48	26511.25
504.65	26883.39
504.83	26995.74
505.01	27091.70
505.18	27033.19
505.36	27257.88
505.53	26801.47
505.71	26995.74
505.88	27498.95
506.06	27065.96
506.23	27578.53
506.41	27426.40
506.58	27435.76
506.76	27388.95
506.93	27796.20
507.11	27552.79
507.28	27555.13
507.46	27599.60
507.63	28102.81
507.81	28025.57
507.98	27880.46
508.16	28236.22
508.33	28158.99
508.50	28643.48
508.68	28357.93
508.85	28945.41
509.03	28346.23
509.20	28591.98
509.38	28982.85
509.55	29062.43
509.73	28903.28
509.90	28849.44
510.08	28940.72
510.25	29104.56
510.42	29488.41
510.60	29460.32
510.77	29500.11
510.95	29937.79
511.12	29312.87
511.30	29930.77
511.47	29912.05
511.64	29542.24
511.82	29523.52
511.99	29736.51
512.17	30307.60
512.34	30326.32
512.51	30375.47
512.69	30326.32
512.86	30508.88
513.04	30649.32
513.21	30506.54
513.38	30967.63
513.56	30808.47
513.73	30679.74
513.90	31007.42
514.08	30944.22
514.25	31304.67
514.43	31180.62
514.60	31377.22
514.77	31056.57
514.95	30892.73
515.12	31342.11
515.29	31494.25
515.47	31861.71
515.64	31578.51
515.81	31424.03
515.99	31545.74
516.16	32205.77
516.33	32318.12
516.51	32343.86
516.68	32018.53
516.85	31974.06
517.03	32788.56
517.20	32797.93
517.37	32121.51
517.54	32362.59
517.72	32723.03
517.89	32620.05
518.06	32716.01
518.24	32650.47
518.41	32622.39
518.58	32804.95
518.75	32999.21
518.93	33053.05
519.10	32943.04
519.27	33509.45
519.45	33081.13
519.62	33696.69
519.79	33666.27
519.96	33556.26
520.14	33453.28
520.31	33448.60
520.48	33586.69
520.65	33750.52
520.83	34057.14
521.00	34370.77
521.17	33591.37
521.34	33862.87
521.52	34057.14
521.69	34361.40
521.86	34593.12
522.03	34132.03
522.20	35054.20
522.38	34885.68
522.55	34684.40
522.72	34644.61
522.89	34686.74
523.07	34981.65
523.24	34808.45
523.41	35033.14
523.58	34785.04
523.75	34785.04
523.92	35225.06
524.10	35054.20
524.27	35194.64
524.44	35573.80
524.61	35658.06
524.78	35658.06
524.96	35601.89
525.13	35604.23
525.30	35824.24
525.47	35583.16
525.64	35674.45
525.81	35676.79
525.98	35955.31
526.16	35995.10
526.33	35901.48
526.50	36339.16
526.67	35931.90
526.84	36205.75
527.01	36264.26
527.18	36084.04
527.36	36463.21
527.53	36643.43
527.70	36847.05
527.87	36732.37
528.04	36725.35
528.21	36863.44
528.38	36231.49
528.55	36790.88
528.72	36205.75
528.89	36786.20
529.07	36542.78
529.24	36409.37
529.41	37493.04
529.58	36966.42
529.75	36591.94
529.92	37453.25
530.09	37247.29
530.26	37191.11
530.43	37373.67
530.60	37195.79
530.77	37298.78
530.94	37542.19
531.11	37221.54
531.28	37677.94
531.46	37677.94
531.63	37914.34
531.80	37441.55
531.97	38054.77
532.14	38026.68
532.31	37738.80
532.48	37897.95
532.65	38075.84
532.82	38134.35
532.99	38251.38
533.16	38146.05
533.33	38778.00
533.50	38380.10
533.67	38176.48
533.84	38604.80
534.01	38026.68
534.18	38588.41
534.35	38763.95
534.52	38506.49
534.69	38761.61
534.86	38635.22
535.03	38808.42
535.20	39323.34
535.37	39000.35
535.54	39491.86
535.71	38864.60
535.88	39466.11
536.05	39124.40
536.22	39232.06
536.38	39328.02
536.55	39346.75
536.72	39344.41
536.89	39250.78
537.06	39756.34
537.23	39550.37
537.40	39498.88
537.57	39381.85
537.74	39503.56
537.91	39957.63
538.08	39735.27
538.25	39449.73
538.42	39573.78
538.59	40304.02
538.75	39770.38
538.92	39997.41
539.09	40158.91
539.26	40444.46
539.43	40147.21
539.60	40261.90
539.77	40151.89
539.94	40804.90
540.11	40849.37
540.28	40289.98
540.44	40828.30
540.61	40165.93
540.78	40451.48
540.95	40212.74
541.12	40219.77
541.29	40563.82
541.46	40896.18
541.62	40210.40
541.79	41188.75
541.96	40299.34
542.13	40608.29
542.30	41027.25
542.47	40521.69
542.63	40987.46
542.80	41296.41
542.97	41132.57
543.14	41570.25
543.31	41380.67
543.48	41317.48
543.64	41691.96
543.81	41895.59
543.98	41652.17
544.15	41390.03
544.32	42089.85
544.48	42110.92
544.65	41741.11
544.82	41911.97
544.99	41542.17
545.16	42141.35
545.32	41902.61
545.49	42195.18
545.66	42270.08
545.83	42101.56
546.00	42024.32
546.16	42227.95
546.33	41645.15
546.50	42131.98
546.67	42579.03
546.83	42171.77
547.00	41979.85
547.17	42220.92
547.34	42497.11
547.50	42183.48
547.67	42672.65
547.84	42384.76
548.00	42616.47
548.17	42965.21
548.34	42817.76
548.51	42789.67
548.67	42658.60
548.84	42838.83
549.01	42766.27
549.18	43086.92
549.34	43138.41
549.51	42990.96
549.68	43115.01
549.84	42937.13
550.01	43250.76
550.18	42827.12
550.34	42955.85
550.51	42822.44
550.68	43555.03
550.84	42951.17
551.01	44011.43
551.18	43250.76
551.34	43487.15
551.51	43782.06
551.68	43587.80
551.84	43290.55
552.01	43510.56
552.18	43466.09
552.34	43505.88
552.51	43735.25
552.68	43283.53
552.84	43885.04
553.01	43723.55
553.18	43590.14
553.34	43917.81
553.51	44032.50
553.67	44020.80
553.84	44034.84
554.01	43793.76
554.17	43718.87
554.34	44304.00
554.51	43936.54
554.67	44346.13
554.84	44210.38
555.00	44149.53
555.17	43856.96
555.33	44058.24
555.50	44273.57
555.67	44357.83
555.83	44584.86
556.00	43910.79
556.16	44931.26
556.33	44793.17
556.50	44275.91
556.66	44282.94
556.83	43910.79
556.99	44727.64
557.16	44559.12
557.32	44722.96
557.49	44786.15
557.65	44222.08
557.82	44605.93
557.98	44863.39
558.15	44584.86
558.32	44781.47
558.48	44704.23
558.65	44830.62
558.81	44856.37
558.98	44828.28
559.14	44467.84
559.31	44830.62
559.47	44734.66
559.64	44575.50
559.80	44741.68
559.97	45031.91
560.13	44898.50
560.30	44699.55
560.46	45151.27
560.63	45350.22
560.79	45272.98
560.96	45146.59
561.12	45081.06
561.29	45659.17
561.45	45027.23
561.61	45565.55
561.78	45251.92
561.94	44945.31
562.11	45188.72
562.27	44765.09
562.44	45289.37
562.60	45759.81
562.77	45237.87
562.93	45380.65
563.10	45705.98
563.26	45549.17
563.42	45872.16
563.59	45450.86
563.75	45347.88
563.92	45518.74
564.08	45170.00
564.24	45287.03
564.41	45455.54
564.57	45631.08
564.74	45661.51
564.90	45640.45
565.07	45830.03
565.23	45441.50
565.39	45778.54
565.56	45584.27
565.72	46218.56
565.88	45530.44
566.05	45577.25
566.21	45696.62
566.38	45483.63
566.54	45619.38
566.70	46021.95
566.87	45865.14
567.03	45537.46
567.19	46195.15
567.36	45722.37
567.52	46045.36
567.68	46047.70
567.85	46466.66
568.01	46026.63
568.17	45841.73
568.34	46403.46
568.50	46043.02
568.66	45935.35
568.83	45907.27
568.99	45907.27
569.15	46389.42
569.32	45834.71
569.48	45998.55
569.64	46735.82
569.81	46120.26
569.97	46087.49
570.13	46553.26
570.30	45659.17
570.46	46146.00
570.62	46394.10
570.78	46071.10
570.95	46085.15
571.11	46368.35
571.27	46377.72
571.43	46218.56
571.60	46050.04
571.76	46080.47
571.92	46106.21
572.09	46227.92
572.25	46019.61
572.41	46426.87
572.57	46380.06
572.74	46799.01
572.90	45991.53
573.06	46356.65
573.22	46667.94
573.38	46506.44
573.55	46260.69
573.71	46761.56
573.87	46543.89
574.03	46160.05
574.20	46887.95
574.36	46567.30
574.52	46574.32
574.68	46527.51
574.84	46562.62
575.01	46742.84
575.17	46902.00
575.33	46471.34
575.49	46499.42
575.65	46789.65
575.82	46813.05
575.98	46857.52
576.14	46731.14
576.30	46667.94
576.46	46773.27
576.62	46492.40
576.79	46415.16
576.95	46497.08
577.11	46209.20
577.27	46639.86
577.43	46490.06
577.59	46993.28
577.75	46958.17
577.92	46464.32
578.08	46122.60
578.24	46670.28
578.40	47150.09
578.56	46644.54
578.72	46866.89
578.88	46944.12
579.04	46667.94
579.21	46630.49
579.37	46532.19
579.53	46997.96
579.69	46546.23
579.85	46490.06
580.01	46660.92
580.17	46862.21
580.33	46789.65
580.49	46761.56
580.65	47145.41
580.82	46686.67
580.98	46361.33
581.14	46555.60
581.30	47049.45
581.46	46693.69
581.62	46876.25
581.78	46646.88
581.94	46937.10
582.10	46946.47
582.26	46862.21
582.42	46635.17
582.58	46852.84
582.74	46710.07
582.90	46635.17
583.06	46866.89
583.22	46864.55
583.38	46316.86
583.54	46953.49
583.70	47004.98
583.86	46995.62
584.02	46672.62
584.18	47248.39
584.34	46904.34
584.50	47098.60
584.66	47119.66
584.82	47168.82
584.98	47433.30
585.14	47154.77
585.30	46873.91
585.46	46689.01
585.62	47065.83
585.78	47049.45
585.94	46490.06
586.10	47023.70
586.26	46553.26
586.42	47000.30
586.58	47019.02
586.74	46822.42
586.90	46782.63
587.06	46906.68
587.22	47248.39
587.38	46873.91
587.54	47224.99
587.70	47320.95
587.86	47243.71
588.02	47033.07
588.18	46693.69
588.34	47096.26
588.49	47107.96
588.65	47002.64
588.81	47215.63
588.97	47124.35
589.13	46698.37
589.29	47185.20
589.45	47117.32
589.61	47044.77
589.77	47316.27
589.93	47049.45
590.08	47437.98
590.24	47409.89
590.40	47866.30
590.56	47487.13
590.72	47173.50
590.88	47049.45
591.04	47772.67
591.20	47606.50
591.35	47913.11
591.51	47976.30
591.67	47093.92
591.83	47393.51
591.99	47477.77
592.15	47391.17
592.31	47875.66
592.46	47421.59
592.62	47543.30
592.78	47625.22
592.94	47845.23
593.10	47873.32
593.26	47686.07
593.41	47767.99
593.57	47557.35
593.73	48081.63
593.89	47934.17
594.05	47700.12
594.20	47618.20
594.36	48079.28
594.52	47716.50
594.68	47360.74
594.84	47604.16
594.99	47810.12
595.15	48020.77
595.31	47796.08
595.47	47723.52
595.62	47402.87
595.78	47707.14
595.94	47625.22
596.10	47636.92
596.25	47784.38
596.41	47723.52
596.57	47952.90
596.73	47840.55
596.88	47536.28
597.04	47838.21
597.20	47679.05
597.36	47475.43
597.51	47571.39
597.67	47636.92
597.83	47550.32
597.99	48034.81
598.14	47510.53
598.30	47503.51
598.46	47903.74
598.61	47985.66
598.77	47763.31
598.93	47917.79
599.09	47552.66
599.24	47831.19
599.40	48151.84
599.56	48016.09
599.71	48006.73
599.87	48175.25
600.03	48266.53
600.18	48163.54
600.34	47924.81
600.50	48121.41
600.65	47955.24
600.81	48245.46
600.97	48128.44
601.12	48140.14
601.28	48229.08
601.44	47746.93
601.59	48236.10
601.75	47613.52
601.91	48266.53
602.06	47714.16
602.22	47880.34
602.37	47662.67
602.53	47826.51
602.69	48236.10
602.84	47990.34
603.00	48002.05
603.16	48128.44
603.31	47789.06
603.47	48102.69
603.62	47739.91
603.78	48053.54
603.94	48102.69
604.09	48191.63
604.25	47973.96
604.40	47840.55
604.56	47964.60
604.71	48196.31
604.87	47639.26
605.03	47505.85
605.18	47786.72
605.34	47540.96
605.49	47592.45
605.65	48161.20
605.80	47590.11
605.96	47819.49
606.12	47627.56
606.27	47592.45
606.43	47578.41
606.58	48018.43
606.74	47758.63
606.89	47810.12
607.05	47899.06
607.20	47636.92
607.36	47454.36
607.51	47906.08
607.67	47662.67
607.82	47641.60
607.98	47805.44
608.13	47414.57
608.29	47590.11
608.44	47814.80
608.60	47229.67
608.75	47828.85
608.91	47540.96
609.06	47590.11
609.22	47910.77
609.37	47559.69
609.53	47859.27
609.68	47821.83
609.84	47386.49
609.99	47885.02
610.15	47379.46
610.30	47742.25
610.46	47283.50
610.61	47248.39
610.76	47859.27
610.92	47526.92
611.07	47143.07
611.23	47608.84
611.38	47657.99
611.54	47547.98
611.69	47388.83
611.84	47351.38
612.00	47643.94
612.15	47618.20
612.31	47210.95
612.46	47105.62
612.62	46997.96
612.77	47157.11
612.92	47702.46
613.08	47166.48
613.23	47477.77
613.39	47606.50
613.54	47573.73
613.69	47402.87
613.85	47180.52
614.00	47187.54
614.15	47271.80
614.31	46906.68
614.46	47250.74
614.62	46658.58
614.77	47232.01
614.92	47185.20
615.08	47248.39
615.23	47009.66
615.38	47131.37
615.54	46850.50
615.69	47030.72
615.84	46958.17
616.00	47295.21
616.15	47105.62
616.30	47292.86
616.46	47136.05
616.61	47119.66
616.76	47615.86
616.92	46904.34
617.07	47274.14
617.22	47061.15
617.37	46518.15
617.53	46813.05
617.68	46777.95
617.83	47129.03
617.99	47140.73
618.14	47054.13
618.29	46728.80
618.45	46775.61
618.60	46195.15
618.75	46225.58
618.90	46684.33
619.06	46789.65
619.21	46291.12
619.36	46944.12
619.51	46740.50
619.67	46131.96
619.82	46712.41
619.97	46883.27
620.12	46555.60
620.28	46199.83
620.43	46824.76
620.58	46403.46
620.73	46571.98
620.89	46684.33
621.04	46387.08
621.19	46614.11
621.34	46705.39
621.49	46452.61
621.65	46571.98
621.80	46703.05
621.95	46454.95
622.10	46607.09
622.25	45930.67
622.41	46197.49
622.56	45846.41
622.71	46396.44
622.86	46625.81
623.01	46731.14
623.16	46431.55
623.32	46298.14
623.47	46087.49
623.62	46113.23
623.77	46366.01
623.92	46576.66
624.07	46178.77
624.23	46153.02
624.38	46169.41
624.53	46234.94
624.68	45488.31
624.83	45998.55
624.98	45904.93
625.13	45715.34
625.29	45799.60
625.44	45865.14
625.59	45902.59
625.74	45961.10
625.89	45659.17
626.04	45933.01
626.19	45523.42
626.34	45457.88
626.49	45717.68
626.65	45490.65
626.80	45645.13
626.95	45478.95
627.10	45277.66
627.25	45984.51
627.40	45717.68
627.55	45612.36
627.70	45195.74
627.85	45888.54
628.00	45558.53
628.15	45546.82
628.30	45170.00
628.45	45406.39
628.60	45013.18
628.76	45015.52
628.91	44683.17
629.06	44720.62
629.21	45010.84
629.36	45027.23
629.51	45322.13
629.66	45591.30
629.81	45102.12
629.96	45240.21
630.11	45165.32
630.26	44779.13
630.41	45099.78
630.56	44809.56
630.71	44851.69
630.86	45247.24
631.01	45237.87
631.16	44542.74
631.31	44722.96
631.46	44830.62
631.61	44982.76
631.76	45102.12
631.91	44645.72
632.06	44722.96
632.21	44959.35
632.36	45134.89
632.51	44589.55
632.66	44987.44
632.81	44652.74
632.96	44971.05
633.10	44634.02
633.25	44540.39
633.40	44318.04
633.55	44753.38
633.70	44769.77
633.85	43910.79
634.00	44296.98
634.15	44301.66
634.30	44275.91
634.45	44273.57
634.60	44739.34
634.75	44727.64
634.90	44364.85
635.05	44706.57
635.19	43959.94
635.34	44561.46
635.49	44172.93
635.64	44367.20
635.79	43796.10
635.94	44233.78
636.09	44589.55
636.24	44189.31
636.39	44179.95
636.53	44505.29
636.68	44002.07
636.83	43765.68
636.98	44018.46
637.13	43522.26
637.28	43761.00
637.43	44194.00
637.57	43405.23
637.72	43763.34
637.87	43999.73
638.02	43674.40
638.17	43512.90
638.32	43936.54
638.46	43964.62
638.61	43377.15
638.76	43555.03
638.91	43445.02
639.06	43426.30
639.20	43229.69
639.35	43203.95
639.50	43154.80
639.65	44009.09
639.80	44126.12
639.94	43489.49
640.09	43840.57
640.24	43452.05
640.39	43187.56
640.54	42955.85
640.68	43229.69
640.83	43655.67
640.98	43196.93
641.13	43056.50
641.27	43515.24
641.42	43026.07
641.57	43320.98
641.72	43143.09
641.86	43061.18
642.01	43089.26
642.16	42600.09
642.31	42946.49
642.45	43253.10
642.60	42946.49
642.75	42911.38
642.90	43323.32
643.04	43180.54
643.19	42831.80
643.34	42951.17
643.48	42506.47
643.63	42649.24
643.78	42934.79
643.93	42754.57
644.07	42761.59
644.22	43005.00
644.37	42932.45
644.51	42752.23
644.66	42548.60
644.81	42651.58
644.95	42733.50
645.10	42469.02
645.25	42412.85
645.39	42384.76
645.54	42443.27
645.69	42204.54
645.83	42459.66
645.98	42614.13
646.13	41909.63
646.27	42284.12
646.42	41937.72
646.57	42525.19
646.71	42134.32
646.86	42564.98
647.00	42731.16
647.15	42518.17
647.30	42178.79
647.44	42249.01
647.59	42005.59
647.74	42085.17
647.88	41729.41
648.03	42518.17
648.17	42366.04
648.32	42094.53
648.47	42237.31
648.61	42359.02
648.76	42108.58
648.90	41914.31
649.05	42359.02
649.20	42150.71
649.34	42106.24
649.49	42178.79
649.63	42085.17
649.78	42017.30
649.92	42068.79
650.07	42639.88
650.21	41834.74
650.36	42171.77
650.51	42019.64
650.65	42146.03
650.80	42014.96
650.94	41823.03
651.09	41937.72
651.23	41120.87
651.38	41359.61
651.52	41493.02
651.67	41364.29
651.81	41881.55
651.96	41984.53
652.10	41102.15
652.25	41202.79
652.39	41619.41
652.54	41544.51
652.68	41373.65
652.83	41642.81
652.97	41675.58
653.12	41153.64
653.26	41375.99
653.41	41406.42
653.55	41205.13
653.70	41497.70
653.84	41195.77
653.99	41673.24
654.13	41528.13
654.27	40947.67
654.42	40938.31
654.56	41425.14
654.71	41254.28
654.85	40968.74
655.00	41163.00
655.14	41104.49
655.29	41139.60
655.43	41333.86
655.57	40945.33
655.72	40598.93
655.86	40650.42
656.01	40336.79
656.15	40566.16
656.30	40772.13
656.44	40786.18
656.58	41151.30
656.73	40474.88
656.87	40538.08
657.01	40210.40
657.16	40659.79
657.30	40666.81
657.45	40711.28
657.59	40545.10
657.73	40392.97
657.88	40381.26
658.02	40404.67
658.16	40617.66
658.31	40552.12
658.45	40311.05
658.60	40130.83
658.74	40411.69
658.88	40032.52
659.03	40292.32
659.17	40018.48
659.31	40187.00
659.46	40137.85
659.60	40130.83
659.74	39920.18
659.89	39845.28
660.03	39489.52
660.17	40144.87
660.32	39667.40
660.46	39854.64
660.60	39758.68
660.74	39374.83
660.89	39386.54
661.03	38710.12
661.17	39182.91
661.32	39232.06
661.46	39805.49
661.60	39157.16
661.74	39061.20
661.89	39051.84
662.03	39342.06
662.17	39248.44
662.31	39267.17
662.46	38939.49
662.60	38930.13
662.74	38466.70
662.88	38728.84
663.03	37963.49
663.17	38447.98
663.31	38473.73
663.45	38831.83
663.60	38944.17
663.74	38478.41
663.88	38110.94
664.02	38340.32
664.17	38691.40
664.31	38022.00
664.45	37581.98
664.59	38239.67
664.73	38195.20
664.88	37783.27
665.02	38455.00
665.16	38040.73
665.30	38024.34
665.44	37975.19
665.59	37174.73
665.73	37780.93
665.87	37633.47
666.01	37450.91
666.15	37345.59
666.29	37111.53
666.44	37853.48
666.58	37605.39
666.72	37200.47
666.86	37242.60
667.00	37160.69
667.14	37324.52
667.28	37102.17
667.43	37266.01
667.57	37574.96
667.71	37249.63
667.85	37055.36
667.99	37301.12
668.13	36971.10
668.27	36921.95
668.41	36896.20
668.56	36240.86
668.70	35786.79
668.84	36177.66
668.98	36257.24
669.12	36414.05
669.26	36638.75
669.40	36271.28
669.54	36332.14
669.68	36376.61
669.82	36065.31
669.96	35798.49
670.10	35683.81
670.25	35604.23
670.39	35901.48
670.53	35894.46
670.67	35756.36
670.81	36009.14
670.95	35749.34
671.09	35400.60
671.23	35655.72
671.37	35489.54
671.51	35407.62
671.65	35143.14
671.79	35328.05
671.93	35342.09
672.07	35442.73
672.21	35124.42
672.35	34600.14
672.49	35164.21
672.63	35363.15
672.77	34550.99
672.91	34925.47
673.05	34972.28
673.19	34565.03
673.33	34464.39
673.47	34258.42
673.61	34087.56
673.75	34106.29
673.89	34499.50
674.03	33715.42
674.17	33708.40
674.31	34045.43
674.45	33713.08
674.59	33694.35
674.73	33727.12
674.87	33317.53
675.01	33106.88
675.15	33273.06
675.29	33427.53
675.43	33553.92
675.56	33392.42
675.70	33113.90
675.84	32514.72
675.98	32320.46
676.12	32744.09
676.26	33130.28
676.40	32622.39
676.54	32369.61
676.68	32357.91
676.82	31695.53
676.96	32355.57
677.10	32435.14
677.23	32067.68
677.37	32163.64
677.51	32175.34
677.65	31754.05
677.79	32018.53
677.93	31716.60
678.07	31398.29
678.21	31393.61
678.34	31122.10
678.48	31014.44
678.62	31145.51
678.76	30895.07
678.90	30862.30
679.04	30923.16
679.18	31229.77
679.31	30803.79
679.45	30672.72
679.59	30424.62
679.73	30588.46
679.87	30071.20
680.00	30345.05
680.14	30576.76
680.28	29907.37
680.42	30153.12
680.56	30085.25
680.70	29659.27
680.83	29474.37
680.97	29343.30
681.11	29577.35
681.25	29465.00
681.39	29017.96
681.52	29205.20
681.66	29151.37
681.80	28807.31
681.94	28985.19
682.07	28517.09
682.21	28678.58
682.35	28278.35
682.49	28315.80
682.62	28332.18
682.76	28486.66
682.90	28631.77
683.04	27915.57
683.17	27810.25
683.31	27786.84
683.45	27604.28
683.59	27491.93
683.72	27356.18
683.86	27782.16
684.00	27365.54
684.13	27580.87
684.27	27318.73
684.41	26878.71
684.55	27168.94
684.68	26876.37
684.82	26604.87
684.96	26368.48
685.09	26752.32
685.23	26621.25
685.37	27103.40
685.50	26710.19
685.64	26197.62
685.78	26281.88
685.91	26235.06
686.05	25762.28
686.19	25399.49
686.32	25743.55
686.46	25362.04
686.60	25207.57
686.73	25385.45
686.87	25507.16
687.01	25678.02
687.14	25385.45
687.28	25282.47
687.42	25130.33
687.55	24837.76
687.69	24861.17
687.82	24559.24
687.96	24348.59
688.10	24465.62
688.23	24709.04
688.37	24372.00
688.50	24891.60
688.64	24446.90
688.78	24390.72
688.91	24023.26
689.05	24334.55
689.18	23929.64
689.32	23391.31
689.46	23690.90
689.59	23723.67
689.73	23756.44
689.86	23751.76
690.00	23726.01
690.13	23335.14
690.27	23325.78
690.41	23419.40
690.54	22955.97
690.68	22829.59
690.81	22511.27
690.95	22317.01
691.08	22499.57
691.22	22546.38
691.35	22401.27
691.49	22654.05
691.62	22209.34
691.76	22153.17
691.89	21661.66
692.03	21696.77
692.16	21717.83
692.30	21324.62
692.43	21443.99
692.57	21387.82
692.70	21284.83
692.84	21436.97
692.97	21226.32
693.11	21348.03
693.24	20809.70
693.38	20617.78
693.51	20491.39
693.65	20788.64
693.78	20542.88
693.92	20713.74
694.05	20428.20
694.19	20278.40
694.32	20650.55
694.45	20414.15
694.59	20589.69
694.72	20294.79
694.86	19957.75
694.99	19730.72
695.13	19590.28
695.26	19501.34
695.39	19831.36
695.53	19587.94
695.66	19669.86
695.80	19515.39
695.93	19648.80
696.07	18972.38
696.20	18794.50
696.33	19009.83
696.47	18714.92
696.60	18878.76
696.73	18867.06
696.87	18892.80
697.00	18700.88
697.14	18609.60
697.27	18579.17
697.40	18153.20
697.54	18473.85
697.67	18242.14
697.80	18284.26
697.94	17891.06
698.07	18080.64
698.21	18143.83
698.34	17844.24
698.47	17869.99
698.61	17343.37
698.74	17411.25
698.87	17516.57
699.01	17275.49
699.14	17298.90
699.27	17137.40
699.40	17116.34
699.54	17214.64
699.67	17088.25
699.80	17324.65
699.94	17090.59
700.07	16889.31
700.20	16800.37
700.34	16622.48
700.47	16610.78
700.60	16561.63
700.73	16753.55
700.87	16350.98
701.00	15917.98
701.13	16053.73
701.26	16086.50
701.40	15950.75
701.53	15707.34
701.66	15964.79
701.79	15777.55
701.93	15676.91
702.06	15466.26
702.19	15527.11
702.32	15473.28
702.46	15445.20
702.59	15534.14
702.72	15400.72
702.85	15344.55
702.99	15232.21
703.12	15094.11
703.25	15023.90
703.38	14850.70
703.51	14981.77
703.65	14710.27
703.78	14691.54
703.91	14415.36
704.04	14160.24
704.17	14370.89
704.31	14150.88
704.44	14445.79
704.57	13984.70
704.70	14127.47
704.83	14178.97
704.96	14022.15
705.10	13970.66
705.23	13996.40
>>>>>End Processed Spectral Data<<<<<
