SpectraSuite Data File
++++++++++++++++++++++++++++++++++++
Date: Fri Oct 25 11:34:12 EDT 2013
User: price-jones
Dark Spectrum Present: No
Reference Spectrum Present: No
Number of Sampled Component Spectra: 1
Spectrometers: USB2+H05261
Integration Time (usec): 100000 (USB2+H05261)
Spectra Averaged: 1 (USB2+H05261)
Boxcar Smoothing: 0 (USB2+H05261)
Correct for Electrical Dark: No (USB2+H05261)
Strobe/Lamp Enabled: No (USB2+H05261)
Correct for Detector Non-linearity: No (USB2+H05261)
Correct for Stray Light: No (USB2+H05261)
Number of Pixels in Processed Spectrum: 2048
>>>>>Begin Processed Spectral Data<<<<<
365.73	243.42
365.92	243.42
366.12	243.42
366.32	238.73
366.52	126.39
366.72	133.41
366.91	175.54
367.11	231.71
367.31	212.99
367.51	170.86
367.70	259.80
367.90	208.31
368.10	170.86
368.30	177.88
368.49	166.18
368.69	208.31
368.89	271.50
369.09	191.92
369.28	189.58
369.48	210.65
369.68	252.78
369.87	210.65
370.07	252.78
370.27	248.10
370.47	273.84
370.66	493.85
370.86	594.50
371.06	493.85
371.25	568.75
371.45	535.98
371.65	571.09
371.84	533.64
372.04	507.90
372.24	585.13
372.44	575.77
372.63	524.28
372.83	552.37
373.03	624.92
373.22	624.92
373.42	531.30
373.62	566.41
373.81	645.99
374.01	608.54
374.21	538.32
374.40	606.20
374.60	667.05
374.79	662.37
374.99	650.67
375.19	592.16
375.38	643.65
375.58	610.88
375.78	636.63
375.97	697.48
376.17	723.23
376.37	624.92
376.56	671.73
376.76	613.22
376.95	669.39
377.15	723.23
377.35	706.84
377.54	648.33
377.74	606.20
377.93	699.82
378.13	699.82
378.33	744.29
378.52	690.46
378.72	706.84
378.91	681.10
379.11	704.50
379.31	704.50
379.50	674.07
379.70	669.39
379.89	760.67
380.09	657.69
380.28	732.59
380.48	690.46
380.68	730.25
380.87	695.14
381.07	706.84
381.26	809.83
381.46	753.65
381.65	765.36
381.85	802.80
382.04	720.88
382.24	748.97
382.43	784.08
382.63	795.78
382.83	807.48
383.02	795.78
383.22	844.93
383.41	774.72
383.61	842.59
383.80	835.57
384.00	753.65
384.19	793.44
384.39	774.72
384.58	856.64
384.78	772.38
384.97	823.87
385.17	791.10
385.36	858.98
385.56	959.62
385.75	779.40
385.95	823.87
386.14	828.55
386.34	851.96
386.53	940.90
386.72	912.81
386.92	940.90
387.11	898.77
387.31	786.42
387.50	866.00
387.70	870.68
387.89	873.02
388.09	875.36
388.28	929.19
388.48	891.74
388.67	940.90
388.86	936.21
389.06	929.19
389.25	880.04
389.45	924.51
389.64	992.39
389.84	945.58
390.03	938.55
390.22	896.43
390.42	922.17
390.61	901.11
390.81	990.05
391.00	1008.77
391.19	950.26
391.39	978.34
391.58	1039.20
391.78	978.34
391.97	1032.18
392.16	950.26
392.36	1036.86
392.55	1043.88
392.75	1048.56
392.94	1039.20
393.13	1074.31
393.33	992.39
393.52	990.05
393.71	1022.81
393.91	1032.18
394.10	1076.65
394.29	1118.78
394.49	1121.12
394.68	1135.16
394.88	1086.01
395.07	1158.57
395.26	1135.16
395.46	1083.67
395.65	1064.94
395.84	1181.97
396.04	1249.85
396.23	1177.29
396.42	1188.99
396.62	1121.12
396.81	1123.46
397.00	1188.99
397.19	1186.65
397.39	1177.29
397.58	1226.44
397.77	1174.95
397.97	1282.61
398.16	1294.32
398.35	1217.08
398.55	1261.55
398.74	1313.04
398.93	1266.23
399.12	1387.94
399.32	1287.29
399.51	1299.00
399.70	1376.24
399.90	1387.94
400.09	1329.42
400.28	1397.30
400.47	1350.49
400.67	1359.85
400.86	1270.91
401.05	1451.13
401.24	1376.24
401.44	1317.72
401.63	1399.64
401.82	1409.00
402.01	1427.73
402.21	1472.20
402.40	1416.02
402.59	1409.00
402.78	1430.07
402.97	1458.15
403.17	1418.36
403.36	1528.37
403.55	1509.65
403.74	1596.25
403.93	1528.37
404.13	1664.12
404.32	1586.88
404.51	1605.61
404.70	1675.82
404.89	1575.18
405.09	1722.63
405.28	1619.65
405.47	1675.82
405.66	1715.61
405.85	1678.16
406.05	1631.35
406.24	1785.83
406.43	1734.34
406.62	1720.29
406.81	1715.61
407.00	1717.95
407.20	1760.08
407.39	1729.66
407.58	1790.51
407.77	1872.43
407.96	1839.66
408.15	1856.04
408.34	1790.51
408.54	1891.15
408.73	1827.96
408.92	1827.96
409.11	2036.27
409.30	1928.60
409.49	1942.64
409.68	1977.75
409.87	1933.28
410.07	2010.52
410.26	2017.54
410.45	1919.24
410.64	2040.95
410.83	2087.76
411.02	2127.55
411.21	2083.08
411.40	2064.35
411.59	2118.18
411.78	2150.95
411.98	2167.34
412.17	2186.06
412.36	2242.23
412.55	2204.78
412.74	2300.75
412.93	2377.98
413.12	2291.38
413.31	2377.98
413.50	2375.64
413.69	2401.39
413.88	2333.51
414.07	2424.80
414.26	2530.12
414.45	2436.50
414.64	2438.84
414.83	2553.52
415.02	2487.99
415.22	2607.36
415.41	2555.86
415.60	2595.65
415.79	2656.51
415.98	2614.38
416.17	2731.41
416.36	2658.85
416.55	2754.81
416.74	2677.57
416.93	2895.24
417.12	2782.90
417.31	2726.72
417.50	2848.43
417.69	2958.44
417.88	2853.11
418.07	2785.24
418.26	2738.43
418.45	2754.81
418.64	2937.37
418.83	2984.18
419.02	3047.38
419.21	3014.61
419.39	2988.86
419.58	3007.59
419.77	3049.72
419.96	3148.02
420.15	3199.51
420.34	3082.49
420.53	3052.06
420.72	3166.74
420.91	3117.59
421.10	3253.34
421.29	3215.90
421.48	3316.54
421.67	3201.85
421.86	3192.49
422.05	3136.32
422.24	3283.77
422.43	3290.79
422.61	3197.17
422.80	3358.67
422.99	3295.47
423.18	3318.88
423.37	3426.54
423.56	3169.09
423.75	3417.18
423.94	3260.37
424.13	3311.86
424.32	3178.45
424.50	3363.35
424.69	3538.89
424.88	3248.66
425.07	3349.31
425.26	3337.60
425.45	3344.63
425.64	3365.69
425.83	3351.65
426.01	3410.16
426.20	3412.50
426.39	3318.88
426.58	3267.39
426.77	3454.63
426.96	3562.30
427.15	3541.23
427.33	3564.64
427.52	3356.33
427.71	3513.14
427.90	3503.78
428.09	3632.51
428.28	3651.24
428.46	3590.38
428.65	3606.77
428.84	3765.92
429.03	3688.68
429.22	3653.58
429.40	3627.83
429.59	3641.87
429.78	3646.55
429.97	3576.34
430.16	3679.32
430.34	3728.47
430.53	3878.27
430.72	3789.33
430.91	3873.59
431.10	3770.60
431.28	3896.99
431.47	3936.78
431.66	3983.59
431.85	3857.20
432.03	4056.15
432.22	3995.29
432.41	3953.16
432.60	4018.70
432.79	3995.29
432.97	4112.32
433.16	4126.36
433.35	3889.97
433.54	3999.98
433.72	3999.98
433.91	4142.75
434.10	4159.13
434.28	3906.35
434.47	4180.20
434.66	4109.98
434.85	4166.15
435.03	4248.07
435.22	4327.65
435.41	4348.72
435.59	4173.18
435.78	4227.01
435.97	4133.39
436.16	4227.01
436.34	4344.03
436.53	4287.86
436.72	4435.32
436.90	4383.82
437.09	4418.93
437.28	4299.56
437.46	4496.17
437.65	4503.19
437.84	4540.64
438.02	4404.89
438.21	4575.75
438.40	4470.42
438.58	4636.60
438.77	4507.87
438.96	4512.55
439.14	4791.08
439.33	4711.50
439.52	4826.18
439.70	4781.71
439.89	4919.81
440.08	4865.97
440.26	4973.64
440.45	5039.17
440.63	5139.82
440.82	5006.41
441.01	4975.98
441.19	5060.24
441.38	5200.67
441.57	5186.63
441.75	5245.14
441.94	5256.84
442.12	5188.97
442.31	5397.28
442.50	5336.42
442.68	5324.72
442.87	5352.81
443.05	5252.16
443.24	5558.77
443.43	5359.83
443.61	5385.57
443.80	5577.50
443.98	5390.25
444.17	5359.83
444.35	5408.98
444.54	5591.54
444.73	5507.28
444.91	5467.49
445.10	5474.51
445.28	5596.22
445.47	5359.83
445.65	5465.15
445.84	5589.20
446.02	5551.75
446.21	5568.13
446.39	5654.73
446.58	5617.29
446.77	5598.56
446.95	5565.79
447.14	5638.35
447.32	5753.04
447.51	5661.76
447.69	5710.91
447.88	5706.23
448.06	5694.52
448.25	5706.23
448.43	5586.86
448.62	5706.23
448.80	5811.55
448.99	5762.40
449.17	5722.61
449.36	5631.33
449.54	5900.49
449.73	5977.73
449.91	5867.72
450.10	5975.39
450.28	6069.01
450.46	5977.73
450.65	6031.56
450.83	5947.30
451.02	6120.50
451.20	6153.27
451.39	6059.65
451.57	6012.84
451.76	5975.39
451.94	6174.33
452.13	6176.67
452.31	6164.97
452.49	6052.63
452.68	6258.59
452.86	6195.40
453.05	6218.80
453.23	6303.06
453.42	6188.38
453.60	6061.99
453.78	6328.81
453.97	6293.70
454.15	6403.71
454.34	6305.40
454.52	6319.45
454.70	6469.24
454.89	6490.31
455.07	6380.30
455.26	6452.86
455.44	6661.16
455.62	6518.39
455.81	6466.90
455.99	6445.84
456.17	6736.06
456.36	6626.06
456.54	6740.74
456.73	6754.79
456.91	6782.87
457.09	6920.96
457.28	6991.18
457.46	6792.23
457.64	6958.41
457.83	6890.54
458.01	6764.15
458.19	7012.24
458.38	6925.65
458.56	7019.27
458.74	7005.22
458.93	7211.19
459.11	7129.27
459.29	7037.99
459.48	6991.18
459.66	6909.26
459.84	7225.23
460.03	7309.49
460.21	7218.21
460.39	7311.83
460.57	7176.08
460.76	7248.64
460.94	7136.29
461.12	7241.62
461.31	7307.15
461.49	7293.11
461.67	7412.48
461.85	7571.63
462.04	7288.43
462.22	7779.94
462.40	7688.66
462.59	7588.02
462.77	7714.41
462.95	7716.75
463.13	7442.90
463.32	7592.70
463.50	7702.70
463.68	7616.10
463.86	7805.69
464.05	7798.66
464.23	7585.68
464.41	7808.03
464.59	7714.41
464.78	8037.40
464.96	8006.97
465.14	7606.74
465.32	7801.01
465.50	7925.05
465.69	7885.26
465.87	7873.56
466.05	7936.76
466.23	8116.98
466.41	8030.38
466.60	8168.47
466.78	7971.86
466.96	8072.51
467.14	8119.32
467.32	7962.50
467.51	8245.71
467.69	7815.05
467.87	8070.17
468.05	8264.43
468.23	8131.02
468.41	8138.04
468.60	8119.32
468.78	8224.64
468.96	8262.09
469.14	8388.48
469.32	8362.73
469.50	8086.55
469.69	8414.23
469.87	8578.06
470.05	8446.99
470.23	8681.05
470.41	8599.13
470.59	8608.49
470.77	8587.43
470.95	8737.22
471.14	8784.03
471.32	8559.34
471.50	8840.20
471.68	8741.90
471.86	8865.95
472.04	8975.95
472.22	8889.35
472.40	8870.63
472.58	9095.32
472.77	9004.04
472.95	9219.37
473.13	9635.99
473.31	9057.87
473.49	9224.05
473.67	9420.66
473.85	9486.19
474.03	9558.75
474.21	9481.51
474.39	9502.58
474.57	9577.47
474.75	9738.97
474.93	9797.48
475.12	9760.03
475.30	9654.71
475.48	9666.41
475.66	10052.60
475.84	9809.19
476.02	9926.21
476.20	10094.73
476.38	10108.77
476.56	10408.36
476.74	10328.78
476.92	10188.35
477.10	10136.86
477.28	10396.66
477.46	10583.90
477.64	10487.94
477.82	10951.37
478.00	10780.51
478.18	11052.01
478.36	10920.94
478.54	11122.23
478.72	11033.29
478.90	11279.04
479.08	11169.04
479.26	11435.86
479.44	11290.74
479.62	11393.73
479.80	11501.39
479.98	11630.12
480.16	11962.48
480.34	11866.52
480.52	12123.98
480.70	11754.17
480.88	11683.95
481.06	11920.35
481.24	12093.55
481.41	12329.94
481.59	12205.89
481.77	12564.00
481.95	12629.53
482.13	12781.67
482.31	12999.34
482.49	13029.76
482.67	12957.21
482.85	13214.66
483.03	13158.49
483.21	13387.86
483.39	13458.08
483.57	13310.63
483.74	13542.34
483.92	13727.24
484.10	13532.98
484.28	13790.44
484.46	14169.60
484.64	14239.82
484.82	14040.87
485.00	14567.49
485.18	14562.81
485.35	14740.69
485.53	14539.41
485.71	14867.08
485.89	15248.59
486.07	14953.68
486.25	15009.86
486.43	15138.58
486.61	15332.85
486.78	15311.78
486.96	15267.31
487.14	15707.34
487.32	15775.21
487.50	16023.31
487.68	15885.22
487.85	16142.67
488.03	16259.70
488.21	16629.51
488.39	16505.46
488.57	16393.11
488.75	16865.90
488.92	17174.85
489.10	16929.09
489.28	17170.17
489.46	17404.22
489.64	17514.23
489.81	17617.21
489.99	17802.11
490.17	17921.48
490.35	17767.01
490.53	18104.04
490.70	18080.64
490.88	18157.88
491.06	18511.30
491.24	18377.89
491.41	18410.65
491.59	18731.31
491.77	18471.51
491.95	18881.10
492.13	19030.90
492.30	19105.79
492.48	19108.13
492.66	19213.46
492.84	19239.20
493.01	19573.90
493.19	19449.85
493.37	19548.15
493.54	20149.67
493.72	20280.74
493.90	20355.64
494.08	20215.21
494.25	20561.61
494.43	20456.28
494.61	20769.91
494.79	20744.17
494.96	20482.03
495.14	21018.01
495.32	21090.57
495.49	21387.82
495.67	21277.81
495.85	21479.10
496.02	21930.82
496.20	21652.30
496.38	21813.79
496.55	21970.61
496.73	22532.34
496.91	22082.95
497.09	22415.31
497.26	22361.48
497.44	22223.39
497.62	22717.24
497.79	22551.06
497.97	22654.05
498.14	22941.93
498.32	23089.38
498.50	22946.61
498.67	23073.00
498.85	23403.02
499.03	23527.06
499.20	23529.41
499.38	23356.21
499.56	23747.08
499.73	24093.47
499.91	24044.32
500.08	23812.61
500.26	24159.01
500.44	24311.14
500.61	23880.49
500.79	23985.81
500.97	24348.59
501.14	24395.40
501.32	24627.12
501.49	24634.14
501.67	24936.07
501.84	24952.45
502.02	24606.05
502.20	25050.75
502.37	25284.81
502.55	25186.50
502.72	25298.85
502.90	25238.00
503.07	25256.72
503.25	25551.63
503.43	25422.90
503.60	25397.15
503.78	25781.00
503.95	25514.18
504.13	25785.68
504.30	26169.53
504.48	26143.78
504.65	26382.52
504.83	26253.79
505.01	26546.36
505.18	26567.42
505.36	26717.22
505.53	26602.53
505.71	26773.39
505.88	26431.67
506.06	26443.37
506.23	26824.88
506.41	27070.64
506.58	27330.44
506.76	27335.12
506.93	27180.64
507.11	27592.58
507.28	27466.19
507.46	27094.04
507.63	27618.32
507.81	27733.01
507.98	27721.30
508.16	28048.98
508.33	27791.52
508.50	27817.27
508.68	28048.98
508.85	28168.35
509.03	28348.57
509.20	28060.68
509.38	28357.93
509.55	28559.22
509.73	28652.84
509.90	28477.30
510.08	28753.48
510.25	28741.78
510.42	29064.77
510.60	29043.71
510.77	29010.94
510.95	29097.54
511.12	29223.93
511.30	29134.99
511.47	29404.15
511.64	29170.10
511.82	29413.51
511.99	29689.70
512.17	29521.18
512.34	29715.44
512.51	30122.69
512.69	30443.35
512.86	29956.52
513.04	30661.02
513.21	30148.44
513.38	30345.05
513.56	30621.23
513.73	30389.52
513.90	30588.46
514.08	30295.89
514.25	30897.41
514.43	30654.00
514.60	30689.10
514.77	30642.29
514.95	30780.39
515.12	31103.38
515.29	30766.34
515.47	31037.84
515.64	31428.71
515.81	31534.04
515.99	31318.71
516.16	31821.92
516.33	31409.99
516.51	31868.73
516.68	31087.00
516.85	31613.62
517.03	31674.47
517.20	32072.36
517.37	32205.77
517.54	32016.19
517.72	31934.27
517.89	31765.75
518.06	32081.72
518.24	31957.67
518.41	32332.16
518.58	32339.18
518.75	32355.57
518.93	32444.51
519.10	32446.85
519.27	32208.11
519.45	32898.57
519.62	32584.94
519.79	32774.52
519.96	32713.67
520.14	33333.91
520.31	32638.77
520.48	33261.35
520.65	33469.66
520.83	33399.44
521.00	33638.18
521.17	33621.80
521.34	33596.05
521.52	33701.37
521.69	33642.86
521.86	33752.87
522.03	33923.72
522.20	34015.01
522.38	34546.31
522.55	34078.20
522.72	33900.32
522.89	34106.29
523.07	34279.49
523.24	34321.62
523.41	34768.66
523.58	34492.47
523.75	34775.68
523.92	34410.56
524.10	34499.50
524.27	34607.16
524.44	34808.45
524.61	34635.25
524.78	35007.39
524.96	34930.16
525.13	35173.57
525.30	35817.22
525.47	35431.03
525.64	35033.14
525.81	35323.36
525.98	35477.84
526.16	35903.82
526.33	35412.31
526.50	35419.33
526.67	35526.99
526.84	35707.21
527.01	35536.35
527.18	35810.20
527.36	36121.49
527.53	35810.20
527.70	36238.51
527.87	36222.13
528.04	35861.69
528.21	36144.89
528.38	36198.73
528.55	36016.16
528.72	36065.31
528.89	36325.11
529.07	36589.59
529.24	36376.61
529.41	36495.97
529.58	36320.43
529.75	36474.91
529.92	36648.11
530.09	36306.39
530.26	36833.01
530.43	36727.69
530.60	37083.45
530.77	36282.98
530.94	36879.82
531.11	36685.56
531.28	36818.97
531.46	37364.31
531.63	37511.77
531.80	37329.20
531.97	37436.87
532.14	37399.42
532.31	37177.07
532.48	37514.11
532.65	37773.91
532.82	36854.08
532.99	37551.56
533.16	37577.30
533.33	37865.19
533.50	37865.19
533.67	37532.83
533.84	37801.99
534.01	37853.48
534.18	37797.31
534.35	38415.21
534.52	38206.90
534.69	38579.05
534.86	37998.60
535.03	38183.50
535.20	38712.46
535.37	38410.53
535.54	39136.10
535.71	38485.43
535.88	38588.41
536.05	38707.78
536.22	38506.49
536.38	38625.86
536.55	39035.45
536.72	38433.94
536.89	38618.84
537.06	38766.29
537.23	38721.82
537.40	38511.17
537.57	38960.56
537.74	38918.43
537.91	39168.87
538.08	38806.08
538.25	39096.31
538.42	38838.85
538.59	39033.11
538.75	39164.18
538.92	39285.89
539.09	39166.52
539.26	39054.18
539.43	39562.08
539.60	39742.30
539.77	39517.60
539.94	39667.40
540.11	39545.69
540.28	39814.85
540.44	39648.68
540.61	39831.24
540.78	39695.49
540.95	40074.65
541.12	40158.91
541.29	39564.42
541.46	39435.69
541.62	39880.39
541.79	40039.54
541.96	39346.75
542.13	39859.32
542.30	40407.01
542.47	40385.94
542.63	40421.05
542.80	40603.61
542.97	40669.15
543.14	41024.91
543.31	40563.82
543.48	41123.21
543.64	41450.89
543.81	40910.22
543.98	40891.50
544.15	40514.67
544.32	40982.78
544.48	41324.50
544.65	41249.60
544.82	41209.81
544.99	41441.53
545.16	41696.64
545.32	41062.36
545.49	41518.76
545.66	41813.67
545.83	41553.87
546.00	41404.08
546.16	41617.07
546.33	41483.66
546.50	41553.87
546.67	41808.99
546.83	41233.22
547.00	41654.51
547.17	41542.17
547.34	41752.82
547.50	41918.99
547.67	42452.64
547.84	41860.48
548.00	42244.33
548.17	42162.41
548.34	41979.85
548.51	42220.92
548.67	42375.40
548.84	42061.77
549.01	42183.48
549.18	42403.49
549.34	42433.91
549.51	42230.29
549.68	42588.39
549.84	42305.18
550.01	42857.55
550.18	42258.37
550.34	42494.77
550.51	42630.52
550.68	42710.10
550.84	42171.77
551.01	42911.38
551.18	42789.67
551.34	42639.88
551.51	42745.20
551.68	42944.15
551.84	42820.10
552.01	42450.30
552.18	43056.50
552.34	42876.27
552.51	42408.17
552.68	42920.74
552.84	42813.08
553.01	43100.97
553.18	43421.62
553.34	43009.68
553.51	42930.11
553.67	43416.94
553.84	43189.91
554.01	43833.55
554.17	43276.51
554.34	43356.08
554.51	43346.72
554.67	43423.96
554.84	43384.17
555.00	43470.77
555.17	43185.22
555.33	44158.89
555.50	43159.48
555.67	43992.71
555.83	43515.24
556.00	43674.40
556.16	44561.46
556.33	43931.86
556.50	43814.83
556.66	43569.07
556.83	43428.64
556.99	43714.19
557.16	43817.17
557.32	43997.39
557.49	44140.16
557.65	43681.42
557.82	44041.86
557.98	44095.69
558.15	43868.66
558.32	44114.42
558.48	43849.94
558.65	43756.32
558.81	43990.37
558.98	44025.48
559.14	44093.35
559.31	43882.70
559.47	44100.37
559.64	44158.89
559.80	44067.61
559.97	44526.35
560.13	44500.61
560.30	44608.27
560.46	44556.78
560.63	44765.09
560.79	44779.13
560.96	44615.29
561.12	44582.52
561.29	45022.54
561.45	44502.95
561.61	44203.36
561.78	44699.55
561.94	44566.14
562.11	44844.66
562.27	44804.88
562.44	44959.35
562.60	44729.98
562.77	44409.32
562.93	44811.90
563.10	44893.82
563.26	44727.64
563.42	44928.92
563.59	44847.00
563.75	44634.02
563.92	44769.77
564.08	44839.98
564.24	45373.63
564.41	44985.10
564.57	44877.43
564.74	44767.43
564.90	45031.91
565.07	44851.69
565.23	44868.07
565.39	45041.27
565.56	45085.74
565.72	45134.89
565.88	44999.14
566.05	44769.77
566.21	45081.06
566.38	45116.17
566.54	44788.49
566.70	45413.41
566.87	45146.59
567.03	45181.70
567.19	45443.84
567.36	45420.44
567.52	44968.71
567.68	45338.52
567.85	45144.25
568.01	45270.64
568.17	45336.18
568.34	45481.29
568.50	45312.77
568.66	45104.46
568.83	45666.19
568.99	45193.40
569.15	45436.82
569.32	45511.72
569.48	45390.01
569.64	45591.30
569.81	45366.60
569.97	45474.27
570.13	45521.08
570.30	45268.30
570.46	45399.37
570.62	45750.45
570.78	45560.87
570.95	45319.79
571.11	45965.78
571.27	45621.72
571.43	45794.92
571.60	45516.40
571.76	45539.80
571.92	45432.14
572.09	45544.48
572.25	45521.08
572.41	45673.21
572.57	45839.39
572.74	46192.81
572.90	45780.88
573.06	45942.38
573.22	45387.67
573.38	46188.13
573.55	45918.97
573.71	45949.40
573.87	46087.49
574.03	45738.75
574.20	46260.69
574.36	45879.18
574.52	46387.08
574.68	45769.18
574.84	45930.67
575.01	46033.66
575.17	46117.92
575.33	45713.00
575.49	45682.58
575.65	45801.94
575.82	46246.65
575.98	45689.60
576.14	46213.88
576.30	46014.93
576.46	45684.92
576.62	45734.07
576.79	45921.31
576.95	45415.76
577.11	45631.08
577.27	45769.18
577.43	46131.96
577.59	45778.54
577.75	45392.35
577.92	45989.19
578.08	45923.65
578.24	46148.34
578.40	46497.08
578.56	46307.50
578.72	46028.98
578.88	46246.65
579.04	46218.56
579.21	45865.14
579.37	46045.36
579.53	46539.21
579.69	45647.47
579.85	45670.87
580.01	45881.52
580.17	46050.04
580.33	46232.60
580.49	46344.95
580.65	45888.54
580.82	46202.18
580.98	46279.41
581.14	45649.81
581.30	45961.10
581.46	45830.03
581.62	46426.87
581.78	45883.86
581.94	46593.04
582.10	46036.00
582.26	46344.95
582.42	46457.29
582.58	46117.92
582.74	46284.09
582.90	46263.03
583.06	46492.40
583.22	45907.27
583.38	46307.50
583.54	46354.31
583.70	46153.02
583.86	46312.18
584.02	46080.47
584.18	46581.34
584.34	46515.81
584.50	46635.17
584.66	46380.06
584.82	46197.49
584.98	46501.76
585.14	46351.97
585.30	46232.60
585.46	46174.09
585.62	46307.50
585.78	46328.56
585.94	46466.66
586.10	46260.69
586.26	46026.63
586.42	45867.48
586.58	46447.93
586.74	46319.20
586.90	46293.46
587.06	46239.62
587.22	46478.36
587.38	46274.73
587.54	46707.73
587.70	46707.73
587.86	46330.90
588.02	46174.09
588.18	46387.08
588.34	46548.57
588.49	46777.95
588.65	45998.55
588.81	46373.03
588.97	46707.73
589.13	46354.31
589.29	46499.42
589.45	46330.90
589.61	46705.39
589.77	46986.25
589.93	46354.31
590.08	46541.55
590.24	46623.47
590.40	46791.99
590.56	46639.86
590.72	46990.94
590.88	46632.83
591.04	46644.54
591.20	46653.90
591.35	46562.62
591.51	47430.96
591.67	47004.98
591.83	46904.34
591.99	46358.99
592.15	46665.60
592.31	46808.37
592.46	46738.16
592.62	46693.69
592.78	47047.11
592.94	46925.40
593.10	47035.41
593.26	47330.31
593.41	46656.24
593.57	46721.77
593.73	46941.78
593.89	47131.37
594.05	47150.09
594.20	46745.18
594.36	47707.14
594.52	47033.07
594.68	46855.18
594.84	46913.70
594.99	47147.75
595.15	47000.30
595.31	47353.72
595.47	46761.56
595.62	46864.55
595.78	46717.09
595.94	46810.71
596.10	46993.28
596.25	47131.37
596.41	46944.12
596.57	47040.09
596.73	47079.88
596.88	47246.05
597.04	47168.82
597.20	46890.29
597.36	46967.53
597.51	47133.71
597.67	47068.17
597.83	46784.97
597.99	47007.32
598.14	47334.99
598.30	46913.70
598.46	46951.15
598.61	47594.79
598.77	46930.08
598.93	47194.56
599.09	46962.85
599.24	47178.18
599.40	46974.55
599.56	47562.03
599.71	47199.24
599.87	47400.53
600.03	47117.32
600.18	47014.34
600.34	47093.92
600.50	46822.42
600.65	46932.42
600.81	47360.74
600.97	47119.66
601.12	47482.45
601.28	46979.23
601.44	47484.79
601.59	47442.66
601.75	47028.38
601.91	47381.80
602.06	47147.75
602.22	47356.06
602.37	47491.81
602.53	47440.32
602.69	47334.99
602.84	47035.41
603.00	47021.36
603.16	46955.83
603.31	47133.71
603.47	47414.57
603.62	46951.15
603.78	47189.88
603.94	46941.78
604.09	47014.34
604.25	46894.97
604.40	46728.80
604.56	47203.92
604.71	47203.92
604.87	47285.84
605.03	46965.19
605.18	47030.72
605.34	47044.77
605.49	46747.52
605.65	47241.37
605.80	47168.82
605.96	46880.93
606.12	47107.96
606.27	47004.98
606.43	47044.77
606.58	46995.62
606.74	47358.40
606.89	47019.02
607.05	47353.72
607.20	47496.49
607.36	47040.09
607.51	46885.61
607.67	46703.05
607.82	47007.32
607.98	47192.22
608.13	46841.14
608.29	46801.35
608.44	46770.93
608.60	46660.92
608.75	46960.51
608.91	47002.64
609.06	46885.61
609.22	46864.55
609.37	46887.95
609.53	47274.14
609.68	46838.80
609.84	46876.25
609.99	47185.20
610.15	46740.50
610.30	47257.76
610.46	47072.85
610.61	46990.94
610.76	46806.03
610.92	46408.14
611.07	46684.33
611.23	46983.91
611.38	46443.25
611.54	46691.35
611.69	46878.59
611.84	47346.70
612.00	46646.88
612.15	46469.00
612.31	46754.54
612.46	46396.44
612.62	46686.67
612.77	46429.21
612.92	46799.01
613.08	46263.03
613.23	46791.99
613.39	46593.04
613.54	46358.99
613.69	46794.33
613.85	46438.57
614.00	46300.48
614.15	46595.38
614.31	46234.94
614.46	46639.86
614.62	46293.46
614.77	46239.62
614.92	46384.74
615.08	46071.10
615.23	46653.90
615.38	46887.95
615.54	46375.37
615.69	46588.36
615.84	45907.27
616.00	46862.21
616.15	46593.04
616.30	46417.50
616.46	46209.20
616.61	46162.39
616.76	46218.56
616.92	46124.94
617.07	45998.55
617.22	46349.63
617.37	45930.67
617.53	46452.61
617.68	46272.39
617.83	46138.98
617.99	46197.49
618.14	46206.86
618.29	45848.75
618.45	45979.82
618.60	45748.11
618.75	45745.77
618.90	46085.15
619.06	46038.34
619.21	45794.92
619.36	46253.67
619.51	46155.36
619.67	45923.65
619.82	45872.16
619.97	46040.68
620.12	46169.41
620.28	45532.78
620.43	45867.48
620.58	45991.53
620.73	45933.01
620.89	45806.62
621.04	46204.52
621.19	45801.94
621.34	45909.61
621.49	45539.80
621.65	45687.26
621.80	46248.99
621.95	45172.34
622.10	45862.80
622.25	45308.09
622.41	45628.74
622.56	45698.96
622.71	45464.91
622.86	45380.65
623.01	45619.38
623.16	45441.50
623.32	45759.81
623.47	45294.05
623.62	45354.90
623.77	45158.30
623.92	45326.81
624.07	45326.81
624.23	45666.19
624.38	45453.20
624.53	45347.88
624.68	44818.92
624.83	44837.64
624.98	45350.22
625.13	44896.16
625.29	44980.42
625.44	45167.66
625.59	45338.52
625.74	45088.08
625.89	44762.75
626.04	44767.43
626.19	45090.42
626.34	44746.36
626.49	44842.32
626.65	44477.20
626.80	44882.11
626.95	44898.50
627.10	45071.70
627.25	44722.96
627.40	44788.49
627.55	44722.96
627.70	44804.88
627.85	45074.04
628.00	44739.34
628.15	44722.96
628.30	44439.75
628.45	44402.30
628.60	44556.78
628.76	44226.76
628.91	44484.22
629.06	43838.23
629.21	44048.88
629.36	44105.06
629.51	44411.67
629.66	44907.86
629.81	44367.20
629.96	44514.65
630.11	44360.17
630.26	44257.19
630.41	44069.95
630.56	44367.20
630.71	44025.48
630.86	43840.57
631.01	44137.82
631.16	44076.97
631.31	44018.46
631.46	44201.02
631.61	43927.17
631.76	44240.81
631.91	44179.95
632.06	44491.24
632.21	44161.23
632.36	44460.82
632.51	43887.39
632.66	44177.61
632.81	44046.54
632.96	44320.38
633.10	43543.33
633.25	44009.09
633.40	44196.34
633.55	44055.90
633.70	44093.35
633.85	43901.43
634.00	43955.26
634.15	43711.84
634.30	43180.54
634.45	43246.08
634.60	43335.02
634.75	43665.03
634.90	43620.56
635.05	43920.15
635.19	43697.80
635.34	43620.56
635.49	43395.87
635.64	43889.73
635.79	43557.37
635.94	43587.80
636.09	43456.73
636.24	43014.37
636.39	43793.76
636.53	43302.25
636.68	43100.97
636.83	43028.41
636.98	42777.97
637.13	43112.67
637.28	43107.99
637.43	43246.08
637.57	43482.47
637.72	42506.47
637.87	43533.96
638.02	43070.54
638.17	42810.74
638.32	42674.99
638.46	42859.89
638.61	42712.44
638.76	42864.57
638.91	42990.96
639.06	42642.22
639.20	42508.81
639.35	42660.94
639.50	42291.14
639.65	42941.81
639.80	43093.94
639.94	43260.12
640.09	43143.09
640.24	43150.12
640.39	42178.79
640.54	42476.04
640.68	42761.59
640.83	42892.66
640.98	43084.58
641.13	42258.37
641.27	42864.57
641.42	42553.28
641.57	42155.39
641.72	42195.18
641.86	42525.19
642.01	41916.65
642.16	41904.95
642.31	41895.59
642.45	42326.25
642.60	41979.85
642.75	42005.59
642.90	42014.96
643.04	41911.97
643.19	42188.16
643.34	42347.31
643.48	41813.67
643.63	41830.05
643.78	42295.82
643.93	42518.17
644.07	41944.74
644.22	42162.41
644.37	41701.32
644.51	41600.68
644.66	42003.25
644.81	41633.45
644.95	42087.51
645.10	42209.22
645.25	41553.87
645.39	41546.85
645.54	42073.47
645.69	41759.84
645.83	41879.21
645.98	41488.34
646.13	41635.79
646.27	41258.96
646.42	41441.53
646.57	41790.27
646.71	41923.68
646.86	41883.89
647.00	42087.51
647.15	41689.62
647.30	41633.45
647.44	41104.49
647.59	41371.31
647.74	41455.57
647.88	41471.95
648.03	41757.50
648.17	41900.27
648.32	41291.73
648.47	41713.03
648.61	41270.67
648.76	41137.26
648.90	41036.61
649.05	41240.24
649.20	41483.66
649.34	41528.13
649.49	41525.78
649.63	41205.13
649.78	41488.34
649.92	41453.23
650.07	41862.82
650.21	41855.80
650.36	41858.14
650.51	40818.94
650.65	41680.26
650.80	41223.86
650.94	41202.79
651.09	40718.30
651.23	40325.09
651.38	40399.99
651.52	40790.86
651.67	40666.81
651.81	40928.95
651.96	40804.90
652.10	40444.46
652.25	40423.39
652.39	40620.00
652.54	40713.62
652.68	41045.97
652.83	40495.95
652.97	40767.45
653.12	40645.74
653.26	40722.98
653.41	40945.33
653.55	40531.06
653.70	40821.28
653.84	40584.89
653.99	40528.72
654.13	40521.69
654.27	40547.44
654.42	40582.55
654.56	40509.99
654.71	40715.96
654.85	40566.16
655.00	40395.31
655.14	40725.32
655.29	40556.80
655.43	40554.46
655.57	40191.68
655.72	39927.20
655.86	40156.57
656.01	40252.53
656.15	39880.39
656.30	40088.70
656.44	40308.71
656.58	40456.16
656.73	39845.28
656.87	39639.31
657.01	39620.59
657.16	40376.58
657.30	40037.20
657.45	40102.74
657.59	40058.27
657.73	39882.73
657.88	39761.02
658.02	39805.49
658.16	39924.86
658.31	39889.75
658.45	39718.89
658.60	39295.25
658.74	39508.24
658.88	39625.27
659.03	39592.50
659.17	39349.09
659.31	39145.46
659.46	39159.50
659.60	39690.80
659.74	39070.56
659.89	39072.90
660.03	38569.69
660.17	39021.41
660.32	39342.06
660.46	38990.98
660.60	38749.91
660.74	38937.15
660.89	38586.07
661.03	38424.57
661.17	38611.82
661.32	38293.50
661.46	38733.53
661.60	38621.18
661.74	38401.17
661.89	38033.71
662.03	38485.43
662.17	38199.88
662.31	38424.57
662.46	38286.48
662.60	38031.36
662.74	37958.81
662.88	38017.32
663.03	37855.82
663.17	37654.54
663.31	37738.80
663.45	37897.95
663.60	38014.98
663.74	38342.66
663.88	38288.82
664.02	37752.84
664.17	38124.99
664.31	37710.71
664.45	37319.84
664.59	37617.09
664.73	37359.63
664.88	37479.00
665.02	37223.88
665.16	37167.71
665.30	37621.77
665.44	37359.63
665.59	36620.02
665.73	36620.02
665.87	36542.78
666.01	37048.34
666.15	37165.37
666.29	36776.84
666.44	37067.06
666.58	36683.22
666.72	36802.58
666.86	36397.67
667.00	36666.83
667.14	36517.04
667.28	36605.98
667.43	36655.13
667.57	36526.40
667.71	36194.04
667.85	35992.76
667.99	36521.72
668.13	36292.35
668.27	36025.53
668.41	36336.82
668.56	35416.99
668.70	36156.60
668.84	35594.87
668.98	35618.27
669.12	35723.60
669.26	35608.91
669.40	35353.79
669.54	35737.64
669.68	35321.02
669.82	35637.00
669.96	34883.34
670.10	35234.42
670.25	35077.61
670.39	35321.02
670.53	35402.94
670.67	35124.42
670.81	35161.87
670.95	35292.94
671.09	34787.38
671.23	34513.54
671.37	34707.80
671.51	34628.23
671.65	34733.55
671.79	34473.75
671.93	34581.42
672.07	34445.66
672.21	34759.30
672.35	33909.68
672.49	34375.45
672.63	34384.81
672.77	34518.22
672.91	34632.91
673.05	34113.31
673.19	33900.32
673.33	33937.77
673.47	33621.80
673.61	33549.24
673.75	33741.16
673.89	33474.34
674.03	33165.39
674.17	32926.66
674.31	32933.68
674.45	33123.26
674.59	33095.18
674.73	33074.11
674.87	32769.84
675.01	32804.95
675.15	32570.90
675.29	32570.90
675.43	32746.44
675.56	32519.40
675.70	32247.90
675.84	32643.45
675.98	31337.43
676.12	32189.39
676.26	32100.45
676.40	32170.66
676.54	31723.62
676.68	31859.37
676.82	31473.18
676.96	31679.15
677.10	31632.34
677.23	31419.35
677.37	31583.19
677.51	31531.70
677.65	31459.14
677.79	31012.10
677.93	31051.89
678.07	30899.75
678.21	31028.48
678.34	30455.05
678.48	30441.01
678.62	30436.33
678.76	30106.31
678.90	30345.05
679.04	30735.92
679.18	30408.24
679.31	30160.14
679.45	29806.72
679.59	30249.08
679.73	30019.71
679.87	29633.52
680.00	29614.80
680.14	29631.18
680.28	29685.01
680.42	29390.11
680.56	29174.78
680.70	29006.26
680.83	29029.66
680.97	28891.57
681.11	28961.79
681.25	28732.42
681.39	28247.93
681.52	28559.22
681.66	28570.92
681.80	28037.28
681.94	27915.57
682.07	27995.15
682.21	27943.66
682.35	27906.21
682.49	27868.76
682.62	28032.60
682.76	27960.04
682.90	27564.49
683.04	27634.71
683.17	27199.37
683.31	27414.69
683.45	27365.54
683.59	26726.58
683.72	26939.57
683.86	26794.45
684.00	26565.08
684.13	27154.90
684.27	26525.29
684.41	26647.00
684.55	26469.12
684.68	26312.30
684.82	26118.04
684.96	26178.89
685.09	26295.92
685.23	26242.09
685.37	26419.97
685.50	26272.51
685.64	25879.30
685.78	25685.04
685.91	25479.07
686.05	25184.16
686.19	25214.59
686.32	25401.83
686.46	24741.80
686.60	24687.97
686.73	25055.43
686.87	24512.43
687.01	24954.79
687.14	25132.67
687.28	24767.55
687.42	24460.94
687.55	24383.70
687.69	24842.45
687.82	24194.12
687.96	24121.56
688.10	24027.94
688.23	24112.20
688.37	24137.94
688.50	24006.87
688.64	24079.43
688.78	23690.90
688.91	23669.84
689.05	23627.71
689.18	23159.60
689.32	22710.22
689.46	22892.78
689.59	23110.45
689.73	23377.27
689.86	23440.47
690.00	23260.24
690.13	22951.29
690.27	22778.09
690.41	22747.67
690.54	22522.98
690.68	22291.26
690.81	22462.12
690.95	22274.88
691.08	21858.26
691.22	21986.99
691.35	21879.33
691.49	22057.21
691.62	21994.01
691.76	21455.69
691.89	21366.75
692.03	21310.58
692.16	20957.16
692.30	21507.18
692.43	21446.33
692.57	21029.71
692.70	21186.53
692.84	20875.24
692.97	20428.20
693.11	20463.30
693.24	20149.67
693.38	20332.23
693.51	20685.65
693.65	20456.28
693.78	20367.34
693.92	20184.78
694.05	20109.88
694.19	20051.37
694.32	19981.15
694.45	19974.13
694.59	20081.80
694.72	20034.99
694.86	19480.28
694.99	19456.87
695.13	19321.12
695.26	19466.24
695.39	19136.22
695.53	19002.81
695.66	19389.00
695.80	19194.73
695.93	18967.70
696.07	18642.37
696.20	18541.72
696.33	18302.99
696.47	18450.44
696.60	18473.85
696.73	18408.31
696.87	18324.05
697.00	18607.26
697.14	18274.90
697.27	17839.56
697.40	18249.16
697.54	17935.53
697.67	17722.54
697.80	18331.08
697.94	17692.11
698.07	17839.56
698.21	17516.57
698.34	17394.86
698.47	17528.27
698.61	16992.29
698.74	17144.42
698.87	17156.13
699.01	16610.78
699.14	16901.01
699.27	16877.60
699.40	16793.34
699.54	16863.56
699.67	16489.07
699.80	16449.28
699.94	16540.57
700.07	16566.31
700.20	16383.75
700.34	16257.36
700.47	16248.00
700.60	16081.82
700.73	16442.26
700.87	15653.50
701.00	15662.86
701.13	15655.84
701.26	15655.84
701.40	15740.10
701.53	15829.04
701.66	15772.87
701.79	15529.45
701.93	15234.55
702.06	15222.84
702.19	15218.16
702.32	15084.75
702.46	15075.39
702.59	14815.59
702.72	15110.50
702.85	15232.21
702.99	14925.60
703.12	14792.19
703.25	14508.98
703.38	14520.68
703.51	14525.36
703.65	14487.92
703.78	14134.50
703.91	14237.48
704.04	14256.20
704.17	14237.48
704.31	14160.24
704.44	13862.99
704.57	13872.36
704.70	14066.62
704.83	14022.15
704.96	13444.04
705.10	13579.79
705.23	13650.00
>>>>>End Processed Spectral Data<<<<<
