SpectraSuite Data File
++++++++++++++++++++++++++++++++++++
Date: Fri Oct 25 10:44:52 EDT 2013
User: price-jones
Dark Spectrum Present: No
Reference Spectrum Present: No
Number of Sampled Component Spectra: 1
Spectrometers: USB2+H05261
Integration Time (usec): 100000 (USB2+H05261)
Spectra Averaged: 1 (USB2+H05261)
Boxcar Smoothing: 0 (USB2+H05261)
Correct for Electrical Dark: No (USB2+H05261)
Strobe/Lamp Enabled: No (USB2+H05261)
Correct for Detector Non-linearity: No (USB2+H05261)
Correct for Stray Light: No (USB2+H05261)
Number of Pixels in Processed Spectrum: 2048
>>>>>Begin Processed Spectral Data<<<<<
365.73	145.11
365.92	145.11
366.12	145.11
366.32	67.88
366.52	0.00
366.72	105.32
366.91	51.49
367.11	79.58
367.31	0.00
367.51	25.75
367.70	72.56
367.90	58.51
368.10	44.47
368.30	39.79
368.49	74.90
368.69	32.77
368.89	72.56
369.09	25.75
369.28	39.79
369.48	67.88
369.68	88.94
369.87	100.64
370.07	79.58
370.27	133.41
370.47	145.11
370.66	341.72
370.86	383.85
371.06	449.38
371.25	489.17
371.45	414.27
371.65	433.00
371.84	447.04
372.04	433.00
372.24	472.79
372.44	468.11
372.63	540.66
372.83	463.43
373.03	475.13
373.22	423.64
373.42	491.51
373.62	475.13
373.81	482.15
374.01	566.41
374.21	592.16
374.40	517.26
374.60	601.52
374.79	608.54
374.99	547.69
375.19	519.60
375.38	566.41
375.58	528.96
375.78	575.77
375.97	524.28
376.17	531.30
376.37	470.45
376.56	507.90
376.76	538.32
376.95	538.32
377.15	573.43
377.35	608.54
377.54	580.45
377.74	535.98
377.93	603.86
378.13	638.97
378.33	573.43
378.52	622.58
378.72	638.97
378.91	636.63
379.11	608.54
379.31	580.45
379.50	599.18
379.70	634.29
379.89	650.67
380.09	627.26
380.28	624.92
380.48	608.54
380.68	615.56
380.87	676.41
381.07	660.03
381.26	720.88
381.46	667.05
381.65	645.99
381.85	727.91
382.04	571.09
382.24	631.94
382.43	653.01
382.63	678.76
382.83	631.94
383.02	713.86
383.22	739.61
383.41	706.84
383.61	779.40
383.80	777.06
384.00	688.12
384.19	746.63
384.39	760.67
384.58	746.63
384.78	781.74
384.97	760.67
385.17	744.29
385.36	774.72
385.56	781.74
385.75	734.93
385.95	800.46
386.14	800.46
386.34	786.42
386.53	800.46
386.72	814.51
386.92	807.48
387.11	847.27
387.31	720.88
387.50	784.08
387.70	828.55
387.89	753.65
388.09	788.76
388.28	840.25
388.48	868.34
388.67	877.70
388.86	826.21
389.06	858.98
389.25	903.45
389.45	891.74
389.64	917.49
389.84	854.30
390.03	931.53
390.22	947.92
390.42	957.28
390.61	868.34
390.81	919.83
391.00	966.64
391.19	959.62
391.39	1057.92
391.58	1004.09
391.78	954.94
391.97	1036.86
392.16	987.71
392.36	1046.22
392.55	1011.11
392.75	952.60
392.94	866.00
393.13	912.81
393.33	936.21
393.52	1100.05
393.71	1027.50
393.91	973.66
394.10	978.34
394.29	1083.67
394.49	1001.75
394.68	1181.97
394.88	1041.54
395.07	1238.14
395.26	1174.95
395.46	1071.97
395.65	1064.94
395.84	1107.07
396.04	1125.80
396.23	1076.65
396.42	1146.86
396.62	1146.86
396.81	1170.27
397.00	1165.59
397.19	1179.63
397.39	1245.16
397.58	1249.85
397.77	1207.72
397.97	1214.74
398.16	1275.59
398.35	1320.06
398.55	1273.25
398.74	1238.14
398.93	1275.59
399.12	1277.93
399.32	1359.85
399.51	1348.15
399.70	1409.00
399.90	1341.13
400.09	1390.28
400.28	1434.75
400.47	1366.87
400.67	1371.55
400.86	1497.94
401.05	1399.64
401.24	1523.69
401.44	1469.86
401.63	1479.22
401.82	1460.49
402.01	1418.36
402.21	1495.60
402.40	1523.69
402.59	1455.81
402.78	1584.54
402.97	1617.31
403.17	1579.86
403.36	1617.31
403.55	1596.25
403.74	1619.65
403.93	1621.99
404.13	1551.78
404.32	1664.12
404.51	1673.48
404.70	1713.27
404.89	1750.72
405.09	1710.93
405.28	1746.04
405.47	1650.08
405.66	1717.95
405.85	1736.68
406.05	1830.30
406.24	1832.64
406.43	1785.83
406.62	1804.55
406.81	1851.36
407.00	1872.43
407.20	1799.87
407.39	1863.07
407.58	1849.02
407.77	1881.79
407.96	1942.64
408.15	2029.24
408.34	1933.28
408.54	1998.82
408.73	2031.58
408.92	2064.35
409.11	2099.46
409.30	2022.22
409.49	2111.16
409.68	2033.93
409.87	2019.88
410.07	2127.55
410.26	2202.44
410.45	2176.70
410.64	2228.19
410.83	2204.78
411.02	2193.08
411.21	2312.45
411.40	2258.62
411.59	2375.64
411.78	2305.43
411.98	2258.62
412.17	2352.24
412.36	2403.73
412.55	2347.56
412.74	2457.56
412.93	2448.20
413.12	2452.88
413.31	2525.44
413.50	2523.10
413.69	2450.54
413.88	2565.23
414.07	2569.91
414.26	2628.42
414.45	2530.12
414.64	2513.74
414.83	2712.68
415.02	2775.88
415.22	2761.83
415.41	2754.81
415.60	2801.62
415.79	2855.45
415.98	2883.54
416.17	2895.24
416.36	2832.05
416.55	2972.48
416.74	2916.31
416.93	2958.44
417.12	3035.67
417.31	3012.27
417.50	3019.29
417.69	3049.72
417.88	3148.02
418.07	3054.40
418.26	3075.46
418.45	3096.53
418.64	3152.70
418.83	3211.22
419.02	3260.37
419.21	3272.07
419.39	3269.73
419.58	3288.45
419.77	3192.49
419.96	3246.32
420.15	3393.78
420.34	3290.79
420.53	3342.28
420.72	3461.65
420.91	3286.11
421.10	3339.94
421.29	3485.06
421.48	3435.91
421.67	3384.41
421.86	3403.14
422.05	3442.93
422.24	3492.08
422.43	3494.42
422.61	3377.39
422.80	3520.17
422.99	3543.57
423.18	3552.93
423.37	3461.65
423.56	3456.97
423.75	3447.61
423.94	3559.95
424.13	3391.44
424.32	3428.88
424.50	3566.98
424.69	3655.92
424.88	3627.83
425.07	3440.59
425.26	3569.32
425.45	3599.74
425.64	3604.42
425.83	3503.78
426.01	3641.87
426.20	3588.04
426.39	3559.95
426.58	3597.40
426.77	3597.40
426.96	3646.55
427.15	3463.99
427.33	3707.41
427.52	3681.66
427.71	3691.02
427.90	3716.77
428.09	3744.86
428.28	3796.35
428.46	3737.84
428.65	3791.67
428.84	3796.35
429.03	3950.82
429.22	3592.72
429.40	3726.13
429.59	3906.35
429.78	3644.21
429.97	3442.93
430.16	3688.68
430.34	3791.67
430.53	3812.73
430.72	3808.05
430.91	3964.87
431.10	3936.78
431.28	4091.26
431.47	4170.83
431.66	4208.28
431.85	4025.72
432.03	4196.58
432.22	4163.81
432.41	4205.94
432.60	4234.03
432.79	4210.62
432.97	4278.50
433.16	4208.28
433.35	4393.19
433.54	4257.43
433.72	4311.27
433.91	4416.59
434.10	4273.82
434.28	4264.46
434.47	4292.54
434.66	4540.64
434.85	4362.76
435.03	4533.62
435.22	4308.93
435.41	4484.47
435.59	4550.00
435.78	4802.78
435.97	4716.18
436.16	4676.39
436.34	4582.77
436.53	4561.70
436.72	4739.58
436.90	4608.51
437.09	4669.37
437.28	4657.67
437.46	4704.48
437.65	4645.96
437.84	4643.62
438.02	4683.41
438.21	4746.61
438.40	4636.60
438.58	4770.01
438.77	5020.45
438.96	4891.72
439.14	5074.28
439.33	5071.94
439.52	5093.01
439.70	5069.60
439.89	5207.69
440.08	5284.93
440.26	5219.39
440.45	5050.88
440.63	5334.08
440.82	5341.10
441.01	5275.57
441.19	5369.19
441.38	5493.24
441.57	5462.81
441.75	5526.00
441.94	5713.25
442.12	5645.37
442.31	5713.25
442.50	5799.85
442.68	5746.02
442.87	5797.51
443.05	5729.63
443.24	5806.87
443.43	5640.69
443.61	5781.12
443.80	6008.16
443.98	5816.23
444.17	5813.89
444.35	5856.02
444.54	5912.19
444.73	5881.77
444.91	5776.44
445.10	5968.37
445.28	5781.12
445.47	5708.57
445.65	5776.44
445.84	5907.51
446.02	5942.62
446.21	5851.34
446.39	5968.37
446.58	6012.84
446.77	5980.07
446.95	5933.26
447.14	5909.85
447.32	6228.17
447.51	5975.39
447.69	5937.94
447.88	6160.29
448.06	6045.60
448.25	5975.39
448.43	6043.26
448.62	6099.44
448.80	5893.47
448.99	6031.56
449.17	6197.74
449.36	6083.05
449.54	6282.00
449.73	6455.20
449.91	6551.16
450.10	6359.24
450.28	6612.01
450.46	6401.37
450.65	6392.00
450.83	6607.33
451.02	6462.22
451.20	6612.01
451.39	6600.31
451.57	6263.27
451.76	6473.92
451.94	6558.18
452.13	6677.55
452.31	6647.12
452.49	6502.01
452.68	6569.88
452.86	6518.39
453.05	6604.99
453.23	6562.86
453.42	6628.40
453.60	6626.06
453.78	6602.65
453.97	6686.91
454.15	6787.55
454.34	6759.47
454.52	6682.23
454.70	6616.69
454.89	6766.49
455.07	6878.83
455.26	6782.87
455.44	7169.06
455.62	6974.80
455.81	6920.96
455.99	6995.86
456.17	7037.99
456.36	7054.37
456.54	7302.47
456.73	7199.49
456.91	7412.48
457.09	7283.75
457.28	7426.52
457.46	7126.93
457.64	7454.61
457.83	7400.77
458.01	7442.90
458.19	7515.46
458.38	7328.22
458.56	7510.78
458.74	7674.62
458.93	7492.05
459.11	7503.76
459.29	7592.70
459.48	7679.30
459.66	7569.29
459.84	7578.65
460.03	7602.06
460.21	7581.00
460.39	7831.43
460.57	7613.76
460.76	7786.96
460.94	7719.09
461.12	7997.61
461.31	7990.59
461.49	7737.81
461.67	7777.60
461.85	7974.21
462.04	7850.16
462.22	8126.34
462.40	8037.40
462.59	8074.85
462.77	8063.15
462.95	7957.82
463.13	7978.89
463.32	8051.44
463.50	8121.66
463.68	7988.25
463.86	8222.30
464.05	7894.63
464.23	8109.96
464.41	8105.28
464.59	8142.72
464.78	8456.36
464.96	8100.59
465.14	8273.79
465.32	8482.10
465.50	8329.97
465.69	8344.01
465.87	8587.43
466.05	8231.66
466.23	8334.65
466.41	8365.07
466.60	8503.17
466.78	8304.22
466.96	8344.01
467.14	8390.82
467.32	8613.17
467.51	8468.06
467.69	8290.18
467.87	8631.90
468.05	8699.77
468.23	8423.59
468.41	8685.73
468.60	8636.58
468.78	8753.60
468.96	8533.59
469.14	8954.89
469.32	8882.33
469.50	8669.34
469.69	8786.37
469.87	8865.95
470.05	8973.61
470.23	8912.76
470.41	8950.21
470.59	9179.58
470.77	9050.85
470.95	9202.99
471.14	9266.18
471.32	9013.40
471.50	9149.15
471.68	9144.47
471.86	9385.55
472.04	9277.88
472.22	9736.63
472.40	9118.73
472.58	9535.34
472.77	9341.08
472.95	9689.82
473.13	10083.03
473.31	9483.85
473.49	9621.94
473.67	9561.09
473.85	9762.37
474.03	9994.09
474.21	9905.15
474.39	10202.40
474.57	10059.62
474.75	9891.10
474.93	10380.28
475.12	10216.44
475.30	10389.64
475.48	10333.47
475.66	10195.37
475.84	10434.11
476.02	10560.50
476.20	10377.94
476.38	10686.89
476.56	10698.59
476.74	10609.65
476.92	10810.93
477.10	10738.38
477.28	10993.50
477.46	11183.08
477.64	11133.93
477.82	11272.02
478.00	11449.90
478.18	11477.99
478.36	11529.48
478.54	11634.80
478.72	11580.97
478.90	11836.09
479.08	11927.37
479.26	11695.66
479.44	11978.86
479.62	12037.38
479.80	11838.43
479.98	12315.90
480.16	12676.34
480.34	12238.66
480.52	12479.74
480.70	12367.39
480.88	12411.86
481.06	12463.35
481.24	12676.34
481.41	12868.27
481.59	12961.89
481.77	12886.99
481.95	13064.87
482.13	13261.48
482.31	13444.04
482.49	13504.89
482.67	13530.64
482.85	13605.53
483.03	13657.03
483.21	13610.22
483.39	14150.88
483.57	13930.87
483.74	14136.84
483.92	14462.17
484.10	13996.40
484.28	14363.87
484.46	14958.36
484.64	15227.53
484.82	14628.35
485.00	15091.77
485.18	15342.21
485.35	15255.61
485.53	15140.93
485.71	14995.81
485.89	15255.61
486.07	15220.50
486.25	15618.39
486.43	15419.45
486.61	15531.80
486.78	16020.97
486.96	16112.25
487.14	16095.86
487.32	16067.78
487.50	16570.99
487.68	16725.47
487.85	16821.43
488.03	16994.63
488.21	16945.48
488.39	17266.13
488.57	17022.72
488.75	17366.78
488.92	17369.12
489.10	17853.61
489.28	17982.34
489.46	17963.61
489.64	17958.93
489.81	18574.49
489.99	18380.23
490.17	18405.97
490.35	18527.68
490.53	18845.99
490.70	18750.03
490.88	18670.45
491.06	18902.17
491.24	19117.50
491.41	19276.65
491.59	18920.89
491.77	19215.80
491.95	19592.62
492.13	19625.39
492.30	20049.03
492.48	19894.55
492.66	19709.65
492.84	20102.86
493.01	20332.23
493.19	20276.06
493.37	20503.09
493.54	20835.45
493.72	20893.96
493.90	20683.31
494.08	20931.41
494.25	21165.46
494.43	21228.66
494.61	21752.94
494.79	21504.84
494.96	21443.99
495.14	21479.10
495.32	22059.55
495.49	21813.79
495.67	22080.61
495.85	22132.11
496.02	22150.83
496.20	22668.09
496.38	22340.41
496.55	22771.07
496.73	23281.31
496.91	22888.10
497.09	23154.92
497.26	23274.29
497.44	22787.46
497.62	23227.48
497.79	23358.55
497.97	23285.99
498.14	23356.21
498.32	23639.41
498.50	23761.12
498.67	24505.41
498.85	24222.20
499.03	24198.80
499.20	24151.99
499.38	24577.97
499.56	24407.11
499.73	24622.44
499.91	24549.88
500.08	24776.91
500.26	24446.90
500.44	24531.15
500.61	24730.10
500.79	24854.15
500.97	25130.33
501.14	25277.79
501.32	25116.29
501.49	25076.50
501.67	25277.79
501.84	25518.86
502.02	25502.48
502.20	25827.81
502.37	25373.75
502.55	25261.40
502.72	25937.82
502.90	26132.08
503.07	25996.33
503.25	26078.25
503.43	25706.10
503.60	26148.46
503.78	26380.18
503.95	26324.01
504.13	26511.25
504.30	26426.99
504.48	26515.93
504.65	27012.12
504.83	26803.82
505.01	26974.67
505.18	27211.07
505.36	27278.94
505.53	27304.69
505.71	27194.68
505.88	27777.48
506.06	27452.14
506.23	27583.21
506.41	27491.93
506.58	27515.34
506.76	27590.24
506.93	27674.49
507.11	27978.76
507.28	28039.62
507.46	27976.42
507.63	27985.79
507.81	28137.92
507.98	27702.58
508.16	28236.22
508.33	28390.70
508.50	28266.65
508.68	28627.09
508.85	28795.61
509.03	28811.99
509.20	29041.37
509.38	28826.04
509.55	29186.48
509.73	28987.53
509.90	29500.11
510.08	28620.07
510.25	29221.59
510.42	29780.98
510.60	29790.34
510.77	29453.30
510.95	29951.84
511.12	29848.85
511.30	29989.28
511.47	30202.27
511.64	30024.39
511.82	30118.01
511.99	29984.60
512.17	30546.33
512.34	30321.64
512.51	30654.00
512.69	30480.80
512.86	30499.52
513.04	30576.76
513.21	30693.79
513.38	30806.13
513.56	30455.05
513.73	30160.14
513.90	31072.95
514.08	30969.97
514.25	31136.15
514.43	31094.02
514.60	31519.99
514.77	31075.29
514.95	31412.33
515.12	31112.74
515.29	31194.66
515.47	31665.11
515.64	31732.98
515.81	31730.64
515.99	31704.90
516.16	31840.65
516.33	31718.94
516.51	31871.07
516.68	31585.53
516.85	31356.16
517.03	31761.07
517.20	32233.86
517.37	31824.26
517.54	32290.03
517.72	32257.26
517.89	32095.77
518.06	32044.27
518.24	32404.72
518.41	32212.79
518.58	32135.56
518.75	32795.59
518.93	32982.83
519.10	32989.85
519.27	32751.12
519.45	33223.90
519.62	33130.28
519.79	33036.66
519.96	33256.67
520.14	33628.82
520.31	32741.75
520.48	33408.81
520.65	33017.94
520.83	33991.60
521.00	33752.87
521.17	33703.71
521.34	33589.03
521.52	34003.30
521.69	33972.88
521.86	34162.46
522.03	33584.35
522.20	34335.66
522.38	34232.68
522.55	34422.26
522.72	34265.44
522.89	34232.68
523.07	34511.20
523.24	34253.74
523.41	34808.45
523.58	34670.36
523.75	34656.31
523.92	34993.35
524.10	35068.25
524.27	35274.21
524.44	35363.15
524.61	35250.81
524.78	35573.80
524.96	35428.69
525.13	35545.72
525.30	35138.46
525.47	35981.06
525.64	35723.60
525.81	35519.97
525.98	35498.91
526.16	35859.35
526.33	35227.40
526.50	35515.29
526.67	35625.29
526.84	35306.98
527.01	34986.33
527.18	35910.84
527.36	36011.48
527.53	35805.52
527.70	36582.57
527.87	36208.09
528.04	36046.59
528.21	35988.08
528.38	36261.92
528.55	36517.04
528.72	36655.13
528.89	36376.61
529.07	36446.82
529.24	36320.43
529.41	36568.53
529.58	36559.17
529.75	36041.91
529.92	36788.54
530.09	36552.15
530.26	36961.74
530.43	37151.32
530.60	36945.36
530.77	36882.16
530.94	37034.30
531.11	36715.98
531.28	36912.59
531.46	37184.09
531.63	37156.00
531.80	37572.62
531.97	37429.85
532.14	37535.17
532.31	37123.24
532.48	37565.60
532.65	37610.07
532.82	37942.42
532.99	37912.00
533.16	37771.57
533.33	37794.97
533.50	37916.68
533.67	37663.90
533.84	37703.69
534.01	37794.97
534.18	37827.74
534.35	37881.57
534.52	37909.66
534.69	38218.61
534.86	38370.74
535.03	38597.77
535.20	38710.12
535.37	38728.84
535.54	38745.23
535.71	38565.01
535.88	38742.89
536.05	37998.60
536.22	38604.80
536.38	38548.62
536.55	38387.13
536.72	38759.27
536.89	38265.42
537.06	38132.01
537.23	38576.71
537.40	38845.87
537.57	38792.04
537.74	38569.69
537.91	39075.24
538.08	39014.39
538.25	38548.62
538.42	39007.37
538.59	39321.00
538.75	38611.82
538.92	39236.74
539.09	39641.65
539.26	39234.40
539.43	39180.57
539.60	39250.78
539.77	39239.08
539.94	39243.76
540.11	39335.04
540.28	39545.69
540.44	39578.46
540.61	39480.16
540.78	39985.71
540.95	39285.89
541.12	39180.57
541.29	39456.75
541.46	40076.99
541.62	39311.64
541.79	39859.32
541.96	39625.27
542.13	39784.43
542.30	39728.25
542.47	39896.77
542.63	40238.49
542.80	40271.26
542.97	40538.08
543.14	40236.15
543.31	40868.09
543.48	40463.18
543.64	41198.11
543.81	40612.98
543.98	40928.95
544.15	40910.22
544.32	40959.38
544.48	40882.14
544.65	41020.23
544.82	40931.29
544.99	40470.20
545.16	40926.61
545.32	40491.27
545.49	41167.68
545.66	41490.68
545.83	41174.70
546.00	40964.06
546.16	40928.95
546.33	41050.66
546.50	40741.71
546.67	41127.89
546.83	40767.45
547.00	41041.29
547.17	41446.21
547.34	41223.86
547.50	41216.83
547.67	41490.68
547.84	41467.27
548.00	41560.89
548.17	41890.91
548.34	41504.72
548.51	41677.92
548.67	42155.39
548.84	41668.56
549.01	41827.71
549.18	41448.55
549.34	41368.97
549.51	41956.44
549.68	42113.26
549.84	41867.50
550.01	41823.03
550.18	41560.89
550.34	41874.52
550.51	41680.26
550.68	42181.13
550.84	41876.86
551.01	42342.63
551.18	41570.25
551.34	42146.03
551.51	41965.81
551.68	42536.90
551.84	42773.29
552.01	41977.51
552.18	42663.28
552.34	42249.01
552.51	41890.91
552.68	41937.72
552.84	42600.09
553.01	42993.30
553.18	42511.15
553.34	42628.18
553.51	42447.96
553.67	42419.87
553.84	42948.83
554.01	43049.47
554.17	42700.73
554.34	42792.01
554.51	42850.53
554.67	43145.44
554.84	42792.01
555.00	42618.81
555.17	42611.79
555.33	42539.24
555.50	43147.78
555.67	42672.65
555.83	42244.33
556.00	42958.19
556.16	43236.72
556.33	42604.77
556.50	42997.98
556.66	43143.09
556.83	43243.74
556.99	43320.98
557.16	43239.06
557.32	43606.52
557.49	43042.45
557.65	43044.79
557.82	42637.54
557.98	42808.40
558.15	43201.61
558.32	43466.09
558.48	43349.06
558.65	43178.20
558.81	42843.51
558.98	43168.84
559.14	42906.70
559.31	43075.22
559.47	43075.22
559.64	43576.09
559.80	43416.94
559.97	43648.65
560.13	43105.65
560.30	43051.81
560.46	43601.84
560.63	43531.62
560.79	43753.97
560.96	43768.02
561.12	43742.27
561.29	43522.26
561.45	43770.36
561.61	43419.28
561.78	43742.27
561.94	43416.94
562.11	43798.44
562.27	43526.94
562.44	43545.67
562.60	43613.54
562.77	43737.59
562.93	43878.02
563.10	43803.13
563.26	43601.84
563.42	43835.89
563.59	43648.65
563.75	43419.28
563.92	43922.49
564.08	43798.44
564.24	43597.16
564.41	43819.51
564.57	43835.89
564.74	43824.19
564.90	43452.05
565.07	43545.67
565.23	44069.95
565.39	43695.46
565.56	43945.90
565.72	44011.43
565.88	44278.25
566.05	43828.87
566.21	43882.70
566.38	44098.03
566.54	44011.43
566.70	43917.81
566.87	44526.35
567.03	44149.53
567.19	44514.65
567.36	44151.87
567.52	43842.92
567.68	44568.48
567.85	43995.05
568.01	44044.20
568.17	44098.03
568.34	44329.75
568.50	44135.48
568.66	44212.72
568.83	44231.44
568.99	44060.58
569.15	43999.73
569.32	43880.36
569.48	44203.36
569.64	44186.97
569.81	44573.16
569.97	43969.30
570.13	44119.10
570.30	43936.54
570.46	44053.56
570.62	44158.89
570.78	43952.92
570.95	43988.03
571.11	44385.92
571.27	44016.11
571.43	44196.34
571.60	44327.41
571.76	43859.30
571.92	44252.51
572.09	44109.74
572.25	44261.87
572.41	43931.86
572.57	44416.35
572.74	44629.34
572.90	44091.01
573.06	44467.84
573.22	44252.51
573.38	44332.09
573.55	44142.50
573.71	44704.23
573.87	44706.57
574.03	44170.59
574.20	44388.26
574.36	44428.05
574.52	44519.33
574.68	44381.24
574.84	44395.28
575.01	44376.56
575.17	44456.14
575.33	43768.02
575.49	44208.04
575.65	44507.63
575.82	44568.48
575.98	44093.35
576.14	44570.82
576.30	44575.50
576.46	44542.74
576.62	44268.89
576.79	44072.29
576.95	44046.54
577.11	44634.02
577.27	44458.48
577.43	44261.87
577.59	44238.47
577.75	44304.00
577.92	43938.88
578.08	44418.69
578.24	44226.76
578.40	44083.99
578.56	44243.15
578.72	44325.07
578.88	44535.71
579.04	44521.67
579.21	44308.68
579.37	44587.21
579.53	44488.90
579.69	44402.30
579.85	44388.26
580.01	44832.96
580.17	44591.89
580.33	44875.09
580.49	44650.40
580.65	44919.56
580.82	44156.55
580.98	44559.12
581.14	44395.28
581.30	44247.83
581.46	44905.52
581.62	44500.61
581.78	44374.22
581.94	44842.32
582.10	44507.63
582.26	44416.35
582.42	44596.57
582.58	44959.35
582.74	44636.36
582.90	44966.37
583.06	44683.17
583.22	44250.17
583.38	45069.36
583.54	44706.57
583.70	44744.02
583.86	44547.42
584.02	44055.90
584.18	44603.59
584.34	44914.88
584.50	44788.49
584.66	44554.44
584.82	44198.68
584.98	44587.21
585.14	44673.81
585.30	44524.01
585.46	44491.24
585.62	44809.56
585.78	44362.51
585.94	44095.69
586.10	44287.62
586.26	44507.63
586.42	44451.45
586.58	44891.48
586.74	44179.95
586.90	44437.41
587.06	44603.59
587.22	44659.76
587.38	44273.57
587.54	45024.89
587.70	44704.23
587.86	44584.86
588.02	44769.77
588.18	44645.72
588.34	44465.50
588.49	44638.70
588.65	44425.71
588.81	44439.75
588.97	44641.04
589.13	44170.59
589.29	44634.02
589.45	44531.03
589.61	44362.51
589.77	44949.99
589.93	44966.37
590.08	45123.19
590.24	45013.18
590.40	45085.74
590.56	45186.38
590.72	44650.40
590.88	44849.35
591.04	45113.83
591.20	45298.73
591.35	45251.92
591.51	44708.91
591.67	44940.63
591.83	44982.76
591.99	45003.82
592.15	44947.65
592.31	44725.30
592.46	44999.14
592.62	45139.57
592.78	44678.49
592.94	45034.25
593.10	44786.15
593.26	44952.33
593.41	44788.49
593.57	44528.69
593.73	44105.06
593.89	44762.75
594.05	44533.37
594.20	44751.04
594.36	44872.75
594.52	44807.22
594.68	44790.83
594.84	44849.35
594.99	45350.22
595.15	44893.82
595.31	45134.89
595.47	44968.71
595.62	44879.77
595.78	44612.95
595.94	45137.23
596.10	45280.00
596.25	45151.27
596.41	44907.86
596.57	45092.76
596.73	45228.51
596.88	44444.43
597.04	44676.15
597.20	45043.61
597.36	44910.20
597.51	45392.35
597.67	45240.21
597.83	45083.40
597.99	44708.91
598.14	45214.47
598.30	44830.62
598.46	44987.44
598.61	44832.96
598.77	45141.91
598.93	44811.90
599.09	45099.78
599.24	45904.93
599.40	45509.38
599.56	45207.45
599.71	45151.27
599.87	45069.36
600.03	44823.60
600.18	44968.71
600.34	45329.16
600.50	45507.04
600.65	44744.02
600.81	44989.78
600.97	45043.61
601.12	44851.69
601.28	45167.66
601.44	45179.36
601.59	44760.40
601.75	44603.59
601.91	44708.91
602.06	44601.25
602.22	45137.23
602.37	44664.44
602.53	45062.33
602.69	45354.90
602.84	44624.65
603.00	44952.33
603.16	44982.76
603.31	44573.16
603.47	45043.61
603.62	44741.68
603.78	45041.27
603.94	45343.20
604.09	44802.53
604.25	45319.79
604.40	44818.92
604.56	45214.47
604.71	45345.54
604.87	44655.08
605.03	45146.59
605.18	45104.46
605.34	44746.36
605.49	44488.90
605.65	44980.42
605.80	44701.89
605.96	45228.51
606.12	44961.69
606.27	45177.02
606.43	44879.77
606.58	45003.82
606.74	44477.20
606.89	44561.46
607.05	44662.10
607.20	44849.35
607.36	44821.26
607.51	44744.02
607.67	44893.82
607.82	44891.48
607.98	44580.18
608.13	44729.98
608.29	44910.20
608.44	44109.74
608.60	44498.26
608.75	44367.20
608.91	44428.05
609.06	44524.01
609.22	44540.39
609.37	44516.99
609.53	44004.41
609.68	44346.13
609.84	44399.96
609.99	44626.99
610.15	44308.68
610.30	44486.56
610.46	44107.40
610.61	44779.13
610.76	44353.15
610.92	44383.58
611.07	44591.89
611.23	44425.71
611.38	44282.94
611.54	44231.44
611.69	44107.40
611.84	44294.64
612.00	44296.98
612.15	43983.35
612.31	44521.67
612.46	43899.09
612.62	44589.55
612.77	44182.29
612.92	44655.08
613.08	43915.47
613.23	44261.87
613.39	44201.02
613.54	43943.56
613.69	44203.36
613.85	44435.07
614.00	44158.89
614.15	44357.83
614.31	43924.83
614.46	43978.67
614.62	44020.80
614.77	43688.44
614.92	44037.18
615.08	43749.29
615.23	43819.51
615.38	43789.08
615.54	43281.19
615.69	43973.98
615.84	43896.75
616.00	44034.84
616.15	43920.15
616.30	44348.47
616.46	43908.45
616.61	43592.48
616.76	43592.48
616.92	43248.42
617.07	43152.46
617.22	43592.48
617.37	43363.11
617.53	43643.97
617.68	43892.07
617.83	43735.25
617.99	43484.81
618.14	43674.40
618.29	43440.34
618.45	43033.09
618.60	43107.99
618.75	43384.17
618.90	43650.99
619.06	43363.11
619.21	43344.38
619.36	44072.29
619.51	43323.32
619.67	42714.78
619.82	43285.87
619.97	43257.78
620.12	43248.42
620.28	43136.07
620.43	43002.66
620.58	42913.72
620.73	43051.81
620.89	42792.01
621.04	43093.94
621.19	42920.74
621.34	43370.13
621.49	43229.69
621.65	43061.18
621.80	42447.96
621.95	43047.13
622.10	42579.03
622.25	42497.11
622.41	42670.31
622.56	42452.64
622.71	42827.12
622.86	42667.97
623.01	42602.43
623.16	42583.71
623.32	42403.49
623.47	42494.77
623.62	42642.22
623.77	42256.03
623.92	42417.53
624.07	42679.67
624.23	42532.22
624.38	42178.79
624.53	42316.89
624.68	42251.35
624.83	42047.72
624.98	42506.47
625.13	42167.09
625.29	41991.55
625.44	42295.82
625.59	41839.42
625.74	42012.62
625.89	41603.02
626.04	41928.36
626.19	42246.67
626.34	41942.40
626.49	42110.92
626.65	42176.45
626.80	42335.61
626.95	41752.82
627.10	42040.70
627.25	41947.08
627.40	42066.45
627.55	41610.04
627.70	41317.48
627.85	41724.73
628.00	41516.42
628.15	41591.32
628.30	41420.46
628.45	41897.93
628.60	41621.75
628.76	41890.91
628.91	41661.54
629.06	41748.14
629.21	41469.61
629.36	41453.23
629.51	41504.72
629.66	41053.00
629.81	40942.99
629.96	41191.09
630.11	41294.07
630.26	41331.52
630.41	41530.47
630.56	41340.88
630.71	41539.83
630.86	41364.29
631.01	41153.64
631.16	41481.31
631.31	40868.09
631.46	40713.62
631.61	41045.97
631.76	41408.76
631.91	40603.61
632.06	41418.12
632.21	41352.58
632.36	41202.79
632.51	40727.66
632.66	40924.27
632.81	40692.55
632.96	40872.78
633.10	40910.22
633.25	40811.92
633.40	40793.20
633.55	40795.54
633.70	40751.07
633.85	40360.20
634.00	40884.48
634.15	40655.11
634.30	40687.87
634.45	41123.21
634.60	40615.32
634.75	40584.89
634.90	40561.48
635.05	40481.91
635.19	40444.46
635.34	40673.83
635.49	40179.98
635.64	40446.80
635.79	40477.22
635.94	40561.48
636.09	40177.64
636.24	40247.85
636.39	40306.37
636.53	40238.49
636.68	40069.97
636.83	40165.93
636.98	40182.32
637.13	39948.26
637.28	40493.61
637.43	40612.98
637.57	40151.89
637.72	40002.10
637.87	40016.14
638.02	40280.62
638.17	40203.38
638.32	39627.61
638.46	39763.36
638.61	40137.85
638.76	39622.93
638.91	40023.16
639.06	39770.38
639.20	39997.41
639.35	40032.52
639.50	39915.50
639.65	40191.68
639.80	40229.13
639.94	39887.41
640.09	39463.77
640.24	39679.10
640.39	39728.25
640.54	39763.36
640.68	39606.55
640.83	39693.15
640.98	39651.02
641.13	39470.79
641.27	39821.87
641.42	39218.02
641.57	39452.07
641.72	39459.09
641.86	39526.97
642.01	39229.72
642.16	39077.58
642.31	38773.31
642.45	39419.30
642.60	38883.32
642.75	39370.15
642.90	38859.91
643.04	38925.45
643.19	39129.08
643.34	39035.45
643.48	38916.09
643.63	38925.45
643.78	38712.46
643.93	38614.16
644.07	38768.63
644.22	39117.37
644.37	38834.17
644.51	38614.16
644.66	38932.47
644.81	38679.69
644.95	38916.09
645.10	38714.80
645.25	38937.15
645.39	38988.64
645.54	39068.22
645.69	38932.47
645.83	38754.59
645.98	38850.55
646.13	39070.56
646.27	38866.94
646.42	38473.73
646.57	38679.69
646.71	38244.35
646.86	38761.61
647.00	38593.09
647.15	38960.56
647.30	38232.65
647.44	38579.05
647.59	38581.39
647.74	38075.84
647.88	38333.29
648.03	38684.37
648.17	38167.12
648.32	38183.50
648.47	38277.12
648.61	37783.27
648.76	38466.70
648.90	38511.17
649.05	38611.82
649.20	38132.01
649.34	37839.44
649.49	37930.72
649.63	37790.29
649.78	38036.05
649.92	37902.64
650.07	38637.56
650.21	38061.79
650.36	37895.61
650.51	37727.10
650.65	38473.73
650.80	38089.88
650.94	38171.80
651.09	38029.02
651.23	38096.90
651.38	37867.53
651.52	37750.50
651.67	37469.64
651.81	37635.81
651.96	37270.69
652.10	37038.98
652.25	37579.64
652.39	37954.13
652.54	37647.52
652.68	37493.04
652.83	37586.66
652.97	37783.27
653.12	37507.08
653.26	37565.60
653.41	37530.49
653.55	37656.88
653.70	36877.48
653.84	37441.55
653.99	37670.92
654.13	37270.69
654.27	37677.94
654.42	37074.09
654.56	37017.91
654.71	37226.22
654.85	37345.59
655.00	37226.22
655.14	36788.54
655.29	36847.05
655.43	37006.21
655.57	36664.49
655.72	36809.61
655.86	36451.50
656.01	37055.36
656.15	36538.10
656.30	36945.36
656.44	36629.38
656.58	37034.30
656.73	36886.84
656.87	36954.72
657.01	36924.29
657.16	36699.60
657.30	36524.06
657.45	36385.97
657.59	36514.70
657.73	36573.21
657.88	36685.56
658.02	36718.32
658.16	36889.18
658.31	36854.08
658.45	36627.04
658.60	36505.34
658.74	36442.14
658.88	36163.62
659.03	36510.02
659.17	36568.53
659.31	35934.24
659.46	36062.97
659.60	36233.83
659.74	36329.80
659.89	36121.49
660.03	36194.04
660.17	35927.22
660.32	35887.43
660.46	36938.33
660.60	35938.93
660.74	35531.67
660.89	36121.49
661.03	35627.63
661.17	35782.11
661.32	35122.08
661.46	35091.65
661.60	35615.93
661.74	35735.30
661.89	35512.95
662.03	35826.58
662.17	35477.84
662.31	35199.32
662.46	35168.89
662.60	35339.75
662.74	35154.85
662.88	35402.94
663.03	34792.06
663.17	34665.67
663.31	34424.60
663.45	35023.78
663.60	35215.70
663.74	34909.09
663.88	34621.20
664.02	35194.64
664.17	35000.37
664.31	34813.13
664.45	34691.42
664.59	34452.69
664.73	34319.28
664.88	34597.80
665.02	34417.58
665.16	34735.89
665.30	34164.80
665.44	34471.41
665.59	33963.51
665.73	33998.62
665.87	34263.10
666.01	33776.27
666.15	33930.75
666.29	33965.85
666.44	33783.29
666.58	34075.86
666.72	33841.81
666.86	34022.03
667.00	33809.04
667.14	33729.46
667.28	33464.98
667.43	33362.00
667.57	33600.73
667.71	33537.54
667.85	33347.95
667.99	33481.36
668.13	33472.00
668.27	33338.59
668.41	33324.55
668.56	32746.44
668.70	33427.53
668.84	33448.60
668.98	32751.12
669.12	32856.44
669.26	32982.83
669.40	32804.95
669.54	32706.65
669.68	32514.72
669.82	32439.82
669.96	32877.51
670.10	32650.47
670.25	32465.57
670.39	32591.96
670.53	32343.86
670.67	32189.39
670.81	32542.81
670.95	32231.52
671.09	32554.51
671.23	32547.49
671.37	32149.60
671.51	32219.81
671.65	32283.01
671.79	31807.88
671.93	31838.31
672.07	32189.39
672.21	31887.46
672.35	31613.62
672.49	31672.13
672.63	31763.41
672.77	31887.46
672.91	31861.71
673.05	31269.56
673.19	31367.86
673.33	31063.59
673.47	31007.42
673.61	31381.90
673.75	30937.20
673.89	30597.82
674.03	30764.00
674.17	30682.08
674.31	31054.23
674.45	30675.06
674.59	30616.55
674.73	30710.17
674.87	30478.46
675.01	30293.55
675.15	30457.39
675.29	30597.82
675.43	30572.08
675.56	30225.68
675.70	30052.48
675.84	29979.92
675.98	29221.59
676.12	29890.98
676.26	29970.56
676.40	29453.30
676.54	29500.11
676.68	29509.47
676.82	29163.08
676.96	29418.19
677.10	29699.06
677.23	29261.38
677.37	29006.26
677.51	29099.88
677.65	28725.39
677.79	28666.88
677.93	28573.26
678.07	28594.32
678.21	28343.89
678.34	28390.70
678.48	28203.46
678.62	28088.77
678.76	27859.40
678.90	27859.40
679.04	28208.14
679.18	28498.36
679.31	27433.42
679.45	27908.55
679.59	27510.66
679.73	27529.38
679.87	27711.94
680.00	27278.94
680.14	27070.64
680.28	27538.74
680.42	27171.28
680.56	27384.27
680.70	27175.96
680.83	27555.13
680.97	27201.71
681.11	26909.14
681.25	26939.57
681.39	26462.10
681.52	26665.72
681.66	26714.87
681.80	26410.60
681.94	26565.08
682.07	26122.72
682.21	25989.31
682.35	26146.12
682.49	26260.81
682.62	25986.97
682.76	25933.14
682.90	25516.52
683.04	25553.97
683.17	25289.49
683.31	25062.46
683.45	25439.28
683.59	25481.41
683.72	25326.94
683.86	25163.10
684.00	25022.67
684.13	25135.01
684.27	24856.49
684.41	24678.61
684.55	24779.25
684.68	24460.94
684.82	24650.52
684.96	24208.16
685.09	24608.39
685.23	24397.74
685.37	24584.99
685.50	24484.34
685.64	23999.85
685.78	24135.60
685.91	23807.93
686.05	23831.33
686.19	23576.22
686.32	23756.44
686.46	23112.79
686.60	23288.33
686.73	23145.56
686.87	22932.57
687.01	22920.87
687.14	22904.48
687.28	22852.99
687.42	22871.72
687.55	22916.19
687.69	22932.57
687.82	22719.58
687.96	22974.70
688.10	23070.66
688.23	22356.80
688.37	22153.17
688.50	22127.42
688.64	22319.35
688.78	21858.26
688.91	22176.58
689.05	22106.36
689.18	22024.44
689.32	21682.72
689.46	21649.96
689.59	21788.05
689.73	22188.28
689.86	21717.83
690.00	21600.80
690.13	21666.34
690.27	21064.82
690.41	21275.47
690.54	20702.04
690.68	21001.63
690.81	20830.77
690.95	20748.85
691.08	20847.15
691.22	20947.79
691.35	20737.15
691.49	21081.21
691.62	20922.05
691.76	20627.14
691.89	20449.26
692.03	20599.05
692.16	20222.23
692.30	19927.32
692.43	19927.32
692.57	19716.67
692.70	19637.09
692.84	19747.10
692.97	19681.56
693.11	19648.80
693.24	19496.66
693.38	19522.41
693.51	19257.93
693.65	19171.33
693.78	19765.82
693.92	19552.84
694.05	19311.76
694.19	19115.16
694.32	19054.30
694.45	18916.21
694.59	18424.70
694.72	18658.75
694.86	18670.45
694.99	18560.45
695.13	18541.72
695.26	18527.68
695.39	18228.09
695.53	18300.65
695.66	18485.55
695.80	18340.44
695.93	18045.53
696.07	17806.80
696.20	17951.91
696.33	17703.81
696.47	17980.00
696.60	17942.55
696.73	17586.79
696.87	17638.28
697.00	18022.12
697.14	17570.40
697.27	17273.15
697.40	17326.99
697.54	17163.15
697.67	17193.58
697.80	17050.80
697.94	16966.54
698.07	16760.58
698.21	16678.66
698.34	16999.31
698.47	16533.54
698.61	16538.23
698.74	15985.86
698.87	16367.37
699.01	15826.70
699.14	16107.57
699.27	16091.18
699.40	16334.60
699.54	15887.56
699.67	16140.33
699.80	15990.54
699.94	16154.38
700.07	15709.68
700.20	15796.28
700.34	15754.15
700.47	15632.44
700.60	15901.60
700.73	16035.01
700.87	15557.54
701.00	15700.31
701.13	15337.53
701.26	15304.76
701.40	15307.10
701.53	15056.67
701.66	15033.26
701.79	15089.43
701.93	14890.49
702.06	14831.97
702.19	14616.65
702.32	14864.74
702.46	14476.21
702.59	14689.20
702.72	14677.50
702.85	14649.41
702.99	14476.21
703.12	14572.18
703.25	14209.39
703.38	14207.05
703.51	14057.26
703.65	14244.50
703.78	14200.03
703.91	14036.19
704.04	13635.96
704.17	14207.05
704.31	14094.71
704.44	13774.05
704.57	13472.12
704.70	13654.69
704.83	13582.13
704.96	13549.36
705.10	13710.86
705.23	13406.59
>>>>>End Processed Spectral Data<<<<<
