SpectraSuite Data File
++++++++++++++++++++++++++++++++++++
Date: Fri Oct 25 10:47:30 EDT 2013
User: price-jones
Dark Spectrum Present: No
Reference Spectrum Present: No
Number of Sampled Component Spectra: 1
Spectrometers: USB2+H05261
Integration Time (usec): 100000 (USB2+H05261)
Spectra Averaged: 1 (USB2+H05261)
Boxcar Smoothing: 0 (USB2+H05261)
Correct for Electrical Dark: No (USB2+H05261)
Strobe/Lamp Enabled: No (USB2+H05261)
Correct for Detector Non-linearity: No (USB2+H05261)
Correct for Stray Light: No (USB2+H05261)
Number of Pixels in Processed Spectrum: 2048
>>>>>Begin Processed Spectral Data<<<<<
365.73	147.45
365.92	147.45
366.12	147.45
366.32	65.54
366.52	46.81
366.72	0.00
366.91	28.09
367.11	77.24
367.31	42.13
367.51	70.22
367.70	58.51
367.90	11.70
368.10	9.36
368.30	7.02
368.49	91.28
368.69	32.77
368.89	18.72
369.09	37.45
369.28	98.30
369.48	70.22
369.68	25.75
369.87	133.41
370.07	53.83
370.27	154.48
370.47	189.58
370.66	414.27
370.86	386.19
371.06	428.32
371.25	547.69
371.45	397.89
371.65	411.93
371.84	400.23
372.04	491.51
372.24	484.49
372.44	475.13
372.63	479.81
372.83	493.85
373.03	425.98
373.22	550.03
373.42	512.58
373.62	528.96
373.81	477.47
374.01	519.60
374.21	498.53
374.40	449.38
374.60	512.58
374.79	489.17
374.99	585.13
375.19	554.71
375.38	667.05
375.58	538.32
375.78	636.63
375.97	554.71
376.17	653.01
376.37	561.73
376.56	629.60
376.76	550.03
376.95	566.41
377.15	648.33
377.35	561.73
377.54	667.05
377.74	608.54
377.93	702.16
378.13	643.65
378.33	608.54
378.52	648.33
378.72	575.77
378.91	638.97
379.11	664.71
379.31	580.45
379.50	641.31
379.70	620.24
379.89	704.50
380.09	638.97
380.28	667.05
380.48	629.60
380.68	599.18
380.87	660.03
381.07	669.39
381.26	730.25
381.46	706.84
381.65	648.33
381.85	704.50
382.04	601.52
382.24	716.20
382.43	627.26
382.63	617.90
382.83	713.86
383.02	760.67
383.22	786.42
383.41	709.18
383.61	734.93
383.80	748.97
384.00	683.44
384.19	727.91
384.39	697.48
384.58	744.29
384.78	662.37
384.97	739.61
385.17	760.67
385.36	725.57
385.56	739.61
385.75	716.20
385.95	763.01
386.14	800.46
386.34	777.06
386.53	812.17
386.72	807.48
386.92	847.27
387.11	840.25
387.31	774.72
387.50	830.89
387.70	741.95
387.89	788.76
388.09	819.19
388.28	854.30
388.48	788.76
388.67	830.89
388.86	786.42
389.06	805.14
389.25	905.79
389.45	894.08
389.64	821.53
389.84	933.87
390.03	908.13
390.22	926.85
390.42	833.23
390.61	896.43
390.81	849.61
391.00	896.43
391.19	987.71
391.39	952.60
391.58	992.39
391.78	938.55
391.97	954.94
392.16	903.45
392.36	1004.09
392.55	964.30
392.75	976.00
392.94	929.19
393.13	938.55
393.33	992.39
393.52	973.66
393.71	987.71
393.91	1107.07
394.10	952.60
394.29	1025.15
394.49	1015.79
394.68	1076.65
394.88	1062.60
395.07	1151.54
395.26	1196.01
395.46	1032.18
395.65	1158.57
395.84	1022.81
396.04	1090.69
396.23	1057.92
396.42	1027.50
396.62	1081.33
396.81	1107.07
397.00	1172.61
397.19	1247.51
397.39	1165.59
397.58	1191.33
397.77	1200.69
397.97	1135.16
398.16	1233.46
398.35	1191.33
398.55	1287.29
398.74	1252.19
398.93	1315.38
399.12	1226.44
399.32	1196.01
399.51	1280.27
399.70	1350.49
399.90	1317.72
400.09	1401.98
400.28	1376.24
400.47	1434.75
400.67	1338.79
400.86	1401.98
401.05	1378.58
401.24	1460.49
401.44	1493.26
401.63	1425.39
401.82	1448.79
402.01	1430.07
402.21	1511.99
402.40	1521.35
402.59	1483.90
402.78	1462.83
402.97	1495.60
403.17	1444.11
403.36	1598.59
403.55	1577.52
403.74	1624.33
403.93	1612.63
404.13	1568.16
404.32	1699.23
404.51	1678.16
404.70	1537.73
404.89	1603.27
405.09	1736.68
405.28	1647.74
405.47	1746.04
405.66	1701.57
405.85	1722.63
406.05	1675.82
406.24	1748.38
406.43	1785.83
406.62	1654.76
406.81	1928.60
407.00	1839.66
407.20	1743.70
407.39	1891.15
407.58	1811.57
407.77	1914.56
407.96	1947.33
408.15	1970.73
408.34	1813.92
408.54	1970.73
408.73	1926.26
408.92	1998.82
409.11	1989.46
409.30	1923.92
409.49	1956.69
409.68	1916.90
409.87	2106.48
410.07	2029.24
410.26	2062.01
410.45	2111.16
410.64	2218.83
410.83	2104.14
411.02	2216.49
411.21	2172.02
411.40	2251.60
411.59	2277.34
411.78	2244.57
411.98	2204.78
412.17	2279.68
412.36	2310.11
412.55	2420.11
412.74	2396.71
412.93	2450.54
413.12	2272.66
413.31	2490.33
413.50	2406.07
413.69	2487.99
413.88	2441.18
414.07	2530.12
414.26	2590.97
414.45	2516.08
414.64	2572.25
414.83	2605.02
415.02	2602.68
415.22	2583.95
415.41	2658.85
415.60	2675.23
415.79	2736.09
415.98	2785.24
416.17	2815.66
416.36	2808.64
416.55	2836.73
416.74	2920.99
416.93	2794.60
417.12	2775.88
417.31	2867.16
417.50	2942.05
417.69	2972.48
417.88	2937.37
418.07	3028.65
418.26	2970.14
418.45	2951.42
418.64	3164.40
418.83	3112.91
419.02	3012.27
419.21	3164.40
419.39	3138.66
419.58	3169.09
419.77	3070.78
419.96	3122.27
420.15	3124.62
420.34	3232.28
420.53	3323.56
420.72	3407.82
420.91	3349.31
421.10	3281.43
421.29	3288.45
421.48	3176.11
421.67	3276.75
421.86	3314.20
422.05	3328.24
422.24	3321.22
422.43	3234.62
422.61	3353.99
422.80	3431.23
422.99	3325.90
423.18	3419.52
423.37	3597.40
423.56	3494.42
423.75	3414.84
423.94	3283.77
424.13	3225.26
424.32	3213.56
424.50	3489.74
424.69	3557.61
424.88	3529.53
425.07	3307.18
425.26	3499.10
425.45	3407.82
425.64	3520.17
425.83	3346.97
426.01	3660.60
426.20	3433.57
426.39	3585.70
426.58	3463.99
426.77	3482.72
426.96	3461.65
427.15	3452.29
427.33	3555.27
427.52	3618.47
427.71	3702.73
427.90	3634.85
428.09	3744.86
428.28	3590.38
428.46	3728.47
428.65	3581.02
428.84	3765.92
429.03	3705.07
429.22	3686.34
429.40	3688.68
429.59	3698.05
429.78	3623.15
429.97	3623.15
430.16	3810.39
430.34	3749.54
430.53	3669.96
430.72	3868.91
430.91	3775.28
431.10	3854.86
431.28	3985.93
431.47	4063.17
431.66	4093.60
431.85	3978.91
432.03	4023.38
432.22	4060.83
432.41	4049.13
432.60	4009.34
432.79	4131.05
432.97	4208.28
433.16	4119.34
433.35	4046.79
433.54	4154.45
433.72	4255.09
433.91	4224.67
434.10	4227.01
434.28	4159.13
434.47	4131.05
434.66	4241.05
434.85	4306.59
435.03	4430.63
435.22	4283.18
435.41	4472.76
435.59	4456.38
435.78	4379.14
435.97	4360.42
436.16	4477.44
436.34	4533.62
436.53	4498.51
436.72	4503.19
436.90	4430.63
437.09	4624.90
437.28	4484.47
437.46	4662.35
437.65	4559.36
437.84	4617.88
438.02	4678.73
438.21	4725.54
438.40	4622.56
438.58	4856.61
438.77	4842.57
438.96	4706.82
439.14	4882.36
439.33	4880.02
439.52	4990.02
439.70	5071.94
439.89	4983.00
440.08	5093.01
440.26	4968.96
440.45	5078.96
440.63	5184.29
440.82	5095.35
441.01	5238.12
441.19	5132.79
441.38	5303.65
441.57	5203.01
441.75	5385.57
441.94	5425.36
442.12	5476.85
442.31	5577.50
442.50	5397.28
442.68	5458.13
442.87	5474.51
443.05	5729.63
443.24	5631.33
443.43	5645.37
443.61	5830.27
443.80	5785.80
443.98	5453.45
444.17	5568.13
444.35	5526.00
444.54	5715.59
444.73	5703.89
444.91	5628.99
445.10	5603.24
445.28	5614.95
445.47	5568.13
445.65	5598.56
445.84	5928.58
446.02	5685.16
446.21	5706.23
446.39	5710.91
446.58	5823.25
446.77	5954.32
446.95	5802.19
447.14	5792.83
447.32	5708.57
447.51	5762.40
447.69	5858.36
447.88	5797.51
448.06	5816.23
448.25	5923.90
448.43	5792.83
448.62	5858.36
448.80	5778.78
448.99	5968.37
449.17	6031.56
449.36	5968.37
449.54	6059.65
449.73	6017.52
449.91	6134.54
450.10	6094.76
450.28	6153.27
450.46	6274.98
450.65	6183.70
450.83	6200.08
451.02	6167.31
451.20	6286.68
451.39	6321.79
451.57	6230.51
451.76	6289.02
451.94	6305.40
452.13	6321.79
452.31	6305.40
452.49	6274.98
452.68	6427.11
452.86	6321.79
453.05	6286.68
453.23	6518.39
453.42	6415.41
453.60	6422.43
453.78	6490.31
453.97	6415.41
454.15	6408.39
454.34	6415.41
454.52	6738.40
454.70	6572.22
454.89	6593.29
455.07	6635.42
455.26	6712.66
455.44	6771.17
455.62	6614.35
455.81	6794.58
455.99	6705.63
456.17	6848.41
456.36	6937.35
456.54	6862.45
456.73	7077.78
456.91	7061.40
457.09	7059.06
457.28	7279.07
457.46	7236.94
457.64	7157.36
457.83	7155.02
458.01	7094.16
458.19	7148.00
458.38	7192.47
458.56	7393.75
458.74	7229.91
458.93	7311.83
459.11	7157.36
459.29	7274.38
459.48	7265.02
459.66	7321.20
459.84	7412.48
460.03	7573.97
460.21	7545.89
460.39	7456.95
460.57	7356.30
460.76	7520.14
460.94	7503.76
461.12	7595.04
461.31	7480.35
461.49	7407.80
461.67	7454.61
461.85	7515.46
462.04	7573.97
462.22	8180.17
462.40	7850.16
462.59	7651.21
462.77	7693.34
462.95	7850.16
463.13	7789.30
463.32	7915.69
463.50	7880.58
463.68	7798.66
463.86	7873.56
464.05	7885.26
464.23	7925.05
464.41	7957.82
464.59	7761.22
464.78	8053.78
464.96	7981.23
465.14	7779.94
465.32	8081.87
465.50	8257.41
465.69	8222.30
465.87	8212.94
466.05	8128.68
466.23	8093.57
466.41	8421.25
466.60	8463.38
466.78	8142.72
466.96	8318.26
467.14	8250.39
467.32	8248.05
467.51	8245.71
467.69	8224.64
467.87	8056.12
468.05	8308.90
468.23	8493.80
468.41	8400.18
468.60	8276.13
468.78	8489.12
468.96	8444.65
469.14	8477.42
469.32	8631.90
469.50	8369.76
469.69	8484.44
469.87	8702.11
470.05	8858.93
470.23	8643.60
470.41	8599.13
470.59	8732.54
470.77	8610.83
470.95	8917.44
471.14	9008.72
471.32	8926.80
471.50	8982.98
471.68	8975.95
471.86	9273.20
472.04	9167.88
472.22	9245.12
472.40	8887.01
472.58	9097.66
472.77	9205.33
472.95	9397.25
473.13	9633.64
473.31	9247.46
473.49	9177.24
473.67	9516.62
473.85	9554.07
474.03	9671.09
474.21	9664.07
474.39	9687.48
474.57	9753.01
474.75	9928.55
474.93	9933.23
475.12	9989.41
475.30	9933.23
475.48	9930.89
475.66	10104.09
475.84	9865.36
476.02	10094.73
476.20	10267.93
476.38	10408.36
476.56	10619.01
476.74	10579.22
476.92	10527.73
477.10	10274.95
477.28	10644.76
477.46	10609.65
477.64	10820.30
477.82	11044.99
478.00	11162.01
478.18	10913.92
478.36	11178.40
478.54	11456.92
478.72	11176.06
478.90	11428.84
479.08	11595.01
479.26	11770.55
479.44	11742.47
479.62	12018.65
479.80	11662.89
479.98	11822.05
480.16	12173.13
480.34	11910.99
480.52	12280.79
480.70	12123.98
480.88	12098.23
481.06	12058.44
481.24	12372.07
481.41	12533.57
481.59	12709.11
481.77	12681.02
481.95	12877.63
482.13	12954.87
482.31	12781.67
482.49	13231.05
482.67	13301.26
482.85	13275.52
483.03	13493.19
483.21	13455.74
483.39	13818.52
483.57	13532.98
483.74	13654.69
483.92	13799.80
484.10	13977.68
484.28	14118.11
484.46	14160.24
484.64	14668.14
484.82	14359.19
485.00	14523.02
485.18	14630.69
485.35	14721.97
485.53	14752.40
485.71	14733.67
485.89	14939.64
486.07	15204.12
486.25	15070.71
486.43	15269.66
486.61	15484.98
486.78	15578.61
486.96	15566.90
487.14	15779.89
487.32	16161.40
487.50	16065.44
487.68	16208.21
487.85	16559.29
488.03	16601.42
488.21	16601.42
488.39	16362.69
488.57	17167.83
488.75	16985.27
488.92	17219.32
489.10	17202.94
489.28	17298.90
489.46	17254.43
489.64	17462.74
489.81	17827.86
489.99	18118.09
490.17	17928.50
490.35	18272.56
490.53	18214.05
490.70	18319.37
490.88	18211.71
491.06	18593.22
491.24	18408.31
491.41	18635.35
491.59	18616.62
491.77	18998.13
491.95	18991.11
492.13	19124.52
492.30	19351.55
492.48	19679.22
492.66	19721.35
492.84	19414.74
493.01	19564.54
493.19	20100.52
493.37	20056.05
493.54	20215.21
493.72	20306.49
493.90	20657.57
494.08	20524.16
494.25	20830.77
494.43	20655.23
494.61	20985.24
494.79	20980.56
494.96	21029.71
495.14	21226.32
495.32	21422.92
495.49	21664.00
495.67	21640.59
495.85	21495.48
496.02	21846.56
496.20	21687.40
496.38	21982.31
496.55	22190.62
496.73	22625.96
496.91	22270.20
497.09	22483.19
497.26	22597.87
497.44	22733.62
497.62	22794.48
497.79	22981.72
497.97	22881.08
498.14	23136.20
498.32	23016.83
498.50	23377.27
498.67	23559.83
498.85	23183.01
499.03	23740.05
499.20	23730.69
499.38	23520.04
499.56	23604.30
499.73	23899.21
499.91	24180.07
500.08	23981.13
500.26	23824.31
500.44	24130.92
500.61	24383.70
500.79	24121.56
500.97	24439.87
501.14	24823.72
501.32	24732.44
501.49	24737.12
501.67	24496.05
501.84	25069.48
502.02	25280.13
502.20	25146.72
502.37	25076.50
502.55	25268.42
502.72	25563.33
502.90	25891.01
503.07	25301.19
503.25	25486.09
503.43	25453.33
503.60	25764.62
503.78	25764.62
503.95	26008.03
504.13	25731.85
504.30	26265.49
504.48	26141.44
504.65	26326.35
504.83	26324.01
505.01	26700.83
505.18	26548.70
505.36	26637.64
505.53	26759.34
505.71	26808.50
505.88	27089.36
506.06	26852.97
506.23	26787.43
506.41	26796.79
506.58	26934.88
506.76	27110.43
506.93	27016.80
507.11	27314.05
507.28	27349.16
507.46	27400.65
507.63	27393.63
507.81	27915.57
507.98	27393.63
508.16	27660.45
508.33	27613.64
508.50	27761.09
508.68	27915.57
508.85	28388.36
509.03	27941.32
509.20	28011.53
509.38	28608.37
509.55	28336.87
509.73	28435.17
509.90	28802.63
510.08	28580.28
510.25	28591.98
510.42	28629.43
510.60	29308.19
510.77	29214.57
510.95	29324.57
511.12	28795.61
511.30	29301.17
511.47	29567.99
511.64	29450.96
511.82	29677.99
511.99	29226.27
512.17	29432.24
512.34	29179.46
512.51	29841.83
512.69	29734.17
512.86	30206.95
513.04	30356.75
513.21	30096.95
513.38	29963.54
513.56	29848.85
513.73	29867.58
513.90	30429.30
514.08	30288.87
514.25	30637.61
514.43	30586.12
514.60	30604.84
514.77	30443.35
514.95	30841.24
515.12	30967.63
515.29	30923.16
515.47	31129.12
515.64	31309.35
515.81	31339.77
515.99	31143.17
516.16	31138.49
516.33	31381.90
516.51	31405.31
516.68	31358.50
516.85	31049.55
517.03	31377.22
517.20	31796.18
517.37	31702.56
517.54	31892.14
517.72	31468.50
517.89	31622.98
518.06	31971.72
518.24	31447.44
518.41	31318.71
518.58	31850.01
518.75	32137.90
518.93	32313.44
519.10	31964.70
519.27	32491.32
519.45	32477.27
519.62	32500.68
519.79	32559.19
519.96	33027.30
520.14	32947.72
520.31	32772.18
520.48	32610.68
520.65	32910.27
520.83	32973.47
521.00	33202.84
521.17	32957.08
521.34	33076.45
521.52	32907.93
521.69	33354.97
521.86	33450.94
522.03	33565.62
522.20	33675.63
522.38	33455.62
522.55	33947.13
522.72	33591.37
522.89	33591.37
523.07	34071.18
523.24	33535.20
523.41	34483.11
523.58	34099.26
523.75	34567.37
523.92	34377.79
524.10	34712.49
524.27	34260.76
524.44	34494.82
524.61	34492.47
524.78	34719.51
524.96	35115.06
525.13	34738.23
525.30	35115.06
525.47	34890.37
525.64	34855.26
525.81	34775.68
525.98	35110.38
526.16	34639.93
526.33	34955.90
526.50	35274.21
526.67	34995.69
526.84	34855.26
527.01	34611.84
527.18	35447.41
527.36	35442.73
527.53	35290.60
527.70	35672.10
527.87	35599.55
528.04	35559.76
528.21	35585.50
528.38	35323.36
528.55	35653.38
528.72	35768.07
528.89	36163.62
529.07	35864.03
529.24	35817.22
529.41	36027.87
529.58	36264.26
529.75	35938.93
529.92	36392.99
530.09	36177.66
530.26	36198.73
530.43	36610.66
530.60	36554.49
530.77	36114.47
530.94	36884.50
531.11	36512.36
531.28	36636.41
531.46	36713.64
531.63	36725.35
531.80	36840.03
531.97	37006.21
532.14	36760.45
532.31	37034.30
532.48	36755.77
532.65	37333.89
532.82	36919.61
532.99	36933.65
533.16	36903.23
533.33	37261.33
533.50	37230.90
533.67	37558.58
533.84	37450.91
534.01	37413.46
534.18	37022.59
534.35	37413.46
534.52	37277.71
534.69	37778.59
534.86	37205.16
535.03	37413.46
535.20	37935.40
535.37	38113.28
535.54	38033.71
535.71	37893.27
535.88	37422.83
536.05	37844.12
536.22	37956.47
536.38	38162.43
536.55	37703.69
536.72	38054.77
536.89	37886.25
537.06	38127.33
537.23	38174.14
537.40	38445.64
537.57	38267.76
537.74	37954.13
537.91	38670.33
538.08	38768.63
538.25	37989.24
538.42	38251.38
538.59	38408.19
538.75	38761.61
538.92	38429.26
539.09	38682.03
539.26	38665.65
539.43	38679.69
539.60	39007.37
539.77	38576.71
539.94	39068.22
540.11	38782.68
540.28	38651.61
540.44	39124.40
540.61	38916.09
540.78	38721.82
540.95	38841.19
541.12	39019.07
541.29	39040.14
541.46	38960.56
541.62	39328.02
541.79	39599.52
541.96	39180.57
542.13	39269.51
542.30	39653.36
542.47	39426.32
542.63	39241.42
542.80	39552.71
542.97	39821.87
543.14	40100.40
543.31	40341.47
543.48	39908.47
543.64	40605.95
543.81	40039.54
543.98	40072.31
544.15	40076.99
544.32	40467.86
544.48	40451.48
544.65	40336.79
544.82	40399.99
544.99	40154.23
545.16	40355.52
545.32	40091.04
545.49	40435.10
545.66	40966.40
545.83	40039.54
546.00	40268.92
546.16	40252.53
546.33	40205.72
546.50	40332.11
546.67	40594.25
546.83	40610.64
547.00	40671.49
547.17	40659.79
547.34	40676.17
547.50	41144.28
547.67	41055.34
547.84	40842.35
548.00	40996.82
548.17	41256.62
548.34	41193.43
548.51	40886.82
548.67	41357.27
548.84	41378.33
549.01	41544.51
549.18	41053.00
549.34	41380.67
549.51	41291.73
549.68	41088.10
549.84	41205.13
550.01	41523.44
550.18	41020.23
550.34	40807.24
550.51	41645.15
550.68	41008.53
550.84	40781.49
551.01	41443.87
551.18	41289.39
551.34	41378.33
551.51	41263.64
551.68	41380.67
551.84	41542.17
552.01	41574.94
552.18	41422.80
552.34	41345.56
552.51	41958.78
552.68	41876.86
552.84	41722.39
553.01	42256.03
553.18	41673.24
553.34	41820.69
553.51	41858.14
553.67	41799.63
553.84	42473.70
554.01	42302.84
554.17	42691.37
554.34	42307.52
554.51	42211.56
554.67	42326.25
554.84	42003.25
555.00	42162.41
555.17	42134.32
555.33	42281.78
555.50	42361.36
555.67	42394.12
555.83	42373.06
556.00	42089.85
556.16	42857.55
556.33	42415.19
556.50	42958.19
556.66	43016.71
556.83	42356.67
556.99	42426.89
557.16	42777.97
557.32	42630.52
557.49	42401.14
557.65	42300.50
557.82	42274.76
557.98	42602.43
558.15	42555.62
558.32	42859.89
558.48	42930.11
558.65	42710.10
558.81	42466.68
558.98	42951.17
559.14	42890.32
559.31	42953.51
559.47	42693.71
559.64	43255.44
559.80	43145.44
559.97	43299.91
560.13	42600.09
560.30	42611.79
560.46	43220.33
560.63	43154.80
560.79	43112.67
560.96	43533.96
561.12	43276.51
561.29	43337.36
561.45	43318.64
561.61	43021.39
561.78	43253.10
561.94	43002.66
562.11	43159.48
562.27	43215.65
562.44	43283.53
562.60	43725.89
562.77	43636.95
562.93	43393.53
563.10	43267.14
563.26	43110.33
563.42	43833.55
563.59	43398.21
563.75	43470.77
563.92	43632.27
564.08	43318.64
564.24	44018.46
564.41	43248.42
564.57	42955.85
564.74	43885.04
564.90	43576.09
565.07	43746.95
565.23	43627.59
565.39	43260.12
565.56	43901.43
565.72	43550.35
565.88	43742.27
566.05	43391.19
566.21	43395.87
566.38	43143.09
566.54	43487.15
566.70	43885.04
566.87	44107.40
567.03	43665.03
567.19	43901.43
567.36	43798.44
567.52	43550.35
567.68	43805.47
567.85	43885.04
568.01	43711.84
568.17	43510.56
568.34	44128.46
568.50	44039.52
568.66	43749.29
568.83	44114.42
568.99	43578.43
569.15	43578.43
569.32	43576.09
569.48	43007.34
569.64	43849.94
569.81	44027.82
569.97	43765.68
570.13	43863.98
570.30	43739.93
570.46	43578.43
570.62	44006.75
570.78	43531.62
570.95	44168.25
571.11	43966.96
571.27	43833.55
571.43	43866.32
571.60	44137.82
571.76	43952.92
571.92	43639.29
572.09	43938.88
572.25	44222.08
572.41	44079.31
572.57	43971.64
572.74	44598.91
572.90	43917.81
573.06	43735.25
573.22	43983.35
573.38	43901.43
573.55	43585.46
573.71	44100.37
573.87	44289.96
574.03	44079.31
574.20	43924.83
574.36	44203.36
574.52	44339.11
574.68	43931.86
574.84	44020.80
575.01	43927.17
575.17	43922.49
575.33	43985.69
575.49	43995.05
575.65	44093.35
575.82	44502.95
575.98	44231.44
576.14	44652.74
576.30	44397.62
576.46	43981.01
576.62	44236.12
576.79	43901.43
576.95	43650.99
577.11	44062.93
577.27	44439.75
577.43	44296.98
577.59	44184.63
577.75	44416.35
577.92	43660.35
578.08	43995.05
578.24	44245.49
578.40	44091.01
578.56	43985.69
578.72	44521.67
578.88	43655.67
579.04	44046.54
579.21	44119.10
579.37	43849.94
579.53	44706.57
579.69	43557.37
579.85	44287.62
580.01	44151.87
580.17	44069.95
580.33	44371.88
580.49	43955.26
580.65	44327.41
580.82	44091.01
580.98	43845.26
581.14	44292.30
581.30	44287.62
581.46	44500.61
581.62	44058.24
581.78	44147.18
581.94	44470.18
582.10	44034.84
582.26	44252.51
582.42	44580.18
582.58	44212.72
582.74	44079.31
582.90	44222.08
583.06	44402.30
583.22	44390.60
583.38	44477.20
583.54	44034.84
583.70	44219.74
583.86	44259.53
584.02	43817.17
584.18	44406.98
584.34	44540.39
584.50	44299.32
584.66	44374.22
584.82	44182.29
584.98	44795.51
585.14	44318.04
585.30	44039.52
585.46	44149.53
585.62	43892.07
585.78	44350.81
585.94	44076.97
586.10	43985.69
586.26	44411.67
586.42	44556.78
586.58	44072.29
586.74	44439.75
586.90	44374.22
587.06	44189.31
587.22	44472.52
587.38	44399.96
587.54	44421.03
587.70	44863.39
587.86	44725.30
588.02	44163.57
588.18	44573.16
588.34	44194.00
588.49	44423.37
588.65	44432.73
588.81	44481.88
588.97	44250.17
589.13	44128.46
589.29	44086.33
589.45	44631.68
589.61	44617.63
589.77	44622.31
589.93	44591.89
590.08	44467.84
590.24	44758.06
590.40	44722.96
590.56	45045.95
590.72	44596.57
590.88	44348.47
591.04	44432.73
591.20	45125.53
591.35	44322.72
591.51	44980.42
591.67	44631.68
591.83	44411.67
591.99	44570.82
592.15	44201.02
592.31	44727.64
592.46	44364.85
592.62	44636.36
592.78	44575.50
592.94	45120.85
593.10	44795.51
593.26	44928.92
593.41	44711.25
593.57	44573.16
593.73	44474.86
593.89	44444.43
594.05	44643.38
594.20	44346.13
594.36	45200.43
594.52	45315.11
594.68	44545.08
594.84	44650.40
594.99	44987.44
595.15	44676.15
595.31	44865.73
595.47	44814.24
595.62	44858.71
595.78	45008.50
595.94	44994.46
596.10	45305.75
596.25	45116.17
596.41	44760.40
596.57	44542.74
596.73	44498.26
596.88	44751.04
597.04	44610.61
597.20	44481.88
597.36	44690.19
597.51	44875.09
597.67	44732.32
597.83	44708.91
597.99	45099.78
598.14	44547.42
598.30	44964.03
598.46	44919.56
598.61	45001.48
598.77	44399.96
598.93	44802.53
599.09	45083.40
599.24	44914.88
599.40	45081.06
599.56	44760.40
599.71	44680.83
599.87	45064.67
600.03	44767.43
600.18	44715.93
600.34	45083.40
600.50	44758.06
600.65	44708.91
600.81	45265.96
600.97	45172.34
601.12	44959.35
601.28	44601.25
601.44	44713.59
601.59	44893.82
601.75	44804.88
601.91	45015.52
602.06	44556.78
602.22	45071.70
602.37	44935.95
602.53	44748.70
602.69	45193.40
602.84	45195.74
603.00	44765.09
603.16	44580.18
603.31	44406.98
603.47	44767.43
603.62	44404.64
603.78	44830.62
603.94	44839.98
604.09	45127.87
604.25	44945.31
604.40	44449.11
604.56	44732.32
604.71	44919.56
604.87	44889.13
605.03	44795.51
605.18	44449.11
605.34	44737.00
605.49	44456.14
605.65	45001.48
605.80	44509.97
605.96	44931.26
606.12	44737.00
606.27	44973.39
606.43	44961.69
606.58	44706.57
606.74	44465.50
606.89	44566.14
607.05	44786.15
607.20	44706.57
607.36	44626.99
607.51	44907.86
607.67	44769.77
607.82	44751.04
607.98	44933.60
608.13	44837.64
608.29	44739.34
608.44	44339.11
608.60	44116.76
608.75	44165.91
608.91	44542.74
609.06	44793.17
609.22	44622.31
609.37	43863.98
609.53	44547.42
609.68	43908.45
609.84	44507.63
609.99	44325.07
610.15	44044.20
610.30	44306.34
610.46	44245.49
610.61	43866.32
610.76	44067.61
610.92	44013.77
611.07	44194.00
611.23	44135.48
611.38	44177.61
611.54	44109.74
611.69	43863.98
611.84	43639.29
612.00	43995.05
612.15	43580.78
612.31	44091.01
612.46	43728.23
612.62	44257.19
612.77	43964.62
612.92	44163.57
613.08	43742.27
613.23	43943.56
613.39	43955.26
613.54	43716.53
613.69	43683.76
613.85	44170.59
614.00	44245.49
614.15	44313.36
614.31	44212.72
614.46	44275.91
614.62	44013.77
614.77	43924.83
614.92	43330.34
615.08	43613.54
615.23	44123.78
615.38	43700.14
615.54	43704.82
615.69	43332.68
615.84	43496.52
616.00	43643.97
616.15	43524.60
616.30	43648.65
616.46	43468.43
616.61	43304.59
616.76	43613.54
616.92	43012.02
617.07	42986.28
617.22	43454.39
617.37	43138.41
617.53	43548.01
617.68	43412.26
617.83	43578.43
617.99	43580.78
618.14	43945.90
618.29	43423.96
618.45	43328.00
618.60	43096.28
618.75	43159.48
618.90	43505.88
619.06	43267.14
619.21	43540.99
619.36	43206.29
619.51	43175.86
619.67	43136.07
619.82	43084.58
619.97	43402.89
620.12	43044.79
620.28	42483.06
620.43	42651.58
620.58	43281.19
620.73	42787.33
620.89	43143.09
621.04	43152.46
621.19	42895.00
621.34	42927.77
621.49	42436.25
621.65	42052.41
621.80	42801.38
621.95	42712.44
622.10	43009.68
622.25	42799.04
622.41	42450.30
622.56	43051.81
622.71	43194.59
622.86	42440.93
623.01	42932.45
623.16	43182.88
623.32	42923.08
623.47	42749.88
623.62	42721.80
623.77	42162.41
623.92	42160.07
624.07	42527.53
624.23	42328.59
624.38	42363.70
624.53	42031.34
624.68	42375.40
624.83	42429.23
624.98	42274.76
625.13	42291.14
625.29	42141.35
625.44	42429.23
625.59	42569.66
625.74	42054.75
625.89	41696.64
626.04	41745.80
626.19	42003.25
626.34	42171.77
626.49	42071.13
626.65	41942.40
626.80	42092.19
626.95	41759.84
627.10	41797.29
627.25	41928.36
627.40	41736.43
627.55	41605.36
627.70	41041.29
627.85	41794.95
628.00	41830.05
628.15	42050.06
628.30	42160.07
628.45	41984.53
628.60	41778.56
628.76	41956.44
628.91	41818.35
629.06	41464.93
629.21	41305.77
629.36	41118.53
629.51	41364.29
629.66	41404.08
629.81	41254.28
629.96	41202.79
630.11	41642.81
630.26	41642.81
630.41	41401.74
630.56	41401.74
630.71	41464.93
630.86	40961.72
631.01	41249.60
631.16	41567.91
631.31	40994.48
631.46	40549.78
631.61	41319.82
631.76	41329.18
631.91	41638.13
632.06	40989.80
632.21	41315.14
632.36	41251.94
632.51	41181.73
632.66	40720.64
632.81	40722.98
632.96	40751.07
633.10	41167.68
633.25	41045.97
633.40	40722.98
633.55	41228.54
633.70	40811.92
633.85	40435.10
634.00	40858.73
634.15	40814.26
634.30	40460.84
634.45	40467.86
634.60	40465.52
634.75	40694.89
634.90	40793.20
635.05	40636.38
635.19	41074.06
635.34	40919.59
635.49	40683.19
635.64	40507.65
635.79	40266.58
635.94	40699.58
636.09	40383.60
636.24	40697.24
636.39	39880.39
636.53	39924.86
636.68	39906.13
636.83	40053.59
636.98	40416.37
637.13	39959.97
637.28	40397.65
637.43	40306.37
637.57	40196.36
637.72	40154.23
637.87	39777.40
638.02	39807.83
638.17	40217.43
638.32	39852.30
638.46	39950.60
638.61	39723.57
638.76	39852.30
638.91	40086.36
639.06	39852.30
639.20	40240.83
639.35	39952.94
639.50	39997.41
639.65	40142.53
639.80	40030.18
639.94	40027.84
640.09	39751.66
640.24	39866.34
640.39	39391.22
640.54	39512.92
640.68	39253.12
640.83	39367.81
640.98	39468.45
641.13	39421.64
641.27	39943.58
641.42	39454.41
641.57	39512.92
641.72	39620.59
641.86	39222.70
642.01	39213.34
642.16	39042.48
642.31	38843.53
642.45	39454.41
642.60	39103.33
642.75	39337.38
642.90	39384.19
643.04	38707.78
643.19	39548.03
643.34	39154.82
643.48	39304.62
643.63	38918.43
643.78	39079.92
643.93	38768.63
644.07	39166.52
644.22	39264.83
644.37	38483.09
644.51	38850.55
644.66	39126.74
644.81	38649.27
644.95	38829.49
645.10	38913.75
645.25	39302.28
645.39	38962.90
645.54	39096.31
645.69	38927.79
645.83	38792.04
645.98	38721.82
646.13	38836.51
646.27	38836.51
646.42	38419.89
646.57	38623.52
646.71	38768.63
646.86	39091.63
647.00	38897.36
647.15	38539.26
647.30	38527.56
647.44	38630.54
647.59	38319.25
647.74	38387.13
647.88	38726.50
648.03	38597.77
648.17	38983.96
648.32	38007.96
648.47	37682.62
648.61	38209.25
648.76	38447.98
648.90	38218.61
649.05	38555.64
649.20	38391.81
649.34	38419.89
649.49	37783.27
649.63	38452.66
649.78	37858.17
649.92	38234.99
650.07	38560.33
650.21	38178.82
650.36	37752.84
650.51	37933.06
650.65	38312.23
650.80	37965.83
650.94	38366.06
651.09	38326.27
651.23	37801.99
651.38	37813.70
651.52	37556.24
651.67	38000.94
651.81	38054.77
651.96	38160.09
652.10	37752.84
652.25	37642.84
652.39	37317.50
652.54	37612.41
652.68	37804.33
652.83	37724.75
652.97	37694.33
653.12	38043.07
653.26	37467.30
653.41	37666.24
653.55	37638.15
653.70	37233.24
653.84	37240.26
653.99	37174.73
654.13	37523.47
654.27	37479.00
654.42	37535.17
654.56	37357.29
654.71	37387.72
654.85	37766.88
655.00	37207.50
655.14	37158.34
655.29	37046.00
655.43	37132.60
655.57	36648.11
655.72	36919.61
655.86	36610.66
656.01	37198.13
656.15	37123.24
656.30	36718.32
656.44	36825.99
656.58	37139.62
656.73	36430.44
656.87	37027.28
657.01	36418.74
657.16	36685.56
657.30	36458.52
657.45	36444.48
657.59	36472.57
657.73	36584.91
657.88	36589.59
658.02	36329.80
658.16	36694.92
658.31	36856.42
658.45	36580.23
658.60	36376.61
658.74	36549.81
658.88	36879.82
659.03	36203.41
659.17	36133.19
659.31	36072.34
659.46	36481.93
659.60	36072.34
659.74	36086.38
659.89	35543.38
660.03	35700.19
660.17	36238.51
660.32	36175.32
660.46	36444.48
660.60	35929.56
660.74	36088.72
660.89	36002.12
661.03	35164.21
661.17	35754.02
661.32	35538.69
661.46	35578.48
661.60	35292.94
661.74	35529.33
661.89	35332.73
662.03	35316.34
662.17	35194.64
662.31	35529.33
662.46	35337.41
662.60	35379.54
662.74	35257.83
662.88	35222.72
663.03	35070.59
663.17	35297.62
663.31	34541.63
663.45	35304.64
663.60	34916.11
663.74	34820.15
663.88	34789.72
664.02	34974.63
664.17	34991.01
664.31	34539.29
664.45	34710.14
664.59	34639.93
664.73	34995.69
664.88	34604.82
665.02	34513.54
665.16	34342.68
665.30	34342.68
665.44	34721.85
665.59	33727.12
665.73	34316.93
665.87	34078.20
666.01	34239.70
666.15	33692.01
666.29	33893.30
666.44	34087.56
666.58	33336.25
666.72	33851.17
666.86	33900.32
667.00	33921.38
667.14	33769.25
667.28	33670.95
667.43	33390.08
667.57	33907.34
667.71	33464.98
667.85	33251.99
667.99	33371.36
668.13	32889.21
668.27	33130.28
668.41	33502.43
668.56	32879.85
668.70	33200.50
668.84	33244.97
668.98	32978.15
669.12	33048.36
669.26	33001.55
669.40	32884.53
669.54	32556.85
669.68	33099.86
669.82	33034.32
669.96	32531.11
670.10	32339.18
670.25	32929.00
670.39	32683.24
670.53	32730.05
670.67	32458.55
670.81	32694.94
670.95	32765.16
671.09	32114.49
671.23	32622.39
671.37	32545.15
671.51	32079.38
671.65	32004.49
671.79	31995.12
671.93	31723.62
672.07	32332.16
672.21	31847.67
672.35	31627.66
672.49	31742.35
672.63	31707.24
672.77	31531.70
672.91	31716.60
673.05	31559.78
673.19	31201.68
673.33	31594.89
673.47	31398.29
673.61	31166.57
673.75	31314.03
673.89	30778.04
674.03	31173.60
674.17	31222.75
674.31	30981.67
674.45	30635.27
674.59	30586.12
674.73	30679.74
674.87	30551.01
675.01	30698.47
675.15	30789.75
675.29	30895.07
675.43	30635.27
675.56	30595.48
675.70	30087.59
675.84	30281.85
675.98	29048.39
676.12	30005.67
676.26	29825.45
676.40	29673.31
676.54	29792.68
676.68	29685.01
676.82	29312.87
676.96	29603.10
677.10	29244.99
677.23	29364.36
677.37	29172.44
677.51	29268.40
677.65	29097.54
677.79	28741.78
677.93	28596.67
678.07	28507.72
678.21	28634.11
678.34	28725.39
678.48	28566.24
678.62	28414.10
678.76	28119.20
678.90	28196.43
679.04	28306.44
679.18	28180.05
679.31	27960.04
679.45	27850.03
679.59	27674.49
679.73	27463.85
679.87	27798.54
680.00	27693.22
680.14	27709.60
680.28	27225.11
680.42	27353.84
680.56	26955.95
680.70	27435.76
680.83	27016.80
680.97	26761.69
681.11	27080.00
681.25	26658.70
681.39	26623.59
681.52	26630.62
681.66	26485.50
681.80	26349.75
681.94	26125.06
682.07	26279.54
682.21	26115.70
682.35	26155.49
682.49	26171.87
682.62	25872.28
682.76	25752.91
682.90	25610.14
683.04	26190.59
683.17	26045.48
683.31	25811.43
683.45	25795.04
683.59	25600.78
683.72	25186.50
683.86	25200.55
684.00	24994.58
684.13	25575.03
684.27	25228.63
684.41	24905.64
684.55	24624.78
684.68	24592.01
684.82	24610.73
684.96	24905.64
685.09	24304.12
685.23	24308.80
685.37	24390.72
685.50	24608.39
685.64	24325.19
685.78	24299.44
685.91	24203.48
686.05	23768.14
686.19	24037.30
686.32	23690.90
686.46	23866.44
686.60	23122.15
686.73	23227.48
686.87	23576.22
687.01	23042.57
687.14	23054.28
687.28	22937.25
687.42	23047.26
687.55	22675.11
687.69	23246.20
687.82	22974.70
687.96	22934.91
688.10	22586.17
688.23	22742.99
688.37	22335.73
688.50	22576.81
688.64	22504.25
688.78	22132.11
688.91	22188.28
689.05	22078.27
689.18	22001.04
689.32	21762.30
689.46	21757.62
689.59	21813.79
689.73	21912.10
689.86	21656.98
690.00	21668.68
690.13	21741.24
690.27	21614.85
690.41	21266.11
690.54	20896.30
690.68	21034.39
690.81	21067.16
690.95	20856.51
691.08	21013.33
691.22	20807.36
691.35	21277.81
691.49	20556.93
691.62	20840.13
691.76	20886.94
691.89	20514.80
692.03	20063.07
692.16	20140.31
692.30	20098.18
692.43	20189.46
692.57	20025.62
692.70	20231.59
692.84	19831.36
692.97	19814.98
693.11	19494.32
693.24	19583.26
693.38	19770.51
693.51	19639.44
693.65	19662.84
693.78	19470.92
693.92	19360.91
694.05	19363.25
694.19	19325.80
694.32	19157.28
694.45	19243.88
694.59	18932.59
694.72	18815.57
694.86	18862.38
694.99	18717.26
695.13	18654.07
695.26	18310.01
695.39	18363.84
695.53	18417.68
695.66	18237.45
695.80	18373.21
695.93	18305.33
696.07	17991.70
696.20	18036.17
696.33	18061.91
696.47	17891.06
696.60	17657.00
696.73	17755.30
696.87	17565.72
697.00	17713.17
697.14	17600.83
697.27	17453.37
697.40	17296.56
697.54	17429.97
697.67	16889.31
697.80	16903.35
697.94	17078.89
698.07	16767.60
698.21	16599.08
698.34	16800.37
698.47	16648.23
698.61	16695.04
698.74	16341.62
698.87	16360.34
699.01	16098.20
699.14	16407.16
699.27	16360.34
699.40	16149.70
699.54	15779.89
699.67	16105.23
699.80	15770.53
699.94	16219.91
700.07	16079.48
700.20	15562.22
700.34	15822.02
700.47	15728.40
700.60	15950.75
700.73	15431.15
700.87	15712.02
701.00	15552.86
701.13	15613.71
701.26	15494.35
701.40	15447.54
701.53	15248.59
701.66	15208.80
701.79	14965.39
701.93	14949.00
702.06	14855.38
702.19	14927.94
702.32	14820.27
702.46	14703.25
702.59	14506.64
702.72	14562.81
702.85	14752.40
702.99	14595.58
703.12	14885.81
703.25	14443.45
703.38	14178.97
703.51	14005.77
703.65	14223.44
703.78	14146.20
703.91	14052.58
704.04	13872.36
704.17	14153.22
704.31	13989.38
704.44	13642.98
704.57	13404.25
704.70	13493.19
704.83	13502.55
704.96	13671.07
705.10	13661.71
705.23	13568.09
>>>>>End Processed Spectral Data<<<<<
