SpectraSuite Data File
++++++++++++++++++++++++++++++++++++
Date: Fri Oct 25 10:44:10 EDT 2013
User: price-jones
Dark Spectrum Present: No
Reference Spectrum Present: No
Number of Sampled Component Spectra: 1
Spectrometers: USB2+H05261
Integration Time (usec): 100000 (USB2+H05261)
Spectra Averaged: 1 (USB2+H05261)
Boxcar Smoothing: 0 (USB2+H05261)
Correct for Electrical Dark: No (USB2+H05261)
Strobe/Lamp Enabled: No (USB2+H05261)
Correct for Detector Non-linearity: No (USB2+H05261)
Correct for Stray Light: No (USB2+H05261)
Number of Pixels in Processed Spectrum: 2048
>>>>>Begin Processed Spectral Data<<<<<
365.73	72.56
365.92	72.56
366.12	72.56
366.32	79.58
366.52	7.02
366.72	156.82
366.91	21.06
367.11	30.43
367.31	84.26
367.51	0.00
367.70	37.45
367.90	39.79
368.10	0.00
368.30	0.00
368.49	0.00
368.69	0.00
368.89	32.77
369.09	0.00
369.28	72.56
369.48	105.32
369.68	58.51
369.87	126.39
370.07	107.66
370.27	98.30
370.47	208.31
370.66	339.38
370.86	402.57
371.06	461.09
371.25	507.90
371.45	503.22
371.65	526.62
371.84	358.10
372.04	449.38
372.24	510.24
372.44	519.60
372.63	407.25
372.83	526.62
373.03	631.94
373.22	521.94
373.42	524.28
373.62	568.75
373.81	568.75
374.01	564.07
374.21	461.09
374.40	540.66
374.60	608.54
374.79	599.18
374.99	608.54
375.19	608.54
375.38	617.90
375.58	566.41
375.78	578.11
375.97	528.96
376.17	664.71
376.37	596.84
376.56	543.00
376.76	561.73
376.95	571.09
377.15	599.18
377.35	620.24
377.54	662.37
377.74	657.69
377.93	608.54
378.13	716.20
378.33	695.14
378.52	744.29
378.72	634.29
378.91	601.52
379.11	636.63
379.31	734.93
379.50	589.82
379.70	716.20
379.89	678.76
380.09	685.78
380.28	653.01
380.48	589.82
380.68	688.12
380.87	622.58
381.07	711.52
381.26	753.65
381.46	751.31
381.65	791.10
381.85	681.10
382.04	711.52
382.24	699.82
382.43	795.78
382.63	636.63
382.83	653.01
383.02	765.36
383.22	681.10
383.41	741.95
383.61	713.86
383.80	798.12
384.00	814.51
384.19	690.46
384.39	765.36
384.58	723.23
384.78	854.30
384.97	788.76
385.17	823.87
385.36	748.97
385.56	814.51
385.75	821.53
385.95	821.53
386.14	842.59
386.34	894.08
386.53	779.40
386.72	741.95
386.92	957.28
387.11	828.55
387.31	870.68
387.50	901.11
387.70	856.64
387.89	837.91
388.09	770.04
388.28	877.70
388.48	828.55
388.67	917.49
388.86	929.19
389.06	961.96
389.25	931.53
389.45	887.06
389.64	922.17
389.84	1050.90
390.03	966.64
390.22	999.41
390.42	1013.45
390.61	1006.43
390.81	1067.28
391.00	1053.24
391.19	1118.78
391.39	1083.67
391.58	1081.33
391.78	1081.33
391.97	1008.77
392.16	1071.97
392.36	987.71
392.55	1006.43
392.75	978.34
392.94	1008.77
393.13	1011.11
393.33	1062.60
393.52	1034.52
393.71	1057.92
393.91	1153.88
394.10	1071.97
394.29	1137.50
394.49	1151.54
394.68	1128.14
394.88	1160.91
395.07	1165.59
395.26	1130.48
395.46	1247.51
395.65	1252.19
395.84	1224.10
396.04	1249.85
396.23	1238.14
396.42	1100.05
396.62	1104.73
396.81	1203.04
397.00	1151.54
397.19	1320.06
397.39	1284.95
397.58	1394.96
397.77	1329.42
397.97	1420.71
398.16	1451.13
398.35	1409.00
398.55	1352.83
398.74	1406.66
398.93	1521.35
399.12	1476.88
399.32	1500.28
399.51	1418.36
399.70	1605.61
399.90	1495.60
400.09	1671.14
400.28	1603.27
400.47	1568.16
400.67	1565.82
400.86	1657.10
401.05	1565.82
401.24	1689.87
401.44	1689.87
401.63	1743.70
401.82	1790.51
402.01	1729.66
402.21	1647.74
402.40	1706.25
402.59	1760.08
402.78	1717.95
402.97	1776.47
403.17	1783.49
403.36	1741.36
403.55	1891.15
403.74	1902.86
403.93	1884.13
404.13	1834.98
404.32	1823.28
404.51	1753.06
404.70	1853.70
404.89	1832.64
405.09	1898.17
405.28	1888.81
405.47	1912.22
405.66	2022.22
405.85	1886.47
406.05	1886.47
406.24	1919.24
406.43	2125.21
406.62	2012.86
406.81	2167.34
407.00	1982.43
407.20	2076.06
407.39	2031.58
407.58	2167.34
407.77	2129.89
407.96	2260.96
408.15	2207.13
408.34	2132.23
408.54	2136.91
408.73	2218.83
408.92	2279.68
409.11	2148.61
409.30	2279.68
409.49	2223.51
409.68	2270.32
409.87	2214.15
410.07	2377.98
410.26	2345.22
410.45	2420.11
410.64	2448.20
410.83	2420.11
411.02	2558.21
411.21	2635.44
411.40	2546.50
411.59	2576.93
411.78	2555.86
411.98	2623.74
412.17	2530.12
412.36	2698.64
412.55	2686.94
412.74	2747.79
412.93	2698.64
413.12	2621.40
413.31	2846.09
413.50	2813.32
413.69	2785.24
413.88	2885.88
414.07	2906.95
414.26	2956.10
414.45	2986.52
414.64	2935.03
414.83	3005.25
415.02	2981.84
415.22	3108.23
415.41	3014.61
415.60	3077.80
415.79	3105.89
415.98	3307.18
416.17	3255.69
416.36	3337.60
416.55	3220.58
416.74	3316.54
416.93	3206.53
417.12	3152.70
417.31	3398.46
417.50	3382.07
417.69	3370.37
417.88	3304.84
418.07	3566.98
418.26	3431.23
418.45	3510.80
418.64	3499.10
418.83	3517.83
419.02	3583.36
419.21	3545.91
419.39	3559.95
419.58	3485.06
419.77	3566.98
419.96	3648.90
420.15	3707.41
420.34	3719.11
420.53	3819.75
420.72	3852.52
420.91	3878.27
421.10	3812.73
421.29	3943.80
421.48	3751.88
421.67	3892.31
421.86	3679.32
422.05	3791.67
422.24	3784.65
422.43	3836.14
422.61	3789.33
422.80	3999.98
422.99	3904.01
423.18	3880.61
423.37	3974.23
423.56	3964.87
423.75	3913.38
423.94	3775.28
424.13	3632.51
424.32	3765.92
424.50	3796.35
424.69	3995.29
424.88	4035.08
425.07	3922.74
425.26	3779.97
425.45	3840.82
425.64	4093.60
425.83	4014.02
426.01	4004.66
426.20	3976.57
426.39	3955.51
426.58	3843.16
426.77	3953.16
426.96	4042.11
427.15	3929.76
427.33	4067.85
427.52	4095.94
427.71	4060.83
427.90	4109.98
428.09	4248.07
428.28	4184.88
428.46	4117.00
428.65	4170.83
428.84	4180.20
429.03	4173.18
429.22	4124.02
429.40	4098.28
429.59	4004.66
429.78	3934.44
429.97	3899.33
430.16	3983.59
430.34	4133.39
430.53	4102.96
430.72	4142.75
430.91	4198.92
431.10	4442.34
431.28	4496.17
431.47	4692.77
431.66	4809.80
431.85	4510.21
432.03	4486.81
432.22	4706.82
432.41	4606.17
432.60	4634.26
432.79	4748.95
432.97	4819.16
433.16	4566.39
433.35	4713.84
433.54	4578.09
433.72	4617.88
433.91	4578.09
434.10	4725.54
434.28	4692.77
434.47	4681.07
434.66	4919.81
434.85	5039.17
435.03	4961.94
435.22	4894.06
435.41	5001.72
435.59	5039.17
435.78	5132.79
435.97	5057.90
436.16	5214.71
436.34	5085.98
436.53	5280.25
436.72	5231.10
436.90	4961.94
437.09	5151.52
437.28	5029.81
437.46	5268.55
437.65	5093.01
437.84	5191.31
438.02	5170.24
438.21	5135.14
438.40	5221.74
438.58	5263.86
438.77	5446.43
438.96	5345.78
439.14	5523.66
439.33	5661.76
439.52	5544.73
439.70	5579.84
439.89	5741.33
440.08	5462.81
440.26	5741.33
440.45	5762.40
440.63	5963.68
440.82	6003.47
441.01	5891.13
441.19	5713.25
441.38	6080.71
441.57	6202.42
441.75	6071.35
441.94	6190.72
442.12	6265.61
442.31	6277.32
442.50	6258.59
442.68	6218.80
442.87	6256.25
443.05	6244.55
443.24	6349.87
443.43	6293.70
443.61	6197.74
443.80	6740.74
443.98	6359.24
444.17	6066.67
444.35	6443.49
444.54	6551.16
444.73	6546.48
444.91	6516.05
445.10	6492.65
445.28	6462.22
445.47	6321.79
445.65	6366.26
445.84	6560.52
446.02	6544.14
446.21	6637.76
446.39	6380.30
446.58	6614.35
446.77	6635.42
446.95	6593.29
447.14	6668.19
447.32	6799.26
447.51	6670.53
447.69	6602.65
447.88	6593.29
448.06	6679.89
448.25	6478.60
448.43	6745.42
448.62	6679.89
448.80	6820.32
448.99	6839.05
449.17	6932.67
449.36	6855.43
449.54	6916.28
449.73	6995.86
449.91	7056.72
450.10	7138.63
450.28	7206.51
450.46	7183.10
450.65	7353.96
450.83	7236.94
451.02	7204.17
451.20	7304.81
451.39	7377.37
451.57	7258.00
451.76	7119.91
451.94	7253.32
452.13	7232.26
452.31	7096.50
452.49	7082.46
452.68	7176.08
452.86	7026.29
453.05	7445.24
453.23	7386.73
453.42	7192.47
453.60	7349.28
453.78	7372.69
453.97	7375.03
454.15	7372.69
454.34	7405.46
454.52	7548.23
454.70	7590.36
454.89	7623.12
455.07	7545.89
455.26	7627.81
455.44	7674.62
455.62	7716.75
455.81	7679.30
455.99	7822.07
456.17	7737.81
456.36	8163.79
456.54	7936.76
456.73	7941.44
456.91	8269.11
457.09	7948.46
457.28	8152.09
457.46	8018.68
457.64	8203.58
457.83	8081.87
458.01	8065.49
458.19	7964.84
458.38	8109.96
458.56	8250.39
458.74	8285.50
458.93	8142.72
459.11	8299.54
459.29	8224.64
459.48	8388.48
459.66	8135.70
459.84	8372.10
460.03	8711.47
460.21	8482.10
460.39	8540.61
460.57	8306.56
460.76	8615.51
460.94	8533.59
461.12	8655.30
461.31	8617.85
461.49	8676.37
461.67	8578.06
461.85	8760.63
462.04	8746.58
462.22	8985.32
462.40	8950.21
462.59	8767.65
462.77	8690.41
462.95	8940.85
463.13	8779.35
463.32	8727.86
463.50	8990.00
463.68	9029.79
463.86	8917.44
464.05	8837.86
464.23	8894.04
464.41	9053.19
464.59	8997.02
464.78	9128.09
464.96	9238.09
465.14	9013.40
465.32	8992.34
465.50	9085.96
465.69	9212.35
465.87	9092.98
466.05	9142.13
466.23	8982.98
466.41	9186.60
466.60	9275.54
466.78	9249.80
466.96	9102.34
467.14	9287.25
467.32	9158.52
467.51	9495.55
467.69	9111.71
467.87	9378.53
468.05	9380.87
468.23	9397.25
468.41	9413.63
468.60	9399.59
468.78	9633.64
468.96	9476.83
469.14	9568.11
469.32	9650.03
469.50	9603.22
469.69	9699.18
469.87	9778.76
470.05	9774.08
470.23	9760.03
470.41	9865.36
470.59	9760.03
470.77	9804.50
470.95	9994.09
471.14	10335.81
471.32	10143.88
471.50	10003.45
471.68	10132.18
471.86	10300.70
472.04	10181.33
472.22	10384.96
472.40	9968.34
472.58	10434.11
472.77	10319.42
472.95	10588.58
473.13	10930.30
473.31	10363.89
473.49	10445.81
473.67	10602.63
473.85	10698.59
474.03	10815.62
474.21	10789.87
474.39	11136.27
474.57	10843.70
474.75	11056.69
474.93	10909.24
475.12	11122.23
475.30	10998.18
475.48	11253.30
475.66	11358.62
475.84	11089.46
476.02	11367.98
476.20	11279.04
476.38	11580.97
476.56	11955.46
476.74	11847.79
476.92	11550.54
477.10	11910.99
477.28	11981.20
477.46	11808.00
477.64	12016.31
477.82	12250.36
478.00	12716.13
478.18	12374.41
478.36	12524.21
478.54	12526.55
478.72	12538.25
478.90	13046.15
479.08	13036.78
479.26	13186.58
479.44	12758.26
479.62	13109.34
479.80	13319.99
479.98	13432.33
480.16	13657.03
480.34	13584.47
480.52	13750.65
480.70	13788.10
480.88	13373.82
481.06	13886.40
481.24	13715.54
481.41	14249.18
481.59	14427.06
481.77	14420.04
481.95	14476.21
482.13	14684.52
482.31	14665.80
482.49	14867.08
482.67	14707.93
482.85	15019.22
483.03	15150.29
483.21	15290.72
483.39	15339.87
483.57	15220.50
483.74	15499.03
483.92	15534.14
484.10	15534.14
484.28	15854.79
484.46	16203.53
484.64	16451.63
484.82	16086.50
485.00	16156.72
485.18	16266.72
485.35	16409.50
485.53	15960.11
485.71	16077.14
485.89	16163.74
486.07	16177.78
486.25	16774.62
486.43	16943.14
486.61	16968.88
486.78	16950.16
486.96	17123.36
487.14	17500.19
487.32	17734.24
487.50	17933.18
487.68	18162.56
487.85	18544.06
488.03	18258.52
488.21	18618.96
488.39	18464.49
488.57	18677.48
488.75	18595.56
488.92	18923.23
489.10	19215.80
489.28	19407.72
489.46	19566.88
489.64	19381.98
489.81	20173.08
489.99	20175.42
490.17	20098.18
490.35	20388.41
490.53	20042.01
490.70	20552.24
490.88	20280.74
491.06	20844.81
491.24	20585.01
491.41	20570.97
491.59	21001.63
491.77	20678.63
491.95	21006.31
492.13	21298.88
492.30	21607.83
492.48	21774.00
492.66	21600.80
492.84	21820.81
493.01	22232.75
493.19	21813.79
493.37	22235.09
493.54	21954.22
493.72	22759.37
493.90	22319.35
494.08	22944.27
494.25	23014.49
494.43	23096.41
494.61	23491.96
494.79	23290.67
494.96	23405.36
495.14	23527.06
495.32	23461.53
495.49	23487.28
495.67	23887.51
495.85	24156.67
496.02	24280.72
496.20	24208.16
496.38	24514.77
496.55	24423.49
496.73	25163.10
496.91	24996.92
497.09	24940.75
497.26	25055.43
497.44	25006.28
497.62	25259.06
497.79	25680.36
497.97	24903.30
498.14	25546.95
498.32	25678.02
498.50	25582.06
498.67	26171.87
498.85	25961.22
499.03	25998.67
499.20	25989.31
499.38	26029.10
499.56	26363.79
499.73	26293.58
499.91	26338.05
500.08	26527.63
500.26	26375.50
500.44	26256.13
500.61	26513.59
500.79	26630.62
500.97	26632.96
501.14	26761.69
501.32	26906.80
501.49	27028.51
501.67	27157.24
501.84	27592.58
502.02	27754.07
502.20	27456.82
502.37	27906.21
502.55	27936.63
502.72	28023.23
502.90	27997.49
503.07	27917.91
503.25	28297.08
503.43	27847.69
503.60	28184.73
503.78	28435.17
503.95	28229.20
504.13	28554.54
504.30	28606.03
504.48	28655.18
504.65	28905.62
504.83	29347.98
505.01	28999.24
505.18	29277.76
505.36	29277.76
505.53	29132.65
505.71	29546.92
505.88	29270.74
506.06	29298.83
506.23	29495.43
506.41	29593.73
506.58	30139.08
506.76	29425.22
506.93	30237.38
507.11	30125.04
507.28	29902.68
507.46	30038.44
507.63	29916.73
507.81	30188.23
507.98	30148.44
508.16	30146.10
508.33	30689.10
508.50	30792.09
508.68	30714.85
508.85	31292.96
509.03	30991.03
509.20	30918.48
509.38	31377.22
509.55	31328.07
509.73	31143.17
509.90	31285.94
510.08	31421.69
510.25	31079.97
510.42	31501.27
510.60	32048.96
510.77	31732.98
510.95	31857.03
511.12	31878.10
511.30	32360.25
511.47	31866.39
511.64	32364.93
511.82	32402.38
511.99	32058.32
512.17	32397.70
512.34	32346.20
512.51	32657.49
512.69	32472.59
512.86	33116.24
513.04	32945.38
513.21	32987.51
513.38	32512.38
513.56	33188.80
513.73	32744.09
513.90	32971.13
514.08	33071.77
514.25	33448.60
514.43	32978.15
514.60	33404.13
514.77	33277.74
514.95	33795.00
515.12	33413.49
515.29	33628.82
515.47	33965.85
515.64	33710.74
515.81	33607.75
515.99	33862.87
516.16	33528.17
516.33	33612.43
516.51	33855.85
516.68	33198.16
516.85	33261.35
517.03	33336.25
517.20	33984.58
517.37	34497.16
517.54	34558.01
517.72	33764.57
517.89	33998.62
518.06	33797.34
518.24	34141.39
518.41	34143.74
518.58	34497.16
518.75	34302.89
518.93	34637.59
519.10	34677.38
519.27	35009.73
519.45	35257.83
519.62	35388.90
519.79	35119.74
519.96	35505.93
520.14	35426.35
520.31	35056.54
520.48	35737.64
520.65	35309.32
520.83	35763.39
521.00	36161.28
521.17	35545.72
521.34	36093.40
521.52	36205.75
521.69	36285.33
521.86	36203.41
522.03	36573.21
522.20	36580.23
522.38	36699.60
522.55	36332.14
522.72	36201.07
522.89	36727.69
523.07	36858.76
523.24	36299.37
523.41	37102.17
523.58	36772.16
523.75	37315.16
523.92	37516.45
524.10	37420.48
524.27	36959.40
524.44	37310.48
524.61	37579.64
524.78	37670.92
524.96	37596.03
525.13	37614.75
525.30	37876.89
525.47	37970.51
525.64	37813.70
525.81	37670.92
525.98	37589.00
526.16	37291.76
526.33	37368.99
526.50	37839.44
526.67	37181.75
526.84	37165.37
527.01	37584.32
527.18	38162.43
527.36	37532.83
527.53	38199.88
527.70	38403.51
527.87	38356.70
528.04	38602.46
528.21	38148.39
528.38	38543.94
528.55	39140.78
528.72	38778.00
528.89	38953.54
529.07	38869.28
529.24	38728.84
529.41	38572.03
529.58	38871.62
529.75	38646.93
529.92	38939.49
530.09	38855.23
530.26	39304.62
530.43	39384.19
530.60	38951.20
530.77	39515.26
530.94	39297.59
531.11	39360.79
531.28	39611.23
531.46	39608.89
531.63	39861.66
531.80	39531.65
531.97	39620.59
532.14	39957.63
532.31	39332.70
532.48	39002.69
532.65	39805.49
532.82	39751.66
532.99	39552.71
533.16	39625.27
533.33	39882.73
533.50	40203.38
533.67	40154.23
533.84	39938.90
534.01	40004.44
534.18	40067.63
534.35	40119.12
534.52	40212.74
534.69	40636.38
534.86	40573.19
535.03	40610.64
535.20	41223.86
535.37	40975.76
535.54	41275.35
535.71	40669.15
535.88	40673.83
536.05	40437.44
536.22	41111.51
536.38	40547.44
536.55	40758.09
536.72	40851.71
536.89	41060.02
537.06	40919.59
537.23	40678.51
537.40	41544.51
537.57	41375.99
537.74	41357.27
537.91	41493.02
538.08	41130.23
538.25	40985.12
538.42	40987.46
538.59	41532.81
538.75	40966.40
538.92	40973.42
539.09	41624.09
539.26	41345.56
539.43	41549.19
539.60	40964.06
539.77	41193.43
539.94	41420.46
540.11	41256.62
540.28	41411.10
540.44	41570.25
540.61	41787.92
540.78	41088.10
540.95	40992.14
541.12	41537.49
541.29	41612.38
541.46	41841.76
541.62	42075.81
541.79	42218.58
541.96	41773.88
542.13	41954.10
542.30	41918.99
542.47	42103.90
542.63	42089.85
542.80	42213.90
542.97	42534.56
543.14	42396.46
543.31	42445.62
543.48	42443.27
543.64	42918.40
543.81	43023.73
543.98	43070.54
544.15	42700.73
544.32	43161.82
544.48	43115.01
544.65	42806.06
544.82	43220.33
544.99	42831.80
545.16	42918.40
545.32	42792.01
545.49	43440.34
545.66	43215.65
545.83	43129.05
546.00	43243.74
546.16	43210.97
546.33	43047.13
546.50	42920.74
546.67	43044.79
546.83	42925.42
547.00	43145.44
547.17	43199.27
547.34	43372.47
547.50	43091.60
547.67	43739.93
547.84	43683.76
548.00	44030.16
548.17	43810.15
548.34	43852.28
548.51	43981.01
548.67	44208.04
548.84	43945.90
549.01	43594.82
549.18	43756.32
549.34	43927.17
549.51	43999.73
549.68	43966.96
549.84	43803.13
550.01	44236.12
550.18	43985.69
550.34	43941.22
550.51	44179.95
550.68	43728.23
550.84	43264.80
551.01	44273.57
551.18	43889.73
551.34	44189.31
551.51	44395.28
551.68	44526.35
551.84	44526.35
552.01	44282.94
552.18	44416.35
552.34	43704.82
552.51	44414.01
552.68	44133.14
552.84	44268.89
553.01	44634.02
553.18	44416.35
553.34	44170.59
553.51	43948.24
553.67	44765.09
553.84	44886.79
554.01	45202.77
554.17	44645.72
554.34	44978.07
554.51	44699.55
554.67	45137.23
554.84	45207.45
555.00	44886.79
555.17	44264.21
555.33	44631.68
555.50	44713.59
555.67	44797.85
555.83	44479.54
556.00	44444.43
556.16	45132.55
556.33	44870.41
556.50	44718.28
556.66	44952.33
556.83	44524.01
556.99	45326.81
557.16	45284.68
557.32	45214.47
557.49	44947.65
557.65	44978.07
557.82	45081.06
557.98	44734.66
558.15	45085.74
558.32	45378.31
558.48	45059.99
558.65	45090.42
558.81	45078.72
558.98	45429.80
559.14	45361.92
559.31	44781.47
559.47	45450.86
559.64	45844.07
559.80	45588.95
559.97	45404.05
560.13	45017.86
560.30	45038.93
560.46	45439.16
560.63	45399.37
560.79	45787.90
560.96	45778.54
561.12	45474.27
561.29	45656.83
561.45	45455.54
561.61	45502.35
561.78	45333.84
561.94	45139.57
562.11	45518.74
562.27	45443.84
562.44	45619.38
562.60	45911.95
562.77	45954.08
562.93	45904.93
563.10	45551.51
563.26	45263.62
563.42	46131.96
563.59	45745.77
563.75	45720.02
563.92	45741.09
564.08	45490.65
564.24	45893.22
564.41	45745.77
564.57	45621.72
564.74	45785.56
564.90	45888.54
565.07	46066.42
565.23	45935.35
565.39	46014.93
565.56	45815.99
565.72	45404.05
565.88	45738.75
566.05	45478.95
566.21	45474.27
566.38	45588.95
566.54	45989.19
566.70	45991.53
566.87	46302.82
567.03	45698.96
567.19	46394.10
567.36	45818.33
567.52	45794.92
567.68	46115.58
567.85	46036.00
568.01	45918.97
568.17	46024.29
568.34	46057.06
568.50	46160.05
568.66	46019.61
568.83	45766.84
568.99	45521.08
569.15	45347.88
569.32	46033.66
569.48	45656.83
569.64	46438.57
569.81	45823.01
569.97	46068.76
570.13	45689.60
570.30	45647.47
570.46	45371.28
570.62	45675.55
570.78	46028.98
570.95	45696.62
571.11	46305.16
571.27	45818.33
571.43	45792.58
571.60	45991.53
571.76	45890.88
571.92	46047.70
572.09	45982.16
572.25	46220.90
572.41	46073.45
572.57	46188.13
572.74	46443.25
572.90	46169.41
573.06	46344.95
573.22	46450.27
573.38	46377.72
573.55	45757.47
573.71	46525.17
573.87	45963.44
574.03	46246.65
574.20	45815.99
574.36	45869.82
574.52	46244.30
574.68	46171.75
574.84	46047.70
575.01	46440.91
575.17	45907.27
575.33	45626.40
575.49	45633.42
575.65	46337.93
575.82	46188.13
575.98	46127.28
576.14	46557.94
576.30	46302.82
576.46	46113.23
576.62	45961.10
576.79	46241.96
576.95	45825.35
577.11	46246.65
577.27	46335.59
577.43	46756.88
577.59	46092.17
577.75	46230.26
577.92	45720.02
578.08	45907.27
578.24	46017.27
578.40	45998.55
578.56	46536.87
578.72	45853.44
578.88	46260.69
579.04	46328.56
579.21	45947.06
579.37	46122.60
579.53	45963.44
579.69	45940.04
579.85	45968.12
580.01	46319.20
580.17	46204.52
580.33	46094.51
580.49	46508.79
580.65	46358.99
580.82	46258.35
580.98	46349.63
581.14	46026.63
581.30	46887.95
581.46	46185.79
581.62	46279.41
581.78	46183.45
581.94	46714.75
582.10	46113.23
582.26	46117.92
582.42	46422.19
582.58	46192.81
582.74	46134.30
582.90	46600.07
583.06	46461.97
583.22	46202.18
583.38	46632.83
583.54	46632.83
583.70	46728.80
583.86	46845.82
584.02	46082.81
584.18	45965.78
584.34	46288.77
584.50	46466.66
584.66	46564.96
584.82	46155.36
584.98	46246.65
585.14	46415.16
585.30	46321.54
585.46	46356.65
585.62	45979.82
585.78	46199.83
585.94	46115.58
586.10	46054.72
586.26	45977.48
586.42	46443.25
586.58	46267.71
586.74	46134.30
586.90	46188.13
587.06	46260.69
587.22	46096.85
587.38	46192.81
587.54	46337.93
587.70	46621.13
587.86	46148.34
588.02	46265.37
588.18	46426.87
588.34	46057.06
588.49	46043.02
588.65	45652.15
588.81	45787.90
588.97	45528.10
589.13	45766.84
589.29	45825.35
589.45	45991.53
589.61	46195.15
589.77	46499.42
589.93	46279.41
590.08	46614.11
590.24	46422.19
590.40	46813.05
590.56	46890.29
590.72	46506.44
590.88	46305.16
591.04	46515.81
591.20	46972.21
591.35	46752.20
591.51	47119.66
591.67	46663.26
591.83	46443.25
591.99	46220.90
592.15	46485.38
592.31	46426.87
592.46	46775.61
592.62	46270.05
592.78	46607.09
592.94	46796.67
593.10	46183.45
593.26	46518.15
593.41	46586.02
593.57	46363.67
593.73	46330.90
593.89	46625.81
594.05	46590.70
594.20	46469.00
594.36	46803.69
594.52	46401.12
594.68	46485.38
594.84	46300.48
594.99	46499.42
595.15	46686.67
595.31	46595.38
595.47	46663.26
595.62	46663.26
595.78	46621.13
595.94	46838.80
596.10	46401.12
596.25	46518.15
596.41	46869.23
596.57	46138.98
596.73	46548.57
596.88	46375.37
597.04	46831.78
597.20	46508.79
597.36	47049.45
597.51	46548.57
597.67	46653.90
597.83	46916.04
597.99	46574.32
598.14	46546.23
598.30	46157.70
598.46	46227.92
598.61	46930.08
598.77	45855.78
598.93	46354.31
599.09	47042.43
599.24	46911.36
599.40	46532.19
599.56	46171.75
599.71	46384.74
599.87	46548.57
600.03	46541.55
600.18	46366.01
600.34	46543.89
600.50	46745.18
600.65	45954.08
600.81	46534.53
600.97	46653.90
601.12	46410.48
601.28	47000.30
601.44	45965.78
601.59	46429.21
601.75	46000.89
601.91	46616.45
602.06	46550.91
602.22	45963.44
602.37	46223.24
602.53	46735.82
602.69	46939.44
602.84	46522.83
603.00	46686.67
603.16	46274.73
603.31	46745.18
603.47	46483.04
603.62	46447.93
603.78	46382.40
603.94	46209.20
604.09	46717.09
604.25	46501.76
604.40	46225.58
604.56	46525.17
604.71	46677.30
604.87	46038.34
605.03	46061.74
605.18	46174.09
605.34	46155.36
605.49	46115.58
605.65	46501.76
605.80	46185.79
605.96	46326.22
606.12	46707.73
606.27	46693.69
606.43	46614.11
606.58	46609.43
606.74	46536.87
606.89	46841.14
607.05	46492.40
607.20	46174.09
607.36	46316.86
607.51	46258.35
607.67	46342.61
607.82	45668.53
607.98	46438.57
608.13	46080.47
608.29	45940.04
608.44	45771.52
608.60	45785.56
608.75	46490.06
608.91	46211.54
609.06	46309.84
609.22	46279.41
609.37	45441.50
609.53	46014.93
609.68	45897.91
609.84	46064.08
609.99	45553.85
610.15	45862.80
610.30	45354.90
610.46	45860.46
610.61	45794.92
610.76	45720.02
610.92	45792.58
611.07	46157.70
611.23	46033.66
611.38	45703.64
611.54	45542.14
611.69	45743.43
611.84	46082.81
612.00	45492.99
612.15	45294.05
612.31	45713.00
612.46	45485.97
612.62	45785.56
612.77	45584.27
612.92	46237.28
613.08	45006.16
613.23	45382.99
613.39	45406.39
613.54	45034.25
613.69	45338.52
613.85	45464.91
614.00	45769.18
614.15	45591.30
614.31	45661.51
614.46	45284.68
614.62	45682.58
614.77	45132.55
614.92	45626.40
615.08	44905.52
615.23	45160.64
615.38	44968.71
615.54	44720.62
615.69	44903.18
615.84	45188.72
616.00	44935.95
616.15	44804.88
616.30	45038.93
616.46	45057.65
616.61	45186.38
616.76	45010.84
616.92	44516.99
617.07	44519.33
617.22	45249.58
617.37	44580.18
617.53	44961.69
617.68	44875.09
617.83	44804.88
617.99	45404.05
618.14	44713.59
618.29	45048.29
618.45	44495.92
618.60	44683.17
618.75	44474.86
618.90	44495.92
619.06	44849.35
619.21	44275.91
619.36	44678.49
619.51	44446.77
619.67	44421.03
619.82	44854.03
619.97	45064.67
620.12	44687.85
620.28	44350.81
620.43	44318.04
620.58	44039.52
620.73	44596.57
620.89	44406.98
621.04	44486.56
621.19	44301.66
621.34	44217.40
621.49	44364.85
621.65	43880.36
621.80	44172.93
621.95	44289.96
622.10	44243.15
622.25	44053.56
622.41	43871.00
622.56	43653.33
622.71	44540.39
622.86	43976.33
623.01	43988.03
623.16	44098.03
623.32	44065.27
623.47	43489.49
623.62	43995.05
623.77	43931.86
623.92	43831.21
624.07	43461.41
624.23	43842.92
624.38	43599.50
624.53	43594.82
624.68	43140.75
624.83	43711.84
624.98	43950.58
625.13	43386.51
625.29	43452.05
625.44	43222.67
625.59	43100.97
625.74	43222.67
625.89	43126.71
626.04	43206.29
626.19	42941.81
626.34	43360.76
626.49	43508.22
626.65	43381.83
626.80	43246.08
626.95	43253.10
627.10	42990.96
627.25	43461.41
627.40	42895.00
627.55	42836.48
627.70	42869.25
627.85	42784.99
628.00	42424.55
628.15	43093.94
628.30	42604.77
628.45	43304.59
628.60	42677.33
628.76	42855.21
628.91	43349.06
629.06	42745.20
629.21	42841.17
629.36	42632.86
629.51	42923.08
629.66	42403.49
629.81	42579.03
629.96	42541.58
630.11	42724.14
630.26	42541.58
630.41	42553.28
630.56	42389.44
630.71	42239.65
630.86	42279.44
631.01	42162.41
631.16	42557.96
631.31	42237.31
631.46	41996.23
631.61	42206.88
631.76	42417.53
631.91	42167.09
632.06	42131.98
632.21	42092.19
632.36	42410.51
632.51	42057.09
632.66	42237.31
632.81	42073.47
632.96	41874.52
633.10	41493.02
633.25	41930.70
633.40	42029.00
633.55	41588.98
633.70	42106.24
633.85	41846.44
634.00	41792.61
634.15	41897.93
634.30	41694.30
634.45	41837.08
634.60	41696.64
634.75	41748.14
634.90	41490.68
635.05	41500.04
635.19	41385.35
635.34	41743.45
635.49	41607.70
635.64	41436.84
635.79	41713.03
635.94	41457.91
636.09	41888.57
636.24	41586.64
636.39	40982.78
636.53	41270.67
636.68	41415.78
636.83	40879.80
636.98	41090.44
637.13	41687.28
637.28	41069.38
637.43	41460.25
637.57	41357.27
637.72	40912.56
637.87	41291.73
638.02	41397.06
638.17	41237.90
638.32	41015.55
638.46	41392.37
638.61	41198.11
638.76	41265.99
638.91	41247.26
639.06	40767.45
639.20	40790.86
639.35	41167.68
639.50	40971.08
639.65	41003.85
639.80	41240.24
639.94	40966.40
640.09	40762.77
640.24	40692.55
640.39	40285.30
640.54	40554.46
640.68	40779.15
640.83	40533.40
640.98	40402.33
641.13	40383.60
641.27	40657.45
641.42	40701.92
641.57	40194.02
641.72	40289.98
641.86	40275.94
642.01	40254.87
642.16	39875.71
642.31	39922.52
642.45	40554.46
642.60	40509.99
642.75	40395.31
642.90	40348.50
643.04	40418.71
643.19	40327.43
643.34	39751.66
643.48	40236.15
643.63	39723.57
643.78	40105.08
643.93	39817.19
644.07	39962.31
644.22	39887.41
644.37	39620.59
644.51	39969.33
644.66	39842.94
644.81	40355.52
644.95	40149.55
645.10	40289.98
645.25	39997.41
645.39	40098.06
645.54	40107.42
645.69	39959.97
645.83	39665.06
645.98	39751.66
646.13	39405.26
646.27	39868.69
646.42	40011.46
646.57	39461.43
646.71	39487.18
646.86	39395.90
647.00	39608.89
647.15	39754.00
647.30	39714.21
647.44	39267.17
647.59	39548.03
647.74	39643.99
647.88	39459.09
648.03	39445.05
648.17	39409.94
648.32	39339.72
648.47	39665.06
648.61	39159.50
648.76	39662.72
648.90	39185.25
649.05	39543.35
649.20	39370.15
649.34	39161.84
649.49	38628.20
649.63	38639.90
649.78	38916.09
649.92	39257.81
650.07	39442.71
650.21	39119.71
650.36	39154.82
650.51	39213.34
650.65	39379.51
650.80	39456.75
650.94	39800.81
651.09	38803.74
651.23	38939.49
651.38	38979.28
651.52	38497.13
651.67	38298.19
651.81	38539.26
651.96	38457.34
652.10	38539.26
652.25	38646.93
652.39	38675.01
652.54	38375.42
652.68	38602.46
652.83	38604.80
652.97	38951.20
653.12	39040.14
653.26	38590.75
653.41	38342.66
653.55	38022.00
653.70	38124.99
653.84	38494.79
653.99	38677.35
654.13	37881.57
654.27	38335.63
654.42	38136.69
654.56	38141.37
654.71	38239.67
654.85	38447.98
655.00	37993.92
655.14	38246.69
655.29	37612.41
655.43	37900.29
655.57	37787.95
655.72	37434.53
655.86	37163.03
656.01	37156.00
656.15	37347.93
656.30	37764.54
656.44	37614.75
656.58	37354.95
656.73	37441.55
656.87	37596.03
657.01	37310.48
657.16	37759.86
657.30	37493.04
657.45	37156.00
657.59	37818.38
657.73	37745.82
657.88	38045.41
658.02	38003.28
658.16	37876.89
658.31	37649.86
658.45	37900.29
658.60	37408.78
658.74	37490.70
658.88	37113.87
659.03	37200.47
659.17	36947.70
659.31	36685.56
659.46	36760.45
659.60	36898.55
659.74	37027.28
659.89	36961.74
660.03	36254.90
660.17	36545.12
660.32	36898.55
660.46	37088.13
660.60	36772.16
660.74	36664.49
660.89	36568.53
661.03	36367.24
661.17	36737.05
661.32	36479.59
661.46	36172.98
661.60	36290.01
661.74	36760.45
661.89	36933.65
662.03	36114.47
662.17	35959.99
662.31	36395.33
662.46	36451.50
662.60	36451.50
662.74	36074.68
662.88	35716.58
663.03	35835.94
663.17	36339.16
663.31	35988.08
663.45	36142.55
663.60	36079.36
663.74	35592.53
663.88	35459.12
664.02	35901.48
664.17	35805.52
664.31	35564.44
664.45	35412.31
664.59	35763.39
664.73	35400.60
664.88	35398.26
665.02	35030.80
665.16	35192.30
665.30	34962.92
665.44	34728.87
665.59	35026.12
665.73	34920.79
665.87	34841.21
666.01	35175.91
666.15	34675.04
666.29	35026.12
666.44	34892.71
666.58	34822.49
666.72	34785.04
666.86	34618.86
667.00	34712.49
667.14	34555.67
667.28	34015.01
667.43	34181.18
667.57	34450.35
667.71	34108.63
667.85	34398.85
667.99	34094.58
668.13	34377.79
668.27	34263.10
668.41	34209.27
668.56	34227.99
668.70	34164.80
668.84	33888.62
668.98	33504.77
669.12	33434.55
669.26	33509.45
669.40	33312.84
669.54	33376.04
669.68	33326.89
669.82	32996.87
669.96	33078.79
670.10	33490.73
670.25	33713.08
670.39	33256.67
670.53	33322.21
670.67	33104.54
670.81	33373.70
670.95	33301.14
671.09	32999.21
671.23	33003.89
671.37	32938.36
671.51	32528.77
671.65	32744.09
671.79	32402.38
671.93	32397.70
672.07	32858.78
672.21	32767.50
672.35	32247.90
672.49	32144.92
672.63	32664.52
672.77	32467.91
672.91	32472.59
673.05	32217.47
673.19	32088.74
673.33	32037.25
673.47	32116.83
673.61	31833.63
673.75	31470.84
673.89	31573.83
674.03	31388.92
674.17	31674.47
674.31	31461.48
674.45	31229.77
674.59	31505.95
674.73	31566.81
674.87	31550.42
675.01	31353.82
675.15	30918.48
675.29	31276.58
675.43	30859.96
675.56	30937.20
675.70	30775.70
675.84	30937.20
675.98	30045.46
676.12	30719.53
676.26	30288.87
676.40	30782.73
676.54	30464.41
676.68	30579.10
676.82	30216.32
676.96	29942.47
677.10	29907.37
677.23	29923.75
677.37	29823.11
677.51	29788.00
677.65	29376.06
677.79	29177.12
677.93	29392.45
678.07	29345.64
678.21	28898.59
678.34	28903.28
678.48	28521.77
678.62	28795.61
678.76	28849.44
678.90	28577.94
679.04	28444.53
679.18	28718.37
679.31	28584.96
679.45	28086.43
679.59	28093.45
679.73	27871.10
679.87	27880.46
680.00	28189.41
680.14	27754.07
680.28	28119.20
680.42	27658.11
680.56	28034.94
680.70	27756.41
680.83	27917.91
680.97	27583.21
681.11	27625.34
681.25	27414.69
681.39	27433.42
681.52	27623.00
681.66	27466.19
681.80	27536.40
681.94	27316.39
682.07	27255.54
682.21	26717.22
682.35	26485.50
682.49	26906.80
682.62	26768.71
682.76	26312.30
682.90	26419.97
683.04	26401.24
683.17	25916.75
683.31	26082.93
683.45	26136.76
683.59	25841.85
683.72	25647.59
683.86	25671.00
684.00	25685.04
684.13	25970.58
684.27	25462.69
684.41	25151.40
684.55	25165.44
684.68	25137.35
684.82	25195.87
684.96	25036.71
685.09	24868.19
685.23	25090.54
685.37	24465.62
685.50	24711.38
685.64	24767.55
685.78	24395.40
685.91	24540.52
686.05	24430.51
686.19	23971.77
686.32	23903.89
686.46	23440.47
686.60	23314.08
686.73	23601.96
686.87	23218.11
687.01	23616.01
687.14	23293.01
687.28	23140.88
687.42	23225.14
687.55	23075.34
687.69	23358.55
687.82	22845.97
687.96	23204.07
688.10	23119.81
688.23	22616.60
688.37	22548.72
688.50	22948.95
688.64	22602.55
688.78	22728.94
688.91	22394.25
689.05	22773.41
689.18	22232.75
689.32	22092.32
689.46	21914.44
689.59	22228.07
689.73	22326.37
689.86	22176.58
690.00	22202.32
690.13	22230.41
690.27	21891.03
690.41	21916.78
690.54	21324.62
690.68	21429.94
690.81	21245.04
690.95	21104.61
691.08	21008.65
691.22	21125.68
691.35	21231.00
691.49	21451.01
691.62	21238.02
691.76	20980.56
691.89	20870.56
692.03	20589.69
692.16	20570.97
692.30	20376.70
692.43	20318.19
692.57	20390.75
692.70	20156.69
692.84	20063.07
692.97	20051.37
693.11	20109.88
693.24	19892.21
693.38	19908.60
693.51	19749.44
693.65	19833.70
693.78	19859.45
693.92	19641.78
694.05	19686.25
694.19	19669.86
694.32	19187.71
694.45	19487.30
694.59	19171.33
694.72	19269.63
694.86	19056.64
694.99	18923.23
695.13	18757.05
695.26	18696.20
695.39	18609.60
695.53	18948.98
695.66	18799.18
695.80	18625.98
695.93	18326.39
696.07	18628.32
696.20	18441.08
696.33	18125.11
696.47	18368.52
696.60	18043.19
696.73	18148.51
696.87	17963.61
697.00	17987.02
697.14	17675.73
697.27	17809.14
697.40	17654.66
697.54	17542.32
697.67	17694.45
697.80	17525.93
697.94	17448.69
698.07	17345.71
698.21	17060.16
698.34	17097.61
698.47	17060.16
698.61	16943.14
698.74	16833.13
698.87	16891.65
699.01	16470.35
699.14	16460.99
699.27	16198.85
699.40	16664.61
699.54	16505.46
699.67	16329.92
699.80	16290.13
699.94	16058.42
700.07	16372.05
700.20	15990.54
700.34	15803.30
700.47	16011.60
700.60	16290.13
700.73	15913.30
700.87	15854.79
701.00	15712.02
701.13	15920.32
701.26	15211.14
701.40	15440.51
701.53	15445.20
701.66	15393.70
701.79	15286.04
701.93	15197.10
702.06	15171.35
702.19	15070.71
702.32	15229.87
702.46	14927.94
702.59	15112.84
702.72	14956.02
702.85	14906.87
702.99	14803.89
703.12	14618.99
703.25	14626.01
703.38	14361.53
703.51	14391.95
703.65	14574.52
703.78	14490.26
703.91	14197.69
704.04	14265.57
704.17	14274.93
704.31	13923.85
704.44	14085.34
704.57	14026.83
704.70	13980.02
704.83	13757.67
704.96	13888.74
705.10	13834.91
705.23	13678.09
>>>>>End Processed Spectral Data<<<<<
