SpectraSuite Data File
++++++++++++++++++++++++++++++++++++
Date: Fri Oct 25 10:43:43 EDT 2013
User: price-jones
Dark Spectrum Present: No
Reference Spectrum Present: No
Number of Sampled Component Spectra: 1
Spectrometers: USB2+H05261
Integration Time (usec): 100000 (USB2+H05261)
Spectra Averaged: 1 (USB2+H05261)
Boxcar Smoothing: 0 (USB2+H05261)
Correct for Electrical Dark: No (USB2+H05261)
Strobe/Lamp Enabled: No (USB2+H05261)
Correct for Detector Non-linearity: No (USB2+H05261)
Correct for Stray Light: No (USB2+H05261)
Number of Pixels in Processed Spectrum: 2048
>>>>>Begin Processed Spectral Data<<<<<
365.73	187.24
365.92	187.24
366.12	187.24
366.32	32.77
366.52	60.85
366.72	93.62
366.91	7.02
367.11	0.00
367.31	21.06
367.51	18.72
367.70	0.00
367.90	58.51
368.10	56.17
368.30	0.00
368.49	0.00
368.69	86.60
368.89	86.60
369.09	42.13
369.28	46.81
369.48	70.22
369.68	98.30
369.87	133.41
370.07	21.06
370.27	140.43
370.47	196.60
370.66	381.51
370.86	386.19
371.06	369.80
371.25	447.04
371.45	472.79
371.65	479.81
371.84	393.21
372.04	454.06
372.24	411.93
372.44	486.83
372.63	535.98
372.83	428.32
373.03	442.36
373.22	484.49
373.42	589.82
373.62	505.56
373.81	521.94
374.01	573.43
374.21	519.60
374.40	538.32
374.60	629.60
374.79	599.18
374.99	531.30
375.19	610.88
375.38	599.18
375.58	601.52
375.78	638.97
375.97	608.54
376.17	578.11
376.37	559.39
376.56	610.88
376.76	613.22
376.95	606.20
377.15	671.73
377.35	655.35
377.54	664.71
377.74	634.29
377.93	727.91
378.13	603.86
378.33	653.01
378.52	664.71
378.72	667.05
378.91	678.76
379.11	648.33
379.31	587.47
379.50	610.88
379.70	664.71
379.89	709.18
380.09	692.80
380.28	727.91
380.48	755.99
380.68	660.03
380.87	723.23
381.07	653.01
381.26	657.69
381.46	741.95
381.65	737.27
381.85	657.69
382.04	645.99
382.24	739.61
382.43	690.46
382.63	636.63
382.83	667.05
383.02	763.01
383.22	692.80
383.41	671.73
383.61	683.44
383.80	821.53
384.00	741.95
384.19	688.12
384.39	908.13
384.58	924.51
384.78	809.83
384.97	856.64
385.17	800.46
385.36	765.36
385.56	744.29
385.75	744.29
385.95	816.85
386.14	880.04
386.34	833.23
386.53	882.38
386.72	837.91
386.92	875.36
387.11	910.47
387.31	894.08
387.50	788.76
387.70	915.15
387.89	793.44
388.09	856.64
388.28	870.68
388.48	833.23
388.67	952.60
388.86	896.43
389.06	919.83
389.25	957.28
389.45	1088.35
389.64	915.15
389.84	933.87
390.03	992.39
390.22	1015.79
390.42	1027.50
390.61	915.15
390.81	990.05
391.00	1043.88
391.19	1027.50
391.39	1050.90
391.58	1088.35
391.78	1095.37
391.97	1067.28
392.16	1125.80
392.36	1090.69
392.55	945.58
392.75	1039.20
392.94	1050.90
393.13	966.64
393.33	1032.18
393.52	1036.86
393.71	1069.62
393.91	1151.54
394.10	1076.65
394.29	1069.62
394.49	1172.61
394.68	1193.67
394.88	1156.22
395.07	1249.85
395.26	1231.12
395.46	1226.44
395.65	1266.23
395.84	1263.89
396.04	1205.38
396.23	1170.27
396.42	1167.93
396.62	1146.86
396.81	1153.88
397.00	1153.88
397.19	1313.04
397.39	1397.30
397.58	1362.19
397.77	1385.60
397.97	1483.90
398.16	1479.22
398.35	1519.01
398.55	1519.01
398.74	1495.60
398.93	1591.56
399.12	1563.48
399.32	1425.39
399.51	1474.54
399.70	1530.71
399.90	1507.30
400.09	1511.99
400.28	1636.03
400.47	1568.16
400.67	1682.85
400.86	1671.14
401.05	1708.59
401.24	1732.00
401.44	1696.89
401.63	1769.44
401.82	1795.19
402.01	1643.06
402.21	1715.61
402.40	1802.21
402.59	1727.32
402.78	1708.59
402.97	1703.91
403.17	1790.51
403.36	1741.36
403.55	1739.02
403.74	1877.11
403.93	1858.39
404.13	1952.01
404.32	1811.57
404.51	1837.32
404.70	1905.20
404.89	1933.28
405.09	1998.82
405.28	1954.35
405.47	1944.99
405.66	2076.06
405.85	1970.73
406.05	2064.35
406.24	1935.62
406.43	1975.41
406.62	2087.76
406.81	2237.55
407.00	2169.68
407.20	2092.44
407.39	2101.80
407.58	2111.16
407.77	2265.64
407.96	2141.59
408.15	2165.00
408.34	2251.60
408.54	2429.48
408.73	2340.54
408.92	2253.94
409.11	2291.38
409.30	2345.22
409.49	2275.00
409.68	2272.66
409.87	2303.09
410.07	2277.34
410.26	2286.70
410.45	2375.64
410.64	2415.43
410.83	2600.34
411.02	2495.01
411.21	2553.52
411.40	2675.23
411.59	2502.03
411.78	2525.44
411.98	2593.31
412.17	2558.21
412.36	2614.38
412.55	2628.42
412.74	2729.06
412.93	2703.32
413.12	2649.49
413.31	2750.13
413.50	2771.19
413.69	2839.07
413.88	2883.54
414.07	2956.10
414.26	2991.20
414.45	2930.35
414.64	2853.11
414.83	3054.40
415.02	2902.26
415.22	2988.86
415.41	3021.63
415.60	3171.43
415.79	3084.83
415.98	3272.07
416.17	3330.58
416.36	3190.15
416.55	3438.25
416.74	3213.56
416.93	3178.45
417.12	3232.28
417.31	3197.17
417.50	3314.20
417.69	3372.71
417.88	3358.67
418.07	3318.88
418.26	3407.82
418.45	3506.12
418.64	3520.17
418.83	3634.85
419.02	3513.14
419.21	3599.74
419.39	3719.11
419.58	3599.74
419.77	3566.98
419.96	3709.75
420.15	3684.00
420.34	3730.81
420.53	3709.75
420.72	3878.27
420.91	3899.33
421.10	3716.77
421.29	3801.03
421.48	3623.15
421.67	3772.94
421.86	3749.54
422.05	3871.25
422.24	3777.62
422.43	3660.60
422.61	3801.03
422.80	4004.66
422.99	3878.27
423.18	3948.48
423.37	3939.12
423.56	3831.46
423.75	3840.82
423.94	3824.44
424.13	3691.02
424.32	3758.90
424.50	4044.45
424.69	3997.64
424.88	4025.72
425.07	3875.93
425.26	3789.33
425.45	3770.60
425.64	3971.89
425.83	3929.76
426.01	4053.81
426.20	4004.66
426.39	4091.26
426.58	3939.12
426.77	3974.23
426.96	3995.29
427.15	3929.76
427.33	4095.94
427.52	4032.74
427.71	4077.21
427.90	4093.60
428.09	3969.55
428.28	4191.90
428.46	4177.86
428.65	4063.17
428.84	4255.09
429.03	4182.54
429.22	4053.81
429.40	4234.03
429.59	4205.94
429.78	4018.70
429.97	3981.25
430.16	4072.53
430.34	4194.24
430.53	4236.37
430.72	4049.13
430.91	4231.69
431.10	4299.56
431.28	4507.87
431.47	4547.66
431.66	4868.31
431.85	4606.17
432.03	4542.98
432.22	4643.62
432.41	4571.07
432.60	4734.90
432.79	4681.07
432.97	4922.15
433.16	4800.44
433.35	4620.22
433.54	4545.32
433.72	4667.03
433.91	4594.47
434.10	4821.50
434.28	4809.80
434.47	4851.93
434.66	4858.95
434.85	4894.06
435.03	5067.26
435.22	4840.23
435.41	5135.14
435.59	5085.98
435.78	4971.30
435.97	5158.54
436.16	5085.98
436.34	5060.24
436.53	5158.54
436.72	5210.03
436.90	5167.90
437.09	5254.50
437.28	5151.52
437.46	5287.27
437.65	5167.90
437.84	5193.65
438.02	5085.98
438.21	5200.67
438.40	5160.88
438.58	5273.23
438.77	5378.55
438.96	5305.99
439.14	5633.67
439.33	5603.24
439.52	5511.96
439.70	5612.60
439.89	5530.69
440.08	5675.80
440.26	5799.85
440.45	5703.89
440.63	5799.85
440.82	5991.77
441.01	5937.94
441.19	5804.53
441.38	6038.58
441.57	6197.74
441.75	6232.85
441.94	6274.98
442.12	6293.70
442.31	6436.47
442.50	6258.59
442.68	6291.36
442.87	6202.42
443.05	6387.32
443.24	6462.22
443.43	6485.62
443.61	6366.26
443.80	6593.29
443.98	6370.94
444.17	6270.30
444.35	6586.27
444.54	6595.63
444.73	6609.67
444.91	6368.60
445.10	6387.32
445.28	6258.59
445.47	6307.74
445.65	6296.04
445.84	6382.64
446.02	6401.37
446.21	6684.57
446.39	6551.16
446.58	6607.33
446.77	6583.93
446.95	6459.88
447.14	6792.23
447.32	6850.75
447.51	6649.46
447.69	6665.85
447.88	6820.32
448.06	6647.12
448.25	6810.96
448.43	6909.26
448.62	6773.51
448.80	6780.53
448.99	6787.55
449.17	6843.73
449.36	6895.22
449.54	6944.37
449.73	7033.31
449.91	6853.09
450.10	7068.42
450.28	7248.64
450.46	7166.72
450.65	7351.62
450.83	7007.56
451.02	7148.00
451.20	7138.63
451.39	7023.95
451.57	7213.53
451.76	7248.64
451.94	7091.82
452.13	7431.20
452.31	7133.95
452.49	7091.82
452.68	7070.76
452.86	7087.14
453.05	7236.94
453.23	7368.01
453.42	7300.13
453.60	7309.49
453.78	7435.88
453.97	7379.71
454.15	7435.88
454.34	7365.67
454.52	7536.52
454.70	7644.19
454.89	7485.03
455.07	7566.95
455.26	7683.98
455.44	7793.98
455.62	7754.19
455.81	7784.62
455.99	7641.85
456.17	7878.24
456.36	7868.88
456.54	7829.09
456.73	7854.84
456.91	7955.48
457.09	8021.02
457.28	8259.75
457.46	7976.55
457.64	8114.64
457.83	8018.68
458.01	8004.63
458.19	8243.37
458.38	8037.40
458.56	8308.90
458.74	8241.03
458.93	8163.79
459.11	8292.52
459.29	8315.92
459.48	8219.96
459.66	8250.39
459.84	8411.89
460.03	8613.17
460.21	8503.17
460.39	8533.59
460.57	8507.85
460.76	8643.60
460.94	8533.59
461.12	8662.32
461.31	8505.51
461.49	8702.11
461.67	8568.70
461.85	8777.01
462.04	8664.66
462.22	9200.65
462.40	8943.19
462.59	8868.29
462.77	8940.85
462.95	8922.12
463.13	8774.67
463.32	8842.54
463.50	8938.51
463.68	8971.27
463.86	9128.09
464.05	8926.80
464.23	8971.27
464.41	9069.58
464.59	8978.30
464.78	9352.78
464.96	8990.00
465.14	8896.38
465.32	9137.45
465.50	9207.67
465.69	9394.91
465.87	9048.51
466.05	9287.25
466.23	9259.16
466.41	9055.53
466.60	9322.35
466.78	9221.71
466.96	9125.75
467.14	9104.68
467.32	9514.28
467.51	9469.81
467.69	9277.88
467.87	9413.63
468.05	9563.43
468.23	9441.72
468.41	9575.13
468.60	9373.85
468.78	9453.42
468.96	9453.42
469.14	9848.97
469.32	9643.01
469.50	9631.30
469.69	9977.70
469.87	9881.74
470.05	9841.95
470.23	9858.34
470.41	9685.14
470.59	9980.04
470.77	9755.35
470.95	10104.09
471.14	10104.09
471.32	9956.64
471.50	10279.63
471.68	10401.34
471.86	10413.04
472.04	10377.94
472.22	10757.10
472.40	10223.46
472.58	10228.14
472.77	10408.36
472.95	10572.20
473.13	10810.93
473.31	10696.25
473.49	10619.01
473.67	10768.80
473.85	10682.20
474.03	11101.16
474.21	11101.16
474.39	11124.57
474.57	10967.75
474.75	11283.72
474.93	11351.60
475.12	11061.37
475.30	11108.18
475.48	11023.92
475.66	11363.30
475.84	11276.70
476.02	11370.32
476.20	11391.39
476.38	11517.78
476.56	12189.51
476.74	11779.92
476.92	11885.24
477.10	11992.90
477.28	11999.93
477.46	11908.65
477.64	12159.08
477.82	12360.37
478.00	12592.08
478.18	12484.42
478.36	12528.89
478.54	12482.08
478.72	12720.81
478.90	12816.77
479.08	13158.49
479.26	13289.56
479.44	13123.38
479.62	13294.24
479.80	13469.78
479.98	13247.43
480.16	13558.72
480.34	13851.29
480.52	13811.50
480.70	13540.00
480.88	13425.31
481.06	13769.37
481.24	13783.41
481.41	14251.52
481.59	14059.60
481.77	14132.15
481.95	14249.18
482.13	14384.93
482.31	14476.21
482.49	14738.35
482.67	14771.12
482.85	15075.39
483.03	15138.58
483.21	15428.81
483.39	15529.45
483.57	15417.11
483.74	15562.22
483.92	15882.88
484.10	15520.09
484.28	16002.24
484.46	16114.59
484.64	16276.09
484.82	16046.71
485.00	16018.63
485.18	16229.27
485.35	16416.52
485.53	16421.20
485.71	16121.61
485.89	16334.60
486.07	16491.41
486.25	16727.81
486.43	16744.19
486.61	17085.91
486.78	17118.68
486.96	17472.10
487.14	17507.21
487.32	17703.81
487.50	18057.23
487.68	18305.33
487.85	18469.17
488.03	18485.55
488.21	18466.83
488.39	18436.40
488.57	18675.13
488.75	18420.02
488.92	19005.15
489.10	19138.56
489.28	19176.01
489.46	19623.05
489.64	19864.13
489.81	20046.69
489.99	20421.17
490.17	20292.44
490.35	20500.75
490.53	20123.93
490.70	20456.28
490.88	20418.83
491.06	20606.08
491.24	20783.96
491.41	20556.93
491.59	20692.68
491.77	21006.31
491.95	21235.68
492.13	21362.07
492.30	21734.21
492.48	21364.41
492.66	21565.70
492.84	21858.26
493.01	22143.81
493.19	22162.53
493.37	22263.18
493.54	22401.27
493.72	22384.88
493.90	22497.23
494.08	22712.56
494.25	23365.57
494.43	23260.24
494.61	23447.49
494.79	23459.19
494.96	23477.91
495.14	23328.12
495.32	23658.14
495.49	23388.97
495.67	24196.46
495.85	23990.49
496.02	24353.27
496.20	24720.74
496.38	24357.96
496.55	24252.63
496.73	25088.20
496.91	24746.48
497.09	24765.21
497.26	24959.47
497.44	24966.49
497.62	25252.04
497.79	25067.14
497.97	25003.94
498.14	25394.81
498.32	25504.82
498.50	25591.42
498.67	25757.60
498.85	25813.77
499.03	25825.47
499.20	26340.39
499.38	26026.76
499.56	26319.32
499.73	26293.58
499.91	26562.74
500.08	26544.02
500.26	26031.44
500.44	26822.54
500.61	26567.42
500.79	26525.29
500.97	26815.52
501.14	27040.21
501.32	27098.72
501.49	27391.29
501.67	27239.15
501.84	27325.75
502.02	27503.64
502.20	27461.51
502.37	27742.37
502.55	27686.20
502.72	27920.25
502.90	28151.96
503.07	27875.78
503.25	28297.08
503.43	28116.86
503.60	27971.74
503.78	28173.03
503.95	28147.28
504.13	28416.44
504.30	28739.44
504.48	28512.41
504.65	28912.64
504.83	29280.10
505.01	29240.31
505.18	28835.40
505.36	29521.18
505.53	29266.06
505.71	29474.37
505.88	29497.77
506.06	29425.22
506.23	29766.93
506.41	29556.28
506.58	29949.50
506.76	29846.51
506.93	29940.13
507.11	30293.55
507.28	29811.40
507.46	29898.00
507.63	29790.34
507.81	29998.65
507.98	30057.16
508.16	30239.72
508.33	30609.53
508.50	30712.51
508.68	30569.74
508.85	30738.26
509.03	30986.35
509.20	30672.72
509.38	31023.80
509.55	31044.87
509.73	31314.03
509.90	31236.79
510.08	31145.51
510.25	31182.96
510.42	31243.81
510.60	31573.83
510.77	32098.11
510.95	32023.21
511.12	31770.43
511.30	32053.64
511.47	32067.68
511.64	31997.46
511.82	32247.90
511.99	32463.23
512.17	32603.66
512.34	32004.49
512.51	32486.64
512.69	32744.09
512.86	32992.19
513.04	32961.76
513.21	32891.55
513.38	32507.70
513.56	32889.21
513.73	32662.18
513.90	32767.50
514.08	32737.07
514.25	33146.67
514.43	33223.90
514.60	33305.82
514.77	33081.13
514.95	33729.46
515.12	33532.86
515.29	33656.90
515.47	33642.86
515.64	33998.62
515.81	34326.30
515.99	34164.80
516.16	34220.97
516.33	33544.56
516.51	33766.91
516.68	33076.45
516.85	33324.55
517.03	33530.51
517.20	33844.15
517.37	34593.12
517.54	34146.08
517.72	34286.51
517.89	34352.04
518.06	34092.24
518.24	34022.03
518.41	34195.23
518.58	34508.86
518.75	34525.24
518.93	34824.83
519.10	34862.28
519.27	35021.44
519.45	35030.80
519.62	35688.49
519.79	35264.85
519.96	35658.06
520.14	35601.89
520.31	34923.13
520.48	35159.53
520.65	35854.67
520.83	35957.65
521.00	35892.12
521.17	36004.46
521.34	35847.64
521.52	36100.42
521.69	35999.78
521.86	36144.89
522.03	35948.29
522.20	36821.31
522.38	36463.21
522.55	36650.45
522.72	36098.08
522.89	36292.35
523.07	36575.55
523.24	36486.61
523.41	37329.20
523.58	37170.05
523.75	37490.70
523.92	37450.91
524.10	36769.82
524.27	37500.06
524.44	37010.89
524.61	37528.15
524.78	37483.68
524.96	37179.41
525.13	37471.98
525.30	37621.77
525.47	38064.13
525.64	37263.67
525.81	37518.79
525.98	37710.71
526.16	37237.92
526.33	37195.79
526.50	36884.50
526.67	37174.73
526.84	37247.29
527.01	37326.86
527.18	37989.24
527.36	38295.85
527.53	38171.80
527.70	38387.13
527.87	38302.87
528.04	38054.77
528.21	38518.20
528.38	38349.68
528.55	38946.51
528.72	38707.78
528.89	38857.57
529.07	38925.45
529.24	39271.85
529.41	38665.65
529.58	39201.63
529.75	38443.30
529.92	39112.69
530.09	38937.15
530.26	39208.65
530.43	39772.72
530.60	38988.64
530.77	39147.80
530.94	39386.54
531.11	39721.23
531.28	39393.56
531.46	39416.96
531.63	39765.70
531.80	39580.80
531.97	39431.01
532.14	39152.48
532.31	38958.22
532.48	39489.52
532.65	39599.52
532.82	39817.19
532.99	39903.79
533.16	39161.84
533.33	39810.17
533.50	40299.34
533.67	40065.29
533.84	39840.60
534.01	40278.28
534.18	40203.38
534.35	40486.59
534.52	39950.60
534.69	40133.17
534.86	40467.86
535.03	40222.11
535.20	40783.83
535.37	41088.10
535.54	40823.62
535.71	40823.62
535.88	40657.45
536.05	40961.72
536.22	40697.24
536.38	40664.47
536.55	40760.43
536.72	41001.50
536.89	40418.71
537.06	40868.09
537.23	41237.90
537.40	40825.96
537.57	41092.79
537.74	41174.70
537.91	41591.32
538.08	41261.30
538.25	40931.29
538.42	41265.99
538.59	41095.13
538.75	41326.84
538.92	41312.80
539.09	41153.64
539.26	41558.55
539.43	41900.27
539.60	41633.45
539.77	41326.84
539.94	41757.50
540.11	41163.00
540.28	41387.69
540.44	41624.09
540.61	41315.14
540.78	41521.10
540.95	41354.93
541.12	41645.15
541.29	41474.29
541.46	41991.55
541.62	41628.77
541.79	41773.88
541.96	42082.83
542.13	41886.23
542.30	41902.61
542.47	42408.17
542.63	42199.86
542.80	42134.32
542.97	42883.30
543.14	42663.28
543.31	42426.89
543.48	42920.74
543.64	42906.70
543.81	42623.50
543.98	42995.64
544.15	42939.47
544.32	43210.97
544.48	43459.07
544.65	42852.87
544.82	42876.27
544.99	42527.53
545.16	42909.04
545.32	42403.49
545.49	43274.16
545.66	43320.98
545.83	43012.02
546.00	43269.48
546.16	43133.73
546.33	43585.46
546.50	42885.64
546.67	43264.80
546.83	43068.20
547.00	43159.48
547.17	43173.52
547.34	43161.82
547.50	43311.61
547.67	42939.47
547.84	43243.74
548.00	43880.36
548.17	43608.86
548.34	43758.66
548.51	43725.89
548.67	43985.69
548.84	43709.50
549.01	43821.85
549.18	43744.61
549.34	43784.40
549.51	43693.12
549.68	43730.57
549.84	44289.96
550.01	44261.87
550.18	43618.22
550.34	43885.04
550.51	43861.64
550.68	43873.34
550.84	43306.93
551.01	43992.71
551.18	44201.02
551.34	43931.86
551.51	44208.04
551.68	44222.08
551.84	44285.28
552.01	44030.16
552.18	44240.81
552.34	44250.17
552.51	43997.39
552.68	44580.18
552.84	44479.54
553.01	44217.40
553.18	44233.78
553.34	44334.43
553.51	44114.42
553.67	44435.07
553.84	44863.39
554.01	44509.97
554.17	45034.25
554.34	44755.72
554.51	44194.00
554.67	44921.90
554.84	44465.50
555.00	44575.50
555.17	44538.05
555.33	44776.79
555.50	45202.77
555.67	44910.20
555.83	44657.42
556.00	44575.50
556.16	45336.18
556.33	44980.42
556.50	45027.23
556.66	45179.36
556.83	44832.96
556.99	45315.11
557.16	45404.05
557.32	44704.23
557.49	45345.54
557.65	44835.30
557.82	45305.75
557.98	45031.91
558.15	45043.61
558.32	44978.07
558.48	45029.57
558.65	44608.27
558.81	45083.40
558.98	45256.60
559.14	45013.18
559.31	45006.16
559.47	44765.09
559.64	45111.49
559.80	45394.69
559.97	45209.79
560.13	45265.96
560.30	45237.87
560.46	45364.26
560.63	45471.93
560.79	45331.50
560.96	45474.27
561.12	45371.28
561.29	45198.09
561.45	45209.79
561.61	45595.98
561.78	45230.85
561.94	45326.81
562.11	45357.24
562.27	45310.43
562.44	45647.47
562.60	45525.76
562.77	45570.23
562.93	45387.67
563.10	45766.84
563.26	45308.09
563.42	45823.01
563.59	45188.72
563.75	45560.87
563.92	45848.75
564.08	45593.64
564.24	45923.65
564.41	45495.33
564.57	45500.01
564.74	45595.98
564.90	45413.41
565.07	45780.88
565.23	45815.99
565.39	45492.99
565.56	45930.67
565.72	45067.02
565.88	45469.59
566.05	45521.08
566.21	45553.85
566.38	46036.00
566.54	45823.01
566.70	45806.62
566.87	45848.75
567.03	45916.63
567.19	46155.36
567.36	46019.61
567.52	45584.27
567.68	46157.70
567.85	45649.81
568.01	45640.45
568.17	45801.94
568.34	46138.98
568.50	45694.28
568.66	45977.48
568.83	45858.12
568.99	45748.11
569.15	45340.86
569.32	45663.85
569.48	45846.41
569.64	45755.13
569.81	45301.07
569.97	45904.93
570.13	45820.67
570.30	45542.14
570.46	45235.53
570.62	45731.73
570.78	45443.84
570.95	45621.72
571.11	45968.12
571.27	45832.37
571.43	46021.95
571.60	45834.71
571.76	45755.13
571.92	45853.44
572.09	45998.55
572.25	45717.68
572.41	46120.26
572.57	45755.13
572.74	46199.83
572.90	45869.82
573.06	46099.19
573.22	45900.25
573.38	46279.41
573.55	45940.04
573.71	45951.74
573.87	46220.90
574.03	45958.76
574.20	45986.85
574.36	45925.99
574.52	45844.07
574.68	46445.59
574.84	46087.49
575.01	45612.36
575.17	45696.62
575.33	46256.01
575.49	45717.68
575.65	46447.93
575.82	46361.33
575.98	46073.45
576.14	45956.42
576.30	46274.73
576.46	46171.75
576.62	45799.60
576.79	45621.72
576.95	45659.17
577.11	45729.39
577.27	46445.59
577.43	46026.63
577.59	46040.68
577.75	45933.01
577.92	45991.53
578.08	45558.53
578.24	45593.64
578.40	45930.67
578.56	46061.74
578.72	46010.25
578.88	46155.36
579.04	46007.91
579.21	45865.14
579.37	45897.91
579.53	46141.32
579.69	45869.82
579.85	46188.13
580.01	46122.60
580.17	45918.97
580.33	46021.95
580.49	46263.03
580.65	46277.07
580.82	46071.10
580.98	45928.33
581.14	45940.04
581.30	46052.38
581.46	46312.18
581.62	45986.85
581.78	46073.45
581.94	46382.40
582.10	45933.01
582.26	46522.83
582.42	46270.05
582.58	46234.94
582.74	45610.02
582.90	46471.34
583.06	46770.93
583.22	46358.99
583.38	46335.59
583.54	45963.44
583.70	46637.51
583.86	46284.09
584.02	45954.08
584.18	46373.03
584.34	46033.66
584.50	46440.91
584.66	45993.87
584.82	46202.18
584.98	46234.94
585.14	45914.29
585.30	46356.65
585.46	45975.14
585.62	45886.20
585.78	46171.75
585.94	45600.66
586.10	45813.65
586.26	46007.91
586.42	46419.84
586.58	46351.97
586.74	46117.92
586.90	45640.45
587.06	46288.77
587.22	45986.85
587.38	46234.94
587.54	46431.55
587.70	46396.44
587.86	46263.03
588.02	45879.18
588.18	45904.93
588.34	46195.15
588.49	45682.58
588.65	45645.13
588.81	45483.63
588.97	45876.84
589.13	45745.77
589.29	45825.35
589.45	46096.85
589.61	45874.50
589.77	46550.91
589.93	46099.19
590.08	46036.00
590.24	46532.19
590.40	46707.73
590.56	46087.49
590.72	46532.19
590.88	45820.67
591.04	46274.73
591.20	46904.34
591.35	46246.65
591.51	46696.03
591.67	46616.45
591.83	46703.05
591.99	46337.93
592.15	46108.55
592.31	46134.30
592.46	46047.70
592.62	45940.04
592.78	46490.06
592.94	46504.10
593.10	46246.65
593.26	46394.10
593.41	46621.13
593.57	46543.89
593.73	45886.20
593.89	46209.20
594.05	46045.36
594.20	46134.30
594.36	46258.35
594.52	46387.08
594.68	46351.97
594.84	45982.16
594.99	46586.02
595.15	46071.10
595.31	46431.55
595.47	46213.88
595.62	46635.17
595.78	46082.81
595.94	46548.57
596.10	46497.08
596.25	46440.91
596.41	46452.61
596.57	46684.33
596.73	46433.89
596.88	45647.47
597.04	46532.19
597.20	46520.49
597.36	46492.40
597.51	46972.21
597.67	46356.65
597.83	46529.85
597.99	46506.44
598.14	46518.15
598.30	46408.14
598.46	46244.30
598.61	46944.12
598.77	46068.76
598.93	46061.74
599.09	46590.70
599.24	46983.91
599.40	46656.24
599.56	46291.12
599.71	46424.53
599.87	46466.66
600.03	46417.50
600.18	46162.39
600.34	46234.94
600.50	46000.89
600.65	46181.11
600.81	46635.17
600.97	46387.08
601.12	46511.13
601.28	46401.12
601.44	46321.54
601.59	46674.96
601.75	45890.88
601.91	46380.06
602.06	46557.94
602.22	46616.45
602.37	46129.62
602.53	46658.58
602.69	46827.10
602.84	46424.53
603.00	46337.93
603.16	46143.66
603.31	46239.62
603.47	46143.66
603.62	45970.46
603.78	46457.29
603.94	46408.14
604.09	46335.59
604.25	46564.96
604.40	46192.81
604.56	46241.96
604.71	46206.86
604.87	46305.16
605.03	46160.05
605.18	46043.02
605.34	46616.45
605.49	46096.85
605.65	46176.43
605.80	45989.19
605.96	46546.23
606.12	46377.72
606.27	46380.06
606.43	46370.69
606.58	46122.60
606.74	46375.37
606.89	45909.61
607.05	45883.86
607.20	46127.28
607.36	46368.35
607.51	46146.00
607.67	46211.54
607.82	46213.88
607.98	45539.80
608.13	45631.08
608.29	45600.66
608.44	45783.22
608.60	45649.81
608.75	45799.60
608.91	45989.19
609.06	45986.85
609.22	45991.53
609.37	45855.78
609.53	45633.42
609.68	45893.22
609.84	45649.81
609.99	45429.80
610.15	45741.09
610.30	45837.05
610.46	45478.95
610.61	45588.95
610.76	45654.49
610.92	45773.86
611.07	45944.72
611.23	45446.18
611.38	45652.15
611.54	46012.59
611.69	45247.24
611.84	45284.68
612.00	45172.34
612.15	45598.32
612.31	45595.98
612.46	45275.32
612.62	45497.67
612.77	45689.60
612.92	45998.55
613.08	45317.45
613.23	45312.77
613.39	45043.61
613.54	44577.84
613.69	45160.64
613.85	45076.38
614.00	45116.17
614.15	45244.90
614.31	44795.51
614.46	45301.07
614.62	45500.01
614.77	44746.36
614.92	44825.94
615.08	45102.12
615.23	44896.16
615.38	44842.32
615.54	44580.18
615.69	44884.45
615.84	44788.49
616.00	45024.89
616.15	44971.05
616.30	45202.77
616.46	45102.12
616.61	44575.50
616.76	45092.76
616.92	44451.45
617.07	44622.31
617.22	45214.47
617.37	44772.11
617.53	44987.44
617.68	44868.07
617.83	44774.45
617.99	44437.41
618.14	44203.36
618.29	44411.67
618.45	43763.34
618.60	44327.41
618.75	44282.94
618.90	44076.97
619.06	44318.04
619.21	44648.06
619.36	44727.64
619.51	44416.35
619.67	44561.46
619.82	44144.84
619.97	44669.12
620.12	44334.43
620.28	44044.20
620.43	44065.27
620.58	44561.46
620.73	43985.69
620.89	44264.21
621.04	44406.98
621.19	44610.61
621.34	43765.68
621.49	43613.54
621.65	43824.19
621.80	44238.47
621.95	44051.22
622.10	44105.06
622.25	43859.30
622.41	43817.17
622.56	43531.62
622.71	44069.95
622.86	43927.17
623.01	43803.13
623.16	43737.59
623.32	43833.55
623.47	43611.20
623.62	43749.29
623.77	43606.52
623.92	43358.42
624.07	43606.52
624.23	43391.19
624.38	43697.80
624.53	43737.59
624.68	43501.20
624.83	44011.43
624.98	43550.35
625.13	42997.98
625.29	42981.60
625.44	43714.19
625.59	43000.32
625.74	43171.18
625.89	43133.73
626.04	43140.75
626.19	42649.24
626.34	43545.67
626.49	43077.56
626.65	43084.58
626.80	42899.68
626.95	42831.80
627.10	42843.51
627.25	42579.03
627.40	42632.86
627.55	42679.67
627.70	42698.39
627.85	42632.86
628.00	42586.05
628.15	42485.40
628.30	42525.19
628.45	43058.84
628.60	42808.40
628.76	42780.31
628.91	42607.11
629.06	42417.53
629.21	42347.31
629.36	41839.42
629.51	42511.15
629.66	42330.93
629.81	42141.35
629.96	42307.52
630.11	42593.07
630.26	42667.97
630.41	42206.88
630.56	42265.39
630.71	42351.99
630.86	42670.31
631.01	42124.96
631.16	42288.80
631.31	42127.30
631.46	42094.53
631.61	42054.75
631.76	42209.22
631.91	42337.95
632.06	42071.13
632.21	42127.30
632.36	42288.80
632.51	41289.39
632.66	41722.39
632.81	41291.73
632.96	41738.77
633.10	41523.44
633.25	41996.23
633.40	41942.40
633.55	41872.18
633.70	41897.93
633.85	41474.29
634.00	42092.19
634.15	41848.78
634.30	41652.17
634.45	41567.91
634.60	41773.88
634.75	41804.31
634.90	41432.16
635.05	41691.96
635.19	41160.66
635.34	41633.45
635.49	41619.41
635.64	41886.23
635.79	41347.90
635.94	40935.97
636.09	41638.13
636.24	40718.30
636.39	41104.49
636.53	41347.90
636.68	40877.46
636.83	41155.98
636.98	41336.20
637.13	41326.84
637.28	41649.83
637.43	41155.98
637.57	41015.55
637.72	40870.43
637.87	41165.34
638.02	41209.81
638.17	41045.97
638.32	41273.01
638.46	41340.88
638.61	40715.96
638.76	40884.48
638.91	40737.02
639.06	41216.83
639.20	40718.30
639.35	41029.59
639.50	40800.22
639.65	40933.63
639.80	40847.03
639.94	40861.07
640.09	40514.67
640.24	40299.34
640.39	40294.66
640.54	40460.84
640.68	40823.62
640.83	40158.91
640.98	40397.65
641.13	40275.94
641.27	40690.21
641.42	40512.33
641.57	40652.76
641.72	40432.75
641.86	40692.55
642.01	39983.37
642.16	40175.30
642.31	39543.35
642.45	39959.97
642.60	39779.74
642.75	40062.95
642.90	39938.90
643.04	40231.47
643.19	40025.50
643.34	39981.03
643.48	40100.40
643.63	39798.47
643.78	40137.85
643.93	40187.00
644.07	40093.38
644.22	39529.31
644.37	39512.92
644.51	40091.04
644.66	39512.92
644.81	39910.82
644.95	40055.93
645.10	39683.78
645.25	39559.73
645.39	39611.23
645.54	39765.70
645.69	39538.67
645.83	39335.04
645.98	39459.09
646.13	39470.79
646.27	39896.77
646.42	39459.09
646.57	38939.49
646.71	39150.14
646.86	39463.77
647.00	39503.56
647.15	39229.72
647.30	39100.99
647.44	39019.07
647.59	39431.01
647.74	38653.95
647.88	39431.01
648.03	38742.89
648.17	39145.46
648.32	39157.16
648.47	38742.89
648.61	38719.48
648.76	39278.87
648.90	39342.06
649.05	38873.96
649.20	39068.22
649.34	38972.26
649.49	38728.84
649.63	39047.16
649.78	38899.70
649.92	39042.48
650.07	39124.40
650.21	38653.95
650.36	38827.15
650.51	39161.84
650.65	39505.90
650.80	39154.82
650.94	38850.55
651.09	38986.30
651.23	38520.54
651.38	38873.96
651.52	38469.04
651.67	38710.12
651.81	38232.65
651.96	38417.55
652.10	38747.57
652.25	38705.44
652.39	38747.57
652.54	38422.23
652.68	38492.45
652.83	38541.60
652.97	38340.32
653.12	38663.31
653.26	38171.80
653.41	38209.25
653.55	37975.19
653.70	38281.80
653.84	37970.51
653.99	37804.33
654.13	37881.57
654.27	38127.33
654.42	37556.24
654.56	38251.38
654.71	37727.10
654.85	38120.31
655.00	38148.39
655.14	37907.32
655.29	37818.38
655.43	38061.79
655.57	37507.08
655.72	37567.94
655.86	37387.72
656.01	37483.68
656.15	36779.18
656.30	37046.00
656.44	37544.53
656.58	37563.26
656.73	37434.53
656.87	36844.71
657.01	37528.15
657.16	36992.17
657.30	37163.03
657.45	37125.58
657.59	36751.09
657.73	37383.04
657.88	37062.38
658.02	37186.43
658.16	37251.97
658.31	37177.07
658.45	37750.50
658.60	37205.16
658.74	37195.79
658.88	37209.84
659.03	37233.24
659.17	36961.74
659.31	36744.07
659.46	36795.56
659.60	36889.18
659.74	36634.06
659.89	36524.06
660.03	36456.18
660.17	36910.25
660.32	36931.31
660.46	36893.86
660.60	36453.84
660.74	36701.94
660.89	36659.81
661.03	36718.32
661.17	36229.15
661.32	36236.17
661.46	36645.77
661.60	36002.12
661.74	35824.24
661.89	35969.35
662.03	36177.66
662.17	36030.21
662.31	36390.65
662.46	36175.32
662.60	36051.27
662.74	35756.36
662.88	35810.20
663.03	35814.88
663.17	35803.17
663.31	35803.17
663.45	35861.69
663.60	35519.97
663.74	35662.74
663.88	35562.10
664.02	35091.65
664.17	35613.59
664.31	35377.20
664.45	34944.20
664.59	35414.65
664.73	35346.77
664.88	35587.85
665.02	35061.22
665.16	35175.91
665.30	34803.77
665.44	34878.66
665.59	34628.23
665.73	34494.82
665.87	34646.95
666.01	34452.69
666.15	34756.96
666.29	34778.02
666.44	34700.78
666.58	34829.51
666.72	34892.71
666.86	34541.63
667.00	34382.47
667.14	34244.38
667.28	34120.33
667.43	34237.36
667.57	34295.87
667.71	34178.84
667.85	34146.08
667.99	34506.52
668.13	34075.86
668.27	33954.15
668.41	34349.70
668.56	33530.51
668.70	33656.90
668.84	33364.34
668.98	33345.61
669.12	33408.81
669.26	33535.20
669.40	33383.06
669.54	33336.25
669.68	33364.34
669.82	32989.85
669.96	33479.02
670.10	33230.93
670.25	33354.97
670.39	33312.84
670.53	32914.95
670.67	32788.56
670.81	33081.13
670.95	32975.81
671.09	32914.95
671.23	32535.79
671.37	32481.95
671.51	32496.00
671.65	32566.21
671.79	32353.23
671.93	32526.42
672.07	32503.02
672.21	32315.78
672.35	32336.84
672.49	32615.37
672.63	32060.66
672.77	32336.84
672.91	32006.83
673.05	32025.55
673.19	32102.79
673.33	31730.64
673.47	31473.18
673.61	31545.74
673.75	31414.67
673.89	31180.62
674.03	31199.34
674.17	31569.15
674.31	31386.58
674.45	31119.76
674.59	31271.90
674.73	31597.23
674.87	31175.94
675.01	31201.68
675.15	30967.63
675.29	30782.73
675.43	30876.35
675.56	30756.98
675.70	30902.09
675.84	30771.02
675.98	29720.12
676.12	30398.88
676.26	30899.75
676.40	30506.54
676.54	30263.13
676.68	30417.60
676.82	29773.95
676.96	29919.07
677.10	29729.48
677.23	29968.22
677.37	29549.26
677.51	29797.36
677.65	29408.83
677.79	29029.66
677.93	29291.80
678.07	28933.70
678.21	28762.84
678.34	28826.04
678.48	28648.16
678.62	28697.31
678.76	28453.89
678.90	28180.05
679.04	28671.56
679.18	28510.07
679.31	28037.28
679.45	28079.41
679.59	28119.20
679.73	27995.15
679.87	28030.26
680.00	28264.31
680.14	27725.99
680.28	27990.47
680.42	27679.18
680.56	27831.31
680.70	27578.53
680.83	27599.60
680.97	27267.24
681.11	27218.09
681.25	26969.99
681.39	27328.10
681.52	27070.64
681.66	26874.03
681.80	26960.63
681.94	26754.66
682.07	26738.28
682.21	26373.16
682.35	26305.28
682.49	26314.64
682.62	26195.28
682.76	26057.18
682.90	26129.74
683.04	26108.68
683.17	26120.38
683.31	25591.42
683.45	25928.45
683.59	25413.54
683.72	25933.14
683.86	25811.43
684.00	25797.38
684.13	25303.53
684.27	24989.90
684.41	25373.75
684.55	25261.40
684.68	24978.20
684.82	25120.97
684.96	25050.75
685.09	25200.55
685.23	24599.03
685.37	24713.72
685.50	24603.71
685.64	24301.78
685.78	24524.13
685.91	24194.12
686.05	24056.03
686.19	23833.68
686.32	24058.37
686.46	23716.65
686.60	23442.81
686.73	23374.93
686.87	23119.81
687.01	23239.18
687.14	23311.74
687.28	23187.69
687.42	23215.77
687.55	23040.23
687.69	23625.37
687.82	23204.07
687.96	23005.13
688.10	22867.03
688.23	22710.22
688.37	22527.66
688.50	22565.10
688.64	22471.48
688.78	22492.55
688.91	22363.82
689.05	22298.28
689.18	22415.31
689.32	22078.27
689.46	22108.70
689.59	22281.90
689.73	21998.70
689.86	21516.54
690.00	21589.10
690.13	21734.21
690.27	21308.24
690.41	21364.41
690.54	21242.70
690.68	21504.84
690.81	21280.15
690.95	21582.08
691.08	21111.63
691.22	21226.32
691.35	21102.27
691.49	21277.81
691.62	20877.58
691.76	21130.36
691.89	20805.02
692.03	20765.23
692.16	20585.01
692.30	20374.36
692.43	20512.46
692.57	19946.05
692.70	19913.28
692.84	19917.96
692.97	19873.49
693.11	19655.82
693.24	19468.58
693.38	19908.60
693.51	19639.44
693.65	20046.69
693.78	19559.86
693.92	19360.91
694.05	19618.37
694.19	19077.71
694.32	19255.59
694.45	19372.61
694.59	18902.17
694.72	19019.19
694.86	18675.13
694.99	18595.56
695.13	19150.26
695.26	18604.92
695.39	18476.19
695.53	18815.57
695.66	18436.40
695.80	18464.49
695.93	18272.56
696.07	18342.78
696.20	18298.31
696.33	18417.68
696.47	18218.73
696.60	17888.71
696.73	17874.67
696.87	17743.60
697.00	17954.25
697.14	17708.49
697.27	17671.04
697.40	17467.42
697.54	17247.41
697.67	16950.16
697.80	17172.51
697.94	17076.55
698.07	16964.20
698.21	16973.56
698.34	17130.38
698.47	16856.54
698.61	17006.33
698.74	16531.20
698.87	16812.07
699.01	16641.21
699.14	16418.86
699.27	16446.94
699.40	16217.57
699.54	16250.34
699.67	16226.93
699.80	15976.50
699.94	15983.52
700.07	16060.76
700.20	16191.83
700.34	15910.96
700.47	15983.52
700.60	15690.95
700.73	15875.85
700.87	15623.08
701.00	15590.31
701.13	15592.65
701.26	15382.00
701.40	15328.17
701.53	15358.60
701.66	15424.13
701.79	15166.67
701.93	14773.46
702.06	14771.12
702.19	14810.91
702.32	15021.56
702.46	14836.66
702.59	14881.13
702.72	14782.82
702.85	15000.49
702.99	14604.94
703.12	14665.80
703.25	14333.44
703.38	14211.73
703.51	14223.44
703.65	14373.23
703.78	14235.14
703.91	14008.11
704.04	13944.91
704.17	13666.39
704.31	14047.90
704.44	13930.87
704.57	13605.53
704.70	13748.31
704.83	13792.78
704.96	13680.43
705.10	13647.66
705.23	13806.82
>>>>>End Processed Spectral Data<<<<<
