SpectraSuite Data File
++++++++++++++++++++++++++++++++++++
Date: Fri Oct 25 10:47:53 EDT 2013
User: price-jones
Dark Spectrum Present: No
Reference Spectrum Present: No
Number of Sampled Component Spectra: 1
Spectrometers: USB2+H05261
Integration Time (usec): 100000 (USB2+H05261)
Spectra Averaged: 1 (USB2+H05261)
Boxcar Smoothing: 0 (USB2+H05261)
Correct for Electrical Dark: No (USB2+H05261)
Strobe/Lamp Enabled: No (USB2+H05261)
Correct for Detector Non-linearity: No (USB2+H05261)
Correct for Stray Light: No (USB2+H05261)
Number of Pixels in Processed Spectrum: 2048
>>>>>Begin Processed Spectral Data<<<<<
365.73	44.47
365.92	44.47
366.12	44.47
366.32	102.98
366.52	67.88
366.72	121.71
366.91	67.88
367.11	63.19
367.31	0.00
367.51	32.77
367.70	84.26
367.90	152.13
368.10	44.47
368.30	0.00
368.49	65.54
368.69	32.77
368.89	114.69
369.09	72.56
369.28	77.24
369.48	95.96
369.68	131.07
369.87	105.32
370.07	81.92
370.27	156.82
370.47	231.71
370.66	297.25
370.86	414.27
371.06	463.43
371.25	416.62
371.45	517.26
371.65	416.62
371.84	421.30
372.04	486.83
372.24	442.36
372.44	437.68
372.63	482.15
372.83	416.62
373.03	409.59
373.22	479.81
373.42	533.64
373.62	575.77
373.81	573.43
374.01	587.47
374.21	559.39
374.40	550.03
374.60	552.37
374.79	557.05
374.99	552.37
375.19	559.39
375.38	587.47
375.58	575.77
375.78	592.16
375.97	643.65
376.17	697.48
376.37	500.87
376.56	528.96
376.76	543.00
376.95	587.47
377.15	557.05
377.35	538.32
377.54	564.07
377.74	561.73
377.93	634.29
378.13	531.30
378.33	589.82
378.52	533.64
378.72	704.50
378.91	674.07
379.11	575.77
379.31	578.11
379.50	582.79
379.70	629.60
379.89	650.67
380.09	657.69
380.28	638.97
380.48	592.16
380.68	613.22
380.87	638.97
381.07	690.46
381.26	688.12
381.46	660.03
381.65	695.14
381.85	657.69
382.04	737.27
382.24	653.01
382.43	690.46
382.63	641.31
382.83	697.48
383.02	767.70
383.22	788.76
383.41	655.35
383.61	678.76
383.80	819.19
384.00	758.33
384.19	702.16
384.39	711.52
384.58	844.93
384.78	727.91
384.97	739.61
385.17	765.36
385.36	788.76
385.56	767.70
385.75	716.20
385.95	767.70
386.14	828.55
386.34	833.23
386.53	770.04
386.72	819.19
386.92	835.57
387.11	814.51
387.31	770.04
387.50	849.61
387.70	737.27
387.89	854.30
388.09	842.59
388.28	847.27
388.48	842.59
388.67	868.34
388.86	873.02
389.06	833.23
389.25	798.12
389.45	980.68
389.64	933.87
389.84	994.73
390.03	924.51
390.22	940.90
390.42	905.79
390.61	847.27
390.81	929.19
391.00	889.40
391.19	891.74
391.39	985.37
391.58	999.41
391.78	912.81
391.97	985.37
392.16	894.08
392.36	1034.52
392.55	922.17
392.75	1062.60
392.94	887.06
393.13	915.15
393.33	922.17
393.52	999.41
393.71	987.71
393.91	1081.33
394.10	1029.84
394.29	985.37
394.49	1083.67
394.68	1053.24
394.88	1093.03
395.07	1146.86
395.26	1090.69
395.46	1074.31
395.65	1078.99
395.84	1156.22
396.04	1149.20
396.23	1174.95
396.42	1074.31
396.62	1123.46
396.81	1156.22
397.00	1118.78
397.19	1165.59
397.39	1146.86
397.58	1254.53
397.77	1177.29
397.97	1247.51
398.16	1196.01
398.35	1254.53
398.55	1322.40
398.74	1303.68
398.93	1352.83
399.12	1273.25
399.32	1383.26
399.51	1301.34
399.70	1371.55
399.90	1394.96
400.09	1432.41
400.28	1469.86
400.47	1448.79
400.67	1441.77
400.86	1486.24
401.05	1502.62
401.24	1490.92
401.44	1544.75
401.63	1483.90
401.82	1401.98
402.01	1441.77
402.21	1582.20
402.40	1551.78
402.59	1483.90
402.78	1565.82
402.97	1448.79
403.17	1465.18
403.36	1589.22
403.55	1624.33
403.74	1675.82
403.93	1804.55
404.13	1675.82
404.32	1575.18
404.51	1626.67
404.70	1687.53
404.89	1629.01
405.09	1799.87
405.28	1736.68
405.47	1673.48
405.66	1755.40
405.85	1825.62
406.05	1832.64
406.24	1804.55
406.43	1977.75
406.62	1923.92
406.81	1919.24
407.00	1792.85
407.20	1834.98
407.39	1811.57
407.58	1877.11
407.77	1961.37
407.96	2012.86
408.15	2015.20
408.34	1947.33
408.54	1977.75
408.73	1907.54
408.92	2087.76
409.11	2085.42
409.30	2059.67
409.49	2024.56
409.68	2033.93
409.87	2017.54
410.07	2057.33
410.26	2122.87
410.45	2160.31
410.64	2045.63
410.83	2298.41
411.02	2167.34
411.21	2155.63
411.40	2242.23
411.59	2176.70
411.78	2246.91
411.98	2331.17
412.17	2382.67
412.36	2284.36
412.55	2455.22
412.74	2373.30
412.93	2424.80
413.12	2373.30
413.31	2495.01
413.50	2480.97
413.69	2504.37
413.88	2605.02
414.07	2539.48
414.26	2581.61
414.45	2560.55
414.64	2558.21
414.83	2663.53
415.02	2654.17
415.22	2745.45
415.41	2841.41
415.60	2885.88
415.79	2808.64
415.98	2825.03
416.17	2853.11
416.36	2930.35
416.55	2965.46
416.74	2918.65
416.93	2869.50
417.12	3012.27
417.31	2869.50
417.50	2991.20
417.69	3073.12
417.88	3040.36
418.07	3096.53
418.26	3185.47
418.45	3117.59
418.64	3187.81
418.83	3141.00
419.02	3178.45
419.21	3276.75
419.39	3204.19
419.58	3176.11
419.77	3180.79
419.96	3141.00
420.15	3283.77
420.34	3283.77
420.53	3300.16
420.72	3419.52
420.91	3473.36
421.10	3379.73
421.29	3440.59
421.48	3318.88
421.67	3405.48
421.86	3478.04
422.05	3396.12
422.24	3325.90
422.43	3442.93
422.61	3363.35
422.80	3454.63
422.99	3456.97
423.18	3447.61
423.37	3576.34
423.56	3513.14
423.75	3494.42
423.94	3548.25
424.13	3363.35
424.32	3335.26
424.50	3489.74
424.69	3583.36
424.88	3595.06
425.07	3548.25
425.26	3538.89
425.45	3597.40
425.64	3433.57
425.83	3625.49
426.01	3588.04
426.20	3581.02
426.39	3630.17
426.58	3585.70
426.77	3599.74
426.96	3688.68
427.15	3616.13
427.33	3590.38
427.52	3651.24
427.71	3747.20
427.90	3566.98
428.09	3655.92
428.28	3585.70
428.46	3723.79
428.65	3777.62
428.84	3836.14
429.03	3920.40
429.22	3805.71
429.40	3730.81
429.59	3782.31
429.78	3681.66
429.97	3672.30
430.16	3723.79
430.34	3840.82
430.53	3875.93
430.72	4016.36
430.91	4009.34
431.10	3978.91
431.28	4088.92
431.47	4070.19
431.66	4250.41
431.85	4145.09
432.03	4060.83
432.22	4135.73
432.41	4194.24
432.60	4198.92
432.79	4208.28
432.97	4355.74
433.16	4215.30
433.35	4210.62
433.54	4325.31
433.72	4339.35
433.91	4091.26
434.10	4341.69
434.28	4189.56
434.47	4241.05
434.66	4451.70
434.85	4362.76
435.03	4442.34
435.22	4383.82
435.41	4582.77
435.59	4660.01
435.78	4461.06
435.97	4545.32
436.16	4575.75
436.34	4571.07
436.53	4404.89
436.72	4608.51
436.90	4699.80
437.09	4622.56
437.28	4711.50
437.46	4720.86
437.65	4718.52
437.84	4716.18
438.02	4594.47
438.21	4690.43
438.40	4725.54
438.58	4971.30
438.77	4809.80
438.96	4816.82
439.14	4901.08
439.33	5060.24
439.52	5156.20
439.70	5071.94
439.89	5200.67
440.08	5050.88
440.26	5270.89
440.45	5217.05
440.63	5228.76
440.82	5439.40
441.01	5474.51
441.19	5296.63
441.38	5406.64
441.57	5575.16
441.75	5619.63
441.94	5577.50
442.12	5549.41
442.31	5727.29
442.50	5720.27
442.68	5827.93
442.87	5682.82
443.05	5657.07
443.24	5731.97
443.43	5689.84
443.61	5722.61
443.80	5860.70
443.98	5638.35
444.17	5547.07
444.35	5905.17
444.54	6066.67
444.73	5839.64
444.91	5757.72
445.10	5823.25
445.28	5877.09
445.47	5753.04
445.65	5834.96
445.84	5937.94
446.02	5977.73
446.21	5799.85
446.39	5963.68
446.58	5912.19
446.77	5792.83
446.95	5818.57
447.14	6012.84
447.32	6038.58
447.51	5935.60
447.69	5774.10
447.88	5806.87
448.06	5886.45
448.25	5930.92
448.43	6038.58
448.62	5919.21
448.80	6031.56
448.99	6139.23
449.17	6059.65
449.36	6148.59
449.54	6347.53
449.73	6181.35
449.91	6284.34
450.10	6244.55
450.28	6314.77
450.46	6370.94
450.65	6310.08
450.83	6469.24
451.02	6277.32
451.20	6434.13
451.39	6356.90
451.57	6382.64
451.76	6389.66
451.94	6424.77
452.13	6455.20
452.31	6455.20
452.49	6209.44
452.68	6406.05
452.86	6527.75
453.05	6628.40
453.23	6565.20
453.42	6464.56
453.60	6399.02
453.78	6623.72
453.97	6555.84
454.15	6754.79
454.34	6752.45
454.52	6815.64
454.70	6700.95
454.89	6918.62
455.07	6752.45
455.26	6792.23
455.44	6913.94
455.62	6820.32
455.81	6932.67
455.99	7061.40
456.17	7066.08
456.36	6991.18
456.54	6958.41
456.73	7323.54
456.91	7190.13
457.09	7454.61
457.28	7440.56
457.46	7215.87
457.64	7412.48
457.83	7206.51
458.01	7197.15
458.19	7363.33
458.38	7433.54
458.56	7499.08
458.74	7487.37
458.93	7478.01
459.11	7536.52
459.29	7470.99
459.48	7463.97
459.66	7655.89
459.84	7349.28
460.03	7623.12
460.21	7662.91
460.39	7702.70
460.57	7667.60
460.76	7651.21
460.94	7812.71
461.12	7868.88
461.31	7744.83
461.49	7742.49
461.67	7695.68
461.85	7859.52
462.04	7733.13
462.22	8421.25
462.40	8177.83
462.59	8056.12
462.77	7763.56
462.95	8077.19
463.13	8042.08
463.32	8051.44
463.50	8147.40
463.68	8173.15
463.86	7999.95
464.05	7981.23
464.23	7988.25
464.41	8287.84
464.59	8021.02
464.78	8224.64
464.96	8116.98
465.14	8198.90
465.32	8100.59
465.50	8566.36
465.69	8461.04
465.87	8276.13
466.05	8154.43
466.23	8294.86
466.41	8390.82
466.60	8571.04
466.78	8374.44
466.96	8690.41
467.14	8521.89
467.32	8587.43
467.51	8592.11
467.69	8369.76
467.87	8411.89
468.05	8526.57
468.23	8524.23
468.41	8510.19
468.60	8393.16
468.78	8655.30
468.96	8671.68
469.14	8704.45
469.32	8795.73
469.50	8479.76
469.69	8732.54
469.87	8798.07
470.05	8924.46
470.23	8718.50
470.41	9074.26
470.59	8863.61
470.77	9036.81
470.95	8861.27
471.14	9116.39
471.32	8954.89
471.50	9277.88
471.68	9092.98
471.86	9362.14
472.04	9198.31
472.22	9612.58
472.40	9228.73
472.58	9465.13
472.77	9640.67
472.95	9460.45
473.13	9879.40
473.31	9530.66
473.49	9434.70
473.67	9750.67
473.85	9703.86
474.03	9926.21
474.21	9799.82
474.39	10207.08
474.57	10171.97
474.75	10085.37
474.93	10068.98
475.12	10307.72
475.30	10171.97
475.48	10115.80
475.66	10094.73
475.84	10164.95
476.02	10356.87
476.20	10413.04
476.38	10499.64
476.56	10682.20
476.74	10754.76
476.92	10712.63
477.10	10679.86
477.28	10836.68
477.46	10649.44
477.64	11152.65
477.82	11218.19
478.00	11382.03
478.18	11300.11
478.36	11363.30
478.54	11379.68
478.72	11761.19
478.90	11585.65
479.08	11831.41
479.26	11819.71
479.44	12023.33
479.62	11925.03
479.80	12070.14
479.98	12222.28
480.16	12339.30
480.34	12315.90
480.52	12479.74
480.70	12475.06
480.88	12507.82
481.06	12589.74
481.24	12505.48
481.41	12847.20
481.59	13102.32
481.77	13107.00
481.95	12898.69
482.13	13224.03
482.31	13338.71
482.49	13530.64
482.67	13525.96
482.85	13547.02
483.03	13923.85
483.21	13853.63
483.39	13811.50
483.57	14036.19
483.74	14216.41
483.92	14204.71
484.10	14083.00
484.28	14300.67
484.46	14815.59
484.64	14611.96
484.82	14689.20
485.00	14721.97
485.18	15152.63
485.35	15145.61
485.53	14949.00
485.71	15042.62
485.89	15293.06
486.07	15367.96
486.25	15470.94
486.43	15936.71
486.61	15660.52
486.78	15845.43
486.96	16093.52
487.14	16063.10
487.32	16250.34
487.50	16446.94
487.68	16484.39
487.85	16786.32
488.03	17071.87
488.21	17221.66
488.39	17219.32
488.57	16987.61
488.75	17481.46
488.92	17221.66
489.10	17825.52
489.28	17666.36
489.46	17879.35
489.64	17788.07
489.81	18562.79
489.99	18195.32
490.17	18310.01
490.35	18614.28
490.53	18628.32
490.70	18745.35
490.88	18845.99
491.06	19166.65
491.24	19213.46
491.41	19161.97
491.59	19260.27
491.77	19115.16
491.95	19513.05
492.13	19384.32
492.30	19800.93
492.48	19915.62
492.66	20198.82
492.84	19847.74
493.01	20119.24
493.19	20135.63
493.37	20133.29
493.54	20294.79
493.72	20767.57
493.90	20641.18
494.08	21275.47
494.25	20781.62
494.43	21324.62
494.61	21200.57
494.79	21207.59
494.96	21392.50
495.14	21722.51
495.32	21717.83
495.49	21928.48
495.67	21855.92
495.85	21996.35
496.02	22338.07
496.20	22345.09
496.38	22185.94
496.55	22686.81
496.73	22984.06
496.91	22567.45
497.09	22572.13
497.26	22696.17
497.44	22808.52
497.62	22977.04
497.79	23173.64
497.97	23335.14
498.14	23498.98
498.32	23709.63
498.50	23431.10
498.67	23875.80
498.85	24016.24
499.03	24428.17
499.20	23887.51
499.38	24299.44
499.56	24437.53
499.73	24603.71
499.91	24339.23
500.08	24723.08
500.26	24023.26
500.44	24727.76
500.61	24748.82
500.79	24650.52
500.97	24386.04
501.14	25235.66
501.32	24957.13
501.49	25544.61
501.67	25036.71
501.84	25455.67
502.02	25511.84
502.20	25818.45
502.37	25500.14
502.55	25294.17
502.72	25600.78
502.90	26122.72
503.07	26008.03
503.25	25830.15
503.43	26001.01
503.60	26286.56
503.78	26272.51
503.95	26284.22
504.13	26455.08
504.30	26321.66
504.48	26539.33
504.65	26661.04
504.83	26586.15
505.01	27204.05
505.18	26731.26
505.36	27182.98
505.53	27108.08
505.71	27300.01
505.88	27704.92
506.06	27197.02
506.23	27314.05
506.41	27318.73
506.58	27995.15
506.76	27765.78
506.93	27887.48
507.11	27885.14
507.28	27885.14
507.46	27786.84
507.63	27936.63
507.81	28210.48
507.98	28130.90
508.16	28177.71
508.33	28498.36
508.50	28287.71
508.68	28360.27
508.85	28697.31
509.03	28477.30
509.20	29074.13
509.38	29331.59
509.55	29195.84
509.73	29188.82
509.90	29118.60
510.08	29088.18
510.25	29219.25
510.42	29256.70
510.60	29209.89
510.77	29696.72
510.95	29881.62
511.12	29610.12
511.30	29766.93
511.47	30167.16
511.64	30073.54
511.82	30005.67
511.99	29736.51
512.17	29940.13
512.34	30125.04
512.51	30398.88
512.69	30270.15
512.86	30235.04
513.04	30700.81
513.21	30693.79
513.38	30515.90
513.56	30866.98
513.73	30838.90
513.90	30672.72
514.08	30553.35
514.25	31206.36
514.43	31054.23
514.60	31037.84
514.77	31152.53
514.95	31225.09
515.12	30857.62
515.29	31597.23
515.47	31850.01
515.64	31906.18
515.81	31342.11
515.99	31786.82
516.16	31487.23
516.33	31707.24
516.51	31662.77
516.68	31950.65
516.85	31775.11
517.03	31828.95
517.20	32233.86
517.37	31873.42
517.54	32306.41
517.72	32219.81
517.89	31962.36
518.06	32603.66
518.24	31908.52
518.41	32027.89
518.58	32421.10
518.75	32336.84
518.93	32833.04
519.10	32830.69
519.27	32903.25
519.45	32671.54
519.62	32795.59
519.79	33191.14
519.96	33123.26
520.14	33472.00
520.31	32910.27
520.48	33383.06
520.65	33392.42
520.83	33574.98
521.00	33394.76
521.17	33560.94
521.34	33715.42
521.52	34050.11
521.69	34153.10
521.86	34094.58
522.03	34141.39
522.20	33677.97
522.38	34115.65
522.55	34040.75
522.72	34232.68
522.89	34209.27
523.07	34520.56
523.24	33893.30
523.41	34457.37
523.58	34319.28
523.75	34969.94
523.92	34604.82
524.10	34810.79
524.27	34813.13
524.44	34873.98
524.61	35337.41
524.78	35257.83
524.96	35487.20
525.13	35119.74
525.30	35543.38
525.47	35321.02
525.64	35391.24
525.81	35211.02
525.98	35115.06
526.16	35288.26
526.33	35234.42
526.50	35498.91
526.67	35615.93
526.84	35395.92
527.01	35335.07
527.18	35910.84
527.36	35899.14
527.53	35765.73
527.70	36191.70
527.87	35983.40
528.04	36112.13
528.21	35821.90
528.38	36198.73
528.55	36374.27
528.72	36694.92
528.89	36357.88
529.07	36374.27
529.24	36170.64
529.41	36727.69
529.58	36627.04
529.75	36907.91
529.92	36680.88
530.09	36746.41
530.26	36718.32
530.43	36685.56
530.60	36659.81
530.77	36615.34
530.94	36933.65
531.11	36786.20
531.28	37109.19
531.46	37214.52
531.63	37261.33
531.80	37123.24
531.97	37116.22
532.14	37432.19
532.31	37284.73
532.48	37539.85
532.65	37642.84
532.82	37097.49
532.99	37921.36
533.16	37397.08
533.33	38059.45
533.50	37713.05
533.67	38071.15
533.84	37883.91
534.01	37865.19
534.18	37773.91
534.35	38237.33
534.52	38225.63
534.69	37872.21
534.86	38132.01
535.03	37982.21
535.20	38230.31
535.37	38330.95
535.54	38815.44
535.71	38476.07
535.88	38665.65
536.05	38646.93
536.22	38637.56
536.38	38679.69
536.55	38459.68
536.72	38817.78
536.89	38174.14
537.06	38710.12
537.23	38766.29
537.40	38925.45
537.57	38401.17
537.74	38597.77
537.91	39414.62
538.08	39367.81
538.25	38696.08
538.42	39239.08
538.59	39122.05
538.75	38625.86
538.92	39199.29
539.09	39129.08
539.26	39260.15
539.43	39154.82
539.60	39363.13
539.77	39367.81
539.94	39337.38
540.11	39239.08
540.28	38953.54
540.44	39126.74
540.61	39136.10
540.78	39096.31
540.95	39718.89
541.12	39299.94
541.29	39585.48
541.46	39505.90
541.62	39861.66
541.79	40105.08
541.96	39100.99
542.13	39927.20
542.30	40041.88
542.47	40395.31
542.63	39838.26
542.80	39988.05
542.97	40355.52
543.14	40809.58
543.31	40582.55
543.48	41017.89
543.64	41045.97
543.81	41067.04
543.98	40444.46
544.15	40177.64
544.32	41081.08
544.48	40891.50
544.65	40591.91
544.82	40556.80
544.99	40666.81
545.16	40802.56
545.32	40643.40
545.49	41111.51
545.66	41109.17
545.83	40973.42
546.00	41794.95
546.16	41102.15
546.33	41003.85
546.50	40664.47
546.67	41008.53
546.83	40655.11
547.00	41141.94
547.17	41191.09
547.34	41216.83
547.50	40858.73
547.67	41375.99
547.84	41263.64
548.00	41467.27
548.17	42103.90
548.34	41263.64
548.51	41865.16
548.67	42031.34
548.84	41563.23
549.01	41696.64
549.18	41556.21
549.34	41890.91
549.51	41792.61
549.68	41834.74
549.84	42351.99
550.01	42150.71
550.18	42026.66
550.34	41961.12
550.51	41926.02
550.68	41619.41
550.84	41673.24
551.01	42092.19
551.18	42188.16
551.34	42043.04
551.51	42246.67
551.68	41935.38
551.84	42373.06
552.01	42000.91
552.18	42080.49
552.34	41996.23
552.51	42539.24
552.68	42492.43
552.84	42773.29
553.01	42431.57
553.18	42480.72
553.34	42651.58
553.51	41895.59
553.67	42251.35
553.84	43091.60
554.01	42700.73
554.17	42934.79
554.34	43042.45
554.51	42522.85
554.67	43056.50
554.84	43140.75
555.00	42707.76
555.17	42553.28
555.33	42895.00
555.50	42773.29
555.67	42763.93
555.83	42824.78
556.00	42976.92
556.16	43269.48
556.33	43332.68
556.50	43021.39
556.66	43351.40
556.83	42733.50
556.99	43227.35
557.16	43225.01
557.32	42995.64
557.49	43105.65
557.65	42815.42
557.82	43199.27
557.98	43044.79
558.15	43040.11
558.32	43377.15
558.48	43386.51
558.65	43365.45
558.81	42923.08
558.98	43328.00
559.14	42845.85
559.31	43442.68
559.47	43842.92
559.64	43257.78
559.80	43592.48
559.97	43562.05
560.13	43189.91
560.30	43484.81
560.46	43730.57
560.63	43449.70
560.79	43571.41
560.96	43863.98
561.12	43578.43
561.29	43728.23
561.45	43943.56
561.61	44041.86
561.78	43264.80
561.94	43501.20
562.11	43447.36
562.27	43800.79
562.44	43416.94
562.60	43592.48
562.77	43910.79
562.93	44205.70
563.10	43728.23
563.26	43447.36
563.42	44280.60
563.59	43700.14
563.75	44006.75
563.92	44060.58
564.08	44065.27
564.24	43964.62
564.41	44051.22
564.57	43756.32
564.74	43791.42
564.90	44327.41
565.07	44217.40
565.23	43576.09
565.39	44076.97
565.56	44414.01
565.72	43849.94
565.88	43756.32
566.05	43599.50
566.21	43625.25
566.38	44261.87
566.54	43821.85
566.70	44411.67
566.87	44414.01
567.03	43938.88
567.19	44554.44
567.36	44252.51
567.52	44025.48
567.68	44706.57
567.85	44189.31
568.01	43849.94
568.17	44236.12
568.34	44439.75
568.50	44107.40
568.66	43718.87
568.83	44460.82
568.99	43966.96
569.15	44278.25
569.32	43861.64
569.48	44072.29
569.64	44538.05
569.81	44481.88
569.97	44315.70
570.13	44217.40
570.30	43924.83
570.46	43948.24
570.62	44201.02
570.78	43995.05
570.95	44009.09
571.11	44095.69
571.27	44563.80
571.43	44893.82
571.60	44460.82
571.76	43688.44
571.92	44165.91
572.09	44198.68
572.25	44432.73
572.41	44196.34
572.57	44615.29
572.74	45020.20
572.90	44411.67
573.06	44734.66
573.22	44301.66
573.38	44271.23
573.55	44154.21
573.71	44811.90
573.87	44729.98
574.03	44395.28
574.20	44165.91
574.36	44577.84
574.52	44467.84
574.68	44619.97
574.84	44313.36
575.01	44502.95
575.17	44364.85
575.33	44327.41
575.49	44409.32
575.65	44596.57
575.82	44964.03
575.98	44837.64
576.14	44910.20
576.30	44610.61
576.46	44142.50
576.62	44156.55
576.79	44006.75
576.95	44292.30
577.11	44392.94
577.27	44339.11
577.43	44783.81
577.59	44306.34
577.75	44240.81
577.92	44058.24
578.08	44505.29
578.24	44383.58
578.40	44163.57
578.56	44514.65
578.72	44821.26
578.88	44406.98
579.04	44748.70
579.21	44680.83
579.37	44556.78
579.53	44332.09
579.69	44516.99
579.85	44713.59
580.01	44573.16
580.17	44779.13
580.33	45144.25
580.49	44870.41
580.65	44987.44
580.82	44514.65
580.98	44678.49
581.14	44512.31
581.30	45097.44
581.46	44641.04
581.62	44811.90
581.78	44535.71
581.94	44982.76
582.10	44549.76
582.26	44863.39
582.42	44493.58
582.58	44594.23
582.74	44744.02
582.90	44999.14
583.06	44498.26
583.22	45001.48
583.38	44856.37
583.54	44364.85
583.70	44493.58
583.86	44748.70
584.02	44566.14
584.18	44528.69
584.34	44938.29
584.50	45287.03
584.66	44612.95
584.82	44329.75
584.98	45181.70
585.14	44842.32
585.30	44598.91
585.46	44509.97
585.62	44397.62
585.78	44809.56
585.94	44229.10
586.10	44608.27
586.26	44629.34
586.42	44933.60
586.58	44690.19
586.74	44865.73
586.90	44676.15
587.06	44320.38
587.22	44790.83
587.38	44739.34
587.54	45174.68
587.70	44933.60
587.86	45008.50
588.02	44680.83
588.18	45074.04
588.34	44725.30
588.49	44598.91
588.65	44451.45
588.81	44692.53
588.97	44322.72
589.13	44301.66
589.29	44903.18
589.45	44758.06
589.61	44832.96
589.77	44713.59
589.93	44664.44
590.08	45284.68
590.24	45312.77
590.40	45146.59
590.56	45420.44
590.72	45116.17
590.88	44603.59
591.04	44711.25
591.20	45432.14
591.35	45146.59
591.51	45036.59
591.67	45614.70
591.83	45347.88
591.99	44573.16
592.15	44788.49
592.31	45343.20
592.46	44903.18
592.62	44734.66
592.78	44711.25
592.94	45427.46
593.10	44863.39
593.26	44837.64
593.41	45067.02
593.57	45017.86
593.73	45109.14
593.89	44854.03
594.05	44706.57
594.20	44701.89
594.36	45116.17
594.52	44945.31
594.68	45216.81
594.84	44914.88
594.99	45354.90
595.15	45130.21
595.31	45380.65
595.47	45399.37
595.62	45097.44
595.78	45162.98
595.94	45170.00
596.10	45439.16
596.25	45254.26
596.41	45485.97
596.57	45497.67
596.73	45085.74
596.88	44737.00
597.04	45287.03
597.20	45193.40
597.36	45474.27
597.51	45483.63
597.67	45404.05
597.83	45411.07
597.99	45624.06
598.14	45212.13
598.30	45186.38
598.46	44886.79
598.61	45198.09
598.77	44900.84
598.93	45385.33
599.09	44748.70
599.24	45443.84
599.40	45523.42
599.56	45504.70
599.71	45212.13
599.87	45202.77
600.03	45256.60
600.18	45708.32
600.34	45027.23
600.50	45120.85
600.65	44734.66
600.81	45308.09
600.97	45504.70
601.12	45591.30
601.28	45258.94
601.44	45071.70
601.59	45067.02
601.75	45052.97
601.91	44926.58
602.06	45177.02
602.22	45123.19
602.37	45109.14
602.53	45102.12
602.69	45179.36
602.84	45102.12
603.00	45160.64
603.16	44952.33
603.31	44917.22
603.47	45111.49
603.62	44945.31
603.78	45064.67
603.94	45118.51
604.09	45394.69
604.25	45151.27
604.40	45256.60
604.56	45125.53
604.71	44926.58
604.87	45109.14
605.03	44992.12
605.18	44814.24
605.34	44999.14
605.49	44680.83
605.65	45137.23
605.80	45024.89
605.96	45392.35
606.12	45048.29
606.27	45380.65
606.43	45036.59
606.58	45052.97
606.74	44891.48
606.89	44825.94
607.05	44945.31
607.20	45247.24
607.36	45092.76
607.51	45254.26
607.67	45244.90
607.82	45282.34
607.98	44858.71
608.13	45071.70
608.29	44807.22
608.44	44636.36
608.60	44250.17
608.75	44830.62
608.91	44561.46
609.06	44954.67
609.22	45265.96
609.37	44547.42
609.53	45034.25
609.68	44591.89
609.84	44584.86
609.99	44619.97
610.15	44226.76
610.30	44636.36
610.46	44505.29
610.61	44573.16
610.76	44472.52
610.92	44835.30
611.07	44584.86
611.23	44662.10
611.38	44507.63
611.54	44631.68
611.69	44280.60
611.84	44322.72
612.00	44559.12
612.15	44280.60
612.31	44460.82
612.46	44198.68
612.62	44217.40
612.77	44233.78
612.92	44655.08
613.08	44318.04
613.23	44645.72
613.39	44360.17
613.54	44212.72
613.69	44140.16
613.85	44385.92
614.00	44797.85
614.15	44535.71
614.31	44399.96
614.46	44624.65
614.62	44055.90
614.77	43885.04
614.92	44006.75
615.08	43821.85
615.23	44194.00
615.38	44107.40
615.54	43971.64
615.69	43342.04
615.84	43658.01
616.00	44030.16
616.15	43833.55
616.30	44039.52
616.46	43550.35
616.61	43896.75
616.76	43894.41
616.92	43721.21
617.07	43674.40
617.22	43571.41
617.37	43723.55
617.53	44147.18
617.68	43775.04
617.83	44081.65
617.99	43964.62
618.14	43590.14
618.29	43730.57
618.45	43107.99
618.60	43622.90
618.75	43763.34
618.90	44208.04
619.06	43901.43
619.21	43281.19
619.36	43875.68
619.51	43641.63
619.67	43559.71
619.82	44259.53
619.97	43838.23
620.12	43138.41
620.28	43344.38
620.43	43021.39
620.58	43428.64
620.73	43292.89
620.89	43215.65
621.04	43430.98
621.19	43318.64
621.34	43262.46
621.49	43007.34
621.65	42913.72
621.80	42890.32
621.95	42955.85
622.10	43089.26
622.25	42866.91
622.41	42995.64
622.56	42857.55
622.71	43428.64
622.86	43201.61
623.01	42920.74
623.16	43239.06
623.32	43353.74
623.47	43051.81
623.62	43253.10
623.77	42714.78
623.92	43138.41
624.07	42824.78
624.23	42834.14
624.38	42576.69
624.53	42518.17
624.68	42487.74
624.83	42763.93
624.98	42878.61
625.13	42471.36
625.29	42740.52
625.44	42665.63
625.59	42443.27
625.74	42469.02
625.89	42265.39
626.04	42003.25
626.19	41970.49
626.34	42256.03
626.49	42047.72
626.65	42588.39
626.80	42609.45
626.95	42108.58
627.10	42038.36
627.25	41617.07
627.40	41703.67
627.55	41530.47
627.70	41368.97
627.85	42007.94
628.00	42136.66
628.15	42146.03
628.30	41986.87
628.45	42284.12
628.60	42176.45
628.76	42478.38
628.91	42110.92
629.06	41883.89
629.21	41914.31
629.36	41708.35
629.51	41670.90
629.66	41818.35
629.81	41855.80
629.96	41640.47
630.11	41572.60
630.26	41876.86
630.41	41794.95
630.56	41237.90
630.71	41755.16
630.86	41528.13
631.01	41312.80
631.16	41546.85
631.31	41682.60
631.46	40914.90
631.61	41261.30
631.76	41563.23
631.91	41766.86
632.06	41525.78
632.21	41378.33
632.36	41729.41
632.51	41373.65
632.66	41345.56
632.81	40985.12
632.96	40896.18
633.10	40732.34
633.25	41003.85
633.40	40774.47
633.55	41074.06
633.70	40982.78
633.85	41031.93
634.00	41443.87
634.15	41095.13
634.30	41256.62
634.45	40842.35
634.60	41099.81
634.75	40797.88
634.90	40741.71
635.05	41102.15
635.19	41076.40
635.34	40882.14
635.49	41034.27
635.64	40502.97
635.79	40486.59
635.94	40474.88
636.09	40381.26
636.24	40629.36
636.39	40830.65
636.53	40210.40
636.68	40383.60
636.83	40498.29
636.98	40500.63
637.13	40055.93
637.28	40418.71
637.43	40620.00
637.57	40807.24
637.72	40823.62
637.87	40694.89
638.02	40472.54
638.17	40425.73
638.32	40243.17
638.46	40341.47
638.61	40137.85
638.76	39828.90
638.91	39995.07
639.06	40289.98
639.20	40507.65
639.35	40266.58
639.50	40079.33
639.65	40095.72
639.80	40432.75
639.94	39782.09
640.09	39943.58
640.24	39908.47
640.39	39943.58
640.54	39831.24
640.68	39878.05
640.83	39983.37
640.98	40149.55
641.13	39660.38
641.27	40009.12
641.42	39398.24
641.57	40142.53
641.72	39875.71
641.86	39309.30
642.01	39566.76
642.16	39438.03
642.31	38909.07
642.45	39438.03
642.60	39442.71
642.75	39164.18
642.90	39557.39
643.04	39356.11
643.19	39100.99
643.34	39508.24
643.48	39398.24
643.63	39421.64
643.78	39454.41
643.93	39002.69
644.07	38778.00
644.22	39159.50
644.37	39316.32
644.51	39079.92
644.66	39386.54
644.81	39274.19
644.95	39590.16
645.10	39447.39
645.25	39449.73
645.39	39225.04
645.54	39412.28
645.69	39344.41
645.83	38895.02
645.98	39267.17
646.13	38873.96
646.27	38990.98
646.42	39070.56
646.57	39007.37
646.71	39042.48
646.86	39321.00
647.00	39351.43
647.15	39112.69
647.30	39037.80
647.44	38913.75
647.59	38827.15
647.74	38796.72
647.88	38314.57
648.03	38436.28
648.17	38597.77
648.32	38295.85
648.47	38712.46
648.61	38567.35
648.76	38871.62
648.90	38696.08
649.05	38667.99
649.20	38508.83
649.34	38742.89
649.49	38206.90
649.63	38017.32
649.78	38328.61
649.92	38216.27
650.07	38675.01
650.21	38274.78
650.36	38447.98
650.51	38110.94
650.65	38792.04
650.80	38550.96
650.94	38377.76
651.09	38246.69
651.23	38775.66
651.38	38253.72
651.52	38307.55
651.67	37869.87
651.81	38012.64
651.96	38003.28
652.10	37830.08
652.25	37741.14
652.39	37551.56
652.54	37930.72
652.68	37947.11
652.83	37984.55
652.97	38455.00
653.12	37731.78
653.26	37837.10
653.41	38277.12
653.55	37415.80
653.70	37481.34
653.84	37989.24
653.99	37736.46
654.13	37605.39
654.27	37848.80
654.42	37273.03
654.56	37556.24
654.71	37689.65
654.85	37448.57
655.00	37427.51
655.14	37352.61
655.29	37118.56
655.43	36947.70
655.57	37038.98
655.72	36690.24
655.86	37062.38
656.01	36697.26
656.15	36795.56
656.30	36863.44
656.44	36875.14
656.58	37317.50
656.73	36825.99
656.87	36807.26
657.01	36800.24
657.16	37031.96
657.30	36514.70
657.45	36800.24
657.59	36781.52
657.73	36566.19
657.88	36697.26
658.02	36809.61
658.16	36624.70
658.31	37055.36
658.45	37097.49
658.60	36648.11
658.74	36926.63
658.88	36690.24
659.03	36453.84
659.17	36528.74
659.31	36432.78
659.46	36378.95
659.60	36521.72
659.74	36446.82
659.89	36002.12
660.03	36070.00
660.17	36084.04
660.32	36301.71
660.46	36547.47
660.60	36371.92
660.74	36596.62
660.89	35964.67
661.03	36119.15
661.17	35761.05
661.32	35721.26
661.46	35878.07
661.60	35875.73
661.74	35627.63
661.89	35857.01
662.03	35849.99
662.17	35512.95
662.31	35728.28
662.46	35725.94
662.60	35950.63
662.74	35601.89
662.88	35768.07
663.03	35079.95
663.17	35433.37
663.31	35152.51
663.45	35433.37
663.60	34955.90
663.74	34611.84
663.88	34885.68
664.02	34852.92
664.17	35086.97
664.31	34721.85
664.45	34885.68
664.59	35089.31
664.73	34668.02
664.88	34859.94
665.02	34763.98
665.16	34925.47
665.30	34656.31
665.44	34478.43
665.59	34174.16
665.73	34185.86
665.87	34192.89
666.01	34412.90
666.15	34225.65
666.29	34305.23
666.44	34445.66
666.58	34382.47
666.72	34279.49
666.86	34382.47
667.00	34370.77
667.14	33797.34
667.28	33989.26
667.43	33738.82
667.57	33497.75
667.71	33816.06
667.85	33647.54
667.99	33937.77
668.13	34068.84
668.27	33399.44
668.41	33750.52
668.56	33350.29
668.70	33523.49
668.84	33088.15
668.98	33277.74
669.12	33324.55
669.26	33167.73
669.40	33064.75
669.54	32900.91
669.68	32926.66
669.82	32898.57
669.96	32987.51
670.10	32786.22
670.25	33109.22
670.39	32613.02
670.53	32893.89
670.67	32400.04
670.81	32629.41
670.95	32945.38
671.09	32657.49
671.23	32449.19
671.37	32540.47
671.51	32315.78
671.65	32435.14
671.79	31906.18
671.93	32219.81
672.07	31983.42
672.21	32346.20
672.35	32002.14
672.49	32102.79
672.63	32163.64
672.77	31943.63
672.91	31873.42
673.05	31723.62
673.19	31194.66
673.33	31204.02
673.47	31721.28
673.61	31185.30
673.75	31438.08
673.89	30962.95
674.03	31140.83
674.17	31023.80
674.31	31117.42
674.45	30972.31
674.59	30951.24
674.73	31192.32
674.87	30979.33
675.01	31283.60
675.15	31173.60
675.29	30864.64
675.43	30590.80
675.56	30991.03
675.70	30246.74
675.84	30066.52
675.98	29024.98
676.12	29912.05
676.26	30438.67
676.40	29914.39
676.54	29661.61
676.68	29542.24
676.82	29263.72
676.96	29364.36
677.10	29294.14
677.23	29144.35
677.37	29301.17
677.51	29289.46
677.65	29027.32
677.79	29193.50
677.93	29062.43
678.07	29226.27
678.21	28882.21
678.34	28538.15
678.48	28657.52
678.62	28914.98
678.76	28245.58
678.90	28400.06
679.04	27871.10
679.18	28563.90
679.31	28301.76
679.45	28105.15
679.59	27489.59
679.73	28191.75
679.87	27882.80
680.00	27765.78
680.14	27697.90
680.28	27417.04
680.42	27456.82
680.56	27564.49
680.70	27126.81
680.83	27571.51
680.97	26728.92
681.11	26862.33
681.25	26852.97
681.39	26625.93
681.52	27215.75
681.66	27030.85
681.80	26806.16
681.94	26955.95
682.07	26768.71
682.21	26223.36
682.35	26396.56
682.49	26794.45
682.62	26103.99
682.76	26143.78
682.90	26082.93
683.04	25818.45
683.17	25874.62
683.31	25935.48
683.45	25858.24
683.59	25422.90
683.72	25673.34
683.86	25184.16
684.00	25207.57
684.13	25680.36
684.27	25338.64
684.41	25298.85
684.55	24823.72
684.68	24669.25
684.82	24886.92
684.96	25039.05
685.09	24812.02
685.23	24676.27
685.37	24442.21
685.50	24470.30
685.64	24353.27
685.78	24627.12
685.91	24568.60
686.05	24325.19
686.19	23728.35
686.32	23946.02
686.46	23580.90
686.60	23168.96
686.73	23711.97
686.87	23566.85
687.01	23477.91
687.14	23344.50
687.28	23166.62
687.42	23192.37
687.55	22979.38
687.69	23075.34
687.82	22948.95
687.96	22998.10
688.10	22829.59
688.23	22740.64
688.37	22209.34
688.50	22635.32
688.64	22286.58
688.78	22391.91
688.91	22059.55
689.05	22169.55
689.18	21930.82
689.32	21631.23
689.46	21916.78
689.59	21921.46
689.73	21965.93
689.86	21820.81
690.00	21443.99
690.13	21921.46
690.27	21359.73
690.41	21366.75
690.54	21081.21
690.68	21076.52
690.81	21216.96
690.95	20713.74
691.08	21069.50
691.22	21146.74
691.35	20723.10
691.49	21238.02
691.62	20912.69
691.76	20863.54
691.89	20709.06
692.03	20603.74
692.16	20446.92
692.30	20601.40
692.43	20009.24
692.57	19857.10
692.70	20063.07
692.84	20255.00
692.97	19917.96
693.11	19506.02
693.24	19854.76
693.38	19740.08
693.51	19435.81
693.65	19494.32
693.78	19370.27
693.92	19503.68
694.05	19379.64
694.19	19033.24
694.32	19318.78
694.45	19056.64
694.59	19300.06
694.72	18768.76
694.86	18974.72
694.99	18544.06
695.13	18794.50
695.26	18436.40
695.39	18408.31
695.53	18501.93
695.66	18239.79
695.80	18085.32
695.93	18307.67
696.07	18253.84
696.20	18246.82
696.33	18324.05
696.47	17867.65
696.60	18164.90
696.73	17860.63
696.87	17703.81
697.00	17844.24
697.14	17816.16
697.27	17577.42
697.40	17429.97
697.54	17231.02
697.67	17406.56
697.80	17294.22
697.94	17231.02
698.07	16964.20
698.21	16809.73
698.34	16954.84
698.47	16517.16
698.61	16652.91
698.74	16634.19
698.87	16769.94
699.01	16673.98
699.14	16383.75
699.27	16240.98
699.40	16226.93
699.54	16198.85
699.67	16348.64
699.80	16226.93
699.94	16187.14
700.07	16353.32
700.20	16093.52
700.34	15707.34
700.47	15634.78
700.60	15768.19
700.73	15815.00
700.87	15445.20
701.00	15316.47
701.13	15484.98
701.26	15529.45
701.40	15501.37
701.53	15438.17
701.66	15089.43
701.79	15185.40
701.93	14993.47
702.06	14979.43
702.19	15089.43
702.32	14888.15
702.46	14590.90
702.59	14719.63
702.72	14787.50
702.85	14712.61
702.99	14733.67
703.12	14555.79
703.25	14602.60
703.38	14469.19
703.51	14368.55
703.65	14501.96
703.78	14108.75
703.91	13930.87
704.04	13973.00
704.17	14029.17
704.31	13909.80
704.44	13689.79
704.57	13523.62
704.70	13465.10
704.83	13717.88
704.96	13748.31
705.10	13825.54
705.23	13811.50
>>>>>End Processed Spectral Data<<<<<
