SpectraSuite Data File
++++++++++++++++++++++++++++++++++++
Date: Fri Oct 25 10:48:24 EDT 2013
User: price-jones
Dark Spectrum Present: No
Reference Spectrum Present: No
Number of Sampled Component Spectra: 1
Spectrometers: USB2+H05261
Integration Time (usec): 100000 (USB2+H05261)
Spectra Averaged: 1 (USB2+H05261)
Boxcar Smoothing: 0 (USB2+H05261)
Correct for Electrical Dark: No (USB2+H05261)
Strobe/Lamp Enabled: No (USB2+H05261)
Correct for Detector Non-linearity: No (USB2+H05261)
Correct for Stray Light: No (USB2+H05261)
Number of Pixels in Processed Spectrum: 2048
>>>>>Begin Processed Spectral Data<<<<<
365.73	161.50
365.92	161.50
366.12	161.50
366.32	98.30
366.52	9.36
366.72	32.77
366.91	11.70
367.11	18.72
367.31	77.24
367.51	7.02
367.70	23.41
367.90	37.45
368.10	11.70
368.30	9.36
368.49	56.17
368.69	49.15
368.89	81.92
369.09	21.06
369.28	88.94
369.48	84.26
369.68	88.94
369.87	100.64
370.07	65.54
370.27	177.88
370.47	311.29
370.66	341.72
370.86	433.00
371.06	465.77
371.25	477.47
371.45	514.92
371.65	458.74
371.84	505.56
372.04	418.96
372.24	505.56
372.44	447.04
372.63	512.58
372.83	587.47
373.03	519.60
373.22	575.77
373.42	463.43
373.62	503.22
373.81	479.81
374.01	552.37
374.21	543.00
374.40	571.09
374.60	615.56
374.79	575.77
374.99	550.03
375.19	615.56
375.38	571.09
375.58	617.90
375.78	629.60
375.97	676.41
376.17	613.22
376.37	634.29
376.56	587.47
376.76	573.43
376.95	641.31
377.15	603.86
377.35	720.88
377.54	622.58
377.74	664.71
377.93	655.35
378.13	592.16
378.33	725.57
378.52	737.27
378.72	711.52
378.91	690.46
379.11	660.03
379.31	660.03
379.50	688.12
379.70	683.44
379.89	695.14
380.09	716.20
380.28	685.78
380.48	734.93
380.68	706.84
380.87	748.97
381.07	706.84
381.26	695.14
381.46	746.63
381.65	734.93
381.85	727.91
382.04	725.57
382.24	718.54
382.43	751.31
382.63	709.18
382.83	664.71
383.02	746.63
383.22	695.14
383.41	723.23
383.61	765.36
383.80	837.91
384.00	798.12
384.19	720.88
384.39	734.93
384.58	847.27
384.78	732.59
384.97	821.53
385.17	821.53
385.36	805.14
385.56	720.88
385.75	777.06
385.95	788.76
386.14	866.00
386.34	889.40
386.53	809.83
386.72	798.12
386.92	889.40
387.11	884.72
387.31	971.32
387.50	894.08
387.70	866.00
387.89	844.93
388.09	905.79
388.28	908.13
388.48	830.89
388.67	919.83
388.86	980.68
389.06	922.17
389.25	854.30
389.45	875.36
389.64	961.96
389.84	1048.56
390.03	1041.54
390.22	987.71
390.42	1043.88
390.61	1060.26
390.81	985.37
391.00	1032.18
391.19	1046.22
391.39	1135.16
391.58	1076.65
391.78	1050.90
391.97	1064.94
392.16	997.07
392.36	1025.15
392.55	976.00
392.75	1034.52
392.94	992.39
393.13	1015.79
393.33	1032.18
393.52	1029.84
393.71	1055.58
393.91	1088.35
394.10	1160.91
394.29	1057.92
394.49	1156.22
394.68	1184.31
394.88	1158.57
395.07	1249.85
395.26	1245.16
395.46	1219.42
395.65	1184.31
395.84	1158.57
396.04	1245.16
396.23	1259.21
396.42	1097.71
396.62	1198.35
396.81	1214.74
397.00	1242.82
397.19	1228.78
397.39	1184.31
397.58	1371.55
397.77	1263.89
397.97	1366.87
398.16	1366.87
398.35	1401.98
398.55	1490.92
398.74	1444.11
398.93	1420.71
399.12	1376.24
399.32	1437.09
399.51	1406.66
399.70	1582.20
399.90	1476.88
400.09	1441.77
400.28	1500.28
400.47	1516.67
400.67	1626.67
400.86	1640.72
401.05	1598.59
401.24	1558.80
401.44	1596.25
401.63	1638.38
401.82	1624.33
402.01	1650.08
402.21	1493.26
402.40	1699.23
402.59	1629.01
402.78	1769.44
402.97	1762.42
403.17	1795.19
403.36	1710.93
403.55	1760.08
403.74	1748.38
403.93	1708.59
404.13	1743.70
404.32	1818.60
404.51	1755.40
404.70	1884.13
404.89	1834.98
405.09	1891.15
405.28	1881.79
405.47	1865.41
405.66	1973.07
405.85	1994.14
406.05	1982.43
406.24	2047.97
406.43	2001.16
406.62	2071.37
406.81	2052.65
407.00	2040.95
407.20	1977.75
407.39	1970.73
407.58	2003.50
407.77	2036.27
407.96	2209.47
408.15	2207.13
408.34	2223.51
408.54	2202.44
408.73	2153.29
408.92	2237.55
409.11	2319.47
409.30	2265.64
409.49	2141.59
409.68	2120.53
409.87	2239.89
410.07	2256.28
410.26	2272.66
410.45	2235.21
410.64	2424.80
410.83	2487.99
411.02	2429.48
411.21	2647.15
411.40	2413.09
411.59	2476.29
411.78	2518.42
411.98	2427.14
412.17	2574.59
412.36	2499.69
412.55	2616.72
412.74	2593.31
412.93	2672.89
413.12	2661.19
413.31	2906.95
413.50	2686.94
413.69	2843.75
413.88	2829.71
414.07	2743.11
414.26	2944.39
414.45	2768.85
414.64	2906.95
414.83	3084.83
415.02	2918.65
415.22	2846.09
415.41	3005.25
415.60	3089.51
415.79	2998.23
415.98	3145.68
416.17	3169.09
416.36	3129.30
416.55	3141.00
416.74	3101.21
416.93	3220.58
417.12	3178.45
417.31	3194.83
417.50	3166.74
417.69	3353.99
417.88	3328.24
418.07	3290.79
418.26	3433.57
418.45	3368.03
418.64	3517.83
418.83	3440.59
419.02	3471.01
419.21	3468.67
419.39	3361.01
419.58	3501.44
419.77	3309.52
419.96	3428.88
420.15	3541.23
420.34	3681.66
420.53	3557.61
420.72	3691.02
420.91	3672.30
421.10	3679.32
421.29	3686.34
421.48	3768.26
421.67	3864.22
421.86	3698.05
422.05	3709.75
422.24	3688.68
422.43	3597.40
422.61	3695.71
422.80	3815.07
422.99	3740.18
423.18	3801.03
423.37	3854.86
423.56	3889.97
423.75	3955.51
423.94	3712.09
424.13	3611.45
424.32	3772.94
424.50	3770.60
424.69	3798.69
424.88	3918.06
425.07	3838.48
425.26	3641.87
425.45	3915.72
425.64	3929.76
425.83	3714.43
426.01	4067.85
426.20	3852.52
426.39	3885.29
426.58	3812.73
426.77	3779.97
426.96	3836.14
427.15	3819.75
427.33	3957.85
427.52	3906.35
427.71	3988.27
427.90	4063.17
428.09	4102.96
428.28	4021.04
428.46	3976.57
428.65	3983.59
428.84	4166.15
429.03	4032.74
429.22	4049.13
429.40	4189.56
429.59	3999.98
429.78	3936.78
429.97	3871.25
430.16	4046.79
430.34	4117.00
430.53	4159.13
430.72	4271.48
430.91	4081.89
431.10	4308.93
431.28	4404.89
431.47	4585.11
431.66	4542.98
431.85	4409.57
432.03	4589.79
432.22	4550.00
432.41	4540.64
432.60	4528.94
432.79	4561.70
432.97	4517.23
433.16	4629.58
433.35	4538.30
433.54	4568.73
433.72	4507.87
433.91	4554.68
434.10	4704.48
434.28	4657.67
434.47	4657.67
434.66	4863.63
434.85	4634.26
435.03	4868.31
435.22	4734.90
435.41	4975.98
435.59	5004.07
435.78	4947.89
435.97	4798.10
436.16	4959.60
436.34	5013.43
436.53	5128.11
436.72	5170.24
436.90	4910.44
437.09	5100.03
437.28	4880.02
437.46	4954.91
437.65	5097.69
437.84	5205.35
438.02	4861.29
438.21	5036.83
438.40	4966.62
438.58	5137.48
438.77	5203.01
438.96	5289.61
439.14	5518.98
439.33	5322.38
439.52	5488.56
439.70	5455.79
439.89	5589.20
440.08	5603.24
440.26	5631.33
440.45	5652.39
440.63	5713.25
440.82	5731.97
441.01	5701.54
441.19	5944.96
441.38	5870.06
441.57	6057.31
441.75	6076.03
441.94	6036.24
442.12	6129.86
442.31	6235.19
442.50	6050.28
442.68	6134.54
442.87	6099.44
443.05	6092.41
443.24	6246.89
443.43	6164.97
443.61	6305.40
443.80	6455.20
443.98	6190.72
444.17	6204.76
444.35	6230.51
444.54	6443.49
444.73	6434.13
444.91	6560.52
445.10	6307.74
445.28	6218.80
445.47	6249.23
445.65	6396.68
445.84	6331.15
446.02	6410.73
446.21	6303.06
446.39	6387.32
446.58	6492.65
446.77	6516.05
446.95	6408.39
447.14	6609.67
447.32	6626.06
447.51	6656.48
447.69	6530.09
447.88	6530.09
448.06	6530.09
448.25	6619.04
448.43	6740.74
448.62	6466.90
448.80	6513.71
448.99	6562.86
449.17	6719.68
449.36	6775.85
449.54	6775.85
449.73	6822.66
449.91	6855.43
450.10	6750.10
450.28	7070.76
450.46	6927.99
450.65	6909.26
450.83	6995.86
451.02	6883.52
451.20	6991.18
451.39	7094.16
451.57	7089.48
451.76	6995.86
451.94	6986.50
452.13	7056.72
452.31	7075.44
452.49	6888.20
452.68	7075.44
452.86	7042.67
453.05	7077.78
453.23	7229.91
453.42	7253.32
453.60	7075.44
453.78	7250.98
453.97	7208.85
454.15	7063.74
454.34	7164.38
454.52	7370.35
454.70	7375.03
454.89	7293.11
455.07	7302.47
455.26	7330.56
455.44	7501.42
455.62	7358.64
455.81	7674.62
455.99	7522.48
456.17	7681.64
456.36	7674.62
456.54	7604.40
456.73	7861.86
456.91	8049.10
457.09	7693.34
457.28	7901.65
457.46	7833.77
457.64	7843.14
457.83	8046.76
458.01	7648.87
458.19	8142.72
458.38	7889.95
458.56	8039.74
458.74	7941.44
458.93	7964.84
459.11	7920.37
459.29	8149.75
459.48	8224.64
459.66	8058.46
459.84	8266.77
460.03	8107.62
460.21	8269.11
460.39	8273.79
460.57	7988.25
460.76	8404.86
460.94	8423.59
461.12	8325.29
461.31	8423.59
461.49	8379.12
461.67	8355.71
461.85	8610.83
462.04	8367.42
462.22	8994.68
462.40	8643.60
462.59	8622.53
462.77	8692.75
462.95	8587.43
463.13	8667.00
463.32	8580.40
463.50	8758.28
463.68	8868.29
463.86	8791.05
464.05	8638.92
464.23	8678.71
464.41	8879.99
464.59	8769.99
464.78	8681.05
464.96	8971.27
465.14	8795.73
465.32	8854.25
465.50	8835.52
465.69	8901.06
465.87	9022.77
466.05	8769.99
466.23	8936.17
466.41	9181.92
466.60	9212.35
466.78	8748.92
466.96	8968.93
467.14	9069.58
467.32	9118.73
467.51	9280.22
467.69	8938.51
467.87	9179.58
468.05	9390.23
468.23	9233.41
468.41	9121.07
468.60	9486.19
468.78	9439.38
468.96	9444.06
469.14	9511.94
469.32	9448.74
469.50	9371.50
469.69	9394.91
469.87	9518.96
470.05	9551.73
470.23	9535.34
470.41	9268.52
470.59	9621.94
470.77	9750.67
470.95	9738.97
471.14	9877.06
471.32	9790.46
471.50	10024.51
471.68	10188.35
471.86	10080.69
472.04	10239.84
472.22	10181.33
472.40	10064.30
472.58	9879.40
472.77	10106.43
472.95	10366.23
473.13	10909.24
473.31	10438.79
473.49	10263.25
473.67	10305.38
473.85	10429.43
474.03	10534.75
474.21	10597.95
474.39	10794.55
474.57	10958.39
474.75	10771.15
474.93	11047.33
475.12	10864.77
475.30	11014.56
475.48	10956.05
475.66	11075.42
475.84	11073.07
476.02	11293.08
476.20	11084.78
476.38	11138.61
476.56	11545.86
476.74	11353.94
476.92	11669.91
477.10	11641.82
477.28	11772.89
477.46	11999.93
477.64	12051.42
477.82	12011.63
478.00	12219.94
478.18	12123.98
478.36	12187.17
478.54	12243.34
478.72	12236.32
478.90	12489.10
479.08	12685.70
479.26	12961.89
479.44	13151.47
479.62	12952.52
479.80	12751.24
479.98	13198.28
480.16	13352.76
480.34	13202.96
480.52	13252.11
480.70	13397.23
480.88	13406.59
481.06	13743.63
481.24	13706.18
481.41	13872.36
481.59	13994.06
481.77	13963.64
481.95	14068.96
482.13	14300.67
482.31	14246.84
482.49	14574.52
482.67	14686.86
482.85	14508.98
483.03	14759.42
483.21	14913.89
483.39	14923.26
483.57	14939.64
483.74	15403.07
483.92	15267.31
484.10	15328.17
484.28	15400.72
484.46	15920.32
484.64	15957.77
484.82	15892.24
485.00	15681.59
485.18	15770.53
485.35	16093.52
485.53	15939.05
485.71	15955.43
485.89	16315.87
486.07	16175.44
486.25	16421.20
486.43	16819.09
486.61	16823.77
486.78	16617.80
486.96	17114.00
487.14	17472.10
487.32	17490.82
487.50	17425.29
487.68	17886.37
487.85	17963.61
488.03	18108.72
488.21	18038.51
488.39	18171.92
488.57	18438.74
488.75	18373.21
488.92	18841.31
489.10	18827.27
489.28	18845.99
489.46	19307.08
489.64	19157.28
489.81	19690.93
489.99	19571.56
490.17	19662.84
490.35	19908.60
490.53	19988.18
490.70	20161.37
490.88	20016.26
491.06	20603.74
491.24	20163.72
491.41	20327.55
491.59	20357.98
491.77	20673.95
491.95	20702.04
492.13	20964.18
492.30	21219.30
492.48	20938.43
492.66	21493.14
492.84	21652.30
493.01	21902.73
493.19	21797.41
493.37	22022.10
493.54	21659.32
493.72	22071.25
493.90	22115.72
494.08	21926.14
494.25	22352.12
494.43	22754.69
494.61	23164.28
494.79	23040.23
494.96	22899.80
495.14	22946.61
495.32	23227.48
495.49	23143.22
495.67	23693.24
495.85	23351.52
496.02	23864.10
496.20	23576.22
496.38	23440.47
496.55	23903.89
496.73	24678.61
496.91	23934.32
497.09	24421.15
497.26	24570.94
497.44	24297.10
497.62	24599.03
497.79	25125.65
497.97	24734.78
498.14	24680.95
498.32	25067.14
498.50	25020.33
498.67	25420.56
498.85	25486.09
499.03	25724.83
499.20	25493.12
499.38	25853.56
499.56	25715.47
499.73	26008.03
499.91	26096.97
500.08	26075.91
500.26	26017.40
500.44	26356.77
500.61	26324.01
500.79	25846.54
500.97	26955.95
501.14	26483.16
501.32	26761.69
501.49	26621.25
501.67	26321.66
501.84	27019.14
502.02	26857.65
502.20	27295.33
502.37	27157.24
502.55	27461.51
502.72	27536.40
502.90	27501.29
503.07	27487.25
503.25	27704.92
503.43	27587.89
503.60	27665.13
503.78	27676.83
503.95	27995.15
504.13	27850.03
504.30	28320.48
504.48	27819.61
504.65	28219.84
504.83	28318.14
505.01	28350.91
505.18	28697.31
505.36	29043.71
505.53	28837.74
505.71	28875.19
505.88	29448.62
506.06	29095.20
506.23	29153.71
506.41	28968.81
506.58	29324.57
506.76	29549.26
506.93	29577.35
507.11	29455.64
507.28	29610.12
507.46	29675.65
507.63	29633.52
507.81	29741.19
507.98	29757.57
508.16	30148.44
508.33	29869.92
508.50	30373.13
508.68	30263.13
508.85	30190.57
509.03	30359.09
509.20	30796.77
509.38	30691.44
509.55	30670.38
509.73	30773.36
509.90	30733.57
510.08	30850.60
510.25	30785.07
510.42	31323.39
510.60	31211.04
510.77	31229.77
510.95	31646.38
511.12	31557.44
511.30	31611.28
511.47	32196.41
511.64	31660.43
511.82	31988.10
511.99	31611.28
512.17	32163.64
512.34	31842.99
512.51	32158.96
512.69	31857.03
512.86	32467.91
513.04	32584.94
513.21	32175.34
513.38	32264.28
513.56	31730.64
513.73	32147.26
513.90	32510.04
514.08	32559.19
514.25	32652.81
514.43	33062.41
514.60	32549.83
514.77	32804.95
514.95	32912.61
515.12	32968.79
515.29	33177.09
515.47	33184.12
515.64	33752.87
515.81	33345.61
515.99	33469.66
516.16	33144.33
516.33	32811.97
516.51	33397.10
516.68	32872.82
516.85	32952.40
517.03	32938.36
517.20	33565.62
517.37	33764.57
517.54	34155.44
517.72	33937.77
517.89	33518.81
518.06	33935.43
518.24	33795.00
518.41	34143.74
518.58	34197.57
518.75	34249.06
518.93	34632.91
519.10	34263.10
519.27	34487.79
519.45	34513.54
519.62	34766.32
519.79	34998.03
519.96	35262.51
520.14	35166.55
520.31	34806.11
520.48	35290.60
520.65	34899.73
520.83	35669.76
521.00	35384.22
521.17	35211.02
521.34	35196.98
521.52	35833.60
521.69	36006.80
521.86	36196.38
522.03	36172.98
522.20	36163.62
522.38	35732.96
522.55	36240.86
522.72	35997.44
522.89	35913.18
523.07	36112.13
523.24	36027.87
523.41	36191.70
523.58	36355.54
523.75	36872.80
523.92	37324.52
524.10	36636.41
524.27	36549.81
524.44	36889.18
524.61	37090.47
524.78	37312.82
524.96	37118.56
525.13	37010.89
525.30	37415.80
525.47	37383.04
525.64	37111.53
525.81	37310.48
525.98	37455.59
526.16	36683.22
526.33	36905.57
526.50	37474.32
526.67	37244.94
526.84	37179.41
527.01	37170.05
527.18	37415.80
527.36	37642.84
527.53	38014.98
527.70	37759.86
527.87	37979.87
528.04	37902.64
528.21	38080.52
528.38	37895.61
528.55	38494.79
528.72	38604.80
528.89	38522.88
529.07	38679.69
529.24	38160.09
529.41	38139.03
529.58	37900.29
529.75	37940.08
529.92	38766.29
530.09	38431.60
530.26	38689.06
530.43	39093.97
530.60	38675.01
530.77	38780.34
530.94	39239.08
531.11	38639.90
531.28	38923.11
531.46	39285.89
531.63	39208.65
531.80	38878.64
531.97	39098.65
532.14	38888.00
532.31	38834.17
532.48	39201.63
532.65	39517.60
532.82	39566.76
532.99	39526.97
533.16	39157.16
533.33	39531.65
533.50	39655.70
533.67	39992.73
533.84	39601.86
534.01	39920.18
534.18	39667.40
534.35	40315.73
534.52	39796.13
534.69	39992.73
534.86	40084.01
535.03	40069.97
535.20	40079.33
535.37	40301.68
535.54	40439.78
535.71	40175.30
535.88	40325.09
536.05	40095.72
536.22	40128.48
536.38	40863.41
536.55	40589.57
536.72	40580.21
536.89	40144.87
537.06	40608.29
537.23	40884.48
537.40	40708.94
537.57	40582.55
537.74	40772.13
537.91	40825.96
538.08	40680.85
538.25	40690.21
538.42	40622.34
538.59	41083.42
538.75	40746.39
538.92	41013.21
539.09	40830.65
539.26	40919.59
539.43	40769.79
539.60	41516.42
539.77	41500.04
539.94	41455.57
540.11	40559.14
540.28	41158.32
540.44	41120.87
540.61	41202.79
540.78	41041.29
540.95	41184.07
541.12	41628.77
541.29	41198.11
541.46	41251.94
541.62	41436.84
541.79	41790.27
541.96	41277.69
542.13	41729.41
542.30	41453.23
542.47	42021.98
542.63	41867.50
542.80	41652.17
542.97	42281.78
543.14	42375.40
543.31	42150.71
543.48	42279.44
543.64	42684.35
543.81	42344.97
543.98	42337.95
544.15	42209.22
544.32	42506.47
544.48	43126.71
544.65	43026.07
544.82	42801.38
544.99	42375.40
545.16	42754.57
545.32	42377.74
545.49	43028.41
545.66	42990.96
545.83	42527.53
546.00	43239.06
546.16	42904.36
546.33	42902.02
546.50	42831.80
546.67	42759.25
546.83	42574.34
547.00	43187.56
547.17	42939.47
547.34	42871.59
547.50	43161.82
547.67	43115.01
547.84	43100.97
548.00	43330.34
548.17	43498.86
548.34	42965.21
548.51	43735.25
548.67	43613.54
548.84	43449.70
549.01	43749.29
549.18	43641.63
549.34	43555.03
549.51	43796.10
549.68	43634.61
549.84	43388.85
550.01	43903.77
550.18	43440.34
550.34	43578.43
550.51	43669.72
550.68	43608.86
550.84	43779.72
551.01	43793.76
551.18	43735.25
551.34	43636.95
551.51	43693.12
551.68	43835.89
551.84	44385.92
552.01	43592.48
552.18	43873.34
552.34	43620.56
552.51	44690.19
552.68	43529.28
552.84	44292.30
553.01	44664.44
553.18	44266.55
553.34	44219.74
553.51	43899.09
553.67	43922.49
553.84	44453.79
554.01	44505.29
554.17	44652.74
554.34	44811.90
554.51	44837.64
554.67	44580.18
554.84	44751.04
555.00	44481.88
555.17	44737.00
555.33	44629.34
555.50	44425.71
555.67	44573.16
555.83	44481.88
556.00	44861.05
556.16	44823.60
556.33	44767.43
556.50	44666.78
556.66	44882.11
556.83	44411.67
556.99	44903.18
557.16	44975.73
557.32	44570.82
557.49	44334.43
557.65	44673.81
557.82	45242.56
557.98	45064.67
558.15	45081.06
558.32	45148.93
558.48	45076.38
558.65	44713.59
558.81	44643.38
558.98	44828.28
559.14	45127.87
559.31	44964.03
559.47	45010.84
559.64	45565.55
559.80	45703.64
559.97	45158.30
560.13	45099.78
560.30	44793.17
560.46	45127.87
560.63	44835.30
560.79	45170.00
560.96	45280.00
561.12	45352.56
561.29	45036.59
561.45	45450.86
561.61	45687.26
561.78	45305.75
561.94	45130.21
562.11	45200.43
562.27	45485.97
562.44	45113.83
562.60	45635.77
562.77	45691.94
562.93	45382.99
563.10	45446.18
563.26	45071.70
563.42	45406.39
563.59	45633.42
563.75	45553.85
563.92	45633.42
564.08	45635.77
564.24	45769.18
564.41	45382.99
564.57	45778.54
564.74	45834.71
564.90	45947.06
565.07	45624.06
565.23	45876.84
565.39	45666.19
565.56	45591.30
565.72	45464.91
565.88	45923.65
566.05	45677.90
566.21	45525.76
566.38	45741.09
566.54	45778.54
566.70	45993.87
566.87	45890.88
567.03	45729.39
567.19	46028.98
567.36	45961.10
567.52	45595.98
567.68	45528.10
567.85	45996.21
568.01	45961.10
568.17	45628.74
568.34	45450.86
568.50	45806.62
568.66	45476.61
568.83	45776.20
568.99	45502.35
569.15	45247.24
569.32	46174.09
569.48	45523.42
569.64	45940.04
569.81	46115.58
569.97	46138.98
570.13	46082.81
570.30	45818.33
570.46	45607.68
570.62	45607.68
570.78	45411.07
570.95	45584.27
571.11	45972.80
571.27	45696.62
571.43	45897.91
571.60	46204.52
571.76	45921.31
571.92	45918.97
572.09	46045.36
572.25	46012.59
572.41	45823.01
572.57	46185.79
572.74	46401.12
572.90	46054.72
573.06	45677.90
573.22	45792.58
573.38	46028.98
573.55	46410.48
573.71	45619.38
573.87	45691.94
574.03	46078.13
574.20	45888.54
574.36	46239.62
574.52	45965.78
574.68	46115.58
574.84	46110.89
575.01	45972.80
575.17	46302.82
575.33	46092.17
575.49	45947.06
575.65	46204.52
575.82	46370.69
575.98	46019.61
576.14	46569.64
576.30	46138.98
576.46	45975.14
576.62	45663.85
576.79	45947.06
576.95	45818.33
577.11	46220.90
577.27	46082.81
577.43	46291.12
577.59	46450.27
577.75	46064.08
577.92	45549.17
578.08	45858.12
578.24	45666.19
578.40	45944.72
578.56	46391.76
578.72	46358.99
578.88	45944.72
579.04	46106.21
579.21	45867.48
579.37	45682.58
579.53	45710.66
579.69	45916.63
579.85	46382.40
580.01	46089.83
580.17	46270.05
580.33	46532.19
580.49	46251.33
580.65	46342.61
580.82	46281.75
580.98	45808.96
581.14	45984.51
581.30	46492.40
581.46	46075.79
581.62	46309.84
581.78	46410.48
581.94	46459.63
582.10	46366.01
582.26	46522.83
582.42	46106.21
582.58	46574.32
582.74	45993.87
582.90	46138.98
583.06	46340.27
583.22	46368.35
583.38	46181.11
583.54	46410.48
583.70	46412.82
583.86	46216.22
584.02	45991.53
584.18	46731.14
584.34	46298.14
584.50	45895.56
584.66	46136.64
584.82	46368.35
584.98	46780.29
585.14	46351.97
585.30	45993.87
585.46	46167.07
585.62	46127.28
585.78	45996.21
585.94	46003.23
586.10	45977.48
586.26	46078.13
586.42	46157.70
586.58	46347.29
586.74	46670.28
586.90	46408.14
587.06	45727.05
587.22	46651.56
587.38	46253.67
587.54	46403.46
587.70	46660.92
587.86	46469.00
588.02	46050.04
588.18	46646.88
588.34	45989.19
588.49	45757.47
588.65	45626.40
588.81	46096.85
588.97	45661.51
589.13	45846.41
589.29	46050.04
589.45	46220.90
589.61	46094.51
589.77	46340.27
589.93	46527.51
590.08	46543.89
590.24	46340.27
590.40	46815.40
590.56	46447.93
590.72	46546.23
590.88	46213.88
591.04	46408.14
591.20	46550.91
591.35	46356.65
591.51	46927.74
591.67	46284.09
591.83	46691.35
591.99	46234.94
592.15	46447.93
592.31	46726.46
592.46	46646.88
592.62	46417.50
592.78	46314.52
592.94	46953.49
593.10	46492.40
593.26	46948.81
593.41	46347.29
593.57	46433.89
593.73	46424.53
593.89	47016.68
594.05	46394.10
594.20	46314.52
594.36	46784.97
594.52	46562.62
594.68	46059.40
594.84	46515.81
594.99	46887.95
595.15	46476.02
595.31	46396.44
595.47	46469.00
595.62	46564.96
595.78	46684.33
595.94	46642.20
596.10	46625.81
596.25	46368.35
596.41	46567.30
596.57	46333.24
596.73	46768.58
596.88	46174.09
597.04	46232.60
597.20	46983.91
597.36	46689.01
597.51	46951.15
597.67	46391.76
597.83	46773.27
597.99	46564.96
598.14	46251.33
598.30	46712.41
598.46	46366.01
598.61	46487.72
598.77	46440.91
598.93	46267.71
599.09	46518.15
599.24	46960.51
599.40	46740.50
599.56	46920.72
599.71	46925.40
599.87	46815.40
600.03	46471.34
600.18	46375.37
600.34	46588.36
600.50	46405.80
600.65	46562.62
600.81	46710.07
600.97	46691.35
601.12	46710.07
601.28	46550.91
601.44	46604.75
601.59	46270.05
601.75	46674.96
601.91	46457.29
602.06	46674.96
602.22	46412.82
602.37	46799.01
602.53	46571.98
602.69	46532.19
602.84	46417.50
603.00	46665.60
603.16	46387.08
603.31	46632.83
603.47	46211.54
603.62	46405.80
603.78	46522.83
603.94	46485.38
604.09	46674.96
604.25	46747.52
604.40	46735.82
604.56	46464.32
604.71	46368.35
604.87	46490.06
605.03	46466.66
605.18	46160.05
605.34	46216.22
605.49	46253.67
605.65	46403.46
605.80	46347.29
605.96	46340.27
606.12	46408.14
606.27	46593.04
606.43	46101.53
606.58	46684.33
606.74	45862.80
606.89	46485.38
607.05	46281.75
607.20	46122.60
607.36	46087.49
607.51	46958.17
607.67	46174.09
607.82	46602.41
607.98	46256.01
608.13	46260.69
608.29	46103.87
608.44	45425.12
608.60	45904.93
608.75	45965.78
608.91	45713.00
609.06	45773.86
609.22	46036.00
609.37	45755.13
609.53	46101.53
609.68	46225.58
609.84	45764.49
609.99	45993.87
610.15	46038.34
610.30	45921.31
610.46	46171.75
610.61	45755.13
610.76	45741.09
610.92	45869.82
611.07	45949.40
611.23	45731.73
611.38	46061.74
611.54	45525.76
611.69	45717.68
611.84	45481.29
612.00	45954.08
612.15	45322.13
612.31	46127.28
612.46	45783.22
612.62	46054.72
612.77	45666.19
612.92	45909.61
613.08	45762.15
613.23	45755.13
613.39	45106.80
613.54	45034.25
613.69	45214.47
613.85	45354.90
614.00	45645.13
614.15	45698.96
614.31	45916.63
614.46	46005.57
614.62	45282.34
614.77	45364.26
614.92	45125.53
615.08	45645.13
615.23	45340.86
615.38	45230.85
615.54	44999.14
615.69	44921.90
615.84	45003.82
616.00	45354.90
616.15	45242.56
616.30	45495.33
616.46	45153.62
616.61	44844.66
616.76	44861.05
616.92	45036.59
617.07	44697.21
617.22	45017.86
617.37	44928.92
617.53	45052.97
617.68	44828.28
617.83	45418.10
617.99	45724.71
618.14	45404.05
618.29	44811.90
618.45	45132.55
618.60	44811.90
618.75	44753.38
618.90	44545.08
619.06	45272.98
619.21	44856.37
619.36	44788.49
619.51	44687.85
619.67	44659.76
619.82	44924.24
619.97	44718.28
620.12	44378.90
620.28	44018.46
620.43	44425.71
620.58	44500.61
620.73	44107.40
620.89	44453.79
621.04	44282.94
621.19	44657.42
621.34	44411.67
621.49	44458.48
621.65	43828.87
621.80	44596.57
621.95	44140.16
622.10	44406.98
622.25	44006.75
622.41	43969.30
622.56	44205.70
622.71	44034.84
622.86	43697.80
623.01	44589.55
623.16	44023.14
623.32	44009.09
623.47	44348.47
623.62	43894.41
623.77	43948.24
623.92	43938.88
624.07	43849.94
624.23	43599.50
624.38	43711.84
624.53	43337.36
624.68	44266.55
624.83	44175.27
624.98	43915.47
625.13	43796.10
625.29	43489.49
625.44	43590.14
625.59	43395.87
625.74	43082.24
625.89	43423.96
626.04	43328.00
626.19	43571.41
626.34	43229.69
626.49	43613.54
626.65	43409.92
626.80	43353.74
626.95	43168.84
627.10	43105.65
627.25	43320.98
627.40	42815.42
627.55	42972.24
627.70	42693.71
627.85	42691.37
628.00	43386.51
628.15	43103.31
628.30	42684.35
628.45	42972.24
628.60	42740.52
628.76	43021.39
628.91	43091.60
629.06	42838.83
629.21	42820.10
629.36	42564.98
629.51	42754.57
629.66	42831.80
629.81	43002.66
629.96	42749.88
630.11	42988.62
630.26	42419.87
630.41	42424.55
630.56	42579.03
630.71	42401.14
630.86	43047.13
631.01	42579.03
631.16	42911.38
631.31	41993.89
631.46	42160.07
631.61	42777.97
631.76	42576.69
631.91	42756.91
632.06	42784.99
632.21	42644.56
632.36	42850.53
632.51	42122.62
632.66	42459.66
632.81	42190.50
632.96	42632.86
633.10	42054.75
633.25	42078.15
633.40	42239.65
633.55	42274.76
633.70	42246.67
633.85	42038.36
634.00	42085.17
634.15	41837.08
634.30	42527.53
634.45	42316.89
634.60	42520.51
634.75	42171.77
634.90	42490.09
635.05	41862.82
635.19	42361.36
635.34	42513.49
635.49	42073.47
635.64	41914.31
635.79	41687.28
635.94	41619.41
636.09	42134.32
636.24	41706.01
636.39	41343.22
636.53	41476.63
636.68	41310.46
636.83	41556.21
636.98	41703.67
637.13	41031.93
637.28	41858.14
637.43	42040.70
637.57	41818.35
637.72	41523.44
637.87	41715.37
638.02	41862.82
638.17	41085.76
638.32	40945.33
638.46	41074.06
638.61	41181.73
638.76	41181.73
638.91	41301.09
639.06	41240.24
639.20	41053.00
639.35	41467.27
639.50	41013.21
639.65	41666.22
639.80	40837.67
639.94	40971.08
640.09	40828.30
640.24	40877.46
640.39	40912.56
640.54	40638.72
640.68	40627.02
640.83	40870.43
640.98	41027.25
641.13	40584.89
641.27	40603.61
641.42	40493.61
641.57	41078.74
641.72	40610.64
641.86	40428.07
642.01	40357.86
642.16	40463.18
642.31	40201.04
642.45	40882.14
642.60	39800.81
642.75	40465.52
642.90	40818.94
643.04	40203.38
643.19	40364.88
643.34	40095.72
643.48	40629.36
643.63	40643.40
643.78	40266.58
643.93	40203.38
644.07	40172.96
644.22	40598.93
644.37	39758.68
644.51	40304.02
644.66	40048.91
644.81	39999.76
644.95	40432.75
645.10	40355.52
645.25	40257.21
645.39	40032.52
645.54	39981.03
645.69	39852.30
645.83	39966.99
645.98	40119.12
646.13	40666.81
646.27	40463.18
646.42	40147.21
646.57	39831.24
646.71	39601.86
646.86	39910.82
647.00	39924.86
647.15	39878.05
647.30	39468.45
647.44	39517.60
647.59	39629.95
647.74	39749.32
647.88	39536.33
648.03	39601.86
648.17	39313.98
648.32	38827.15
648.47	39508.24
648.61	39583.14
648.76	40023.16
648.90	39765.70
649.05	39503.56
649.20	39358.45
649.34	39725.91
649.49	38974.60
649.63	39569.10
649.78	39194.61
649.92	39533.99
650.07	39370.15
650.21	38656.29
650.36	39035.45
650.51	38843.53
650.65	39559.73
650.80	39440.37
650.94	39484.84
651.09	39461.43
651.23	38836.51
651.38	39325.68
651.52	39241.42
651.67	39178.23
651.81	39112.69
651.96	39096.31
652.10	39187.59
652.25	38939.49
652.39	38859.91
652.54	38667.99
652.68	38705.44
652.83	38958.22
652.97	38958.22
653.12	38906.73
653.26	38752.25
653.41	38951.20
653.55	38469.04
653.70	38139.03
653.84	38927.79
653.99	38637.56
654.13	39168.87
654.27	38370.74
654.42	38518.20
654.56	38529.90
654.71	39035.45
654.85	38909.07
655.00	38359.04
655.14	38122.65
655.29	37956.47
655.43	38321.59
655.57	38117.96
655.72	37914.34
655.86	37425.17
656.01	37741.14
656.15	37553.90
656.30	37970.51
656.44	38099.24
656.58	37684.97
656.73	37975.19
656.87	37846.46
657.01	37586.66
657.16	37474.32
657.30	37654.54
657.45	37759.86
657.59	38099.24
657.73	37347.93
657.88	37771.57
658.02	37596.03
658.16	37715.39
658.31	38038.39
658.45	38225.63
658.60	37813.70
658.74	37832.42
658.88	37645.18
659.03	37249.63
659.17	37106.85
659.31	37645.18
659.46	36858.76
659.60	37134.94
659.74	37422.83
659.89	36856.42
660.03	37404.10
660.17	37376.01
660.32	37003.87
660.46	37514.11
660.60	37282.39
660.74	37057.70
660.89	37387.72
661.03	36849.39
661.17	36828.33
661.32	36350.86
661.46	36954.72
661.60	36362.56
661.74	36577.89
661.89	36505.34
662.03	36807.26
662.17	36306.39
662.31	36371.92
662.46	37053.02
662.60	36477.25
662.74	36327.45
662.88	36217.45
663.03	35971.69
663.17	36524.06
663.31	36336.82
663.45	36402.35
663.60	35786.79
663.74	35367.84
663.88	35672.10
664.02	36053.61
664.17	35529.33
664.31	35676.79
664.45	35484.86
664.59	35428.69
664.73	35707.21
664.88	35758.70
665.02	35541.03
665.16	35456.78
665.30	35606.57
665.44	34836.53
665.59	35590.19
665.73	35328.05
665.87	35447.41
666.01	35257.83
666.15	35035.48
666.29	34888.03
666.44	35161.87
666.58	35129.10
666.72	34976.97
666.86	35587.85
667.00	35173.57
667.14	34649.29
667.28	34998.03
667.43	34520.56
667.57	34609.50
667.71	34614.18
667.85	34546.31
667.99	34298.21
668.13	33937.77
668.27	34429.28
668.41	34476.09
668.56	34347.36
668.70	34597.80
668.84	34101.61
668.98	34171.82
669.12	34153.10
669.26	34206.93
669.40	33837.12
669.54	33670.95
669.68	33827.76
669.82	33443.91
669.96	33390.08
670.10	33275.40
670.25	33472.00
670.39	33504.77
670.53	33198.16
670.67	33392.42
670.81	33596.05
670.95	33282.42
671.09	33336.25
671.23	33118.58
671.37	33455.62
671.51	33261.35
671.65	33029.64
671.79	32807.29
671.93	33010.92
672.07	32797.93
672.21	32664.52
672.35	32636.43
672.49	32591.96
672.63	32594.30
672.77	32875.16
672.91	32596.64
673.05	32350.88
673.19	32142.58
673.33	32215.13
673.47	31988.10
673.61	31943.63
673.75	31964.70
673.89	31763.41
674.03	31367.86
674.17	31686.17
674.31	31524.68
674.45	32030.23
674.59	31728.30
674.73	31747.03
674.87	31550.42
675.01	31704.90
675.15	31793.84
675.29	31632.34
675.43	31379.56
675.56	31220.41
675.70	31164.23
675.84	30972.31
675.98	29764.59
676.12	31019.12
676.26	30909.11
676.40	30335.68
676.54	30656.34
676.68	30703.15
676.82	29944.81
676.96	30099.29
677.10	30206.95
677.23	29839.49
677.37	30295.89
677.51	29546.92
677.65	29982.26
677.79	29333.93
677.93	30031.41
678.07	29685.01
678.21	29046.05
678.34	29495.43
678.48	29249.67
678.62	29343.30
678.76	28952.43
678.90	29116.26
679.04	29127.97
679.18	29076.48
679.31	29003.92
679.45	28718.37
679.59	28264.31
679.73	28549.85
679.87	28599.01
680.00	28472.62
680.14	28474.96
680.28	28151.96
680.42	28210.48
680.56	27871.10
680.70	28098.13
680.83	27938.97
680.97	27477.89
681.11	27559.81
681.25	27285.97
681.39	27182.98
681.52	27793.86
681.66	27623.00
681.80	27241.50
681.94	26766.37
682.07	27187.66
682.21	27000.42
682.35	26675.09
682.49	27030.85
682.62	26855.31
682.76	26618.91
682.90	26426.99
683.04	26501.89
683.17	26834.24
683.31	26698.49
683.45	26342.73
683.59	26256.13
683.72	25968.24
683.86	25827.81
684.00	26045.48
684.13	25818.45
684.27	26057.18
684.41	25909.73
684.55	25593.76
684.68	25345.66
684.82	25378.43
684.96	25586.74
685.09	25261.40
685.23	25181.82
685.37	25006.28
685.50	25160.76
685.64	24793.29
685.78	24610.73
685.91	24568.60
686.05	24517.11
686.19	24709.04
686.32	24479.66
686.46	23885.17
686.60	23964.75
686.73	23791.55
686.87	23707.29
687.01	23641.75
687.14	23498.98
687.28	23496.64
687.42	23152.58
687.55	23241.52
687.69	23229.82
687.82	23239.18
687.96	23534.09
688.10	23583.24
688.23	23145.56
688.37	22979.38
688.50	22930.23
688.64	22834.27
688.78	22731.28
688.91	22593.19
689.05	22228.07
689.18	22384.88
689.32	22347.44
689.46	22239.77
689.59	22546.38
689.73	22394.25
689.86	21886.35
690.00	22284.24
690.13	22466.80
690.27	21884.01
690.41	21776.34
690.54	21673.36
690.68	21474.42
690.81	21493.14
690.95	21315.26
691.08	21572.72
691.22	21184.19
691.35	21158.44
691.49	21472.07
691.62	21212.28
691.76	21219.30
691.89	21376.11
692.03	20812.04
692.16	20774.60
692.30	20795.66
692.43	20706.72
692.57	20341.60
692.70	20489.05
692.84	20484.37
692.97	20348.62
693.11	19943.70
693.24	20245.63
693.38	20149.67
693.51	19520.07
693.65	19784.55
693.78	19754.12
693.92	20023.28
694.05	19585.60
694.19	19709.65
694.32	19585.60
694.45	19674.54
694.59	19384.32
694.72	19564.54
694.86	19374.95
694.99	19117.50
695.13	18909.19
695.26	18860.04
695.39	18750.03
695.53	18836.63
695.66	18991.11
695.80	18302.99
695.93	18590.88
696.07	18146.17
696.20	18602.58
696.33	18677.48
696.47	18501.93
696.60	18155.54
696.73	18228.09
696.87	18164.90
697.00	18019.78
697.14	18101.70
697.27	17879.35
697.40	18066.60
697.54	17472.10
697.67	17809.14
697.80	17664.02
697.94	17715.51
698.07	17453.37
698.21	17247.41
698.34	17329.33
698.47	16959.52
698.61	16978.25
698.74	16931.44
698.87	17158.47
699.01	16725.47
699.14	16709.08
699.27	16964.20
699.40	16702.06
699.54	16346.30
699.67	16489.07
699.80	16606.10
699.94	16552.27
700.07	16460.99
700.20	16205.87
700.34	15932.03
700.47	16184.80
700.60	16170.76
700.73	16011.60
700.87	16070.12
701.00	15871.17
701.13	15686.27
701.26	15805.64
701.40	15885.22
701.53	15559.88
701.66	15644.14
701.79	15438.17
701.93	15524.77
702.06	15077.73
702.19	15360.94
702.32	14972.41
702.46	14923.26
702.59	14916.23
702.72	15044.96
702.85	15075.39
702.99	15075.39
703.12	15037.94
703.25	14986.45
703.38	14778.14
703.51	14796.87
703.65	14558.13
703.78	14457.49
703.91	14686.86
704.04	14483.24
704.17	14218.75
704.31	14422.38
704.44	14045.55
704.57	14031.51
704.70	13837.25
704.83	13987.04
704.96	14031.51
705.10	13820.86
705.23	14071.30
>>>>>End Processed Spectral Data<<<<<
