SpectraSuite Data File
++++++++++++++++++++++++++++++++++++
Date: Fri Oct 25 10:44:14 EDT 2013
User: price-jones
Dark Spectrum Present: No
Reference Spectrum Present: No
Number of Sampled Component Spectra: 1
Spectrometers: USB2+H05261
Integration Time (usec): 100000 (USB2+H05261)
Spectra Averaged: 1 (USB2+H05261)
Boxcar Smoothing: 0 (USB2+H05261)
Correct for Electrical Dark: No (USB2+H05261)
Strobe/Lamp Enabled: No (USB2+H05261)
Correct for Detector Non-linearity: No (USB2+H05261)
Correct for Stray Light: No (USB2+H05261)
Number of Pixels in Processed Spectrum: 2048
>>>>>Begin Processed Spectral Data<<<<<
365.73	112.35
365.92	112.35
366.12	112.35
366.32	81.92
366.52	35.11
366.72	77.24
366.91	58.51
367.11	0.00
367.31	0.00
367.51	49.15
367.70	32.77
367.90	42.13
368.10	0.00
368.30	100.64
368.49	77.24
368.69	67.88
368.89	4.68
369.09	42.13
369.28	18.72
369.48	49.15
369.68	35.11
369.87	63.19
370.07	30.43
370.27	60.85
370.47	140.43
370.66	435.34
370.86	395.55
371.06	418.96
371.25	402.57
371.45	397.89
371.65	533.64
371.84	472.79
372.04	435.34
372.24	475.13
372.44	440.02
372.63	531.30
372.83	484.49
373.03	573.43
373.22	521.94
373.42	477.47
373.62	472.79
373.81	524.28
374.01	566.41
374.21	629.60
374.40	561.73
374.60	620.24
374.79	524.28
374.99	592.16
375.19	615.56
375.38	559.39
375.58	545.34
375.78	671.73
375.97	603.86
376.17	643.65
376.37	524.28
376.56	655.35
376.76	622.58
376.95	676.41
377.15	671.73
377.35	603.86
377.54	711.52
377.74	631.94
377.93	610.88
378.13	603.86
378.33	690.46
378.52	550.03
378.72	674.07
378.91	706.84
379.11	674.07
379.31	704.50
379.50	613.22
379.70	751.31
379.89	737.27
380.09	690.46
380.28	587.47
380.48	688.12
380.68	706.84
380.87	758.33
381.07	779.40
381.26	791.10
381.46	751.31
381.65	772.38
381.85	629.60
382.04	711.52
382.24	702.16
382.43	716.20
382.63	709.18
382.83	645.99
383.02	697.48
383.22	695.14
383.41	634.29
383.61	784.08
383.80	805.14
384.00	821.53
384.19	807.48
384.39	835.57
384.58	737.27
384.78	805.14
384.97	765.36
385.17	741.95
385.36	830.89
385.56	875.36
385.75	854.30
385.95	837.91
386.14	919.83
386.34	791.10
386.53	819.19
386.72	840.25
386.92	922.17
387.11	915.15
387.31	947.92
387.50	786.42
387.70	844.93
387.89	910.47
388.09	917.49
388.28	950.26
388.48	896.43
388.67	985.37
388.86	938.55
389.06	887.06
389.25	961.96
389.45	1001.75
389.64	964.30
389.84	856.64
390.03	887.06
390.22	987.71
390.42	1006.43
390.61	1022.81
390.81	1029.84
391.00	1041.54
391.19	1132.82
391.39	1043.88
391.58	1018.13
391.78	1050.90
391.97	1011.11
392.16	987.71
392.36	1165.59
392.55	1041.54
392.75	1041.54
392.94	1001.75
393.13	959.62
393.33	1043.88
393.52	950.26
393.71	1132.82
393.91	1139.84
394.10	1053.24
394.29	1139.84
394.49	1156.22
394.68	1235.80
394.88	1149.20
395.07	1167.93
395.26	1149.20
395.46	1203.04
395.65	1282.61
395.84	1165.59
396.04	1212.40
396.23	1123.46
396.42	1083.67
396.62	1249.85
396.81	1172.61
397.00	1221.76
397.19	1268.57
397.39	1334.11
397.58	1481.56
397.77	1303.68
397.97	1355.17
398.16	1416.02
398.35	1495.60
398.55	1373.89
398.74	1448.79
398.93	1523.69
399.12	1488.58
399.32	1448.79
399.51	1460.49
399.70	1500.28
399.90	1540.07
400.09	1614.97
400.28	1533.05
400.47	1621.99
400.67	1568.16
400.86	1696.89
401.05	1591.56
401.24	1703.91
401.44	1722.63
401.63	1629.01
401.82	1614.97
402.01	1706.25
402.21	1696.89
402.40	1818.60
402.59	1685.19
402.78	1661.78
402.97	1799.87
403.17	1809.23
403.36	1886.47
403.55	1837.32
403.74	1785.83
403.93	1895.83
404.13	1877.11
404.32	1874.77
404.51	1886.47
404.70	1916.90
404.89	1933.28
405.09	1954.35
405.28	1834.98
405.47	1813.92
405.66	1966.05
405.85	2104.14
406.05	1982.43
406.24	2001.16
406.43	1935.62
406.62	2146.27
406.81	2040.95
407.00	2087.76
407.20	2080.74
407.39	2099.46
407.58	2188.40
407.77	2064.35
407.96	2258.62
408.15	2359.26
408.34	2218.83
408.54	2385.01
408.73	2235.21
408.92	2242.23
409.11	2235.21
409.30	2270.32
409.49	2221.17
409.68	2289.04
409.87	2389.69
410.07	2310.11
410.26	2448.20
410.45	2310.11
410.64	2445.86
410.83	2579.27
411.02	2527.78
411.21	2551.18
411.40	2504.37
411.59	2672.89
411.78	2569.91
411.98	2502.03
412.17	2743.11
412.36	2668.21
412.55	2623.74
412.74	2729.06
412.93	2710.34
413.12	2649.49
413.31	2766.51
413.50	2846.09
413.69	2834.39
413.88	2841.41
414.07	2899.92
414.26	2906.95
414.45	2920.99
414.64	2986.52
414.83	2963.12
415.02	3075.46
415.22	3332.92
415.41	3042.70
415.60	3009.93
415.79	3187.81
415.98	3192.49
416.17	3361.01
416.36	3180.79
416.55	3234.62
416.74	3290.79
416.93	3164.40
417.12	3379.73
417.31	3272.07
417.50	3304.84
417.69	3555.27
417.88	3358.67
418.07	3456.97
418.26	3545.91
418.45	3531.87
418.64	3676.98
418.83	3611.45
419.02	3508.46
419.21	3559.95
419.39	3606.77
419.58	3653.58
419.77	3550.59
419.96	3716.77
420.15	3658.26
420.34	3625.49
420.53	3632.51
420.72	3843.16
420.91	3824.44
421.10	3831.46
421.29	3981.25
421.48	3861.88
421.67	3847.84
421.86	3906.35
422.05	3803.37
422.24	3674.64
422.43	3763.58
422.61	3812.73
422.80	3873.59
422.99	4016.36
423.18	3829.12
423.37	4018.70
423.56	3896.99
423.75	3882.95
423.94	3817.41
424.13	3679.32
424.32	3756.56
424.50	3920.40
424.69	4109.98
424.88	3922.74
425.07	3992.95
425.26	3805.71
425.45	3974.23
425.64	3988.27
425.83	3791.67
426.01	4074.87
426.20	3964.87
426.39	4093.60
426.58	3955.51
426.77	3932.10
426.96	3899.33
427.15	3906.35
427.33	4098.28
427.52	4009.34
427.71	4264.46
427.90	4156.79
428.09	4124.02
428.28	4100.62
428.46	4219.99
428.65	4081.89
428.84	4243.39
429.03	4346.37
429.22	4138.07
429.40	4236.37
429.59	4273.82
429.78	3990.61
429.97	3838.48
430.16	4070.19
430.34	3988.27
430.53	4184.88
430.72	4147.43
430.91	4198.92
431.10	4358.08
431.28	4444.68
431.47	4571.07
431.66	4667.03
431.85	4503.19
432.03	4713.84
432.22	4678.73
432.41	4561.70
432.60	4610.86
432.79	4538.30
432.97	4877.68
433.16	4676.39
433.35	4617.88
433.54	4678.73
433.72	4727.88
433.91	4858.95
434.10	4596.81
434.28	4685.75
434.47	4840.23
434.66	4933.85
434.85	4973.64
435.03	4910.44
435.22	4924.49
435.41	5074.28
435.59	5001.72
435.78	5020.45
435.97	5071.94
436.16	5217.05
436.34	5104.71
436.53	5123.43
436.72	5217.05
436.90	5107.05
437.09	5179.61
437.28	5048.54
437.46	5233.44
437.65	5093.01
437.84	5146.84
438.02	5193.65
438.21	5238.12
438.40	5149.18
438.58	5313.02
438.77	5350.46
438.96	5270.89
439.14	5434.72
439.33	5488.56
439.52	5753.04
439.70	5596.22
439.89	5666.44
440.08	5710.91
440.26	5664.10
440.45	5652.39
440.63	5664.10
440.82	6050.28
441.01	5846.66
441.19	6031.56
441.38	6008.16
441.57	6090.07
441.75	6326.47
441.94	6176.67
442.12	6277.32
442.31	6300.72
442.50	6249.23
442.68	6354.55
442.87	6565.20
443.05	6314.77
443.24	6527.75
443.43	6399.02
443.61	6363.92
443.80	6480.94
443.98	6328.81
444.17	6204.76
444.35	6410.73
444.54	6537.12
444.73	6487.96
444.91	6434.13
445.10	6523.07
445.28	6429.45
445.47	6363.92
445.65	6392.00
445.84	6476.26
446.02	6588.61
446.21	6583.93
446.39	6485.62
446.58	6724.36
446.77	6565.20
446.95	6380.30
447.14	6675.21
447.32	6810.96
447.51	6473.92
447.69	6565.20
447.88	6684.57
448.06	6558.18
448.25	6621.38
448.43	6595.63
448.62	6593.29
448.80	6604.99
448.99	6640.10
449.17	6986.50
449.36	6736.06
449.54	6843.73
449.73	7061.40
449.91	7035.65
450.10	7162.04
450.28	7424.18
450.46	7110.55
450.65	7073.10
450.83	7126.93
451.02	7098.84
451.20	7337.58
451.39	7253.32
451.57	7246.30
451.76	7211.19
451.94	7084.80
452.13	7283.75
452.31	7330.56
452.49	6897.56
452.68	7344.60
452.86	7171.40
453.05	7473.33
453.23	7384.39
453.42	7281.41
453.60	7103.53
453.78	7358.64
453.97	7318.86
454.15	7309.49
454.34	7307.15
454.52	7499.08
454.70	7365.67
454.89	7344.60
455.07	7667.60
455.26	7829.09
455.44	7646.53
455.62	7686.32
455.81	7742.49
455.99	7819.73
456.17	7878.24
456.36	7714.41
456.54	7892.29
456.73	7964.84
456.91	8070.17
457.09	8009.31
457.28	8259.75
457.46	8025.70
457.64	8121.66
457.83	8016.33
458.01	8067.83
458.19	8119.32
458.38	7955.48
458.56	8388.48
458.74	8182.51
458.93	8226.98
459.11	8210.60
459.29	8353.37
459.48	8379.12
459.66	8278.47
459.84	8425.93
460.03	8491.46
460.21	8388.48
460.39	8439.97
460.57	8528.91
460.76	8561.68
460.94	8683.39
461.12	8664.66
461.31	8643.60
461.49	8566.36
461.67	8547.64
461.85	8781.69
462.04	8924.46
462.22	8887.01
462.40	8730.20
462.59	8901.06
462.77	8858.93
462.95	8985.32
463.13	8917.44
463.32	9088.30
463.50	8982.98
463.68	9210.01
463.86	9050.85
464.05	8863.61
464.23	8922.12
464.41	8924.46
464.59	8922.12
464.78	9341.08
464.96	9118.73
465.14	9186.60
465.32	9277.88
465.50	9268.52
465.69	9132.77
465.87	9151.49
466.05	9200.65
466.23	8954.89
466.41	9116.39
466.60	9556.41
466.78	9195.96
466.96	9200.65
467.14	9266.18
467.32	9160.86
467.51	9537.68
467.69	9142.13
467.87	9383.21
468.05	9579.81
468.23	9418.32
468.41	9294.27
468.60	9387.89
468.78	9673.43
468.96	9577.47
469.14	9722.59
469.32	9825.57
469.50	9523.64
469.69	9783.44
469.87	9774.08
470.05	9811.53
470.23	9741.31
470.41	9933.23
470.59	10125.16
470.77	9701.52
470.95	9963.66
471.14	9961.32
471.32	9841.95
471.50	10204.74
471.68	10223.46
471.86	10394.32
472.04	10289.00
472.22	10375.59
472.40	10235.16
472.58	10296.02
472.77	10450.49
472.95	10712.63
473.13	10782.85
473.31	10534.75
473.49	10640.08
473.67	10700.93
473.85	10806.25
474.03	11035.63
474.21	11115.20
474.39	11136.27
474.57	10869.45
474.75	11171.38
474.93	11286.06
475.12	11112.86
475.30	10977.11
475.48	11115.20
475.66	11211.17
475.84	11384.37
476.02	11393.73
476.20	11503.73
476.38	11702.68
476.56	12009.29
476.74	11735.45
476.92	11815.02
477.10	11772.89
477.28	12201.21
477.46	12058.44
477.64	12100.57
477.82	12365.05
478.00	12624.85
478.18	12507.82
478.36	12610.81
478.54	12699.75
478.72	12755.92
478.90	12854.22
479.08	12849.54
479.26	13359.78
479.44	13071.89
479.62	13247.43
479.80	13324.67
479.98	13188.92
480.16	13781.07
480.34	13458.08
480.52	13565.74
480.70	13785.76
480.88	13666.39
481.06	13926.19
481.24	13921.51
481.41	13891.08
481.59	14506.64
481.77	14497.28
481.95	14347.48
482.13	14389.61
482.31	14766.44
482.49	14810.91
482.67	14988.79
482.85	14892.83
483.03	15129.22
483.21	15314.13
483.39	15281.36
483.57	15311.78
483.74	15620.74
483.92	15557.54
484.10	15257.95
484.28	15688.61
484.46	16016.29
484.64	16395.45
484.82	16205.87
485.00	16407.16
485.18	16697.38
485.35	16582.70
485.53	16074.80
485.71	16156.72
485.89	16507.80
486.07	16479.71
486.25	16580.36
486.43	16666.95
486.61	16725.47
486.78	17324.65
486.96	17467.42
487.14	17607.85
487.32	17816.16
487.50	17958.93
487.68	18188.30
487.85	18525.34
488.03	18279.58
488.21	18686.84
488.39	18494.91
488.57	18588.53
488.75	18843.65
488.92	19311.76
489.10	19145.58
489.28	19276.65
489.46	19494.32
489.64	19363.25
489.81	20217.55
489.99	19985.83
490.17	20067.75
490.35	20276.06
490.53	20442.24
490.70	20395.43
490.88	20451.60
491.06	20805.02
491.24	20634.16
491.41	20638.84
491.59	20870.56
491.77	21060.14
491.95	21198.23
492.13	21254.40
492.30	21556.33
492.48	21315.26
492.66	21708.47
492.84	21933.16
493.01	21867.63
493.19	21914.44
493.37	22469.14
493.54	22216.36
493.72	22548.72
493.90	22359.14
494.08	23035.55
494.25	23019.17
494.43	22869.37
494.61	23035.55
494.79	23658.14
494.96	23461.53
495.14	23606.64
495.32	23538.77
495.49	23730.69
495.67	24016.24
495.85	23864.10
496.02	24121.56
496.20	24194.12
496.38	24299.44
496.55	24159.01
496.73	25247.36
496.91	25181.82
497.09	25289.49
497.26	25333.96
497.44	24886.92
497.62	25252.04
497.79	25399.49
497.97	25359.70
498.14	25151.40
498.32	25652.27
498.50	25605.46
498.67	25872.28
498.85	25827.81
499.03	26333.37
499.20	25933.14
499.38	25921.43
499.56	26541.68
499.73	26576.78
499.91	26438.69
500.08	26377.84
500.26	26146.12
500.44	26195.28
500.61	26630.62
500.79	26639.98
500.97	26745.30
501.14	27225.11
501.32	27531.72
501.49	27058.93
501.67	27070.64
501.84	27431.08
502.02	27559.81
502.20	27784.50
502.37	27747.05
502.55	27653.43
502.72	27988.13
502.90	28453.89
503.07	27964.72
503.25	27770.46
503.43	28020.89
503.60	28130.90
503.78	28013.87
503.95	28166.01
504.13	28407.08
504.30	28809.65
504.48	28898.59
504.65	28982.85
504.83	29123.29
505.01	29486.07
505.18	29032.00
505.36	29717.78
505.53	29308.19
505.71	29624.16
505.88	29607.78
506.06	29509.47
506.23	29544.58
506.41	29673.31
506.58	29685.01
506.76	29748.21
506.93	29652.25
507.11	29846.51
507.28	30106.31
507.46	29853.53
507.63	30059.50
507.81	30059.50
507.98	29895.66
508.16	30167.16
508.33	30398.88
508.50	30836.56
508.68	30923.16
508.85	31267.22
509.03	30834.22
509.20	31189.98
509.38	31402.97
509.55	31225.09
509.73	31173.60
509.90	31524.68
510.08	31459.14
510.25	31807.88
510.42	31681.49
510.60	31934.27
510.77	32004.49
510.95	32278.33
511.12	31850.01
511.30	31842.99
511.47	32182.37
511.64	32020.87
511.82	32549.83
511.99	32266.63
512.17	32465.57
512.34	32329.82
512.51	32332.16
512.69	32673.88
512.86	32673.88
513.04	32863.46
513.21	32793.25
513.38	32699.62
513.56	32678.56
513.73	32863.46
513.90	33198.16
514.08	32739.41
514.25	33223.90
514.43	33160.71
514.60	33570.30
514.77	33336.25
514.95	33897.98
515.12	33376.04
515.29	33481.36
515.47	33816.06
515.64	33963.51
515.81	33535.20
515.99	33972.88
516.16	33624.14
516.33	33429.87
516.51	33600.73
516.68	33654.56
516.85	33462.64
517.03	33373.70
517.20	33727.12
517.37	34003.30
517.54	34466.73
517.72	34356.72
517.89	34101.61
518.06	34174.16
518.24	34513.54
518.41	34637.59
518.58	34288.85
518.75	34918.45
518.93	34841.21
519.10	34480.77
519.27	35009.73
519.45	35171.23
519.62	35393.58
519.79	35508.27
519.96	35386.56
520.14	35381.88
520.31	35351.45
520.48	35644.02
520.65	35503.59
520.83	36151.91
521.00	35618.27
521.17	36074.68
521.34	35742.32
521.52	36074.68
521.69	36109.78
521.86	36697.26
522.03	36325.11
522.20	36322.77
522.38	36453.84
522.55	36603.64
522.72	36364.90
522.89	36287.67
523.07	36744.07
523.24	36645.77
523.41	37113.87
523.58	37123.24
523.75	37560.92
523.92	37486.02
524.10	37481.34
524.27	37350.27
524.44	37127.92
524.61	37188.77
524.78	37450.91
524.96	37577.30
525.13	37666.24
525.30	37771.57
525.47	37979.87
525.64	37521.13
525.81	37691.99
525.98	37881.57
526.16	37111.53
526.33	37165.37
526.50	37518.79
526.67	37294.10
526.84	37312.82
527.01	37406.44
527.18	37975.19
527.36	38185.84
527.53	38319.25
527.70	38295.85
527.87	38274.78
528.04	38073.49
528.21	38548.62
528.38	38457.34
528.55	38801.40
528.72	39077.58
528.89	39026.09
529.07	39019.07
529.24	38586.07
529.41	38689.06
529.58	38583.73
529.75	39077.58
529.92	39133.76
530.09	38869.28
530.26	39339.72
530.43	39285.89
530.60	39063.54
530.77	39494.20
530.94	39409.94
531.11	39129.08
531.28	39438.03
531.46	39351.43
531.63	39431.01
531.80	39526.97
531.97	39636.97
532.14	39449.73
532.31	39159.50
532.48	39414.62
532.65	39592.50
532.82	39414.62
532.99	40034.86
533.16	39840.60
533.33	39456.75
533.50	39915.50
533.67	39920.18
533.84	40016.14
534.01	39971.67
534.18	40301.68
534.35	40669.15
534.52	40076.99
534.69	40861.07
534.86	40519.35
535.03	40247.85
535.20	40966.40
535.37	40903.20
535.54	41242.58
535.71	40844.69
535.88	41357.27
536.05	40849.37
536.22	41141.94
536.38	40919.59
536.55	41053.00
536.72	40657.45
536.89	40800.22
537.06	40912.56
537.23	41209.81
537.40	41453.23
537.57	40758.09
537.74	41343.22
537.91	41041.29
538.08	40968.74
538.25	40959.38
538.42	40994.48
538.59	41581.96
538.75	41422.80
538.92	41457.91
539.09	41507.06
539.26	41586.64
539.43	41614.72
539.60	41268.33
539.77	41219.17
539.94	41804.31
540.11	41663.88
540.28	41322.16
540.44	41420.46
540.61	41357.27
540.78	41752.82
540.95	41736.43
541.12	41216.83
541.29	41933.04
541.46	41902.61
541.62	42464.34
541.79	42195.18
541.96	41876.86
542.13	41954.10
542.30	42029.00
542.47	42356.67
542.63	42176.45
542.80	42693.71
542.97	42579.03
543.14	43054.15
543.31	42368.38
543.48	42749.88
543.64	43274.16
543.81	43058.84
543.98	42586.05
544.15	43040.11
544.32	43173.52
544.48	43047.13
544.65	42618.81
544.82	43501.20
544.99	42656.26
545.16	43576.09
545.32	42682.01
545.49	43398.21
545.66	43309.27
545.83	43248.42
546.00	43491.83
546.16	43515.24
546.33	43107.99
546.50	43042.45
546.67	43267.14
546.83	43016.71
547.00	43297.57
547.17	43217.99
547.34	42988.62
547.50	43835.89
547.67	43232.04
547.84	43253.10
548.00	43861.64
548.17	44105.06
548.34	43943.56
548.51	43648.65
548.67	44053.56
548.84	43725.89
549.01	43562.05
549.18	43718.87
549.34	43222.67
549.51	44025.48
549.68	44243.15
549.84	44058.24
550.01	44236.12
550.18	43931.86
550.34	43679.08
550.51	43849.94
550.68	44006.75
550.84	43945.90
551.01	44217.40
551.18	44289.96
551.34	44149.53
551.51	44470.18
551.68	43695.46
551.84	44531.03
552.01	44549.76
552.18	44280.60
552.34	44287.62
552.51	44545.08
552.68	44243.15
552.84	44666.78
553.01	44472.52
553.18	44552.10
553.34	44472.52
553.51	44210.38
553.67	44395.28
553.84	44430.39
554.01	44741.68
554.17	44870.41
554.34	45155.96
554.51	45041.27
554.67	44980.42
554.84	44783.81
555.00	44463.16
555.17	44612.95
555.33	44622.31
555.50	44163.57
555.67	44926.58
555.83	44828.28
556.00	44985.10
556.16	45411.07
556.33	44664.44
556.50	44729.98
556.66	45153.62
556.83	45038.93
556.99	45380.65
557.16	45228.51
557.32	45027.23
557.49	45193.40
557.65	44999.14
557.82	45233.19
557.98	45324.47
558.15	45294.05
558.32	44919.56
558.48	45024.89
558.65	45043.61
558.81	44830.62
558.98	45228.51
559.14	45172.34
559.31	45289.37
559.47	45319.79
559.64	45460.23
559.80	45675.55
559.97	45195.74
560.13	45284.68
560.30	45048.29
560.46	45481.29
560.63	45263.62
560.79	45703.64
560.96	45713.00
561.12	45338.52
561.29	45832.37
561.45	45546.82
561.61	45097.44
561.78	45453.20
561.94	45624.06
562.11	45460.23
562.27	45823.01
562.44	45612.36
562.60	45336.18
562.77	45684.92
562.93	45713.00
563.10	45811.31
563.26	45366.60
563.42	45710.66
563.59	45600.66
563.75	45528.10
563.92	45586.61
564.08	45904.93
564.24	45886.20
564.41	45684.92
564.57	45682.58
564.74	45839.39
564.90	45855.78
565.07	46106.21
565.23	45998.55
565.39	45656.83
565.56	45844.07
565.72	45663.85
565.88	46019.61
566.05	45380.65
566.21	46012.59
566.38	45574.91
566.54	46089.83
566.70	45893.22
566.87	46183.45
567.03	45902.59
567.19	46178.77
567.36	46281.75
567.52	45886.20
567.68	45837.05
567.85	45668.53
568.01	46129.62
568.17	45853.44
568.34	46387.08
568.50	46244.30
568.66	45935.35
568.83	45675.55
568.99	45909.61
569.15	45801.94
569.32	45869.82
569.48	45574.91
569.64	45970.46
569.81	45794.92
569.97	46131.96
570.13	45897.91
570.30	45610.02
570.46	45453.20
570.62	45610.02
570.78	45722.37
570.95	45928.33
571.11	46078.13
571.27	45731.73
571.43	45523.42
571.60	46157.70
571.76	46209.20
571.92	46024.29
572.09	45867.48
572.25	45546.82
572.41	46167.07
572.57	46124.94
572.74	46155.36
572.90	46141.32
573.06	46209.20
573.22	45846.41
573.38	46256.01
573.55	46040.68
573.71	46253.67
573.87	45989.19
574.03	45902.59
574.20	45923.65
574.36	45830.03
574.52	46438.57
574.68	46127.28
574.84	46211.54
575.01	46557.94
575.17	45804.28
575.33	45797.26
575.49	46108.55
575.65	46506.44
575.82	46401.12
575.98	46071.10
576.14	46176.43
576.30	46103.87
576.46	46164.73
576.62	46323.88
576.79	46312.18
576.95	46237.28
577.11	45783.22
577.27	46153.02
577.43	46408.14
577.59	45970.46
577.75	45825.35
577.92	45853.44
578.08	45855.78
578.24	45841.73
578.40	46162.39
578.56	46209.20
578.72	46312.18
578.88	46433.89
579.04	46401.12
579.21	46014.93
579.37	46256.01
579.53	45925.99
579.69	46075.79
579.85	45998.55
580.01	46295.80
580.17	46258.35
580.33	46342.61
580.49	46199.83
580.65	46089.83
580.82	46143.66
580.98	46099.19
581.14	46052.38
581.30	46597.73
581.46	46691.35
581.62	46431.55
581.78	46525.17
581.94	46286.43
582.10	46188.13
582.26	46349.63
582.42	46461.97
582.58	46246.65
582.74	46099.19
582.90	46080.47
583.06	46368.35
583.22	46501.76
583.38	46993.28
583.54	46424.53
583.70	46995.62
583.86	46358.99
584.02	46267.71
584.18	46520.49
584.34	46167.07
584.50	46138.98
584.66	46305.16
584.82	45975.14
584.98	46567.30
585.14	46513.47
585.30	46223.24
585.46	46412.82
585.62	45876.84
585.78	46075.79
585.94	45951.74
586.10	46550.91
586.26	46021.95
586.42	46761.56
586.58	46197.49
586.74	46602.41
586.90	46370.69
587.06	45722.37
587.22	46600.07
587.38	45991.53
587.54	46857.52
587.70	46525.17
587.86	46497.08
588.02	46433.89
588.18	46344.95
588.34	46550.91
588.49	45610.02
588.65	45764.49
588.81	45666.19
588.97	45928.33
589.13	45787.90
589.29	46370.69
589.45	46260.69
589.61	46171.75
589.77	46270.05
589.93	46677.30
590.08	46742.84
590.24	46382.40
590.40	46728.80
590.56	46747.52
590.72	46366.01
590.88	46131.96
591.04	46593.04
591.20	47028.38
591.35	46543.89
591.51	46768.58
591.67	46897.31
591.83	46590.70
591.99	46291.12
592.15	46838.80
592.31	46724.11
592.46	46672.62
592.62	46487.72
592.78	46300.48
592.94	46160.05
593.10	46295.80
593.26	46653.90
593.41	46328.56
593.57	46124.94
593.73	46321.54
593.89	46391.76
594.05	46440.91
594.20	46246.65
594.36	46143.66
594.52	46335.59
594.68	46403.46
594.84	46429.21
594.99	46707.73
595.15	46490.06
595.31	46553.26
595.47	46614.11
595.62	46663.26
595.78	46705.39
595.94	46761.56
596.10	46789.65
596.25	46904.34
596.41	46176.43
596.57	46621.13
596.73	46543.89
596.88	46314.52
597.04	46267.71
597.20	46773.27
597.36	46506.44
597.51	46981.57
597.67	46848.16
597.83	46719.43
597.99	46665.60
598.14	46553.26
598.30	46890.29
598.46	46539.21
598.61	46478.36
598.77	46241.96
598.93	46038.34
599.09	46693.69
599.24	47194.56
599.40	46625.81
599.56	46962.85
599.71	46164.73
599.87	46892.63
600.03	46370.69
600.18	46223.24
600.34	46171.75
600.50	46810.71
600.65	46270.05
600.81	46293.46
600.97	46656.24
601.12	46803.69
601.28	46595.38
601.44	46344.95
601.59	46281.75
601.75	46375.37
601.91	46476.02
602.06	46164.73
602.22	46527.51
602.37	46410.48
602.53	46579.00
602.69	46644.54
602.84	46373.03
603.00	46560.28
603.16	46206.86
603.31	46534.53
603.47	46628.15
603.62	46323.88
603.78	46520.49
603.94	46866.89
604.09	46698.37
604.25	46679.64
604.40	46321.54
604.56	46607.09
604.71	46674.96
604.87	46401.12
605.03	46129.62
605.18	46335.59
605.34	46438.57
605.49	45844.07
605.65	46616.45
605.80	46773.27
605.96	46494.74
606.12	46354.31
606.27	46377.72
606.43	46616.45
606.58	46836.46
606.74	46096.85
606.89	46284.09
607.05	46597.73
607.20	46546.23
607.36	46532.19
607.51	46424.53
607.67	45710.66
607.82	46426.87
607.98	46162.39
608.13	46248.99
608.29	46014.93
608.44	45886.20
608.60	46085.15
608.75	46050.04
608.91	45876.84
609.06	46010.25
609.22	46459.63
609.37	45614.70
609.53	46209.20
609.68	46031.32
609.84	45808.96
609.99	46028.98
610.15	45738.75
610.30	46005.57
610.46	45532.78
610.61	45317.45
610.76	45745.77
610.92	46031.32
611.07	46223.24
611.23	46485.38
611.38	45907.27
611.54	45455.54
611.69	45457.88
611.84	45507.04
612.00	45729.39
612.15	45237.87
612.31	45504.70
612.46	45132.55
612.62	45799.60
612.77	45696.62
612.92	46017.27
613.08	45605.34
613.23	45382.99
613.39	45132.55
613.54	45008.50
613.69	45668.53
613.85	45535.12
614.00	45544.48
614.15	45441.50
614.31	45705.98
614.46	45766.84
614.62	45668.53
614.77	45179.36
614.92	45361.92
615.08	45406.39
615.23	45095.10
615.38	45153.62
615.54	45045.95
615.69	45221.49
615.84	44987.44
616.00	45275.32
616.15	45146.59
616.30	45153.62
616.46	45071.70
616.61	45050.63
616.76	44954.67
616.92	44896.16
617.07	44774.45
617.22	44612.95
617.37	44484.22
617.53	45111.49
617.68	45177.02
617.83	45317.45
617.99	45518.74
618.14	44781.47
618.29	44486.56
618.45	44533.37
618.60	44713.59
618.75	44842.32
618.90	44992.12
619.06	44891.48
619.21	45095.10
619.36	44746.36
619.51	44362.51
619.67	44250.17
619.82	44484.22
619.97	44811.90
620.12	44378.90
620.28	44179.95
620.43	44081.65
620.58	44357.83
620.73	44467.84
620.89	44414.01
621.04	44589.55
621.19	44285.28
621.34	44509.97
621.49	44170.59
621.65	43793.76
621.80	44086.33
621.95	44065.27
622.10	44165.91
622.25	43590.14
622.41	43578.43
622.56	44048.88
622.71	44182.29
622.86	43611.20
623.01	43936.54
623.16	43505.88
623.32	43831.21
623.47	43833.55
623.62	43798.44
623.77	43761.00
623.92	44168.25
624.07	44039.52
624.23	43835.89
624.38	43454.39
624.53	43529.28
624.68	43634.61
624.83	43807.81
624.98	43606.52
625.13	43435.66
625.29	43491.83
625.44	43178.20
625.59	43335.02
625.74	43339.70
625.89	43131.39
626.04	42824.78
626.19	43105.65
626.34	42815.42
626.49	43590.14
626.65	43592.48
626.80	43817.17
626.95	43232.04
627.10	43566.73
627.25	43005.00
627.40	42930.11
627.55	42677.33
627.70	42225.60
627.85	42696.05
628.00	42939.47
628.15	42953.51
628.30	42775.63
628.45	43189.91
628.60	43222.67
628.76	42749.88
628.91	42974.58
629.06	42740.52
629.21	42480.72
629.36	42183.48
629.51	42768.61
629.66	42202.20
629.81	42401.14
629.96	42581.37
630.11	42590.73
630.26	42995.64
630.41	43110.33
630.56	42518.17
630.71	42679.67
630.86	42211.56
631.01	42064.11
631.16	41933.04
631.31	42061.77
631.46	42153.05
631.61	42330.93
631.76	42232.63
631.91	42539.24
632.06	42471.36
632.21	42770.95
632.36	42714.78
632.51	42057.09
632.66	42106.24
632.81	41706.01
632.96	41907.29
633.10	42110.92
633.25	41846.44
633.40	41759.84
633.55	42106.24
633.70	41991.55
633.85	42127.30
634.00	41867.50
634.15	42061.77
634.30	41918.99
634.45	41759.84
634.60	41757.50
634.75	41680.26
634.90	41886.23
635.05	41827.71
635.19	41738.77
635.34	41830.05
635.49	41640.47
635.64	41591.32
635.79	41387.69
635.94	41619.41
636.09	41628.77
636.24	41635.79
636.39	41127.89
636.53	41284.71
636.68	41518.76
636.83	41090.44
636.98	41614.72
637.13	40959.38
637.28	41549.19
637.43	41249.60
637.57	41411.10
637.72	41406.42
637.87	41071.72
638.02	41371.31
638.17	41177.04
638.32	41081.08
638.46	41366.63
638.61	41233.22
638.76	40837.67
638.91	41352.58
639.06	40982.78
639.20	41277.69
639.35	41406.42
639.50	41163.00
639.65	41212.15
639.80	40982.78
639.94	41074.06
640.09	40762.77
640.24	40938.31
640.39	40542.76
640.54	40484.25
640.68	40790.86
640.83	40072.31
640.98	40170.61
641.13	40517.01
641.27	40629.36
641.42	40194.02
641.57	40451.48
641.72	40444.46
641.86	39840.60
642.01	40404.67
642.16	40140.19
642.31	40201.04
642.45	40240.83
642.60	40203.38
642.75	40479.57
642.90	40835.33
643.04	40177.64
643.19	40364.88
643.34	40435.10
643.48	40226.79
643.63	40271.26
643.78	39742.30
643.93	39927.20
644.07	40065.29
644.22	40048.91
644.37	39590.16
644.51	39976.35
644.66	40130.83
644.81	40189.34
644.95	40275.94
645.10	39660.38
645.25	39648.68
645.39	40149.55
645.54	40133.17
645.69	39878.05
645.83	39793.79
645.98	40215.08
646.13	39990.39
646.27	39653.36
646.42	39856.98
646.57	39255.46
646.71	39641.65
646.86	39744.64
647.00	39929.54
647.15	39620.59
647.30	39379.51
647.44	39283.55
647.59	39297.59
647.74	39550.37
647.88	39639.31
648.03	39861.66
648.17	39405.26
648.32	39283.55
648.47	39196.95
648.61	39208.65
648.76	39636.97
648.90	40011.46
649.05	39562.08
649.20	39529.31
649.34	39423.98
649.49	38909.07
649.63	38799.06
649.78	39035.45
649.92	39068.22
650.07	39147.80
650.21	38356.70
650.36	39416.96
650.51	39037.80
650.65	39227.38
650.80	39400.58
650.94	39372.49
651.09	38930.13
651.23	38941.83
651.38	38555.64
651.52	38749.91
651.67	38527.56
651.81	38366.06
651.96	38513.52
652.10	38401.17
652.25	38394.15
652.39	38806.08
652.54	38469.04
652.68	38845.87
652.83	38768.63
652.97	39061.20
653.12	38852.89
653.26	38611.82
653.41	38639.90
653.55	38485.43
653.70	38630.54
653.84	38012.64
653.99	38188.18
654.13	38377.76
654.27	38132.01
654.42	38057.11
654.56	37869.87
654.71	38560.33
654.85	38260.74
655.00	38101.58
655.14	37523.47
655.29	37893.27
655.43	38192.86
655.57	37942.42
655.72	37806.67
655.86	37453.25
656.01	37301.12
656.15	37528.15
656.30	37572.62
656.44	37191.11
656.58	37621.77
656.73	37762.20
656.87	37628.79
657.01	37778.59
657.16	37825.40
657.30	37331.54
657.45	37205.16
657.59	37301.12
657.73	37179.41
657.88	37867.53
658.02	38045.41
658.16	37839.44
658.31	38113.28
658.45	37743.48
658.60	37221.54
658.74	37806.67
658.88	37043.66
659.03	37237.92
659.17	37106.85
659.31	37202.82
659.46	37078.77
659.60	37148.98
659.74	37479.00
659.89	36720.66
660.03	36821.31
660.17	37036.64
660.32	37139.62
660.46	37282.39
660.60	36746.41
660.74	36842.37
660.89	36699.60
661.03	36362.56
661.17	36449.16
661.32	36744.07
661.46	36652.79
661.60	36517.04
661.74	36376.61
661.89	36336.82
662.03	36474.91
662.17	36114.47
662.31	36273.62
662.46	36596.62
662.60	36243.20
662.74	36119.15
662.88	35786.79
663.03	35599.55
663.17	35737.64
663.31	35388.90
663.45	35679.13
663.60	35342.09
663.74	35990.42
663.88	36147.23
664.02	35440.39
664.17	35814.88
664.31	35505.93
664.45	35667.42
664.59	35658.06
664.73	35229.74
664.88	35978.72
665.02	35093.99
665.16	35419.33
665.30	35379.54
665.44	34878.66
665.59	34918.45
665.73	34925.47
665.87	34656.31
666.01	34845.90
666.15	35098.67
666.29	34705.46
666.44	34693.76
666.58	35136.12
666.72	34789.72
666.86	35030.80
667.00	34899.73
667.14	34443.32
667.28	34162.46
667.43	34265.44
667.57	34279.49
667.71	34206.93
667.85	34146.08
667.99	34036.07
668.13	33909.68
668.27	33837.12
668.41	33989.26
668.56	33837.12
668.70	34391.83
668.84	34052.45
668.98	33663.93
669.12	33521.15
669.26	33890.96
669.40	33795.00
669.54	33378.38
669.68	33603.07
669.82	33202.84
669.96	33354.97
670.10	33270.72
670.25	33670.95
670.39	33242.63
670.53	33060.07
670.67	33514.13
670.81	33069.43
670.95	33174.75
671.09	33118.58
671.23	33205.18
671.37	33380.72
671.51	32753.46
671.65	32624.73
671.79	32229.18
671.93	32219.81
672.07	33010.92
672.21	32584.94
672.35	32444.51
672.49	32772.18
672.63	32627.07
672.77	32716.01
672.91	32606.00
673.05	32549.83
673.19	31981.08
673.33	31906.18
673.47	31772.77
673.61	31857.03
673.75	31665.11
673.89	31484.89
674.03	31402.97
674.17	31384.24
674.31	31531.70
674.45	31445.10
674.59	31264.88
674.73	31435.74
674.87	31140.83
675.01	31250.83
675.15	31285.94
675.29	31150.19
675.43	31122.10
675.56	30988.69
675.70	31117.42
675.84	30539.31
675.98	29816.08
676.12	30522.93
676.26	30572.08
676.40	30583.78
676.54	30553.35
676.68	30707.83
676.82	29811.40
676.96	30251.42
677.10	30127.38
677.23	29851.19
677.37	29621.82
677.51	29806.72
677.65	29778.64
677.79	29303.51
677.93	29553.94
678.07	29680.33
678.21	28842.42
678.34	28767.52
678.48	28924.34
678.62	28835.40
678.76	29015.62
678.90	28720.71
679.04	28673.90
679.18	28573.26
679.31	28694.97
679.45	27964.72
679.59	28404.74
679.73	27969.40
679.87	28175.37
680.00	28112.17
680.14	27997.49
680.28	27974.08
680.42	27814.93
680.56	27938.97
680.70	28016.21
680.83	27906.21
680.97	27803.22
681.11	27707.26
681.25	27075.32
681.39	27204.05
681.52	27513.00
681.66	27297.67
681.80	27185.32
681.94	26979.36
682.07	26651.68
682.21	26740.62
682.35	26888.07
682.49	27110.43
682.62	26644.66
682.76	26621.25
682.90	26588.49
683.04	26260.81
683.17	26237.41
683.31	25883.98
683.45	26270.17
683.59	25795.04
683.72	25905.05
683.86	25834.83
684.00	25783.34
684.13	25551.63
684.27	25542.27
684.41	25511.84
684.55	25050.75
684.68	25135.01
684.82	25240.34
684.96	25027.35
685.09	25170.12
685.23	24744.14
685.37	24964.15
685.50	24863.51
685.64	24793.29
685.78	24563.92
685.91	24463.28
686.05	24400.08
686.19	23796.23
686.32	23812.61
686.46	23864.10
686.60	23632.39
686.73	23407.70
686.87	23438.12
687.01	23459.19
687.14	23101.09
687.28	23604.30
687.42	23171.30
687.55	23192.37
687.69	23496.64
687.82	23040.23
687.96	23356.21
688.10	22897.46
688.23	22719.58
688.37	22750.01
688.50	22614.26
688.64	22693.83
688.78	22733.62
688.91	22548.72
689.05	22408.29
689.18	22429.35
689.32	21963.59
689.46	22155.51
689.59	22274.88
689.73	22253.81
689.86	22010.40
690.00	21975.29
690.13	21659.32
690.27	21802.09
690.41	21656.98
690.54	21221.64
690.68	21357.39
690.81	21680.38
690.95	21263.77
691.08	21348.03
691.22	21359.73
691.35	21448.67
691.49	21371.43
691.62	21181.85
691.76	20655.23
691.89	20917.37
692.03	20898.64
692.16	20507.77
692.30	20376.70
692.43	20430.54
692.57	20156.69
692.70	20407.13
692.84	20208.19
692.97	20023.28
693.11	20051.37
693.24	20046.69
693.38	19770.51
693.51	19873.49
693.65	19667.52
693.78	20002.22
693.92	19751.78
694.05	19681.56
694.19	19321.12
694.32	19288.35
694.45	19243.88
694.59	19129.20
694.72	19276.65
694.86	19321.12
694.99	18904.51
695.13	19126.86
695.26	18588.53
695.39	18642.37
695.53	18766.42
695.66	18623.64
695.80	18787.48
695.93	18630.66
696.07	18471.51
696.20	18387.25
696.33	18415.34
696.47	18223.41
696.60	18230.43
696.73	17961.27
696.87	17720.20
697.00	18026.81
697.14	18036.17
697.27	18092.34
697.40	17811.48
697.54	17813.82
697.67	17535.29
697.80	17266.13
697.94	17186.55
698.07	17053.14
698.21	17273.15
698.34	17362.09
698.47	16919.73
698.61	16648.23
698.74	16732.49
698.87	16973.56
699.01	16460.99
699.14	16336.94
699.27	16332.26
699.40	16563.97
699.54	16444.60
699.67	16079.48
699.80	16528.86
699.94	16154.38
700.07	16154.38
700.20	16163.74
700.34	15875.85
700.47	15786.91
700.60	16058.42
700.73	16292.47
700.87	15772.87
701.00	15676.91
701.13	15882.88
701.26	15529.45
701.40	15644.14
701.53	15454.56
701.66	15627.76
701.79	15276.68
701.93	15124.54
702.06	15311.78
702.19	14967.73
702.32	15056.67
702.46	15005.17
702.59	14817.93
702.72	14724.31
702.85	14792.19
702.99	14988.79
703.12	14661.12
703.25	14546.43
703.38	14382.59
703.51	14504.30
703.65	14413.02
703.78	14204.71
703.91	14012.79
704.04	13902.78
704.17	14200.03
704.31	14045.55
704.44	14010.45
704.57	13919.17
704.70	13764.69
704.83	13827.88
704.96	13771.71
705.10	13963.64
705.23	13788.10
>>>>>End Processed Spectral Data<<<<<
