SpectraSuite Data File
++++++++++++++++++++++++++++++++++++
Date: Fri Oct 25 10:47:11 EDT 2013
User: price-jones
Dark Spectrum Present: No
Reference Spectrum Present: No
Number of Sampled Component Spectra: 1
Spectrometers: USB2+H05261
Integration Time (usec): 100000 (USB2+H05261)
Spectra Averaged: 1 (USB2+H05261)
Boxcar Smoothing: 0 (USB2+H05261)
Correct for Electrical Dark: No (USB2+H05261)
Strobe/Lamp Enabled: No (USB2+H05261)
Correct for Detector Non-linearity: No (USB2+H05261)
Correct for Stray Light: No (USB2+H05261)
Number of Pixels in Processed Spectrum: 2048
>>>>>Begin Processed Spectral Data<<<<<
365.73	159.16
365.92	159.16
366.12	159.16
366.32	81.92
366.52	7.02
366.72	32.77
366.91	51.49
367.11	65.54
367.31	0.00
367.51	51.49
367.70	58.51
367.90	100.64
368.10	70.22
368.30	58.51
368.49	18.72
368.69	102.98
368.89	65.54
369.09	95.96
369.28	147.45
369.48	0.00
369.68	102.98
369.87	112.35
370.07	95.96
370.27	163.84
370.47	177.88
370.66	369.80
370.86	355.76
371.06	454.06
371.25	463.43
371.45	430.66
371.65	526.62
371.84	425.98
372.04	498.53
372.24	409.59
372.44	489.17
372.63	580.45
372.83	416.62
373.03	543.00
373.22	449.38
373.42	451.72
373.62	566.41
373.81	528.96
374.01	517.26
374.21	519.60
374.40	505.56
374.60	484.49
374.79	528.96
374.99	465.77
375.19	592.16
375.38	624.92
375.58	528.96
375.78	615.56
375.97	538.32
376.17	620.24
376.37	554.71
376.56	629.60
376.76	554.71
376.95	636.63
377.15	624.92
377.35	528.96
377.54	667.05
377.74	608.54
377.93	641.31
378.13	631.94
378.33	629.60
378.52	575.77
378.72	634.29
378.91	550.03
379.11	564.07
379.31	653.01
379.50	613.22
379.70	645.99
379.89	695.14
380.09	695.14
380.28	589.82
380.48	615.56
380.68	610.88
380.87	585.13
381.07	685.78
381.26	690.46
381.46	702.16
381.65	690.46
381.85	650.67
382.04	594.50
382.24	648.33
382.43	620.24
382.63	704.50
382.83	664.71
383.02	716.20
383.22	669.39
383.41	669.39
383.61	760.67
383.80	688.12
384.00	702.16
384.19	690.46
384.39	671.73
384.58	709.18
384.78	718.54
384.97	737.27
385.17	706.84
385.36	711.52
385.56	816.85
385.75	786.42
385.95	788.76
386.14	777.06
386.34	727.91
386.53	788.76
386.72	781.74
386.92	814.51
387.11	767.70
387.31	835.57
387.50	819.19
387.70	746.63
387.89	868.34
388.09	814.51
388.28	800.46
388.48	805.14
388.67	938.55
388.86	884.72
389.06	894.08
389.25	880.04
389.45	931.53
389.64	950.26
389.84	894.08
390.03	929.19
390.22	891.74
390.42	805.14
390.61	877.70
390.81	915.15
391.00	917.49
391.19	973.66
391.39	945.58
391.58	889.40
391.78	870.68
391.97	1029.84
392.16	908.13
392.36	898.77
392.55	950.26
392.75	917.49
392.94	940.90
393.13	954.94
393.33	1006.43
393.52	985.37
393.71	1018.13
393.91	968.98
394.10	929.19
394.29	1039.20
394.49	1069.62
394.68	1137.50
394.88	1156.22
395.07	1020.47
395.26	1137.50
395.46	1001.75
395.65	1151.54
395.84	1149.20
396.04	1172.61
396.23	1081.33
396.42	1198.35
396.62	1130.48
396.81	1203.04
397.00	1104.73
397.19	1139.84
397.39	1090.69
397.58	1170.27
397.77	1158.57
397.97	1207.72
398.16	1226.44
398.35	1357.51
398.55	1163.25
398.74	1266.23
398.93	1324.74
399.12	1226.44
399.32	1235.80
399.51	1219.42
399.70	1362.19
399.90	1376.24
400.09	1404.32
400.28	1289.64
400.47	1301.34
400.67	1394.96
400.86	1406.66
401.05	1376.24
401.24	1453.47
401.44	1437.09
401.63	1516.67
401.82	1425.39
402.01	1399.64
402.21	1444.11
402.40	1511.99
402.59	1493.26
402.78	1535.39
402.97	1514.33
403.17	1593.90
403.36	1467.52
403.55	1572.84
403.74	1612.63
403.93	1572.84
404.13	1678.16
404.32	1586.88
404.51	1551.78
404.70	1645.40
404.89	1565.82
405.09	1673.48
405.28	1605.61
405.47	1624.33
405.66	1664.12
405.85	1729.66
406.05	1645.40
406.24	1802.21
406.43	1809.23
406.62	1769.44
406.81	1809.23
407.00	1764.76
407.20	1769.44
407.39	1767.10
407.58	1839.66
407.77	1820.94
407.96	1888.81
408.15	1888.81
408.34	1827.96
408.54	1902.86
408.73	1937.96
408.92	1980.09
409.11	1982.43
409.30	1898.17
409.49	1940.30
409.68	2031.58
409.87	2026.90
410.07	2036.27
410.26	2012.86
410.45	1989.46
410.64	2085.42
410.83	2127.55
411.02	2120.53
411.21	2188.40
411.40	2214.15
411.59	2314.79
411.78	2258.62
411.98	2289.04
412.17	2218.83
412.36	2265.64
412.55	2417.77
412.74	2270.32
412.93	2352.24
413.12	2448.20
413.31	2555.86
413.50	2399.05
413.69	2466.92
413.88	2665.87
414.07	2495.01
414.26	2516.08
414.45	2471.61
414.64	2429.48
414.83	2609.70
415.02	2663.53
415.22	2530.12
415.41	2775.88
415.60	2605.02
415.79	2649.49
415.98	2874.18
416.17	2846.09
416.36	2890.56
416.55	2867.16
416.74	2743.11
416.93	2860.13
417.12	2822.69
417.31	2829.71
417.50	2832.05
417.69	3045.04
417.88	2878.86
418.07	2998.23
418.26	2928.01
418.45	3005.25
418.64	3117.59
418.83	3103.55
419.02	3080.14
419.21	3323.56
419.39	3094.19
419.58	3035.67
419.77	3016.95
419.96	3199.51
420.15	3300.16
420.34	3220.58
420.53	3222.92
420.72	3258.03
420.91	3325.90
421.10	3272.07
421.29	3407.82
421.48	3222.92
421.67	3342.28
421.86	3309.52
422.05	3342.28
422.24	3274.41
422.43	3321.22
422.61	3445.27
422.80	3471.01
422.99	3356.33
423.18	3517.83
423.37	3494.42
423.56	3428.88
423.75	3372.71
423.94	3407.82
424.13	3173.77
424.32	3314.20
424.50	3538.89
424.69	3590.38
424.88	3583.36
425.07	3442.93
425.26	3438.25
425.45	3447.61
425.64	3321.22
425.83	3419.52
426.01	3494.42
426.20	3506.12
426.39	3445.27
426.58	3559.95
426.77	3454.63
426.96	3566.98
427.15	3545.91
427.33	3604.42
427.52	3548.25
427.71	3632.51
427.90	3630.17
428.09	3791.67
428.28	3627.83
428.46	3592.72
428.65	3627.83
428.84	3705.07
429.03	3904.01
429.22	3632.51
429.40	3723.79
429.59	3655.92
429.78	3749.54
429.97	3562.30
430.16	3719.11
430.34	3611.45
430.53	3779.97
430.72	3859.54
430.91	3812.73
431.10	3698.05
431.28	4018.70
431.47	3988.27
431.66	4051.47
431.85	4004.66
432.03	4117.00
432.22	4102.96
432.41	4023.38
432.60	4217.65
432.79	4072.53
432.97	4133.39
433.16	4145.09
433.35	4135.73
433.54	4065.51
433.72	4175.52
433.91	4166.15
434.10	4400.21
434.28	4189.56
434.47	4236.37
434.66	4231.69
434.85	4510.21
435.03	4285.52
435.22	4404.89
435.41	4503.19
435.59	4454.04
435.78	4468.08
435.97	4475.10
436.16	4615.54
436.34	4510.21
436.53	4573.41
436.72	4615.54
436.90	4435.32
437.09	4613.20
437.28	4493.83
437.46	4739.58
437.65	4638.94
437.84	4617.88
438.02	4533.62
438.21	4709.16
438.40	4507.87
438.58	4800.44
438.77	4758.31
438.96	4718.52
439.14	4910.44
439.33	5036.83
439.52	4990.02
439.70	5090.67
439.89	4922.15
440.08	5001.72
440.26	5011.09
440.45	5121.09
440.63	4966.62
440.82	5203.01
441.01	5198.33
441.19	5296.63
441.38	5341.10
441.57	5343.44
441.75	5385.57
441.94	5479.19
442.12	5544.73
442.31	5523.66
442.50	5614.95
442.68	5767.08
442.87	5516.64
443.05	5544.73
443.24	5643.03
443.43	5467.49
443.61	5453.45
443.80	5865.38
443.98	5530.69
444.17	5364.51
444.35	5788.14
444.54	5788.14
444.73	5664.10
444.91	5633.67
445.10	5694.52
445.28	5760.06
445.47	5717.93
445.65	5636.01
445.84	5743.67
446.02	5872.40
446.21	5771.76
446.39	5760.06
446.58	6033.90
446.77	5703.89
446.95	5811.55
447.14	5809.21
447.32	5973.05
447.51	5874.74
447.69	5844.32
447.88	5916.87
448.06	5778.78
448.25	5975.39
448.43	5783.46
448.62	5823.25
448.80	5863.04
448.99	5891.13
449.17	5940.28
449.36	6197.74
449.54	6069.01
449.73	6120.50
449.91	6136.88
450.10	6237.53
450.28	6296.04
450.46	6239.87
450.65	6239.87
450.83	6300.72
451.02	6359.24
451.20	6230.51
451.39	6366.26
451.57	6193.06
451.76	6282.00
451.94	6179.01
452.13	6345.19
452.31	6384.98
452.49	6115.82
452.68	6401.37
452.86	6253.91
453.05	6387.32
453.23	6640.10
453.42	6312.42
453.60	6422.43
453.78	6621.38
453.97	6410.73
454.15	6602.65
454.34	6445.84
454.52	6682.23
454.70	6579.25
454.89	6616.69
455.07	6558.18
455.26	6675.21
455.44	6670.53
455.62	6712.66
455.81	6719.68
455.99	6712.66
456.17	6813.30
456.36	7080.12
456.54	6806.28
456.73	6874.15
456.91	7169.06
457.09	7005.22
457.28	7187.79
457.46	7056.72
457.64	7236.94
457.83	7192.47
458.01	7030.97
458.19	7272.04
458.38	7318.86
458.56	7206.51
458.74	7265.02
458.93	7218.21
459.11	7386.73
459.29	7309.49
459.48	7424.18
459.66	7321.20
459.84	7325.88
460.03	7616.10
460.21	7520.14
460.39	7438.22
460.57	7644.19
460.76	7625.47
460.94	7653.55
461.12	7588.02
461.31	7637.17
461.49	7599.72
461.67	7496.74
461.85	7756.54
462.04	7602.06
462.22	8142.72
462.40	7913.35
462.59	7946.12
462.77	7915.69
462.95	7847.82
463.13	7845.48
463.32	7896.97
463.50	7878.24
463.68	8028.04
463.86	8116.98
464.05	7796.32
464.23	8074.85
464.41	8037.40
464.59	7756.54
464.78	8124.00
464.96	8060.80
465.14	8147.40
465.32	8184.85
465.50	8215.28
465.69	8262.09
465.87	8116.98
466.05	8168.47
466.23	8058.46
466.41	8004.63
466.60	8549.98
466.78	8163.79
466.96	8346.35
467.14	8210.60
467.32	8456.36
467.51	8311.24
467.69	8276.13
467.87	8280.82
468.05	8365.07
468.23	8276.13
468.41	8475.08
468.60	8269.11
468.78	8571.04
468.96	8454.02
469.14	8528.91
469.32	8629.56
469.50	8486.78
469.69	8702.11
469.87	8662.32
470.05	8830.84
470.23	8690.41
470.41	8753.60
470.59	8933.82
470.77	9041.49
470.95	8861.27
471.14	9064.89
471.32	8908.08
471.50	9062.55
471.68	9067.24
471.86	9188.94
472.04	9121.07
472.22	9561.09
472.40	8980.64
472.58	9242.78
472.77	9336.40
472.95	9362.14
473.13	9706.20
473.31	9336.40
473.49	9352.78
473.67	9385.55
473.85	9310.65
474.03	9872.38
474.21	9572.79
474.39	9935.57
474.57	9767.06
474.75	9996.43
474.93	9888.76
475.12	10008.13
475.30	10174.31
475.48	9900.47
475.66	10150.90
475.84	10113.45
476.02	10284.31
476.20	10211.76
476.38	10450.49
476.56	10555.82
476.74	10600.29
476.92	10399.00
477.10	10611.99
477.28	10609.65
477.46	10590.92
477.64	10803.91
477.82	11012.22
478.00	11185.42
478.18	10995.84
478.36	11248.61
478.54	11463.94
478.72	11496.71
478.90	11515.44
479.08	11548.20
479.26	11733.11
479.44	11920.35
479.62	11690.98
479.80	12051.42
479.98	12009.29
480.16	12400.16
480.34	11960.14
480.52	12320.58
480.70	12559.31
480.88	12248.02
481.06	12372.07
481.24	12606.13
481.41	12720.81
481.59	12655.28
481.77	12786.35
481.95	12741.88
482.13	13114.02
482.31	13018.06
482.49	13329.35
482.67	13460.42
482.85	13338.71
483.03	13556.38
483.21	13392.55
483.39	13811.50
483.57	13914.48
483.74	13916.83
483.92	14176.62
484.10	13785.76
484.28	14221.10
484.46	14303.01
484.64	14843.68
484.82	14347.48
485.00	14513.66
485.18	14831.97
485.35	14724.31
485.53	14785.16
485.71	14651.75
485.89	15047.30
486.07	14864.74
486.25	15122.20
486.43	15517.75
486.61	15510.73
486.78	15466.26
486.96	15793.94
487.14	16245.66
487.32	16133.31
487.50	16137.99
487.68	16212.89
487.85	16620.14
488.03	16575.67
488.21	16816.75
488.39	16439.92
488.57	16837.81
488.75	16840.15
488.92	17296.56
489.10	17380.82
489.28	17404.22
489.46	17774.03
489.64	17568.06
489.81	18052.55
489.99	18195.32
490.17	18443.42
490.35	18305.33
490.53	18169.58
490.70	18506.62
490.88	18609.60
491.06	18860.04
491.24	18841.31
491.41	18771.10
491.59	18743.01
491.77	18883.44
491.95	19150.26
492.13	19199.41
492.30	19300.06
492.48	19704.97
492.66	19840.72
492.84	19786.89
493.01	19836.04
493.19	20042.01
493.37	20219.89
493.54	20311.17
493.72	20554.58
493.90	20596.71
494.08	20776.94
494.25	20786.30
494.43	20725.44
494.61	21013.33
494.79	20975.88
494.96	21022.69
495.14	20999.29
495.32	21523.57
495.49	21245.04
495.67	21689.74
495.85	21701.45
496.02	21788.05
496.20	21905.07
496.38	22214.02
496.55	22270.20
496.73	22768.73
496.91	22464.46
497.09	22544.04
497.26	22742.99
497.44	22607.23
497.62	23168.96
497.79	22836.61
497.97	22801.50
498.14	23239.18
498.32	23119.81
498.50	23426.42
498.67	23728.35
498.85	23489.62
499.03	23819.63
499.20	24051.34
499.38	23875.80
499.56	24107.52
499.73	23948.36
499.91	24652.86
500.08	24107.52
500.26	23917.93
500.44	24285.40
500.61	24360.30
500.79	24379.02
500.97	24613.07
501.14	24980.54
501.32	25008.62
501.49	24624.78
501.67	24753.51
501.84	24886.92
502.02	25097.56
502.20	25446.30
502.37	25329.28
502.55	25209.91
502.72	25355.02
502.90	25631.21
503.07	25568.01
503.25	25315.23
503.43	25649.93
503.60	25823.13
503.78	25813.77
503.95	25827.81
504.13	25771.64
504.30	26003.35
504.48	26586.15
504.65	26036.12
504.83	26686.79
505.01	26555.72
505.18	26757.00
505.36	27019.14
505.53	26450.39
505.71	27168.94
505.88	27318.73
506.06	26820.20
506.23	27094.04
506.41	26869.35
506.58	27260.22
506.76	27278.94
506.93	26998.08
507.11	27718.96
507.28	27555.13
507.46	27641.73
507.63	27447.46
507.81	27754.07
507.98	27775.14
508.16	27782.16
508.33	27931.95
508.50	28072.39
508.68	28402.40
508.85	28484.32
509.03	27906.21
509.20	28568.58
509.38	28638.80
509.55	28783.91
509.73	28835.40
509.90	28760.50
510.08	28800.29
510.25	28613.05
510.42	28774.55
510.60	29298.83
510.77	28922.00
510.95	29242.65
511.12	29214.57
511.30	29593.73
511.47	29631.18
511.64	29570.33
511.82	29558.63
511.99	29827.79
512.17	29666.29
512.34	30015.03
512.51	29907.37
512.69	30052.48
512.86	29724.80
513.04	30115.67
513.21	30398.88
513.38	30433.99
513.56	30146.10
513.73	30115.67
513.90	30632.93
514.08	30639.95
514.25	30717.19
514.43	30747.62
514.60	30291.21
514.77	30654.00
514.95	31147.85
515.12	30902.09
515.29	30871.67
515.47	31175.94
515.64	31377.22
515.81	31363.18
515.99	31363.18
516.16	31393.61
516.33	31262.54
516.51	31384.24
516.68	31264.88
516.85	31232.11
517.03	31569.15
517.20	31552.76
517.37	31770.43
517.54	31779.79
517.72	32137.90
517.89	31700.22
518.06	31618.30
518.24	31952.99
518.41	32041.93
518.58	31784.48
518.75	32039.59
518.93	32620.05
519.10	32378.97
519.27	32589.62
519.45	32151.94
519.62	32535.79
519.79	32811.97
519.96	32519.40
520.14	33228.59
520.31	32549.83
520.48	33106.88
520.65	33008.58
520.83	33247.31
521.00	33179.43
521.17	33202.84
521.34	33336.25
521.52	33699.03
521.69	33598.39
521.86	33401.79
522.03	33544.56
522.20	33752.87
522.38	33942.45
522.55	33539.88
522.72	33928.41
522.89	33900.32
523.07	34017.35
523.24	34092.24
523.41	34094.58
523.58	33825.42
523.75	34433.96
523.92	34501.84
524.10	34623.54
524.27	34499.50
524.44	34504.18
524.61	34450.35
524.78	34916.11
524.96	34705.46
525.13	34817.81
525.30	35271.87
525.47	35318.68
525.64	35035.48
525.81	35204.00
525.98	34911.43
526.16	34939.52
526.33	35115.06
526.50	35662.74
526.67	35388.90
526.84	35278.89
527.01	35194.64
527.18	35416.99
527.36	35498.91
527.53	35487.20
527.70	35639.34
527.87	35871.05
528.04	35847.64
528.21	35765.73
528.38	35557.42
528.55	36275.96
528.72	35894.46
528.89	36266.60
529.07	36154.26
529.24	36030.21
529.41	36130.85
529.58	35847.64
529.75	36023.19
529.92	36301.71
530.09	36098.08
530.26	36603.64
530.43	36840.03
530.60	36184.68
530.77	36266.60
530.94	36950.04
531.11	36376.61
531.28	36900.89
531.46	36587.25
531.63	37179.41
531.80	36711.30
531.97	37053.02
532.14	36856.42
532.31	36760.45
532.48	37596.03
532.65	37401.76
532.82	37408.78
532.99	37170.05
533.16	36971.10
533.33	36861.10
533.50	37258.99
533.67	37237.92
533.84	37464.96
534.01	37310.48
534.18	37553.90
534.35	37668.58
534.52	37596.03
534.69	37909.66
534.86	37762.20
535.03	37378.36
535.20	38073.49
535.37	38080.52
535.54	38286.48
535.71	37874.55
535.88	37907.32
536.05	37816.04
536.22	38471.39
536.38	38230.31
536.55	38651.61
536.72	38087.54
536.89	38293.50
537.06	38190.52
537.23	38054.77
537.40	38075.84
537.57	38415.21
537.74	38726.50
537.91	38740.55
538.08	38855.23
538.25	38490.11
538.42	38600.12
538.59	39005.03
538.75	38384.79
538.92	38906.73
539.09	38976.94
539.26	38721.82
539.43	38951.20
539.60	39147.80
539.77	38990.98
539.94	39056.52
540.11	38995.67
540.28	39009.71
540.44	39269.51
540.61	39100.99
540.78	39313.98
540.95	39267.17
541.12	39248.44
541.29	39229.72
541.46	39519.95
541.62	39250.78
541.79	39508.24
541.96	38820.13
542.13	39431.01
542.30	39672.08
542.47	39515.26
542.63	39196.95
542.80	39580.80
542.97	40121.46
543.14	40334.45
543.31	39906.13
543.48	40091.04
543.64	40596.59
543.81	40685.53
543.98	40236.15
544.15	40392.97
544.32	40575.53
544.48	40835.33
544.65	40224.45
544.82	40821.28
544.99	40287.64
545.16	40336.79
545.32	40039.54
545.49	40849.37
545.66	40896.18
545.83	40708.94
546.00	40509.99
546.16	40950.01
546.33	40793.20
546.50	40432.75
546.67	41024.91
546.83	40519.35
547.00	40788.52
547.17	41413.44
547.34	40673.83
547.50	40779.15
547.67	41270.67
547.84	41069.38
548.00	41041.29
548.17	41186.41
548.34	41397.06
548.51	41415.78
548.67	41200.45
548.84	41523.44
549.01	41233.22
549.18	41563.23
549.34	41462.59
549.51	41378.33
549.68	41591.32
549.84	41450.89
550.01	41581.96
550.18	41596.00
550.34	41317.48
550.51	41415.78
550.68	41703.67
550.84	41041.29
551.01	41757.50
551.18	41904.95
551.34	41607.70
551.51	41984.53
551.68	42174.11
551.84	41933.04
552.01	41603.02
552.18	41839.42
552.34	41404.08
552.51	42141.35
552.68	41940.06
552.84	42068.79
553.01	42115.60
553.18	42174.11
553.34	41895.59
553.51	41954.10
553.67	41893.25
553.84	42146.03
554.01	42300.50
554.17	42082.83
554.34	42644.56
554.51	42726.48
554.67	42607.11
554.84	42321.57
555.00	42244.33
555.17	42663.28
555.33	42476.04
555.50	42464.34
555.67	42632.86
555.83	42581.37
556.00	42564.98
556.16	42913.72
556.33	42897.34
556.50	42564.98
556.66	42806.06
556.83	42719.46
556.99	42693.71
557.16	43042.45
557.32	42913.72
557.49	43171.18
557.65	42651.58
557.82	42667.97
557.98	42513.49
558.15	42705.41
558.32	43026.07
558.48	42864.57
558.65	43086.92
558.81	42768.61
558.98	42946.49
559.14	43100.97
559.31	43182.88
559.47	43384.17
559.64	43194.59
559.80	43454.39
559.97	42939.47
560.13	42686.69
560.30	42972.24
560.46	42850.53
560.63	43140.75
560.79	43749.29
560.96	43225.01
561.12	43402.89
561.29	43414.60
561.45	43311.61
561.61	43360.76
561.78	43255.44
561.94	43115.01
562.11	42960.53
562.27	43463.75
562.44	43262.46
562.60	43459.07
562.77	43765.68
562.93	43592.48
563.10	43505.88
563.26	43203.95
563.42	43573.75
563.59	42995.64
563.75	43400.55
563.92	43683.76
564.08	43311.61
564.24	43709.50
564.41	43751.63
564.57	43590.14
564.74	43536.30
564.90	44135.48
565.07	43775.04
565.23	43702.48
565.39	43559.71
565.56	43618.22
565.72	43426.30
565.88	43489.49
566.05	43529.28
566.21	43768.02
566.38	43676.74
566.54	43512.90
566.70	43810.15
566.87	44006.75
567.03	43920.15
567.19	44133.14
567.36	44093.35
567.52	44135.48
567.68	44079.31
567.85	43735.25
568.01	44053.56
568.17	43728.23
568.34	43934.20
568.50	43868.66
568.66	43969.30
568.83	44018.46
568.99	43917.81
569.15	43700.14
569.32	44083.99
569.48	43585.46
569.64	44355.49
569.81	44144.84
569.97	44002.07
570.13	43955.26
570.30	44151.87
570.46	43765.68
570.62	43849.94
570.78	43772.70
570.95	43845.26
571.11	44072.29
571.27	43913.13
571.43	44301.66
571.60	44149.53
571.76	44093.35
571.92	43992.71
572.09	43973.98
572.25	44091.01
572.41	43800.79
572.57	44439.75
572.74	44687.85
572.90	43999.73
573.06	44266.55
573.22	44170.59
573.38	44018.46
573.55	43650.99
573.71	43969.30
573.87	43758.66
574.03	43985.69
574.20	43981.01
574.36	44421.03
574.52	43955.26
574.68	44371.88
574.84	44245.49
575.01	44236.12
575.17	44184.63
575.33	43894.41
575.49	43920.15
575.65	44364.85
575.82	45036.59
575.98	44470.18
576.14	44030.16
576.30	44191.65
576.46	44411.67
576.62	43995.05
576.79	43899.09
576.95	43796.10
577.11	44039.52
577.27	44107.40
577.43	44533.37
577.59	44112.08
577.75	44088.67
577.92	44205.70
578.08	43725.89
578.24	43817.17
578.40	44034.84
578.56	44072.29
578.72	44320.38
578.88	44704.23
579.04	44624.65
579.21	44201.02
579.37	44135.48
579.53	44313.36
579.69	43756.32
579.85	44414.01
580.01	44229.10
580.17	44514.65
580.33	44357.83
580.49	44694.87
580.65	44315.70
580.82	44671.46
580.98	44516.99
581.14	44591.89
581.30	44762.75
581.46	44137.82
581.62	44198.68
581.78	44680.83
581.94	44816.58
582.10	44444.43
582.26	44659.76
582.42	44493.58
582.58	44278.25
582.74	43957.60
582.90	44034.84
583.06	44374.22
583.22	45006.16
583.38	45050.63
583.54	44811.90
583.70	44334.43
583.86	44521.67
584.02	44367.20
584.18	44130.80
584.34	44554.44
584.50	44437.41
584.66	44645.72
584.82	44369.54
584.98	44498.26
585.14	44369.54
585.30	44273.57
585.46	44430.39
585.62	44516.99
585.78	44552.10
585.94	43973.98
586.10	44493.58
586.26	44507.63
586.42	44505.29
586.58	44526.35
586.74	44381.24
586.90	44463.16
587.06	44615.29
587.22	44355.49
587.38	44528.69
587.54	44666.78
587.70	44729.98
587.86	44886.79
588.02	44371.88
588.18	44823.60
588.34	44381.24
588.49	44315.70
588.65	44247.83
588.81	44383.58
588.97	44421.03
589.13	44098.03
589.29	44477.20
589.45	44596.57
589.61	44299.32
589.77	44676.15
589.93	44657.42
590.08	44435.07
590.24	45055.31
590.40	44540.39
590.56	44884.45
590.72	44575.50
590.88	44739.34
591.04	44844.66
591.20	45055.31
591.35	44528.69
591.51	45694.28
591.67	45200.43
591.83	44722.96
591.99	44542.74
592.15	44683.17
592.31	44741.68
592.46	44465.50
592.62	44076.97
592.78	44722.96
592.94	44842.32
593.10	44875.09
593.26	45001.48
593.41	45235.53
593.57	44233.78
593.73	45031.91
593.89	44552.10
594.05	44800.19
594.20	44718.28
594.36	45481.29
594.52	45160.64
594.68	44865.73
594.84	44673.81
594.99	45193.40
595.15	44542.74
595.31	45146.59
595.47	45043.61
595.62	45155.96
595.78	45411.07
595.94	44835.30
596.10	44809.56
596.25	44816.58
596.41	44645.72
596.57	44729.98
596.73	44842.32
596.88	44519.33
597.04	44928.92
597.20	45181.70
597.36	44980.42
597.51	45514.06
597.67	45322.13
597.83	44919.56
597.99	45013.18
598.14	45067.02
598.30	44575.50
598.46	44741.68
598.61	44694.87
598.77	44549.76
598.93	44634.02
599.09	44772.11
599.24	45476.61
599.40	44996.80
599.56	44964.03
599.71	45170.00
599.87	44741.68
600.03	44612.95
600.18	44666.78
600.34	44985.10
600.50	44825.94
600.65	45345.54
600.81	44856.37
600.97	45324.47
601.12	45399.37
601.28	45326.81
601.44	44493.58
601.59	44952.33
601.75	44772.11
601.91	45036.59
602.06	44748.70
602.22	45132.55
602.37	45104.46
602.53	44847.00
602.69	45120.85
602.84	44910.20
603.00	44734.66
603.16	45048.29
603.31	44844.66
603.47	44643.38
603.62	44725.30
603.78	44975.73
603.94	44619.97
604.09	45167.66
604.25	45268.30
604.40	44849.35
604.56	44886.79
604.71	45347.88
604.87	44954.67
605.03	44737.00
605.18	44666.78
605.34	44493.58
605.49	44779.13
605.65	44928.92
605.80	44917.22
605.96	44346.13
606.12	45125.53
606.27	45184.04
606.43	44685.51
606.58	45158.30
606.74	44591.89
606.89	44975.73
607.05	44828.28
607.20	44737.00
607.36	44362.51
607.51	44882.11
607.67	44954.67
607.82	44612.95
607.98	44416.35
608.13	44519.33
608.29	44645.72
608.44	44404.64
608.60	44388.26
608.75	44470.18
608.91	44299.32
609.06	44308.68
609.22	44949.99
609.37	44540.39
609.53	44477.20
609.68	44683.17
609.84	44479.54
609.99	44444.43
610.15	44547.42
610.30	44322.72
610.46	44079.31
610.61	44505.29
610.76	44418.69
610.92	44634.02
611.07	44545.08
611.23	44144.84
611.38	44470.18
611.54	44208.04
611.69	44416.35
611.84	44100.37
612.00	44086.33
612.15	44088.67
612.31	44479.54
612.46	43899.09
612.62	44247.83
612.77	43945.90
612.92	44575.50
613.08	44083.99
613.23	44168.25
613.39	44151.87
613.54	43873.34
613.69	43723.55
613.85	43625.25
614.00	44442.09
614.15	44467.84
614.31	43838.23
614.46	44360.17
614.62	44210.38
614.77	44257.19
614.92	43863.98
615.08	43906.11
615.23	43309.27
615.38	44016.11
615.54	43342.04
615.69	43817.17
615.84	43147.78
616.00	43920.15
616.15	44126.12
616.30	43693.12
616.46	43484.81
616.61	43199.27
616.76	43133.73
616.92	43414.60
617.07	43299.91
617.22	43578.43
617.37	43477.79
617.53	44069.95
617.68	43484.81
617.83	43580.78
617.99	43709.50
618.14	43512.90
618.29	43477.79
618.45	43236.72
618.60	43519.92
618.75	43110.33
618.90	43522.26
619.06	43793.76
619.21	43679.08
619.36	43721.21
619.51	43246.08
619.67	43016.71
619.82	43611.20
619.97	43583.12
620.12	42953.51
620.28	42684.35
620.43	43201.61
620.58	43124.37
620.73	43133.73
620.89	42852.87
621.04	43386.51
621.19	42939.47
621.34	42843.51
621.49	43037.77
621.65	43072.88
621.80	43072.88
621.95	42789.67
622.10	42808.40
622.25	43100.97
622.41	42883.30
622.56	43035.43
622.71	42796.70
622.86	42492.43
623.01	42763.93
623.16	42705.41
623.32	42483.06
623.47	42361.36
623.62	42864.57
623.77	42726.48
623.92	42712.44
624.07	42256.03
624.23	42653.92
624.38	42326.25
624.53	42326.25
624.68	42642.22
624.83	42087.51
624.98	42586.05
625.13	42302.84
625.29	42689.03
625.44	42576.69
625.59	42143.69
625.74	42263.05
625.89	41769.20
626.04	41911.97
626.19	41886.23
626.34	42099.22
626.49	42164.75
626.65	42298.16
626.80	42258.37
626.95	42113.26
627.10	42185.82
627.25	41741.11
627.40	41741.11
627.55	41972.83
627.70	41216.83
627.85	41820.69
628.00	41647.49
628.15	41926.02
628.30	41844.10
628.45	42024.32
628.60	41776.22
628.76	42157.73
628.91	41467.27
629.06	42068.79
629.21	41848.78
629.36	41596.00
629.51	41361.95
629.66	41528.13
629.81	40938.31
629.96	41579.62
630.11	41645.15
630.26	41486.00
630.41	41397.06
630.56	41668.56
630.71	41586.64
630.86	41574.94
631.01	41666.22
631.16	41493.02
631.31	41265.99
631.46	41172.36
631.61	40996.82
631.76	41343.22
631.91	41289.39
632.06	41436.84
632.21	41223.86
632.36	41167.68
632.51	41113.85
632.66	41680.26
632.81	40744.05
632.96	41017.89
633.10	40535.74
633.25	40865.75
633.40	41113.85
633.55	41483.66
633.70	41284.71
633.85	40442.12
634.00	40442.12
634.15	40760.43
634.30	40528.72
634.45	40704.26
634.60	40669.15
634.75	40722.98
634.90	40931.29
635.05	40788.52
635.19	40554.46
635.34	40917.25
635.49	40968.74
635.64	40795.54
635.79	40030.18
635.94	40376.58
636.09	40294.66
636.24	40147.21
636.39	40350.84
636.53	40233.81
636.68	40208.06
636.83	40201.04
636.98	40451.48
637.13	39941.24
637.28	39878.05
637.43	40720.64
637.57	40165.93
637.72	40439.78
637.87	40105.08
638.02	40332.11
638.17	39852.30
638.32	39487.18
638.46	39735.27
638.61	39807.83
638.76	39772.72
638.91	39838.26
639.06	40062.95
639.20	39966.99
639.35	40191.68
639.50	40182.32
639.65	40170.61
639.80	39721.23
639.94	39835.92
640.09	40020.82
640.24	39398.24
640.39	39199.29
640.54	39274.19
640.68	39510.58
640.83	40016.14
640.98	39592.50
641.13	39398.24
641.27	39992.73
641.42	39655.70
641.57	40027.84
641.72	39297.59
641.86	39138.44
642.01	39585.48
642.16	39423.98
642.31	38983.96
642.45	39489.52
642.60	38817.78
642.75	39248.44
642.90	39093.97
643.04	39335.04
643.19	39112.69
643.34	39339.72
643.48	39187.59
643.63	39239.08
643.78	39105.67
643.93	38876.30
644.07	38939.49
644.22	38838.85
644.37	38953.54
644.51	38780.34
644.66	39079.92
644.81	38740.55
644.95	39215.68
645.10	39218.02
645.25	38955.88
645.39	39175.89
645.54	39480.16
645.69	38787.36
645.83	38698.42
645.98	38728.84
646.13	39203.97
646.27	38857.57
646.42	38740.55
646.57	38646.93
646.71	39353.77
646.86	38717.14
647.00	38658.63
647.15	38857.57
647.30	38653.95
647.44	38457.34
647.59	38593.09
647.74	38412.87
647.88	38721.82
648.03	38560.33
648.17	38447.98
648.32	38204.56
648.47	38361.38
648.61	38298.19
648.76	38256.06
648.90	38686.71
649.05	38600.12
649.20	38174.14
649.34	38256.06
649.49	38024.34
649.63	38164.78
649.78	38129.67
649.92	37673.26
650.07	38195.20
650.21	37720.07
650.36	38052.43
650.51	37696.67
650.65	38190.52
650.80	38752.25
650.94	38279.46
651.09	37801.99
651.23	38101.58
651.38	38068.81
651.52	37930.72
651.67	38026.68
651.81	38162.43
651.96	37706.03
652.10	37855.82
652.25	37963.49
652.39	37926.04
652.54	38026.68
652.68	37837.10
652.83	37827.74
652.97	37907.32
653.12	37738.80
653.26	37844.12
653.41	37607.73
653.55	37596.03
653.70	37294.10
653.84	37322.18
653.99	37556.24
654.13	38132.01
654.27	37464.96
654.42	37471.98
654.56	37345.59
654.71	37471.98
654.85	37900.29
655.00	37399.42
655.14	36825.99
655.29	36833.01
655.43	37163.03
655.57	36875.14
655.72	37118.56
655.86	37368.99
656.01	36830.67
656.15	37024.93
656.30	36952.38
656.44	36837.69
656.58	36767.48
656.73	36676.19
656.87	36779.18
657.01	36725.35
657.16	36877.48
657.30	36755.77
657.45	36491.29
657.59	36879.82
657.73	36957.06
657.88	36865.78
658.02	36334.48
658.16	36477.25
658.31	36889.18
658.45	36931.31
658.60	36311.07
658.74	36364.90
658.88	36587.25
659.03	36444.48
659.17	36533.42
659.31	36704.28
659.46	36634.06
659.60	36105.10
659.74	36400.01
659.89	36053.61
660.03	35849.99
660.17	36294.69
660.32	36346.18
660.46	36355.54
660.60	35967.01
660.74	35824.24
660.89	36088.72
661.03	35920.20
661.17	35658.06
661.32	35016.75
661.46	35838.28
661.60	35566.78
661.74	35409.96
661.89	35555.08
662.03	35304.64
662.17	35302.30
662.31	35227.40
662.46	35463.80
662.60	35271.87
662.74	35201.66
662.88	35136.12
663.03	35255.49
663.17	35435.71
663.31	34941.86
663.45	35180.59
663.60	34937.18
663.74	34494.82
663.88	34639.93
664.02	35002.71
664.17	35030.80
664.31	34497.16
664.45	34630.57
664.59	34691.42
664.73	35026.12
664.88	34469.07
665.02	33846.49
665.16	34759.30
665.30	34134.37
665.44	34515.88
665.59	34031.39
665.73	33982.24
665.87	34366.09
666.01	33905.00
666.15	34195.23
666.29	33982.24
666.44	34550.99
666.58	33954.15
666.72	33764.57
666.86	34183.52
667.00	33944.79
667.14	33806.70
667.28	33654.56
667.43	33474.34
667.57	33666.27
667.71	33214.54
667.85	33689.67
667.99	33722.44
668.13	33462.64
668.27	33165.39
668.41	33649.88
668.56	33493.07
668.70	33256.67
668.84	33163.05
668.98	33174.75
669.12	33076.45
669.26	33010.92
669.40	32737.07
669.54	33083.47
669.68	33102.20
669.82	32900.91
669.96	32882.19
670.10	32606.00
670.25	33046.02
670.39	32884.53
670.53	32865.80
670.67	32287.69
670.81	32662.18
670.95	32826.01
671.09	32741.75
671.23	32322.80
671.37	32720.69
671.51	32081.72
671.65	31967.04
671.79	32016.19
671.93	31974.06
672.07	32208.11
672.21	32034.91
672.35	31931.93
672.49	31983.42
672.63	32191.73
672.77	31655.75
672.91	31686.17
673.05	31381.90
673.19	31672.13
673.33	31482.55
673.47	31463.82
673.61	31175.94
673.75	31040.18
673.89	31012.10
674.03	30803.79
674.17	30948.90
674.31	31021.46
674.45	30738.26
674.59	30789.75
674.73	30944.22
674.87	31108.06
675.01	30579.10
675.15	30677.40
675.29	31108.06
675.43	30635.27
675.56	30815.49
675.70	30209.29
675.84	30298.23
675.98	29708.42
676.12	30017.37
676.26	30125.04
676.40	29385.43
676.54	29596.07
676.68	29804.38
676.82	29064.77
676.96	29586.71
677.10	29106.90
677.23	29174.78
677.37	29565.65
677.51	29399.47
677.65	29219.25
677.79	28713.69
677.93	28819.02
678.07	28865.83
678.21	28804.97
678.34	28545.17
678.48	28561.56
678.62	28599.01
678.76	28386.02
678.90	28271.33
679.04	28280.69
679.18	28386.02
679.31	28084.09
679.45	27936.63
679.59	27796.20
679.73	27885.14
679.87	27646.41
680.00	27784.50
680.14	27400.65
680.28	27562.15
680.42	27342.14
680.56	27857.06
680.70	27168.94
680.83	26934.88
680.97	26773.39
681.11	26955.95
681.25	26621.25
681.39	26742.96
681.52	27318.73
681.66	26714.87
681.80	26885.73
681.94	26869.35
682.07	26438.69
682.21	26314.64
682.35	26349.75
682.49	26338.05
682.62	26012.71
682.76	25811.43
682.90	26024.42
683.04	25811.43
683.17	25694.40
683.31	25628.87
683.45	25813.77
683.59	25287.15
683.72	25336.30
683.86	25268.42
684.00	24989.90
684.13	25172.46
684.27	25230.98
684.41	24987.56
684.55	24694.99
684.68	24933.73
684.82	24776.91
684.96	24692.65
685.09	24854.15
685.23	24364.98
685.37	24524.13
685.50	24219.86
685.64	24327.53
685.78	24004.53
685.91	24123.90
686.05	23957.72
686.19	23742.39
686.32	23838.36
686.46	23674.52
686.60	23428.76
686.73	23740.05
686.87	23646.43
687.01	23241.52
687.14	23234.50
687.28	23026.19
687.42	22757.03
687.55	23321.10
687.69	22927.89
687.82	22925.55
687.96	22874.06
688.10	22583.83
688.23	22759.37
688.37	22394.25
688.50	22118.06
688.64	22396.59
688.78	22052.53
688.91	22188.28
689.05	22377.86
689.18	22185.94
689.32	21788.05
689.46	22078.27
689.59	22071.25
689.73	22150.83
689.86	21240.36
690.00	21418.24
690.13	21862.94
690.27	21802.09
690.41	21025.03
690.54	21231.00
690.68	21018.01
690.81	20893.96
690.95	20893.96
691.08	21029.71
691.22	20812.04
691.35	21050.78
691.49	21132.70
691.62	20767.57
691.76	20627.14
691.89	20540.54
692.03	20458.62
692.16	20346.28
692.30	20018.60
692.43	20067.75
692.57	19854.76
692.70	20023.28
692.84	19833.70
692.97	19882.85
693.11	19744.76
693.24	19744.76
693.38	19435.81
693.51	19433.47
693.65	19580.92
693.78	19475.60
693.92	19517.73
694.05	19295.38
694.19	19201.76
694.32	19084.73
694.45	19042.60
694.59	18771.10
694.72	18867.06
694.86	18806.20
694.99	18726.63
695.13	18803.86
695.26	18459.81
695.39	18244.48
695.53	18333.42
695.66	18258.52
695.80	18331.08
695.93	18242.14
696.07	17788.07
696.20	18047.87
696.33	17724.88
696.47	17996.38
696.60	18010.42
696.73	17729.56
696.87	17671.04
697.00	17624.23
697.14	17486.14
697.27	17521.25
697.40	17427.63
697.54	17593.81
697.67	17184.21
697.80	17242.73
697.94	17343.37
698.07	17083.57
698.21	16905.69
698.34	16858.88
698.47	16858.88
698.61	16383.75
698.74	16491.41
698.87	16617.80
699.01	16248.00
699.14	16299.49
699.27	16388.43
699.40	16383.75
699.54	16109.91
699.67	15917.98
699.80	15868.83
699.94	16133.31
700.07	15782.23
700.20	15950.75
700.34	15807.98
700.47	15543.50
700.60	16042.03
700.73	15866.49
700.87	15737.76
701.00	15470.94
701.13	15580.95
701.26	15541.16
701.40	15445.20
701.53	15257.95
701.66	15019.22
701.79	15211.14
701.93	14824.95
702.06	14916.23
702.19	14642.39
702.32	14860.06
702.46	14775.80
702.59	14597.92
702.72	14445.79
702.85	14326.42
702.99	14916.23
703.12	14728.99
703.25	14523.02
703.38	14396.64
703.51	14328.76
703.65	14214.07
703.78	14136.84
703.91	14094.71
704.04	14438.76
704.17	14047.90
704.31	13626.60
704.44	13685.11
704.57	13521.27
704.70	13547.02
704.83	13390.20
704.96	13708.52
705.10	13619.58
705.23	13673.41
>>>>>End Processed Spectral Data<<<<<
