SpectraSuite Data File
++++++++++++++++++++++++++++++++++++
Date: Fri Oct 25 10:47:19 EDT 2013
User: price-jones
Dark Spectrum Present: No
Reference Spectrum Present: No
Number of Sampled Component Spectra: 1
Spectrometers: USB2+H05261
Integration Time (usec): 100000 (USB2+H05261)
Spectra Averaged: 1 (USB2+H05261)
Boxcar Smoothing: 0 (USB2+H05261)
Correct for Electrical Dark: No (USB2+H05261)
Strobe/Lamp Enabled: No (USB2+H05261)
Correct for Detector Non-linearity: No (USB2+H05261)
Correct for Stray Light: No (USB2+H05261)
Number of Pixels in Processed Spectrum: 2048
>>>>>Begin Processed Spectral Data<<<<<
365.73	112.35
365.92	112.35
366.12	112.35
366.32	51.49
366.52	0.00
366.72	44.47
366.91	49.15
367.11	0.00
367.31	28.09
367.51	25.75
367.70	56.17
367.90	16.38
368.10	53.83
368.30	37.45
368.49	0.00
368.69	42.13
368.89	0.00
369.09	42.13
369.28	25.75
369.48	58.51
369.68	74.90
369.87	84.26
370.07	107.66
370.27	117.03
370.47	276.18
370.66	337.04
370.86	355.76
371.06	402.57
371.25	449.38
371.45	414.27
371.65	498.53
371.84	409.59
372.04	477.47
372.24	489.17
372.44	496.19
372.63	430.66
372.83	482.15
373.03	552.37
373.22	514.92
373.42	566.41
373.62	414.27
373.81	510.24
374.01	559.39
374.21	514.92
374.40	585.13
374.60	526.62
374.79	507.90
374.99	528.96
375.19	540.66
375.38	568.75
375.58	636.63
375.78	615.56
375.97	596.84
376.17	620.24
376.37	557.05
376.56	538.32
376.76	566.41
376.95	561.73
377.15	620.24
377.35	606.20
377.54	587.47
377.74	648.33
377.93	706.84
378.13	603.86
378.33	599.18
378.52	601.52
378.72	636.63
378.91	645.99
379.11	568.75
379.31	634.29
379.50	657.69
379.70	601.52
379.89	610.88
380.09	573.43
380.28	645.99
380.48	638.97
380.68	685.78
380.87	564.07
381.07	699.82
381.26	667.05
381.46	629.60
381.65	676.41
381.85	657.69
382.04	657.69
382.24	589.82
382.43	603.86
382.63	606.20
382.83	650.67
383.02	751.31
383.22	706.84
383.41	655.35
383.61	685.78
383.80	727.91
384.00	732.59
384.19	718.54
384.39	706.84
384.58	730.25
384.78	844.93
384.97	788.76
385.17	711.52
385.36	704.50
385.56	692.80
385.75	774.72
385.95	706.84
386.14	770.04
386.34	767.70
386.53	807.48
386.72	704.50
386.92	809.83
387.11	800.46
387.31	784.08
387.50	788.76
387.70	777.06
387.89	704.50
388.09	779.40
388.28	716.20
388.48	875.36
388.67	828.55
388.86	849.61
389.06	898.77
389.25	922.17
389.45	889.40
389.64	784.08
389.84	894.08
390.03	814.51
390.22	959.62
390.42	919.83
390.61	896.43
390.81	821.53
391.00	882.38
391.19	936.21
391.39	901.11
391.58	905.79
391.78	931.53
391.97	870.68
392.16	933.87
392.36	990.05
392.55	959.62
392.75	945.58
392.94	880.04
393.13	957.28
393.33	971.32
393.52	973.66
393.71	971.32
393.91	1029.84
394.10	973.66
394.29	985.37
394.49	973.66
394.68	1081.33
394.88	1022.81
395.07	1118.78
395.26	1022.81
395.46	1001.75
395.65	1128.14
395.84	1071.97
396.04	1118.78
396.23	1071.97
396.42	1139.84
396.62	1123.46
396.81	1100.05
397.00	1153.88
397.19	1177.29
397.39	1153.88
397.58	1081.33
397.77	1188.99
397.97	1203.04
398.16	1214.74
398.35	1226.44
398.55	1114.10
398.74	1252.19
398.93	1263.89
399.12	1184.31
399.32	1261.55
399.51	1289.64
399.70	1317.72
399.90	1308.36
400.09	1306.02
400.28	1418.36
400.47	1299.00
400.67	1401.98
400.86	1320.06
401.05	1383.26
401.24	1420.71
401.44	1343.47
401.63	1430.07
401.82	1369.21
402.01	1376.24
402.21	1458.15
402.40	1530.71
402.59	1493.26
402.78	1519.01
402.97	1537.73
403.17	1598.59
403.36	1507.30
403.55	1603.27
403.74	1589.22
403.93	1528.37
404.13	1586.88
404.32	1526.03
404.51	1537.73
404.70	1692.21
404.89	1528.37
405.09	1659.44
405.28	1579.86
405.47	1645.40
405.66	1750.72
405.85	1647.74
406.05	1652.42
406.24	1703.91
406.43	1713.27
406.62	1851.36
406.81	1816.26
407.00	1717.95
407.20	1748.38
407.39	1650.08
407.58	1792.85
407.77	1867.75
407.96	1837.32
408.15	1827.96
408.34	1802.21
408.54	1872.43
408.73	1898.17
408.92	1858.39
409.11	1872.43
409.30	2005.84
409.49	1872.43
409.68	1947.33
409.87	1923.92
410.07	1947.33
410.26	2017.54
410.45	1996.48
410.64	2008.18
410.83	2097.12
411.02	2052.65
411.21	2083.08
411.40	2197.76
411.59	2157.97
411.78	2190.74
411.98	2186.06
412.17	2193.08
412.36	2223.51
412.55	2279.68
412.74	2368.62
412.93	2413.09
413.12	2209.47
413.31	2424.80
413.50	2349.90
413.69	2331.17
413.88	2429.48
414.07	2455.22
414.26	2480.97
414.45	2450.54
414.64	2490.33
414.83	2499.69
415.02	2546.50
415.22	2499.69
415.41	2654.17
415.60	2583.95
415.79	2754.81
415.98	2691.62
416.17	2700.98
416.36	2712.68
416.55	2675.23
416.74	2747.79
416.93	2682.25
417.12	2904.60
417.31	2710.34
417.50	2691.62
417.69	2841.41
417.88	2965.46
418.07	2895.24
418.26	2899.92
418.45	2958.44
418.64	3021.63
418.83	2925.67
419.02	2977.16
419.21	3087.17
419.39	3073.12
419.58	2958.44
419.77	3042.70
419.96	3096.53
420.15	3105.89
420.34	3197.17
420.53	3283.77
420.72	3194.83
420.91	3311.86
421.10	3208.87
421.29	3297.81
421.48	3274.41
421.67	3356.33
421.86	3286.11
422.05	3213.56
422.24	3148.02
422.43	3325.90
422.61	3307.18
422.80	3302.50
422.99	3407.82
423.18	3424.20
423.37	3358.67
423.56	3353.99
423.75	3218.24
423.94	3290.79
424.13	3208.87
424.32	3229.94
424.50	3513.14
424.69	3517.83
424.88	3428.88
425.07	3386.76
425.26	3485.06
425.45	3403.14
425.64	3407.82
425.83	3447.61
426.01	3435.91
426.20	3480.38
426.39	3405.48
426.58	3417.18
426.77	3372.71
426.96	3559.95
427.15	3461.65
427.33	3391.44
427.52	3541.23
427.71	3616.13
427.90	3585.70
428.09	3676.98
428.28	3585.70
428.46	3569.32
428.65	3749.54
428.84	3815.07
429.03	3726.13
429.22	3581.02
429.40	3742.52
429.59	3744.86
429.78	3627.83
429.97	3428.88
430.16	3653.58
430.34	3786.99
430.53	3679.32
430.72	3772.94
430.91	3756.56
431.10	3803.37
431.28	3988.27
431.47	3957.85
431.66	4088.92
431.85	3941.46
432.03	3943.80
432.22	4079.55
432.41	4126.36
432.60	3929.76
432.79	4053.81
432.97	4053.81
433.16	4109.98
433.35	4037.42
433.54	4128.70
433.72	4194.24
433.91	4070.19
434.10	4117.00
434.28	4163.81
434.47	4175.52
434.66	4252.75
434.85	4402.55
435.03	4311.27
435.22	4187.22
435.41	4503.19
435.59	4358.08
435.78	4432.97
435.97	4458.72
436.16	4337.01
436.34	4196.58
436.53	4390.84
436.72	4447.02
436.90	4486.81
437.09	4461.06
437.28	4435.32
437.46	4475.10
437.65	4535.96
437.84	4517.23
438.02	4470.42
438.21	4559.36
438.40	4472.76
438.58	4631.92
438.77	4685.75
438.96	4575.75
439.14	4858.95
439.33	4823.84
439.52	4915.12
439.70	4851.93
439.89	4975.98
440.08	4884.70
440.26	4947.89
440.45	4842.57
440.63	5034.49
440.82	5093.01
441.01	5130.45
441.19	5062.58
441.38	5170.24
441.57	5160.88
441.75	5416.00
441.94	5423.02
442.12	5287.27
442.31	5334.08
442.50	5434.72
442.68	5308.34
442.87	5348.12
443.05	5380.89
443.24	5586.86
443.43	5518.98
443.61	5476.85
443.80	5685.16
443.98	5425.36
444.17	5214.71
444.35	5575.16
444.54	5577.50
444.73	5671.12
444.91	5612.60
445.10	5666.44
445.28	5638.35
445.47	5558.77
445.65	5493.24
445.84	5757.72
446.02	5729.63
446.21	5528.35
446.39	5596.22
446.58	5521.32
446.77	5788.14
446.95	5523.66
447.14	5530.69
447.32	5785.80
447.51	5806.87
447.69	5724.95
447.88	5701.54
448.06	5678.14
448.25	5813.89
448.43	5914.53
448.62	5720.27
448.80	5652.39
448.99	5792.83
449.17	5937.94
449.36	5853.68
449.54	5827.93
449.73	6003.47
449.91	5937.94
450.10	5830.27
450.28	6113.48
450.46	6076.03
450.65	6225.82
450.83	6057.31
451.02	6057.31
451.20	6104.12
451.39	6274.98
451.57	6134.54
451.76	5966.03
451.94	6251.57
452.13	6293.70
452.31	6195.40
452.49	6204.76
452.68	6260.93
452.86	6232.85
453.05	6399.02
453.23	6401.37
453.42	6345.19
453.60	6382.64
453.78	6321.79
453.97	6345.19
454.15	6422.43
454.34	6204.76
454.52	6305.40
454.70	6562.86
454.89	6490.31
455.07	6532.44
455.26	6551.16
455.44	6700.95
455.62	6562.86
455.81	6801.60
455.99	6700.95
456.17	6691.59
456.36	6759.47
456.54	6977.14
456.73	6892.88
456.91	6967.77
457.09	6869.47
457.28	7288.43
457.46	7030.97
457.64	7105.87
457.83	6970.12
458.01	7084.80
458.19	7019.27
458.38	7045.01
458.56	7119.91
458.74	7012.24
458.93	6993.52
459.11	7089.48
459.29	7077.78
459.48	7218.21
459.66	7101.19
459.84	7309.49
460.03	7421.84
460.21	7363.33
460.39	7293.11
460.57	7269.70
460.76	7356.30
460.94	7485.03
461.12	7400.77
461.31	7424.18
461.49	7583.34
461.67	7393.75
461.85	7503.76
462.04	7438.22
462.22	8039.74
462.40	7836.11
462.59	7517.80
462.77	7829.09
462.95	7840.79
463.13	7939.10
463.32	7864.20
463.50	7817.39
463.68	7871.22
463.86	7836.11
464.05	7805.69
464.23	7648.87
464.41	7948.46
464.59	7702.70
464.78	8079.53
464.96	7850.16
465.14	7850.16
465.32	7892.29
465.50	8168.47
465.69	8035.06
465.87	7988.25
466.05	8173.15
466.23	8018.68
466.41	7925.05
466.60	8201.24
466.78	7903.99
466.96	7911.01
467.14	8119.32
467.32	8224.64
467.51	8173.15
467.69	7889.95
467.87	8189.53
468.05	8344.01
468.23	8173.15
468.41	8262.09
468.60	8231.66
468.78	8304.22
468.96	8248.05
469.14	8463.38
469.32	8505.51
469.50	8400.18
469.69	8491.46
469.87	8674.03
470.05	8692.75
470.23	8599.13
470.41	8449.33
470.59	8667.00
470.77	8713.81
470.95	8725.52
471.14	9034.47
471.32	8769.99
471.50	8795.73
471.68	9043.83
471.86	9057.87
472.04	8901.06
472.22	9193.62
472.40	9111.71
472.58	9179.58
472.77	8950.21
472.95	9308.31
473.13	9392.57
473.31	9359.80
473.49	8943.19
473.67	9123.41
473.85	9359.80
474.03	9486.19
474.21	9584.49
474.39	9731.95
474.57	9668.75
474.75	9760.03
474.93	9748.33
475.12	9877.06
475.30	9839.61
475.48	9839.61
475.66	9881.74
475.84	9685.14
476.02	10085.37
476.20	10094.73
476.38	10167.29
476.56	10384.96
476.74	10171.97
476.92	10209.42
477.10	10345.17
477.28	10724.33
477.46	10466.88
477.64	10555.82
477.82	10537.09
478.00	10984.13
478.18	11061.37
478.36	11180.74
478.54	11028.60
478.72	11269.68
478.90	11375.00
479.08	11531.82
479.26	11557.57
479.44	11496.71
479.62	11833.75
479.80	11508.41
479.98	11765.87
480.16	11864.18
480.34	11777.58
480.52	12100.57
480.70	12081.85
480.88	11892.26
481.06	11943.75
481.24	12102.91
481.41	12404.84
481.59	12512.50
481.77	12482.08
481.95	12606.13
482.13	12533.57
482.31	12786.35
482.49	13053.17
482.67	12945.50
482.85	13310.63
483.03	13507.23
483.21	13163.17
483.39	13570.43
483.57	13563.40
483.74	13799.80
483.92	13647.66
484.10	13757.67
484.28	13907.46
484.46	14214.07
484.64	14298.33
484.82	14083.00
485.00	14122.79
485.18	14813.25
485.35	14661.12
485.53	14567.49
485.71	14480.89
485.89	14799.21
486.07	14813.25
486.25	15037.94
486.43	14916.23
486.61	15363.28
486.78	15360.94
486.96	15456.90
487.14	15690.95
487.32	15864.15
487.50	15868.83
487.68	16006.92
487.85	16219.91
488.03	16367.37
488.21	16573.33
488.39	16545.25
488.57	16491.41
488.75	16608.44
488.92	17097.61
489.10	16840.15
489.28	17509.55
489.46	17380.82
489.64	17284.86
489.81	17895.74
489.99	17811.48
490.17	17909.78
490.35	17848.93
490.53	18031.49
490.70	18190.64
490.88	18359.16
491.06	18515.98
491.24	18499.59
491.41	18841.31
491.59	18745.35
491.77	18546.40
491.95	18953.66
492.13	18785.14
492.30	19342.19
492.48	19030.90
492.66	19220.48
492.84	19204.10
493.01	19616.03
493.19	19501.34
493.37	19674.54
493.54	20144.99
493.72	20056.05
493.90	20098.18
494.08	20425.86
494.25	20510.11
494.43	20723.10
494.61	20460.96
494.79	20737.15
494.96	21027.37
495.14	20858.85
495.32	21132.70
495.49	20837.79
495.67	21027.37
495.85	21331.64
496.02	21905.07
496.20	21743.58
496.38	21671.02
496.55	21846.56
496.73	22085.30
496.91	22162.53
497.09	22099.34
497.26	22256.15
497.44	22246.79
497.62	22415.31
497.79	22705.54
497.97	22342.75
498.14	22724.26
498.32	22714.90
498.50	22771.07
498.67	23101.09
498.85	23012.15
499.03	23522.38
499.20	23370.25
499.38	23220.45
499.56	23714.31
499.73	23817.29
499.91	23931.98
500.08	24257.31
500.26	23740.05
500.44	23995.17
500.61	23726.01
500.79	24091.13
500.97	24112.20
501.14	24348.59
501.32	24505.41
501.49	24341.57
501.67	24528.81
501.84	24638.82
502.02	24435.19
502.20	24924.36
502.37	24812.02
502.55	24865.85
502.72	25097.56
502.90	25310.55
503.07	25284.81
503.25	25109.27
503.43	25245.02
503.60	25502.48
503.78	25296.51
503.95	25287.15
504.13	25717.81
504.30	26008.03
504.48	25778.66
504.65	26101.65
504.83	26316.98
505.01	26581.46
505.18	26064.21
505.36	26632.96
505.53	26305.28
505.71	26670.40
505.88	26628.27
506.06	26218.68
506.23	26274.85
506.41	26607.21
506.58	26742.96
506.76	26803.82
506.93	26932.54
507.11	27016.80
507.28	27152.55
507.46	27166.60
507.63	27529.38
507.81	27655.77
507.98	27098.72
508.16	27543.42
508.33	27379.59
508.50	27786.84
508.68	27623.00
508.85	28194.09
509.03	27742.37
509.20	28100.47
509.38	28130.90
509.55	28247.93
509.73	28346.23
509.90	28489.00
510.08	28259.63
510.25	28437.51
510.42	28510.07
510.60	28608.37
510.77	28678.58
510.95	28451.55
511.12	28741.78
511.30	29057.75
511.47	29443.94
511.64	29521.18
511.82	29352.66
511.99	28910.30
512.17	29481.39
512.34	29184.14
512.51	29502.45
512.69	29738.85
512.86	29289.46
513.04	29954.18
513.21	29792.68
513.38	30127.38
513.56	29867.58
513.73	29570.33
513.90	29890.98
514.08	29989.28
514.25	30129.72
514.43	29722.46
514.60	29993.97
514.77	29970.56
514.95	30433.99
515.12	30328.66
515.29	30445.69
515.47	30609.53
515.64	30871.67
515.81	30490.16
515.99	30525.27
516.16	30932.52
516.33	31271.90
516.51	31232.11
516.68	30834.22
516.85	30267.81
517.03	30946.56
517.20	31395.95
517.37	31187.64
517.54	31421.69
517.72	31447.44
517.89	31218.07
518.06	31622.98
518.24	31365.52
518.41	31557.44
518.58	31501.27
518.75	31604.25
518.93	32100.45
519.10	31559.78
519.27	31997.46
519.45	32243.22
519.62	32109.81
519.79	32409.40
519.96	32381.31
520.14	32683.24
520.31	32194.07
520.48	32671.54
520.65	32369.61
520.83	32807.29
521.00	32664.52
521.17	32833.04
521.34	32652.81
521.52	32793.25
521.69	32921.98
521.86	33282.42
522.03	33259.01
522.20	33139.65
522.38	33631.16
522.55	33282.42
522.72	33139.65
522.89	33308.16
523.07	33462.64
523.24	32767.50
523.41	33364.34
523.58	33736.48
523.75	34342.68
523.92	33687.33
524.10	33968.19
524.27	33811.38
524.44	34125.01
524.61	33989.26
524.78	34160.12
524.96	34471.41
525.13	34590.78
525.30	34401.19
525.47	34595.46
525.64	34452.69
525.81	34668.02
525.98	34216.29
526.16	34857.60
526.33	35056.54
526.50	34801.43
526.67	34394.17
526.84	34705.46
527.01	34628.23
527.18	34813.13
527.36	35395.92
527.53	35037.82
527.70	35629.98
527.87	35187.61
528.04	35126.76
528.21	35372.52
528.38	35035.48
528.55	35311.66
528.72	35255.49
528.89	35936.59
529.07	35377.20
529.24	35377.20
529.41	35505.93
529.58	35498.91
529.75	35805.52
529.92	35522.31
530.09	35805.52
530.26	36011.48
530.43	36334.48
530.60	35800.83
530.77	36079.36
530.94	36308.73
531.11	36360.22
531.28	36086.38
531.46	36397.67
531.63	36355.54
531.80	36222.13
531.97	36662.15
532.14	36402.35
532.31	36556.83
532.48	36776.84
532.65	36638.75
532.82	37050.68
532.99	36657.47
533.16	36484.27
533.33	36739.39
533.50	36868.12
533.67	36884.50
533.84	37226.22
534.01	37338.57
534.18	37046.00
534.35	37523.47
534.52	37060.04
534.69	37118.56
534.86	37413.46
535.03	37013.23
535.20	37486.02
535.37	37638.15
535.54	37668.58
535.71	37179.41
535.88	37598.37
536.05	37481.34
536.22	37596.03
536.38	37752.84
536.55	37385.38
536.72	37965.83
536.89	37469.64
537.06	37867.53
537.23	38075.84
537.40	37839.44
537.57	38003.28
537.74	38022.00
537.91	38258.40
538.08	38403.51
538.25	37968.17
538.42	37874.55
538.59	38508.83
538.75	38089.88
538.92	38466.70
539.09	38504.15
539.26	38450.32
539.43	38403.51
539.60	38799.06
539.77	38714.80
539.94	38340.32
540.11	38550.96
540.28	38263.08
540.44	38536.92
540.61	38492.45
540.78	38780.34
540.95	38904.38
541.12	38384.79
541.29	38770.97
541.46	38569.69
541.62	38855.23
541.79	39037.80
541.96	38939.49
542.13	38953.54
542.30	38904.38
542.47	39564.42
542.63	39267.17
542.80	39339.72
542.97	39526.97
543.14	39524.63
543.31	39580.80
543.48	39456.75
543.64	40205.72
543.81	39700.17
543.98	39608.89
544.15	39903.79
544.32	40194.02
544.48	40315.73
544.65	40093.38
544.82	40123.80
544.99	40020.82
545.16	40016.14
545.32	39714.21
545.49	40266.58
545.66	40449.14
545.83	40498.29
546.00	40074.65
546.16	40203.38
546.33	40308.71
546.50	39882.73
546.67	40432.75
546.83	39641.65
547.00	40505.31
547.17	40502.97
547.34	39711.87
547.50	40809.58
547.67	41043.63
547.84	40535.74
548.00	40509.99
548.17	40856.39
548.34	40673.83
548.51	40893.84
548.67	41071.72
548.84	41273.01
549.01	40912.56
549.18	41118.53
549.34	40828.30
549.51	41015.55
549.68	40828.30
549.84	41345.56
550.01	41392.37
550.18	41237.90
550.34	41008.53
550.51	41294.07
550.68	41083.42
550.84	40720.64
551.01	41188.75
551.18	41518.76
551.34	41233.22
551.51	41766.86
551.68	41710.69
551.84	41170.02
552.01	41258.96
552.18	41387.69
552.34	41146.62
552.51	41628.77
552.68	41811.33
552.84	41563.23
553.01	41464.93
553.18	41731.75
553.34	41574.94
553.51	41350.24
553.67	41240.24
553.84	41951.76
554.01	41890.91
554.17	41738.77
554.34	42103.90
554.51	42419.87
554.67	42267.73
554.84	42309.86
555.00	41673.24
555.17	41591.32
555.33	41741.11
555.50	42010.28
555.67	41930.70
555.83	42361.36
556.00	42249.01
556.16	42501.79
556.33	42396.46
556.50	41621.75
556.66	42511.15
556.83	42068.79
556.99	42389.44
557.16	42258.37
557.32	42344.97
557.49	42319.23
557.65	42466.68
557.82	42122.62
557.98	42546.26
558.15	42110.92
558.32	42777.97
558.48	42436.25
558.65	42873.93
558.81	42300.50
558.98	42745.20
559.14	42946.49
559.31	42560.30
559.47	42518.17
559.64	42747.54
559.80	42838.83
559.97	42768.61
560.13	42061.77
560.30	42780.31
560.46	42574.34
560.63	42515.83
560.79	43005.00
560.96	43313.95
561.12	43037.77
561.29	43014.37
561.45	42632.86
561.61	42759.25
561.78	42887.98
561.94	42494.77
562.11	42642.22
562.27	43358.42
562.44	42859.89
562.60	42859.89
562.77	42756.91
562.93	43089.26
563.10	43129.05
563.26	43131.39
563.42	43477.79
563.59	42892.66
563.75	42951.17
563.92	43210.97
564.08	43147.78
564.24	43452.05
564.41	43543.33
564.57	43028.41
564.74	43253.10
564.90	43339.70
565.07	43388.85
565.23	43021.39
565.39	43082.24
565.56	43028.41
565.72	43430.98
565.88	43168.84
566.05	43515.24
566.21	42967.55
566.38	43475.45
566.54	43241.40
566.70	43732.91
566.87	43428.64
567.03	43466.09
567.19	43463.75
567.36	43793.76
567.52	43491.83
567.68	43503.54
567.85	43470.77
568.01	43358.42
568.17	43199.27
568.34	43217.99
568.50	43531.62
568.66	42918.40
568.83	43566.73
568.99	43180.54
569.15	43056.50
569.32	43489.49
569.48	43379.49
569.64	43756.32
569.81	43555.03
569.97	43285.87
570.13	43388.85
570.30	43526.94
570.46	43545.67
570.62	43075.22
570.78	43756.32
570.95	43531.62
571.11	43789.08
571.27	43796.10
571.43	43440.34
571.60	43363.11
571.76	43562.05
571.92	43430.98
572.09	43302.25
572.25	43753.97
572.41	43878.02
572.57	43540.99
572.74	43894.41
572.90	43995.05
573.06	43646.31
573.22	43667.37
573.38	43508.22
573.55	43543.33
573.71	43810.15
573.87	43538.65
574.03	43412.26
574.20	43566.73
574.36	43753.97
574.52	43927.17
574.68	43971.64
574.84	43634.61
575.01	44144.84
575.17	43512.90
575.33	43683.76
575.49	44107.40
575.65	44062.93
575.82	44425.71
575.98	44189.31
576.14	43892.07
576.30	43901.43
576.46	43653.33
576.62	43594.82
576.79	43784.40
576.95	43632.27
577.11	43863.98
577.27	43700.14
577.43	43672.06
577.59	44123.78
577.75	43821.85
577.92	43693.12
578.08	43648.65
578.24	43700.14
578.40	43515.24
578.56	43796.10
578.72	43810.15
578.88	44296.98
579.04	43976.33
579.21	43599.50
579.37	43833.55
579.53	43791.42
579.69	43552.69
579.85	43896.75
580.01	43768.02
580.17	44205.70
580.33	44196.34
580.49	43805.47
580.65	44350.81
580.82	44053.56
580.98	44091.01
581.14	44058.24
581.30	44217.40
581.46	44268.89
581.62	44470.18
581.78	43948.24
581.94	44334.43
582.10	44123.78
582.26	44308.68
582.42	44292.30
582.58	44067.61
582.74	43973.98
582.90	43756.32
583.06	44388.26
583.22	43959.94
583.38	44271.23
583.54	43999.73
583.70	43849.94
583.86	43538.65
584.02	43985.69
584.18	43374.81
584.34	43800.79
584.50	44219.74
584.66	43957.60
584.82	43892.07
584.98	44355.49
585.14	44322.72
585.30	44285.28
585.46	44233.78
585.62	43997.39
585.78	43962.28
585.94	43639.29
586.10	44020.80
586.26	44130.80
586.42	44062.93
586.58	44278.25
586.74	43981.01
586.90	43943.56
587.06	44030.16
587.22	44364.85
587.38	43721.21
587.54	43964.62
587.70	44137.82
587.86	43812.49
588.02	44116.76
588.18	44156.55
588.34	43969.30
588.49	43751.63
588.65	43981.01
588.81	43840.57
588.97	44114.42
589.13	43501.20
589.29	44011.43
589.45	44196.34
589.61	44264.21
589.77	44388.26
589.93	44385.92
590.08	44444.43
590.24	44444.43
590.40	44669.12
590.56	44140.16
590.72	44409.32
590.88	44037.18
591.04	44083.99
591.20	44329.75
591.35	44554.44
591.51	45067.02
591.67	44505.29
591.83	44411.67
591.99	44156.55
592.15	43992.71
592.31	44547.42
592.46	44399.96
592.62	44147.18
592.78	44439.75
592.94	44411.67
593.10	44442.09
593.26	44409.32
593.41	44322.72
593.57	44336.77
593.73	44245.49
593.89	44823.60
594.05	44062.93
594.20	44067.61
594.36	44650.40
594.52	44327.41
594.68	44294.64
594.84	44058.24
594.99	44725.30
595.15	44165.91
595.31	44418.69
595.47	44582.52
595.62	44587.21
595.78	44493.58
595.94	44348.47
596.10	44556.78
596.25	44975.73
596.41	44589.55
596.57	44659.76
596.73	44648.06
596.88	44315.70
597.04	44296.98
597.20	44287.62
597.36	44470.18
597.51	44858.71
597.67	44025.48
597.83	44605.93
597.99	44900.84
598.14	44739.34
598.30	44781.47
598.46	44182.29
598.61	44903.18
598.77	44203.36
598.93	44563.80
599.09	44409.32
599.24	45247.24
599.40	44381.24
599.56	45092.76
599.71	44779.13
599.87	44685.51
600.03	44877.43
600.18	44715.93
600.34	44788.49
600.50	44760.40
600.65	44507.63
600.81	44753.38
600.97	44753.38
601.12	44947.65
601.28	44755.72
601.44	44570.82
601.59	44676.15
601.75	43969.30
601.91	44582.52
602.06	44250.17
602.22	43812.49
602.37	44076.97
602.53	44669.12
602.69	44783.81
602.84	44542.74
603.00	44692.53
603.16	44472.52
603.31	44921.90
603.47	44659.76
603.62	44329.75
603.78	45010.84
603.94	44577.84
604.09	44463.16
604.25	44402.30
604.40	44205.70
604.56	44545.08
604.71	44554.44
604.87	44385.92
605.03	44439.75
605.18	44519.33
605.34	44458.48
605.49	44509.97
605.65	44280.60
605.80	44252.51
605.96	44184.63
606.12	44622.31
606.27	44552.10
606.43	44832.96
606.58	44591.89
606.74	44451.45
606.89	44439.75
607.05	44491.24
607.20	44357.83
607.36	44739.34
607.51	44652.74
607.67	44149.53
607.82	44502.95
607.98	43842.92
608.13	44343.79
608.29	44385.92
608.44	44285.28
608.60	44006.75
608.75	43875.68
608.91	43770.36
609.06	43882.70
609.22	44680.83
609.37	44140.16
609.53	44399.96
609.68	43941.22
609.84	43929.51
609.99	44179.95
610.15	43945.90
610.30	43976.33
610.46	43821.85
610.61	43880.36
610.76	43936.54
610.92	43789.08
611.07	43931.86
611.23	43763.34
611.38	43941.22
611.54	43880.36
611.69	43597.16
611.84	43723.55
612.00	43889.73
612.15	43564.39
612.31	44048.88
612.46	44238.47
612.62	44360.17
612.77	43721.21
612.92	43721.21
613.08	43845.26
613.23	43952.92
613.39	43428.64
613.54	43456.73
613.69	43632.27
613.85	43681.42
614.00	43693.12
614.15	44388.26
614.31	43690.78
614.46	44343.79
614.62	43693.12
614.77	43629.93
614.92	43962.28
615.08	43585.46
615.23	44011.43
615.38	43669.72
615.54	43477.79
615.69	43217.99
615.84	43557.37
616.00	43761.00
616.15	43353.74
616.30	43246.08
616.46	43182.88
616.61	42972.24
616.76	43274.16
616.92	43433.32
617.07	43213.31
617.22	43196.93
617.37	42890.32
617.53	43255.44
617.68	42930.11
617.83	43037.77
617.99	43393.53
618.14	43157.14
618.29	43320.98
618.45	43009.68
618.60	42969.90
618.75	43309.27
618.90	42934.79
619.06	43124.37
619.21	43021.39
619.36	42920.74
619.51	42946.49
619.67	42780.31
619.82	43054.15
619.97	42794.36
620.12	42691.37
620.28	42543.92
620.43	42808.40
620.58	43110.33
620.73	42637.54
620.89	42347.31
621.04	42426.89
621.19	42817.76
621.34	42597.75
621.49	42522.85
621.65	42398.80
621.80	42845.85
621.95	42377.74
622.10	42155.39
622.25	42293.48
622.41	41935.38
622.56	42309.86
622.71	42735.84
622.86	42281.78
623.01	42494.77
623.16	42462.00
623.32	42541.58
623.47	42370.72
623.62	42136.66
623.77	42059.43
623.92	42323.91
624.07	42433.91
624.23	41937.72
624.38	41546.85
624.53	42162.41
624.68	42382.42
624.83	42366.04
624.98	41696.64
625.13	41949.42
625.29	42136.66
625.44	41670.90
625.59	41977.51
625.74	41673.24
625.89	41696.64
626.04	41825.37
626.19	42068.79
626.34	42153.05
626.49	41972.83
626.65	41914.31
626.80	41319.82
626.95	41794.95
627.10	41710.69
627.25	41567.91
627.40	41263.64
627.55	40950.01
627.70	41134.92
627.85	41226.20
628.00	41713.03
628.15	41689.62
628.30	41603.02
628.45	41813.67
628.60	41659.20
628.76	41584.30
628.91	41525.78
629.06	41422.80
629.21	41453.23
629.36	40982.78
629.51	40746.39
629.66	41036.61
629.81	40772.13
629.96	41123.21
630.11	41366.63
630.26	41378.33
630.41	41064.70
630.56	41055.34
630.71	41280.03
630.86	41083.42
631.01	40666.81
631.16	41029.59
631.31	40257.21
631.46	40718.30
631.61	41092.79
631.76	41050.66
631.91	40830.65
632.06	40739.36
632.21	40765.11
632.36	40788.52
632.51	40336.79
632.66	40751.07
632.81	40538.08
632.96	40549.78
633.10	40851.71
633.25	40318.07
633.40	40385.94
633.55	40903.20
633.70	40727.66
633.85	40584.89
634.00	40641.06
634.15	40620.00
634.30	40395.31
634.45	40481.91
634.60	40224.45
634.75	40385.94
634.90	40051.25
635.05	40722.98
635.19	40545.10
635.34	40435.10
635.49	40039.54
635.64	40091.04
635.79	39985.71
635.94	40187.00
636.09	39835.92
636.24	39899.11
636.39	39779.74
636.53	39606.55
636.68	39562.08
636.83	39618.25
636.98	40039.54
637.13	39154.82
637.28	39983.37
637.43	40048.91
637.57	40107.42
637.72	40100.40
637.87	40470.20
638.02	40161.25
638.17	39503.56
638.32	39484.84
638.46	39632.29
638.61	39468.45
638.76	39332.70
638.91	39494.20
639.06	39779.74
639.20	39737.62
639.35	39686.12
639.50	39693.15
639.65	40273.60
639.80	39473.13
639.94	39435.69
640.09	39330.36
640.24	39407.60
640.39	39232.06
640.54	39124.40
640.68	39526.97
640.83	39746.98
640.98	39131.42
641.13	39421.64
641.27	39328.02
641.42	39475.48
641.57	39173.55
641.72	39297.59
641.86	38897.36
642.01	39655.70
642.16	38866.94
642.31	38801.40
642.45	38766.29
642.60	38871.62
642.75	38960.56
642.90	39274.19
643.04	38721.82
643.19	38939.49
643.34	39143.12
643.48	39042.48
643.63	38848.21
643.78	38857.57
643.93	39035.45
644.07	38260.74
644.22	38979.28
644.37	38363.72
644.51	38609.48
644.66	39023.75
644.81	38583.73
644.95	38838.85
645.10	39091.63
645.25	39173.55
645.39	38501.81
645.54	38778.00
645.69	38237.33
645.83	38462.02
645.98	38345.00
646.13	38384.79
646.27	38382.45
646.42	38572.03
646.57	38455.00
646.71	38373.08
646.86	38213.93
647.00	38752.25
647.15	38838.85
647.30	38209.25
647.44	38422.23
647.59	38756.93
647.74	38586.07
647.88	38122.65
648.03	38529.90
648.17	38445.64
648.32	38181.16
648.47	38026.68
648.61	37820.72
648.76	38101.58
648.90	38073.49
649.05	38593.09
649.20	38007.96
649.34	38174.14
649.49	38171.80
649.63	38033.71
649.78	37584.32
649.92	37748.16
650.07	38459.68
650.21	37759.86
650.36	37703.69
650.51	37628.79
650.65	38085.20
650.80	37935.40
650.94	37820.72
651.09	37930.72
651.23	37722.41
651.38	37876.89
651.52	37809.01
651.67	37794.97
651.81	37394.74
651.96	37902.64
652.10	37539.85
652.25	37460.27
652.39	37479.00
652.54	37280.05
652.68	37291.76
652.83	37656.88
652.97	37975.19
653.12	37270.69
653.26	37649.86
653.41	37415.80
653.55	37083.45
653.70	37432.19
653.84	37003.87
653.99	37598.37
654.13	37146.64
654.27	37329.20
654.42	37036.64
654.56	37008.55
654.71	37109.19
654.85	37170.05
655.00	37303.46
655.14	36842.37
655.29	36687.90
655.43	36369.58
655.57	37139.62
655.72	36935.99
655.86	36409.37
656.01	36552.15
656.15	36615.34
656.30	36718.32
656.44	36917.27
656.58	36505.34
656.73	36392.99
656.87	36865.78
657.01	36671.51
657.16	36491.29
657.30	36201.07
657.45	36371.92
657.59	36266.60
657.73	36088.72
657.88	36648.11
658.02	36182.34
658.16	36194.04
658.31	36711.30
658.45	36280.64
658.60	36077.02
658.74	36378.95
658.88	36533.42
659.03	35985.74
659.17	36320.43
659.31	35962.33
659.46	36060.63
659.60	36070.00
659.74	35728.28
659.89	35704.87
660.03	35658.06
660.17	35756.36
660.32	35768.07
660.46	35789.13
660.60	35995.10
660.74	35585.50
660.89	35845.30
661.03	35419.33
661.17	35122.08
661.32	35014.41
661.46	35503.59
661.60	35246.13
661.74	35042.50
661.89	35093.99
662.03	35367.84
662.17	35283.58
662.31	35138.46
662.46	35136.12
662.60	35070.59
662.74	35304.64
662.88	34873.98
663.03	35168.89
663.17	34944.20
663.31	34546.31
663.45	35105.70
663.60	34881.00
663.74	34785.04
663.88	34300.55
664.02	34511.20
664.17	34983.99
664.31	34352.04
664.45	34291.19
664.59	34319.28
664.73	34888.03
664.88	34260.76
665.02	34176.50
665.16	34417.58
665.30	34698.44
665.44	33921.38
665.59	33668.61
665.73	33834.78
665.87	34061.82
666.01	34342.68
666.15	33759.89
666.29	33635.84
666.44	33865.21
666.58	33961.17
666.72	33792.65
666.86	33619.46
667.00	33785.63
667.14	33621.80
667.28	33661.58
667.43	33439.23
667.57	33823.08
667.71	33230.93
667.85	33099.86
667.99	33401.79
668.13	33427.53
668.27	33118.58
668.41	33022.62
668.56	33046.02
668.70	33373.70
668.84	32861.12
668.98	32748.78
669.12	32732.39
669.26	32980.49
669.40	32947.72
669.54	32503.02
669.68	32517.06
669.82	32772.18
669.96	32414.08
670.10	32362.59
670.25	32533.45
670.39	32690.26
670.53	32938.36
670.67	32210.45
670.81	32500.68
670.95	32233.86
671.09	32250.24
671.23	31943.63
671.37	32215.13
671.51	31981.08
671.65	31992.78
671.79	31686.17
671.93	31679.15
672.07	31714.26
672.21	31335.09
672.35	31468.50
672.49	31360.84
672.63	31878.10
672.77	31388.92
672.91	31152.53
673.05	31384.24
673.19	31077.63
673.33	30881.03
673.47	30726.55
673.61	30646.97
673.75	31143.17
673.89	30782.73
674.03	30822.51
674.17	30698.47
674.31	30487.82
674.45	30565.06
674.59	30560.37
674.73	30988.69
674.87	30658.68
675.01	30508.88
675.15	30450.37
675.29	30829.54
675.43	30300.58
675.56	30155.46
675.70	30012.69
675.84	29986.94
675.98	28933.70
676.12	29832.47
676.26	29989.28
676.40	29036.69
676.54	29385.43
676.68	29465.00
676.82	28664.54
676.96	29539.90
677.10	29296.49
677.23	29158.39
677.37	29092.86
677.51	29165.42
677.65	28975.83
677.79	28552.20
677.93	28769.86
678.07	28690.29
678.21	28524.11
678.34	28243.24
678.48	28580.28
678.62	28205.80
678.76	28229.20
678.90	27821.95
679.04	27489.59
679.18	28158.99
679.31	27770.46
679.45	27555.13
679.59	27623.00
679.73	27587.89
679.87	27274.26
680.00	27117.45
680.14	27889.82
680.28	27402.99
680.42	27040.21
680.56	27281.28
680.70	27068.30
680.83	27168.94
680.97	26602.53
681.11	26691.47
681.25	26438.69
681.39	26349.75
681.52	26810.84
681.66	26691.47
681.80	26616.57
681.94	26246.77
682.07	26094.63
682.21	25970.58
682.35	26176.55
682.49	25972.92
682.62	26047.82
682.76	25621.84
682.90	25214.59
683.04	25839.51
683.17	25329.28
683.31	25895.69
683.45	25635.89
683.59	25366.73
683.72	25113.95
683.86	24926.71
684.00	25142.03
684.13	25322.26
684.27	25029.69
684.41	24627.12
684.55	24840.11
684.68	24596.69
684.82	24648.18
684.96	24444.56
685.09	24339.23
685.23	24208.16
685.37	24243.27
685.50	24313.48
685.64	24084.11
685.78	23978.79
685.91	24175.39
686.05	24151.99
686.19	23377.27
686.32	23468.55
686.46	23517.70
686.60	23016.83
686.73	23494.30
686.87	23356.21
687.01	23353.87
687.14	23168.96
687.28	23063.64
687.42	22843.63
687.55	22726.60
687.69	22895.12
687.82	22228.07
687.96	22721.92
688.10	22525.32
688.23	22546.38
688.37	21912.10
688.50	22094.66
688.64	22073.59
688.78	21766.98
688.91	22001.04
689.05	22281.90
689.18	21706.13
689.32	21532.93
689.46	21619.53
689.59	21968.27
689.73	21902.73
689.86	21741.24
690.00	21254.40
690.13	21399.52
690.27	21394.84
690.41	21205.25
690.54	21132.70
690.68	20774.60
690.81	21071.84
690.95	20622.46
691.08	20601.40
691.22	20538.20
691.35	20690.34
691.49	20704.38
691.62	20898.64
691.76	20774.60
691.89	20861.19
692.03	20142.65
692.16	20098.18
692.30	20100.52
692.43	20313.51
692.57	19742.42
692.70	19871.15
692.84	19978.81
692.97	19852.42
693.11	19674.54
693.24	19288.35
693.38	19318.78
693.51	19213.46
693.65	19669.86
693.78	19438.15
693.92	19112.81
694.05	19225.16
694.19	18930.25
694.32	18916.21
694.45	19075.37
694.59	18792.16
694.72	18569.81
694.86	18733.65
694.99	18431.72
695.13	18581.51
695.26	18380.23
695.39	17996.38
695.53	18225.75
695.66	17982.34
695.80	18321.71
695.93	18080.64
696.07	17923.82
696.20	18087.66
696.33	17809.14
696.47	17624.23
696.60	17727.22
696.73	17699.13
696.87	17745.94
697.00	17603.17
697.14	17408.90
697.27	17476.78
697.40	17507.21
697.54	17214.64
697.67	16858.88
697.80	17163.15
697.94	16772.28
698.07	17055.48
698.21	16706.74
698.34	16922.07
698.47	16844.84
698.61	16360.34
698.74	16573.33
698.87	16278.43
699.01	16266.72
699.14	16177.78
699.27	16285.45
699.40	16339.28
699.54	16063.10
699.67	15960.11
699.80	15662.86
699.94	15838.41
700.07	15847.77
700.20	15625.42
700.34	15707.34
700.47	15728.40
700.60	15623.08
700.73	15573.92
700.87	15531.80
701.00	15246.25
701.13	15552.86
701.26	15201.78
701.40	15255.61
701.53	15154.97
701.66	15215.82
701.79	15026.24
701.93	14710.27
702.06	14707.93
702.19	14721.97
702.32	14743.03
702.46	14651.75
702.59	14537.07
702.72	14707.93
702.85	14375.57
702.99	14597.92
703.12	14527.71
703.25	14506.64
703.38	14403.66
703.51	14148.54
703.65	14167.26
703.78	14176.62
703.91	13891.08
704.04	13612.56
704.17	13980.02
704.31	13891.08
704.44	13425.31
704.57	13486.17
704.70	13500.21
704.83	13720.22
704.96	13535.32
705.10	13635.96
705.23	13537.66
>>>>>End Processed Spectral Data<<<<<
