SpectraSuite Data File
++++++++++++++++++++++++++++++++++++
Date: Fri Oct 25 10:43:42 EDT 2013
User: price-jones
Dark Spectrum Present: No
Reference Spectrum Present: No
Number of Sampled Component Spectra: 1
Spectrometers: USB2+H05261
Integration Time (usec): 100000 (USB2+H05261)
Spectra Averaged: 1 (USB2+H05261)
Boxcar Smoothing: 0 (USB2+H05261)
Correct for Electrical Dark: No (USB2+H05261)
Strobe/Lamp Enabled: No (USB2+H05261)
Correct for Detector Non-linearity: No (USB2+H05261)
Correct for Stray Light: No (USB2+H05261)
Number of Pixels in Processed Spectrum: 2048
>>>>>Begin Processed Spectral Data<<<<<
365.73	102.98
365.92	102.98
366.12	102.98
366.32	91.28
366.52	49.15
366.72	25.75
366.91	0.00
367.11	0.00
367.31	11.70
367.51	37.45
367.70	0.00
367.90	11.70
368.10	88.94
368.30	93.62
368.49	0.00
368.69	35.11
368.89	30.43
369.09	46.81
369.28	42.13
369.48	60.85
369.68	88.94
369.87	126.39
370.07	163.84
370.27	135.75
370.47	161.50
370.66	292.57
370.86	475.13
371.06	440.02
371.25	538.32
371.45	458.74
371.65	421.30
371.84	395.55
372.04	414.27
372.24	428.32
372.44	538.32
372.63	510.24
372.83	484.49
373.03	470.45
373.22	500.87
373.42	550.03
373.62	470.45
373.81	550.03
374.01	624.92
374.21	580.45
374.40	543.00
374.60	638.97
374.79	547.69
374.99	550.03
375.19	653.01
375.38	580.45
375.58	510.24
375.78	620.24
375.97	519.60
376.17	615.56
376.37	540.66
376.56	624.92
376.76	636.63
376.95	648.33
377.15	667.05
377.35	650.67
377.54	699.82
377.74	638.97
377.93	638.97
378.13	657.69
378.33	697.48
378.52	575.77
378.72	601.52
378.91	660.03
379.11	650.67
379.31	615.56
379.50	653.01
379.70	648.33
379.89	678.76
380.09	720.88
380.28	664.71
380.48	641.31
380.68	697.48
380.87	704.50
381.07	688.12
381.26	777.06
381.46	755.99
381.65	781.74
381.85	702.16
382.04	777.06
382.24	723.23
382.43	753.65
382.63	648.33
382.83	690.46
383.02	667.05
383.22	730.25
383.41	704.50
383.61	802.80
383.80	713.86
384.00	741.95
384.19	683.44
384.39	800.46
384.58	807.48
384.78	816.85
384.97	760.67
385.17	746.63
385.36	835.57
385.56	849.61
385.75	873.02
385.95	814.51
386.14	884.72
386.34	849.61
386.53	706.84
386.72	880.04
386.92	821.53
387.11	926.85
387.31	830.89
387.50	854.30
387.70	833.23
387.89	903.45
388.09	847.27
388.28	929.19
388.48	898.77
388.67	924.51
388.86	966.64
389.06	1004.09
389.25	1029.84
389.45	924.51
389.64	1018.13
389.84	966.64
390.03	1062.60
390.22	1001.75
390.42	1025.15
390.61	961.96
390.81	1020.47
391.00	1067.28
391.19	1095.37
391.39	994.73
391.58	1083.67
391.78	1081.33
391.97	1167.93
392.16	940.90
392.36	1025.15
392.55	1029.84
392.75	1088.35
392.94	1032.18
393.13	1060.26
393.33	1032.18
393.52	1060.26
393.71	1163.25
393.91	1149.20
394.10	1114.10
394.29	1165.59
394.49	1125.80
394.68	1228.78
394.88	1249.85
395.07	1217.08
395.26	1132.82
395.46	1301.34
395.65	1355.17
395.84	1170.27
396.04	1203.04
396.23	1135.16
396.42	1207.72
396.62	1151.54
396.81	1118.78
397.00	1245.16
397.19	1268.57
397.39	1217.08
397.58	1366.87
397.77	1383.26
397.97	1390.28
398.16	1425.39
398.35	1460.49
398.55	1460.49
398.74	1465.18
398.93	1561.14
399.12	1523.69
399.32	1481.56
399.51	1497.94
399.70	1575.18
399.90	1589.22
400.09	1598.59
400.28	1614.97
400.47	1603.27
400.67	1645.40
400.86	1544.75
401.05	1650.08
401.24	1781.15
401.44	1703.91
401.63	1736.68
401.82	1769.44
402.01	1692.21
402.21	1778.81
402.40	1757.74
402.59	1785.83
402.78	1661.78
402.97	1825.62
403.17	1732.00
403.36	1872.43
403.55	1893.49
403.74	1870.09
403.93	1891.15
404.13	2029.24
404.32	1933.28
404.51	1966.05
404.70	1977.75
404.89	1820.94
405.09	2026.90
405.28	1930.94
405.47	1970.73
405.66	1860.73
405.85	2024.56
406.05	1987.11
406.24	1933.28
406.43	2080.74
406.62	2118.18
406.81	2099.46
407.00	2031.58
407.20	2050.31
407.39	2153.29
407.58	2242.23
407.77	2209.47
407.96	2204.78
408.15	2167.34
408.34	2195.42
408.54	2298.41
408.73	2307.77
408.92	2328.83
409.11	2291.38
409.30	2258.62
409.49	2340.54
409.68	2258.62
409.87	2319.47
410.07	2429.48
410.26	2394.37
410.45	2401.39
410.64	2555.86
410.83	2457.56
411.02	2532.46
411.21	2600.34
411.40	2595.65
411.59	2609.70
411.78	2637.78
411.98	2663.53
412.17	2700.98
412.36	2663.53
412.55	2708.00
412.74	2874.18
412.93	2768.85
413.12	2843.75
413.31	2775.88
413.50	2885.88
413.69	2827.37
413.88	2897.58
414.07	2920.99
414.26	3094.19
414.45	2977.16
414.64	2944.39
414.83	2972.48
415.02	2984.18
415.22	3021.63
415.41	3197.17
415.60	3103.55
415.79	3213.56
415.98	3248.66
416.17	3279.09
416.36	3183.13
416.55	3386.76
416.74	3227.60
416.93	3213.56
417.12	3274.41
417.31	3386.76
417.50	3410.16
417.69	3358.67
417.88	3517.83
418.07	3515.48
418.26	3506.12
418.45	3581.02
418.64	3536.55
418.83	3679.32
419.02	3494.42
419.21	3730.81
419.39	3595.06
419.58	3634.85
419.77	3543.57
419.96	3733.15
420.15	3684.00
420.34	3620.81
420.53	3829.12
420.72	3847.84
420.91	3817.41
421.10	3911.04
421.29	3810.39
421.48	3716.77
421.67	4007.00
421.86	3805.71
422.05	3866.56
422.24	3817.41
422.43	3824.44
422.61	3908.69
422.80	3852.52
422.99	3974.23
423.18	3840.82
423.37	4046.79
423.56	3845.50
423.75	3969.55
423.94	3983.59
424.13	3674.64
424.32	3854.86
424.50	4107.64
424.69	4079.55
424.88	4114.66
425.07	4016.36
425.26	3854.86
425.45	3925.08
425.64	3960.19
425.83	3990.61
426.01	4070.19
426.20	4016.36
426.39	3988.27
426.58	3976.57
426.77	3999.98
426.96	4025.72
427.15	3939.12
427.33	3978.91
427.52	4194.24
427.71	4126.36
427.90	4124.02
428.09	4299.56
428.28	4166.15
428.46	4306.59
428.65	4182.54
428.84	4238.71
429.03	4259.78
429.22	4095.94
429.40	4208.28
429.59	4210.62
429.78	3999.98
429.97	3906.35
430.16	4011.68
430.34	4105.30
430.53	4234.03
430.72	4203.60
430.91	4308.93
431.10	4273.82
431.28	4613.20
431.47	4678.73
431.66	4805.12
431.85	4704.48
432.03	4585.11
432.22	4564.04
432.41	4575.75
432.60	4793.42
432.79	4648.30
432.97	4676.39
433.16	4564.04
433.35	4652.98
433.54	4760.65
433.72	4596.81
433.91	4713.84
434.10	4875.34
434.28	4760.65
434.47	4887.04
434.66	5029.81
434.85	5004.07
435.03	5078.96
435.22	5046.20
435.41	5203.01
435.59	5137.48
435.78	5165.56
435.97	5188.97
436.16	5151.52
436.34	5006.41
436.53	5165.56
436.72	5294.29
436.90	5104.71
437.09	5291.95
437.28	5135.14
437.46	5252.16
437.65	5303.65
437.84	5366.85
438.02	5280.25
438.21	5188.97
438.40	5284.93
438.58	5563.45
438.77	5455.79
438.96	5425.36
439.14	5493.24
439.33	5523.66
439.52	5696.86
439.70	5650.05
439.89	5961.34
440.08	5678.14
440.26	5877.09
440.45	5818.57
440.63	6019.86
440.82	6024.54
441.01	6012.84
441.19	6186.04
441.38	6171.99
441.57	6188.38
441.75	6274.98
441.94	6312.42
442.12	6274.98
442.31	6544.14
442.50	6361.58
442.68	6422.43
442.87	6232.85
443.05	6193.06
443.24	6389.66
443.43	6506.69
443.61	6612.01
443.80	6792.23
443.98	6387.32
444.17	6296.04
444.35	6600.31
444.54	6647.12
444.73	6614.35
444.91	6520.73
445.10	6637.76
445.28	6523.07
445.47	6574.56
445.65	6300.72
445.84	6490.31
446.02	6565.20
446.21	6499.67
446.39	6518.39
446.58	6492.65
446.77	6626.06
446.95	6703.29
447.14	6738.40
447.32	6750.10
447.51	6759.47
447.69	6731.38
447.88	6684.57
448.06	6780.53
448.25	6729.04
448.43	6707.98
448.62	6764.15
448.80	6640.10
448.99	6857.77
449.17	6958.41
449.36	6841.39
449.54	6986.50
449.73	7047.35
449.91	7157.36
450.10	7159.70
450.28	7241.62
450.46	7250.98
450.65	7234.60
450.83	7258.00
451.02	7131.61
451.20	7351.62
451.39	7183.10
451.57	7250.98
451.76	7300.13
451.94	7375.03
452.13	7192.47
452.31	7260.34
452.49	7068.42
452.68	7236.94
452.86	7222.89
453.05	7391.41
453.23	7440.56
453.42	7274.38
453.60	7403.11
453.78	7407.80
453.97	7375.03
454.15	7384.39
454.34	7496.74
454.52	7545.89
454.70	7550.57
454.89	7541.21
455.07	7669.94
455.26	7630.15
455.44	7698.02
455.62	7707.38
455.81	7854.84
455.99	7885.26
456.17	7899.31
456.36	7829.09
456.54	7744.83
456.73	8128.68
456.91	8290.18
457.09	8168.47
457.28	8344.01
457.46	8084.21
457.64	8397.84
457.83	8226.98
458.01	8173.15
458.19	8365.07
458.38	8128.68
458.56	8276.13
458.74	8318.26
458.93	8224.64
459.11	8355.71
459.29	8568.70
459.48	8397.84
459.66	8322.94
459.84	8362.73
460.03	8503.17
460.21	8430.61
460.39	8557.00
460.57	8517.21
460.76	8617.85
460.94	8788.71
461.12	8521.89
461.31	8716.16
461.49	8681.05
461.67	8582.74
461.85	8777.01
462.04	8952.55
462.22	9315.33
462.40	8959.57
462.59	8912.76
462.77	8861.27
462.95	9043.83
463.13	9104.68
463.32	9097.66
463.50	9102.34
463.68	9135.11
463.86	9104.68
464.05	8952.55
464.23	8805.10
464.41	9036.81
464.59	8807.44
464.78	9245.12
464.96	9324.69
465.14	9212.35
465.32	9317.67
465.50	9144.47
465.69	9362.14
465.87	9151.49
466.05	9282.56
466.23	9366.82
466.41	9214.69
466.60	9423.00
466.78	9385.55
466.96	9315.33
467.14	9474.49
467.32	9511.94
467.51	9584.49
467.69	9202.99
467.87	9423.00
468.05	9745.99
468.23	9600.88
468.41	9511.94
468.60	9437.04
468.78	9614.92
468.96	9619.60
469.14	9827.91
469.32	9785.78
469.50	9540.02
469.69	9802.16
469.87	10029.20
470.05	9940.26
470.23	9846.63
470.41	9909.83
470.59	9961.32
470.77	9806.84
470.95	9891.10
471.14	10298.36
471.32	10078.35
471.50	10478.58
471.68	10305.38
471.86	10370.91
472.04	10384.96
472.22	10555.82
472.40	10399.00
472.58	10520.71
472.77	10532.41
472.95	10654.12
473.13	10686.89
473.31	10497.30
473.49	10537.09
473.67	10443.47
473.85	10834.34
474.03	11000.52
474.21	11033.29
474.39	11066.05
474.57	11026.26
474.75	11159.67
474.93	11461.60
475.12	11005.20
475.30	11269.68
475.48	11332.87
475.66	11262.66
475.84	11489.69
476.02	11543.52
476.20	11508.41
476.38	11770.55
476.56	11903.96
476.74	11843.11
476.92	11824.39
477.10	11733.11
477.28	11981.20
477.46	12058.44
477.64	12201.21
477.82	12606.13
478.00	12723.15
478.18	12571.02
478.36	12671.66
478.54	12886.99
478.72	12915.08
478.90	12954.87
479.08	13144.45
479.26	13242.75
479.44	13298.92
479.62	13341.05
479.80	13282.54
479.98	13944.91
480.16	13771.71
480.34	13547.02
480.52	13729.58
480.70	14071.30
480.88	13631.28
481.06	13942.57
481.24	14249.18
481.41	14256.20
481.59	14633.03
481.77	14551.11
481.95	14483.24
482.13	14689.20
482.31	14427.06
482.49	14932.62
482.67	15040.28
482.85	14892.83
483.03	15169.01
483.21	15585.63
483.39	15541.16
483.57	15351.57
483.74	15559.88
483.92	15960.11
484.10	15742.44
484.28	16147.36
484.46	16105.23
484.64	16294.81
484.82	16374.39
485.00	16266.72
485.18	16676.32
485.35	16713.77
485.53	16264.38
485.71	16130.97
485.89	16332.26
486.07	16528.86
486.25	16858.88
486.43	16615.46
486.61	17193.58
486.78	17305.92
486.96	17593.81
487.14	17741.26
487.32	17781.05
487.50	18059.57
487.68	18380.23
487.85	18209.37
488.03	18834.29
488.21	18527.68
488.39	18630.66
488.57	18539.38
488.75	18785.14
488.92	19021.53
489.10	19639.44
489.28	19552.84
489.46	19873.49
489.64	19854.76
489.81	20123.93
489.99	20224.57
490.17	20379.04
490.35	20568.63
490.53	20353.30
490.70	20753.53
490.88	20563.95
491.06	20805.02
491.24	20814.38
491.41	20961.84
491.59	21008.65
491.77	21076.52
491.95	21364.41
492.13	21371.43
492.30	21788.05
492.48	21703.79
492.66	22057.21
492.84	21954.22
493.01	22157.85
493.19	22305.31
493.37	22541.70
493.54	22593.19
493.72	22735.96
493.90	22705.54
494.08	23037.89
494.25	22895.12
494.43	23461.53
494.61	23756.44
494.79	23454.51
494.96	23342.16
495.14	23370.25
495.32	23871.12
495.49	24013.90
495.67	24065.39
495.85	23957.72
496.02	24297.10
496.20	24383.70
496.38	24269.01
496.55	24538.18
496.73	25013.31
496.91	24917.34
497.09	24875.21
497.26	25411.20
497.44	25261.40
497.62	25535.24
497.79	25455.67
497.97	25088.20
498.14	25647.59
498.32	25563.33
498.50	25762.28
498.67	26256.13
498.85	25986.97
499.03	26675.09
499.20	26529.97
499.38	26426.99
499.56	26452.73
499.73	26424.65
499.91	26888.07
500.08	26410.60
500.26	26672.74
500.44	26780.41
500.61	26885.73
500.79	26806.16
500.97	26916.16
501.14	27157.24
501.32	27220.43
501.49	26962.97
501.67	27337.46
501.84	27468.53
502.02	27405.33
502.20	27929.61
502.37	28095.79
502.55	27538.74
502.72	28002.17
502.90	28355.59
503.07	28060.68
503.25	28285.37
503.43	28173.03
503.60	28357.93
503.78	28531.13
503.95	28154.30
504.13	28732.42
504.30	28666.88
504.48	28868.17
504.65	28994.56
504.83	29312.87
505.01	29497.77
505.18	29212.23
505.36	29338.62
505.53	29483.73
505.71	29902.68
505.88	29647.57
506.06	29371.38
506.23	29577.35
506.41	29776.30
506.58	30176.53
506.76	30139.08
506.93	30136.74
507.11	30094.61
507.28	30012.69
507.46	29958.86
507.63	30099.29
507.81	30824.86
507.98	30471.43
508.16	30464.41
508.33	31019.12
508.50	30918.48
508.68	30981.67
508.85	31393.61
509.03	30892.73
509.20	31470.84
509.38	31091.68
509.55	31660.43
509.73	31175.94
509.90	31606.59
510.08	31173.60
510.25	31592.55
510.42	31798.52
510.60	31463.82
510.77	32002.14
510.95	32081.72
511.12	32297.05
511.30	32446.85
511.47	32488.98
511.64	32584.94
511.82	32615.37
511.99	32261.94
512.17	32390.67
512.34	32266.63
512.51	33006.23
512.69	33099.86
512.86	32924.32
513.04	33275.40
513.21	32648.13
513.38	33163.05
513.56	33029.64
513.73	32957.08
513.90	33179.43
514.08	33387.74
514.25	33502.43
514.43	33125.60
514.60	33614.77
514.77	33820.74
514.95	33689.67
515.12	33614.77
515.29	33874.57
515.47	34373.11
515.64	34211.61
515.81	33818.40
515.99	33614.77
516.16	33876.91
516.33	33628.82
516.51	33874.57
516.68	33362.00
516.85	33287.10
517.03	33839.47
517.20	34134.37
517.37	34398.85
517.54	34745.25
517.72	34471.41
517.89	34010.32
518.06	34429.28
518.24	34134.37
518.41	34499.50
518.58	34768.66
518.75	34504.18
518.93	35051.86
519.10	34714.83
519.27	35342.09
519.45	34955.90
519.62	35489.54
519.79	35637.00
519.96	35707.21
520.14	35538.69
520.31	35239.11
520.48	35927.22
520.65	35545.72
520.83	36051.27
521.00	36091.06
521.17	36175.32
521.34	35747.00
521.52	36650.45
521.69	36488.95
521.86	36584.91
522.03	36507.68
522.20	36556.83
522.38	36158.94
522.55	36392.99
522.72	36526.40
522.89	36453.84
523.07	37247.29
523.24	36353.20
523.41	37141.96
523.58	36889.18
523.75	37670.92
523.92	37474.32
524.10	36959.40
524.27	37415.80
524.44	37329.20
524.61	37408.78
524.78	37813.70
524.96	38036.05
525.13	37420.48
525.30	37954.13
525.47	38232.65
525.64	37930.72
525.81	37837.10
525.98	37659.22
526.16	37298.78
526.33	37654.54
526.50	37982.21
526.67	37315.16
526.84	37663.90
527.01	37654.54
527.18	38108.60
527.36	38038.39
527.53	38178.82
527.70	38663.31
527.87	38803.74
528.04	38438.62
528.21	38490.11
528.38	38455.00
528.55	39431.01
528.72	38778.00
528.89	39583.14
529.07	38965.24
529.24	39042.48
529.41	38958.22
529.58	39112.69
529.75	39131.42
529.92	39342.06
530.09	39246.10
530.26	39292.91
530.43	39313.98
530.60	39147.80
530.77	39189.93
530.94	39775.06
531.11	39236.74
531.28	39931.88
531.46	39751.66
531.63	39807.83
531.80	39299.94
531.97	40006.78
532.14	39431.01
532.31	39775.06
532.48	39442.71
532.65	40074.65
532.82	39306.96
532.99	39569.10
533.16	40229.13
533.33	40261.90
533.50	40210.40
533.67	40191.68
533.84	39983.37
534.01	40161.25
534.18	40048.91
534.35	41053.00
534.52	40456.16
534.69	40582.55
534.86	40484.25
535.03	40392.97
535.20	40863.41
535.37	41120.87
535.54	41333.86
535.71	40931.29
535.88	41146.62
536.05	40818.94
536.22	41062.36
536.38	41027.25
536.55	41038.95
536.72	40985.12
536.89	40821.28
537.06	41167.68
537.23	41287.05
537.40	41202.79
537.57	41242.58
537.74	41350.24
537.91	41837.08
538.08	41186.41
538.25	40957.03
538.42	41439.18
538.59	41406.42
538.75	41549.19
538.92	41139.60
539.09	41762.18
539.26	41872.18
539.43	41729.41
539.60	41766.86
539.77	41619.41
539.94	41516.42
540.11	41460.25
540.28	41916.65
540.44	41750.48
540.61	41930.70
540.78	41312.80
540.95	41364.29
541.12	41853.46
541.29	41504.72
541.46	41914.31
541.62	42124.96
541.79	42127.30
541.96	41729.41
542.13	41797.29
542.30	42117.94
542.47	42445.62
542.63	42085.17
542.80	42351.99
542.97	42934.79
543.14	42667.97
543.31	42969.90
543.48	42754.57
543.64	42876.27
543.81	42934.79
543.98	43014.37
544.15	42735.84
544.32	43276.51
544.48	43320.98
544.65	43356.08
544.82	43597.16
544.99	42880.95
545.16	43058.84
545.32	42892.66
545.49	43391.19
545.66	43690.78
545.83	43587.80
546.00	43318.64
546.16	43049.47
546.33	43028.41
546.50	43295.23
546.67	43365.45
546.83	43243.74
547.00	43318.64
547.17	43040.11
547.34	43487.15
547.50	43538.65
547.67	43753.97
547.84	43330.34
548.00	43629.93
548.17	44091.01
548.34	43580.78
548.51	44179.95
548.67	43791.42
548.84	44392.94
549.01	43753.97
549.18	43927.17
549.34	44102.71
549.51	44289.96
549.68	43838.23
549.84	44205.70
550.01	43941.22
550.18	44051.22
550.34	44367.20
550.51	43894.41
550.68	44516.99
550.84	43538.65
551.01	43920.15
551.18	44147.18
551.34	44411.67
551.51	44882.11
551.68	44570.82
551.84	44547.42
552.01	44392.94
552.18	44587.21
552.34	44137.82
552.51	44191.65
552.68	44748.70
552.84	44549.76
553.01	44825.94
553.18	44570.82
553.34	44685.51
553.51	44493.58
553.67	44793.17
553.84	45123.19
554.01	44800.19
554.17	45113.83
554.34	44949.99
554.51	44996.80
554.67	44889.13
554.84	44533.37
555.00	44718.28
555.17	45109.14
555.33	45020.20
555.50	45205.11
555.67	44933.60
555.83	44872.75
556.00	44509.97
556.16	44760.40
556.33	44870.41
556.50	44877.43
556.66	45209.79
556.83	44989.78
556.99	45289.37
557.16	44886.79
557.32	45160.64
557.49	45359.58
557.65	44676.15
557.82	45244.90
557.98	45064.67
558.15	45617.04
558.32	45675.55
558.48	45144.25
558.65	45109.14
558.81	44886.79
558.98	45265.96
559.14	45034.25
559.31	45272.98
559.47	45844.07
559.64	45464.91
559.80	45270.64
559.97	45441.50
560.13	45392.35
560.30	45158.30
560.46	45441.50
560.63	45659.17
560.79	45942.38
560.96	45666.19
561.12	45663.85
561.29	45507.04
561.45	45443.84
561.61	45375.97
561.78	45682.58
561.94	44856.37
562.11	45291.71
562.27	45485.97
562.44	45614.70
562.60	45989.19
562.77	45820.67
562.93	46012.59
563.10	45727.05
563.26	45783.22
563.42	45600.66
563.59	45331.50
563.75	45378.31
563.92	46061.74
564.08	45916.63
564.24	45837.05
564.41	45815.99
564.57	45652.15
564.74	45500.01
564.90	45982.16
565.07	45682.58
565.23	45640.45
565.39	45647.47
565.56	45773.86
565.72	45425.12
565.88	45881.52
566.05	45764.49
566.21	45736.41
566.38	45588.95
566.54	46071.10
566.70	46169.41
566.87	46344.95
567.03	46000.89
567.19	46391.76
567.36	46075.79
567.52	45811.31
567.68	46010.25
567.85	45745.77
568.01	46089.83
568.17	45818.33
568.34	46127.28
568.50	46066.42
568.66	46174.09
568.83	46012.59
568.99	45986.85
569.15	45855.78
569.32	45741.09
569.48	45759.81
569.64	46122.60
569.81	45804.28
569.97	45776.20
570.13	45701.30
570.30	45839.39
570.46	45918.97
570.62	45467.25
570.78	45696.62
570.95	45771.52
571.11	45750.45
571.27	45825.35
571.43	45689.60
571.60	46141.32
571.76	45928.33
571.92	46089.83
572.09	46410.48
572.25	46054.72
572.41	46153.02
572.57	46316.86
572.74	46534.53
572.90	46148.34
573.06	46532.19
573.22	46377.72
573.38	46382.40
573.55	45911.95
573.71	46230.26
573.87	46440.91
574.03	45991.53
574.20	46265.37
574.36	45734.07
574.52	46424.53
574.68	45975.14
574.84	46000.89
575.01	46099.19
575.17	46150.68
575.33	46094.51
575.49	46150.68
575.65	46246.65
575.82	46492.40
575.98	46143.66
576.14	46307.50
576.30	46382.40
576.46	46012.59
576.62	46230.26
576.79	46073.45
576.95	46085.15
577.11	46487.72
577.27	46417.50
577.43	46178.77
577.59	46153.02
577.75	46061.74
577.92	45612.36
578.08	45734.07
578.24	46026.63
578.40	45710.66
578.56	46162.39
578.72	46234.94
578.88	46167.07
579.04	46291.12
579.21	46012.59
579.37	46284.09
579.53	46382.40
579.69	46036.00
579.85	46267.71
580.01	46291.12
580.17	46401.12
580.33	46162.39
580.49	46253.67
580.65	46361.33
580.82	46176.43
580.98	45954.08
581.14	46244.30
581.30	46291.12
581.46	46340.27
581.62	46260.69
581.78	46464.32
581.94	46197.49
582.10	46204.52
582.26	46717.09
582.42	46298.14
582.58	46263.03
582.74	46110.89
582.90	46607.09
583.06	46571.98
583.22	46532.19
583.38	46696.03
583.54	46520.49
583.70	46417.50
583.86	46206.86
584.02	46351.97
584.18	46703.05
584.34	46251.33
584.50	46501.76
584.66	46031.32
584.82	46087.49
584.98	46312.18
585.14	45958.76
585.30	45965.78
585.46	46202.18
585.62	45986.85
585.78	46440.91
585.94	45837.05
586.10	46167.07
586.26	45909.61
586.42	46782.63
586.58	46459.63
586.74	46756.88
586.90	46045.36
587.06	46136.64
587.22	46443.25
587.38	46375.37
587.54	46316.86
587.70	46534.53
587.86	46000.89
588.02	46281.75
588.18	46564.96
588.34	45762.15
588.49	45907.27
588.65	45574.91
588.81	46082.81
588.97	45876.84
589.13	45764.49
589.29	45933.01
589.45	45717.68
589.61	46436.23
589.77	46216.22
589.93	46644.54
590.08	46263.03
590.24	46459.63
590.40	46691.35
590.56	46478.36
590.72	46279.41
590.88	46335.59
591.04	46101.53
591.20	46681.98
591.35	46513.47
591.51	47044.77
591.67	46679.64
591.83	46422.19
591.99	46354.31
592.15	46274.73
592.31	46382.40
592.46	46450.27
592.62	46649.22
592.78	46141.32
592.94	46745.18
593.10	46590.70
593.26	46630.49
593.41	46649.22
593.57	45972.80
593.73	46232.60
593.89	46539.21
594.05	46396.44
594.20	46195.15
594.36	46330.90
594.52	46562.62
594.68	46562.62
594.84	46295.80
594.99	46518.15
595.15	46686.67
595.31	46291.12
595.47	46911.36
595.62	46204.52
595.78	46625.81
595.94	46768.58
596.10	46850.50
596.25	46705.39
596.41	46644.54
596.57	46340.27
596.73	46768.58
596.88	46155.36
597.04	46803.69
597.20	46422.19
597.36	46639.86
597.51	46253.67
597.67	46745.18
597.83	46670.28
597.99	46852.84
598.14	46354.31
598.30	46373.03
598.46	46335.59
598.61	46660.92
598.77	46223.24
598.93	46663.26
599.09	46326.22
599.24	46721.77
599.40	47068.17
599.56	46543.89
599.71	46204.52
599.87	46801.35
600.03	46436.23
600.18	46705.39
600.34	46307.50
600.50	46473.68
600.65	46272.39
600.81	46536.87
600.97	46873.91
601.12	46845.82
601.28	46789.65
601.44	46270.05
601.59	46419.84
601.75	46361.33
601.91	46085.15
602.06	46394.10
602.22	46335.59
602.37	46513.47
602.53	46408.14
602.69	47019.02
602.84	46466.66
603.00	46347.29
603.16	46649.22
603.31	46298.14
603.47	46712.41
603.62	46143.66
603.78	46710.07
603.94	46717.09
604.09	46536.87
604.25	46820.08
604.40	46061.74
604.56	46295.80
604.71	46623.47
604.87	46705.39
605.03	46391.76
605.18	46178.77
605.34	46377.72
605.49	46239.62
605.65	46403.46
605.80	46335.59
605.96	46405.80
606.12	46230.26
606.27	46623.47
606.43	46183.45
606.58	46457.29
606.74	45982.16
606.89	46075.79
607.05	45949.40
607.20	46674.96
607.36	46377.72
607.51	46527.51
607.67	46274.73
607.82	46267.71
607.98	46314.52
608.13	46394.10
608.29	46232.60
608.44	45530.44
608.60	45860.46
608.75	46066.42
608.91	46330.90
609.06	45937.69
609.22	46288.77
609.37	45865.14
609.53	45933.01
609.68	46024.29
609.84	46064.08
609.99	45947.06
610.15	45521.08
610.30	45734.07
610.46	45659.17
610.61	45378.31
610.76	46213.88
610.92	45998.55
611.07	46239.62
611.23	45638.11
611.38	45666.19
611.54	45787.90
611.69	45261.28
611.84	45198.09
612.00	45198.09
612.15	45476.61
612.31	46190.47
612.46	45382.99
612.62	45909.61
612.77	45448.52
612.92	45853.44
613.08	44776.79
613.23	45567.89
613.39	45359.58
613.54	45144.25
613.69	45343.20
613.85	45301.07
614.00	45411.07
614.15	45357.24
614.31	45074.04
614.46	45511.72
614.62	45141.91
614.77	45432.14
614.92	45242.56
615.08	45127.87
615.23	45485.97
615.38	45195.74
615.54	45235.53
615.69	45237.87
615.84	44992.12
616.00	45397.03
616.15	44870.41
616.30	45230.85
616.46	45244.90
616.61	44596.57
616.76	44788.49
616.92	44652.74
617.07	44900.84
617.22	44622.31
617.37	44793.17
617.53	44982.76
617.68	44945.31
617.83	45109.14
617.99	44844.66
618.14	44481.88
618.29	44488.90
618.45	44217.40
618.60	44495.92
618.75	44449.11
618.90	44151.87
619.06	44184.63
619.21	44264.21
619.36	44748.70
619.51	44603.59
619.67	44336.77
619.82	44456.14
619.97	44774.45
620.12	44198.68
620.28	43739.93
620.43	44451.45
620.58	44603.59
620.73	44470.18
620.89	44172.93
621.04	44133.14
621.19	44655.08
621.34	44250.17
621.49	44381.24
621.65	43901.43
621.80	44720.62
621.95	44027.82
622.10	44481.88
622.25	43941.22
622.41	43779.72
622.56	43770.36
622.71	44608.27
622.86	44013.77
623.01	44112.08
623.16	44069.95
623.32	43714.19
623.47	43941.22
623.62	44055.90
623.77	43718.87
623.92	43945.90
624.07	43452.05
624.23	43861.64
624.38	44020.80
624.53	43536.30
624.68	44055.90
624.83	43498.86
624.98	43761.00
625.13	42988.62
625.29	43306.93
625.44	43489.49
625.59	43297.57
625.74	43288.21
625.89	43206.29
626.04	43138.41
626.19	42918.40
626.34	43005.00
626.49	43484.81
626.65	43115.01
626.80	43332.68
626.95	43005.00
627.10	43070.54
627.25	43222.67
627.40	43122.03
627.55	42700.73
627.70	42710.10
627.85	43014.37
628.00	43185.22
628.15	43241.40
628.30	42843.51
628.45	42871.59
628.60	42607.11
628.76	42927.77
628.91	42831.80
629.06	42553.28
629.21	42459.66
629.36	42696.05
629.51	42471.36
629.66	42391.78
629.81	42307.52
629.96	42366.04
630.11	42286.46
630.26	42483.06
630.41	42714.78
630.56	42759.25
630.71	42483.06
630.86	42485.40
631.01	41986.87
631.16	42239.65
631.31	42000.91
631.46	41965.81
631.61	42452.64
631.76	42078.15
631.91	41968.15
632.06	42663.28
632.21	42288.80
632.36	42490.09
632.51	41984.53
632.66	42188.16
632.81	41904.95
632.96	41986.87
633.10	42033.68
633.25	42122.62
633.40	42410.51
633.55	42183.48
633.70	41975.17
633.85	41851.12
634.00	42045.38
634.15	42204.54
634.30	41413.44
634.45	41420.46
634.60	42064.11
634.75	41755.16
634.90	41144.28
635.05	41855.80
635.19	41511.74
635.34	41799.63
635.49	41230.88
635.64	41415.78
635.79	41490.68
635.94	41221.52
636.09	41308.11
636.24	41027.25
636.39	41256.62
636.53	41579.62
636.68	41347.90
636.83	41291.73
636.98	40907.88
637.13	41134.92
637.28	41282.37
637.43	41689.62
637.57	41455.57
637.72	40952.35
637.87	41265.99
638.02	41509.40
638.17	41291.73
638.32	40865.75
638.46	40872.78
638.61	41144.28
638.76	40580.21
638.91	41174.70
639.06	41141.94
639.20	40840.01
639.35	41078.74
639.50	40559.14
639.65	40634.04
639.80	40985.12
639.94	40493.61
640.09	41036.61
640.24	40493.61
640.39	40884.48
640.54	40627.02
640.68	40762.77
640.83	40194.02
640.98	40580.21
641.13	40327.43
641.27	40666.81
641.42	39966.99
641.57	40507.65
641.72	40732.34
641.86	40598.93
642.01	40093.38
642.16	40058.27
642.31	40009.12
642.45	40348.50
642.60	39952.94
642.75	40313.39
642.90	40378.92
643.04	40275.94
643.19	40023.16
643.34	40645.74
643.48	40257.21
643.63	39927.20
643.78	39878.05
643.93	40418.71
644.07	39852.30
644.22	39821.87
644.37	39775.06
644.51	39669.74
644.66	39995.07
644.81	39985.71
644.95	39751.66
645.10	40079.33
645.25	39866.34
645.39	39995.07
645.54	39374.83
645.69	39461.43
645.83	39641.65
645.98	39679.10
646.13	39470.79
646.27	39690.80
646.42	39463.77
646.57	39728.25
646.71	39526.97
646.86	39505.90
647.00	39819.53
647.15	39660.38
647.30	39597.18
647.44	39213.34
647.59	39040.14
647.74	39342.06
647.88	39189.93
648.03	39208.65
648.17	39243.76
648.32	39051.84
648.47	39157.16
648.61	39079.92
648.76	39196.95
648.90	38892.68
649.05	39321.00
649.20	39583.14
649.34	38969.92
649.49	38555.64
649.63	38572.03
649.78	38859.91
649.92	39168.87
650.07	39344.41
650.21	38740.55
650.36	38817.78
650.51	39077.58
650.65	39543.35
650.80	38747.57
650.94	39496.54
651.09	38700.76
651.23	38337.98
651.38	38445.64
651.52	38653.95
651.67	38232.65
651.81	38534.58
651.96	38597.77
652.10	38291.16
652.25	38974.60
652.39	38998.01
652.54	38457.34
652.68	38675.01
652.83	38696.08
652.97	38693.74
653.12	38644.59
653.26	38288.82
653.41	38045.41
653.55	38057.11
653.70	38244.35
653.84	38188.18
653.99	38169.46
654.13	38232.65
654.27	38087.54
654.42	38375.42
654.56	38176.48
654.71	37928.38
654.85	38010.30
655.00	38473.73
655.14	37848.80
655.29	37799.65
655.43	37813.70
655.57	37233.24
655.72	37205.16
655.86	37071.75
656.01	37479.00
656.15	36931.31
656.30	37289.42
656.44	37008.55
656.58	37874.55
656.73	37851.14
656.87	37296.44
657.01	37691.99
657.16	37530.49
657.30	37031.96
657.45	36814.29
657.59	37027.28
657.73	37085.79
657.88	37088.13
658.02	37490.70
658.16	37610.07
658.31	38078.18
658.45	37357.29
658.60	37605.39
658.74	37607.73
658.88	37230.90
659.03	36978.12
659.17	36615.34
659.31	36809.61
659.46	37013.23
659.60	36954.72
659.74	36919.61
659.89	36666.83
660.03	36563.85
660.17	37144.30
660.32	37226.22
660.46	37118.56
660.60	36730.03
660.74	36648.11
660.89	36381.29
661.03	36339.16
661.17	36517.04
661.32	36383.63
661.46	36322.77
661.60	35936.59
661.74	36121.49
661.89	36306.39
662.03	36542.78
662.17	36161.28
662.31	36549.81
662.46	36402.35
662.60	36638.75
662.74	36360.22
662.88	36009.14
663.03	36004.46
663.17	35674.45
663.31	35395.92
663.45	35770.41
663.60	35721.26
663.74	35763.39
663.88	35318.68
664.02	35452.09
664.17	35534.01
664.31	35108.04
664.45	35304.64
664.59	35318.68
664.73	35091.65
664.88	35351.45
665.02	34876.32
665.16	34824.83
665.30	34728.87
665.44	34623.54
665.59	34623.54
665.73	35215.70
665.87	34335.66
666.01	34707.80
666.15	34572.05
666.29	34689.08
666.44	34988.67
666.58	34714.83
666.72	34494.82
666.86	34670.36
667.00	34906.75
667.14	34038.41
667.28	34270.12
667.43	34249.06
667.57	34466.73
667.71	34258.42
667.85	34429.28
667.99	34024.37
668.13	33963.51
668.27	34487.79
668.41	33869.89
668.56	34274.80
668.70	34059.48
668.84	33722.44
668.98	33443.91
669.12	33574.98
669.26	33694.35
669.40	33139.65
669.54	33408.81
669.68	33626.48
669.82	33266.03
669.96	33399.44
670.10	33099.86
670.25	33380.72
670.39	33085.81
670.53	32950.06
670.67	33043.68
670.81	33397.10
670.95	32629.41
671.09	32926.66
671.23	32933.68
671.37	32818.99
671.51	32669.20
671.65	32891.55
671.79	32418.76
671.93	32627.07
672.07	32418.76
672.21	32343.86
672.35	32460.89
672.49	32584.94
672.63	32481.95
672.77	32280.67
672.91	31885.12
673.05	32060.66
673.19	31861.71
673.33	31674.47
673.47	31316.37
673.61	31721.28
673.75	31517.65
673.89	31168.91
674.03	31433.39
674.17	31578.51
674.31	31122.10
674.45	31648.72
674.59	31367.86
674.73	31276.58
674.87	31098.70
675.01	30976.99
675.15	31044.87
675.29	31122.10
675.43	30810.81
675.56	30661.02
675.70	30958.27
675.84	30705.49
675.98	29544.58
676.12	30270.15
676.26	30742.94
676.40	30506.54
676.54	30604.84
676.68	30349.73
676.82	29839.49
676.96	29785.66
677.10	29617.14
677.23	29422.87
677.37	29509.47
677.51	29961.20
677.65	29366.70
677.79	29130.31
677.93	29460.32
678.07	29214.57
678.21	28800.29
678.34	28821.36
678.48	28704.33
678.62	28334.53
678.76	28418.78
678.90	28730.08
679.04	28620.07
679.18	28460.91
679.31	28505.38
679.45	28091.11
679.59	28041.96
679.73	28037.28
679.87	27995.15
680.00	28177.71
680.14	28037.28
680.28	27920.25
680.42	27611.30
680.56	27513.00
680.70	27445.12
680.83	27424.06
680.97	27274.26
681.11	27562.15
681.25	27288.31
681.39	27168.94
681.52	27225.11
681.66	27089.36
681.80	26897.44
681.94	26822.54
682.07	26738.28
682.21	26504.23
682.35	26647.00
682.49	26693.81
682.62	26513.59
682.76	26216.34
682.90	26267.83
683.04	25937.82
683.17	26221.02
683.31	25692.06
683.45	25773.98
683.59	25671.00
683.72	25635.89
683.86	25848.88
684.00	25572.69
684.13	25371.41
684.27	25177.14
684.41	25057.78
684.55	24973.52
684.68	25139.69
684.82	25092.88
684.96	25179.48
685.09	24924.36
685.23	25022.67
685.37	24788.61
685.50	24758.19
685.64	24884.58
685.78	24407.11
685.91	24308.80
686.05	24011.56
686.19	23761.12
686.32	24191.78
686.46	23660.48
686.60	23140.88
686.73	23075.34
686.87	23356.21
687.01	23168.96
687.14	23037.89
687.28	23115.13
687.42	22871.72
687.55	22974.70
687.69	23014.49
687.82	22944.27
687.96	22663.41
688.10	22787.46
688.23	22888.10
688.37	22600.21
688.50	22632.98
688.64	22602.55
688.78	22441.06
688.91	22485.53
689.05	22242.11
689.18	22195.30
689.32	22054.87
689.46	21914.44
689.59	22518.29
689.73	22366.16
689.86	21680.38
690.00	21701.45
690.13	21956.57
690.27	21633.57
690.41	21600.80
690.54	21303.56
690.68	21223.98
690.81	21231.00
690.95	21525.91
691.08	21116.31
691.22	21256.75
691.35	20971.20
691.49	20861.19
691.62	21113.97
691.76	20751.19
691.89	20695.02
692.03	20723.10
692.16	20709.06
692.30	20322.87
692.43	20362.66
692.57	20130.95
692.70	20400.11
692.84	19974.13
692.97	20053.71
693.11	19953.07
693.24	19899.23
693.38	19714.33
693.51	19735.40
693.65	19924.98
693.78	19491.98
693.92	19344.53
694.05	19606.67
694.19	19281.33
694.32	19587.94
694.45	19557.52
694.59	19157.28
694.72	19124.52
694.86	18616.62
694.99	18745.35
695.13	18820.25
695.26	18789.82
695.39	18508.96
695.53	18794.50
695.66	18658.75
695.80	18565.13
695.93	18146.17
696.07	18443.42
696.20	18249.16
696.33	18340.44
696.47	18326.39
696.60	17767.01
696.73	18026.81
696.87	17638.28
697.00	17790.41
697.14	17441.67
697.27	17254.43
697.40	17422.95
697.54	17657.00
697.67	17383.16
697.80	17132.72
697.94	17036.76
698.07	17043.78
698.21	16931.44
698.34	17132.72
698.47	17301.24
698.61	16704.40
698.74	17111.66
698.87	16872.92
699.01	16685.68
699.14	16285.45
699.27	16322.90
699.40	16362.69
699.54	16418.86
699.67	16346.30
699.80	16194.17
699.94	16201.19
700.07	16119.27
700.20	16184.80
700.34	15864.15
700.47	16077.14
700.60	15782.23
700.73	15999.90
700.87	16023.31
701.00	15424.13
701.13	15506.05
701.26	15002.83
701.40	15229.87
701.53	15360.94
701.66	15501.37
701.79	14909.21
701.93	15061.35
702.06	14773.46
702.19	15000.49
702.32	14710.27
702.46	14881.13
702.59	14932.62
702.72	14822.61
702.85	14721.97
702.99	14682.18
703.12	14789.85
703.25	14494.94
703.38	14150.88
703.51	14443.45
703.65	14363.87
703.78	14129.81
703.91	14148.54
704.04	13982.36
704.17	14223.44
704.31	14071.30
704.44	13692.13
704.57	13961.30
704.70	13551.70
704.83	13713.20
704.96	13724.90
705.10	13731.92
705.23	13771.71
>>>>>End Processed Spectral Data<<<<<
