SpectraSuite Data File
++++++++++++++++++++++++++++++++++++
Date: Fri Oct 25 10:44:13 EDT 2013
User: price-jones
Dark Spectrum Present: No
Reference Spectrum Present: No
Number of Sampled Component Spectra: 1
Spectrometers: USB2+H05261
Integration Time (usec): 100000 (USB2+H05261)
Spectra Averaged: 1 (USB2+H05261)
Boxcar Smoothing: 0 (USB2+H05261)
Correct for Electrical Dark: No (USB2+H05261)
Strobe/Lamp Enabled: No (USB2+H05261)
Correct for Detector Non-linearity: No (USB2+H05261)
Correct for Stray Light: No (USB2+H05261)
Number of Pixels in Processed Spectrum: 2048
>>>>>Begin Processed Spectral Data<<<<<
365.73	166.18
365.92	166.18
366.12	166.18
366.32	53.83
366.52	60.85
366.72	0.00
366.91	9.36
367.11	0.00
367.31	28.09
367.51	2.34
367.70	37.45
367.90	79.58
368.10	60.85
368.30	100.64
368.49	37.45
368.69	74.90
368.89	60.85
369.09	53.83
369.28	72.56
369.48	124.05
369.68	79.58
369.87	98.30
370.07	110.01
370.27	154.48
370.47	203.63
370.66	369.80
370.86	416.62
371.06	423.64
371.25	411.93
371.45	414.27
371.65	528.96
371.84	456.40
372.04	500.87
372.24	484.49
372.44	496.19
372.63	505.56
372.83	479.81
373.03	531.30
373.22	472.79
373.42	535.98
373.62	592.16
373.81	505.56
374.01	561.73
374.21	561.73
374.40	599.18
374.60	650.67
374.79	594.50
374.99	617.90
375.19	554.71
375.38	669.39
375.58	655.35
375.78	594.50
375.97	592.16
376.17	643.65
376.37	620.24
376.56	627.26
376.76	580.45
376.95	678.76
377.15	622.58
377.35	594.50
377.54	650.67
377.74	641.31
377.93	648.33
378.13	688.12
378.33	634.29
378.52	622.58
378.72	725.57
378.91	709.18
379.11	589.82
379.31	706.84
379.50	594.50
379.70	697.48
379.89	711.52
380.09	608.54
380.28	713.86
380.48	669.39
380.68	744.29
380.87	650.67
381.07	681.10
381.26	741.95
381.46	716.20
381.65	788.76
381.85	734.93
382.04	671.73
382.24	758.33
382.43	718.54
382.63	678.76
382.83	716.20
383.02	758.33
383.22	727.91
383.41	727.91
383.61	772.38
383.80	711.52
384.00	781.74
384.19	774.72
384.39	744.29
384.58	821.53
384.78	765.36
384.97	727.91
385.17	777.06
385.36	741.95
385.56	835.57
385.75	741.95
385.95	933.87
386.14	835.57
386.34	849.61
386.53	882.38
386.72	854.30
386.92	856.64
387.11	877.70
387.31	861.32
387.50	856.64
387.70	889.40
387.89	854.30
388.09	849.61
388.28	877.70
388.48	868.34
388.67	966.64
388.86	952.60
389.06	947.92
389.25	924.51
389.45	1027.50
389.64	1015.79
389.84	1034.52
390.03	999.41
390.22	980.68
390.42	945.58
390.61	945.58
390.81	1036.86
391.00	1025.15
391.19	1067.28
391.39	1095.37
391.58	1046.22
391.78	1078.99
391.97	1071.97
392.16	1067.28
392.36	1050.90
392.55	1022.81
392.75	1046.22
392.94	1022.81
393.13	1022.81
393.33	1081.33
393.52	1078.99
393.71	1036.86
393.91	1130.48
394.10	1116.44
394.29	1139.84
394.49	1074.31
394.68	1146.86
394.88	1210.06
395.07	1224.10
395.26	1174.95
395.46	1228.78
395.65	1226.44
395.84	1160.91
396.04	1261.55
396.23	1153.88
396.42	1142.18
396.62	1142.18
396.81	1233.46
397.00	1191.33
397.19	1252.19
397.39	1289.64
397.58	1418.36
397.77	1338.79
397.97	1385.60
398.16	1409.00
398.35	1420.71
398.55	1406.66
398.74	1486.24
398.93	1451.13
399.12	1441.77
399.32	1516.67
399.51	1509.65
399.70	1671.14
399.90	1500.28
400.09	1504.96
400.28	1586.88
400.47	1579.86
400.67	1607.95
400.86	1593.90
401.05	1654.76
401.24	1673.48
401.44	1650.08
401.63	1689.87
401.82	1631.35
402.01	1701.57
402.21	1671.14
402.40	1802.21
402.59	1659.44
402.78	1713.27
402.97	1809.23
403.17	1769.44
403.36	1842.00
403.55	1774.13
403.74	1895.83
403.93	1799.87
404.13	1879.45
404.32	1881.79
404.51	1860.73
404.70	1856.04
404.89	1888.81
405.09	1970.73
405.28	2001.16
405.47	1900.52
405.66	1909.88
405.85	2076.06
406.05	1923.92
406.24	1930.94
406.43	1994.14
406.62	1987.11
406.81	2143.93
407.00	2050.31
407.20	1998.82
407.39	1973.07
407.58	2106.48
407.77	2115.84
407.96	2181.38
408.15	2214.15
408.34	2190.74
408.54	2267.98
408.73	2263.30
408.92	2305.43
409.11	2279.68
409.30	2256.28
409.49	2195.42
409.68	2202.44
409.87	2235.21
410.07	2272.66
410.26	2277.34
410.45	2314.79
410.64	2389.69
410.83	2495.01
411.02	2457.56
411.21	2485.65
411.40	2534.80
411.59	2562.89
411.78	2600.34
411.98	2588.63
412.17	2675.23
412.36	2670.55
412.55	2672.89
412.74	2712.68
412.93	2736.09
413.12	2708.00
413.31	2885.88
413.50	2899.92
413.69	2738.43
413.88	2853.11
414.07	2920.99
414.26	2965.46
414.45	2930.35
414.64	2974.82
414.83	3073.12
415.02	3030.99
415.22	2993.55
415.41	3138.66
415.60	3084.83
415.79	3126.96
415.98	3293.13
416.17	3318.88
416.36	3112.91
416.55	3169.09
416.74	3262.71
416.93	3300.16
417.12	3243.98
417.31	3316.54
417.50	3215.90
417.69	3353.99
417.88	3412.50
418.07	3452.29
418.26	3445.27
418.45	3410.16
418.64	3531.87
418.83	3524.85
419.02	3410.16
419.21	3557.61
419.39	3667.62
419.58	3459.31
419.77	3576.34
419.96	3660.60
420.15	3836.14
420.34	3648.90
420.53	3648.90
420.72	3861.88
420.91	3684.00
421.10	3754.22
421.29	3845.50
421.48	3716.77
421.67	3805.71
421.86	3801.03
422.05	3817.41
422.24	3705.07
422.43	3723.79
422.61	3819.75
422.80	3775.28
422.99	3805.71
423.18	3925.08
423.37	3936.78
423.56	3990.61
423.75	3812.73
423.94	3801.03
424.13	3747.20
424.32	3840.82
424.50	3805.71
424.69	3864.22
424.88	3990.61
425.07	3726.13
425.26	3822.09
425.45	4011.68
425.64	3786.99
425.83	3920.40
426.01	3981.25
426.20	3985.93
426.39	3971.89
426.58	3925.08
426.77	3967.21
426.96	3913.38
427.15	3934.44
427.33	4037.42
427.52	3948.48
427.71	4025.72
427.90	4212.96
428.09	4203.60
428.28	4046.79
428.46	4086.58
428.65	4168.49
428.84	4168.49
429.03	4264.46
429.22	3946.14
429.40	4140.41
429.59	4100.62
429.78	3831.46
429.97	3815.07
430.16	3962.53
430.34	4091.26
430.53	3992.95
430.72	4203.60
430.91	4257.43
431.10	4278.50
431.28	4498.51
431.47	4451.70
431.66	4594.47
431.85	4503.19
432.03	4671.71
432.22	4781.71
432.41	4669.37
432.60	4578.09
432.79	4734.90
432.97	4770.01
433.16	4587.45
433.35	4617.88
433.54	4648.30
433.72	4624.90
433.91	4678.73
434.10	4755.97
434.28	4805.12
434.47	4755.97
434.66	4805.12
434.85	4922.15
435.03	4947.89
435.22	4858.95
435.41	5163.22
435.59	4929.17
435.78	5104.71
435.97	5027.47
436.16	5195.99
436.34	5048.54
436.53	4985.34
436.72	5139.82
436.90	4978.32
437.09	5011.09
437.28	5011.09
437.46	5107.05
437.65	5247.48
437.84	5146.84
438.02	5029.81
438.21	5071.94
438.40	5123.43
438.58	5481.53
438.77	5383.23
438.96	5392.59
439.14	5547.07
439.33	5647.71
439.52	5589.20
439.70	5551.75
439.89	5584.52
440.08	5607.92
440.26	5650.05
440.45	5591.54
440.63	5741.33
440.82	5755.38
441.01	5813.89
441.19	5923.90
441.38	6008.16
441.57	6094.76
441.75	5954.32
441.94	6253.91
442.12	6244.55
442.31	6237.53
442.50	6338.17
442.68	6324.13
442.87	6333.49
443.05	6235.19
443.24	6539.46
443.43	6413.07
443.61	6509.03
443.80	6583.93
443.98	6246.89
444.17	6171.99
444.35	6487.96
444.54	6724.36
444.73	6497.33
444.91	6445.84
445.10	6401.37
445.28	6298.38
445.47	6403.71
445.65	6392.00
445.84	6424.77
446.02	6445.84
446.21	6342.85
446.39	6420.09
446.58	6679.89
446.77	6663.51
446.95	6459.88
447.14	6612.01
447.32	6848.41
447.51	6565.20
447.69	6581.59
447.88	6553.50
448.06	6600.31
448.25	6588.61
448.43	6670.53
448.62	6651.80
448.80	6590.95
448.99	6722.02
449.17	6703.29
449.36	6890.54
449.54	6853.09
449.73	7105.87
449.91	7026.29
450.10	7047.35
450.28	7183.10
450.46	7164.38
450.65	7187.79
450.83	7283.75
451.02	7009.90
451.20	7316.51
451.39	7279.07
451.57	7215.87
451.76	7115.23
451.94	7129.27
452.13	7075.44
452.31	7098.84
452.49	6988.84
452.68	7243.96
452.86	6977.14
453.05	7447.58
453.23	7321.20
453.42	7103.53
453.60	7344.60
453.78	7323.54
453.97	7297.79
454.15	7595.04
454.34	7187.79
454.52	7459.29
454.70	7644.19
454.89	7489.71
455.07	7384.39
455.26	7435.88
455.44	7772.92
455.62	7641.85
455.81	7861.86
455.99	7915.69
456.17	7733.13
456.36	7749.51
456.54	7962.50
456.73	8013.99
456.91	8044.42
457.09	7960.16
457.28	8142.72
457.46	7962.50
457.64	8051.44
457.83	7946.12
458.01	7925.05
458.19	8212.94
458.38	8032.72
458.56	8346.35
458.74	8290.18
458.93	8215.28
459.11	8187.19
459.29	8271.45
459.48	8325.29
459.66	8278.47
459.84	8283.16
460.03	8524.23
460.21	8407.20
460.39	8435.29
460.57	8344.01
460.76	8437.63
460.94	8645.94
461.12	8592.11
461.31	8580.40
461.49	8367.42
461.67	8521.89
461.85	8683.39
462.04	8788.71
462.22	8959.57
462.40	8919.78
462.59	8819.14
462.77	8652.96
462.95	8961.91
463.13	8835.52
463.32	8940.85
463.50	8634.24
463.68	8887.01
463.86	8905.74
464.05	8863.61
464.23	8926.80
464.41	9221.71
464.59	8793.39
464.78	9151.49
464.96	9092.98
465.14	8905.74
465.32	8922.12
465.50	9158.52
465.69	9362.14
465.87	9107.02
466.05	9083.62
466.23	9135.11
466.41	9217.03
466.60	9315.33
466.78	9118.73
466.96	9245.12
467.14	9116.39
467.32	9451.08
467.51	9394.91
467.69	9008.72
467.87	9280.22
468.05	9315.33
468.23	9540.02
468.41	9308.31
468.60	9163.20
468.78	9514.28
468.96	9446.40
469.14	9544.70
469.32	9767.06
469.50	9465.13
469.69	9591.52
469.87	9757.69
470.05	9701.52
470.23	9809.19
470.41	9640.67
470.59	10059.62
470.77	9809.19
470.95	9923.87
471.14	10068.98
471.32	9900.47
471.50	10197.71
471.68	10211.76
471.86	10178.99
472.04	10303.04
472.22	10506.66
472.40	10059.62
472.58	10277.29
472.77	10422.41
472.95	10494.96
473.13	10890.51
473.31	10274.95
473.49	10298.36
473.67	10401.34
473.85	10644.76
474.03	10911.58
474.21	10981.79
474.39	10747.74
474.57	11056.69
474.75	10930.30
474.93	10981.79
475.12	11239.25
475.30	11108.18
475.48	10930.30
475.66	11122.23
475.84	11337.56
476.02	11321.17
476.20	11274.36
476.38	11473.31
476.56	11838.43
476.74	11705.02
476.92	11742.47
477.10	11693.32
477.28	11901.62
477.46	12102.91
477.64	12105.25
477.82	12463.35
478.00	12559.31
478.18	12365.05
478.36	12444.63
478.54	12589.74
478.72	12372.07
478.90	12617.83
479.08	12964.23
479.26	12989.97
479.44	13362.12
479.62	12865.92
479.80	13125.72
479.98	13280.20
480.16	13532.98
480.34	13404.25
480.52	13441.70
480.70	13598.51
480.88	13607.87
481.06	13767.03
481.24	13783.41
481.41	14183.65
481.59	14450.47
481.77	14434.08
481.95	14303.01
482.13	14382.59
482.31	14464.51
482.49	14892.83
482.67	14705.59
482.85	14824.95
483.03	15030.92
483.21	15609.03
483.39	15337.53
483.57	15227.53
483.74	15374.98
483.92	15367.96
484.10	15449.88
484.28	15555.20
484.46	15716.70
484.64	16259.70
484.82	16077.14
485.00	15779.89
485.18	16566.31
485.35	16343.96
485.53	16070.12
485.71	16266.72
485.89	16411.84
486.07	16042.03
486.25	16812.07
486.43	16854.20
486.61	16985.27
486.78	17050.80
486.96	17202.94
487.14	17741.26
487.32	17816.16
487.50	18003.40
487.68	18155.54
487.85	18324.05
488.03	18307.67
488.21	18600.24
488.39	18317.03
488.57	18677.48
488.75	18703.22
488.92	18918.55
489.10	19138.56
489.28	19374.95
489.46	19276.65
489.64	19283.67
489.81	20079.46
489.99	19861.79
490.17	20280.74
490.35	20030.30
490.53	20093.50
490.70	20334.57
490.88	20510.11
491.06	20769.91
491.24	20620.12
491.41	20641.18
491.59	20528.84
491.77	20570.97
491.95	21139.72
492.13	21280.15
492.30	21446.33
492.48	21848.90
492.66	21645.27
492.84	21823.16
493.01	21743.58
493.19	22019.76
493.37	22153.17
493.54	21956.57
493.72	22450.42
493.90	22366.16
494.08	22618.94
494.25	22937.25
494.43	23283.65
494.61	22946.61
494.79	23175.98
494.96	22944.27
495.14	23442.81
495.32	23445.15
495.49	23627.71
495.67	23676.86
495.85	23922.62
496.02	24196.46
496.20	24140.29
496.38	24397.74
496.55	24510.09
496.73	24805.00
496.91	24304.12
497.09	24940.75
497.26	25104.59
497.44	25043.73
497.62	25029.69
497.79	25132.67
497.97	25034.37
498.14	25284.81
498.32	25254.38
498.50	25453.33
498.67	25834.83
498.85	25685.04
499.03	26066.55
499.20	25816.11
499.38	26256.13
499.56	26368.48
499.73	25869.94
499.91	26214.00
500.08	26216.34
500.26	26122.72
500.44	26401.24
500.61	26340.39
500.79	26431.67
500.97	26958.29
501.14	27072.98
501.32	27255.54
501.49	26932.54
501.67	27157.24
501.84	27330.44
502.02	27281.28
502.20	27304.69
502.37	27910.89
502.55	27655.77
502.72	27611.30
502.90	28032.60
503.07	27754.07
503.25	28034.94
503.43	27784.50
503.60	28032.60
503.78	28084.09
503.95	28224.52
504.13	28383.68
504.30	28575.60
504.48	28627.09
504.65	28692.63
504.83	29149.03
505.01	29280.10
505.18	28922.00
505.36	29303.51
505.53	29179.46
505.71	29436.92
505.88	29551.60
506.06	29134.99
506.23	29340.96
506.41	29759.91
506.58	29422.87
506.76	29741.19
506.93	29687.36
507.11	30162.48
507.28	30157.80
507.46	29909.71
507.63	29905.02
507.81	30103.97
507.98	30122.69
508.16	30251.42
508.33	30354.41
508.50	30656.34
508.68	30679.74
508.85	31072.95
509.03	30483.14
509.20	30768.68
509.38	31129.12
509.55	30733.57
509.73	31187.64
509.90	31665.11
510.08	31519.99
510.25	31470.84
510.42	31379.56
510.60	31676.81
510.77	31517.65
510.95	31711.92
511.12	31896.82
511.30	32191.73
511.47	32472.59
511.64	32591.96
511.82	32535.79
511.99	32013.85
512.17	32245.56
512.34	32348.54
512.51	32451.53
512.69	32617.71
512.86	32320.46
513.04	32870.48
513.21	32804.95
513.38	32568.55
513.56	32802.61
513.73	32769.84
513.90	32823.67
514.08	33141.99
514.25	32929.00
514.43	33237.95
514.60	33373.70
514.77	32917.29
514.95	33542.22
515.12	33603.07
515.29	33303.48
515.47	33720.10
515.64	33907.34
515.81	33706.05
515.99	33610.09
516.16	33254.33
516.33	33612.43
516.51	33455.62
516.68	33010.92
516.85	33486.04
517.03	33654.56
517.20	33942.45
517.37	34071.18
517.54	34019.69
517.72	33919.04
517.89	34146.08
518.06	33390.08
518.24	34258.42
518.41	34120.33
518.58	34759.30
518.75	34520.56
518.93	34808.45
519.10	34405.88
519.27	34749.93
519.45	35157.19
519.62	34979.31
519.79	35379.54
519.96	35335.07
520.14	35402.94
520.31	34726.53
520.48	35501.25
520.65	35555.08
520.83	35330.39
521.00	35868.71
521.17	35632.32
521.34	35754.02
521.52	35917.86
521.69	35906.16
521.86	36451.50
522.03	36444.48
522.20	36236.17
522.38	36243.20
522.55	36172.98
522.72	36079.36
522.89	36219.79
523.07	36664.49
523.24	36336.82
523.41	36715.98
523.58	36582.57
523.75	37109.19
523.92	36875.14
524.10	37443.89
524.27	37275.37
524.44	37160.69
524.61	36996.85
524.78	37207.50
524.96	37560.92
525.13	37591.34
525.30	37675.60
525.47	38019.66
525.64	37706.03
525.81	37130.26
525.98	37427.51
526.16	37357.29
526.33	37165.37
526.50	37626.45
526.67	36671.51
526.84	36893.86
527.01	37301.12
527.18	37411.12
527.36	37780.93
527.53	38057.11
527.70	38405.85
527.87	38384.79
528.04	38014.98
528.21	38075.84
528.38	38202.22
528.55	38270.10
528.72	38190.52
528.89	39016.73
529.07	38520.54
529.24	38220.95
529.41	39044.82
529.58	38838.85
529.75	38955.88
529.92	39005.03
530.09	39260.15
530.26	39182.91
530.43	38857.57
530.60	38850.55
530.77	38820.13
530.94	39452.07
531.11	39189.93
531.28	39208.65
531.46	39564.42
531.63	39253.12
531.80	39173.55
531.97	39014.39
532.14	39416.96
532.31	38962.90
532.48	39264.83
532.65	39599.52
532.82	39227.38
532.99	39627.61
533.16	39494.20
533.33	39606.55
533.50	39971.67
533.67	39784.43
533.84	39522.29
534.01	39995.07
534.18	40105.08
534.35	40130.83
534.52	39800.81
534.69	40179.98
534.86	40797.88
535.03	40114.44
535.20	40355.52
535.37	40914.90
535.54	40603.61
535.71	40339.13
535.88	40858.73
536.05	40423.39
536.22	41163.00
536.38	40783.83
536.55	40629.36
536.72	40594.25
536.89	40446.80
537.06	40601.27
537.23	40495.95
537.40	40797.88
537.57	40964.06
537.74	40898.52
537.91	41062.36
538.08	40907.88
538.25	40858.73
538.42	40807.24
538.59	41242.58
538.75	40800.22
538.92	41064.70
539.09	40884.48
539.26	41469.61
539.43	40910.22
539.60	41174.70
539.77	41167.68
539.94	41216.83
540.11	41167.68
540.28	41467.27
540.44	41088.10
540.61	41214.49
540.78	41329.18
540.95	41340.88
541.12	40973.42
541.29	41757.50
541.46	41523.44
541.62	41940.06
541.79	41848.78
541.96	41537.49
542.13	41649.83
542.30	41776.22
542.47	41670.90
542.63	41921.34
542.80	41888.57
542.97	42363.70
543.14	42398.80
543.31	42464.34
543.48	42614.13
543.64	43002.66
543.81	42820.10
543.98	42246.67
544.15	42895.00
544.32	42630.52
544.48	43037.77
544.65	42595.41
544.82	43077.56
544.99	42789.67
545.16	43325.66
545.32	42618.81
545.49	43306.93
545.66	43150.12
545.83	43189.91
546.00	43606.52
546.16	43194.59
546.33	43295.23
546.50	42770.95
546.67	43239.06
546.83	42426.89
547.00	42759.25
547.17	43140.75
547.34	42923.08
547.50	42948.83
547.67	43622.90
547.84	43035.43
548.00	43379.49
548.17	43613.54
548.34	43831.21
548.51	43611.20
548.67	43627.59
548.84	43878.02
549.01	43477.79
549.18	43789.08
549.34	43569.07
549.51	43777.38
549.68	44135.48
549.84	43704.82
550.01	43835.89
550.18	43601.84
550.34	43936.54
550.51	43856.96
550.68	44079.31
550.84	43463.75
551.01	44069.95
551.18	44203.36
551.34	44168.25
551.51	44196.34
551.68	44236.12
551.84	44552.10
552.01	44023.14
552.18	44376.56
552.34	43920.15
552.51	44098.03
552.68	44362.51
552.84	44596.57
553.01	44325.07
553.18	44481.88
553.34	44189.31
553.51	44264.21
553.67	44388.26
553.84	44947.65
554.01	44706.57
554.17	44685.51
554.34	44844.66
554.51	44847.00
554.67	44903.18
554.84	44877.43
555.00	44802.53
555.17	44488.90
555.33	44844.66
555.50	44643.38
555.67	44769.77
555.83	44421.03
556.00	44626.99
556.16	45291.71
556.33	44697.21
556.50	45036.59
556.66	44839.98
556.83	45001.48
556.99	44931.26
557.16	44903.18
557.32	44952.33
557.49	44982.76
557.65	44851.69
557.82	45212.13
557.98	45118.51
558.15	45109.14
558.32	45291.71
558.48	44964.03
558.65	45048.29
558.81	44994.46
558.98	45186.38
559.14	45141.91
559.31	44900.84
559.47	45200.43
559.64	45237.87
559.80	45418.10
559.97	45111.49
560.13	45010.84
560.30	44919.56
560.46	45558.53
560.63	45170.00
560.79	45537.46
560.96	45553.85
561.12	45485.97
561.29	45399.37
561.45	45134.89
561.61	45478.95
561.78	44957.01
561.94	45088.08
562.11	45315.11
562.27	45776.20
562.44	45549.17
562.60	45624.06
562.77	45649.81
562.93	45628.74
563.10	45265.96
563.26	45076.38
563.42	45703.64
563.59	45294.05
563.75	45373.63
563.92	45460.23
564.08	45296.39
564.24	45518.74
564.41	45343.20
564.57	45099.78
564.74	45256.60
564.90	45783.22
565.07	45750.45
565.23	45762.15
565.39	45123.19
565.56	45893.22
565.72	45228.51
565.88	45914.29
566.05	45420.44
566.21	45666.19
566.38	45598.32
566.54	45881.52
566.70	45654.49
566.87	46064.08
567.03	45624.06
567.19	46485.38
567.36	46150.68
567.52	45731.73
567.68	45949.40
567.85	45727.05
568.01	45727.05
568.17	45542.14
568.34	45668.53
568.50	45759.81
568.66	45738.75
568.83	45900.25
568.99	45441.50
569.15	45635.77
569.32	45544.48
569.48	45682.58
569.64	46059.40
569.81	45851.09
569.97	46239.62
570.13	46281.75
570.30	45549.17
570.46	45846.41
570.62	45563.21
570.78	45694.28
570.95	45965.78
571.11	45734.07
571.27	45635.77
571.43	45614.70
571.60	45633.42
571.76	46078.13
571.92	45837.05
572.09	45708.32
572.25	45443.84
572.41	46099.19
572.57	46171.75
572.74	46330.90
572.90	45621.72
573.06	46085.15
573.22	45670.87
573.38	45879.18
573.55	45984.51
573.71	46131.96
573.87	45741.09
574.03	45586.61
574.20	46108.55
574.36	45619.38
574.52	45862.80
574.68	45872.16
574.84	46419.84
575.01	45881.52
575.17	46471.34
575.33	45860.46
575.49	45921.31
575.65	45949.40
575.82	45853.44
575.98	46033.66
576.14	46337.93
576.30	45612.36
576.46	46085.15
576.62	45553.85
576.79	45942.38
576.95	45560.87
577.11	45935.35
577.27	46082.81
577.43	46185.79
577.59	46124.94
577.75	45923.65
577.92	45357.24
578.08	45764.49
578.24	45567.89
578.40	45979.82
578.56	45808.96
578.72	46038.34
578.88	46089.83
579.04	46478.36
579.21	46183.45
579.37	46024.29
579.53	46146.00
579.69	45771.52
579.85	46241.96
580.01	46202.18
580.17	45790.24
580.33	46012.59
580.49	46080.47
580.65	46305.16
580.82	45865.14
580.98	45968.12
581.14	46312.18
581.30	45949.40
581.46	45633.42
581.62	45900.25
581.78	46377.72
581.94	46014.93
582.10	45607.68
582.26	46171.75
582.42	46057.06
582.58	46330.90
582.74	46415.16
582.90	46237.28
583.06	46377.72
583.22	46265.37
583.38	46295.80
583.54	46103.87
583.70	46307.50
583.86	45972.80
584.02	45851.09
584.18	46288.77
584.34	45853.44
584.50	45961.10
584.66	46443.25
584.82	45689.60
584.98	46560.28
585.14	46328.56
585.30	46026.63
585.46	46293.46
585.62	46167.07
585.78	46127.28
585.94	45916.63
586.10	46131.96
586.26	46202.18
586.42	46270.05
586.58	46260.69
586.74	46012.59
586.90	46305.16
587.06	46000.89
587.22	46122.60
587.38	46059.40
587.54	46279.41
587.70	46642.20
587.86	46490.06
588.02	46260.69
588.18	46342.61
588.34	46014.93
588.49	45591.30
588.65	45502.35
588.81	45055.31
588.97	45933.01
589.13	45223.83
589.29	46096.85
589.45	46073.45
589.61	46204.52
589.77	46461.97
589.93	46085.15
590.08	46335.59
590.24	46335.59
590.40	46532.19
590.56	46703.05
590.72	45958.76
590.88	46309.84
591.04	46043.02
591.20	46600.07
591.35	46349.63
591.51	46745.18
591.67	46265.37
591.83	46326.22
591.99	46398.78
592.15	46401.12
592.31	46302.82
592.46	46312.18
592.62	46265.37
592.78	46705.39
592.94	46485.38
593.10	46340.27
593.26	46866.89
593.41	46244.30
593.57	46492.40
593.73	46518.15
593.89	46513.47
594.05	46101.53
594.20	46576.66
594.36	46436.23
594.52	46131.96
594.68	46284.09
594.84	46195.15
594.99	46501.76
595.15	46127.28
595.31	46693.69
595.47	46174.09
595.62	46281.75
595.78	46085.15
595.94	46700.71
596.10	46302.82
596.25	46473.68
596.41	46513.47
596.57	46651.56
596.73	46511.13
596.88	46288.77
597.04	46384.74
597.20	46274.73
597.36	46195.15
597.51	46876.25
597.67	46424.53
597.83	46513.47
597.99	46508.79
598.14	46143.66
598.30	46447.93
598.46	46604.75
598.61	46326.22
598.77	46323.88
598.93	46085.15
599.09	46265.37
599.24	46794.33
599.40	46930.08
599.56	46410.48
599.71	46553.26
599.87	46279.41
600.03	46330.90
600.18	46642.20
600.34	46401.12
600.50	46546.23
600.65	46284.09
600.81	46508.79
600.97	46513.47
601.12	46230.26
601.28	46337.93
601.44	46204.52
601.59	46426.87
601.75	46527.51
601.91	46576.66
602.06	45720.02
602.22	46347.29
602.37	46396.44
602.53	46366.01
602.69	46487.72
602.84	46117.92
603.00	46539.21
603.16	46073.45
603.31	46344.95
603.47	46433.89
603.62	46267.71
603.78	46628.15
603.94	46066.42
604.09	46445.59
604.25	46436.23
604.40	46377.72
604.56	46405.80
604.71	46450.27
604.87	45862.80
605.03	46157.70
605.18	46096.85
605.34	46485.38
605.49	45729.39
605.65	46260.69
605.80	46230.26
605.96	46108.55
606.12	46670.28
606.27	46522.83
606.43	46012.59
606.58	46340.27
606.74	46389.42
606.89	46143.66
607.05	45729.39
607.20	46546.23
607.36	45909.61
607.51	46064.08
607.67	45820.67
607.82	46012.59
607.98	45909.61
608.13	45872.16
608.29	45970.46
608.44	45979.82
608.60	45668.53
608.75	46300.48
608.91	45970.46
609.06	45701.30
609.22	46260.69
609.37	45897.91
609.53	46071.10
609.68	45713.00
609.84	45645.13
609.99	45776.20
610.15	45808.96
610.30	45755.13
610.46	45350.22
610.61	45745.77
610.76	45476.61
610.92	45717.68
611.07	46124.94
611.23	45722.37
611.38	46169.41
611.54	45745.77
611.69	45329.16
611.84	45698.96
612.00	45514.06
612.15	45282.34
612.31	45783.22
612.46	45574.91
612.62	45504.70
612.77	45272.98
612.92	45839.39
613.08	45495.33
613.23	45528.10
613.39	45359.58
613.54	45200.43
613.69	45404.05
613.85	45127.87
614.00	45750.45
614.15	45535.12
614.31	45413.41
614.46	45441.50
614.62	45603.00
614.77	45261.28
614.92	45244.90
615.08	44961.69
615.23	45045.95
615.38	45059.99
615.54	44868.07
615.69	45200.43
615.84	44701.89
616.00	44935.95
616.15	45050.63
616.30	45076.38
616.46	44573.16
616.61	44442.09
616.76	44837.64
616.92	44701.89
617.07	45120.85
617.22	44594.23
617.37	44931.26
617.53	45052.97
617.68	44790.83
617.83	45001.48
617.99	44741.68
618.14	44940.63
618.29	44830.62
618.45	44332.09
618.60	44748.70
618.75	44528.69
618.90	44704.23
619.06	44339.11
619.21	44769.77
619.36	44975.73
619.51	44767.43
619.67	44444.43
619.82	44753.38
619.97	44636.36
620.12	44304.00
620.28	43929.51
620.43	44240.81
620.58	44322.72
620.73	44137.82
620.89	44652.74
621.04	43770.36
621.19	44088.67
621.34	44507.63
621.49	44156.55
621.65	43894.41
621.80	44222.08
621.95	44280.60
622.10	43831.21
622.25	43601.84
622.41	43707.16
622.56	44039.52
622.71	43997.39
622.86	43723.55
623.01	43903.77
623.16	43976.33
623.32	43562.05
623.47	43983.35
623.62	43875.68
623.77	43695.46
623.92	43714.19
624.07	43697.80
624.23	43681.42
624.38	43597.16
624.53	43395.87
624.68	43540.99
624.83	43377.15
624.98	43889.73
625.13	43459.07
625.29	43377.15
625.44	43107.99
625.59	43463.75
625.74	42749.88
625.89	43147.78
626.04	43068.20
626.19	43360.76
626.34	43405.23
626.49	43342.04
626.65	43225.01
626.80	43112.67
626.95	43508.22
627.10	43168.84
627.25	42913.72
627.40	42911.38
627.55	42784.99
627.70	42389.44
627.85	42630.52
628.00	43026.07
628.15	43019.05
628.30	43002.66
628.45	42848.19
628.60	42927.77
628.76	42955.85
628.91	42822.44
629.06	42707.76
629.21	42588.39
629.36	42543.92
629.51	42707.76
629.66	42443.27
629.81	42447.96
629.96	42302.84
630.11	42197.52
630.26	42951.17
630.41	42380.08
630.56	42672.65
630.71	42731.16
630.86	42230.29
631.01	41975.17
631.16	42494.77
631.31	42167.09
631.46	41706.01
631.61	42054.75
631.76	42375.40
631.91	42450.30
632.06	42197.52
632.21	42457.32
632.36	42031.34
632.51	41940.06
632.66	41926.02
632.81	41720.05
632.96	41816.01
633.10	41909.63
633.25	42096.88
633.40	42244.33
633.55	42120.28
633.70	41467.27
633.85	41460.25
634.00	41471.95
634.15	42071.13
634.30	41476.63
634.45	41811.33
634.60	41652.17
634.75	41404.08
634.90	41713.03
635.05	41706.01
635.19	41500.04
635.34	41691.96
635.49	41558.55
635.64	41443.87
635.79	41247.26
635.94	41617.07
636.09	41546.85
636.24	41043.63
636.39	41083.42
636.53	41118.53
636.68	40842.35
636.83	40891.50
636.98	41207.47
637.13	40973.42
637.28	41212.15
637.43	41645.15
637.57	41153.64
637.72	41090.44
637.87	41153.64
638.02	41081.08
638.17	40982.78
638.32	40659.79
638.46	41029.59
638.61	41083.42
638.76	40903.20
638.91	41441.53
639.06	40893.84
639.20	40772.13
639.35	41038.95
639.50	40844.69
639.65	41048.32
639.80	41212.15
639.94	41015.55
640.09	40561.48
640.24	40856.39
640.39	40369.56
640.54	40418.71
640.68	40645.74
640.83	40367.22
640.98	40219.77
641.13	40020.82
641.27	40715.96
641.42	40266.58
641.57	40472.54
641.72	40514.67
641.86	40165.93
642.01	40250.19
642.16	40264.24
642.31	39983.37
642.45	40203.38
642.60	40154.23
642.75	40116.78
642.90	40229.13
643.04	40465.52
643.19	40137.85
643.34	40196.36
643.48	39798.47
643.63	40034.86
643.78	40187.00
643.93	39952.94
644.07	39548.03
644.22	39908.47
644.37	39770.38
644.51	39796.13
644.66	40053.59
644.81	39735.27
644.95	40170.61
645.10	40301.68
645.25	39796.13
645.39	39978.69
645.54	40121.46
645.69	40191.68
645.83	39693.15
645.98	39569.10
646.13	39845.28
646.27	40102.74
646.42	39311.64
646.57	39456.75
646.71	39384.19
646.86	39503.56
647.00	39494.20
647.15	39721.23
647.30	39459.09
647.44	39381.85
647.59	39421.64
647.74	39445.05
647.88	39290.57
648.03	39262.49
648.17	39402.92
648.32	38796.72
648.47	39264.83
648.61	38871.62
648.76	39283.55
648.90	39196.95
649.05	39077.58
649.20	39096.31
649.34	39131.42
649.49	38862.26
649.63	38768.63
649.78	39103.33
649.92	38864.60
650.07	39381.85
650.21	38614.16
650.36	38916.09
650.51	38969.92
650.65	39220.36
650.80	39447.39
650.94	39061.20
651.09	38916.09
651.23	38600.12
651.38	39262.49
651.52	38469.04
651.67	38859.91
651.81	39056.52
651.96	38588.41
652.10	38576.71
652.25	37996.26
652.39	38553.30
652.54	38293.50
652.68	38710.12
652.83	38345.00
652.97	38780.34
653.12	38775.66
653.26	38284.14
653.41	38731.18
653.55	37975.19
653.70	38277.12
653.84	38387.13
653.99	38183.50
654.13	38115.62
654.27	38192.86
654.42	38534.58
654.56	38176.48
654.71	37949.45
654.85	38078.18
655.00	37965.83
655.14	37886.25
655.29	37654.54
655.43	37741.14
655.57	37684.97
655.72	37132.60
655.86	37078.77
656.01	36989.83
656.15	37413.46
656.30	37247.29
656.44	37668.58
656.58	37331.54
656.73	37603.05
656.87	37289.42
657.01	37357.29
657.16	37502.40
657.30	37050.68
657.45	37467.30
657.59	37331.54
657.73	37277.71
657.88	37930.72
658.02	37773.91
658.16	37563.26
658.31	37923.70
658.45	37460.27
658.60	36964.08
658.74	37652.20
658.88	37088.13
659.03	37251.97
659.17	37146.64
659.31	36861.10
659.46	36793.22
659.60	37146.64
659.74	37340.91
659.89	36818.97
660.03	36765.14
660.17	36802.58
660.32	36748.75
660.46	37020.25
660.60	37055.36
660.74	36739.39
660.89	36844.71
661.03	36123.83
661.17	36573.21
661.32	36528.74
661.46	36442.14
661.60	36465.55
661.74	36952.38
661.89	36435.12
662.03	36282.98
662.17	36219.79
662.31	36032.55
662.46	36109.78
662.60	36098.08
662.74	36081.70
662.88	35824.24
663.03	35578.48
663.17	35388.90
663.31	35452.09
663.45	36041.91
663.60	35957.65
663.74	35377.20
663.88	35585.50
664.02	35426.35
664.17	35564.44
664.31	35672.10
664.45	35747.00
664.59	35311.66
664.73	35236.77
664.88	35463.80
665.02	35353.79
665.16	35122.08
665.30	35061.22
665.44	35187.61
665.59	34941.86
665.73	34541.63
665.87	34639.93
666.01	35187.61
666.15	34595.46
666.29	34979.31
666.44	34923.13
666.58	34918.45
666.72	34740.57
666.86	34773.34
667.00	34703.12
667.14	34284.17
667.28	34181.18
667.43	34478.43
667.57	34050.11
667.71	34195.23
667.85	34279.49
667.99	34115.65
668.13	33947.13
668.27	34122.67
668.41	34433.96
668.56	33673.29
668.70	34029.05
668.84	34122.67
668.98	33734.14
669.12	33708.40
669.26	33532.86
669.40	33523.49
669.54	33511.79
669.68	33294.12
669.82	33457.96
669.96	32905.59
670.10	33277.74
670.25	33301.14
670.39	33333.91
670.53	32966.45
670.67	32732.39
670.81	33078.79
670.95	32594.30
671.09	32823.67
671.23	32650.47
671.37	32601.32
671.51	32467.91
671.65	32416.42
671.79	32437.48
671.93	32591.96
672.07	32739.41
672.21	32643.45
672.35	32496.00
672.49	32488.98
672.63	32432.80
672.77	32306.41
672.91	32219.81
673.05	32163.64
673.19	32187.05
673.33	31875.76
673.47	31798.52
673.61	31901.50
673.75	31360.84
673.89	31782.13
674.03	31630.00
674.17	31538.72
674.31	31454.46
674.45	31608.93
674.59	31639.36
674.73	31314.03
674.87	31269.56
675.01	31077.63
675.15	31393.61
675.29	30794.43
675.43	30698.47
675.56	30937.20
675.70	30948.90
675.84	30553.35
675.98	30188.23
676.12	30569.74
676.26	30820.17
676.40	30401.22
676.54	30508.88
676.68	30780.39
676.82	29788.00
676.96	29907.37
677.10	29912.05
677.23	29401.81
677.37	29589.05
677.51	29387.77
677.65	29514.16
677.79	29352.66
677.93	29340.96
678.07	29277.76
678.21	29013.28
678.34	28961.79
678.48	28662.20
678.62	28786.25
678.76	28559.22
678.90	28547.51
679.04	28790.93
679.18	28493.68
679.31	28411.76
679.45	28212.82
679.59	27992.81
679.73	27838.33
679.87	27976.42
680.00	27953.02
680.14	27943.66
680.28	27934.29
680.42	27915.57
680.56	28121.54
680.70	27763.43
680.83	27545.76
680.97	27470.87
681.11	27873.44
681.25	27138.51
681.39	27297.67
681.52	27431.08
681.66	27206.39
681.80	26845.94
681.94	27035.53
682.07	26965.31
682.21	26927.86
682.35	26520.61
682.49	26916.16
682.62	26253.79
682.76	26436.35
682.90	26396.56
683.04	26244.43
683.17	26256.13
683.31	25781.00
683.45	25612.48
683.59	25570.35
683.72	25556.31
683.86	25764.62
684.00	25703.76
684.13	25663.97
684.27	25645.25
684.41	25766.96
684.55	25366.73
684.68	24952.45
684.82	25010.96
684.96	25214.59
685.09	25010.96
685.23	24858.83
685.37	24636.48
685.50	24690.31
685.64	24793.29
685.78	24491.37
685.91	24528.81
686.05	24423.49
686.19	24343.91
686.32	23960.06
686.46	23449.83
686.60	23208.75
686.73	23374.93
686.87	23218.11
687.01	23180.67
687.14	23190.03
687.28	23194.71
687.42	23276.63
687.55	23161.94
687.69	23267.27
687.82	23236.84
687.96	23089.38
688.10	22902.14
688.23	22733.62
688.37	22604.89
688.50	22279.56
688.64	22600.21
688.78	22625.96
688.91	22150.83
689.05	22469.14
689.18	22448.08
689.32	22017.42
689.46	22333.39
689.59	22164.87
689.73	22417.65
689.86	21865.28
690.00	21818.47
690.13	21818.47
690.27	21383.13
690.41	21619.53
690.54	21312.92
690.68	21120.99
690.81	21366.75
690.95	21429.94
691.08	21205.25
691.22	21202.91
691.35	21366.75
691.49	21214.62
691.62	21254.40
691.76	20805.02
691.89	21128.02
692.03	20477.35
692.16	20669.27
692.30	20463.30
692.43	19934.34
692.57	20362.66
692.70	20362.66
692.84	20107.54
692.97	20100.52
693.11	19859.45
693.24	20208.19
693.38	19782.21
693.51	19660.50
693.65	20098.18
693.78	19974.13
693.92	19667.52
694.05	19644.12
694.19	19489.64
694.32	19286.01
694.45	19077.71
694.59	18860.04
694.72	19005.15
694.86	18754.71
694.99	18780.46
695.13	18604.92
695.26	18593.22
695.39	18984.09
695.53	18792.16
695.66	18705.56
695.80	18895.14
695.93	18583.85
696.07	18415.34
696.20	18192.98
696.33	18139.15
696.47	18188.30
696.60	18230.43
696.73	17937.87
696.87	17853.61
697.00	17977.65
697.14	17788.07
697.27	17731.90
697.40	17682.75
697.54	17469.76
697.67	17280.18
697.80	17179.53
697.94	17092.93
698.07	17018.04
698.21	16975.91
698.34	17025.06
698.47	16830.79
698.61	16809.73
698.74	16769.94
698.87	16657.59
699.01	16245.66
699.14	16486.73
699.27	16353.32
699.40	16503.12
699.54	16350.98
699.67	16229.27
699.80	16479.71
699.94	16030.33
700.07	15807.98
700.20	16311.19
700.34	16051.39
700.47	15892.24
700.60	16308.85
700.73	16095.86
700.87	16058.42
701.00	15674.57
701.13	15868.83
701.26	15412.43
701.40	15550.52
701.53	15513.07
701.66	15389.02
701.79	15419.45
701.93	15068.37
702.06	14904.53
702.19	14806.23
702.32	15042.62
702.46	14665.80
702.59	14801.55
702.72	14923.26
702.85	14946.66
702.99	14862.40
703.12	14523.02
703.25	14595.58
703.38	14567.49
703.51	14417.70
703.65	14246.84
703.78	14480.89
703.91	14197.69
704.04	14246.84
704.17	14295.99
704.31	14040.87
704.44	13886.40
704.57	14075.98
704.70	13862.99
704.83	13851.29
704.96	13486.17
705.10	13661.71
705.23	13886.40
>>>>>End Processed Spectral Data<<<<<
