SpectraSuite Data File
++++++++++++++++++++++++++++++++++++
Date: Fri Oct 25 10:44:04 EDT 2013
User: price-jones
Dark Spectrum Present: No
Reference Spectrum Present: No
Number of Sampled Component Spectra: 1
Spectrometers: USB2+H05261
Integration Time (usec): 100000 (USB2+H05261)
Spectra Averaged: 1 (USB2+H05261)
Boxcar Smoothing: 0 (USB2+H05261)
Correct for Electrical Dark: No (USB2+H05261)
Strobe/Lamp Enabled: No (USB2+H05261)
Correct for Detector Non-linearity: No (USB2+H05261)
Correct for Stray Light: No (USB2+H05261)
Number of Pixels in Processed Spectrum: 2048
>>>>>Begin Processed Spectral Data<<<<<
365.73	145.11
365.92	145.11
366.12	145.11
366.32	0.00
366.52	18.72
366.72	0.00
366.91	0.00
367.11	39.79
367.31	0.00
367.51	46.81
367.70	0.00
367.90	102.98
368.10	39.79
368.30	7.02
368.49	0.00
368.69	14.04
368.89	4.68
369.09	51.49
369.28	9.36
369.48	86.60
369.68	32.77
369.87	63.19
370.07	81.92
370.27	117.03
370.47	184.90
370.66	308.95
370.86	409.59
371.06	461.09
371.25	409.59
371.45	458.74
371.65	484.49
371.84	552.37
372.04	482.15
372.24	535.98
372.44	507.90
372.63	521.94
372.83	484.49
373.03	510.24
373.22	479.81
373.42	519.60
373.62	589.82
373.81	552.37
374.01	479.81
374.21	578.11
374.40	664.71
374.60	585.13
374.79	582.79
374.99	535.98
375.19	650.67
375.38	571.09
375.58	545.34
375.78	653.01
375.97	620.24
376.17	653.01
376.37	575.77
376.56	645.99
376.76	641.31
376.95	732.59
377.15	692.80
377.35	760.67
377.54	678.76
377.74	660.03
377.93	676.41
378.13	697.48
378.33	676.41
378.52	697.48
378.72	681.10
378.91	610.88
379.11	681.10
379.31	662.37
379.50	545.34
379.70	690.46
379.89	678.76
380.09	748.97
380.28	709.18
380.48	826.21
380.68	739.61
380.87	655.35
381.07	720.88
381.26	765.36
381.46	739.61
381.65	755.99
381.85	702.16
382.04	777.06
382.24	730.25
382.43	678.76
382.63	676.41
382.83	741.95
383.02	739.61
383.22	725.57
383.41	746.63
383.61	753.65
383.80	791.10
384.00	830.89
384.19	784.08
384.39	837.91
384.58	840.25
384.78	856.64
384.97	837.91
385.17	1001.75
385.36	849.61
385.56	823.87
385.75	903.45
385.95	849.61
386.14	866.00
386.34	873.02
386.53	891.74
386.72	819.19
386.92	908.13
387.11	959.62
387.31	898.77
387.50	866.00
387.70	903.45
387.89	943.24
388.09	973.66
388.28	908.13
388.48	889.40
388.67	952.60
388.86	966.64
389.06	966.64
389.25	1069.62
389.45	1015.79
389.64	1071.97
389.84	1004.09
390.03	961.96
390.22	1069.62
390.42	992.39
390.61	1034.52
390.81	1027.50
391.00	1090.69
391.19	1086.01
391.39	1015.79
391.58	1142.18
391.78	1121.12
391.97	1107.07
392.16	1039.20
392.36	1088.35
392.55	1006.43
392.75	915.15
392.94	896.43
393.13	1090.69
393.33	1001.75
393.52	1100.05
393.71	1231.12
393.91	1153.88
394.10	1121.12
394.29	1188.99
394.49	1273.25
394.68	1263.89
394.88	1210.06
395.07	1291.98
395.26	1359.85
395.46	1273.25
395.65	1327.08
395.84	1275.59
396.04	1259.21
396.23	1282.61
396.42	1261.55
396.62	1170.27
396.81	1228.78
397.00	1263.89
397.19	1345.81
397.39	1373.89
397.58	1397.30
397.77	1434.75
397.97	1437.09
398.16	1493.26
398.35	1554.12
398.55	1589.22
398.74	1565.82
398.93	1582.20
399.12	1612.63
399.32	1596.25
399.51	1579.86
399.70	1717.95
399.90	1582.20
400.09	1533.05
400.28	1762.42
400.47	1701.57
400.67	1724.97
400.86	1762.42
401.05	1687.53
401.24	1675.82
401.44	1724.97
401.63	1839.66
401.82	1870.09
402.01	1790.51
402.21	1851.36
402.40	1797.53
402.59	1930.94
402.78	1916.90
402.97	1891.15
403.17	1823.28
403.36	1914.56
403.55	1944.99
403.74	2106.48
403.93	2001.16
404.13	2031.58
404.32	1881.79
404.51	1996.48
404.70	2005.84
404.89	1975.41
405.09	2064.35
405.28	2050.31
405.47	2146.27
405.66	1980.09
405.85	2092.44
406.05	2017.54
406.24	2045.63
406.43	2115.84
406.62	2207.13
406.81	2289.04
407.00	2120.53
407.20	2129.89
407.39	2204.78
407.58	2246.91
407.77	2258.62
407.96	2284.36
408.15	2417.77
408.34	2352.24
408.54	2452.88
408.73	2459.90
408.92	2303.09
409.11	2314.79
409.30	2499.69
409.49	2347.56
409.68	2377.98
409.87	2399.05
410.07	2525.44
410.26	2469.27
410.45	2502.03
410.64	2607.36
410.83	2715.02
411.02	2619.06
411.21	2724.38
411.40	2600.34
411.59	2869.50
411.78	2722.04
411.98	2789.92
412.17	2757.15
412.36	2759.49
412.55	2731.41
412.74	2675.23
412.93	2871.84
413.12	2764.17
413.31	3028.65
413.50	2918.65
413.69	2956.10
413.88	3112.91
414.07	3033.33
414.26	3059.08
414.45	3133.98
414.64	3049.72
414.83	3197.17
415.02	3251.00
415.22	3365.69
415.41	3206.53
415.60	3372.71
415.79	3365.69
415.98	3466.33
416.17	3431.23
416.36	3248.66
416.55	3468.67
416.74	3522.51
416.93	3349.31
417.12	3506.12
417.31	3543.57
417.50	3510.80
417.69	3564.64
417.88	3562.30
418.07	3618.47
418.26	3552.93
418.45	3548.25
418.64	3712.09
418.83	3721.45
419.02	3679.32
419.21	3747.20
419.39	3613.79
419.58	3646.55
419.77	3761.24
419.96	3885.29
420.15	3726.13
420.34	3852.52
420.53	3887.63
420.72	3976.57
420.91	3995.29
421.10	4114.66
421.29	3997.64
421.48	4095.94
421.67	4079.55
421.86	3941.46
422.05	4049.13
422.24	4004.66
422.43	3915.72
422.61	4107.64
422.80	4187.22
422.99	4067.85
423.18	4098.28
423.37	4301.90
423.56	4140.41
423.75	4140.41
423.94	4105.30
424.13	3943.80
424.32	3913.38
424.50	4161.47
424.69	4175.52
424.88	4238.71
425.07	4053.81
425.26	4191.90
425.45	4156.79
425.64	4072.53
425.83	4091.26
426.01	4191.90
426.20	4245.73
426.39	4182.54
426.58	4285.52
426.77	4093.60
426.96	4074.87
427.15	4093.60
427.33	4184.88
427.52	4306.59
427.71	4325.31
427.90	4348.72
428.09	4442.34
428.28	4388.50
428.46	4407.23
428.65	4472.76
428.84	4454.04
429.03	4503.19
429.22	4334.67
429.40	4329.99
429.59	4187.22
429.78	4042.11
429.97	4173.18
430.16	4112.32
430.34	4229.35
430.53	4322.97
430.72	4404.89
430.91	4285.52
431.10	4568.73
431.28	4753.63
431.47	4788.74
431.66	4835.55
431.85	4678.73
432.03	4760.65
432.22	4819.16
432.41	4781.71
432.60	4992.36
432.79	4938.53
432.97	4861.29
433.16	5029.81
433.35	4830.87
433.54	4758.31
433.72	4814.48
433.91	4732.56
434.10	4980.66
434.28	4978.32
434.47	5057.90
434.66	5151.52
434.85	5184.29
435.03	5097.69
435.22	5090.67
435.41	5413.66
435.59	5322.38
435.78	5427.70
435.97	5334.08
436.16	5301.31
436.34	5455.79
436.53	5458.13
436.72	5465.15
436.90	5224.08
437.09	5500.26
437.28	5341.10
437.46	5465.15
437.65	5493.24
437.84	5352.81
438.02	5324.72
438.21	5369.19
438.40	5462.81
438.58	5493.24
438.77	5582.18
438.96	5528.35
439.14	5750.70
439.33	5996.45
439.52	5867.72
439.70	5846.66
439.89	5907.51
440.08	6029.22
440.26	5820.91
440.45	5947.30
440.63	6125.18
440.82	6298.38
441.01	6139.23
441.19	6218.80
441.38	6324.13
441.57	6307.74
441.75	6434.13
441.94	6506.69
442.12	6565.20
442.31	6817.98
442.50	6424.77
442.68	6691.59
442.87	6635.42
443.05	6712.66
443.24	6888.20
443.43	6864.79
443.61	6663.51
443.80	7009.90
443.98	6782.87
444.17	6576.91
444.35	6675.21
444.54	6867.13
444.73	6867.13
444.91	6729.04
445.10	6682.23
445.28	6675.21
445.47	6719.68
445.65	6766.49
445.84	6895.22
446.02	6883.52
446.21	6782.87
446.39	6876.49
446.58	7037.99
446.77	6939.69
446.95	6757.13
447.14	7152.68
447.32	7218.21
447.51	6913.94
447.69	6981.82
447.88	7091.82
448.06	7012.24
448.25	7002.88
448.43	7066.08
448.62	7007.56
448.80	7070.76
448.99	7173.74
449.17	7283.75
449.36	7073.10
449.54	7339.92
449.73	7358.64
449.91	7524.82
450.10	7548.23
450.28	7531.84
450.46	7576.31
450.65	7564.61
450.83	7543.55
451.02	7585.68
451.20	7611.42
451.39	7662.91
451.57	7513.12
451.76	7648.87
451.94	7625.47
452.13	7480.35
452.31	7604.40
452.49	7428.86
452.68	7515.46
452.86	7515.46
453.05	7676.96
453.23	7637.17
453.42	7648.87
453.60	7644.19
453.78	7801.01
453.97	7660.57
454.15	7749.51
454.34	7679.30
454.52	7861.86
454.70	7829.09
454.89	8135.70
455.07	8037.40
455.26	8004.63
455.44	7920.37
455.62	8004.63
455.81	8013.99
455.99	8088.89
456.17	8088.89
456.36	8276.13
456.54	8374.44
456.73	8341.67
456.91	8486.78
457.09	8430.61
457.28	8648.28
457.46	8358.05
457.64	8493.80
457.83	8662.32
458.01	8322.94
458.19	8655.30
458.38	8671.68
458.56	8540.61
458.74	8692.75
458.93	8528.91
459.11	8634.24
459.29	8755.94
459.48	8674.03
459.66	8622.53
459.84	8788.71
460.03	8973.61
460.21	8865.95
460.39	8767.65
460.57	8985.32
460.76	8849.57
460.94	9104.68
461.12	9137.45
461.31	8922.12
461.49	9011.06
461.67	9060.21
461.85	9371.50
462.04	9434.70
462.22	9523.64
462.40	9394.91
462.59	9345.76
462.77	9137.45
462.95	9446.40
463.13	9352.78
463.32	9437.04
463.50	9291.93
463.68	9275.54
463.86	9488.53
464.05	9380.87
464.23	9383.21
464.41	9331.72
464.59	9090.64
464.78	9427.68
464.96	9682.80
465.14	9310.65
465.32	9612.58
465.50	9823.23
465.69	9572.79
465.87	9612.58
466.05	9589.17
466.23	9654.71
466.41	9694.50
466.60	9848.97
466.78	9659.39
466.96	9825.57
467.14	9715.56
467.32	9699.18
467.51	9891.10
467.69	9589.17
467.87	9680.46
468.05	10139.20
468.23	9951.96
468.41	9921.53
468.60	10033.88
468.78	9944.94
468.96	10232.82
469.14	9937.91
469.32	10200.05
469.50	9933.23
469.69	10312.40
469.87	10406.02
470.05	10249.21
470.23	10174.31
470.41	10090.05
470.59	10375.59
470.77	10057.28
470.95	10455.17
471.14	10649.44
471.32	10399.00
471.50	10649.44
471.68	10672.84
471.86	10794.55
472.04	10604.97
472.22	10998.18
472.40	10576.88
472.58	10759.44
472.77	10913.92
472.95	10949.03
473.13	11332.87
473.31	11021.58
473.49	10953.71
473.67	11164.36
473.85	10918.60
474.03	11323.51
474.21	11543.52
474.39	11487.35
474.57	11597.35
474.75	11805.66
474.93	11674.59
475.12	11573.95
475.30	11812.68
475.48	11925.03
475.66	11796.30
475.84	11840.77
476.02	11852.47
476.20	12060.78
476.38	12121.63
476.56	11992.90
476.74	12545.27
476.92	12222.28
477.10	12212.92
477.28	12849.54
477.46	12475.06
477.64	12847.20
477.82	12781.67
478.00	13198.28
478.18	13006.36
478.36	13329.35
478.54	12952.52
478.72	13394.89
478.90	13532.98
479.08	13561.06
479.26	13628.94
479.44	13811.50
479.62	13827.88
479.80	13830.23
479.98	14104.07
480.16	14207.05
480.34	14300.67
480.52	14518.34
480.70	14377.91
480.88	14122.79
481.06	14441.11
481.24	14511.32
481.41	15152.63
481.59	15185.40
481.77	15171.35
481.95	14960.70
482.13	15279.02
482.31	15178.37
482.49	15503.71
482.67	15641.80
482.85	15655.84
483.03	15953.09
483.21	15955.43
483.39	15899.26
483.57	16027.99
483.74	16402.47
483.92	16369.71
484.10	16414.18
484.28	16535.88
484.46	16601.42
484.64	16889.31
484.82	16943.14
485.00	16996.97
485.18	16985.27
485.35	17214.64
485.53	16798.02
485.71	16512.48
485.89	17067.19
486.07	17123.36
486.25	17165.49
486.43	17429.97
486.61	17635.94
486.78	17994.04
486.96	18267.88
487.14	18354.48
487.32	18237.45
487.50	18848.33
487.68	18684.50
487.85	18918.55
488.03	19103.45
488.21	19080.05
488.39	19456.87
488.57	19262.61
488.75	19442.83
488.92	19747.10
489.10	20229.25
489.28	20262.02
489.46	20442.24
489.64	20570.97
489.81	20973.54
489.99	21106.95
490.17	21090.57
490.35	21050.78
490.53	21102.27
490.70	21394.84
490.88	21451.01
491.06	21659.32
491.24	21701.45
491.41	21469.73
491.59	21792.73
491.77	21708.47
491.95	21963.59
492.13	22270.20
492.30	22277.22
492.48	22391.91
492.66	22417.65
492.84	22443.40
493.01	22799.16
493.19	22757.03
493.37	23199.39
493.54	23073.00
493.72	23307.05
493.90	23501.32
494.08	23833.68
494.25	24435.19
494.43	24070.07
494.61	24428.17
494.79	24407.11
494.96	24379.02
495.14	24474.98
495.32	24608.39
495.49	24608.39
495.67	24807.34
495.85	25092.88
496.02	25085.86
496.20	25149.06
496.38	25380.77
496.55	25521.20
496.73	26120.38
496.91	25673.34
497.09	26015.05
497.26	26139.10
497.44	26139.10
497.62	26195.28
497.79	26623.59
497.97	26183.57
498.14	26338.05
498.32	26225.70
498.50	26611.89
498.67	26686.79
498.85	27082.34
499.03	27159.58
499.20	27417.04
499.38	27360.86
499.56	27246.18
499.73	27438.10
499.91	27520.02
500.08	27922.59
500.26	27590.24
500.44	27400.65
500.61	27608.96
500.79	27562.15
500.97	27569.17
501.14	28500.70
501.32	28177.71
501.49	27924.93
501.67	27964.72
501.84	28676.24
502.02	28444.53
502.20	28877.53
502.37	28891.57
502.55	28854.12
502.72	29076.48
502.90	29305.85
503.07	29462.66
503.25	29280.10
503.43	29188.82
503.60	28900.94
503.78	29127.97
503.95	28886.89
504.13	29502.45
504.30	29619.48
504.48	29303.51
504.65	30195.25
504.83	30307.60
505.01	30412.92
505.18	30288.87
505.36	30494.84
505.53	30398.88
505.71	30876.35
505.88	30948.90
506.06	30780.39
506.23	30785.07
506.41	30455.05
506.58	30815.49
506.76	31157.21
506.93	31372.54
507.11	30932.52
507.28	31117.42
507.46	30951.24
507.63	31215.72
507.81	31012.10
507.98	31246.15
508.16	31342.11
508.33	31622.98
508.50	31611.28
508.68	32123.85
508.85	32526.42
509.03	31960.02
509.20	32367.27
509.38	32208.11
509.55	32350.88
509.73	32339.18
509.90	32814.31
510.08	32275.99
510.25	32613.02
510.42	32547.49
510.60	33048.36
510.77	32783.88
510.95	32940.70
511.12	32973.47
511.30	33333.91
511.47	33984.58
511.64	33249.65
511.82	34270.12
511.99	33429.87
512.17	33474.34
512.34	33331.57
512.51	33549.24
512.69	33668.61
512.86	33684.99
513.04	34410.56
513.21	33706.05
513.38	34082.88
513.56	34155.44
513.73	33879.25
513.90	34569.71
514.08	34473.75
514.25	34249.06
514.43	33851.17
514.60	34314.59
514.77	34244.38
514.95	34642.27
515.12	34717.17
515.29	34775.68
515.47	35489.54
515.64	35356.13
515.81	34965.26
515.99	34841.21
516.16	34672.70
516.33	34625.89
516.51	34527.58
516.68	34330.98
516.85	34691.42
517.03	34745.25
517.20	35262.51
517.37	35215.70
517.54	35784.45
517.72	35615.93
517.89	35054.20
518.06	34670.36
518.24	35728.28
518.41	35143.14
518.58	35632.32
518.75	35835.94
518.93	36215.11
519.10	35938.93
519.27	36189.36
519.45	35976.37
519.62	36292.35
519.79	36629.38
519.96	36301.71
520.14	36545.12
520.31	36629.38
520.48	36449.16
520.65	36935.99
520.83	37296.44
521.00	37109.19
521.17	36905.57
521.34	37343.25
521.52	36760.45
521.69	37392.40
521.86	37703.69
522.03	37589.00
522.20	37734.12
522.38	37724.75
522.55	37926.04
522.72	37610.07
522.89	37226.22
523.07	37537.51
523.24	37846.46
523.41	37916.68
523.58	37897.95
523.75	38572.03
523.92	38504.15
524.10	38478.41
524.27	38632.88
524.44	38513.52
524.61	38623.52
524.78	38424.57
524.96	38370.74
525.13	38756.93
525.30	38993.32
525.47	39049.50
525.64	38806.08
525.81	38628.20
525.98	38796.72
526.16	38375.42
526.33	38543.94
526.50	38508.83
526.67	38597.77
526.84	38511.17
527.01	38326.27
527.18	39019.07
527.36	39826.56
527.53	39229.72
527.70	39501.22
527.87	39548.03
528.04	39318.66
528.21	39384.19
528.38	39704.85
528.55	40376.58
528.72	40488.93
528.89	40362.54
529.07	40088.70
529.24	39440.37
529.41	40210.40
529.58	40027.84
529.75	39871.03
529.92	40343.81
530.09	40304.02
530.26	40683.19
530.43	40149.55
530.60	40545.10
530.77	40610.64
530.94	40699.58
531.11	40755.75
531.28	40903.20
531.46	40884.48
531.63	40786.18
531.80	40582.55
531.97	40676.17
532.14	40769.79
532.31	40467.86
532.48	40617.66
532.65	40657.45
532.82	40980.44
532.99	40741.71
533.16	40872.78
533.33	41453.23
533.50	41298.75
533.67	40954.69
533.84	41371.31
534.01	41254.28
534.18	41352.58
534.35	41455.57
534.52	41553.87
534.69	41493.02
534.86	41858.14
535.03	42029.00
535.20	41991.55
535.37	42010.28
535.54	42691.37
535.71	42131.98
535.88	41883.89
536.05	41731.75
536.22	42057.09
536.38	41933.04
536.55	42029.00
536.72	41893.25
536.89	42005.59
537.06	41940.06
537.23	42670.31
537.40	42096.88
537.57	42347.31
537.74	42403.49
537.91	42354.33
538.08	42813.08
538.25	42120.28
538.42	42174.11
538.59	42997.98
538.75	42115.60
538.92	42693.71
539.09	42555.62
539.26	42777.97
539.43	42471.36
539.60	42705.41
539.77	42167.09
539.94	42506.47
540.11	42735.84
540.28	42658.60
540.44	42831.80
540.61	42586.05
540.78	43030.75
540.95	42604.77
541.12	42567.32
541.29	43370.13
541.46	42696.05
541.62	43192.25
541.79	43187.56
541.96	42913.72
542.13	42770.95
542.30	43246.08
542.47	43569.07
542.63	43290.55
542.80	43152.46
542.97	43559.71
543.14	44013.77
543.31	43695.46
543.48	43545.67
543.64	44186.97
543.81	43791.42
543.98	44189.31
544.15	44432.73
544.32	44177.61
544.48	44500.61
544.65	44198.68
544.82	44119.10
544.99	44053.56
545.16	44128.46
545.32	43945.90
545.49	44582.52
545.66	44573.16
545.83	44460.82
546.00	44746.36
546.16	44371.88
546.33	44306.34
546.50	44369.54
546.67	44348.47
546.83	44254.85
547.00	44428.05
547.17	44554.44
547.34	44477.20
547.50	44669.12
547.67	44708.91
547.84	44648.06
548.00	44505.29
548.17	44788.49
548.34	44617.63
548.51	44996.80
548.67	44933.60
548.84	45170.00
549.01	45045.95
549.18	44828.28
549.34	45240.21
549.51	44858.71
549.68	45188.72
549.84	45144.25
550.01	45413.41
550.18	45345.54
550.34	45153.62
550.51	44835.30
550.68	45394.69
550.84	45008.50
551.01	45172.34
551.18	45045.95
551.34	45102.12
551.51	45780.88
551.68	45893.22
551.84	45291.71
552.01	45254.26
552.18	45500.01
552.34	45277.66
552.51	45125.53
552.68	45446.18
552.84	46061.74
553.01	45244.90
553.18	45532.78
553.34	45500.01
553.51	45158.30
553.67	45607.68
553.84	45937.69
554.01	45933.01
554.17	46216.22
554.34	46153.02
554.51	45965.78
554.67	46330.90
554.84	46047.70
555.00	45642.79
555.17	45783.22
555.33	45537.46
555.50	45635.77
555.67	45780.88
555.83	46010.25
556.00	45790.24
556.16	46302.82
556.33	45834.71
556.50	45619.38
556.66	46157.70
556.83	45703.64
556.99	46157.70
557.16	46419.84
557.32	46230.26
557.49	46146.00
557.65	45874.50
557.82	46267.71
557.98	46043.02
558.15	46256.01
558.32	46153.02
558.48	46026.63
558.65	45918.97
558.81	45956.42
558.98	45879.18
559.14	45631.08
559.31	46174.09
559.47	46370.69
559.64	46164.73
559.80	46358.99
559.97	46291.12
560.13	46213.88
560.30	46347.29
560.46	46375.37
560.63	46672.62
560.79	46609.43
560.96	46323.88
561.12	46160.05
561.29	46424.53
561.45	46202.18
561.61	46328.56
561.78	46525.17
561.94	46206.86
562.11	46906.68
562.27	46349.63
562.44	46529.85
562.60	46887.95
562.77	46674.96
562.93	46827.10
563.10	46726.46
563.26	46794.33
563.42	46574.32
563.59	46579.00
563.75	46457.29
563.92	47030.72
564.08	46614.11
564.24	46953.49
564.41	46550.91
564.57	47033.07
564.74	46340.27
564.90	46976.89
565.07	46670.28
565.23	46476.02
565.39	46827.10
565.56	46995.62
565.72	46443.25
565.88	46597.73
566.05	46579.00
566.21	46380.06
566.38	46600.07
566.54	46887.95
566.70	46649.22
566.87	47075.19
567.03	46887.95
567.19	47217.97
567.36	47000.30
567.52	46763.90
567.68	47349.04
567.85	46576.66
568.01	47009.66
568.17	47334.99
568.34	46911.36
568.50	46951.15
568.66	46965.19
568.83	46775.61
568.99	46403.46
569.15	46721.77
569.32	47044.77
569.48	47356.06
569.64	47337.33
569.81	46967.53
569.97	46787.31
570.13	46866.89
570.30	46564.96
570.46	46712.41
570.62	46616.45
570.78	46995.62
570.95	46630.49
571.11	46843.48
571.27	47206.26
571.43	46698.37
571.60	46946.47
571.76	46829.44
571.92	47012.00
572.09	47093.92
572.25	46988.60
572.41	47009.66
572.57	47110.30
572.74	47564.37
572.90	46775.61
573.06	47531.60
573.22	47302.23
573.38	47012.00
573.55	46864.55
573.71	47342.02
573.87	47189.88
574.03	46923.06
574.20	47173.50
574.36	46794.33
574.52	47075.19
574.68	47056.47
574.84	47166.48
575.01	47091.58
575.17	46731.14
575.33	46763.90
575.49	47065.83
575.65	47000.30
575.82	47433.30
575.98	46897.31
576.14	47386.49
576.30	47292.86
576.46	46979.23
576.62	47061.15
576.79	46775.61
576.95	46791.99
577.11	47004.98
577.27	47496.49
577.43	47133.71
577.59	46742.84
577.75	46831.78
577.92	46784.97
578.08	46244.30
578.24	46401.12
578.40	46841.14
578.56	47536.28
578.72	47124.35
578.88	47351.38
579.04	47323.29
579.21	47194.56
579.37	47077.54
579.53	47166.48
579.69	47381.80
579.85	47241.37
580.01	47550.32
580.17	47023.70
580.33	47227.33
580.49	47442.66
580.65	47033.07
580.82	46784.97
580.98	46560.28
581.14	47007.32
581.30	47028.38
581.46	47337.33
581.62	47096.26
581.78	47075.19
581.94	47435.64
582.10	46958.17
582.26	47051.79
582.42	47114.98
582.58	47171.16
582.74	47023.70
582.90	47358.40
583.06	47138.39
583.22	47412.23
583.38	47281.16
583.54	47260.10
583.70	47562.03
583.86	47489.47
584.02	47220.31
584.18	47327.97
584.34	47234.35
584.50	47035.41
584.66	47248.39
584.82	47288.18
584.98	47578.41
585.14	47318.61
585.30	46827.10
585.46	47070.51
585.62	47075.19
585.78	47309.25
585.94	47023.70
586.10	47075.19
586.26	47246.05
586.42	47606.50
586.58	47487.13
586.74	47271.80
586.90	47344.36
587.06	47346.70
587.22	47632.24
587.38	47056.47
587.54	47131.37
587.70	47391.17
587.86	47138.39
588.02	47096.26
588.18	46972.21
588.34	46522.83
588.49	46808.37
588.65	46593.04
588.81	46412.82
588.97	46733.48
589.13	46681.98
589.29	46557.94
589.45	46951.15
589.61	47269.46
589.77	47320.95
589.93	47168.82
590.08	47306.91
590.24	46937.10
590.40	47402.87
590.56	47594.79
590.72	47608.84
590.88	47199.24
591.04	47133.71
591.20	47484.79
591.35	47714.16
591.51	47779.70
591.67	47515.22
591.83	47215.63
591.99	47337.33
592.15	47744.59
592.31	47257.76
592.46	47285.84
592.62	47166.48
592.78	47522.24
592.94	47351.38
593.10	47065.83
593.26	47463.72
593.41	47236.69
593.57	47222.65
593.73	47262.44
593.89	47351.38
594.05	47077.54
594.20	47194.56
594.36	47077.54
594.52	47107.96
594.68	47117.32
594.84	46691.35
594.99	47545.64
595.15	47220.31
595.31	47594.79
595.47	47344.36
595.62	47643.94
595.78	47255.42
595.94	47381.80
596.10	47833.53
596.25	47639.26
596.41	47569.05
596.57	46939.44
596.73	47648.63
596.88	47002.64
597.04	47241.37
597.20	47629.90
597.36	47342.02
597.51	47484.79
597.67	47154.77
597.83	47428.62
597.99	47627.56
598.14	47416.91
598.30	47409.89
598.46	47367.76
598.61	47077.54
598.77	47213.29
598.93	47096.26
599.09	47302.23
599.24	48020.77
599.40	47365.42
599.56	47283.50
599.71	47386.49
599.87	47487.13
600.03	47489.47
600.18	47412.23
600.34	47168.82
600.50	47107.96
600.65	47234.35
600.81	47583.09
600.97	47604.16
601.12	47503.51
601.28	47978.64
601.44	47103.28
601.59	46976.89
601.75	46787.31
601.91	47009.66
602.06	46834.12
602.22	47459.04
602.37	47253.08
602.53	47037.75
602.69	47449.68
602.84	46892.63
603.00	46913.70
603.16	47224.99
603.31	47232.01
603.47	47330.31
603.62	47112.64
603.78	47496.49
603.94	47117.32
604.09	47590.11
604.25	47103.28
604.40	47274.14
604.56	47103.28
604.71	47480.11
604.87	47220.31
605.03	46899.65
605.18	47033.07
605.34	47232.01
605.49	46686.67
605.65	47522.24
605.80	47552.66
605.96	47154.77
606.12	47433.30
606.27	47473.09
606.43	46827.10
606.58	47288.18
606.74	46649.22
606.89	47035.41
607.05	47765.65
607.20	47730.54
607.36	47007.32
607.51	46803.69
607.67	47009.66
607.82	47019.02
607.98	47133.71
608.13	46801.35
608.29	46607.09
608.44	46609.43
608.60	46429.21
608.75	46543.89
608.91	46735.82
609.06	46696.03
609.22	46981.57
609.37	46440.91
609.53	46745.18
609.68	46518.15
609.84	46574.32
609.99	46457.29
610.15	46298.14
610.30	46309.84
610.46	46361.33
610.61	46911.36
610.76	46450.27
610.92	46562.62
611.07	46988.60
611.23	46906.68
611.38	46321.54
611.54	46679.64
611.69	46277.07
611.84	45958.76
612.00	46307.50
612.15	46094.51
612.31	46656.24
612.46	46555.60
612.62	46536.87
612.77	46689.01
612.92	46689.01
613.08	46646.88
613.23	46431.55
613.39	46136.64
613.54	45593.64
613.69	46426.87
613.85	45858.12
614.00	46284.09
614.15	46211.54
614.31	46499.42
614.46	46305.16
614.62	46274.73
614.77	45958.76
614.92	46260.69
615.08	45909.61
615.23	46078.13
615.38	45727.05
615.54	46218.56
615.69	45801.94
615.84	45624.06
616.00	45769.18
616.15	44987.44
616.30	46124.94
616.46	45418.10
616.61	45581.93
616.76	45474.27
616.92	45216.81
617.07	45542.14
617.22	45055.31
617.37	45478.95
617.53	45720.02
617.68	45680.24
617.83	45947.06
617.99	45598.32
618.14	45471.93
618.29	45705.98
618.45	45455.54
618.60	45270.64
618.75	45170.00
618.90	45298.73
619.06	45081.06
619.21	45535.12
619.36	45502.35
619.51	45394.69
619.67	45282.34
619.82	45579.59
619.97	45532.78
620.12	45457.88
620.28	45045.95
620.43	45284.68
620.58	45141.91
620.73	45006.16
620.89	45099.78
621.04	44989.78
621.19	45223.83
621.34	45467.25
621.49	45057.65
621.65	44828.28
621.80	45130.21
621.95	44809.56
622.10	45015.52
622.25	44671.46
622.41	44353.15
622.56	44559.12
622.71	44755.72
622.86	44612.95
623.01	44519.33
623.16	45057.65
623.32	44645.72
623.47	44755.72
623.62	44418.69
623.77	44383.58
623.92	44411.67
624.07	44423.37
624.23	44341.45
624.38	44533.37
624.53	44203.36
624.68	44261.87
624.83	44217.40
624.98	44414.01
625.13	44058.24
625.29	44322.72
625.44	44210.38
625.59	43847.60
625.74	43950.58
625.89	43849.94
626.04	43936.54
626.19	43810.15
626.34	44083.99
626.49	43875.68
626.65	43695.46
626.80	44037.18
626.95	43672.06
627.10	43545.67
627.25	43695.46
627.40	43416.94
627.55	43232.04
627.70	43281.19
627.85	43178.20
628.00	43271.82
628.15	43398.21
628.30	43260.12
628.45	43690.78
628.60	43569.07
628.76	43751.63
628.91	43548.01
629.06	42939.47
629.21	43388.85
629.36	43084.58
629.51	43508.22
629.66	43194.59
629.81	42916.06
629.96	42995.64
630.11	42958.19
630.26	43552.69
630.41	43564.39
630.56	43133.73
630.71	43489.49
630.86	42869.25
631.01	42696.05
631.16	43040.11
631.31	42773.29
631.46	42679.67
631.61	42953.51
631.76	42913.72
631.91	42583.71
632.06	42904.36
632.21	42902.02
632.36	42735.84
632.51	42691.37
632.66	42937.13
632.81	42866.91
632.96	41975.17
633.10	42422.21
633.25	42705.41
633.40	42679.67
633.55	43208.63
633.70	42632.86
633.85	42569.66
634.00	42436.25
634.15	42773.29
634.30	42583.71
634.45	42344.97
634.60	42237.31
634.75	42742.86
634.90	42525.19
635.05	42581.37
635.19	42181.13
635.34	42532.22
635.49	42567.32
635.64	42155.39
635.79	42351.99
635.94	42103.90
636.09	42239.65
636.24	41600.68
636.39	42092.19
636.53	42347.31
636.68	42141.35
636.83	42319.23
636.98	42281.78
637.13	41530.47
637.28	41993.89
637.43	42007.94
637.57	42096.88
637.72	42298.16
637.87	41684.94
638.02	42134.32
638.17	41780.90
638.32	41956.44
638.46	42066.45
638.61	41830.05
638.76	41675.58
638.91	41607.70
639.06	41495.36
639.20	42054.75
639.35	41668.56
639.50	42164.75
639.65	41511.74
639.80	41256.62
639.94	41560.89
640.09	41605.36
640.24	41305.77
640.39	41429.82
640.54	41387.69
640.68	40917.25
640.83	41207.47
640.98	41130.23
641.13	40886.82
641.27	41343.22
641.42	41041.29
641.57	41247.26
641.72	40917.25
641.86	40769.79
642.01	40774.47
642.16	41008.53
642.31	40650.42
642.45	40994.48
642.60	40456.16
642.75	41120.87
642.90	41198.11
643.04	40966.40
643.19	40931.29
643.34	40865.75
643.48	41067.04
643.63	40973.42
643.78	40624.68
643.93	40577.87
644.07	40655.11
644.22	40765.11
644.37	40439.78
644.51	40617.66
644.66	40540.42
644.81	40509.99
644.95	40816.60
645.10	40428.07
645.25	40491.27
645.39	41076.40
645.54	40409.35
645.69	40194.02
645.83	40285.30
645.98	40669.15
646.13	40339.13
646.27	40367.22
646.42	40610.64
646.57	40308.71
646.71	40205.72
646.86	39662.72
647.00	40297.00
647.15	39868.69
647.30	40091.04
647.44	39796.13
647.59	40114.44
647.74	39856.98
647.88	40006.78
648.03	39969.33
648.17	40055.93
648.32	39660.38
648.47	39512.92
648.61	39438.03
648.76	39824.22
648.90	39866.34
649.05	39548.03
649.20	39276.53
649.34	40032.52
649.49	39494.20
649.63	39428.66
649.78	39374.83
649.92	39889.75
650.07	39658.04
650.21	39718.89
650.36	39826.56
650.51	39143.12
650.65	39962.31
650.80	40650.42
650.94	39613.57
651.09	39253.12
651.23	39583.14
651.38	39337.38
651.52	39433.35
651.67	39416.96
651.81	39271.85
651.96	39082.27
652.10	39321.00
652.25	39257.81
652.39	39267.17
652.54	39690.80
652.68	39290.57
652.83	39185.25
652.97	39215.68
653.12	39496.54
653.26	38675.01
653.41	38920.77
653.55	38927.79
653.70	38958.22
653.84	38829.49
653.99	38747.57
654.13	38895.02
654.27	38703.10
654.42	38721.82
654.56	38452.66
654.71	38455.00
654.85	38494.79
655.00	38398.83
655.14	38476.07
655.29	38024.34
655.43	38375.42
655.57	38176.48
655.72	37853.48
655.86	37717.73
656.01	37942.42
656.15	37570.28
656.30	38213.93
656.44	37956.47
656.58	37961.15
656.73	38012.64
656.87	37965.83
657.01	38052.43
657.16	38298.19
657.30	37902.64
657.45	37790.29
657.59	38377.76
657.73	37785.61
657.88	38572.03
658.02	38115.62
658.16	38092.22
658.31	37965.83
658.45	38246.69
658.60	37696.67
658.74	38174.14
658.88	38181.16
659.03	37841.78
659.17	37378.36
659.31	37095.15
659.46	37076.43
659.60	37509.43
659.74	37764.54
659.89	37504.74
660.03	37064.72
660.17	37752.84
660.32	37544.53
660.46	37427.51
660.60	37268.35
660.74	37502.40
660.89	37303.46
661.03	37139.62
661.17	37034.30
661.32	37212.18
661.46	37364.31
661.60	37167.71
661.74	36935.99
661.89	36708.96
662.03	36865.78
662.17	36776.84
662.31	36676.19
662.46	36919.61
662.60	36865.78
662.74	36407.03
662.88	36634.06
663.03	36498.31
663.17	36280.64
663.31	36739.39
663.45	36332.14
663.60	36641.09
663.74	35990.42
663.88	36114.47
664.02	35915.52
664.17	36158.94
664.31	36268.94
664.45	36065.31
664.59	36226.81
664.73	35814.88
664.88	35868.71
665.02	35896.80
665.16	35805.52
665.30	35777.43
665.44	35314.00
665.59	35098.67
665.73	35314.00
665.87	35386.56
666.01	35667.42
666.15	35250.81
666.29	35695.51
666.44	35424.01
666.58	35271.87
666.72	34761.64
666.86	35409.96
667.00	35332.73
667.14	34504.18
667.28	35042.50
667.43	34754.61
667.57	34932.50
667.71	34890.37
667.85	35061.22
667.99	35005.05
668.13	34841.21
668.27	35079.95
668.41	35016.75
668.56	34691.42
668.70	34735.89
668.84	34139.05
668.98	34232.68
669.12	33933.09
669.26	34139.05
669.40	34192.89
669.54	34270.12
669.68	34129.69
669.82	33736.48
669.96	33783.29
670.10	33741.16
670.25	33776.27
670.39	33778.61
670.53	33425.19
670.67	33270.72
670.81	33539.88
670.95	33635.84
671.09	33450.94
671.23	33130.28
671.37	33605.41
671.51	33212.20
671.65	33441.57
671.79	33074.11
671.93	33081.13
672.07	33027.30
672.21	32741.75
672.35	32620.05
672.49	33118.58
672.63	32907.93
672.77	32582.60
672.91	32556.85
673.05	32931.34
673.19	32561.53
673.33	32683.24
673.47	32030.23
673.61	32203.43
673.75	32329.82
673.89	32315.78
674.03	31807.88
674.17	32116.83
674.31	31805.54
674.45	31775.11
674.59	31913.20
674.73	32311.10
674.87	32011.51
675.01	31136.15
675.15	31501.27
675.29	31541.06
675.43	31337.43
675.56	31508.29
675.70	31360.84
675.84	30988.69
675.98	29921.41
676.12	31068.27
676.26	31047.21
676.40	30913.80
676.54	31089.34
676.68	30810.81
676.82	30630.59
676.96	30279.51
677.10	30101.63
677.23	30211.64
677.37	30506.54
677.51	30015.03
677.65	30216.32
677.79	29542.24
677.93	29556.28
678.07	29764.59
678.21	29673.31
678.34	29207.55
678.48	29050.73
678.62	29130.31
678.76	29034.35
678.90	28690.29
679.04	28886.89
679.18	29071.79
679.31	28760.50
679.45	28416.44
679.59	28650.50
679.73	28308.78
679.87	28713.69
680.00	28367.29
680.14	28322.82
680.28	28608.37
680.42	28460.91
680.56	28582.62
680.70	27885.14
680.83	28332.18
680.97	27910.89
681.11	27672.15
681.25	27536.40
681.39	27700.24
681.52	27477.89
681.66	27311.71
681.80	27206.39
681.94	27330.44
682.07	27304.69
682.21	27108.08
682.35	27115.11
682.49	26974.67
682.62	26902.12
682.76	26829.56
682.90	26642.32
683.04	26490.18
683.17	26499.55
683.31	26419.97
683.45	26368.48
683.59	25993.99
683.72	25958.88
683.86	25951.86
684.00	26125.06
684.13	25965.90
684.27	25916.75
684.41	25443.96
684.55	25596.10
684.68	25303.53
684.82	25338.64
684.96	25443.96
685.09	25301.19
685.23	25401.83
685.37	25043.73
685.50	25242.68
685.64	25223.95
685.78	25074.16
685.91	24716.06
686.05	24687.97
686.19	24484.34
686.32	24313.48
686.46	23957.72
686.60	23742.39
686.73	23716.65
686.87	23370.25
687.01	23620.69
687.14	23222.80
687.28	23295.35
687.42	23541.11
687.55	23318.76
687.69	23470.89
687.82	23477.91
687.96	23117.47
688.10	23194.71
688.23	22881.08
688.37	23089.38
688.50	23089.38
688.64	22824.90
688.78	22794.48
688.91	22808.52
689.05	22988.74
689.18	22508.93
689.32	22356.80
689.46	22429.35
689.59	22272.54
689.73	22541.70
689.86	22155.51
690.00	22223.39
690.13	22244.45
690.27	22047.85
690.41	22001.04
690.54	21652.30
690.68	21708.47
690.81	21479.10
690.95	21682.72
691.08	21706.13
691.22	21525.91
691.35	21436.97
691.49	21577.40
691.62	21193.55
691.76	21476.76
691.89	21256.75
692.03	20891.62
692.16	20856.51
692.30	20828.43
692.43	20758.21
692.57	20355.64
692.70	20458.62
692.84	20367.34
692.97	20189.46
693.11	19889.87
693.24	20365.00
693.38	19878.17
693.51	19955.41
693.65	20126.27
693.78	20056.05
693.92	20119.24
694.05	19915.62
694.19	19630.07
694.32	19594.96
694.45	19557.52
694.59	19330.48
694.72	19304.74
694.86	19370.27
694.99	19098.77
695.13	19037.92
695.26	19051.96
695.39	18927.91
695.53	19042.60
695.66	19330.48
695.80	19002.81
695.93	18867.06
696.07	18637.69
696.20	18698.54
696.33	18892.80
696.47	18600.24
696.60	18476.19
696.73	17975.31
696.87	18214.05
697.00	17951.91
697.14	18155.54
697.27	17729.56
697.40	17738.92
697.54	17584.44
697.67	17724.88
697.80	17575.08
697.94	17483.80
698.07	17462.74
698.21	17165.49
698.34	17359.75
698.47	17125.70
698.61	16929.09
698.74	16989.95
698.87	16713.77
699.01	16718.45
699.14	16915.05
699.27	16472.69
699.40	16367.37
699.54	16369.71
699.67	16348.64
699.80	16723.13
699.94	16765.26
700.07	16299.49
700.20	16348.64
700.34	16210.55
700.47	16093.52
700.60	16437.58
700.73	16233.96
700.87	16121.61
701.00	15922.66
701.13	15768.19
701.26	15412.43
701.40	15726.06
701.53	15461.58
701.66	15248.59
701.79	15328.17
701.93	15257.95
702.06	15143.27
702.19	15063.69
702.32	15152.63
702.46	14958.36
702.59	14824.95
702.72	15154.97
702.85	15126.88
702.99	14937.30
703.12	14967.73
703.25	14623.67
703.38	14462.17
703.51	14520.68
703.65	14469.19
703.78	14532.39
703.91	14300.67
704.04	13949.59
704.17	14097.05
704.31	14310.04
704.44	14359.19
704.57	14176.62
704.70	13991.72
704.83	13891.08
704.96	14108.75
705.10	13827.88
705.23	13940.23
>>>>>End Processed Spectral Data<<<<<
