SpectraSuite Data File
++++++++++++++++++++++++++++++++++++
Date: Fri Oct 25 10:47:54 EDT 2013
User: price-jones
Dark Spectrum Present: No
Reference Spectrum Present: No
Number of Sampled Component Spectra: 1
Spectrometers: USB2+H05261
Integration Time (usec): 100000 (USB2+H05261)
Spectra Averaged: 1 (USB2+H05261)
Boxcar Smoothing: 0 (USB2+H05261)
Correct for Electrical Dark: No (USB2+H05261)
Strobe/Lamp Enabled: No (USB2+H05261)
Correct for Detector Non-linearity: No (USB2+H05261)
Correct for Stray Light: No (USB2+H05261)
Number of Pixels in Processed Spectrum: 2048
>>>>>Begin Processed Spectral Data<<<<<
365.73	147.45
365.92	147.45
366.12	147.45
366.32	88.94
366.52	39.79
366.72	16.38
366.91	23.41
367.11	39.79
367.31	0.00
367.51	98.30
367.70	14.04
367.90	0.00
368.10	44.47
368.30	56.17
368.49	0.00
368.69	16.38
368.89	30.43
369.09	7.02
369.28	88.94
369.48	42.13
369.68	81.92
369.87	133.41
370.07	60.85
370.27	161.50
370.47	191.92
370.66	404.91
370.86	514.92
371.06	454.06
371.25	400.23
371.45	435.34
371.65	496.19
371.84	360.44
372.04	440.02
372.24	465.77
372.44	524.28
372.63	437.68
372.83	500.87
373.03	510.24
373.22	491.51
373.42	538.32
373.62	496.19
373.81	582.79
374.01	547.69
374.21	571.09
374.40	547.69
374.60	498.53
374.79	491.51
374.99	517.26
375.19	622.58
375.38	566.41
375.58	540.66
375.78	528.96
375.97	601.52
376.17	568.75
376.37	622.58
376.56	660.03
376.76	561.73
376.95	615.56
377.15	601.52
377.35	617.90
377.54	627.26
377.74	585.13
377.93	603.86
378.13	697.48
378.33	664.71
378.52	592.16
378.72	638.97
378.91	674.07
379.11	620.24
379.31	540.66
379.50	643.65
379.70	587.47
379.89	638.97
380.09	624.92
380.28	643.65
380.48	645.99
380.68	592.16
380.87	671.73
381.07	685.78
381.26	678.76
381.46	641.31
381.65	685.78
381.85	627.26
382.04	678.76
382.24	739.61
382.43	634.29
382.63	706.84
382.83	744.29
383.02	774.72
383.22	744.29
383.41	660.03
383.61	711.52
383.80	723.23
384.00	758.33
384.19	709.18
384.39	833.23
384.58	725.57
384.78	795.78
384.97	660.03
385.17	854.30
385.36	777.06
385.56	732.59
385.75	751.31
385.95	748.97
386.14	849.61
386.34	830.89
386.53	912.81
386.72	746.63
386.92	798.12
387.11	788.76
387.31	805.14
387.50	826.21
387.70	760.67
387.89	798.12
388.09	814.51
388.28	856.64
388.48	828.55
388.67	901.11
388.86	833.23
389.06	823.87
389.25	954.94
389.45	912.81
389.64	929.19
389.84	889.40
390.03	931.53
390.22	854.30
390.42	866.00
390.61	905.79
390.81	896.43
391.00	999.41
391.19	973.66
391.39	966.64
391.58	961.96
391.78	1015.79
391.97	994.73
392.16	1001.75
392.36	1006.43
392.55	987.71
392.75	915.15
392.94	926.85
393.13	959.62
393.33	1050.90
393.52	1025.15
393.71	987.71
393.91	1006.43
394.10	1095.37
394.29	1008.77
394.49	1130.48
394.68	1025.15
394.88	1170.27
395.07	1132.82
395.26	1203.04
395.46	1128.14
395.65	1172.61
395.84	1219.42
396.04	1135.16
396.23	1100.05
396.42	1034.52
396.62	1128.14
396.81	1191.33
397.00	1076.65
397.19	1228.78
397.39	1228.78
397.58	1231.12
397.77	1249.85
397.97	1240.48
398.16	1275.59
398.35	1301.34
398.55	1280.27
398.74	1392.62
398.93	1348.15
399.12	1357.51
399.32	1296.66
399.51	1327.08
399.70	1331.76
399.90	1397.30
400.09	1345.81
400.28	1441.77
400.47	1432.41
400.67	1507.30
400.86	1453.47
401.05	1481.56
401.24	1460.49
401.44	1554.12
401.63	1481.56
401.82	1631.35
402.01	1603.27
402.21	1542.41
402.40	1530.71
402.59	1558.80
402.78	1509.65
402.97	1605.61
403.17	1523.69
403.36	1614.97
403.55	1643.06
403.74	1706.25
403.93	1671.14
404.13	1732.00
404.32	1652.42
404.51	1575.18
404.70	1619.65
404.89	1734.34
405.09	1781.15
405.28	1596.25
405.47	1764.76
405.66	1760.08
405.85	1750.72
406.05	1776.47
406.24	1748.38
406.43	1713.27
406.62	1788.17
406.81	1844.34
407.00	1816.26
407.20	1884.13
407.39	1858.39
407.58	1959.03
407.77	1923.92
407.96	1928.60
408.15	2085.42
408.34	1977.75
408.54	1947.33
408.73	2001.16
408.92	1998.82
409.11	1968.39
409.30	1973.07
409.49	2078.40
409.68	2012.86
409.87	2071.37
410.07	2052.65
410.26	2101.80
410.45	2183.72
410.64	2270.32
410.83	2181.38
411.02	2228.19
411.21	2312.45
411.40	2342.88
411.59	2216.49
411.78	2314.79
411.98	2225.85
412.17	2361.60
412.36	2155.63
412.55	2359.26
412.74	2331.17
412.93	2495.01
413.12	2382.67
413.31	2555.86
413.50	2520.76
413.69	2539.48
413.88	2532.46
414.07	2513.74
414.26	2588.63
414.45	2651.83
414.64	2630.76
414.83	2724.38
415.02	2640.12
415.22	2747.79
415.41	2724.38
415.60	2799.28
415.79	2644.81
415.98	2883.54
416.17	2836.73
416.36	2832.05
416.55	2944.39
416.74	2939.71
416.93	2853.11
417.12	2939.71
417.31	2942.05
417.50	3047.38
417.69	3103.55
417.88	2942.05
418.07	3023.97
418.26	3030.99
418.45	2993.55
418.64	3246.32
418.83	3155.04
419.02	3098.87
419.21	3241.64
419.39	3215.90
419.58	3187.81
419.77	3068.44
419.96	3349.31
420.15	3424.20
420.34	3325.90
420.53	3421.86
420.72	3426.54
420.91	3492.08
421.10	3290.79
421.29	3482.72
421.48	3431.23
421.67	3307.18
421.86	3321.22
422.05	3400.80
422.24	3328.24
422.43	3506.12
422.61	3417.18
422.80	3569.32
422.99	3431.23
423.18	3468.67
423.37	3538.89
423.56	3478.04
423.75	3442.93
423.94	3508.46
424.13	3272.07
424.32	3449.95
424.50	3545.91
424.69	3552.93
424.88	3569.32
425.07	3559.95
425.26	3396.12
425.45	3510.80
425.64	3529.53
425.83	3606.77
426.01	3737.84
426.20	3585.70
426.39	3693.37
426.58	3606.77
426.77	3618.47
426.96	3672.30
427.15	3684.00
427.33	3543.57
427.52	3709.75
427.71	3749.54
427.90	3646.55
428.09	3758.90
428.28	3829.12
428.46	3852.52
428.65	3691.02
428.84	3932.10
429.03	3831.46
429.22	3676.98
429.40	3674.64
429.59	3801.03
429.78	3620.81
429.97	3524.85
430.16	3796.35
430.34	3786.99
430.53	3920.40
430.72	3974.23
430.91	3812.73
431.10	3894.65
431.28	4039.76
431.47	4266.80
431.66	3988.27
431.85	3995.29
432.03	4189.56
432.22	4168.49
432.41	4243.39
432.60	4100.62
432.79	4086.58
432.97	4159.13
433.16	4152.11
433.35	4170.83
433.54	4152.11
433.72	4294.88
433.91	4278.50
434.10	4205.94
434.28	4278.50
434.47	4327.65
434.66	4411.91
434.85	4383.82
435.03	4418.93
435.22	4402.55
435.41	4582.77
435.59	4521.92
435.78	4636.60
435.97	4641.28
436.16	4550.00
436.34	4468.08
436.53	4608.51
436.72	4671.71
436.90	4526.60
437.09	4636.60
437.28	4528.94
437.46	4573.41
437.65	4580.43
437.84	4620.22
438.02	4697.46
438.21	4685.75
438.40	4606.17
438.58	4858.95
438.77	4922.15
438.96	4823.84
439.14	4983.00
439.33	5097.69
439.52	5076.62
439.70	4964.28
439.89	5123.43
440.08	5128.11
440.26	5123.43
440.45	5104.71
440.63	5233.44
440.82	5378.55
441.01	5212.37
441.19	5308.34
441.38	5507.28
441.57	5451.11
441.75	5533.03
441.94	5607.92
442.12	5547.07
442.31	5727.29
442.50	5699.20
442.68	5851.34
442.87	5706.23
443.05	5610.26
443.24	5757.72
443.43	5696.86
443.61	5863.04
443.80	5984.75
443.98	5659.42
444.17	5526.00
444.35	5846.66
444.54	5837.30
444.73	5926.24
444.91	5750.70
445.10	5937.94
445.28	5701.54
445.47	5675.80
445.65	6085.39
445.84	5839.64
446.02	6001.13
446.21	5921.56
446.39	5930.92
446.58	5970.71
446.77	5905.17
446.95	5767.08
447.14	5879.43
447.32	6029.22
447.51	6043.26
447.69	5951.98
447.88	5863.04
448.06	5902.83
448.25	6001.13
448.43	6167.31
448.62	6076.03
448.80	6080.71
448.99	6125.18
449.17	6111.14
449.36	6155.61
449.54	6148.59
449.73	6410.73
449.91	6174.33
450.10	6300.72
450.28	6480.94
450.46	6338.17
450.65	6431.79
450.83	6328.81
451.02	6317.11
451.20	6338.17
451.39	6525.41
451.57	6537.12
451.76	6384.98
451.94	6368.60
452.13	6619.04
452.31	6537.12
452.49	6410.73
452.68	6450.52
452.86	6354.55
453.05	6520.73
453.23	6693.93
453.42	6595.63
453.60	6511.37
453.78	6693.93
453.97	6527.75
454.15	6539.46
454.34	6544.14
454.52	6787.55
454.70	6619.04
454.89	6726.70
455.07	6661.16
455.26	6820.32
455.44	6895.22
455.62	6757.13
455.81	6902.24
455.99	7005.22
456.17	6995.86
456.36	6902.24
456.54	6825.00
456.73	7227.57
456.91	7239.28
457.09	7405.46
457.28	7234.60
457.46	7265.02
457.64	7304.81
457.83	7487.37
458.01	7218.21
458.19	7435.88
458.38	7213.53
458.56	7482.69
458.74	7419.50
458.93	7375.03
459.11	7442.90
459.29	7494.40
459.48	7389.07
459.66	7496.74
459.84	7618.44
460.03	7672.28
460.21	7803.35
460.39	7681.64
460.57	7726.11
460.76	7948.46
460.94	7700.36
461.12	7758.88
461.31	7873.56
461.49	7681.64
461.67	7829.09
461.85	8121.66
462.04	7887.61
462.22	8327.63
462.40	7981.23
462.59	7922.71
462.77	7925.05
462.95	7997.61
463.13	7901.65
463.32	8053.78
463.50	8205.92
463.68	8252.73
463.86	8161.45
464.05	7772.92
464.23	8095.91
464.41	8219.96
464.59	8070.17
464.78	8156.77
464.96	8184.85
465.14	8285.50
465.32	8395.50
465.50	8135.70
465.69	8299.54
465.87	8468.06
466.05	8430.61
466.23	8456.36
466.41	8369.76
466.60	8409.54
466.78	8411.89
466.96	8524.23
467.14	8369.76
467.32	8669.34
467.51	8650.62
467.69	8299.54
467.87	8470.40
468.05	8594.45
468.23	8454.02
468.41	8549.98
468.60	8404.86
468.78	8589.77
468.96	8496.14
469.14	8821.48
469.32	8769.99
469.50	8617.85
469.69	8753.60
469.87	8908.08
470.05	8791.05
470.23	8889.35
470.41	8896.38
470.59	9249.80
470.77	9104.68
470.95	9060.21
471.14	9083.62
471.32	9018.08
471.50	9043.83
471.68	9249.80
471.86	9350.44
472.04	9341.08
472.22	9607.90
472.40	9238.09
472.58	9518.96
472.77	9462.79
472.95	9469.81
473.13	9671.09
473.31	9504.92
473.49	9343.42
473.67	9528.32
473.85	9853.66
474.03	9966.00
474.21	9853.66
474.39	9685.14
474.57	9795.14
474.75	10122.82
474.93	10263.25
475.12	10204.74
475.30	10267.93
475.48	10122.82
475.66	10099.41
475.84	10485.60
476.02	10441.13
476.20	10349.85
476.38	10654.12
476.56	10560.50
476.74	10829.66
476.92	10633.05
477.10	10565.18
477.28	11176.06
477.46	10881.15
477.64	11164.36
477.82	11108.18
478.00	11405.43
478.18	11370.32
478.36	11339.90
478.54	11623.10
478.72	11351.60
478.90	11810.34
479.08	11831.41
479.26	11943.75
479.44	11796.30
479.62	11964.82
479.80	12039.72
479.98	12084.19
480.16	12297.17
480.34	12257.39
480.52	12369.73
480.70	12217.60
480.88	12372.07
481.06	12421.22
481.24	12594.42
481.41	12554.63
481.59	13156.15
481.77	13099.98
481.95	13109.34
482.13	13638.30
482.31	13191.26
482.49	13284.88
482.67	13483.83
482.85	13687.45
483.03	13603.19
483.21	13970.66
483.39	13923.85
483.57	14174.28
483.74	14300.67
483.92	14333.44
484.10	13996.40
484.28	14438.76
484.46	14766.44
484.64	14841.34
484.82	14853.04
485.00	14780.48
485.18	15157.31
485.35	14913.89
485.53	15051.99
485.71	15012.20
485.89	15077.73
486.07	15176.03
486.25	15733.08
486.43	15730.74
486.61	15906.28
486.78	16049.05
486.96	15770.53
487.14	16042.03
487.32	16531.20
487.50	16322.90
487.68	16669.30
487.85	16734.83
488.03	17137.40
488.21	16931.44
488.39	16774.62
488.57	17167.83
488.75	17291.88
488.92	17415.93
489.10	17715.51
489.28	17530.61
489.46	17982.34
489.64	17963.61
489.81	18291.29
489.99	18466.83
490.17	18675.13
490.35	18726.63
490.53	18665.77
490.70	18654.07
490.88	18801.52
491.06	19138.56
491.24	18916.21
491.41	19269.63
491.59	19145.58
491.77	19147.92
491.95	19557.52
492.13	19403.04
492.30	19655.82
492.48	19878.17
492.66	20095.84
492.84	19967.11
493.01	20297.13
493.19	19934.34
493.37	20793.32
493.54	20774.60
493.72	20727.78
493.90	20538.20
494.08	21146.74
494.25	21137.38
494.43	21261.43
494.61	21326.96
494.79	21261.43
494.96	21216.96
495.14	21418.24
495.32	21839.54
495.49	21830.18
495.67	22026.78
495.85	21944.86
496.02	22118.06
496.20	22302.96
496.38	22424.67
496.55	22108.70
496.73	23166.62
496.91	22616.60
497.09	22588.51
497.26	23058.96
497.44	22951.29
497.62	23131.51
497.79	23527.06
497.97	23257.90
498.14	23592.60
498.32	23679.20
498.50	23452.17
498.67	23805.59
498.85	23812.61
499.03	24049.00
499.20	24254.97
499.38	23861.76
499.56	24489.03
499.73	24694.99
499.91	24474.98
500.08	24620.10
500.26	24524.13
500.44	24655.20
500.61	24570.94
500.79	24886.92
500.97	24833.08
501.14	25113.95
501.32	25345.66
501.49	25490.77
501.67	24870.53
501.84	25376.09
502.02	25724.83
502.20	25617.16
502.37	25879.30
502.55	25905.05
502.72	25469.71
502.90	25755.26
503.07	25902.71
503.25	26080.59
503.43	25961.22
503.60	25912.07
503.78	26139.10
503.95	26436.35
504.13	26064.21
504.30	26366.13
504.48	26768.71
504.65	26469.12
504.83	26911.48
505.01	27023.83
505.18	26862.33
505.36	27016.80
505.53	27105.74
505.71	27587.89
505.88	27239.15
506.06	27386.61
506.23	27428.74
506.41	27257.88
506.58	27278.94
506.76	27489.59
506.93	27798.54
507.11	27733.01
507.28	27843.01
507.46	27845.35
507.63	27873.44
507.81	28191.75
507.98	28290.06
508.16	28423.47
508.33	28390.70
508.50	28386.02
508.68	28924.34
508.85	28968.81
509.03	28975.83
509.20	29127.97
509.38	28978.17
509.55	28851.78
509.73	28926.68
509.90	28835.40
510.08	29111.58
510.25	29118.60
510.42	29455.64
510.60	29219.25
510.77	29687.36
510.95	29462.66
511.12	29490.75
511.30	30080.56
511.47	30082.91
511.64	30094.61
511.82	30181.21
511.99	29979.92
512.17	30010.35
512.34	30230.36
512.51	30539.31
512.69	30778.04
512.86	30359.09
513.04	30513.56
513.21	30284.19
513.38	30562.72
513.56	30522.93
513.73	30609.53
513.90	30925.50
514.08	31005.08
514.25	31047.21
514.43	30979.33
514.60	30874.01
514.77	31005.08
514.95	31711.92
515.12	31124.44
515.29	30946.56
515.47	31311.69
515.64	32002.14
515.81	31908.52
515.99	31573.83
516.16	31721.28
516.33	31538.72
516.51	31683.83
516.68	31700.22
516.85	31335.09
517.03	31674.47
517.20	31857.03
517.37	31852.35
517.54	31718.94
517.72	32261.94
517.89	32456.21
518.06	31976.40
518.24	32299.39
518.41	32376.63
518.58	32240.88
518.75	32500.68
518.93	32671.54
519.10	32690.26
519.27	32851.76
519.45	32786.22
519.62	32982.83
519.79	33099.86
519.96	32788.56
520.14	33472.00
520.31	33298.80
520.48	33654.56
520.65	33207.52
520.83	33399.44
521.00	33809.04
521.17	33319.87
521.34	33659.24
521.52	33694.35
521.69	33895.64
521.86	34192.89
522.03	33947.13
522.20	34134.37
522.38	33993.94
522.55	34485.45
522.72	33813.72
522.89	34000.96
523.07	34256.08
523.24	34429.28
523.41	34852.92
523.58	34384.81
523.75	35103.35
523.92	34628.23
524.10	34955.90
524.27	34705.46
524.44	35292.94
524.61	34843.56
524.78	35019.10
524.96	35220.38
525.13	35683.81
525.30	35793.81
525.47	35695.51
525.64	35557.42
525.81	35480.18
525.98	35524.65
526.16	35412.31
526.33	35138.46
526.50	35456.78
526.67	35534.01
526.84	35901.48
527.01	35372.52
527.18	35777.43
527.36	35534.01
527.53	35838.28
527.70	36542.78
527.87	36315.75
528.04	36126.17
528.21	36348.52
528.38	36037.23
528.55	36580.23
528.72	36477.25
528.89	36746.41
529.07	36142.55
529.24	36577.89
529.41	36453.84
529.58	36547.47
529.75	36470.23
529.92	37223.88
530.09	36865.78
530.26	36842.37
530.43	36797.90
530.60	36404.69
530.77	37390.06
530.94	36893.86
531.11	37153.66
531.28	36919.61
531.46	37301.12
531.63	37010.89
531.80	37556.24
531.97	37361.97
532.14	37319.84
532.31	37537.51
532.48	37479.00
532.65	37689.65
532.82	37441.55
532.99	37242.60
533.16	37244.94
533.33	37361.97
533.50	37610.07
533.67	37626.45
533.84	37509.43
534.01	37731.78
534.18	37912.00
534.35	38330.95
534.52	38321.59
534.69	38136.69
534.86	37970.51
535.03	37991.58
535.20	38010.30
535.37	38625.86
535.54	38785.02
535.71	37940.08
535.88	38525.22
536.05	38272.44
536.22	38656.29
536.38	38230.31
536.55	38689.06
536.72	38642.24
536.89	38270.10
537.06	38616.50
537.23	38710.12
537.40	38749.91
537.57	39044.82
537.74	38911.41
537.91	39180.57
538.08	39227.38
538.25	38520.54
538.42	38848.21
538.59	39332.70
538.75	38857.57
538.92	39278.87
539.09	39168.87
539.26	39119.71
539.43	39302.28
539.60	39072.90
539.77	39463.77
539.94	39309.30
540.11	39257.81
540.28	39414.62
540.44	39196.95
540.61	39381.85
540.78	39356.11
540.95	39622.93
541.12	39566.76
541.29	39501.22
541.46	39515.26
541.62	39873.37
541.79	40079.33
541.96	39482.50
542.13	39625.27
542.30	39934.22
542.47	40126.14
542.63	39629.95
542.80	40006.78
542.97	39997.41
543.14	40201.04
543.31	40374.24
543.48	40423.39
543.64	40950.01
543.81	40769.79
543.98	40898.52
544.15	40339.13
544.32	40786.18
544.48	41006.19
544.65	40395.31
544.82	40739.36
544.99	40629.36
545.16	40517.01
545.32	40851.71
545.49	41146.62
545.66	41130.23
545.83	40687.87
546.00	41528.13
546.16	40940.65
546.33	40994.48
546.50	40776.81
546.67	40989.80
546.83	40849.37
547.00	40531.06
547.17	41420.46
547.34	41090.44
547.50	41413.44
547.67	41944.74
547.84	41500.04
548.00	41574.94
548.17	41471.95
548.34	41696.64
548.51	41436.84
548.67	41846.44
548.84	41694.30
549.01	42101.56
549.18	41720.05
549.34	41776.22
549.51	42024.32
549.68	42164.75
549.84	41797.29
550.01	42225.60
550.18	41448.55
550.34	42103.90
550.51	42213.90
550.68	42190.50
550.84	41684.94
551.01	42590.73
551.18	41874.52
551.34	42103.90
551.51	42183.48
551.68	42183.48
551.84	42464.34
552.01	42148.37
552.18	42038.36
552.34	42040.70
552.51	42454.98
552.68	42178.79
552.84	42775.63
553.01	42745.20
553.18	42454.98
553.34	42342.63
553.51	42007.94
553.67	42562.64
553.84	42707.76
554.01	42740.52
554.17	42600.09
554.34	43033.09
554.51	42972.24
554.67	42948.83
554.84	42925.42
555.00	42548.60
555.17	42731.16
555.33	43122.03
555.50	42672.65
555.67	42855.21
555.83	42700.73
556.00	42885.64
556.16	43217.99
556.33	42773.29
556.50	43019.05
556.66	43072.88
556.83	43028.41
556.99	42920.74
557.16	43271.82
557.32	43089.26
557.49	43107.99
557.65	42913.72
557.82	43257.78
557.98	42829.46
558.15	43107.99
558.32	43491.83
558.48	43407.58
558.65	43320.98
558.81	43075.22
558.98	43480.13
559.14	43271.82
559.31	43330.34
559.47	43115.01
559.64	43555.03
559.80	43164.16
559.97	43753.97
560.13	43489.49
560.30	43608.86
560.46	43587.80
560.63	43688.44
560.79	43440.34
560.96	43810.15
561.12	43592.48
561.29	43730.57
561.45	43922.49
561.61	43714.19
561.78	43622.90
561.94	43707.16
562.11	43229.69
562.27	43440.34
562.44	43255.44
562.60	43798.44
562.77	43679.08
562.93	43615.88
563.10	44058.24
563.26	43962.28
563.42	44194.00
563.59	44048.88
563.75	43604.18
563.92	44037.18
564.08	44123.78
564.24	44224.42
564.41	43913.13
564.57	43629.93
564.74	43824.19
564.90	44194.00
565.07	44142.50
565.23	43739.93
565.39	44212.72
565.56	43889.73
565.72	43924.83
565.88	44062.93
566.05	44362.51
566.21	43903.77
566.38	43985.69
566.54	44212.72
566.70	44561.46
566.87	44467.84
567.03	44250.17
567.19	44034.84
567.36	44201.02
567.52	44069.95
567.68	44025.48
567.85	44381.24
568.01	44399.96
568.17	44006.75
568.34	44325.07
568.50	44053.56
568.66	44397.62
568.83	44259.53
568.99	43828.87
569.15	44154.21
569.32	44900.84
569.48	44243.15
569.64	44573.16
569.81	44271.23
569.97	44285.28
570.13	44313.36
570.30	44163.57
570.46	44208.04
570.62	44332.09
570.78	44098.03
570.95	43873.34
571.11	44217.40
571.27	43983.35
571.43	44154.21
571.60	43875.68
571.76	44495.92
571.92	44779.13
572.09	44296.98
572.25	44198.68
572.41	43861.64
572.57	44201.02
572.74	45191.06
572.90	44528.69
573.06	44432.73
573.22	44435.07
573.38	44381.24
573.55	44219.74
573.71	44790.83
573.87	44336.77
574.03	44582.52
574.20	44329.75
574.36	44334.43
574.52	44318.04
574.68	44636.36
574.84	44926.58
575.01	44652.74
575.17	44198.68
575.33	44495.92
575.49	44161.23
575.65	44488.90
575.82	44416.35
575.98	44304.00
576.14	44734.66
576.30	44416.35
576.46	44608.27
576.62	44006.75
576.79	43756.32
576.95	44133.14
577.11	44442.09
577.27	44444.43
577.43	44898.50
577.59	44406.98
577.75	44399.96
577.92	43927.17
578.08	44165.91
578.24	43962.28
578.40	44488.90
578.56	44687.85
578.72	44849.35
578.88	45170.00
579.04	45024.89
579.21	44158.89
579.37	44275.91
579.53	44528.69
579.69	44418.69
579.85	44374.22
580.01	44505.29
580.17	44856.37
580.33	44753.38
580.49	44964.03
580.65	44854.03
580.82	44821.26
580.98	44744.02
581.14	44545.08
581.30	44879.77
581.46	45052.97
581.62	44636.36
581.78	44385.92
581.94	45244.90
582.10	44910.20
582.26	45006.16
582.42	44629.34
582.58	45354.90
582.74	44945.31
582.90	44683.17
583.06	44753.38
583.22	44406.98
583.38	44804.88
583.54	45029.57
583.70	44746.36
583.86	44570.82
584.02	44622.31
584.18	44589.55
584.34	44662.10
584.50	44435.07
584.66	44701.89
584.82	44598.91
584.98	44751.04
585.14	44690.19
585.30	45048.29
585.46	44561.46
585.62	44657.42
585.78	45198.09
585.94	44135.48
586.10	44418.69
586.26	44196.34
586.42	44737.00
586.58	44886.79
586.74	44886.79
586.90	44669.12
587.06	44685.51
587.22	44725.30
587.38	44481.88
587.54	44830.62
587.70	45151.27
587.86	44540.39
588.02	44989.78
588.18	44839.98
588.34	44865.73
588.49	44615.29
588.65	44781.47
588.81	44189.31
588.97	44657.42
589.13	44460.82
589.29	45050.63
589.45	44938.29
589.61	44882.11
589.77	44584.86
589.93	44905.52
590.08	44884.45
590.24	45102.12
590.40	45071.70
590.56	44744.02
590.72	44949.99
590.88	44968.71
591.04	44802.53
591.20	45050.63
591.35	44767.43
591.51	45848.75
591.67	44589.55
591.83	45081.06
591.99	44914.88
592.15	44603.59
592.31	45174.68
592.46	44626.99
592.62	44847.00
592.78	45382.99
592.94	44811.90
593.10	45179.36
593.26	45212.13
593.41	45251.92
593.57	45287.03
593.73	44800.19
593.89	44889.13
594.05	44973.39
594.20	45064.67
594.36	45340.86
594.52	44935.95
594.68	44964.03
594.84	45184.04
594.99	45476.61
595.15	44839.98
595.31	45310.43
595.47	45429.80
595.62	45006.16
595.78	44776.79
595.94	45277.66
596.10	45258.94
596.25	45219.15
596.41	44636.36
596.57	45177.02
596.73	45090.42
596.88	44823.60
597.04	45270.64
597.20	45137.23
597.36	45062.33
597.51	45404.05
597.67	45102.12
597.83	45375.97
597.99	45415.76
598.14	45261.28
598.30	45333.84
598.46	44992.12
598.61	45240.21
598.77	45263.62
598.93	45148.93
599.09	45139.57
599.24	45813.65
599.40	45558.53
599.56	45492.99
599.71	44893.82
599.87	45656.83
600.03	44926.58
600.18	45083.40
600.34	44907.86
600.50	45336.18
600.65	45235.53
600.81	45195.74
600.97	45521.08
601.12	45645.13
601.28	45214.47
601.44	45027.23
601.59	45380.65
601.75	44847.00
601.91	45198.09
602.06	44767.43
602.22	45139.57
602.37	45151.27
602.53	45045.95
602.69	45603.00
602.84	45308.09
603.00	45261.28
603.16	45179.36
603.31	44978.07
603.47	44727.64
603.62	45382.99
603.78	44924.24
603.94	45221.49
604.09	45076.38
604.25	44994.46
604.40	45315.11
604.56	45097.44
604.71	45125.53
604.87	44538.05
605.03	44760.40
605.18	44802.53
605.34	45191.06
605.49	44985.10
605.65	45097.44
605.80	45280.00
605.96	45397.03
606.12	45160.64
606.27	45284.68
606.43	44758.06
606.58	44945.31
606.74	44470.18
606.89	45081.06
607.05	45310.43
607.20	45167.66
607.36	44786.15
607.51	45607.68
607.67	45277.66
607.82	44964.03
607.98	45137.23
608.13	44947.65
608.29	45109.14
608.44	44196.34
608.60	44634.02
608.75	44030.16
608.91	44374.22
609.06	45003.82
609.22	45003.82
609.37	44636.36
609.53	44802.53
609.68	44996.80
609.84	44477.20
609.99	45038.93
610.15	44807.22
610.30	44732.32
610.46	44402.30
610.61	44676.15
610.76	44687.85
610.92	44685.51
611.07	44336.77
611.23	44383.58
611.38	44282.94
611.54	44264.21
611.69	44376.56
611.84	44378.90
612.00	44224.42
612.15	44325.07
612.31	44844.66
612.46	44348.47
612.62	44818.92
612.77	44257.19
612.92	44816.58
613.08	44301.66
613.23	44521.67
613.39	44170.59
613.54	43917.81
613.69	44179.95
613.85	44619.97
614.00	44357.83
614.15	44772.11
614.31	44357.83
614.46	44378.90
614.62	43882.70
614.77	44456.14
614.92	44385.92
615.08	43997.39
615.23	44105.06
615.38	43789.08
615.54	43686.10
615.69	43934.20
615.84	43672.06
616.00	44186.97
616.15	44076.97
616.30	44306.34
616.46	43966.96
616.61	43770.36
616.76	43929.51
616.92	43562.05
617.07	43693.12
617.22	43550.35
617.37	42855.21
617.53	43690.78
617.68	43576.09
617.83	44191.65
617.99	43983.35
618.14	43718.87
618.29	43763.34
618.45	43454.39
618.60	43707.16
618.75	43236.72
618.90	43578.43
619.06	43959.94
619.21	44037.18
619.36	43812.49
619.51	43442.68
619.67	43580.78
619.82	43798.44
619.97	43639.29
620.12	43590.14
620.28	42834.14
620.43	43641.63
620.58	43100.97
620.73	43260.12
620.89	42869.25
621.04	43351.40
621.19	43629.93
621.34	43283.53
621.49	42923.08
621.65	42988.62
621.80	43590.14
621.95	42965.21
622.10	43342.04
622.25	42429.23
622.41	43065.86
622.56	42555.62
622.71	43014.37
622.86	43035.43
623.01	42567.32
623.16	43232.04
623.32	42990.96
623.47	43313.95
623.62	42979.26
623.77	42726.48
623.92	42588.39
624.07	42843.51
624.23	42354.33
624.38	42525.19
624.53	42572.00
624.68	42988.62
624.83	42710.10
624.98	43065.86
625.13	42527.53
625.29	42705.41
625.44	42288.80
625.59	42202.20
625.74	42183.48
625.89	41546.85
626.04	42014.96
626.19	42106.24
626.34	42710.10
626.49	42141.35
626.65	42464.34
626.80	42494.77
626.95	41537.49
627.10	42216.24
627.25	42007.94
627.40	41481.31
627.55	41904.95
627.70	41324.50
627.85	41928.36
628.00	42087.51
628.15	42337.95
628.30	41930.70
628.45	42265.39
628.60	41511.74
628.76	41586.64
628.91	41766.86
629.06	41879.21
629.21	41724.73
629.36	41556.21
629.51	41144.28
629.66	41811.33
629.81	41752.82
629.96	41532.81
630.11	42010.28
630.26	41869.84
630.41	41773.88
630.56	41432.16
630.71	41785.58
630.86	41670.90
631.01	41584.30
631.16	41500.04
631.31	41443.87
631.46	40942.99
631.61	41432.16
631.76	41134.92
631.91	41390.03
632.06	41289.39
632.21	41471.95
632.36	41605.36
632.51	41099.81
632.66	41656.85
632.81	41177.04
632.96	40992.14
633.10	41120.87
633.25	40835.33
633.40	41088.10
633.55	40928.95
633.70	41354.93
633.85	40767.45
634.00	40875.12
634.15	41071.72
634.30	40917.25
634.45	40744.05
634.60	40861.07
634.75	40746.39
634.90	40486.59
635.05	40680.85
635.19	40882.14
635.34	41027.25
635.49	40507.65
635.64	40287.64
635.79	40847.03
635.94	40364.88
636.09	40868.09
636.24	40601.27
636.39	40484.25
636.53	40594.25
636.68	39950.60
636.83	40289.98
636.98	40542.76
637.13	40320.41
637.28	40563.82
637.43	40664.47
637.57	40737.02
637.72	40542.76
637.87	40505.31
638.02	40212.74
638.17	40313.39
638.32	40243.17
638.46	39966.99
638.61	39810.17
638.76	40069.97
638.91	40030.18
639.06	40168.27
639.20	40367.22
639.35	40594.25
639.50	40170.61
639.65	40397.65
639.80	39866.34
639.94	40182.32
640.09	39861.66
640.24	39653.36
640.39	39599.52
640.54	39812.51
640.68	39861.66
640.83	40257.21
640.98	40088.70
641.13	39243.76
641.27	40184.66
641.42	39721.23
641.57	39901.45
641.72	39351.43
641.86	39573.78
642.01	39849.96
642.16	39405.26
642.31	39505.90
642.45	39559.73
642.60	38944.17
642.75	39482.50
642.90	39122.05
643.04	39302.28
643.19	39306.96
643.34	39482.50
643.48	39344.41
643.63	39419.30
643.78	39206.31
643.93	39152.48
644.07	39187.59
644.22	39016.73
644.37	38979.28
644.51	39253.12
644.66	39157.16
644.81	39096.31
644.95	39173.55
645.10	39695.49
645.25	39363.13
645.39	39321.00
645.54	38855.23
645.69	39122.05
645.83	38815.44
645.98	38986.30
646.13	39047.16
646.27	39026.09
646.42	38974.60
646.57	39023.75
646.71	38815.44
646.86	39063.54
647.00	38831.83
647.15	38813.10
647.30	39311.64
647.44	38630.54
647.59	38785.02
647.74	38387.13
647.88	38866.94
648.03	38204.56
648.17	38384.79
648.32	38637.56
648.47	38693.74
648.61	38220.95
648.76	38569.69
648.90	38604.80
649.05	38375.42
649.20	38499.47
649.34	38677.35
649.49	38553.30
649.63	38410.53
649.78	38534.58
649.92	38354.36
650.07	38569.69
650.21	38108.60
650.36	37862.85
650.51	38202.22
650.65	38703.10
650.80	38815.44
650.94	38639.90
651.09	38663.31
651.23	37633.47
651.38	38302.87
651.52	38087.54
651.67	38139.03
651.81	38195.20
651.96	37357.29
652.10	37783.27
652.25	37947.11
652.39	37394.74
652.54	37954.13
652.68	38330.95
652.83	38000.94
652.97	38174.14
653.12	38117.96
653.26	38188.18
653.41	37851.14
653.55	37977.53
653.70	37399.42
653.84	37862.85
653.99	37907.32
654.13	37652.20
654.27	37713.05
654.42	37429.85
654.56	37474.32
654.71	38129.67
654.85	37287.07
655.00	37294.10
655.14	37610.07
655.29	36889.18
655.43	37055.36
655.57	36584.91
655.72	37249.63
655.86	37067.06
656.01	37109.19
656.15	37310.48
656.30	36767.48
656.44	36790.88
656.58	36868.12
656.73	37254.31
656.87	36800.24
657.01	36861.10
657.16	36634.06
657.30	37038.98
657.45	36697.26
657.59	36861.10
657.73	36858.76
657.88	36734.71
658.02	36748.75
658.16	36711.30
658.31	37095.15
658.45	36935.99
658.60	36727.69
658.74	37106.85
658.88	36753.43
659.03	36554.49
659.17	36144.89
659.31	36292.35
659.46	36060.63
659.60	36374.27
659.74	36671.51
659.89	35974.03
660.03	36222.13
660.17	36577.89
660.32	36397.67
660.46	36304.05
660.60	35997.44
660.74	36205.75
660.89	36084.04
661.03	35995.10
661.17	35786.79
661.32	35758.70
661.46	35440.39
661.60	35721.26
661.74	35409.96
661.89	36044.25
662.03	35803.17
662.17	35613.59
662.31	35714.23
662.46	35625.29
662.60	35576.14
662.74	35732.96
662.88	35550.40
663.03	35138.46
663.17	35089.31
663.31	35047.18
663.45	34979.31
663.60	35054.20
663.74	34944.20
663.88	34871.64
664.02	34717.17
664.17	35145.48
664.31	34906.75
664.45	34677.38
664.59	35168.89
664.73	34817.81
664.88	34775.68
665.02	34536.94
665.16	34464.39
665.30	34653.97
665.44	34302.89
665.59	34071.18
665.73	34455.03
665.87	34658.65
666.01	33919.04
666.15	34368.43
666.29	34167.14
666.44	34532.26
666.58	34471.41
666.72	34361.40
666.86	34190.55
667.00	34057.14
667.14	33909.68
667.28	34026.71
667.43	33776.27
667.57	33811.38
667.71	33907.34
667.85	33439.23
667.99	33841.81
668.13	33319.87
668.27	33399.44
668.41	33722.44
668.56	33275.40
668.70	33649.88
668.84	33429.87
668.98	33289.44
669.12	33247.31
669.26	33289.44
669.40	32957.08
669.54	32563.87
669.68	33268.37
669.82	33181.77
669.96	32545.15
670.10	32793.25
670.25	32528.77
670.39	33221.56
670.53	32154.28
670.67	32271.31
670.81	32989.85
670.95	32636.43
671.09	32545.15
671.23	32662.18
671.37	32648.13
671.51	32493.66
671.65	32542.81
671.79	32095.77
671.93	31924.91
672.07	32290.03
672.21	32243.22
672.35	31960.02
672.49	31899.16
672.63	31634.68
672.77	31655.75
672.91	31587.87
673.05	31557.44
673.19	31761.07
673.33	31803.20
673.47	31620.64
673.61	31173.60
673.75	31056.57
673.89	31040.18
674.03	30906.77
674.17	31311.69
674.31	31180.62
674.45	30885.71
674.59	30916.14
674.73	31122.10
674.87	30595.48
675.01	30888.05
675.15	30955.93
675.29	30553.35
675.43	30766.34
675.56	30771.02
675.70	30520.59
675.84	30087.59
675.98	29493.09
676.12	30326.32
676.26	29986.94
676.40	29556.28
676.54	30043.12
676.68	29469.69
676.82	29032.00
676.96	29514.16
677.10	29099.88
677.23	29303.51
677.37	29443.94
677.51	29303.51
677.65	29352.66
677.79	28964.13
677.93	28725.39
678.07	29029.66
678.21	28563.90
678.34	28797.95
678.48	28332.18
678.62	28533.47
678.76	28290.06
678.90	27915.57
679.04	28325.16
679.18	28318.14
679.31	27859.40
679.45	28201.11
679.59	27623.00
679.73	27777.48
679.87	27819.61
680.00	27613.64
680.14	27676.83
680.28	27358.52
680.42	27115.11
680.56	27571.51
680.70	27501.29
680.83	27173.62
680.97	26993.40
681.11	27302.35
681.25	26937.23
681.39	26796.79
681.52	27094.04
681.66	26916.16
681.80	27257.88
681.94	26834.24
682.07	26759.34
682.21	26506.57
682.35	26569.76
682.49	26232.72
682.62	26560.40
682.76	25752.91
682.90	26015.05
683.04	26150.81
683.17	26001.01
683.31	25434.60
683.45	25970.58
683.59	25200.55
683.72	25219.27
683.86	25296.51
684.00	25254.38
684.13	25301.19
684.27	25050.75
684.41	25095.22
684.55	24957.13
684.68	24985.22
684.82	24645.84
684.96	24659.88
685.09	24622.44
685.23	24744.14
685.37	24657.54
685.50	24629.46
685.64	24690.31
685.78	24442.21
685.91	24608.39
686.05	23927.30
686.19	23747.08
686.32	24105.18
686.46	23742.39
686.60	23981.13
686.73	23672.18
686.87	23515.36
687.01	23276.63
687.14	23201.73
687.28	22965.34
687.42	23007.47
687.55	23372.59
687.69	23030.87
687.82	22998.10
687.96	22892.78
688.10	22590.85
688.23	22677.45
688.37	22544.04
688.50	22490.21
688.64	22225.73
688.78	22333.39
688.91	22164.87
689.05	21919.12
689.18	21745.92
689.32	21769.32
689.46	21907.41
689.59	22258.49
689.73	22015.08
689.86	21603.14
690.00	21706.13
690.13	21549.31
690.27	21453.35
690.41	21647.61
690.54	21193.55
690.68	21397.18
690.81	21202.91
690.95	21062.48
691.08	21062.48
691.22	20676.29
691.35	20978.22
691.49	21001.63
691.62	21050.78
691.76	21179.51
691.89	20669.27
692.03	20329.89
692.16	20231.59
692.30	20512.46
692.43	20563.95
692.57	20072.43
692.70	20100.52
692.84	20070.09
692.97	19754.12
693.11	19529.43
693.24	19704.97
693.38	19726.04
693.51	19529.43
693.65	19548.15
693.78	19541.13
693.92	19222.82
694.05	19276.65
694.19	19094.09
694.32	19042.60
694.45	19232.18
694.59	18878.76
694.72	18848.33
694.86	18759.39
694.99	18417.68
695.13	18361.50
695.26	18427.04
695.39	18410.65
695.53	18607.26
695.66	18370.86
695.80	18286.61
695.93	18143.83
696.07	18192.98
696.20	18202.35
696.33	18146.17
696.47	17963.61
696.60	17736.58
696.73	17659.34
696.87	17451.03
697.00	17628.92
697.14	17539.97
697.27	17532.95
697.40	17310.60
697.54	17341.03
697.67	17415.93
697.80	17343.37
697.94	17195.92
698.07	17266.13
698.21	17025.06
698.34	17114.00
698.47	17142.08
698.61	16662.27
698.74	16538.23
698.87	16566.31
699.01	16437.58
699.14	16444.60
699.27	16252.68
699.40	16439.92
699.54	16311.19
699.67	16004.58
699.80	16173.10
699.94	16084.16
700.07	15948.41
700.20	16016.29
700.34	15768.19
700.47	15971.82
700.60	15768.19
700.73	15929.69
700.87	15702.65
701.00	15566.90
701.13	15365.62
701.26	15222.84
701.40	15594.99
701.53	15131.56
701.66	15391.36
701.79	15161.99
701.93	15061.35
702.06	14850.70
702.19	14817.93
702.32	15021.56
702.46	14583.88
702.59	14773.46
702.72	14654.09
702.85	14759.42
702.99	14651.75
703.12	14586.22
703.25	14537.07
703.38	14352.16
703.51	14387.27
703.65	14382.59
703.78	14506.64
703.91	13968.32
704.04	14188.33
704.17	13905.12
704.31	14033.85
704.44	13776.39
704.57	13848.95
704.70	13657.03
704.83	13451.06
704.96	13631.28
705.10	13479.15
705.23	13722.56
>>>>>End Processed Spectral Data<<<<<
