SpectraSuite Data File
++++++++++++++++++++++++++++++++++++
Date: Fri Oct 25 11:34:14 EDT 2013
User: price-jones
Dark Spectrum Present: No
Reference Spectrum Present: No
Number of Sampled Component Spectra: 1
Spectrometers: USB2+H05261
Integration Time (usec): 100000 (USB2+H05261)
Spectra Averaged: 1 (USB2+H05261)
Boxcar Smoothing: 0 (USB2+H05261)
Correct for Electrical Dark: No (USB2+H05261)
Strobe/Lamp Enabled: No (USB2+H05261)
Correct for Detector Non-linearity: No (USB2+H05261)
Correct for Stray Light: No (USB2+H05261)
Number of Pixels in Processed Spectrum: 2048
>>>>>Begin Processed Spectral Data<<<<<
365.73	283.20
365.92	283.20
366.12	283.20
366.32	191.92
366.52	170.86
366.72	201.29
366.91	184.90
367.11	131.07
367.31	110.01
367.51	121.71
367.70	234.05
367.90	201.29
368.10	170.86
368.30	140.43
368.49	177.88
368.69	161.50
368.89	138.09
369.09	159.16
369.28	177.88
369.48	196.60
369.68	215.33
369.87	255.12
370.07	161.50
370.27	222.35
370.47	280.86
370.66	505.56
370.86	528.96
371.06	489.17
371.25	566.41
371.45	550.03
371.65	540.66
371.84	538.32
372.04	561.73
372.24	587.47
372.44	552.37
372.63	592.16
372.83	636.63
373.03	568.75
373.22	571.09
373.42	589.82
373.62	620.24
373.81	603.86
374.01	669.39
374.21	596.84
374.40	641.31
374.60	683.44
374.79	592.16
374.99	601.52
375.19	653.01
375.38	709.18
375.58	664.71
375.78	763.01
375.97	669.39
376.17	718.54
376.37	638.97
376.56	629.60
376.76	706.84
376.95	709.18
377.15	643.65
377.35	737.27
377.54	662.37
377.74	678.76
377.93	716.20
378.13	695.14
378.33	755.99
378.52	786.42
378.72	777.06
378.91	713.86
379.11	760.67
379.31	772.38
379.50	741.95
379.70	772.38
379.89	699.82
380.09	730.25
380.28	727.91
380.48	755.99
380.68	781.74
380.87	774.72
381.07	716.20
381.26	805.14
381.46	741.95
381.65	798.12
381.85	699.82
382.04	734.93
382.24	774.72
382.43	737.27
382.63	819.19
382.83	765.36
383.02	821.53
383.22	866.00
383.41	833.23
383.61	800.46
383.80	821.53
384.00	805.14
384.19	812.17
384.39	795.78
384.58	819.19
384.78	774.72
384.97	856.64
385.17	821.53
385.36	809.83
385.56	772.38
385.75	791.10
385.95	861.32
386.14	882.38
386.34	915.15
386.53	854.30
386.72	873.02
386.92	940.90
387.11	856.64
387.31	842.59
387.50	873.02
387.70	912.81
387.89	910.47
388.09	936.21
388.28	940.90
388.48	849.61
388.67	950.26
388.86	919.83
389.06	922.17
389.25	968.98
389.45	896.43
389.64	931.53
389.84	940.90
390.03	1032.18
390.22	971.32
390.42	826.21
390.61	917.49
390.81	966.64
391.00	929.19
391.19	952.60
391.39	905.79
391.58	957.28
391.78	1039.20
391.97	1020.47
392.16	1022.81
392.36	1064.94
392.55	966.64
392.75	1041.54
392.94	1071.97
393.13	1064.94
393.33	1055.58
393.52	1104.73
393.71	1022.81
393.91	1032.18
394.10	1107.07
394.29	1041.54
394.49	1076.65
394.68	1055.58
394.88	1055.58
395.07	1132.82
395.26	1090.69
395.46	1135.16
395.65	1144.52
395.84	1156.22
396.04	1256.87
396.23	1170.27
396.42	1219.42
396.62	1172.61
396.81	1235.80
397.00	1181.97
397.19	1233.46
397.39	1254.53
397.58	1235.80
397.77	1228.78
397.97	1224.10
398.16	1256.87
398.35	1224.10
398.55	1247.51
398.74	1146.86
398.93	1310.70
399.12	1242.82
399.32	1291.98
399.51	1308.36
399.70	1331.76
399.90	1399.64
400.09	1306.02
400.28	1308.36
400.47	1373.89
400.67	1441.77
400.86	1394.96
401.05	1411.34
401.24	1357.51
401.44	1401.98
401.63	1390.28
401.82	1432.41
402.01	1352.83
402.21	1451.13
402.40	1488.58
402.59	1575.18
402.78	1458.15
402.97	1528.37
403.17	1556.46
403.36	1537.73
403.55	1488.58
403.74	1544.75
403.93	1568.16
404.13	1558.80
404.32	1589.22
404.51	1530.71
404.70	1657.10
404.89	1500.28
405.09	1692.21
405.28	1650.08
405.47	1614.97
405.66	1675.82
405.85	1701.57
406.05	1710.93
406.24	1762.42
406.43	1624.33
406.62	1694.55
406.81	1785.83
407.00	1739.02
407.20	1657.10
407.39	1823.28
407.58	1762.42
407.77	1870.09
407.96	1834.98
408.15	1778.81
408.34	1823.28
408.54	1914.56
408.73	1818.60
408.92	1842.00
409.11	1867.75
409.30	1907.54
409.49	1799.87
409.68	2022.22
409.87	1926.26
410.07	1963.71
410.26	1994.14
410.45	2017.54
410.64	2045.63
410.83	2045.63
411.02	2104.14
411.21	2122.87
411.40	2120.53
411.59	2136.91
411.78	2047.97
411.98	2134.57
412.17	2214.15
412.36	2190.74
412.55	2258.62
412.74	2296.07
412.93	2305.43
413.12	2305.43
413.31	2328.83
413.50	2328.83
413.69	2284.36
413.88	2406.07
414.07	2349.90
414.26	2530.12
414.45	2389.69
414.64	2487.99
414.83	2495.01
415.02	2471.61
415.22	2614.38
415.41	2633.10
415.60	2532.46
415.79	2602.68
415.98	2686.94
416.17	2623.74
416.36	2708.00
416.55	2757.15
416.74	2715.02
416.93	2691.62
417.12	2722.04
417.31	2864.82
417.50	2785.24
417.69	2850.77
417.88	2899.92
418.07	2841.41
418.26	2911.63
418.45	2909.29
418.64	3075.46
418.83	2995.89
419.02	3122.27
419.21	3110.57
419.39	3063.76
419.58	2972.48
419.77	3049.72
419.96	3112.91
420.15	3089.51
420.34	3103.55
420.53	3131.64
420.72	3222.92
420.91	3080.14
421.10	3091.85
421.29	3190.15
421.48	3150.36
421.67	3206.53
421.86	3288.45
422.05	3262.71
422.24	3164.40
422.43	3276.75
422.61	3255.69
422.80	3258.03
422.99	3208.87
423.18	3405.48
423.37	3288.45
423.56	3279.09
423.75	3220.58
423.94	3279.09
424.13	3145.68
424.32	3138.66
424.50	3396.12
424.69	3363.35
424.88	3445.27
425.07	3337.60
425.26	3211.22
425.45	3400.80
425.64	3363.35
425.83	3368.03
426.01	3478.04
426.20	3375.05
426.39	3468.67
426.58	3393.78
426.77	3454.63
426.96	3555.27
427.15	3391.44
427.33	3499.10
427.52	3358.67
427.71	3583.36
427.90	3611.45
428.09	3571.66
428.28	3552.93
428.46	3669.96
428.65	3543.57
428.84	3786.99
429.03	3805.71
429.22	3674.64
429.40	3543.57
429.59	3599.74
429.78	3655.92
429.97	3435.91
430.16	3651.24
430.34	3765.92
430.53	3859.54
430.72	3712.09
430.91	3686.34
431.10	3655.92
431.28	3925.08
431.47	3894.65
431.66	3967.21
431.85	3932.10
432.03	3948.48
432.22	4063.17
432.41	3887.63
432.60	3936.78
432.79	3906.35
432.97	4023.38
433.16	4002.32
433.35	4065.51
433.54	4030.40
433.72	4131.05
433.91	4152.11
434.10	4037.42
434.28	4032.74
434.47	4152.11
434.66	4170.83
434.85	4292.54
435.03	4231.69
435.22	4322.97
435.41	4348.72
435.59	4313.61
435.78	4269.14
435.97	4477.44
436.16	4451.70
436.34	4404.89
436.53	4334.67
436.72	4329.99
436.90	4182.54
437.09	4493.83
437.28	4409.57
437.46	4360.42
437.65	4454.04
437.84	4397.87
438.02	4461.06
438.21	4454.04
438.40	4437.66
438.58	4652.98
438.77	4695.11
438.96	4695.11
439.14	4674.05
439.33	4753.63
439.52	4779.37
439.70	4727.88
439.89	4847.25
440.08	4863.63
440.26	4816.82
440.45	4765.33
440.63	5041.51
440.82	5125.77
441.01	5041.51
441.19	5074.28
441.38	5057.90
441.57	4975.98
441.75	5205.35
441.94	5277.91
442.12	5181.95
442.31	5263.86
442.50	5275.57
442.68	5352.81
442.87	5413.66
443.05	5399.62
443.24	5474.51
443.43	5345.78
443.61	5387.91
443.80	5551.75
443.98	5336.42
444.17	5149.18
444.35	5500.26
444.54	5563.45
444.73	5488.56
444.91	5411.32
445.10	5394.93
445.28	5530.69
445.47	5650.05
445.65	5715.59
445.84	5577.50
446.02	5633.67
446.21	5664.10
446.39	5596.22
446.58	5575.16
446.77	5678.14
446.95	5516.64
447.14	5551.75
447.32	5654.73
447.51	5462.81
447.69	5528.35
447.88	5514.30
448.06	5654.73
448.25	5757.72
448.43	5678.14
448.62	5743.67
448.80	5617.29
448.99	5860.70
449.17	5827.93
449.36	5617.29
449.54	5781.12
449.73	5879.43
449.91	5937.94
450.10	5867.72
450.28	5954.32
450.46	5867.72
450.65	5893.47
450.83	6061.99
451.02	5930.92
451.20	5989.43
451.39	5991.77
451.57	5816.23
451.76	5846.66
451.94	5905.17
452.13	6080.71
452.31	6019.86
452.49	6054.97
452.68	6061.99
452.86	6244.55
453.05	6164.97
453.23	6171.99
453.42	6167.31
453.60	6148.59
453.78	6324.13
453.97	6298.38
454.15	6298.38
454.34	6120.50
454.52	6359.24
454.70	6349.87
454.89	6373.28
455.07	6389.66
455.26	6443.49
455.44	6616.69
455.62	6499.67
455.81	6525.41
455.99	6700.95
456.17	6576.91
456.36	6532.44
456.54	6619.04
456.73	6621.38
456.91	6825.00
457.09	6902.24
457.28	6871.81
457.46	6668.19
457.64	7016.93
457.83	6740.74
458.01	6691.59
458.19	6906.92
458.38	6752.45
458.56	6960.75
458.74	7148.00
458.93	7037.99
459.11	7164.38
459.29	7026.29
459.48	7012.24
459.66	6927.99
459.84	7115.23
460.03	7283.75
460.21	7243.96
460.39	7220.55
460.57	7124.59
460.76	7232.26
460.94	7349.28
461.12	7410.14
461.31	7311.83
461.49	7239.28
461.67	7417.16
461.85	7396.09
462.04	7566.95
462.22	7676.96
462.40	7459.29
462.59	7503.76
462.77	7356.30
462.95	7503.76
463.13	7789.30
463.32	7658.23
463.50	7625.47
463.68	7660.57
463.86	7559.93
464.05	7513.12
464.23	7686.32
464.41	7878.24
464.59	7770.58
464.78	7929.74
464.96	7791.64
465.14	7630.15
465.32	7918.03
465.50	7922.71
465.69	7939.10
465.87	7843.14
466.05	7812.71
466.23	7866.54
466.41	8114.64
466.60	8105.28
466.78	7974.21
466.96	7983.57
467.14	8011.65
467.32	8088.89
467.51	8226.98
467.69	7969.52
467.87	8154.43
468.05	8250.39
468.23	8025.70
468.41	8212.94
468.60	8325.29
468.78	8219.96
468.96	8386.14
469.14	8301.88
469.32	8346.35
469.50	8215.28
469.69	8411.89
469.87	8636.58
470.05	8470.40
470.23	8496.14
470.41	8484.44
470.59	8690.41
470.77	8659.98
470.95	8648.28
471.14	8884.67
471.32	8706.79
471.50	8814.46
471.68	8781.69
471.86	9057.87
472.04	8957.23
472.22	8968.93
472.40	8894.04
472.58	8917.44
472.77	9067.24
472.95	9191.28
473.13	9472.15
473.31	9050.85
473.49	9062.55
473.67	9165.54
473.85	9378.53
474.03	9425.34
474.21	9577.47
474.39	9486.19
474.57	9628.96
474.75	9617.26
474.93	9563.43
475.12	9731.95
475.30	9724.93
475.48	9582.15
475.66	9504.92
475.84	9853.66
476.02	9900.47
476.20	9907.49
476.38	9963.66
476.56	10279.63
476.74	10181.33
476.92	10169.63
477.10	10197.71
477.28	10267.93
477.46	10579.22
477.64	10574.54
477.82	10635.39
478.00	10787.53
478.18	10710.29
478.36	10876.47
478.54	11157.33
478.72	11089.46
478.90	11059.03
479.08	11346.92
479.26	11351.60
479.44	11112.86
479.62	11538.84
479.80	11286.06
479.98	11496.71
480.16	11604.38
480.34	11531.82
480.52	11894.60
480.70	11789.28
480.88	11777.58
481.06	12006.95
481.24	11992.90
481.41	12297.17
481.59	12334.62
481.77	12582.72
481.95	12549.95
482.13	12917.42
482.31	12833.16
482.49	12989.97
482.67	13233.39
482.85	13231.05
483.03	13125.72
483.21	13294.24
483.39	13589.15
483.57	13355.10
483.74	13621.92
483.92	13638.30
484.10	13621.92
484.28	13860.65
484.46	14242.16
484.64	14354.51
484.82	13905.12
485.00	14328.76
485.18	14497.28
485.35	14633.03
485.53	14831.97
485.71	14649.41
485.89	14932.62
486.07	14881.13
486.25	15044.96
486.43	14932.62
486.61	15035.60
486.78	14895.17
486.96	15302.42
487.14	15564.56
487.32	15683.93
487.50	15789.25
487.68	16011.60
487.85	16180.12
488.03	16226.93
488.21	16472.69
488.39	16262.04
488.57	16519.50
488.75	16762.92
488.92	16889.31
489.10	17048.46
489.28	17172.51
489.46	17268.47
489.64	17394.86
489.81	17628.92
489.99	17432.31
490.17	17441.67
490.35	17825.52
490.53	18029.15
490.70	18274.90
490.88	18174.26
491.06	18274.90
491.24	18459.81
491.41	18572.15
491.59	18654.07
491.77	18298.31
491.95	18824.93
492.13	19000.47
492.30	18853.02
492.48	19447.51
492.66	19068.34
492.84	19180.69
493.01	19510.71
493.19	19342.19
493.37	19791.57
493.54	19765.82
493.72	19917.96
493.90	19873.49
494.08	20355.64
494.25	20271.38
494.43	20559.27
494.61	20393.09
494.79	20575.65
494.96	20496.07
495.14	20739.49
495.32	21219.30
495.49	20924.39
495.67	20975.88
495.85	21355.05
496.02	21701.45
496.20	22061.89
496.38	21771.66
496.55	21631.23
496.73	22288.92
496.91	21706.13
497.09	22298.28
497.26	22221.05
497.44	22534.68
497.62	22359.14
497.79	22558.08
497.97	22572.13
498.14	22768.73
498.32	23250.88
498.50	23183.01
498.67	23307.05
498.85	23065.98
499.03	23269.61
499.20	23669.84
499.38	23967.09
499.56	23498.98
499.73	23850.06
499.91	23871.12
500.08	24102.84
500.26	24016.24
500.44	24105.18
500.61	24212.84
500.79	24297.10
500.97	24191.78
501.14	24685.63
501.32	24769.89
501.49	24435.19
501.67	24795.64
501.84	24966.49
502.02	24886.92
502.20	24886.92
502.37	25008.62
502.55	25025.01
502.72	25188.85
502.90	25275.45
503.07	24940.75
503.25	25401.83
503.43	25364.39
503.60	25600.78
503.78	25832.49
503.95	25766.96
504.13	26005.69
504.30	25975.27
504.48	25926.11
504.65	25886.32
504.83	26199.96
505.01	26682.11
505.18	26637.64
505.36	26539.33
505.53	26237.41
505.71	26850.63
505.88	26972.33
506.06	26499.55
506.23	27187.66
506.41	26677.43
506.58	27049.57
506.76	27105.74
506.93	27323.41
507.11	27072.98
507.28	27335.12
507.46	27175.96
507.63	27119.79
507.81	27463.85
507.98	27473.21
508.16	28044.30
508.33	27709.60
508.50	27758.75
508.68	28105.15
508.85	28198.77
509.03	28063.02
509.20	27950.68
509.38	28320.48
509.55	28603.69
509.73	28432.83
509.90	28442.19
510.08	28659.86
510.25	28744.12
510.42	28627.09
510.60	28900.94
510.77	29130.31
510.95	29244.99
511.12	28865.83
511.30	29305.85
511.47	29404.15
511.64	28966.47
511.82	29675.65
511.99	29399.47
512.17	29780.98
512.34	29743.53
512.51	29713.10
512.69	30008.01
512.86	30192.91
513.04	30183.55
513.21	30148.44
513.38	30052.48
513.56	30515.90
513.73	30110.99
513.90	30335.68
514.08	30249.08
514.25	30525.27
514.43	30555.69
514.60	30778.04
514.77	31108.06
514.95	30555.69
515.12	30876.35
515.29	30890.39
515.47	31187.64
515.64	31283.60
515.81	30848.26
515.99	30892.73
516.16	31491.91
516.33	31234.45
516.51	31754.05
516.68	31115.08
516.85	31625.32
517.03	31901.50
517.20	31793.84
517.37	31585.53
517.54	31648.72
517.72	31955.33
517.89	32067.68
518.06	32280.67
518.24	31945.97
518.41	32027.89
518.58	32177.68
518.75	32135.56
518.93	32395.35
519.10	31913.20
519.27	32648.13
519.45	32783.88
519.62	32465.57
519.79	32769.84
519.96	32711.33
520.14	32870.48
520.31	32542.81
520.48	32964.10
520.65	33085.81
520.83	33535.20
521.00	33315.19
521.17	33003.89
521.34	33256.67
521.52	33626.48
521.69	33626.48
521.86	33926.07
522.03	33881.60
522.20	33867.55
522.38	33977.56
522.55	34005.64
522.72	33469.66
522.89	34349.70
523.07	34370.77
523.24	34485.45
523.41	34539.29
523.58	34096.92
523.75	34501.84
523.92	34005.64
524.10	34440.98
524.27	34703.12
524.44	34813.13
524.61	34677.38
524.78	34932.50
524.96	35119.74
525.13	34771.00
525.30	35093.99
525.47	35185.27
525.64	35161.87
525.81	35267.19
525.98	35227.40
526.16	35178.25
526.33	34909.09
526.50	35269.53
526.67	35133.78
526.84	35573.80
527.01	35587.85
527.18	35742.32
527.36	35304.64
527.53	35285.92
527.70	36062.97
527.87	35941.27
528.04	35880.41
528.21	36058.29
528.38	36067.66
528.55	35796.15
528.72	36247.88
528.89	35950.63
529.07	36027.87
529.24	36194.04
529.41	36601.30
529.58	36339.16
529.75	36697.26
529.92	36212.77
530.09	36390.65
530.26	36779.18
530.43	36652.79
530.60	36568.53
530.77	36458.52
530.94	36648.11
531.11	37081.11
531.28	36767.48
531.46	36968.76
531.63	37404.10
531.80	36945.36
531.97	37242.60
532.14	37483.68
532.31	37118.56
532.48	37446.23
532.65	37530.49
532.82	37315.16
532.99	37476.66
533.16	37488.36
533.33	37528.15
533.50	37794.97
533.67	37816.04
533.84	37479.00
534.01	37567.94
534.18	37596.03
534.35	38141.37
534.52	37858.17
534.69	38288.82
534.86	38043.07
535.03	37998.60
535.20	38218.61
535.37	38476.07
535.54	38508.83
535.71	38260.74
535.88	38532.24
536.05	38370.74
536.22	38667.99
536.38	38445.64
536.55	38305.21
536.72	38445.64
536.89	38501.81
537.06	39014.39
537.23	38850.55
537.40	38586.07
537.57	38408.19
537.74	38639.90
537.91	39229.72
538.08	38778.00
538.25	38801.40
538.42	38880.98
538.59	39274.19
538.75	39377.17
538.92	39311.64
539.09	39484.84
539.26	39206.31
539.43	39065.88
539.60	39367.81
539.77	39587.82
539.94	39988.05
540.11	39934.22
540.28	39983.37
540.44	39569.10
540.61	39264.83
540.78	39381.85
540.95	39828.90
541.12	39426.32
541.29	39779.74
541.46	39587.82
541.62	39969.33
541.79	40114.44
541.96	39817.19
542.13	39550.37
542.30	39861.66
542.47	40205.72
542.63	40334.45
542.80	40245.51
542.97	40854.05
543.14	40713.62
543.31	40355.52
543.48	40512.33
543.64	41235.56
543.81	40809.58
543.98	40828.30
544.15	40622.34
544.32	40891.50
544.48	41043.63
544.65	41165.34
544.82	41130.23
544.99	40830.65
545.16	40720.64
545.32	41055.34
545.49	41607.70
545.66	41331.52
545.83	41448.55
546.00	41600.68
546.16	41537.49
546.33	40802.56
546.50	41254.28
546.67	41675.58
546.83	40854.05
547.00	41390.03
547.17	41521.10
547.34	41277.69
547.50	41607.70
547.67	42113.26
547.84	41518.76
548.00	41839.42
548.17	42312.20
548.34	42124.96
548.51	42532.22
548.67	42281.78
548.84	42241.99
549.01	42155.39
549.18	41731.75
549.34	42344.97
549.51	42134.32
549.68	42440.93
549.84	42424.55
550.01	42377.74
550.18	42131.98
550.34	42597.75
550.51	42321.57
550.68	42490.09
550.84	42361.36
551.01	42457.32
551.18	42405.83
551.34	42309.86
551.51	42560.30
551.68	42777.97
551.84	42803.72
552.01	42934.79
552.18	42899.68
552.34	42939.47
552.51	43014.37
552.68	42824.78
552.84	42838.83
553.01	43033.09
553.18	43079.90
553.34	43040.11
553.51	42677.33
553.67	43009.68
553.84	43346.72
554.01	43332.68
554.17	43342.04
554.34	43154.80
554.51	43311.61
554.67	43704.82
554.84	43349.06
555.00	43152.46
555.17	43445.02
555.33	43552.69
555.50	43400.55
555.67	43152.46
555.83	43456.73
556.00	43978.67
556.16	43969.30
556.33	43456.73
556.50	43489.49
556.66	43849.94
556.83	43178.20
556.99	43962.28
557.16	43758.66
557.32	43737.59
557.49	43894.41
557.65	43423.96
557.82	43978.67
557.98	43723.55
558.15	43817.17
558.32	43728.23
558.48	44016.11
558.65	43973.98
558.81	44023.14
558.98	43854.62
559.14	43945.90
559.31	43999.73
559.47	44299.32
559.64	43973.98
559.80	44449.11
559.97	44594.23
560.13	44067.61
560.30	44039.52
560.46	44500.61
560.63	44659.76
560.79	44596.57
560.96	44484.22
561.12	44240.81
561.29	44266.55
561.45	44231.44
561.61	44285.28
561.78	44474.86
561.94	44575.50
562.11	44341.45
562.27	44430.39
562.44	44472.52
562.60	44521.67
562.77	44437.41
562.93	44814.24
563.10	44945.31
563.26	44404.64
563.42	44788.49
563.59	44360.17
563.75	44341.45
563.92	44580.18
564.08	44957.01
564.24	44680.83
564.41	44655.08
564.57	44924.24
564.74	44947.65
564.90	44790.83
565.07	44624.65
565.23	44837.64
565.39	45036.59
565.56	45111.49
565.72	44516.99
565.88	44917.22
566.05	45003.82
566.21	45017.86
566.38	44718.28
566.54	45055.31
566.70	45165.32
566.87	45301.07
567.03	44739.34
567.19	45244.90
567.36	45165.32
567.52	44877.43
567.68	45059.99
567.85	45240.21
568.01	45532.78
568.17	45350.22
568.34	45340.86
568.50	45160.64
568.66	44678.49
568.83	44886.79
568.99	45223.83
569.15	44924.24
569.32	45359.58
569.48	45067.02
569.64	45820.67
569.81	45745.77
569.97	45352.56
570.13	45446.18
570.30	45102.12
570.46	45219.15
570.62	45436.82
570.78	45322.13
570.95	45343.20
571.11	45823.01
571.27	45521.08
571.43	45525.76
571.60	45439.16
571.76	45130.21
571.92	45284.68
572.09	45563.21
572.25	45832.37
572.41	45516.40
572.57	45565.55
572.74	46028.98
572.90	45567.89
573.06	45610.02
573.22	45661.51
573.38	45839.39
573.55	45825.35
573.71	45813.65
573.87	45532.78
574.03	45497.67
574.20	46232.60
574.36	45865.14
574.52	45703.64
574.68	45771.52
574.84	45617.04
575.01	45993.87
575.17	45830.03
575.33	45359.58
575.49	45607.68
575.65	45830.03
575.82	45998.55
575.98	45808.96
576.14	45893.22
576.30	46307.50
576.46	45839.39
576.62	45722.37
576.79	45610.02
576.95	45518.74
577.11	45418.10
577.27	45961.10
577.43	45771.52
577.59	45532.78
577.75	45909.61
577.92	45127.87
578.08	45839.39
578.24	45696.62
578.40	46293.46
578.56	46169.41
578.72	45853.44
578.88	45979.82
579.04	45860.46
579.21	45446.18
579.37	45876.84
579.53	45986.85
579.69	46143.66
579.85	45752.79
580.01	45993.87
580.17	45797.26
580.33	46099.19
580.49	46199.83
580.65	45811.31
580.82	46052.38
580.98	45727.05
581.14	45614.70
581.30	46244.30
581.46	45881.52
581.62	45834.71
581.78	45844.07
581.94	46361.33
582.10	45993.87
582.26	46234.94
582.42	45830.03
582.58	45989.19
582.74	46089.83
582.90	45771.52
583.06	46344.95
583.22	45682.58
583.38	45975.14
583.54	46014.93
583.70	45977.48
583.86	46155.36
584.02	45839.39
584.18	46157.70
584.34	46078.13
584.50	46206.86
584.66	46021.95
584.82	46181.11
584.98	46775.61
585.14	46206.86
585.30	46012.59
585.46	45933.01
585.62	46117.92
585.78	46162.39
585.94	45659.17
586.10	46117.92
586.26	45673.21
586.42	46003.23
586.58	46398.78
586.74	46279.41
586.90	46410.48
587.06	45949.40
587.22	46384.74
587.38	45895.56
587.54	46504.10
587.70	46548.57
587.86	45844.07
588.02	46101.53
588.18	46225.58
588.34	46368.35
588.49	46417.50
588.65	46050.04
588.81	46211.54
588.97	46223.24
589.13	46525.17
589.29	46850.50
589.45	46710.07
589.61	46302.82
589.77	46555.60
589.93	46628.15
590.08	46419.84
590.24	46817.74
590.40	46880.93
590.56	46712.41
590.72	46199.83
590.88	46410.48
591.04	46223.24
591.20	46958.17
591.35	46574.32
591.51	47054.13
591.67	46653.90
591.83	47089.24
591.99	46529.85
592.15	46380.06
592.31	46611.77
592.46	46258.35
592.62	46543.89
592.78	46948.81
592.94	46768.58
593.10	46962.85
593.26	46969.87
593.41	46656.24
593.57	46487.72
593.73	46782.63
593.89	47042.43
594.05	46995.62
594.20	46564.96
594.36	46857.52
594.52	47196.90
594.68	46766.24
594.84	46667.94
594.99	47030.72
595.15	46841.14
595.31	46953.49
595.47	46646.88
595.62	47035.41
595.78	46714.75
595.94	47409.89
596.10	46951.15
596.25	46841.14
596.41	47107.96
596.57	46667.94
596.73	47093.92
596.88	46625.81
597.04	46806.03
597.20	46707.73
597.36	46841.14
597.51	47576.07
597.67	46529.85
597.83	46574.32
597.99	46990.94
598.14	46791.99
598.30	47208.61
598.46	47065.83
598.61	46932.42
598.77	46808.37
598.93	47103.28
599.09	47295.21
599.24	47217.97
599.40	47054.13
599.56	47119.66
599.71	47367.76
599.87	47330.31
600.03	47367.76
600.18	46939.44
600.34	46946.47
600.50	47442.66
600.65	47669.69
600.81	47344.36
600.97	47309.25
601.12	47173.50
601.28	47131.37
601.44	46894.97
601.59	47159.45
601.75	47070.51
601.91	47295.21
602.06	47068.17
602.22	47119.66
602.37	46862.21
602.53	47257.76
602.69	47227.33
602.84	46967.53
603.00	46646.88
603.16	46958.17
603.31	47210.95
603.47	47241.37
603.62	46857.52
603.78	46787.31
603.94	46876.25
604.09	47217.97
604.25	46960.51
604.40	47217.97
604.56	46986.25
604.71	47517.56
604.87	46988.60
605.03	46958.17
605.18	46946.47
605.34	47416.91
605.49	46859.87
605.65	46602.41
605.80	47224.99
605.96	46990.94
606.12	46983.91
606.27	47208.61
606.43	47075.19
606.58	47353.72
606.74	46820.08
606.89	46944.12
607.05	46913.70
607.20	47105.62
607.36	46340.27
607.51	46824.76
607.67	47035.41
607.82	46979.23
607.98	47002.64
608.13	47185.20
608.29	46719.43
608.44	46944.12
608.60	46911.36
608.75	46691.35
608.91	46871.57
609.06	46827.10
609.22	46894.97
609.37	46571.98
609.53	47082.22
609.68	46850.50
609.84	47110.30
609.99	46740.50
610.15	46394.10
610.30	47037.75
610.46	46555.60
610.61	46698.37
610.76	47264.78
610.92	46518.15
611.07	46761.56
611.23	46288.77
611.38	46513.47
611.54	46611.77
611.69	46927.74
611.84	46689.01
612.00	46298.14
612.15	46403.46
612.31	46815.40
612.46	46127.28
612.62	46803.69
612.77	46665.60
612.92	46686.67
613.08	46490.06
613.23	46260.69
613.39	46305.16
613.54	45986.85
613.69	46726.46
613.85	46855.18
614.00	46567.30
614.15	46738.16
614.31	46089.83
614.46	46216.22
614.62	46286.43
614.77	45954.08
614.92	46195.15
615.08	46394.10
615.23	46677.30
615.38	46742.84
615.54	46239.62
615.69	46326.22
615.84	46417.50
616.00	46689.01
616.15	46328.56
616.30	46188.13
616.46	46263.03
616.61	46005.57
616.76	46527.51
616.92	46206.86
617.07	46543.89
617.22	45741.09
617.37	45729.39
617.53	45883.86
617.68	45874.50
617.83	45947.06
617.99	46789.65
618.14	46382.40
618.29	45890.88
618.45	45406.39
618.60	45832.37
618.75	45427.46
618.90	45773.86
619.06	46005.57
619.21	45689.60
619.36	46246.65
619.51	45900.25
619.67	45600.66
619.82	45668.53
619.97	45904.93
620.12	45961.10
620.28	45588.95
620.43	45982.16
620.58	45668.53
620.73	45886.20
620.89	45581.93
621.04	46101.53
621.19	45443.84
621.34	45682.58
621.49	45343.20
621.65	45631.08
621.80	46244.30
621.95	45371.28
622.10	45249.58
622.25	45270.64
622.41	45336.18
622.56	45294.05
622.71	45705.98
622.86	45392.35
623.01	45170.00
623.16	45415.76
623.32	45572.57
623.47	45214.47
623.62	45198.09
623.77	45516.40
623.92	45289.37
624.07	45729.39
624.23	45345.54
624.38	45404.05
624.53	45553.85
624.68	44947.65
624.83	45102.12
624.98	45132.55
625.13	45205.11
625.29	45029.57
625.44	44870.41
625.59	45045.95
625.74	45104.46
625.89	44734.66
626.04	44687.85
626.19	45132.55
626.34	44683.17
626.49	44678.49
626.65	44245.49
626.80	44744.02
626.95	44556.78
627.10	44282.94
627.25	44470.18
627.40	44460.82
627.55	44617.63
627.70	44552.10
627.85	44392.94
628.00	44083.99
628.15	44486.56
628.30	44016.11
628.45	44282.94
628.60	44219.74
628.76	44004.41
628.91	44828.28
629.06	44095.69
629.21	44020.80
629.36	43929.51
629.51	44767.43
629.66	44399.96
629.81	44271.23
629.96	44449.11
630.11	44013.77
630.26	44142.50
630.41	44083.99
630.56	44332.09
630.71	43737.59
630.86	44172.93
631.01	43751.63
631.16	44044.20
631.31	43859.30
631.46	43828.87
631.61	43929.51
631.76	44051.22
631.91	43889.73
632.06	44397.62
632.21	43885.04
632.36	44034.84
632.51	43423.96
632.66	44062.93
632.81	43622.90
632.96	44025.48
633.10	43306.93
633.25	44123.78
633.40	43805.47
633.55	43885.04
633.70	43393.53
633.85	43419.28
634.00	43269.48
634.15	43583.12
634.30	43627.59
634.45	42930.11
634.60	43489.49
634.75	43679.08
634.90	43388.85
635.05	43636.95
635.19	43592.48
635.34	43529.28
635.49	43194.59
635.64	43379.49
635.79	43370.13
635.94	43552.69
636.09	42969.90
636.24	43325.66
636.39	43512.90
636.53	43459.07
636.68	43370.13
636.83	42548.60
636.98	42981.60
637.13	42424.55
637.28	43107.99
637.43	43311.61
637.57	43005.00
637.72	42670.31
637.87	42660.94
638.02	43131.39
638.17	42855.21
638.32	43026.07
638.46	42431.57
638.61	42770.95
638.76	42829.46
638.91	42731.16
639.06	42494.77
639.20	42319.23
639.35	42284.12
639.50	42410.51
639.65	42440.93
639.80	42632.86
639.94	42553.28
640.09	43154.80
640.24	42834.14
640.39	42366.04
640.54	41918.99
640.68	42717.12
640.83	43126.71
640.98	42487.74
641.13	42513.49
641.27	42536.90
641.42	41940.06
641.57	42223.26
641.72	42146.03
641.86	42270.08
642.01	42113.26
642.16	42480.72
642.31	41607.70
642.45	42143.69
642.60	42026.66
642.75	42195.18
642.90	42518.17
643.04	41811.33
643.19	42178.79
643.34	42122.62
643.48	41387.69
643.63	41860.48
643.78	41989.21
643.93	41844.10
644.07	42525.19
644.22	41977.51
644.37	41975.17
644.51	42237.31
644.66	41813.67
644.81	41766.86
644.95	41904.95
645.10	41558.55
645.25	41666.22
645.39	41605.36
645.54	41652.17
645.69	41439.18
645.83	41460.25
645.98	41380.67
646.13	41113.85
646.27	41373.65
646.42	41261.30
646.57	41530.47
646.71	41275.35
646.86	41567.91
647.00	41518.76
647.15	41235.56
647.30	41668.56
647.44	41240.24
647.59	41088.10
647.74	41163.00
647.88	41298.75
648.03	41799.63
648.17	41890.91
648.32	41556.21
648.47	41780.90
648.61	41528.13
648.76	41539.83
648.90	40741.71
649.05	40762.77
649.20	41495.36
649.34	41411.10
649.49	40858.73
649.63	41132.57
649.78	41153.64
649.92	41148.96
650.07	41780.90
650.21	41258.96
650.36	41132.57
650.51	40711.28
650.65	41418.12
650.80	40935.97
650.94	40849.37
651.09	40669.15
651.23	40278.28
651.38	40610.64
651.52	40423.39
651.67	40247.85
651.81	40528.72
651.96	40519.35
652.10	40568.51
652.25	40477.22
652.39	40989.80
652.54	40470.20
652.68	40205.72
652.83	40479.57
652.97	40591.91
653.12	40357.86
653.26	40346.15
653.41	40332.11
653.55	40472.54
653.70	40421.05
653.84	40577.87
653.99	40374.24
654.13	40353.18
654.27	40091.04
654.42	40261.90
654.56	40226.79
654.71	39835.92
654.85	40282.96
655.00	40465.52
655.14	40465.52
655.29	40355.52
655.43	40325.09
655.57	39810.17
655.72	39974.01
655.86	40032.52
656.01	39728.25
656.15	39777.40
656.30	39938.90
656.44	39611.23
656.58	39770.38
656.73	39985.71
656.87	39714.21
657.01	39555.05
657.16	39826.56
657.30	39655.70
657.45	39974.01
657.59	39536.33
657.73	39372.49
657.88	39601.86
658.02	39744.64
658.16	40009.12
658.31	39548.03
658.45	39667.40
658.60	39393.56
658.74	39564.42
658.88	39253.12
659.03	39328.02
659.17	39115.03
659.31	39028.43
659.46	39063.54
659.60	39168.87
659.74	39381.85
659.89	38719.48
660.03	38742.89
660.17	39208.65
660.32	38689.06
660.46	38602.46
660.60	38625.86
660.74	39093.97
660.89	38801.40
661.03	38246.69
661.17	38609.48
661.32	38291.16
661.46	39143.12
661.60	38478.41
661.74	38160.09
661.89	38195.20
662.03	38314.57
662.17	38263.08
662.31	38096.90
662.46	38401.17
662.60	38312.23
662.74	37621.77
662.88	37638.15
663.03	38188.18
663.17	37507.08
663.31	37699.01
663.45	37743.48
663.60	38195.20
663.74	38174.14
663.88	38040.73
664.02	37860.51
664.17	38047.75
664.31	37366.65
664.45	37455.59
664.59	37308.14
664.73	37734.12
664.88	37677.94
665.02	37027.28
665.16	36811.95
665.30	37092.81
665.44	37406.44
665.59	36893.86
665.73	36919.61
665.87	36252.56
666.01	37202.82
666.15	36655.13
666.29	37008.55
666.44	36498.31
666.58	36879.82
666.72	36123.83
666.86	36517.04
667.00	36629.38
667.14	36297.03
667.28	36498.31
667.43	36357.88
667.57	36357.88
667.71	36402.35
667.85	36285.33
667.99	36189.36
668.13	36156.60
668.27	35969.35
668.41	35934.24
668.56	35372.52
668.70	35646.36
668.84	35428.69
668.98	35204.00
669.12	35950.63
669.26	35669.76
669.40	35557.42
669.54	35644.02
669.68	35646.36
669.82	35103.35
669.96	34876.32
670.10	35194.64
670.25	34998.03
670.39	34923.13
670.53	34822.49
670.67	35330.39
670.81	35435.71
670.95	34820.15
671.09	34588.44
671.23	34607.16
671.37	34480.77
671.51	34651.63
671.65	34843.56
671.79	34529.92
671.93	34485.45
672.07	34960.58
672.21	34754.61
672.35	33883.94
672.49	34206.93
672.63	33862.87
672.77	33827.76
672.91	34515.88
673.05	34136.71
673.19	33883.94
673.33	33483.70
673.47	33457.96
673.61	33633.50
673.75	33291.78
673.89	33053.05
674.03	33244.97
674.17	33055.39
674.31	33151.35
674.45	32762.82
674.59	33102.20
674.73	32833.04
674.87	32781.54
675.01	32542.81
675.15	32088.74
675.29	32294.71
675.43	32582.60
675.56	32886.87
675.70	32343.86
675.84	32205.77
675.98	31702.56
676.12	31913.20
676.26	31971.72
676.40	32285.35
676.54	31615.96
676.68	31637.02
676.82	30831.88
676.96	31772.77
677.10	31805.54
677.23	31777.45
677.37	31302.32
677.51	30955.93
677.65	30850.60
677.79	31087.00
677.93	31260.20
678.07	30829.54
678.21	30799.11
678.34	30621.23
678.48	30169.51
678.62	30199.93
678.76	30445.69
678.90	30314.62
679.04	30127.38
679.18	30022.05
679.31	29766.93
679.45	29778.64
679.59	29748.21
679.73	29914.39
679.87	29593.73
680.00	29373.72
680.14	29661.61
680.28	29291.80
680.42	29027.32
680.56	29010.94
680.70	29022.64
680.83	28964.13
680.97	28645.82
681.11	29060.09
681.25	28496.02
681.39	28638.80
681.52	28863.49
681.66	27756.41
681.80	27974.08
681.94	27782.16
682.07	27845.35
682.21	28114.52
682.35	27901.53
682.49	27782.16
682.62	27620.66
682.76	27779.82
682.90	27625.34
683.04	27407.67
683.17	27449.80
683.31	27056.59
683.45	27152.55
683.59	26810.84
683.72	26630.62
683.86	26630.62
684.00	26895.10
684.13	26661.04
684.27	26300.60
684.41	26176.55
684.55	26511.25
684.68	26246.77
684.82	26216.34
684.96	26230.38
685.09	26001.01
685.23	25928.45
685.37	26167.19
685.50	26059.52
685.64	25766.96
685.78	25603.12
685.91	25731.85
686.05	25198.21
686.19	24950.11
686.32	25310.55
686.46	24449.24
686.60	24793.29
686.73	25017.99
686.87	25017.99
687.01	24879.89
687.14	24858.83
687.28	24500.73
687.42	24489.03
687.55	24521.79
687.69	24294.76
687.82	24210.50
687.96	24060.71
688.10	23934.32
688.23	23805.59
688.37	23868.78
688.50	24226.89
688.64	23735.37
688.78	23555.15
688.91	23501.32
689.05	23948.36
689.18	23234.50
689.32	22993.42
689.46	23131.51
689.59	23021.51
689.73	23445.15
689.86	23222.80
690.00	22850.65
690.13	23051.94
690.27	22778.09
690.41	22923.21
690.54	22345.09
690.68	22607.23
690.81	22487.87
690.95	22005.72
691.08	22075.93
691.22	21778.68
691.35	21633.57
691.49	22010.40
691.62	21544.63
691.76	21486.12
691.89	21345.69
692.03	21174.83
692.16	21092.91
692.30	21184.19
692.43	21177.17
692.57	20910.35
692.70	20826.09
692.84	20849.49
692.97	20425.86
693.11	20662.25
693.24	20390.75
693.38	20573.31
693.51	20219.89
693.65	20365.00
693.78	20257.34
693.92	20081.80
694.05	20074.77
694.19	19990.52
694.32	19686.25
694.45	20018.60
694.59	20173.08
694.72	20018.60
694.86	19868.81
694.99	19592.62
695.13	19372.61
695.26	19316.44
695.39	18918.55
695.53	19178.35
695.66	19129.20
695.80	19138.56
695.93	19026.21
696.07	18658.75
696.20	18473.85
696.33	18324.05
696.47	18167.24
696.60	18260.86
696.73	18658.75
696.87	18429.38
697.00	18429.38
697.14	18256.18
697.27	18249.16
697.40	17844.24
697.54	17727.22
697.67	17869.99
697.80	17635.94
697.94	17891.06
698.07	17764.67
698.21	17642.96
698.34	17488.48
698.47	17326.99
698.61	16922.07
698.74	17022.72
698.87	17118.68
699.01	16964.20
699.14	16957.18
699.27	16985.27
699.40	16638.87
699.54	16556.95
699.67	16624.83
699.80	16559.29
699.94	16524.18
700.07	16627.17
700.20	16301.83
700.34	16238.64
700.47	16128.63
700.60	16437.58
700.73	16196.51
700.87	15955.43
701.00	15939.05
701.13	15669.89
701.26	15571.58
701.40	15442.85
701.53	15459.24
701.66	15531.80
701.79	15578.61
701.93	15129.22
702.06	15150.29
702.19	15133.90
702.32	14937.30
702.46	15140.93
702.59	15386.68
702.72	15005.17
702.85	15054.33
702.99	14867.08
703.12	14827.29
703.25	14560.47
703.38	14534.73
703.51	14724.31
703.65	14298.33
703.78	13956.61
703.91	14097.05
704.04	14075.98
704.17	14010.45
704.31	13884.06
704.44	13989.38
704.57	13895.76
704.70	14008.11
704.83	13865.33
704.96	13657.03
705.10	13593.83
705.23	13572.77
>>>>>End Processed Spectral Data<<<<<
