SpectraSuite Data File
++++++++++++++++++++++++++++++++++++
Date: Fri Oct 25 11:34:49 EDT 2013
User: price-jones
Dark Spectrum Present: No
Reference Spectrum Present: No
Number of Sampled Component Spectra: 1
Spectrometers: USB2+H05261
Integration Time (usec): 100000 (USB2+H05261)
Spectra Averaged: 1 (USB2+H05261)
Boxcar Smoothing: 0 (USB2+H05261)
Correct for Electrical Dark: No (USB2+H05261)
Strobe/Lamp Enabled: No (USB2+H05261)
Correct for Detector Non-linearity: No (USB2+H05261)
Correct for Stray Light: No (USB2+H05261)
Number of Pixels in Processed Spectrum: 2048
>>>>>Begin Processed Spectral Data<<<<<
365.73	290.23
365.92	290.23
366.12	290.23
366.32	177.88
366.52	166.18
366.72	191.92
366.91	208.31
367.11	180.22
367.31	191.92
367.51	154.48
367.70	245.76
367.90	194.26
368.10	156.82
368.30	149.79
368.49	191.92
368.69	210.65
368.89	145.11
369.09	163.84
369.28	191.92
369.48	252.78
369.68	170.86
369.87	320.65
370.07	273.84
370.27	346.40
370.47	269.16
370.66	451.72
370.86	512.58
371.06	538.32
371.25	547.69
371.45	517.26
371.65	547.69
371.84	505.56
372.04	571.09
372.24	564.07
372.44	606.20
372.63	645.99
372.83	561.73
373.03	608.54
373.22	660.03
373.42	617.90
373.62	655.35
373.81	648.33
374.01	685.78
374.21	648.33
374.40	589.82
374.60	594.50
374.79	709.18
374.99	599.18
375.19	601.52
375.38	624.92
375.58	594.50
375.78	676.41
375.97	683.44
376.17	650.67
376.37	627.26
376.56	671.73
376.76	711.52
376.95	730.25
377.15	662.37
377.35	643.65
377.54	650.67
377.74	667.05
377.93	641.31
378.13	650.67
378.33	669.39
378.52	751.31
378.72	695.14
378.91	763.01
379.11	734.93
379.31	622.58
379.50	692.80
379.70	763.01
379.89	629.60
380.09	690.46
380.28	711.52
380.48	681.10
380.68	777.06
380.87	755.99
381.07	732.59
381.26	753.65
381.46	697.48
381.65	732.59
381.85	676.41
382.04	772.38
382.24	760.67
382.43	716.20
382.63	685.78
382.83	732.59
383.02	755.99
383.22	758.33
383.41	786.42
383.61	856.64
383.80	866.00
384.00	800.46
384.19	763.01
384.39	770.04
384.58	748.97
384.78	800.46
384.97	732.59
385.17	805.14
385.36	784.08
385.56	847.27
385.75	788.76
385.95	828.55
386.14	861.32
386.34	849.61
386.53	894.08
386.72	779.40
386.92	875.36
387.11	922.17
387.31	877.70
387.50	828.55
387.70	896.43
387.89	795.78
388.09	863.66
388.28	835.57
388.48	884.72
388.67	898.77
388.86	992.39
389.06	828.55
389.25	983.02
389.45	917.49
389.64	954.94
389.84	940.90
390.03	868.34
390.22	992.39
390.42	950.26
390.61	830.89
390.81	994.73
391.00	924.51
391.19	1004.09
391.39	1032.18
391.58	961.96
391.78	978.34
391.97	1032.18
392.16	968.98
392.36	1055.58
392.55	973.66
392.75	1074.31
392.94	1008.77
393.13	973.66
393.33	971.32
393.52	1043.88
393.71	1074.31
393.91	1069.62
394.10	1081.33
394.29	1076.65
394.49	1067.28
394.68	1083.67
394.88	1177.29
395.07	1078.99
395.26	1156.22
395.46	1174.95
395.65	1097.71
395.84	1210.06
396.04	1144.52
396.23	1156.22
396.42	1116.44
396.62	1181.97
396.81	1238.14
397.00	1027.50
397.19	1146.86
397.39	1137.50
397.58	1266.23
397.77	1139.84
397.97	1181.97
398.16	1226.44
398.35	1256.87
398.55	1198.35
398.74	1214.74
398.93	1256.87
399.12	1240.48
399.32	1331.76
399.51	1238.14
399.70	1268.57
399.90	1336.45
400.09	1320.06
400.28	1366.87
400.47	1350.49
400.67	1364.53
400.86	1416.02
401.05	1373.89
401.24	1362.19
401.44	1385.60
401.63	1359.85
401.82	1385.60
402.01	1338.79
402.21	1511.99
402.40	1467.52
402.59	1469.86
402.78	1401.98
402.97	1383.26
403.17	1448.79
403.36	1444.11
403.55	1394.96
403.74	1530.71
403.93	1530.71
404.13	1511.99
404.32	1542.41
404.51	1502.62
404.70	1577.52
404.89	1540.07
405.09	1643.06
405.28	1549.43
405.47	1687.53
405.66	1575.18
405.85	1774.13
406.05	1701.57
406.24	1596.25
406.43	1645.40
406.62	1682.85
406.81	1659.44
407.00	1771.79
407.20	1755.40
407.39	1673.48
407.58	1739.02
407.77	1724.97
407.96	1797.53
408.15	1870.09
408.34	1856.04
408.54	1743.70
408.73	1799.87
408.92	1928.60
409.11	1849.02
409.30	1959.03
409.49	1902.86
409.68	1863.07
409.87	1966.05
410.07	1949.67
410.26	1916.90
410.45	2012.86
410.64	2054.99
410.83	2050.31
411.02	1952.01
411.21	2155.63
411.40	1987.11
411.59	2078.40
411.78	2005.84
411.98	2167.34
412.17	2122.87
412.36	2104.14
412.55	2207.13
412.74	2209.47
412.93	2263.30
413.12	2122.87
413.31	2377.98
413.50	2272.66
413.69	2230.53
413.88	2338.20
414.07	2284.36
414.26	2368.62
414.45	2441.18
414.64	2340.54
414.83	2466.92
415.02	2429.48
415.22	2588.63
415.41	2516.08
415.60	2469.27
415.79	2506.71
415.98	2586.29
416.17	2670.55
416.36	2581.61
416.55	2665.87
416.74	2738.43
416.93	2808.64
417.12	2740.77
417.31	2738.43
417.50	2743.11
417.69	2813.32
417.88	2843.75
418.07	2782.90
418.26	2825.03
418.45	2888.22
418.64	3042.70
418.83	2904.60
419.02	2953.76
419.21	2885.88
419.39	2939.71
419.58	2984.18
419.77	2860.13
419.96	2930.35
420.15	2977.16
420.34	3070.78
420.53	3038.02
420.72	3063.76
420.91	3087.17
421.10	3077.80
421.29	3176.11
421.48	2963.12
421.67	3178.45
421.86	3138.66
422.05	3162.06
422.24	3206.53
422.43	3213.56
422.61	3138.66
422.80	3239.30
422.99	3272.07
423.18	3295.47
423.37	3379.73
423.56	3183.13
423.75	3272.07
423.94	3162.06
424.13	2986.52
424.32	3215.90
424.50	3176.11
424.69	3300.16
424.88	3496.76
425.07	3241.64
425.26	3232.28
425.45	3286.11
425.64	3258.03
425.83	3201.85
426.01	3356.33
426.20	3302.50
426.39	3318.88
426.58	3368.03
426.77	3325.90
426.96	3449.95
427.15	3232.28
427.33	3419.52
427.52	3358.67
427.71	3365.69
427.90	3456.97
428.09	3564.64
428.28	3447.61
428.46	3627.83
428.65	3517.83
428.84	3578.68
429.03	3602.08
429.22	3606.77
429.40	3641.87
429.59	3613.79
429.78	3527.19
429.97	3501.44
430.16	3583.36
430.34	3578.68
430.53	3679.32
430.72	3754.22
430.91	3733.15
431.10	3634.85
431.28	3761.24
431.47	3768.26
431.66	3812.73
431.85	3772.94
432.03	3894.65
432.22	3974.23
432.41	3796.35
432.60	3744.86
432.79	3833.80
432.97	3981.25
433.16	4014.02
433.35	3899.33
433.54	3833.80
433.72	4046.79
433.91	3927.42
434.10	4035.08
434.28	3833.80
434.47	3929.76
434.66	3927.42
434.85	3988.27
435.03	3971.89
435.22	4142.75
435.41	4250.41
435.59	4138.07
435.78	4086.58
435.97	4154.45
436.16	4145.09
436.34	4098.28
436.53	4072.53
436.72	4257.43
436.90	4266.80
437.09	4320.63
437.28	4224.67
437.46	4264.46
437.65	4344.03
437.84	4458.72
438.02	4276.16
438.21	4416.59
438.40	4393.19
438.58	4355.74
438.77	4608.51
438.96	4507.87
439.14	4507.87
439.33	4606.17
439.52	4643.62
439.70	4645.96
439.89	4664.69
440.08	4865.97
440.26	4685.75
440.45	4835.55
440.63	4901.08
440.82	4840.23
441.01	4674.05
441.19	4812.14
441.38	4952.57
441.57	4997.04
441.75	5085.98
441.94	5195.99
442.12	4950.23
442.31	5167.90
442.50	5111.73
442.68	5090.67
442.87	5179.61
443.05	5205.35
443.24	5256.84
443.43	5240.46
443.61	5331.74
443.80	5469.83
443.98	5083.64
444.17	5083.64
444.35	5371.53
444.54	5439.40
444.73	5348.12
444.91	5142.16
445.10	5200.67
445.28	5217.05
445.47	5296.63
445.65	5144.50
445.84	5364.51
446.02	5413.66
446.21	5289.61
446.39	5357.49
446.58	5418.34
446.77	5430.04
446.95	5275.57
447.14	5320.04
447.32	5572.82
447.51	5521.32
447.69	5294.29
447.88	5589.20
448.06	5481.53
448.25	5305.99
448.43	5528.35
448.62	5486.22
448.80	5378.55
448.99	5617.29
449.17	5518.98
449.36	5561.11
449.54	5614.95
449.73	5621.97
449.91	5561.11
450.10	5750.70
450.28	5888.79
450.46	5720.27
450.65	5774.10
450.83	5832.62
451.02	5776.44
451.20	5741.33
451.39	5687.50
451.57	5757.72
451.76	5731.97
451.94	5738.99
452.13	5879.43
452.31	5926.24
452.49	5902.83
452.68	5956.66
452.86	5963.68
453.05	6043.26
453.23	6029.22
453.42	5984.75
453.60	5928.58
453.78	6015.18
453.97	5879.43
454.15	6052.63
454.34	6115.82
454.52	6099.44
454.70	6076.03
454.89	6179.01
455.07	6319.45
455.26	6223.48
455.44	6359.24
455.62	6314.77
455.81	6326.47
455.99	6307.74
456.17	6146.25
456.36	6368.60
456.54	6401.37
456.73	6445.84
456.91	6764.15
457.09	6609.67
457.28	6717.34
457.46	6525.41
457.64	6724.36
457.83	6595.63
458.01	6604.99
458.19	6813.30
458.38	6497.33
458.56	6686.91
458.74	6848.41
458.93	6885.86
459.11	6815.64
459.29	6782.87
459.48	6904.58
459.66	6752.45
459.84	6815.64
460.03	7180.76
460.21	6853.09
460.39	6843.73
460.57	7023.95
460.76	7077.78
460.94	7000.54
461.12	7150.34
461.31	6848.41
461.49	6935.01
461.67	7035.65
461.85	7314.17
462.04	7255.66
462.22	7480.35
462.40	7236.94
462.59	7414.82
462.77	7248.64
462.95	7503.76
463.13	7379.71
463.32	7426.52
463.50	7447.58
463.68	7597.38
463.86	7463.97
464.05	7283.75
464.23	7456.95
464.41	7595.04
464.59	7389.07
464.78	7723.77
464.96	7581.00
465.14	7466.31
465.32	7588.02
465.50	7564.61
465.69	7892.29
465.87	7719.09
466.05	7639.51
466.23	7768.24
466.41	7674.62
466.60	7831.43
466.78	7578.65
466.96	7749.51
467.14	7784.62
467.32	7735.47
467.51	8004.63
467.69	7812.71
467.87	7983.57
468.05	7737.81
468.23	7943.78
468.41	7831.43
468.60	7953.14
468.78	7838.45
468.96	8030.38
469.14	8156.77
469.32	8168.47
469.50	7943.78
469.69	8086.55
469.87	8241.03
470.05	8285.50
470.23	8446.99
470.41	8175.49
470.59	8299.54
470.77	8503.17
470.95	8369.76
471.14	8568.70
471.32	8294.86
471.50	8891.70
471.68	8397.84
471.86	8615.51
472.04	8587.43
472.22	8613.17
472.40	8500.83
472.58	8795.73
472.77	8786.37
472.95	8875.31
473.13	8980.64
473.31	8744.24
473.49	8901.06
473.67	8833.18
473.85	9039.15
474.03	9261.50
474.21	9029.79
474.39	9315.33
474.57	9001.70
474.75	9425.34
474.93	9233.41
475.12	9301.29
475.30	9537.68
475.48	9523.64
475.66	9586.83
475.84	9425.34
476.02	9750.67
476.20	9589.17
476.38	9612.58
476.56	10122.82
476.74	9909.83
476.92	9884.08
477.10	9893.44
477.28	10129.84
477.46	10150.90
477.64	10249.21
477.82	10258.57
478.00	10354.53
478.18	10597.95
478.36	10548.79
478.54	10679.86
478.72	10827.32
478.90	10700.93
479.08	10895.19
479.26	11021.58
479.44	10977.11
479.62	10850.72
479.80	11138.61
479.98	11201.80
480.16	11346.92
480.34	11382.03
480.52	11485.01
480.70	11564.59
480.88	11508.41
481.06	11667.57
481.24	11896.94
481.41	11735.45
481.59	11808.00
481.77	12184.83
481.95	12208.23
482.13	12212.92
482.31	12524.21
482.49	12683.36
482.67	12624.85
482.85	12468.03
483.03	12716.13
483.21	12872.95
483.39	13057.85
483.57	12915.08
483.74	13062.53
483.92	13376.16
484.10	13181.90
484.28	13315.31
484.46	13724.90
484.64	14001.08
484.82	13607.87
485.00	13774.05
485.18	13973.00
485.35	14197.69
485.53	14073.64
485.71	14216.41
485.89	14375.57
486.07	14504.30
486.25	14775.80
486.43	14555.79
486.61	14719.63
486.78	14827.29
486.96	14771.12
487.14	15112.84
487.32	15190.08
487.50	15232.21
487.68	15405.41
487.85	15651.16
488.03	15906.28
488.21	15744.78
488.39	16248.00
488.57	16226.93
488.75	16315.87
488.92	16479.71
489.10	16231.62
489.28	16713.77
489.46	16739.51
489.64	16545.25
489.81	17118.68
489.99	17006.33
490.17	17156.13
490.35	17261.45
490.53	17642.96
490.70	17607.85
490.88	17345.71
491.06	17738.92
491.24	18031.49
491.41	17717.86
491.59	18101.70
491.77	18043.19
491.95	18305.33
492.13	18431.72
492.30	18384.91
492.48	18490.23
492.66	18698.54
492.84	18743.01
493.01	18939.62
493.19	18878.76
493.37	18686.84
493.54	19014.51
493.72	19098.77
493.90	19625.39
494.08	19424.11
494.25	19800.93
494.43	19587.94
494.61	20046.69
494.79	19943.70
494.96	19854.76
495.14	20037.33
495.32	20264.36
495.49	20276.06
495.67	20430.54
495.85	20762.89
496.02	20718.42
496.20	20505.43
496.38	20915.03
496.55	21048.44
496.73	21553.99
496.91	21181.85
497.09	21235.68
497.26	21858.26
497.44	21474.42
497.62	21446.33
497.79	21930.82
497.97	22015.08
498.14	22195.30
498.32	22307.65
498.50	22370.84
498.67	22586.17
498.85	22356.80
499.03	22614.26
499.20	22771.07
499.38	22668.09
499.56	23012.15
499.73	23154.92
499.91	22937.25
500.08	23461.53
500.26	23040.23
500.44	23154.92
500.61	23358.55
500.79	23276.63
500.97	23740.05
501.14	23482.59
501.32	23714.31
501.49	23786.86
501.67	23871.12
501.84	24093.47
502.02	23716.65
502.20	23889.85
502.37	24027.94
502.55	24030.28
502.72	24460.94
502.90	24510.09
503.07	24357.96
503.25	24814.36
503.43	24327.53
503.60	24505.41
503.78	24781.59
503.95	24915.00
504.13	24854.15
504.30	25022.67
504.48	25443.96
504.65	25453.33
504.83	25387.79
505.01	25788.02
505.18	25731.85
505.36	25895.69
505.53	25565.67
505.71	25340.98
505.88	25617.16
506.06	25486.09
506.23	25933.14
506.41	25771.64
506.58	26260.81
506.76	26106.34
506.93	26464.44
507.11	26389.54
507.28	26499.55
507.46	26396.56
507.63	26520.61
507.81	26930.20
507.98	26504.23
508.16	26434.01
508.33	26553.38
508.50	27026.17
508.68	27136.17
508.85	27211.07
509.03	27122.13
509.20	27309.37
509.38	27342.14
509.55	27676.83
509.73	27681.52
509.90	27627.68
510.08	27459.16
510.25	27304.69
510.42	28041.96
510.60	28088.77
510.77	27821.95
510.95	27793.86
511.12	27676.83
511.30	28013.87
511.47	28308.78
511.64	28297.08
511.82	28355.59
511.99	28156.64
512.17	29048.39
512.34	28577.94
512.51	28936.04
512.69	28903.28
512.86	29240.31
513.04	28933.70
513.21	29048.39
513.38	29088.18
513.56	29455.64
513.73	29308.19
513.90	29530.54
514.08	29209.89
514.25	29404.15
514.43	29783.32
514.60	29893.32
514.77	29600.76
514.95	30068.86
515.12	29610.12
515.29	29333.93
515.47	29890.98
515.64	30171.85
515.81	30171.85
515.99	30375.47
516.16	30473.78
516.33	30213.98
516.51	30541.65
516.68	30548.67
516.85	30630.59
517.03	30703.15
517.20	30637.61
517.37	30965.29
517.54	30782.73
517.72	30455.05
517.89	30661.02
518.06	31189.98
518.24	31000.40
518.41	30916.14
518.58	31077.63
518.75	31321.05
518.93	31508.29
519.10	31182.96
519.27	31218.07
519.45	31555.10
519.62	31674.47
519.79	31924.91
519.96	31810.22
520.14	32006.83
520.31	31852.35
520.48	31943.63
520.65	32055.98
520.83	32098.11
521.00	31967.04
521.17	31941.29
521.34	32154.28
521.52	32727.71
521.69	32304.07
521.86	32718.35
522.03	32898.57
522.20	32786.22
522.38	32725.37
522.55	32589.62
522.72	32814.31
522.89	32786.22
523.07	33336.25
523.24	32755.80
523.41	33366.68
523.58	32980.49
523.75	33301.14
523.92	33586.69
524.10	33649.88
524.27	33507.11
524.44	33851.17
524.61	33448.60
524.78	33462.64
524.96	33516.47
525.13	33853.51
525.30	33968.19
525.47	33916.70
525.64	33935.43
525.81	34286.51
525.98	33734.14
526.16	34185.86
526.33	34195.23
526.50	34394.17
526.67	34302.89
526.84	34438.64
527.01	34150.76
527.18	34436.30
527.36	34511.20
527.53	34815.47
527.70	34714.83
527.87	34998.03
528.04	34871.64
528.21	34567.37
528.38	34806.11
528.55	34726.53
528.72	35005.05
528.89	35384.22
529.07	34871.64
529.24	34733.55
529.41	35632.32
529.58	35526.99
529.75	35218.04
529.92	35543.38
530.09	35065.91
530.26	35484.86
530.43	35468.48
530.60	35138.46
530.77	35314.00
530.94	35482.52
531.11	35653.38
531.28	35648.70
531.46	35491.88
531.63	35758.70
531.80	35819.56
531.97	35999.78
532.14	36201.07
532.31	35824.24
532.48	35999.78
532.65	36348.52
532.82	36177.66
532.99	35999.78
533.16	36065.31
533.33	36659.81
533.50	36392.99
533.67	36800.24
533.84	36119.15
534.01	36416.40
534.18	36556.83
534.35	36971.10
534.52	36825.99
534.69	36959.40
534.86	37284.73
535.03	36790.88
535.20	36905.57
535.37	37170.05
535.54	37268.35
535.71	36788.54
535.88	37282.39
536.05	36980.46
536.22	37408.78
536.38	37127.92
536.55	37249.63
536.72	37315.16
536.89	37331.54
537.06	37483.68
537.23	37844.12
537.40	37202.82
537.57	37457.93
537.74	37219.20
537.91	37755.18
538.08	37734.12
538.25	37425.17
538.42	38197.54
538.59	38024.34
538.75	37886.25
538.92	38141.37
539.09	37968.17
539.26	38274.78
539.43	38043.07
539.60	38342.66
539.77	37886.25
539.94	38490.11
540.11	38050.09
540.28	38206.90
540.44	38321.59
540.61	38492.45
540.78	38164.78
540.95	38588.41
541.12	38279.46
541.29	38403.51
541.46	38089.88
541.62	38660.97
541.79	38920.77
541.96	38455.00
542.13	38810.76
542.30	38518.20
542.47	38937.15
542.63	38873.96
542.80	39150.14
542.97	39459.09
543.14	39033.11
543.31	39498.88
543.48	39044.82
543.64	39606.55
543.81	39533.99
543.98	39077.58
544.15	39365.47
544.32	39545.69
544.48	39622.93
544.65	40201.04
544.82	40184.66
544.99	39569.10
545.16	39772.72
545.32	39679.10
545.49	40039.54
545.66	39864.00
545.83	39917.84
546.00	40182.32
546.16	39950.60
546.33	39927.20
546.50	39718.89
546.67	40081.67
546.83	39906.13
547.00	40060.61
547.17	40327.43
547.34	40519.35
547.50	40184.66
547.67	40521.69
547.84	40416.37
548.00	40727.66
548.17	41123.21
548.34	40783.83
548.51	40376.58
548.67	40601.27
548.84	40528.72
549.01	40699.58
549.18	40547.44
549.34	41226.20
549.51	40720.64
549.68	40538.08
549.84	40800.22
550.01	41024.91
550.18	40980.44
550.34	40851.71
550.51	41057.68
550.68	41390.03
550.84	40854.05
551.01	41170.02
551.18	41193.43
551.34	41455.57
551.51	41399.40
551.68	41352.58
551.84	41294.07
552.01	41315.14
552.18	41261.30
552.34	41483.66
552.51	41647.49
552.68	41263.64
552.84	41340.88
553.01	41890.91
553.18	41038.95
553.34	41448.55
553.51	41638.13
553.67	41619.41
553.84	42003.25
554.01	41951.76
554.17	41993.89
554.34	41663.88
554.51	41808.99
554.67	42335.61
554.84	41790.27
555.00	41972.83
555.17	41827.71
555.33	42078.15
555.50	41944.74
555.67	42279.44
555.83	42085.17
556.00	42265.39
556.16	42527.53
556.33	42878.61
556.50	42588.39
556.66	42450.30
556.83	41984.53
556.99	42588.39
557.16	42405.83
557.32	42632.86
557.49	42728.82
557.65	42398.80
557.82	42136.66
557.98	42506.47
558.15	42515.83
558.32	42646.90
558.48	42382.42
558.65	42487.74
558.81	42417.53
558.98	42831.80
559.14	42473.70
559.31	42686.69
559.47	42560.30
559.64	42831.80
559.80	42897.34
559.97	42976.92
560.13	42436.25
560.30	42518.17
560.46	43058.84
560.63	43005.00
560.79	43175.86
560.96	42990.96
561.12	42859.89
561.29	42890.32
561.45	43489.49
561.61	42967.55
561.78	43047.13
561.94	43171.18
562.11	43210.97
562.27	43309.27
562.44	43290.55
562.60	43056.50
562.77	43239.06
562.93	43189.91
563.10	43255.44
563.26	42763.93
563.42	43494.18
563.59	43494.18
563.75	43210.97
563.92	43421.62
564.08	42981.60
564.24	43515.24
564.41	43199.27
564.57	43349.06
564.74	43557.37
564.90	43613.54
565.07	43388.85
565.23	43665.03
565.39	43529.28
565.56	43536.30
565.72	43391.19
565.88	43412.26
566.05	43725.89
566.21	43798.44
566.38	43557.37
566.54	43796.10
566.70	43353.74
566.87	43391.19
567.03	43789.08
567.19	43856.96
567.36	43578.43
567.52	43573.75
567.68	44027.82
567.85	43756.32
568.01	44067.61
568.17	44025.48
568.34	43831.21
568.50	44037.18
568.66	43735.25
568.83	43697.80
568.99	43878.02
569.15	43908.45
569.32	43744.61
569.48	43863.98
569.64	44428.05
569.81	43592.48
569.97	44112.08
570.13	43941.22
570.30	43304.59
570.46	44144.84
570.62	44037.18
570.78	43931.86
570.95	44219.74
571.11	44339.11
571.27	43707.16
571.43	43695.46
571.60	43868.66
571.76	43941.22
571.92	43971.64
572.09	43821.85
572.25	44032.50
572.41	43878.02
572.57	44402.30
572.74	44456.14
572.90	44201.02
573.06	44589.55
573.22	44304.00
573.38	44116.76
573.55	44264.21
573.71	44154.21
573.87	44369.54
574.03	44154.21
574.20	44383.58
574.36	43751.63
574.52	44240.81
574.68	44336.77
574.84	44659.76
575.01	44376.56
575.17	44584.86
575.33	44631.68
575.49	44414.01
575.65	44575.50
575.82	44580.18
575.98	44100.37
576.14	44428.05
576.30	44587.21
576.46	44631.68
576.62	44542.74
576.79	44664.44
576.95	44034.84
577.11	44060.58
577.27	44406.98
577.43	44369.54
577.59	44652.74
577.75	44371.88
577.92	43854.62
578.08	44868.07
578.24	44406.98
578.40	44275.91
578.56	44652.74
578.72	44498.26
578.88	45043.61
579.04	44364.85
579.21	44194.00
579.37	44839.98
579.53	44491.24
579.69	44409.32
579.85	44430.39
580.01	44385.92
580.17	44432.73
580.33	44657.42
580.49	44634.02
580.65	45050.63
580.82	44449.11
580.98	44325.07
581.14	44046.54
581.30	44811.90
581.46	44561.46
581.62	44629.34
581.78	44350.81
581.94	44999.14
582.10	44285.28
582.26	44704.23
582.42	44231.44
582.58	44577.84
582.74	44601.25
582.90	44676.15
583.06	44772.11
583.22	44189.31
583.38	44940.63
583.54	44460.82
583.70	44825.94
583.86	45144.25
584.02	44388.26
584.18	45111.49
584.34	44746.36
584.50	44823.60
584.66	44744.02
584.82	44814.24
584.98	45141.91
585.14	44882.11
585.30	44589.55
585.46	44844.66
585.62	44486.56
585.78	44877.43
585.94	44385.92
586.10	44779.13
586.26	44786.15
586.42	44760.40
586.58	44856.37
586.74	44516.99
586.90	44385.92
587.06	44598.91
587.22	44659.76
587.38	44479.54
587.54	44435.07
587.70	45064.67
587.86	44844.66
588.02	44800.19
588.18	44619.97
588.34	45062.33
588.49	44753.38
588.65	44612.95
588.81	44900.84
588.97	44484.22
589.13	44790.83
589.29	44425.71
589.45	45057.65
589.61	45062.33
589.77	44807.22
589.93	45116.17
590.08	44910.20
590.24	45062.33
590.40	45603.00
590.56	45216.81
590.72	45368.94
590.88	44966.37
591.04	44786.15
591.20	45453.20
591.35	45336.18
591.51	45736.41
591.67	45375.97
591.83	45280.00
591.99	45165.32
592.15	45272.98
592.31	45170.00
592.46	45111.49
592.62	44804.88
592.78	45427.46
592.94	45691.94
593.10	45357.24
593.26	45228.51
593.41	45436.82
593.57	45170.00
593.73	45270.64
593.89	45551.51
594.05	45598.32
594.20	45418.10
594.36	45635.77
594.52	45563.21
594.68	45478.95
594.84	45118.51
594.99	45647.47
595.15	45399.37
595.31	45897.91
595.47	45612.36
595.62	45308.09
595.78	45429.80
595.94	45500.01
596.10	45469.59
596.25	45429.80
596.41	45607.68
596.57	45272.98
596.73	45720.02
596.88	45406.39
597.04	45918.97
597.20	45488.31
597.36	45811.31
597.51	45563.21
597.67	44839.98
597.83	45399.37
597.99	45567.89
598.14	45607.68
598.30	45249.58
598.46	45553.85
598.61	45560.87
598.77	45155.96
598.93	45724.71
599.09	45624.06
599.24	45841.73
599.40	46014.93
599.56	45752.79
599.71	45818.33
599.87	46101.53
600.03	45624.06
600.18	45612.36
600.34	45567.89
600.50	45698.96
600.65	45237.87
600.81	46040.68
600.97	45558.53
601.12	45495.33
601.28	45647.47
601.44	45230.85
601.59	45221.49
601.75	45827.69
601.91	45792.58
602.06	45696.62
602.22	45729.39
602.37	45745.77
602.53	45617.04
602.69	45963.44
602.84	45460.23
603.00	45373.63
603.16	45083.40
603.31	45315.11
603.47	45565.55
603.62	45584.27
603.78	45977.48
603.94	45247.24
604.09	45776.20
604.25	45635.77
604.40	45254.26
604.56	45970.46
604.71	46305.16
604.87	45572.57
605.03	45308.09
605.18	45429.80
605.34	45537.46
605.49	45226.17
605.65	45790.24
605.80	45476.61
605.96	45343.20
606.12	45422.78
606.27	45687.26
606.43	45628.74
606.58	45869.82
606.74	45392.35
606.89	45139.57
607.05	45535.12
607.20	45588.95
607.36	45797.26
607.51	45324.47
607.67	45081.06
607.82	45123.19
607.98	45207.45
608.13	45666.19
608.29	45385.33
608.44	45256.60
608.60	45223.83
608.75	45675.55
608.91	45621.72
609.06	45062.33
609.22	45813.65
609.37	45397.03
609.53	45453.20
609.68	45553.85
609.84	45214.47
609.99	45464.91
610.15	45382.99
610.30	45235.53
610.46	45015.52
610.61	45294.05
610.76	44863.39
610.92	45036.59
611.07	44868.07
611.23	44914.88
611.38	45146.59
611.54	45251.92
611.69	45134.89
611.84	45745.77
612.00	45013.18
612.15	44795.51
612.31	45160.64
612.46	44470.18
612.62	44870.41
612.77	45162.98
612.92	45481.29
613.08	45160.64
613.23	45177.02
613.39	44954.67
613.54	45139.57
613.69	45134.89
613.85	44854.03
614.00	44697.21
614.15	44795.51
614.31	45158.30
614.46	44449.11
614.62	44697.21
614.77	44680.83
614.92	45027.23
615.08	44729.98
615.23	45078.72
615.38	44790.83
615.54	44877.43
615.69	44877.43
615.84	44678.49
616.00	44559.12
616.15	44795.51
616.30	44952.33
616.46	44437.41
616.61	44912.54
616.76	44561.46
616.92	44629.34
617.07	44575.50
617.22	44601.25
617.37	44610.61
617.53	44519.33
617.68	44140.16
617.83	44793.17
617.99	44559.12
618.14	44437.41
618.29	44357.83
618.45	44238.47
618.60	44083.99
618.75	43679.08
618.90	44086.33
619.06	44027.82
619.21	44416.35
619.36	44561.46
619.51	44322.72
619.67	44245.49
619.82	44128.46
619.97	44526.35
620.12	44411.67
620.28	44231.44
620.43	44575.50
620.58	44505.29
620.73	44322.72
620.89	44629.34
621.04	44538.05
621.19	44189.31
621.34	44229.10
621.49	44135.48
621.65	44399.96
621.80	44210.38
621.95	44472.52
622.10	44044.20
622.25	44177.61
622.41	44041.86
622.56	43758.66
622.71	44175.27
622.86	44219.74
623.01	44006.75
623.16	44048.88
623.32	43917.81
623.47	44076.97
623.62	43768.02
623.77	43676.74
623.92	43732.91
624.07	43796.10
624.23	43880.36
624.38	44130.80
624.53	43683.76
624.68	43236.72
624.83	43515.24
624.98	43641.63
625.13	43313.95
625.29	43107.99
625.44	43730.57
625.59	43632.27
625.74	44067.61
625.89	43349.06
626.04	43250.76
626.19	43662.69
626.34	43484.81
626.49	43133.73
626.65	42541.58
626.80	43201.61
626.95	42588.39
627.10	43248.42
627.25	42866.91
627.40	43763.34
627.55	43264.80
627.70	43267.14
627.85	43192.25
628.00	42925.42
628.15	43248.42
628.30	42609.45
628.45	42712.44
628.60	42593.07
628.76	42726.48
628.91	43042.45
629.06	42742.86
629.21	42787.33
629.36	42780.31
629.51	43222.67
629.66	43206.29
629.81	42803.72
629.96	42508.81
630.11	42621.16
630.26	42611.79
630.41	42976.92
630.56	42904.36
630.71	42731.16
630.86	42777.97
631.01	42298.16
631.16	42663.28
631.31	42574.34
631.46	42490.09
631.61	42473.70
631.76	42880.95
631.91	42813.08
632.06	42810.74
632.21	42464.34
632.36	42918.40
632.51	41926.02
632.66	42553.28
632.81	41792.61
632.96	42408.17
633.10	42209.22
633.25	42305.18
633.40	42225.60
633.55	42539.24
633.70	42007.94
633.85	42029.00
634.00	41691.96
634.15	41808.99
634.30	41797.29
634.45	41958.78
634.60	41883.89
634.75	42351.99
634.90	42183.48
635.05	42253.69
635.19	41893.25
635.34	42094.53
635.49	41813.67
635.64	42134.32
635.79	41792.61
635.94	42642.22
636.09	41947.08
636.24	41879.21
636.39	42007.94
636.53	41970.49
636.68	41600.68
636.83	41649.83
636.98	41193.43
637.13	41228.54
637.28	41605.36
637.43	41663.88
637.57	41624.09
637.72	41343.22
637.87	41263.64
638.02	41113.85
638.17	41645.15
638.32	41525.78
638.46	41006.19
638.61	41453.23
638.76	40835.33
638.91	41542.17
639.06	41083.42
639.20	41284.71
639.35	41273.01
639.50	41254.28
639.65	41228.54
639.80	41153.64
639.94	41118.53
640.09	40992.14
640.24	41146.62
640.39	40849.37
640.54	40622.34
640.68	41460.25
640.83	41563.23
640.98	41064.70
641.13	40615.32
641.27	41125.55
641.42	40748.73
641.57	40542.76
641.72	40732.34
641.86	40884.48
642.01	40772.13
642.16	40467.86
642.31	40357.86
642.45	40187.00
642.60	40767.45
642.75	40842.35
642.90	41060.02
643.04	40481.91
643.19	40561.48
643.34	40058.27
643.48	39966.99
643.63	40488.93
643.78	40669.15
643.93	40924.27
644.07	40896.18
644.22	40514.67
644.37	40676.17
644.51	40732.34
644.66	40610.64
644.81	40528.72
644.95	40250.19
645.10	40404.67
645.25	40308.71
645.39	40390.62
645.54	40076.99
645.69	39655.70
645.83	40231.47
645.98	39592.50
646.13	39931.88
646.27	40055.93
646.42	40175.30
646.57	40025.50
646.71	40161.25
646.86	40060.61
647.00	40491.27
647.15	39985.71
647.30	40006.78
647.44	39508.24
647.59	39742.30
647.74	39702.51
647.88	39763.36
648.03	40479.57
648.17	40526.38
648.32	39606.55
648.47	40250.19
648.61	39428.66
648.76	39758.68
648.90	39887.41
649.05	39873.37
649.20	39651.02
649.34	39651.02
649.49	39594.84
649.63	39723.57
649.78	39482.50
649.92	39873.37
650.07	39793.79
650.21	39639.31
650.36	39805.49
650.51	39463.77
650.65	39908.47
650.80	39824.22
650.94	39262.49
651.09	39232.06
651.23	39510.58
651.38	39325.68
651.52	38838.85
651.67	39068.22
651.81	39213.34
651.96	39421.64
652.10	39173.55
652.25	39016.73
652.39	39182.91
652.54	39536.33
652.68	39171.21
652.83	38829.49
652.97	39016.73
653.12	38885.66
653.26	38529.90
653.41	38888.00
653.55	38948.85
653.70	39337.38
653.84	38930.13
653.99	39124.40
654.13	39103.33
654.27	38712.46
654.42	38920.77
654.56	38691.40
654.71	38651.61
654.85	38539.26
655.00	39129.08
655.14	38625.86
655.29	39171.21
655.43	38911.41
655.57	38309.89
655.72	38527.56
655.86	38787.36
656.01	38689.06
656.15	38419.89
656.30	38717.14
656.44	38754.59
656.58	38333.29
656.73	38267.76
656.87	38230.31
657.01	38185.84
657.16	38534.58
657.30	38291.16
657.45	38209.25
657.59	38024.34
657.73	38122.65
657.88	38506.49
658.02	38124.99
658.16	38424.57
658.31	38258.40
658.45	38251.38
658.60	38279.46
658.74	38092.22
658.88	38359.04
659.03	37874.55
659.17	37443.89
659.31	37556.24
659.46	37811.35
659.60	37841.78
659.74	37233.24
659.89	37544.53
660.03	36917.27
660.17	37816.04
660.32	37408.78
660.46	37816.04
660.60	37015.57
660.74	37167.71
660.89	37479.00
661.03	37228.56
661.17	37071.75
661.32	36538.10
661.46	37287.07
661.60	36940.68
661.74	37251.97
661.89	37186.43
662.03	37181.75
662.17	36957.06
662.31	36414.05
662.46	37062.38
662.60	36467.89
662.74	36655.13
662.88	36491.29
663.03	35592.53
663.17	36411.71
663.31	36519.38
663.45	36678.54
663.60	36718.32
663.74	36465.55
663.88	36514.70
664.02	36070.00
664.17	36500.65
664.31	36158.94
664.45	36009.14
664.59	36044.25
664.73	36121.49
664.88	35908.50
665.02	35896.80
665.16	35608.91
665.30	36165.96
665.44	35903.82
665.59	35913.18
665.73	35842.96
665.87	35564.44
666.01	35791.47
666.15	35459.12
666.29	35683.81
666.44	35653.38
666.58	35522.31
666.72	35424.01
666.86	35299.96
667.00	35040.16
667.14	35037.82
667.28	34897.39
667.43	35005.05
667.57	35248.47
667.71	34932.50
667.85	35002.71
667.99	35061.22
668.13	34550.99
668.27	34703.12
668.41	34581.42
668.56	34232.68
668.70	34684.40
668.84	33965.85
668.98	34038.41
669.12	34553.33
669.26	34258.42
669.40	34132.03
669.54	34419.92
669.68	34518.22
669.82	34019.69
669.96	33745.84
670.10	33507.11
670.25	33869.89
670.39	33427.53
670.53	34043.09
670.67	34043.09
670.81	33532.86
670.95	34080.54
671.09	33385.40
671.23	33202.84
671.37	33326.89
671.51	33083.47
671.65	33036.66
671.79	33453.28
671.93	33401.79
672.07	33170.07
672.21	33055.39
672.35	32992.19
672.49	33163.05
672.63	33572.64
672.77	32893.89
672.91	32617.71
673.05	32957.08
673.19	32458.55
673.33	32519.40
673.47	32402.38
673.61	32126.19
673.75	32348.54
673.89	31803.20
674.03	31906.18
674.17	31878.10
674.31	32191.73
674.45	31339.77
674.59	31749.37
674.73	31817.24
674.87	31871.07
675.01	31009.76
675.15	30962.95
675.29	31384.24
675.43	31316.37
675.56	31524.68
675.70	31082.31
675.84	31000.40
675.98	30209.29
676.12	31201.68
676.26	30913.80
676.40	30986.35
676.54	30321.64
676.68	30445.69
676.82	30408.24
676.96	30082.91
677.10	30586.12
677.23	30246.74
677.37	30085.25
677.51	30129.72
677.65	29797.36
677.79	30050.14
677.93	30218.66
678.07	29685.01
678.21	29579.69
678.34	29275.42
678.48	29853.53
678.62	29242.65
678.76	29223.93
678.90	29455.64
679.04	29015.62
679.18	29057.75
679.31	28826.04
679.45	28840.08
679.59	28577.94
679.73	28676.24
679.87	28535.81
680.00	28463.25
680.14	28725.39
680.28	28320.48
680.42	28233.88
680.56	28170.69
680.70	27814.93
680.83	27711.94
680.97	27531.72
681.11	27974.08
681.25	27513.00
681.39	27241.50
681.52	27445.12
681.66	27035.53
681.80	26740.62
681.94	26511.25
682.07	26881.05
682.21	27014.46
682.35	26757.00
682.49	26525.29
682.62	26642.32
682.76	26843.60
682.90	26518.27
683.04	26153.15
683.17	26284.22
683.31	26412.95
683.45	25944.84
683.59	26103.99
683.72	26075.91
683.86	25813.77
684.00	26036.12
684.13	25399.49
684.27	25553.97
684.41	25500.14
684.55	25500.14
684.68	25238.00
684.82	25331.62
684.96	24975.86
685.09	25085.86
685.23	25125.65
685.37	25144.38
685.50	25263.74
685.64	25214.59
685.78	24931.39
685.91	24474.98
686.05	24407.11
686.19	23999.85
686.32	24446.90
686.46	23604.30
686.60	23590.26
686.73	23772.82
686.87	24077.09
687.01	23548.13
687.14	23990.49
687.28	23807.93
687.42	23597.28
687.55	23527.06
687.69	23435.78
687.82	23335.14
687.96	23234.50
688.10	23211.09
688.23	23143.22
688.37	23049.60
688.50	23136.20
688.64	22862.35
688.78	22766.39
688.91	22806.18
689.05	22700.86
689.18	22345.09
689.32	22260.84
689.46	22174.24
689.59	22396.59
689.73	22541.70
689.86	22534.68
690.00	21977.63
690.13	21848.90
690.27	21570.38
690.41	21638.25
690.54	21743.58
690.68	21778.68
690.81	21572.72
690.95	21366.75
691.08	21273.13
691.22	20709.06
691.35	20924.39
691.49	21156.10
691.62	21032.05
691.76	20865.88
691.89	20669.27
692.03	20240.95
692.16	20357.98
692.30	20671.61
692.43	20343.94
692.57	20278.40
692.70	19899.23
692.84	19768.16
692.97	19571.56
693.11	19667.52
693.24	19531.77
693.38	19864.13
693.51	19520.07
693.65	19489.64
693.78	19403.04
693.92	19215.80
694.05	19054.30
694.19	19040.26
694.32	19360.91
694.45	19391.34
694.59	19269.63
694.72	19370.27
694.86	19082.39
694.99	18607.26
695.13	18710.24
695.26	18427.04
695.39	18534.70
695.53	18600.24
695.66	18429.38
695.80	18143.83
695.93	18403.63
696.07	18139.15
696.20	18164.90
696.33	17652.32
696.47	17525.93
696.60	17755.30
696.73	17839.56
696.87	17633.60
697.00	17891.06
697.14	17415.93
697.27	17429.97
697.40	17242.73
697.54	16964.20
697.67	17209.96
697.80	17053.14
697.94	16812.07
698.07	16975.91
698.21	16624.83
698.34	16594.40
698.47	16699.72
698.61	16250.34
698.74	16252.68
698.87	16196.51
699.01	16074.80
699.14	16140.33
699.27	15836.06
699.40	16128.63
699.54	15789.25
699.67	16088.84
699.80	15981.18
699.94	15735.42
700.07	16065.44
700.20	15807.98
700.34	15573.92
700.47	15683.93
700.60	15646.48
700.73	15321.15
700.87	15419.45
701.00	15054.33
701.13	15021.56
701.26	15080.07
701.40	14815.59
701.53	14956.02
701.66	14984.11
701.79	15066.03
701.93	14796.87
702.06	14668.14
702.19	14656.43
702.32	14469.19
702.46	14682.18
702.59	14478.55
702.72	14593.24
702.85	14410.68
702.99	14286.63
703.12	14193.01
703.25	14190.67
703.38	13926.19
703.51	13902.78
703.65	13982.36
703.78	13795.12
703.91	13804.48
704.04	13626.60
704.17	13315.31
704.31	13444.04
704.44	13273.18
704.57	13467.44
704.70	13287.22
704.83	13338.71
704.96	13081.25
705.10	13043.81
705.23	13013.38
>>>>>End Processed Spectral Data<<<<<
