SpectraSuite Data File
++++++++++++++++++++++++++++++++++++
Date: Fri Oct 25 10:43:32 EDT 2013
User: price-jones
Dark Spectrum Present: No
Reference Spectrum Present: No
Number of Sampled Component Spectra: 1
Spectrometers: USB2+H05261
Integration Time (usec): 100000 (USB2+H05261)
Spectra Averaged: 1 (USB2+H05261)
Boxcar Smoothing: 0 (USB2+H05261)
Correct for Electrical Dark: No (USB2+H05261)
Strobe/Lamp Enabled: No (USB2+H05261)
Correct for Detector Non-linearity: No (USB2+H05261)
Correct for Stray Light: No (USB2+H05261)
Number of Pixels in Processed Spectrum: 2048
>>>>>Begin Processed Spectral Data<<<<<
365.73	126.39
365.92	126.39
366.12	126.39
366.32	114.69
366.52	0.00
366.72	28.09
366.91	0.00
367.11	25.75
367.31	25.75
367.51	44.47
367.70	21.06
367.90	0.00
368.10	9.36
368.30	67.88
368.49	0.00
368.69	37.45
368.89	0.00
369.09	14.04
369.28	74.90
369.48	28.09
369.68	112.35
369.87	124.05
370.07	100.64
370.27	42.13
370.47	180.22
370.66	337.04
370.86	395.55
371.06	425.98
371.25	425.98
371.45	402.57
371.65	404.91
371.84	416.62
372.04	386.19
372.24	521.94
372.44	451.72
372.63	521.94
372.83	461.09
373.03	510.24
373.22	430.66
373.42	528.96
373.62	543.00
373.81	526.62
374.01	575.77
374.21	589.82
374.40	510.24
374.60	610.88
374.79	535.98
374.99	528.96
375.19	636.63
375.38	566.41
375.58	627.26
375.78	613.22
375.97	657.69
376.17	608.54
376.37	629.60
376.56	648.33
376.76	695.14
376.95	620.24
377.15	636.63
377.35	636.63
377.54	622.58
377.74	660.03
377.93	641.31
378.13	695.14
378.33	690.46
378.52	648.33
378.72	617.90
378.91	610.88
379.11	653.01
379.31	678.76
379.50	641.31
379.70	739.61
379.89	695.14
380.09	725.57
380.28	641.31
380.48	709.18
380.68	699.82
380.87	676.41
381.07	657.69
381.26	704.50
381.46	648.33
381.65	702.16
381.85	723.23
382.04	725.57
382.24	711.52
382.43	767.70
382.63	739.61
382.83	671.73
383.02	753.65
383.22	730.25
383.41	657.69
383.61	753.65
383.80	720.88
384.00	765.36
384.19	889.40
384.39	891.74
384.58	730.25
384.78	791.10
384.97	770.04
385.17	809.83
385.36	819.19
385.56	746.63
385.75	739.61
385.95	851.96
386.14	851.96
386.34	814.51
386.53	873.02
386.72	807.48
386.92	751.31
387.11	800.46
387.31	812.17
387.50	891.74
387.70	919.83
387.89	917.49
388.09	919.83
388.28	856.64
388.48	936.21
388.67	901.11
388.86	917.49
389.06	978.34
389.25	961.96
389.45	983.02
389.64	983.02
389.84	973.66
390.03	987.71
390.22	985.37
390.42	1057.92
390.61	1011.11
390.81	1013.45
391.00	1053.24
391.19	1093.03
391.39	1128.14
391.58	1027.50
391.78	1121.12
391.97	1050.90
392.16	1025.15
392.36	990.05
392.55	919.83
392.75	978.34
392.94	908.13
393.13	978.34
393.33	1015.79
393.52	1032.18
393.71	1071.97
393.91	1039.20
394.10	1006.43
394.29	1107.07
394.49	1093.03
394.68	1228.78
394.88	1238.14
395.07	1181.97
395.26	1097.71
395.46	1200.69
395.65	1308.36
395.84	1217.08
396.04	1256.87
396.23	1142.18
396.42	1118.78
396.62	1210.06
396.81	1221.76
397.00	1196.01
397.19	1149.20
397.39	1401.98
397.58	1359.85
397.77	1392.62
397.97	1376.24
398.16	1387.94
398.35	1423.05
398.55	1453.47
398.74	1469.86
398.93	1558.80
399.12	1476.88
399.32	1479.22
399.51	1502.62
399.70	1638.38
399.90	1488.58
400.09	1549.43
400.28	1598.59
400.47	1540.07
400.67	1647.74
400.86	1614.97
401.05	1734.34
401.24	1612.63
401.44	1746.04
401.63	1717.95
401.82	1743.70
402.01	1577.52
402.21	1614.97
402.40	1736.68
402.59	1832.64
402.78	1633.69
402.97	1708.59
403.17	1710.93
403.36	1643.06
403.55	1914.56
403.74	1907.54
403.93	1846.68
404.13	1839.66
404.32	1856.04
404.51	1856.04
404.70	1902.86
404.89	1863.07
405.09	1900.52
405.28	1968.39
405.47	1987.11
405.66	1797.53
405.85	2111.16
406.05	1984.77
406.24	1907.54
406.43	1987.11
406.62	2132.23
406.81	2080.74
407.00	2015.20
407.20	2033.93
407.39	2026.90
407.58	2134.57
407.77	2146.27
407.96	2214.15
408.15	2258.62
408.34	2099.46
408.54	2328.83
408.73	2349.90
408.92	2424.80
409.11	2342.88
409.30	2396.71
409.49	2347.56
409.68	2319.47
409.87	2307.77
410.07	2293.72
410.26	2328.83
410.45	2382.67
410.64	2450.54
410.83	2462.24
411.02	2555.86
411.21	2581.61
411.40	2586.29
411.59	2640.12
411.78	2546.50
411.98	2527.78
412.17	2661.19
412.36	2715.02
412.55	2626.08
412.74	2775.88
412.93	2635.44
413.12	2630.76
413.31	2825.03
413.50	2839.07
413.69	2857.79
413.88	2799.28
414.07	2925.67
414.26	2923.33
414.45	2878.86
414.64	2918.65
414.83	2972.48
415.02	2953.76
415.22	3042.70
415.41	3052.06
415.60	3187.81
415.79	3159.72
415.98	3211.22
416.17	3187.81
416.36	3162.06
416.55	3288.45
416.74	3304.84
416.93	3213.56
417.12	3344.63
417.31	3438.25
417.50	3311.86
417.69	3269.73
417.88	3475.70
418.07	3323.56
418.26	3456.97
418.45	3471.01
418.64	3676.98
418.83	3478.04
419.02	3571.66
419.21	3545.91
419.39	3651.24
419.58	3623.15
419.77	3625.49
419.96	3700.39
420.15	3541.23
420.34	3667.62
420.53	3667.62
420.72	3840.82
420.91	3770.60
421.10	3831.46
421.29	3824.44
421.48	3768.26
421.67	3691.02
421.86	3695.71
422.05	3786.99
422.24	3702.73
422.43	3808.05
422.61	3859.54
422.80	3735.50
422.99	3794.01
423.18	3964.87
423.37	3941.46
423.56	3892.31
423.75	4021.04
423.94	3859.54
424.13	3644.21
424.32	3684.00
424.50	3983.59
424.69	4121.68
424.88	3911.04
425.07	3824.44
425.26	3817.41
425.45	3957.85
425.64	3920.40
425.83	3843.16
426.01	4042.11
426.20	4100.62
426.39	4009.34
426.58	3985.93
426.77	3873.59
426.96	3936.78
427.15	3983.59
427.33	4018.70
427.52	3915.72
427.71	4084.23
427.90	4091.26
428.09	4212.96
428.28	4133.39
428.46	4145.09
428.65	4119.34
428.84	4159.13
429.03	4294.88
429.22	3981.25
429.40	4100.62
429.59	4140.41
429.78	3969.55
429.97	3899.33
430.16	4032.74
430.34	3854.86
430.53	4100.62
430.72	4222.33
430.91	4126.36
431.10	4397.87
431.28	4397.87
431.47	4587.45
431.66	4671.71
431.85	4301.90
432.03	4617.88
432.22	4493.83
432.41	4559.36
432.60	4688.09
432.79	4690.43
432.97	4800.44
433.16	4624.90
433.35	4638.94
433.54	4526.60
433.72	4685.75
433.91	4519.57
434.10	4751.29
434.28	4849.59
434.47	4833.21
434.66	4826.18
434.85	5011.09
435.03	4774.69
435.22	4847.25
435.41	5053.22
435.59	4917.47
435.78	5064.92
435.97	5022.79
436.16	5125.77
436.34	5067.26
436.53	5254.50
436.72	5247.48
436.90	5064.92
437.09	5198.33
437.28	5008.75
437.46	5078.96
437.65	5142.16
437.84	5172.58
438.02	5167.90
438.21	5125.77
438.40	5200.67
438.58	5390.25
438.77	5448.77
438.96	5373.87
439.14	5504.94
439.33	5493.24
439.52	5387.91
439.70	5617.29
439.89	5621.97
440.08	5589.20
440.26	5771.76
440.45	5605.58
440.63	5832.62
440.82	5928.58
441.01	5891.13
441.19	5877.09
441.38	6019.86
441.57	5973.05
441.75	6183.70
441.94	6359.24
442.12	6406.05
442.31	6317.11
442.50	6282.00
442.68	6162.63
442.87	6253.91
443.05	6230.51
443.24	6459.88
443.43	6382.64
443.61	6518.39
443.80	6569.88
443.98	6368.60
444.17	6188.38
444.35	6544.14
444.54	6537.12
444.73	6450.52
444.91	6476.26
445.10	6462.22
445.28	6436.47
445.47	6429.45
445.65	6518.39
445.84	6459.88
446.02	6621.38
446.21	6392.00
446.39	6553.50
446.58	6476.26
446.77	6677.55
446.95	6384.98
447.14	6649.46
447.32	6740.74
447.51	6544.14
447.69	6668.19
447.88	6684.57
448.06	6757.13
448.25	6581.59
448.43	6700.95
448.62	6670.53
448.80	6544.14
448.99	6794.58
449.17	6738.40
449.36	6775.85
449.54	6876.49
449.73	6899.90
449.91	6970.12
450.10	7014.59
450.28	7213.53
450.46	7169.06
450.65	7220.55
450.83	7194.81
451.02	7190.13
451.20	7133.95
451.39	7309.49
451.57	7040.33
451.76	7040.33
451.94	7215.87
452.13	7405.46
452.31	6960.75
452.49	7108.21
452.68	7159.70
452.86	7267.36
453.05	7346.94
453.23	7300.13
453.42	7375.03
453.60	7148.00
453.78	7396.09
453.97	7337.58
454.15	7424.18
454.34	7201.83
454.52	7744.83
454.70	7529.50
454.89	7679.30
455.07	7466.31
455.26	7538.87
455.44	7501.42
455.62	7728.45
455.81	7616.10
455.99	7901.65
456.17	7796.32
456.36	7660.57
456.54	7868.88
456.73	7873.56
456.91	8126.34
457.09	8002.29
457.28	8306.56
457.46	7775.26
457.64	8138.04
457.83	8145.06
458.01	7976.55
458.19	8147.40
458.38	8131.02
458.56	8299.54
458.74	8198.90
458.93	8098.25
459.11	8315.92
459.29	8250.39
459.48	8201.24
459.66	8159.11
459.84	8304.22
460.03	8376.78
460.21	8325.29
460.39	8496.14
460.57	8421.25
460.76	8519.55
460.94	8702.11
461.12	8629.56
461.31	8557.00
461.49	8748.92
461.67	8683.39
461.85	8800.41
462.04	8802.75
462.22	9282.56
462.40	8847.22
462.59	8863.61
462.77	8922.12
462.95	8957.23
463.13	9008.72
463.32	9114.05
463.50	8908.08
463.68	8912.76
463.86	8858.93
464.05	8826.16
464.23	8835.52
464.41	8802.75
464.59	8842.54
464.78	9191.28
464.96	8987.66
465.14	9193.62
465.32	9156.18
465.50	9123.41
465.69	9156.18
465.87	9207.67
466.05	9090.64
466.23	9071.92
466.41	9329.38
466.60	9348.10
466.78	9013.40
466.96	9312.99
467.14	9383.21
467.32	9406.61
467.51	9479.17
467.69	9268.52
467.87	9191.28
468.05	9453.42
468.23	9448.74
468.41	9327.03
468.60	9341.08
468.78	9619.60
468.96	9453.42
469.14	9467.47
469.32	9554.07
469.50	9495.55
469.69	9596.20
469.87	9799.82
470.05	9848.97
470.23	9898.13
470.41	9521.30
470.59	9898.13
470.77	9926.21
470.95	9998.77
471.14	9928.55
471.32	10073.67
471.50	10469.22
471.68	10506.66
471.86	10183.67
472.04	10324.10
472.22	10567.52
472.40	10300.70
472.58	10223.46
472.77	10438.79
472.95	10399.00
473.13	10775.83
473.31	10544.11
473.49	10532.41
473.67	10621.35
473.85	10733.70
474.03	10867.11
474.21	10895.19
474.39	10953.71
474.57	10841.36
474.75	11147.97
474.93	11014.56
475.12	11152.65
475.30	11171.38
475.48	10927.96
475.66	11346.92
475.84	11225.21
476.02	11506.07
476.20	11342.24
476.38	11426.50
476.56	11826.73
476.74	11714.38
476.92	11756.51
477.10	11723.74
477.28	11939.07
477.46	12095.89
477.64	12208.23
477.82	12367.39
478.00	12461.01
478.18	12409.52
478.36	12456.33
478.54	12669.32
478.72	12786.35
478.90	12868.27
479.08	13263.82
479.26	12879.97
479.44	12877.63
479.62	13125.72
479.80	13214.66
479.98	13418.29
480.16	13626.60
480.34	13635.96
480.52	13394.89
480.70	13839.59
480.88	13476.80
481.06	13799.80
481.24	13785.76
481.41	14118.11
481.59	14113.43
481.77	14427.06
481.95	14232.80
482.13	14553.45
482.31	14553.45
482.49	14843.68
482.67	14663.46
482.85	14857.72
483.03	15117.52
483.21	15419.45
483.39	15302.42
483.57	15143.27
483.74	15274.34
483.92	15765.85
484.10	15566.90
484.28	15885.22
484.46	16032.67
484.64	16184.80
484.82	16065.44
485.00	16276.09
485.18	16346.30
485.35	16535.88
485.53	16018.63
485.71	15941.39
485.89	16458.65
486.07	16210.55
486.25	16369.71
486.43	16865.90
486.61	16856.54
486.78	17076.55
486.96	17530.61
487.14	17530.61
487.32	17444.01
487.50	17919.14
487.68	17839.56
487.85	18073.62
488.03	18216.39
488.21	18340.44
488.39	18459.81
488.57	18310.01
488.75	18384.91
488.92	18913.87
489.10	19089.41
489.28	19054.30
489.46	19604.33
489.64	19363.25
489.81	19803.27
489.99	20154.35
490.17	20123.93
490.35	20044.35
490.53	20025.62
490.70	20226.91
490.88	20245.63
491.06	20755.87
491.24	20751.19
491.41	20788.64
491.59	20776.94
491.77	20624.80
491.95	20713.74
492.13	21118.65
492.30	21448.67
492.48	21600.80
492.66	21710.81
492.84	22171.89
493.01	21961.25
493.19	21984.65
493.37	22281.90
493.54	22045.51
493.72	22450.42
493.90	22396.59
494.08	22588.51
494.25	22970.02
494.43	23140.88
494.61	23534.09
494.79	23084.70
494.96	23372.59
495.14	23470.89
495.32	23700.26
495.49	23480.25
495.67	23704.95
495.85	23843.04
496.02	24374.34
496.20	23929.64
496.38	24072.41
496.55	24278.38
496.73	24744.14
496.91	24732.44
497.09	24797.98
497.26	25287.15
497.44	24463.28
497.62	25095.22
497.79	25156.08
497.97	24802.66
498.14	25146.72
498.32	25579.71
498.50	25750.57
498.67	25883.98
498.85	25921.43
499.03	25940.16
499.20	26380.18
499.38	25965.90
499.56	26258.47
499.73	26160.17
499.91	26253.79
500.08	26160.17
500.26	26314.64
500.44	26511.25
500.61	26717.22
500.79	26361.45
500.97	26703.17
501.14	26974.67
501.32	26941.91
501.49	26876.37
501.67	27168.94
501.84	26981.70
502.02	27250.86
502.20	27433.42
502.37	27550.45
502.55	27789.18
502.72	27599.60
502.90	27913.23
503.07	27770.46
503.25	28091.11
503.43	27447.46
503.60	27704.92
503.78	27838.33
503.95	28158.99
504.13	28196.43
504.30	28250.27
504.48	28341.55
504.65	28760.50
504.83	28542.83
505.01	29132.65
505.18	28584.96
505.36	29263.72
505.53	29181.80
505.71	29483.73
505.88	29610.12
506.06	29397.13
506.23	29556.28
506.41	29507.13
506.58	29600.76
506.76	29764.59
506.93	29525.86
507.11	29680.33
507.28	29621.82
507.46	29820.77
507.63	29773.95
507.81	30080.56
507.98	29797.36
508.16	30534.63
508.33	30560.37
508.50	30703.15
508.68	30700.81
508.85	31103.38
509.03	30794.43
509.20	31002.74
509.38	31037.84
509.55	30869.33
509.73	31356.16
509.90	31388.92
510.08	31012.10
510.25	30904.43
510.42	31517.65
510.60	31775.11
510.77	31903.84
510.95	32086.40
511.12	31639.36
511.30	32128.53
511.47	31974.06
511.64	32341.52
511.82	32175.34
511.99	32168.32
512.17	31971.72
512.34	31995.12
512.51	32250.24
512.69	32456.21
512.86	32479.61
513.04	32549.83
513.21	32549.83
513.38	32788.56
513.56	32439.82
513.73	32444.51
513.90	32723.03
514.08	32645.79
514.25	33202.84
514.43	32807.29
514.60	32954.74
514.77	32978.15
514.95	33811.38
515.12	33462.64
515.29	33266.03
515.47	33359.66
515.64	33724.78
515.81	33567.96
515.99	33689.67
516.16	33656.90
516.33	33684.99
516.51	33617.11
516.68	32800.27
516.85	32891.55
517.03	33500.09
517.20	33610.09
517.37	33968.19
517.54	34089.90
517.72	33703.71
517.89	33518.81
518.06	33823.08
518.24	33659.24
518.41	34073.52
518.58	34333.32
518.75	34141.39
518.93	34642.27
519.10	34293.53
519.27	34710.14
519.45	34487.79
519.62	35449.75
519.79	34955.90
519.96	35005.05
520.14	35304.64
520.31	34895.05
520.48	35119.74
520.65	35388.90
520.83	35480.18
521.00	35433.37
521.17	35896.80
521.34	35693.17
521.52	36006.80
521.69	36039.57
521.86	35955.31
522.03	35981.06
522.20	36079.36
522.38	35962.33
522.55	36189.36
522.72	36304.05
522.89	36341.50
523.07	36400.01
523.24	36308.73
523.41	36737.05
523.58	36435.12
523.75	37008.55
523.92	37015.57
524.10	37055.36
524.27	36943.02
524.44	37385.38
524.61	37401.76
524.78	37301.12
524.96	37359.63
525.13	37055.36
525.30	37397.08
525.47	37942.42
525.64	37441.55
525.81	37174.73
525.98	37053.02
526.16	37200.47
526.33	37460.27
526.50	36961.74
526.67	36776.84
526.84	37102.17
527.01	37319.84
527.18	37661.56
527.36	37617.09
527.53	38333.29
527.70	38237.33
527.87	37949.45
528.04	38216.27
528.21	38108.60
528.38	38195.20
528.55	38258.40
528.72	38852.89
528.89	38923.11
529.07	38326.27
529.24	38906.73
529.41	38373.08
529.58	38099.24
529.75	38309.89
529.92	38663.31
530.09	38932.47
530.26	38698.42
530.43	39140.78
530.60	38672.67
530.77	38873.96
530.94	39033.11
531.11	39091.63
531.28	38866.94
531.46	38944.17
531.63	39529.31
531.80	39206.31
531.97	39302.28
532.14	39213.34
532.31	39035.45
532.48	39063.54
532.65	39625.27
532.82	39335.04
532.99	39571.44
533.16	39679.10
533.33	39269.51
533.50	40041.88
533.67	39880.39
533.84	39667.40
534.01	39332.70
534.18	39356.11
534.35	40112.10
534.52	40233.81
534.69	40032.52
534.86	40575.53
535.03	40034.86
535.20	40533.40
535.37	41319.82
535.54	40863.41
535.71	40093.38
535.88	40620.00
536.05	40013.80
536.22	40519.35
536.38	40425.73
536.55	40582.55
536.72	40390.62
536.89	39957.63
537.06	40531.06
537.23	40931.29
537.40	40594.25
537.57	41006.19
537.74	40603.61
537.91	41249.60
538.08	40751.07
538.25	40879.80
538.42	40875.12
538.59	41333.86
538.75	40603.61
538.92	41294.07
539.09	41106.83
539.26	40882.14
539.43	41001.50
539.60	40788.52
539.77	41221.52
539.94	41387.69
540.11	40952.35
540.28	41338.54
540.44	41532.81
540.61	41336.20
540.78	41092.79
540.95	41261.30
541.12	41092.79
541.29	41181.73
541.46	41619.41
541.62	41338.54
541.79	41750.48
541.96	41560.89
542.13	41202.79
542.30	41656.85
542.47	41916.65
542.63	41860.48
542.80	42113.26
542.97	42038.36
543.14	42302.84
543.31	42447.96
543.48	42330.93
543.64	42492.43
543.81	42705.41
543.98	42740.52
544.15	42522.85
544.32	43136.07
544.48	43189.91
544.65	42534.56
544.82	42712.44
544.99	42450.30
545.16	42799.04
545.32	42354.33
545.49	43072.88
545.66	43166.50
545.83	42904.36
546.00	42944.15
546.16	42740.52
546.33	42902.02
546.50	42969.90
546.67	42836.48
546.83	42686.69
547.00	42691.37
547.17	43098.62
547.34	42784.99
547.50	42581.37
547.67	43473.11
547.84	42738.18
548.00	43328.00
548.17	43180.54
548.34	43648.65
548.51	43604.18
548.67	43697.80
548.84	43370.13
549.01	43318.64
549.18	43505.88
549.34	43316.29
549.51	43454.39
549.68	43407.58
549.84	43700.14
550.01	43763.34
550.18	43414.60
550.34	43711.84
550.51	43613.54
550.68	43475.45
550.84	43358.42
551.01	43789.08
551.18	43950.58
551.34	43625.25
551.51	43791.42
551.68	43810.15
551.84	43915.47
552.01	43981.01
552.18	43695.46
552.34	43725.89
552.51	43962.28
552.68	43861.64
552.84	44222.08
553.01	44058.24
553.18	43990.37
553.34	44236.12
553.51	43978.67
553.67	44423.37
553.84	44570.82
554.01	44163.57
554.17	44456.14
554.34	44507.63
554.51	44343.79
554.67	44531.03
554.84	44547.42
555.00	44509.97
555.17	44135.48
555.33	44863.39
555.50	44737.00
555.67	44149.53
555.83	44465.50
556.00	44678.49
556.16	45050.63
556.33	44566.14
556.50	44533.37
556.66	44437.41
556.83	44151.87
556.99	44842.32
557.16	44760.40
557.32	44638.70
557.49	44748.70
557.65	44722.96
557.82	44849.35
557.98	44954.67
558.15	44975.73
558.32	44842.32
558.48	44921.90
558.65	45118.51
558.81	44596.57
558.98	45235.53
559.14	44615.29
559.31	44889.13
559.47	44650.40
559.64	45148.93
559.80	45177.02
559.97	44921.90
560.13	45144.25
560.30	45006.16
560.46	44996.80
560.63	45553.85
560.79	45277.66
560.96	45251.92
561.12	45249.58
561.29	45022.54
561.45	45027.23
561.61	45109.14
561.78	44779.13
561.94	45134.89
562.11	44854.03
562.27	45015.52
562.44	45415.76
562.60	45399.37
562.77	45006.16
562.93	45446.18
563.10	45270.64
563.26	44994.46
563.42	45165.32
563.59	45415.76
563.75	45174.68
563.92	45600.66
564.08	45441.50
564.24	45453.20
564.41	45352.56
564.57	45289.37
564.74	44978.07
564.90	45790.24
565.07	45509.38
565.23	45284.68
565.39	45268.30
565.56	45401.71
565.72	44779.13
565.88	45434.48
566.05	45265.96
566.21	45364.26
566.38	44765.09
566.54	45340.86
566.70	45411.07
566.87	45867.48
567.03	45907.27
567.19	45670.87
567.36	45897.91
567.52	45668.53
567.68	45347.88
567.85	45254.26
568.01	45703.64
568.17	45687.26
568.34	45729.39
568.50	45291.71
568.66	45373.63
568.83	45771.52
568.99	45123.19
569.15	45502.35
569.32	45343.20
569.48	45258.94
569.64	46054.72
569.81	45766.84
569.97	45656.83
570.13	45605.34
570.30	45518.74
570.46	45668.53
570.62	45247.24
570.78	45233.19
570.95	45425.12
571.11	45607.68
571.27	45291.71
571.43	45500.01
571.60	45790.24
571.76	45659.17
571.92	45663.85
572.09	45778.54
572.25	45387.67
572.41	45694.28
572.57	45792.58
572.74	45883.86
572.90	45787.90
573.06	46012.59
573.22	45626.40
573.38	45675.55
573.55	45390.01
573.71	46314.52
573.87	46061.74
574.03	45282.34
574.20	45652.15
574.36	45778.54
574.52	45881.52
574.68	45883.86
574.84	45773.86
575.01	45698.96
575.17	45565.55
575.33	45886.20
575.49	45436.82
575.65	45830.03
575.82	45570.23
575.98	45656.83
576.14	45947.06
576.30	45989.19
576.46	45443.84
576.62	45474.27
576.79	45560.87
576.95	45544.48
577.11	45649.81
577.27	45574.91
577.43	46066.42
577.59	45366.60
577.75	45567.89
577.92	45184.04
578.08	45586.61
578.24	45097.44
578.40	45532.78
578.56	45553.85
578.72	45544.48
578.88	45977.48
579.04	45806.62
579.21	45425.12
579.37	45607.68
579.53	46010.25
579.69	45485.97
579.85	45666.19
580.01	45689.60
580.17	45743.43
580.33	45701.30
580.49	45951.74
580.65	45549.17
580.82	45762.15
580.98	45507.04
581.14	45848.75
581.30	45893.22
581.46	45748.11
581.62	45916.63
581.78	45717.68
581.94	45881.52
582.10	45738.75
582.26	45811.31
582.42	45794.92
582.58	45872.16
582.74	45394.69
582.90	45635.77
583.06	45944.72
583.22	45752.79
583.38	45837.05
583.54	46082.81
583.70	46040.68
583.86	45996.21
584.02	45752.79
584.18	45659.17
584.34	45745.77
584.50	45890.88
584.66	45638.11
584.82	45930.67
584.98	45907.27
585.14	46335.59
585.30	45338.52
585.46	45867.48
585.62	45322.13
585.78	45511.72
585.94	45502.35
586.10	45565.55
586.26	45497.67
586.42	46335.59
586.58	45567.89
586.74	46160.05
586.90	45546.82
587.06	45914.29
587.22	45778.54
587.38	46024.29
587.54	46131.96
587.70	45771.52
587.86	45717.68
588.02	45773.86
588.18	45972.80
588.34	45478.95
588.49	45151.27
588.65	45059.99
588.81	45172.34
588.97	45731.73
589.13	45242.56
589.29	45380.65
589.45	45471.93
589.61	45780.88
589.77	45970.46
589.93	45834.71
590.08	45837.05
590.24	46080.47
590.40	46316.86
590.56	46363.67
590.72	45956.42
590.88	45783.22
591.04	45923.65
591.20	46251.33
591.35	46225.58
591.51	45989.19
591.67	46258.35
591.83	45720.02
591.99	45703.64
592.15	45834.71
592.31	46300.48
592.46	45970.46
592.62	46082.81
592.78	46050.04
592.94	46309.84
593.10	46204.52
593.26	46110.89
593.41	46380.06
593.57	45645.13
593.73	45670.87
593.89	46019.61
594.05	46124.94
594.20	46031.32
594.36	46291.12
594.52	45972.80
594.68	45823.01
594.84	45811.31
594.99	46284.09
595.15	45993.87
595.31	46553.26
595.47	46293.46
595.62	46103.87
595.78	46370.69
595.94	46068.76
596.10	45928.33
596.25	46204.52
596.41	45666.19
596.57	45895.56
596.73	46241.96
596.88	45734.07
597.04	45918.97
597.20	46277.07
597.36	45993.87
597.51	46553.26
597.67	45954.08
597.83	45844.07
597.99	46356.65
598.14	45563.21
598.30	46464.32
598.46	46057.06
598.61	45935.35
598.77	45947.06
598.93	46195.15
599.09	46354.31
599.24	46349.63
599.40	46237.28
599.56	46539.21
599.71	45900.25
599.87	46478.36
600.03	46108.55
600.18	46057.06
600.34	45528.10
600.50	46071.10
600.65	45759.81
600.81	46279.41
600.97	46501.76
601.12	46714.75
601.28	45975.14
601.44	45975.14
601.59	45811.31
601.75	45741.09
601.91	45652.15
602.06	45631.08
602.22	46178.77
602.37	46078.13
602.53	46263.03
602.69	46220.90
602.84	45778.54
603.00	45734.07
603.16	45972.80
603.31	46012.59
603.47	45741.09
603.62	46012.59
603.78	46160.05
603.94	46073.45
604.09	46148.34
604.25	46087.49
604.40	46000.89
604.56	46047.70
604.71	46106.21
604.87	45963.44
605.03	45656.83
605.18	45778.54
605.34	45844.07
605.49	45579.59
605.65	46178.77
605.80	45879.18
605.96	45911.95
606.12	45736.41
606.27	45741.09
606.43	45869.82
606.58	45862.80
606.74	45862.80
606.89	46003.23
607.05	45645.13
607.20	45549.17
607.36	45748.11
607.51	46202.18
607.67	46026.63
607.82	45705.98
607.98	45893.22
608.13	45687.26
608.29	45151.27
608.44	45205.11
608.60	45406.39
608.75	45521.08
608.91	45425.12
609.06	45535.12
609.22	45619.38
609.37	45450.86
609.53	45495.33
609.68	45668.53
609.84	45158.30
609.99	45390.01
610.15	45443.84
610.30	45415.76
610.46	45219.15
610.61	45757.47
610.76	45326.81
610.92	45577.25
611.07	45514.06
611.23	45595.98
611.38	45769.18
611.54	45467.25
611.69	45415.76
611.84	45013.18
612.00	44865.73
612.15	45111.49
612.31	45378.31
612.46	44858.71
612.62	45610.02
612.77	45310.43
612.92	45528.10
613.08	45001.48
613.23	44877.43
613.39	44577.84
613.54	44793.17
613.69	45081.06
613.85	44952.33
614.00	45209.79
614.15	45148.93
614.31	44933.60
614.46	45078.72
614.62	45181.70
614.77	45034.25
614.92	44718.28
615.08	44657.42
615.23	44811.90
615.38	44935.95
615.54	44638.70
615.69	44479.54
615.84	44636.36
616.00	44699.55
616.15	44989.78
616.30	44842.32
616.46	44596.57
616.61	44252.51
616.76	44346.13
616.92	44119.10
617.07	44318.04
617.22	44533.37
617.37	44622.31
617.53	44470.18
617.68	44739.34
617.83	44524.01
617.99	44334.43
618.14	44516.99
618.29	44308.68
618.45	44055.90
618.60	44208.04
618.75	43917.81
618.90	43990.37
619.06	44116.76
619.21	44172.93
619.36	44296.98
619.51	44231.44
619.67	44051.22
619.82	44385.92
619.97	43894.41
620.12	43784.40
620.28	43353.74
620.43	43585.46
620.58	43805.47
620.73	44128.46
620.89	43859.30
621.04	43765.68
621.19	44182.29
621.34	44147.18
621.49	43690.78
621.65	43903.77
621.80	44147.18
621.95	43442.68
622.10	43835.89
622.25	43269.48
622.41	43636.95
622.56	43634.61
622.71	43796.10
622.86	43693.12
623.01	43515.24
623.16	43501.20
623.32	43590.14
623.47	43585.46
623.62	43496.52
623.77	43707.16
623.92	43538.65
624.07	43107.99
624.23	43264.80
624.38	43234.38
624.53	43428.64
624.68	43473.11
624.83	43131.39
624.98	43309.27
625.13	42398.80
625.29	43257.78
625.44	42476.04
625.59	42883.30
625.74	42600.09
625.89	42859.89
626.04	42733.50
626.19	42548.60
626.34	42604.77
626.49	42948.83
626.65	42899.68
626.80	43049.47
626.95	42562.64
627.10	42674.99
627.25	42738.18
627.40	42714.78
627.55	42347.31
627.70	42848.19
627.85	42705.41
628.00	42227.95
628.15	42916.06
628.30	42738.18
628.45	42295.82
628.60	42789.67
628.76	42712.44
628.91	42321.57
629.06	42394.12
629.21	42169.43
629.36	42176.45
629.51	42286.46
629.66	42466.68
629.81	41949.42
629.96	41893.25
630.11	42377.74
630.26	42146.03
630.41	42239.65
630.56	41823.03
630.71	41820.69
630.86	42057.09
631.01	41811.33
631.16	41937.72
631.31	41633.45
631.46	41462.59
631.61	41986.87
631.76	42279.44
631.91	41982.19
632.06	42164.75
632.21	41776.22
632.36	41916.65
632.51	41542.17
632.66	41818.35
632.81	41574.94
632.96	41687.28
633.10	41682.60
633.25	41621.75
633.40	41415.78
633.55	41415.78
633.70	41401.74
633.85	41324.50
634.00	41769.20
634.15	41656.85
634.30	41165.34
634.45	41425.14
634.60	41635.79
634.75	41556.21
634.90	41345.56
635.05	40921.93
635.19	41219.17
635.34	42176.45
635.49	41104.49
635.64	41584.30
635.79	41057.68
635.94	41090.44
636.09	40825.96
636.24	40966.40
636.39	40849.37
636.53	41003.85
636.68	40889.16
636.83	40847.03
636.98	41315.14
637.13	40875.12
637.28	41095.13
637.43	41167.68
637.57	41027.25
637.72	40823.62
637.87	40734.68
638.02	40898.52
638.17	40664.47
638.32	40528.72
638.46	40456.16
638.61	40549.78
638.76	40858.73
638.91	40772.13
639.06	40622.34
639.20	40982.78
639.35	41233.22
639.50	40634.04
639.65	40311.05
639.80	40304.02
639.94	40521.69
640.09	40582.55
640.24	40395.31
640.39	40205.72
640.54	40470.20
640.68	40137.85
640.83	40114.44
640.98	40133.17
641.13	40009.12
641.27	40222.11
641.42	40133.17
641.57	39929.54
641.72	40264.24
641.86	39828.90
642.01	39885.07
642.16	40034.86
642.31	39772.72
642.45	40004.44
642.60	39285.89
642.75	39945.92
642.90	40018.48
643.04	40208.06
643.19	40322.75
643.34	39618.25
643.48	39393.56
643.63	39618.25
643.78	39489.52
643.93	40030.18
644.07	39384.19
644.22	39517.60
644.37	39562.08
644.51	39374.83
644.66	40116.78
644.81	39636.97
644.95	39538.67
645.10	39463.77
645.25	39824.22
645.39	39646.33
645.54	39363.13
645.69	39206.31
645.83	39559.73
645.98	38878.64
646.13	38761.61
646.27	39136.10
646.42	38946.51
646.57	38735.87
646.71	39210.99
646.86	38988.64
647.00	39068.22
647.15	39108.01
647.30	39271.85
647.44	38976.94
647.59	38649.27
647.74	38583.73
647.88	38703.10
648.03	39026.09
648.17	38864.60
648.32	39072.90
648.47	38368.40
648.61	38689.06
648.76	39058.86
648.90	38621.18
649.05	38586.07
649.20	38958.22
649.34	39014.39
649.49	38295.85
649.63	38630.54
649.78	38939.49
649.92	38232.65
650.07	39019.07
650.21	38391.81
650.36	38361.38
650.51	38387.13
650.65	38859.91
650.80	38630.54
650.94	38960.56
651.09	38527.56
651.23	37919.02
651.38	38405.85
651.52	38323.93
651.67	38000.94
651.81	38209.25
651.96	38242.01
652.10	38447.98
652.25	38260.74
652.39	38450.32
652.54	38396.49
652.68	38288.82
652.83	38312.23
652.97	38492.45
653.12	38143.71
653.26	37797.31
653.41	37780.93
653.55	38256.06
653.70	37867.53
653.84	38298.19
653.99	37635.81
654.13	37909.66
654.27	37764.54
654.42	37741.14
654.56	37780.93
654.71	38106.26
654.85	37691.99
655.00	38251.38
655.14	37450.91
655.29	37177.07
655.43	37471.98
655.57	36940.68
655.72	37315.16
655.86	37043.66
656.01	36708.96
656.15	36636.41
656.30	36945.36
656.44	37263.67
656.58	37333.89
656.73	37153.66
656.87	36849.39
657.01	36786.20
657.16	37050.68
657.30	36781.52
657.45	36732.37
657.59	36772.16
657.73	37031.96
657.88	37013.23
658.02	37460.27
658.16	36938.33
658.31	37284.73
658.45	37347.93
658.60	36863.44
658.74	37123.24
658.88	37102.17
659.03	37411.12
659.17	36788.54
659.31	36430.44
659.46	36638.75
659.60	36662.15
659.74	36762.79
659.89	36666.83
660.03	36098.08
660.17	36692.58
660.32	36348.52
660.46	37036.64
660.60	36507.68
660.74	36418.74
660.89	36460.87
661.03	35812.54
661.17	36088.72
661.32	36058.29
661.46	36149.57
661.60	35763.39
661.74	35714.23
661.89	35985.74
662.03	35728.28
662.17	36275.96
662.31	36187.02
662.46	36662.15
662.60	35828.92
662.74	35578.48
662.88	35543.38
663.03	35337.41
663.17	35470.82
663.31	35459.12
663.45	35330.39
663.60	35201.66
663.74	35157.19
663.88	35356.13
664.02	34951.22
664.17	35508.27
664.31	35138.46
664.45	34614.18
664.59	34972.28
664.73	34822.49
664.88	35358.47
665.02	34707.80
665.16	34359.06
665.30	34518.22
665.44	34890.37
665.59	34408.22
665.73	34684.40
665.87	34382.47
666.01	34550.99
666.15	34188.21
666.29	34478.43
666.44	34560.35
666.58	34579.07
666.72	34232.68
666.86	34609.50
667.00	34422.26
667.14	33736.48
667.28	34031.39
667.43	34087.56
667.57	34092.24
667.71	34227.99
667.85	34167.14
667.99	34082.88
668.13	33890.96
668.27	34015.01
668.41	33816.06
668.56	33558.60
668.70	33802.02
668.84	33418.17
668.98	33589.03
669.12	33495.41
669.26	33209.86
669.40	33186.46
669.54	32954.74
669.68	33312.84
669.82	32755.80
669.96	32926.66
670.10	32512.38
670.25	32507.70
670.39	32872.82
670.53	32732.39
670.67	32673.88
670.81	32708.99
670.95	32484.30
671.09	32512.38
671.23	32201.09
671.37	32643.45
671.51	32734.73
671.65	32170.66
671.79	31847.67
671.93	32297.05
672.07	32320.46
672.21	31934.27
672.35	31824.26
672.49	32133.21
672.63	31475.52
672.77	31971.72
672.91	31655.75
673.05	31871.07
673.19	31850.01
673.33	31372.54
673.47	31456.80
673.61	31274.24
673.75	31330.41
673.89	30998.06
674.03	31054.23
674.17	31239.13
674.31	31571.49
674.45	31138.49
674.59	31152.53
674.73	31178.28
674.87	30958.27
675.01	30810.81
675.15	30654.00
675.29	30565.06
675.43	30871.67
675.56	31094.02
675.70	30768.68
675.84	30597.82
675.98	29532.88
676.12	30223.34
676.26	30483.14
676.40	30415.26
676.54	30352.07
676.68	30532.29
676.82	29514.16
676.96	29701.40
677.10	29832.47
677.23	29507.13
677.37	29319.89
677.51	29879.28
677.65	29123.29
677.79	28751.14
677.93	29090.52
678.07	28535.81
678.21	28648.16
678.34	28453.89
678.48	28283.03
678.62	28610.71
678.76	27861.74
678.90	28133.24
679.04	28044.30
679.18	28126.22
679.31	27878.12
679.45	27908.55
679.59	27758.75
679.73	28006.85
679.87	27740.03
680.00	27751.73
680.14	27569.17
680.28	27585.55
680.42	27311.71
680.56	27522.36
680.70	27463.85
680.83	27557.47
680.97	26892.76
681.11	26986.38
681.25	27007.44
681.39	26794.45
681.52	27185.32
681.66	26775.73
681.80	26974.67
681.94	26288.90
682.07	26515.93
682.21	26340.39
682.35	26581.46
682.49	26061.87
682.62	26272.51
682.76	25874.62
682.90	26129.74
683.04	26085.27
683.17	25853.56
683.31	25757.60
683.45	25497.80
683.59	25282.47
683.72	25647.59
683.86	25481.41
684.00	25710.78
684.13	25336.30
684.27	24737.12
684.41	24924.36
684.55	25036.71
684.68	24774.57
684.82	24835.42
684.96	24877.55
685.09	24694.99
685.23	24208.16
685.37	24341.57
685.50	24638.82
685.64	24177.73
685.78	23978.79
685.91	24184.76
686.05	23878.15
686.19	23576.22
686.32	23740.05
686.46	23487.28
686.60	23147.90
686.73	23073.00
686.87	23073.00
687.01	23070.66
687.14	22909.16
687.28	22913.84
687.42	23044.91
687.55	22726.60
687.69	22752.35
687.82	23044.91
687.96	22740.64
688.10	22724.26
688.23	22352.12
688.37	22387.22
688.50	22422.33
688.64	22539.36
688.78	22515.95
688.91	22125.08
689.05	22225.73
689.18	21518.89
689.32	21598.46
689.46	21846.56
689.59	22122.74
689.73	22361.48
689.86	21827.84
690.00	21476.76
690.13	21392.50
690.27	20856.51
690.41	21050.78
690.54	21149.08
690.68	21083.55
690.81	20950.14
690.95	21259.09
691.08	20938.43
691.22	20959.50
691.35	20837.79
691.49	20814.38
691.62	20954.82
691.76	20826.09
691.89	20418.83
692.03	20563.95
692.16	20425.86
692.30	20149.67
692.43	20140.31
692.57	19859.45
692.70	20002.22
692.84	19812.63
692.97	19751.78
693.11	19796.25
693.24	19250.91
693.38	19426.45
693.51	19459.21
693.65	19609.01
693.78	19412.40
693.92	19267.29
694.05	19150.26
694.19	19250.91
694.32	19199.41
694.45	19206.44
694.59	19042.60
694.72	19075.37
694.86	18668.11
694.99	18750.03
695.13	18633.00
695.26	18501.93
695.39	18508.96
695.53	18691.52
695.66	18684.50
695.80	18331.08
695.93	18263.20
696.07	18029.15
696.20	18230.43
696.33	18558.11
696.47	18169.58
696.60	17689.77
696.73	17797.43
696.87	17706.15
697.00	17638.28
697.14	17432.31
697.27	17245.07
697.40	17095.27
697.54	17268.47
697.67	17296.56
697.80	17050.80
697.94	17001.65
698.07	16912.71
698.21	17088.25
698.34	16915.05
698.47	16992.29
698.61	16821.43
698.74	16746.53
698.87	16699.72
699.01	16496.10
699.14	16067.78
699.27	15934.37
699.40	16397.79
699.54	16259.70
699.67	16140.33
699.80	15953.09
699.94	15777.55
700.07	16161.40
700.20	15925.00
700.34	15960.11
700.47	15925.00
700.60	15590.31
700.73	15704.99
700.87	15674.57
701.00	15506.05
701.13	15442.85
701.26	15279.02
701.40	15297.74
701.53	15241.57
701.66	15281.36
701.79	14707.93
701.93	15192.42
702.06	14953.68
702.19	14890.49
702.32	14981.77
702.46	14850.70
702.59	14834.32
702.72	14590.90
702.85	14586.22
702.99	14583.88
703.12	14703.25
703.25	14300.67
703.38	14288.97
703.51	14363.87
703.65	14242.16
703.78	13813.84
703.91	13834.91
704.04	13785.76
704.17	13806.82
704.31	13778.73
704.44	13937.89
704.57	13745.97
704.70	13710.86
704.83	13542.34
704.96	13811.50
705.10	13736.60
705.23	13385.52
>>>>>End Processed Spectral Data<<<<<
