SpectraSuite Data File
++++++++++++++++++++++++++++++++++++
Date: Fri Oct 25 10:44:01 EDT 2013
User: price-jones
Dark Spectrum Present: No
Reference Spectrum Present: No
Number of Sampled Component Spectra: 1
Spectrometers: USB2+H05261
Integration Time (usec): 100000 (USB2+H05261)
Spectra Averaged: 1 (USB2+H05261)
Boxcar Smoothing: 0 (USB2+H05261)
Correct for Electrical Dark: No (USB2+H05261)
Strobe/Lamp Enabled: No (USB2+H05261)
Correct for Detector Non-linearity: No (USB2+H05261)
Correct for Stray Light: No (USB2+H05261)
Number of Pixels in Processed Spectrum: 2048
>>>>>Begin Processed Spectral Data<<<<<
365.73	152.13
365.92	152.13
366.12	152.13
366.32	44.47
366.52	18.72
366.72	58.51
366.91	16.38
367.11	25.75
367.31	0.00
367.51	67.88
367.70	58.51
367.90	21.06
368.10	30.43
368.30	0.00
368.49	9.36
368.69	81.92
368.89	0.00
369.09	0.00
369.28	14.04
369.48	0.00
369.68	114.69
369.87	74.90
370.07	98.30
370.27	100.64
370.47	133.41
370.66	430.66
370.86	428.32
371.06	437.68
371.25	482.15
371.45	440.02
371.65	493.85
371.84	475.13
372.04	461.09
372.24	526.62
372.44	486.83
372.63	578.11
372.83	554.71
373.03	512.58
373.22	505.56
373.42	477.47
373.62	566.41
373.81	561.73
374.01	617.90
374.21	550.03
374.40	566.41
374.60	669.39
374.79	486.83
374.99	580.45
375.19	582.79
375.38	512.58
375.58	507.90
375.78	709.18
375.97	559.39
376.17	636.63
376.37	596.84
376.56	660.03
376.76	676.41
376.95	664.71
377.15	657.69
377.35	608.54
377.54	571.09
377.74	688.12
377.93	636.63
378.13	681.10
378.33	676.41
378.52	676.41
378.72	655.35
378.91	685.78
379.11	589.82
379.31	650.67
379.50	634.29
379.70	636.63
379.89	643.65
380.09	631.94
380.28	702.16
380.48	671.73
380.68	704.50
380.87	638.97
381.07	711.52
381.26	781.74
381.46	767.70
381.65	753.65
381.85	753.65
382.04	737.27
382.24	699.82
382.43	648.33
382.63	674.07
382.83	774.72
383.02	685.78
383.22	767.70
383.41	746.63
383.61	763.01
383.80	887.06
384.00	760.67
384.19	786.42
384.39	765.36
384.58	866.00
384.78	837.91
384.97	791.10
385.17	791.10
385.36	795.78
385.56	784.08
385.75	887.06
385.95	868.34
386.14	805.14
386.34	858.98
386.53	884.72
386.72	784.08
386.92	849.61
387.11	861.32
387.31	910.47
387.50	873.02
387.70	828.55
387.89	919.83
388.09	887.06
388.28	950.26
388.48	875.36
388.67	917.49
388.86	931.53
389.06	990.05
389.25	1004.09
389.45	1001.75
389.64	1032.18
389.84	1048.56
390.03	957.28
390.22	1048.56
390.42	1104.73
390.61	1046.22
390.81	1146.86
391.00	1074.31
391.19	1090.69
391.39	1025.15
391.58	1125.80
391.78	1083.67
391.97	1041.54
392.16	1088.35
392.36	1036.86
392.55	1015.79
392.75	999.41
392.94	973.66
393.13	1060.26
393.33	987.71
393.52	1100.05
393.71	1132.82
393.91	1064.94
394.10	1086.01
394.29	1226.44
394.49	1228.78
394.68	1214.74
394.88	1153.88
395.07	1210.06
395.26	1280.27
395.46	1217.08
395.65	1313.04
395.84	1238.14
396.04	1200.69
396.23	1193.67
396.42	1144.52
396.62	1142.18
396.81	1252.19
397.00	1184.31
397.19	1294.32
397.39	1357.51
397.58	1458.15
397.77	1483.90
397.97	1310.70
398.16	1488.58
398.35	1413.68
398.55	1516.67
398.74	1451.13
398.93	1544.75
399.12	1460.49
399.32	1387.94
399.51	1519.01
399.70	1671.14
399.90	1661.78
400.09	1596.25
400.28	1682.85
400.47	1537.73
400.67	1689.87
400.86	1715.61
401.05	1774.13
401.24	1748.38
401.44	1860.73
401.63	1753.06
401.82	1818.60
402.01	1664.12
402.21	1778.81
402.40	1736.68
402.59	1675.82
402.78	1764.76
402.97	1825.62
403.17	1834.98
403.36	1886.47
403.55	1893.49
403.74	1919.24
403.93	1881.79
404.13	1891.15
404.32	1893.49
404.51	1844.34
404.70	1914.56
404.89	1937.96
405.09	1963.71
405.28	2001.16
405.47	1895.83
405.66	2094.78
405.85	2143.93
406.05	1987.11
406.24	2148.61
406.43	2026.90
406.62	2132.23
406.81	2104.14
407.00	2150.95
407.20	2069.03
407.39	2052.65
407.58	2263.30
407.77	2263.30
407.96	2279.68
408.15	2317.13
408.34	2242.23
408.54	2366.28
408.73	2441.18
408.92	2368.62
409.11	2237.55
409.30	2338.20
409.49	2328.83
409.68	2251.60
409.87	2331.17
410.07	2429.48
410.26	2359.26
410.45	2583.95
410.64	2487.99
410.83	2506.71
411.02	2607.36
411.21	2759.49
411.40	2567.57
411.59	2663.53
411.78	2597.99
411.98	2642.46
412.17	2778.22
412.36	2684.59
412.55	2825.03
412.74	2773.53
412.93	2761.83
413.12	2771.19
413.31	2960.78
413.50	3014.61
413.69	2850.77
413.88	2979.50
414.07	2930.35
414.26	3000.57
414.45	2956.10
414.64	3030.99
414.83	3190.15
415.02	3077.80
415.22	3227.60
415.41	3241.64
415.60	3082.49
415.79	3201.85
415.98	3297.81
416.17	3393.78
416.36	3349.31
416.55	3276.75
416.74	3281.43
416.93	3258.03
417.12	3438.25
417.31	3517.83
417.50	3527.19
417.69	3529.53
417.88	3590.38
418.07	3480.38
418.26	3377.39
418.45	3588.04
418.64	3662.94
418.83	3588.04
419.02	3695.71
419.21	3698.05
419.39	3618.47
419.58	3501.44
419.77	3672.30
419.96	3651.24
420.15	3735.50
420.34	3735.50
420.53	3925.08
420.72	3866.56
420.91	3950.82
421.10	3726.13
421.29	3988.27
421.48	3978.91
421.67	3934.44
421.86	3803.37
422.05	4002.32
422.24	3805.71
422.43	3847.84
422.61	3899.33
422.80	3911.04
422.99	3932.10
423.18	4058.49
423.37	4039.76
423.56	4077.21
423.75	4138.07
423.94	3943.80
424.13	3782.31
424.32	3866.56
424.50	3955.51
424.69	4107.64
424.88	4004.66
425.07	3985.93
425.26	4002.32
425.45	3957.85
425.64	3941.46
425.83	3957.85
426.01	4058.49
426.20	4156.79
426.39	4182.54
426.58	3948.48
426.77	4049.13
426.96	4168.49
427.15	4044.45
427.33	4203.60
427.52	4205.94
427.71	4348.72
427.90	4290.20
428.09	4299.56
428.28	4318.29
428.46	4255.09
428.65	4332.33
428.84	4468.08
429.03	4369.78
429.22	4348.72
429.40	4152.11
429.59	4269.14
429.78	4079.55
429.97	3995.29
430.16	4053.81
430.34	4177.86
430.53	4149.77
430.72	4299.56
430.91	4166.15
431.10	4376.80
431.28	4568.73
431.47	4786.40
431.66	4765.33
431.85	4685.75
432.03	4685.75
432.22	4720.86
432.41	4770.01
432.60	4875.34
432.79	4786.40
432.97	5057.90
433.16	4875.34
433.35	4667.03
433.54	4662.35
433.72	4723.20
433.91	4645.96
434.10	4805.12
434.28	4873.00
434.47	5043.85
434.66	5013.43
434.85	5004.07
435.03	5191.31
435.22	5137.48
435.41	5179.61
435.59	5078.96
435.78	5128.11
435.97	5256.84
436.16	5277.91
436.34	5195.99
436.53	5411.32
436.72	5495.58
436.90	5224.08
437.09	5315.36
437.28	5242.80
437.46	5128.11
437.65	5188.97
437.84	5235.78
438.02	5291.95
438.21	5238.12
438.40	5203.01
438.58	5526.00
438.77	5540.05
438.96	5556.43
439.14	5734.31
439.33	5699.20
439.52	5860.70
439.70	5612.60
439.89	5860.70
440.08	5858.36
440.26	5781.12
440.45	5748.36
440.63	6122.84
440.82	6153.27
441.01	5930.92
441.19	6113.48
441.38	6251.57
441.57	6139.23
441.75	6317.11
441.94	6483.28
442.12	6438.81
442.31	6375.62
442.50	6635.42
442.68	6469.24
442.87	6415.41
443.05	6583.93
443.24	6675.21
443.43	6438.81
443.61	6628.40
443.80	6857.77
443.98	6581.59
444.17	6317.11
444.35	6686.91
444.54	6782.87
444.73	6759.47
444.91	6628.40
445.10	6480.94
445.28	6590.95
445.47	6464.56
445.65	6530.09
445.84	6630.74
446.02	6745.42
446.21	6644.78
446.39	6609.67
446.58	6958.41
446.77	6899.90
446.95	6626.06
447.14	6731.38
447.32	6913.94
447.51	6661.16
447.69	6736.06
447.88	6918.62
448.06	6862.45
448.25	7082.46
448.43	6984.16
448.62	6771.17
448.80	6841.39
448.99	6918.62
449.17	7108.21
449.36	7124.59
449.54	7063.74
449.73	7103.53
449.91	7365.67
450.10	7396.09
450.28	7318.86
450.46	7559.93
450.65	7494.40
450.83	7337.58
451.02	7183.10
451.20	7267.36
451.39	7379.71
451.57	7311.83
451.76	7459.29
451.94	7335.24
452.13	7349.28
452.31	7379.71
452.49	7302.47
452.68	7335.24
452.86	7389.07
453.05	7482.69
453.23	7555.25
453.42	7510.78
453.60	7452.27
453.78	7665.25
453.97	7534.18
454.15	7503.76
454.34	7555.25
454.52	7611.42
454.70	7611.42
454.89	7737.81
455.07	7681.64
455.26	7714.41
455.44	8042.08
455.62	7960.16
455.81	7866.54
455.99	7915.69
456.17	8016.33
456.36	8084.21
456.54	8327.63
456.73	8006.97
456.91	8381.46
457.09	8348.69
457.28	8379.12
457.46	8402.52
457.64	8105.28
457.83	8496.14
458.01	8327.63
458.19	8374.44
458.38	8219.96
458.56	8404.86
458.74	8390.82
458.93	8278.47
459.11	8404.86
459.29	8393.16
459.48	8545.30
459.66	8521.89
459.84	8634.24
460.03	8592.11
460.21	8542.96
460.39	8830.84
460.57	8564.02
460.76	8671.68
460.94	8901.06
461.12	8791.05
461.31	8980.64
461.49	8762.97
461.67	8938.51
461.85	8887.01
462.04	8849.57
462.22	9605.56
462.40	9163.20
462.59	9149.15
462.77	8851.91
462.95	9296.61
463.13	9062.55
463.32	9121.07
463.50	9254.48
463.68	9036.81
463.86	9327.03
464.05	8992.34
464.23	9142.13
464.41	9121.07
464.59	9200.65
464.78	9591.52
464.96	9348.10
465.14	9186.60
465.32	9378.53
465.50	9350.44
465.69	9540.02
465.87	9254.48
466.05	9357.46
466.23	9240.44
466.41	9411.29
466.60	9467.47
466.78	9437.04
466.96	9446.40
467.14	9413.63
467.32	9717.90
467.51	9671.09
467.69	9394.91
467.87	9708.54
468.05	9891.10
468.23	9542.36
468.41	9668.75
468.60	9556.41
468.78	9774.08
468.96	9610.24
469.14	9928.55
469.32	10148.56
469.50	9816.21
469.69	9795.14
469.87	9888.76
470.05	9893.44
470.23	10033.88
470.41	10139.20
470.59	10242.18
470.77	10176.65
470.95	10251.55
471.14	10408.36
471.32	10244.52
471.50	10459.85
471.68	10509.01
471.86	10516.03
472.04	10586.24
472.22	10658.80
472.40	10328.78
472.58	10410.70
472.77	10768.80
472.95	10836.68
473.13	10960.73
473.31	11000.52
473.49	10635.39
473.67	10841.36
473.85	10923.28
474.03	11417.13
474.21	11262.66
474.39	11147.97
474.57	11295.43
474.75	11573.95
474.93	11541.18
475.12	11515.44
475.30	11676.93
475.48	11599.70
475.66	11426.50
475.84	11447.56
476.02	11398.41
476.20	11758.85
476.38	11810.34
476.56	12011.63
476.74	12049.08
476.92	12226.96
477.10	12219.94
477.28	12388.46
477.46	12222.28
477.64	12608.47
477.82	12526.55
478.00	12807.41
478.18	12901.03
478.36	12959.55
478.54	13004.02
478.72	12898.69
478.90	13207.64
479.08	13252.11
479.26	13331.69
479.44	13640.64
479.62	13542.34
479.80	13591.49
479.98	13769.37
480.16	13987.04
480.34	13743.63
480.52	14129.81
480.70	14113.43
480.88	14141.52
481.06	14246.84
481.24	14235.14
481.41	14569.83
481.59	14654.09
481.77	14579.20
481.95	14401.32
482.13	14782.82
482.31	14984.11
482.49	15187.74
482.67	14817.93
482.85	15234.55
483.03	15358.60
483.21	15536.48
483.39	15737.76
483.57	15489.67
483.74	15817.34
483.92	16100.55
484.10	15906.28
484.28	16175.44
484.46	16479.71
484.64	16521.84
484.82	16491.41
485.00	16561.63
485.18	16732.49
485.35	16659.93
485.53	16493.76
485.71	16236.30
485.89	16840.15
486.07	16692.70
486.25	16823.77
486.43	17053.14
486.61	17331.67
486.78	17582.10
486.96	17830.20
487.14	17996.38
487.32	17994.04
487.50	18335.76
487.68	18377.89
487.85	18728.97
488.03	18946.64
488.21	18876.42
488.39	19028.56
488.57	18972.38
488.75	19133.88
488.92	19229.84
489.10	19634.75
489.28	20002.22
489.46	20245.63
489.64	19950.73
489.81	20606.08
489.99	20772.25
490.17	20753.53
490.35	20716.08
490.53	20858.85
490.70	21404.20
490.88	21085.89
491.06	21333.98
491.24	20999.29
491.41	21043.76
491.59	21298.88
491.77	21216.96
491.95	21565.70
492.13	21614.85
492.30	22178.92
492.48	22136.79
492.66	22295.94
492.84	22080.61
493.01	22721.92
493.19	22445.74
493.37	22565.10
493.54	22871.72
493.72	22824.90
493.90	22974.70
494.08	23220.45
494.25	23587.92
494.43	23716.65
494.61	23644.09
494.79	24212.84
494.96	23946.02
495.14	23847.72
495.32	24067.73
495.49	24423.49
495.67	24306.46
495.85	24891.60
496.02	24907.98
496.20	24781.59
496.38	25135.01
496.55	25050.75
496.73	25425.24
496.91	25207.57
497.09	25532.90
497.26	25745.89
497.44	25668.66
497.62	25373.75
497.79	25809.09
497.97	25572.69
498.14	26047.82
498.32	25848.88
498.50	26204.64
498.67	26705.51
498.85	26368.48
499.03	26426.99
499.20	26679.77
499.38	26953.61
499.56	26693.81
499.73	26984.04
499.91	27190.00
500.08	26888.07
500.26	26541.68
500.44	27290.65
500.61	27063.61
500.79	26984.04
500.97	26881.05
501.14	27484.91
501.32	27669.81
501.49	27400.65
501.67	27445.12
501.84	27632.36
502.02	27782.16
502.20	27988.13
502.37	28381.34
502.55	28540.49
502.72	28580.28
502.90	28388.36
503.07	28313.46
503.25	28793.27
503.43	28479.64
503.60	28664.54
503.78	28666.88
503.95	28292.40
504.13	29216.91
504.30	29343.30
504.48	29223.93
504.65	29614.80
504.83	29766.93
505.01	29642.88
505.18	29593.73
505.36	29589.05
505.53	29876.94
505.71	30242.06
505.88	30197.59
506.06	29818.42
506.23	29996.31
506.41	30106.31
506.58	30536.97
506.76	30499.52
506.93	30349.73
507.11	30651.66
507.28	30487.82
507.46	30415.26
507.63	30862.30
507.81	30642.29
507.98	30726.55
508.16	30923.16
508.33	31192.32
508.50	31292.96
508.68	31342.11
508.85	31695.53
509.03	31409.99
509.20	31564.46
509.38	31723.62
509.55	31934.27
509.73	31906.18
509.90	31672.13
510.08	32119.17
510.25	32112.15
510.42	32243.22
510.60	32393.01
510.77	32528.77
510.95	32542.81
511.12	32456.21
511.30	32830.69
511.47	33099.86
511.64	32582.60
511.82	33149.01
511.99	32676.22
512.17	33324.55
512.34	32879.85
512.51	33202.84
512.69	33455.62
512.86	33137.30
513.04	33577.33
513.21	33301.14
513.38	33462.64
513.56	33352.63
513.73	33282.42
513.90	33659.24
514.08	33345.61
514.25	33958.83
514.43	34251.40
514.60	33951.81
514.77	33956.49
514.95	34082.88
515.12	33902.66
515.29	34340.34
515.47	34696.10
515.64	34663.33
515.81	34103.95
515.99	34354.38
516.16	34567.37
516.33	34024.37
516.51	34059.48
516.68	33670.95
516.85	34064.16
517.03	34284.17
517.20	34206.93
517.37	34742.91
517.54	34852.92
517.72	34642.27
517.89	34370.77
518.06	34202.25
518.24	34672.70
518.41	34855.26
518.58	35204.00
518.75	34806.11
518.93	35674.45
519.10	35398.26
519.27	35672.10
519.45	35566.78
519.62	36032.55
519.79	35976.37
519.96	35655.72
520.14	35864.03
520.31	35924.88
520.48	36257.24
520.65	36002.12
520.83	36404.69
521.00	36416.40
521.17	36472.57
521.34	36720.66
521.52	36830.67
521.69	36910.25
521.86	36952.38
522.03	36907.91
522.20	37081.11
522.38	36973.44
522.55	36617.68
522.72	36847.05
522.89	37081.11
523.07	37539.85
523.24	37212.18
523.41	37530.49
523.58	37219.20
523.75	38073.49
523.92	37769.22
524.10	37476.66
524.27	37785.61
524.44	37752.84
524.61	38253.72
524.78	38000.94
524.96	38115.62
525.13	38277.12
525.30	38321.59
525.47	38298.19
525.64	38368.40
525.81	38267.76
525.98	38139.03
526.16	37830.08
526.33	37984.55
526.50	38246.69
526.67	37783.27
526.84	37731.78
527.01	38471.39
527.18	38251.38
527.36	38719.48
527.53	38951.20
527.70	38986.30
527.87	38988.64
528.04	38939.49
528.21	39356.11
528.38	39133.76
528.55	39246.10
528.72	39636.97
528.89	39510.58
529.07	39126.74
529.24	38920.77
529.41	39833.58
529.58	39730.59
529.75	39564.42
529.92	39978.69
530.09	39672.08
530.26	39732.93
530.43	39765.70
530.60	40304.02
530.77	39601.86
530.94	40194.02
531.11	39899.11
531.28	39798.47
531.46	40257.21
531.63	40243.17
531.80	39873.37
531.97	39782.09
532.14	40081.67
532.31	39770.38
532.48	40023.16
532.65	40205.72
532.82	40135.51
532.99	40378.92
533.16	40713.62
533.33	40589.57
533.50	40657.45
533.67	40531.06
533.84	40339.13
534.01	40762.77
534.18	40465.52
534.35	40954.69
534.52	40877.46
534.69	40978.10
534.86	41031.93
535.03	41493.02
535.20	41521.10
535.37	41457.91
535.54	41968.15
535.71	41464.93
535.88	41179.39
536.05	41275.35
536.22	41280.03
536.38	41116.19
536.55	41308.11
536.72	40938.31
536.89	41090.44
537.06	41359.61
537.23	41518.76
537.40	41588.98
537.57	41631.11
537.74	42197.52
537.91	42424.55
538.08	41743.45
538.25	41930.70
538.42	41827.71
538.59	42003.25
538.75	41530.47
538.92	42019.64
539.09	42103.90
539.26	42040.70
539.43	41965.81
539.60	41654.51
539.77	41984.53
539.94	41785.58
540.11	41773.88
540.28	41773.88
540.44	42103.90
540.61	41862.82
540.78	42010.28
540.95	41904.95
541.12	42550.94
541.29	42419.87
541.46	42398.80
541.62	42227.95
541.79	42862.23
541.96	42019.64
542.13	42284.12
542.30	42712.44
542.47	42431.57
542.63	42679.67
542.80	42843.51
542.97	42857.55
543.14	43349.06
543.31	43650.99
543.48	42909.04
543.64	43842.92
543.81	43777.38
543.98	43625.25
544.15	43601.84
544.32	43634.61
544.48	43814.83
544.65	43557.37
544.82	43770.36
544.99	43143.09
545.16	43819.51
545.32	43318.64
545.49	44023.14
545.66	44275.91
545.83	44179.95
546.00	43852.28
546.16	43360.76
546.33	43758.66
546.50	43201.61
546.67	43639.29
546.83	43922.49
547.00	44102.71
547.17	43959.94
547.34	43969.30
547.50	43611.20
547.67	43779.72
547.84	43950.58
548.00	44463.16
548.17	44208.04
548.34	44392.94
548.51	44217.40
548.67	44610.61
548.84	44374.22
549.01	43688.44
549.18	44545.08
549.34	44629.34
549.51	44463.16
549.68	44582.52
549.84	44446.77
550.01	44914.88
550.18	44629.34
550.34	44451.45
550.51	44664.44
550.68	44603.59
550.84	44250.17
551.01	44828.28
551.18	44327.41
551.34	44961.69
551.51	44788.49
551.68	44697.21
551.84	44994.46
552.01	44729.98
552.18	44652.74
552.34	44720.62
552.51	44741.68
552.68	44868.07
552.84	44900.84
553.01	45043.61
553.18	44921.90
553.34	45003.82
553.51	44662.10
553.67	45062.33
553.84	45277.66
554.01	44844.66
554.17	45652.15
554.34	45387.67
554.51	45645.13
554.67	45352.56
554.84	45226.17
555.00	45088.08
555.17	44856.37
555.33	45230.85
555.50	45359.58
555.67	45120.85
555.83	45008.50
556.00	45382.99
556.16	45500.01
556.33	45975.14
556.50	45462.57
556.66	45977.48
556.83	45223.83
556.99	45497.67
557.16	45640.45
557.32	45654.49
557.49	45806.62
557.65	45441.50
557.82	45799.60
557.98	45581.93
558.15	45944.72
558.32	45504.70
558.48	45123.19
558.65	45855.78
558.81	45492.99
558.98	45406.39
559.14	45490.65
559.31	45937.69
559.47	45713.00
559.64	45804.28
559.80	46043.02
559.97	46225.58
560.13	45427.46
560.30	45780.88
560.46	46047.70
560.63	46003.23
560.79	46150.68
560.96	46113.23
561.12	45900.25
561.29	45935.35
561.45	45937.69
561.61	46066.42
561.78	46085.15
561.94	45680.24
562.11	45755.13
562.27	45841.73
562.44	46375.37
562.60	46057.06
562.77	46492.40
562.93	45834.71
563.10	46045.36
563.26	45523.42
563.42	46419.84
563.59	46036.00
563.75	45998.55
563.92	46319.20
564.08	46227.92
564.24	46567.30
564.41	45832.37
564.57	45780.88
564.74	46148.34
564.90	46096.85
565.07	46213.88
565.23	46672.62
565.39	46190.47
565.56	46370.69
565.72	46066.42
565.88	45977.48
566.05	46469.00
566.21	46272.39
566.38	46522.83
566.54	46260.69
566.70	46536.87
566.87	46373.03
567.03	46398.78
567.19	46766.24
567.36	46312.18
567.52	46146.00
567.68	46660.92
567.85	45727.05
568.01	46380.06
568.17	46190.47
568.34	46614.11
568.50	46504.10
568.66	46202.18
568.83	46497.08
568.99	46120.26
569.15	46136.64
569.32	46169.41
569.48	46108.55
569.64	46600.07
569.81	46904.34
569.97	46370.69
570.13	46356.65
570.30	46061.74
570.46	45797.26
570.62	46370.69
570.78	46164.73
570.95	46143.66
571.11	46635.17
571.27	46043.02
571.43	45881.52
571.60	46440.91
571.76	46312.18
571.92	46490.06
572.09	46747.52
572.25	46621.13
572.41	46291.12
572.57	46291.12
572.74	46876.25
572.90	46721.77
573.06	46569.64
573.22	46569.64
573.38	46590.70
573.55	46307.50
573.71	46887.95
573.87	46857.52
574.03	46726.46
574.20	46731.14
574.36	46841.14
574.52	47051.79
574.68	46253.67
574.84	46784.97
575.01	46452.61
575.17	46639.86
575.33	46295.80
575.49	46321.54
575.65	46920.72
575.82	46684.33
575.98	46419.84
576.14	46609.43
576.30	46784.97
576.46	46508.79
576.62	46747.52
576.79	46412.82
576.95	46389.42
577.11	46447.93
577.27	46829.44
577.43	46754.54
577.59	46354.31
577.75	46277.07
577.92	45951.74
578.08	46316.86
578.24	46146.00
578.40	46590.70
578.56	46677.30
578.72	46405.80
578.88	46911.36
579.04	46639.86
579.21	46445.59
579.37	46431.55
579.53	46794.33
579.69	46408.14
579.85	46759.22
580.01	46595.38
580.17	46625.81
580.33	46691.35
580.49	46775.61
580.65	46983.91
580.82	46461.97
580.98	46391.76
581.14	46518.15
581.30	46824.76
581.46	46438.57
581.62	46368.35
581.78	46646.88
581.94	46890.29
582.10	46698.37
582.26	46766.24
582.42	46703.05
582.58	46876.25
582.74	46902.00
582.90	46880.93
583.06	47098.60
583.22	46773.27
583.38	47044.77
583.54	47491.81
583.70	46471.34
583.86	47166.48
584.02	46672.62
584.18	46527.51
584.34	46848.16
584.50	46939.44
584.66	46539.21
584.82	46499.42
584.98	46595.38
585.14	46775.61
585.30	46557.94
585.46	46953.49
585.62	46312.18
585.78	46307.50
585.94	46363.67
586.10	46461.97
586.26	46469.00
586.42	46967.53
586.58	47229.67
586.74	46597.73
586.90	46698.37
587.06	46307.50
587.22	46848.16
587.38	46321.54
587.54	46951.15
587.70	46906.68
587.86	46986.25
588.02	46799.01
588.18	46883.27
588.34	46747.52
588.49	46131.96
588.65	45918.97
588.81	46314.52
588.97	46478.36
589.13	46239.62
589.29	46492.40
589.45	46192.81
589.61	46651.56
589.77	46927.74
589.93	46836.46
590.08	46841.14
590.24	46665.60
590.40	46909.02
590.56	47224.99
590.72	46808.37
590.88	46700.71
591.04	46927.74
591.20	47309.25
591.35	46923.06
591.51	47299.89
591.67	46972.21
591.83	46780.29
591.99	46209.20
592.15	46532.19
592.31	46955.83
592.46	47206.26
592.62	46887.95
592.78	46784.97
592.94	46773.27
593.10	46820.08
593.26	46932.42
593.41	46944.12
593.57	46906.68
593.73	46897.31
593.89	46763.90
594.05	47107.96
594.20	46649.22
594.36	46784.97
594.52	46564.96
594.68	46593.04
594.84	46813.05
594.99	46869.23
595.15	46667.94
595.31	46616.45
595.47	47107.96
595.62	46773.27
595.78	47119.66
595.94	46967.53
596.10	46885.61
596.25	47217.97
596.41	46873.91
596.57	46731.14
596.73	47129.03
596.88	46429.21
597.04	47004.98
597.20	46864.55
597.36	46770.93
597.51	47012.00
597.67	47002.64
597.83	46934.76
597.99	47178.18
598.14	47217.97
598.30	46745.18
598.46	46560.28
598.61	46707.73
598.77	46824.76
598.93	46761.56
599.09	46916.04
599.24	47524.58
599.40	47014.34
599.56	47075.19
599.71	46691.35
599.87	47037.75
600.03	46527.51
600.18	46939.44
600.34	46909.02
600.50	47129.03
600.65	46813.05
600.81	46990.94
600.97	47222.65
601.12	47185.20
601.28	47234.35
601.44	46557.94
601.59	46649.22
601.75	46726.46
601.91	47021.36
602.06	46775.61
602.22	46782.63
602.37	46770.93
602.53	46794.33
602.69	47611.18
602.84	47042.43
603.00	46880.93
603.16	47037.75
603.31	46904.34
603.47	47068.17
603.62	46789.65
603.78	47131.37
603.94	46763.90
604.09	47433.30
604.25	47091.58
604.40	46745.18
604.56	46831.78
604.71	47051.79
604.87	46958.17
605.03	46754.54
605.18	46693.69
605.34	46997.96
605.49	46717.09
605.65	46344.95
605.80	46869.23
605.96	46550.91
606.12	46777.95
606.27	46707.73
606.43	46375.37
606.58	47014.34
606.74	46307.50
606.89	46862.21
607.05	46841.14
607.20	46546.23
607.36	46883.27
607.51	46532.19
607.67	46401.12
607.82	46267.71
607.98	46452.61
608.13	46260.69
608.29	46340.27
608.44	46361.33
608.60	45797.26
608.75	46536.87
608.91	46595.38
609.06	46265.37
609.22	46447.93
609.37	45998.55
609.53	46443.25
609.68	46260.69
609.84	46380.06
609.99	46452.61
610.15	46181.11
610.30	45979.82
610.46	46096.85
610.61	46089.83
610.76	46267.71
610.92	45949.40
611.07	46298.14
611.23	46279.41
611.38	46457.29
611.54	45921.31
611.69	46108.55
611.84	45689.60
612.00	45893.22
612.15	45708.32
612.31	45799.60
612.46	45940.04
612.62	46036.00
612.77	45914.29
612.92	46148.34
613.08	45949.40
613.23	45542.14
613.39	45954.08
613.54	45893.22
613.69	45673.21
613.85	45560.87
614.00	45202.77
614.15	45745.77
614.31	46094.51
614.46	46148.34
614.62	45925.99
614.77	45621.72
614.92	45773.86
615.08	45708.32
615.23	45420.44
615.38	45633.42
615.54	45535.12
615.69	45703.64
615.84	45551.51
616.00	45621.72
616.15	45467.25
616.30	45392.35
616.46	45191.06
616.61	45127.87
616.76	45249.58
616.92	44921.90
617.07	45085.74
617.22	44978.07
617.37	45050.63
617.53	45296.39
617.68	45338.52
617.83	45928.33
617.99	45237.87
618.14	44989.78
618.29	44800.19
618.45	44774.45
618.60	44767.43
618.75	44919.56
618.90	45106.80
619.06	44858.71
619.21	44903.18
619.36	45265.96
619.51	44746.36
619.67	44830.62
619.82	45263.62
619.97	45212.13
620.12	44863.39
620.28	44299.32
620.43	44795.51
620.58	44900.84
620.73	44458.48
620.89	44959.35
621.04	44659.76
621.19	44774.45
621.34	44774.45
621.49	44601.25
621.65	44463.16
621.80	44996.80
621.95	44648.06
622.10	44872.75
622.25	44357.83
622.41	44165.91
622.56	44058.24
622.71	44650.40
622.86	43917.81
623.01	44091.01
623.16	44402.30
623.32	43985.69
623.47	43758.66
623.62	44184.63
623.77	44215.06
623.92	44381.24
624.07	44395.28
624.23	44065.27
624.38	44250.17
624.53	44137.82
624.68	44208.04
624.83	44163.57
624.98	44081.65
625.13	43309.27
625.29	43828.87
625.44	43763.34
625.59	43363.11
625.74	43377.15
625.89	43573.75
626.04	43585.46
626.19	43323.32
626.34	43555.03
626.49	43391.19
626.65	43466.09
626.80	43526.94
626.95	43803.13
627.10	43758.66
627.25	43658.01
627.40	43594.82
627.55	43143.09
627.70	43068.20
627.85	43171.18
628.00	42766.27
628.15	43283.53
628.30	42866.91
628.45	43526.94
628.60	43260.12
628.76	43182.88
628.91	43423.96
629.06	43051.81
629.21	43058.84
629.36	42747.54
629.51	42635.20
629.66	42667.97
629.81	42457.32
629.96	42876.27
630.11	43131.39
630.26	43098.62
630.41	43084.58
630.56	42789.67
630.71	42773.29
630.86	42777.97
631.01	42511.15
631.16	42567.32
631.31	42513.49
631.46	42134.32
631.61	42562.64
631.76	42157.73
631.91	42426.89
632.06	42604.77
632.21	42614.13
632.36	42518.17
632.51	42403.49
632.66	42295.82
632.81	41816.01
632.96	42218.58
633.10	42234.97
633.25	42089.85
633.40	42064.11
633.55	42096.88
633.70	42398.80
633.85	42183.48
634.00	42501.79
634.15	42300.50
634.30	42019.64
634.45	41991.55
634.60	42330.93
634.75	41769.20
634.90	41603.02
635.05	41940.06
635.19	42085.17
635.34	42124.96
635.49	41649.83
635.64	41764.52
635.79	41560.89
635.94	41865.16
636.09	41790.27
636.24	41727.07
636.39	41830.05
636.53	41486.00
636.68	41500.04
636.83	41792.61
636.98	41900.27
637.13	41593.66
637.28	41490.68
637.43	41600.68
637.57	41937.72
637.72	41549.19
637.87	41698.98
638.02	41347.90
638.17	41560.89
638.32	41544.51
638.46	41329.18
638.61	41301.09
638.76	41083.42
638.91	41666.22
639.06	41544.51
639.20	41588.98
639.35	41301.09
639.50	41174.70
639.65	41275.35
639.80	41123.21
639.94	41010.87
640.09	41202.79
640.24	40996.82
640.39	40767.45
640.54	41078.74
640.68	40793.20
640.83	40760.43
640.98	40910.22
641.13	40744.05
641.27	41282.37
641.42	40718.30
641.57	40746.39
641.72	40732.34
641.86	40655.11
642.01	40509.99
642.16	40175.30
642.31	40388.28
642.45	40254.87
642.60	40610.64
642.75	40404.67
642.90	40371.90
643.04	40954.69
643.19	40137.85
643.34	40884.48
643.48	40444.46
643.63	40140.19
643.78	40685.53
643.93	40278.28
644.07	40212.74
644.22	40254.87
644.37	40395.31
644.51	40367.22
644.66	40170.61
644.81	40421.05
644.95	40502.97
645.10	40444.46
645.25	39931.88
645.39	40280.62
645.54	40264.24
645.69	39702.51
645.83	39725.91
645.98	39866.34
646.13	39700.17
646.27	40261.90
646.42	39686.12
646.57	39803.15
646.71	39641.65
646.86	40128.48
647.00	39856.98
647.15	40184.66
647.30	39711.87
647.44	39714.21
647.59	39777.40
647.74	39409.94
647.88	39812.51
648.03	39269.51
648.17	39882.73
648.32	39686.12
648.47	39618.25
648.61	39220.36
648.76	39739.96
648.90	39285.89
649.05	39463.77
649.20	39152.48
649.34	39335.04
649.49	39175.89
649.63	38918.43
649.78	39449.73
649.92	39210.99
650.07	39920.18
650.21	39049.50
650.36	39618.25
650.51	38958.22
650.65	40198.70
650.80	39746.98
650.94	39620.59
651.09	39482.50
651.23	39262.49
651.38	39012.05
651.52	38660.97
651.67	38656.29
651.81	38962.90
651.96	38857.57
652.10	39112.69
652.25	39051.84
652.39	38808.42
652.54	39124.40
652.68	38983.96
652.83	38600.12
652.97	38817.78
653.12	38621.18
653.26	38405.85
653.41	38459.68
653.55	38504.15
653.70	38394.15
653.84	38054.77
653.99	38560.33
654.13	38047.75
654.27	37970.51
654.42	37965.83
654.56	38321.59
654.71	38621.18
654.85	38602.46
655.00	38429.26
655.14	38103.92
655.29	37982.21
655.43	38190.52
655.57	37638.15
655.72	37769.22
655.86	37844.12
656.01	37907.32
656.15	37743.48
656.30	37345.59
656.44	37741.14
656.58	37970.51
656.73	37530.49
656.87	37640.50
657.01	37654.54
657.16	37935.40
657.30	37661.56
657.45	37537.51
657.59	37123.24
657.73	37603.05
657.88	37912.00
658.02	37900.29
658.16	37888.59
658.31	38153.07
658.45	37717.73
658.60	37476.66
658.74	37825.40
658.88	37237.92
659.03	37338.57
659.17	37528.15
659.31	37062.38
659.46	37567.94
659.60	37317.50
659.74	37376.01
659.89	37172.39
660.03	36732.37
660.17	37387.72
660.32	37516.45
660.46	37532.83
660.60	36980.46
660.74	36830.67
660.89	37233.24
661.03	36561.51
661.17	36219.79
661.32	36610.66
661.46	36788.54
661.60	36828.33
661.74	36584.91
661.89	36336.82
662.03	36306.39
662.17	36484.27
662.31	36500.65
662.46	36701.94
662.60	36786.20
662.74	36315.75
662.88	36224.47
663.03	35969.35
663.17	36367.24
663.31	35805.52
663.45	36299.37
663.60	36032.55
663.74	36147.23
663.88	35585.50
664.02	35517.63
664.17	35611.25
664.31	35501.25
664.45	35608.91
664.59	35711.89
664.73	35737.64
664.88	35606.57
665.02	35180.59
665.16	35732.96
665.30	35026.12
665.44	35325.71
665.59	35072.93
665.73	34953.56
665.87	35044.84
666.01	35093.99
666.15	35068.25
666.29	35171.23
666.44	35178.25
666.58	34808.45
666.72	35154.85
666.86	35409.96
667.00	34780.36
667.14	34703.12
667.28	34160.12
667.43	34799.08
667.57	34820.15
667.71	34579.07
667.85	34831.85
667.99	34440.98
668.13	34258.42
668.27	34632.91
668.41	34094.58
668.56	33902.66
668.70	34160.12
668.84	34345.02
668.98	34031.39
669.12	34204.59
669.26	33715.42
669.40	33673.29
669.54	34157.78
669.68	33750.52
669.82	33710.74
669.96	33294.12
670.10	33141.99
670.25	33720.10
670.39	32929.00
670.53	33116.24
670.67	33102.20
670.81	33298.80
670.95	33289.44
671.09	33493.07
671.23	33081.13
671.37	33043.68
671.51	33015.60
671.65	32950.06
671.79	32383.65
671.93	32549.83
672.07	32884.53
672.21	33055.39
672.35	32561.53
672.49	32861.12
672.63	32662.18
672.77	32325.14
672.91	32465.57
673.05	32018.53
673.19	32421.10
673.33	32348.54
673.47	32107.47
673.61	31524.68
673.75	32135.56
673.89	31440.42
674.03	31730.64
674.17	31566.81
674.31	31658.09
674.45	31505.95
674.59	31765.75
674.73	31653.40
674.87	31831.29
675.01	31342.11
675.15	31510.63
675.29	31243.81
675.43	31426.37
675.56	31377.22
675.70	31119.76
675.84	30735.92
675.98	30391.86
676.12	30448.03
676.26	30583.78
676.40	30188.23
676.54	31009.76
676.68	30855.28
676.82	30242.06
676.96	30443.35
677.10	30541.65
677.23	30244.40
677.37	29914.39
677.51	29834.81
677.65	29722.46
677.79	29490.75
677.93	29577.35
678.07	29441.60
678.21	29256.70
678.34	29006.26
678.48	29266.06
678.62	29343.30
678.76	28802.63
678.90	28306.44
679.04	28734.76
679.18	28933.70
679.31	28627.09
679.45	28524.11
679.59	28126.22
679.73	28147.28
679.87	28474.96
680.00	28142.60
680.14	27997.49
680.28	28287.71
680.42	28018.55
680.56	28002.17
680.70	28126.22
680.83	27803.22
680.97	27821.95
681.11	27527.04
681.25	27321.07
681.39	27445.12
681.52	27379.59
681.66	27243.84
681.80	27080.00
681.94	27042.55
682.07	26904.46
682.21	27068.30
682.35	26824.88
682.49	26923.18
682.62	26679.77
682.76	26534.65
682.90	26338.05
683.04	26579.12
683.17	26029.10
683.31	26003.35
683.45	26005.69
683.59	26125.06
683.72	26136.76
683.86	25914.41
684.00	25766.96
684.13	26099.31
684.27	25628.87
684.41	25380.77
684.55	25336.30
684.68	25280.13
684.82	25352.68
684.96	25200.55
685.09	25062.46
685.23	25139.69
685.37	24877.55
685.50	24999.26
685.64	24643.50
685.78	24872.87
685.91	24676.27
686.05	24521.79
686.19	24362.64
686.32	24086.45
686.46	23407.70
686.60	23417.06
686.73	23630.05
686.87	23398.34
687.01	23475.57
687.14	23482.59
687.28	23269.61
687.42	23201.73
687.55	23290.67
687.69	23199.39
687.82	22923.21
687.96	23421.74
688.10	23119.81
688.23	22754.69
688.37	22541.70
688.50	22621.28
688.64	23070.66
688.78	22717.24
688.91	22590.85
689.05	22558.08
689.18	22658.73
689.32	22167.21
689.46	22602.55
689.59	22120.40
689.73	22342.75
689.86	22291.26
690.00	22043.17
690.13	22029.12
690.27	21963.59
690.41	21584.42
690.54	21394.84
690.68	21504.84
690.81	21432.29
690.95	21654.64
691.08	21397.18
691.22	21429.94
691.35	21448.67
691.49	21486.12
691.62	21245.04
691.76	20961.84
691.89	20912.69
692.03	20945.45
692.16	20737.15
692.30	20517.14
692.43	20416.49
692.57	19943.70
692.70	20465.64
692.84	20538.20
692.97	19976.47
693.11	20217.55
693.24	19985.83
693.38	19999.88
693.51	20100.52
693.65	20205.84
693.78	19981.15
693.92	19878.17
694.05	19679.22
694.19	19323.46
694.32	19295.38
694.45	19557.52
694.59	18956.00
694.72	19290.70
694.86	19218.14
694.99	18960.68
695.13	19176.01
695.26	19293.04
695.39	18953.66
695.53	18799.18
695.66	18759.39
695.80	18925.57
695.93	18675.13
696.07	18560.45
696.20	18459.81
696.33	18621.30
696.47	18640.03
696.60	18174.26
696.73	17970.63
696.87	17736.58
697.00	18073.62
697.14	17935.53
697.27	17811.48
697.40	17741.26
697.54	17614.87
697.67	17446.35
697.80	17551.68
697.94	17446.35
698.07	17296.56
698.21	17128.04
698.34	17207.62
698.47	17074.21
698.61	16847.18
698.74	16769.94
698.87	16926.75
699.01	16538.23
699.14	16451.63
699.27	16542.91
699.40	16255.02
699.54	16290.13
699.67	16283.11
699.80	16339.28
699.94	16376.73
700.07	16404.81
700.20	16137.99
700.34	15981.18
700.47	16327.58
700.60	16273.74
700.73	16067.78
700.87	16020.97
701.00	15637.12
701.13	15508.39
701.26	15527.11
701.40	15758.83
701.53	15358.60
701.66	15279.02
701.79	15396.04
701.93	15206.46
702.06	15044.96
702.19	15115.18
702.32	15129.22
702.46	14897.51
702.59	14796.87
702.72	14953.68
702.85	14740.69
702.99	14864.74
703.12	14810.91
703.25	14560.47
703.38	14335.78
703.51	14333.44
703.65	14569.83
703.78	14555.79
703.91	14106.41
704.04	14001.08
704.17	14384.93
704.31	14134.50
704.44	14085.34
704.57	13907.46
704.70	13855.97
704.83	13696.82
704.96	13902.78
705.10	13738.94
705.23	13764.69
>>>>>End Processed Spectral Data<<<<<
