SpectraSuite Data File
++++++++++++++++++++++++++++++++++++
Date: Fri Oct 25 10:43:40 EDT 2013
User: price-jones
Dark Spectrum Present: No
Reference Spectrum Present: No
Number of Sampled Component Spectra: 1
Spectrometers: USB2+H05261
Integration Time (usec): 100000 (USB2+H05261)
Spectra Averaged: 1 (USB2+H05261)
Boxcar Smoothing: 0 (USB2+H05261)
Correct for Electrical Dark: No (USB2+H05261)
Strobe/Lamp Enabled: No (USB2+H05261)
Correct for Detector Non-linearity: No (USB2+H05261)
Correct for Stray Light: No (USB2+H05261)
Number of Pixels in Processed Spectrum: 2048
>>>>>Begin Processed Spectral Data<<<<<
365.73	117.03
365.92	117.03
366.12	117.03
366.32	44.47
366.52	88.94
366.72	58.51
366.91	30.43
367.11	46.81
367.31	0.00
367.51	58.51
367.70	0.00
367.90	72.56
368.10	0.00
368.30	0.00
368.49	0.00
368.69	56.17
368.89	0.00
369.09	53.83
369.28	56.17
369.48	67.88
369.68	70.22
369.87	56.17
370.07	67.88
370.27	168.52
370.47	182.56
370.66	367.46
370.86	397.89
371.06	447.04
371.25	550.03
371.45	440.02
371.65	514.92
371.84	451.72
372.04	404.91
372.24	475.13
372.44	482.15
372.63	521.94
372.83	524.28
373.03	486.83
373.22	493.85
373.42	543.00
373.62	465.77
373.81	496.19
374.01	580.45
374.21	554.71
374.40	561.73
374.60	559.39
374.79	610.88
374.99	571.09
375.19	554.71
375.38	643.65
375.58	594.50
375.78	650.67
375.97	631.94
376.17	627.26
376.37	526.62
376.56	634.29
376.76	601.52
376.95	629.60
377.15	613.22
377.35	648.33
377.54	589.82
377.74	589.82
377.93	641.31
378.13	650.67
378.33	606.20
378.52	603.86
378.72	695.14
378.91	608.54
379.11	716.20
379.31	699.82
379.50	648.33
379.70	727.91
379.89	669.39
380.09	709.18
380.28	695.14
380.48	767.70
380.68	770.04
380.87	664.71
381.07	692.80
381.26	697.48
381.46	751.31
381.65	711.52
381.85	664.71
382.04	697.48
382.24	723.23
382.43	702.16
382.63	657.69
382.83	725.57
383.02	758.33
383.22	807.48
383.41	760.67
383.61	713.86
383.80	772.38
384.00	800.46
384.19	763.01
384.39	833.23
384.58	748.97
384.78	819.19
384.97	805.14
385.17	774.72
385.36	835.57
385.56	755.99
385.75	880.04
385.95	816.85
386.14	844.93
386.34	814.51
386.53	891.74
386.72	870.68
386.92	866.00
387.11	896.43
387.31	840.25
387.50	861.32
387.70	919.83
387.89	926.85
388.09	943.24
388.28	938.55
388.48	863.66
388.67	917.49
388.86	809.83
389.06	950.26
389.25	910.47
389.45	924.51
389.64	922.17
389.84	1008.77
390.03	1001.75
390.22	1078.99
390.42	1006.43
390.61	1074.31
390.81	1027.50
391.00	1088.35
391.19	1200.69
391.39	1132.82
391.58	1100.05
391.78	1050.90
391.97	1011.11
392.16	1048.56
392.36	980.68
392.55	1053.24
392.75	1008.77
392.94	1029.84
393.13	952.60
393.33	1041.54
393.52	1015.79
393.71	1086.01
393.91	1114.10
394.10	1160.91
394.29	1090.69
394.49	1193.67
394.68	1277.93
394.88	1181.97
395.07	1149.20
395.26	1284.95
395.46	1249.85
395.65	1317.72
395.84	1268.57
396.04	1287.29
396.23	1282.61
396.42	1177.29
396.62	1181.97
396.81	1261.55
397.00	1275.59
397.19	1284.95
397.39	1270.91
397.58	1472.20
397.77	1373.89
397.97	1376.24
398.16	1425.39
398.35	1511.99
398.55	1451.13
398.74	1568.16
398.93	1579.86
399.12	1549.43
399.32	1547.09
399.51	1540.07
399.70	1631.35
399.90	1589.22
400.09	1579.86
400.28	1591.56
400.47	1650.08
400.67	1619.65
400.86	1659.44
401.05	1614.97
401.24	1762.42
401.44	1710.93
401.63	1732.00
401.82	1680.50
402.01	1678.16
402.21	1638.38
402.40	1818.60
402.59	1755.40
402.78	1689.87
402.97	1832.64
403.17	1863.07
403.36	1914.56
403.55	1952.01
403.74	1970.73
403.93	1954.35
404.13	1881.79
404.32	1919.24
404.51	1991.80
404.70	1975.41
404.89	2085.42
405.09	2036.27
405.28	1888.81
405.47	2026.90
405.66	1914.56
405.85	1909.88
406.05	1975.41
406.24	1994.14
406.43	2069.03
406.62	2054.99
406.81	2143.93
407.00	2118.18
407.20	2094.78
407.39	2207.13
407.58	2251.60
407.77	2237.55
407.96	2289.04
408.15	2155.63
408.34	2195.42
408.54	2361.60
408.73	2399.05
408.92	2265.64
409.11	2312.45
409.30	2314.79
409.49	2244.57
409.68	2260.96
409.87	2314.79
410.07	2424.80
410.26	2361.60
410.45	2448.20
410.64	2499.69
410.83	2455.22
411.02	2609.70
411.21	2619.06
411.40	2541.82
411.59	2670.55
411.78	2593.31
411.98	2626.08
412.17	2832.05
412.36	2696.30
412.55	2813.32
412.74	2789.92
412.93	2705.66
413.12	2764.17
413.31	2974.82
413.50	2848.43
413.69	2885.88
413.88	2979.50
414.07	3026.31
414.26	2902.26
414.45	3023.97
414.64	3019.29
414.83	3047.38
415.02	3080.14
415.22	3117.59
415.41	3136.32
415.60	3070.78
415.79	3185.47
415.98	3335.26
416.17	3386.76
416.36	3311.86
416.55	3286.11
416.74	3478.04
416.93	3260.37
417.12	3494.42
417.31	3412.50
417.50	3328.24
417.69	3419.52
417.88	3445.27
418.07	3421.86
418.26	3686.34
418.45	3480.38
418.64	3782.31
418.83	3625.49
419.02	3595.06
419.21	3513.14
419.39	3658.26
419.58	3485.06
419.77	3445.27
419.96	3616.13
420.15	3705.07
420.34	3695.71
420.53	3796.35
420.72	3861.88
420.91	3908.69
421.10	3894.65
421.29	3978.91
421.48	3868.91
421.67	3866.56
421.86	3859.54
422.05	3829.12
422.24	3803.37
422.43	3810.39
422.61	3899.33
422.80	3948.48
422.99	3934.44
423.18	3941.46
423.37	3999.98
423.56	3992.95
423.75	3960.19
423.94	3852.52
424.13	3714.43
424.32	3906.35
424.50	3936.78
424.69	4105.30
424.88	4131.05
425.07	3836.14
425.26	3918.06
425.45	4025.72
425.64	3976.57
425.83	3911.04
426.01	3997.64
426.20	4007.00
426.39	4149.77
426.58	3976.57
426.77	4014.02
426.96	3969.55
427.15	4037.42
427.33	4126.36
427.52	4091.26
427.71	4191.90
427.90	4159.13
428.09	4257.43
428.28	4212.96
428.46	4299.56
428.65	4152.11
428.84	4372.12
429.03	4358.08
429.22	4124.02
429.40	4325.31
429.59	4154.45
429.78	3873.59
429.97	3988.27
430.16	4030.40
430.34	4189.56
430.53	4259.78
430.72	4337.01
430.91	4327.65
431.10	4367.44
431.28	4624.90
431.47	4638.94
431.66	4711.50
431.85	4521.92
432.03	4734.90
432.22	4758.31
432.41	4676.39
432.60	4650.64
432.79	4606.17
432.97	4716.18
433.16	4730.22
433.35	4767.67
433.54	4737.24
433.72	4617.88
433.91	4753.63
434.10	4849.59
434.28	4842.57
434.47	4854.27
434.66	5018.11
434.85	5025.13
435.03	5114.07
435.22	5057.90
435.41	5210.03
435.59	4997.04
435.78	5093.01
435.97	5296.63
436.16	5153.86
436.34	5158.54
436.53	5308.34
436.72	5408.98
436.90	5048.54
437.09	5308.34
437.28	5062.58
437.46	5132.79
437.65	5238.12
437.84	5284.93
438.02	5226.42
438.21	5221.74
438.40	5231.10
438.58	5355.15
438.77	5514.30
438.96	5418.34
439.14	5626.65
439.33	5675.80
439.52	5650.05
439.70	5682.82
439.89	5781.12
440.08	5680.48
440.26	5881.77
440.45	5760.06
440.63	6064.33
440.82	6125.18
441.01	6094.76
441.19	5879.43
441.38	6211.78
441.57	6183.70
441.75	6253.91
441.94	6445.84
442.12	6368.60
442.31	6586.27
442.50	6324.13
442.68	6319.45
442.87	6368.60
443.05	6326.47
443.24	6464.56
443.43	6438.81
443.61	6642.44
443.80	6553.50
443.98	6377.96
444.17	6066.67
444.35	6579.25
444.54	6719.68
444.73	6635.42
444.91	6588.61
445.10	6473.92
445.28	6750.10
445.47	6574.56
445.65	6452.86
445.84	6581.59
446.02	6726.70
446.21	6614.35
446.39	6738.40
446.58	6794.58
446.77	6698.61
446.95	6551.16
447.14	6752.45
447.32	6719.68
447.51	6832.02
447.69	6792.23
447.88	6787.55
448.06	6778.19
448.25	6878.83
448.43	6911.60
448.62	6609.67
448.80	7045.01
448.99	6951.39
449.17	7042.67
449.36	6984.16
449.54	7070.76
449.73	7026.29
449.91	7246.30
450.10	7276.73
450.28	7293.11
450.46	7538.87
450.65	7389.07
450.83	7243.96
451.02	7314.17
451.20	7391.41
451.39	7295.45
451.57	7328.22
451.76	7096.50
451.94	7342.26
452.13	7211.19
452.31	7321.20
452.49	7288.43
452.68	7302.47
452.86	7428.86
453.05	7323.54
453.23	7449.93
453.42	7337.58
453.60	7634.83
453.78	7459.29
453.97	7272.04
454.15	7447.58
454.34	7454.61
454.52	7721.43
454.70	7719.09
454.89	7712.07
455.07	7522.48
455.26	7747.17
455.44	7658.23
455.62	7726.11
455.81	7709.72
455.99	7847.82
456.17	7854.84
456.36	7878.24
456.54	8145.06
456.73	7981.23
456.91	8318.26
457.09	8269.11
457.28	8526.57
457.46	8161.45
457.64	8313.58
457.83	8311.24
458.01	8018.68
458.19	8250.39
458.38	8243.37
458.56	8545.30
458.74	8322.94
458.93	8243.37
459.11	8463.38
459.29	8475.08
459.48	8512.53
459.66	8414.23
459.84	8456.36
460.03	8678.71
460.21	8720.84
460.39	8575.72
460.57	8596.79
460.76	8777.01
460.94	8837.86
461.12	8814.46
461.31	8723.18
461.49	8800.41
461.67	8772.33
461.85	8971.27
462.04	8842.54
462.22	9434.70
462.40	9172.56
462.59	9025.11
462.77	8854.25
462.95	9221.71
463.13	9043.83
463.32	8994.68
463.50	9308.31
463.68	8997.02
463.86	9240.44
464.05	8950.21
464.23	8741.90
464.41	9193.62
464.59	9132.77
464.78	9231.07
464.96	9364.48
465.14	9090.64
465.32	9502.58
465.50	9460.45
465.69	9348.10
465.87	9291.93
466.05	9320.01
466.23	9315.33
466.41	9348.10
466.60	9467.47
466.78	9341.08
466.96	9432.36
467.14	9474.49
467.32	9591.52
467.51	9507.26
467.69	9195.96
467.87	9554.07
468.05	9551.73
468.23	9654.71
468.41	9710.88
468.60	9745.99
468.78	9692.16
468.96	9687.48
469.14	9853.66
469.32	9823.23
469.50	9554.07
469.69	9767.06
469.87	10164.95
470.05	9935.57
470.23	9830.25
470.41	9912.17
470.59	10064.30
470.77	10202.40
470.95	10347.51
471.14	10228.14
471.32	10176.65
471.50	10534.75
471.68	10394.32
471.86	10518.37
472.04	10611.99
472.22	10848.38
472.40	10300.70
472.58	10258.57
472.77	10743.06
472.95	10829.66
473.13	10977.11
473.31	10644.76
473.49	10614.33
473.67	10647.10
473.85	10768.80
474.03	11033.29
474.21	10967.75
474.39	11185.42
474.57	11089.46
474.75	11314.15
474.93	11454.58
475.12	11066.05
475.30	11335.21
475.48	11360.96
475.66	11248.61
475.84	11281.38
476.02	11501.39
476.20	11531.82
476.38	12002.27
476.56	11819.71
476.74	11786.94
476.92	11896.94
477.10	12056.10
477.28	12210.57
477.46	12231.64
477.64	12531.23
477.82	12582.72
478.00	12615.49
478.18	12620.17
478.36	12702.09
478.54	12746.56
478.72	12943.16
478.90	13163.17
479.08	13205.30
479.26	13202.96
479.44	13336.37
479.62	13682.77
479.80	13549.36
479.98	13617.24
480.16	13809.16
480.34	13682.77
480.52	13987.04
480.70	13816.18
480.88	13795.12
481.06	14010.45
481.24	13989.38
481.41	14345.14
481.59	14679.84
481.77	14696.22
481.95	14506.64
482.13	14682.18
482.31	14813.25
482.49	14892.83
482.67	14960.70
482.85	15098.80
483.03	15447.54
483.21	15569.24
483.39	15522.43
483.57	15396.04
483.74	15880.53
483.92	15896.92
484.10	15709.68
484.28	16053.73
484.46	16095.86
484.64	16589.72
484.82	16283.11
485.00	16301.83
485.18	16358.00
485.35	16320.56
485.53	16119.27
485.71	16196.51
485.89	16297.15
486.07	16531.20
486.25	16744.19
486.43	16929.09
486.61	17198.26
486.78	17411.25
486.96	17291.88
487.14	17771.69
487.32	18033.83
487.50	17884.03
487.68	18277.24
487.85	18469.17
488.03	18782.80
488.21	18881.10
488.39	18705.56
488.57	18864.72
488.75	18869.40
488.92	19239.20
489.10	19576.24
489.28	19513.05
489.46	19829.02
489.64	19779.87
489.81	20379.04
489.99	20250.32
490.17	20465.64
490.35	20662.25
490.53	20844.81
490.70	20545.22
490.88	20975.88
491.06	21181.85
491.24	20744.17
491.41	21195.89
491.59	20985.24
491.77	20655.23
491.95	21050.78
492.13	21645.27
492.30	21523.57
492.48	21984.65
492.66	21853.58
492.84	22022.10
493.01	22249.13
493.19	22171.89
493.37	22466.80
493.54	22874.06
493.72	22698.52
493.90	22735.96
494.08	23152.58
494.25	23634.73
494.43	23332.80
494.61	23372.59
494.79	23812.61
494.96	23744.73
495.14	23950.70
495.32	23735.37
495.49	23807.93
495.67	23627.71
495.85	24287.74
496.02	24257.31
496.20	24505.41
496.38	24744.14
496.55	24793.29
496.73	25273.10
496.91	24931.39
497.09	25172.46
497.26	25371.41
497.44	25443.96
497.62	25586.74
497.79	25937.82
497.97	25235.66
498.14	25694.40
498.32	25923.77
498.50	25553.97
498.67	26457.42
498.85	26434.01
499.03	26492.52
499.20	26710.19
499.38	26417.63
499.56	26787.43
499.73	26661.04
499.91	26867.01
500.08	26792.11
500.26	26595.51
500.44	26977.01
500.61	26939.57
500.79	26473.80
500.97	26993.40
501.14	27452.14
501.32	27257.88
501.49	27386.61
501.67	27307.03
501.84	27723.65
502.02	27747.05
502.20	28175.37
502.37	27997.49
502.55	28158.99
502.72	27894.50
502.90	28093.45
503.07	28137.92
503.25	28526.45
503.43	28395.38
503.60	28210.48
503.78	28364.95
503.95	28379.00
504.13	28716.03
504.30	28891.57
504.48	29078.82
504.65	29385.43
504.83	29303.51
505.01	29572.67
505.18	29088.18
505.36	29610.12
505.53	29752.89
505.71	30087.59
505.88	29905.02
506.06	29392.45
506.23	30031.41
506.41	29755.23
506.58	30029.07
506.76	30075.88
506.93	30438.67
507.11	30171.85
507.28	30244.40
507.46	30450.37
507.63	30464.41
507.81	30618.89
507.98	30361.43
508.16	30658.68
508.33	30862.30
508.50	31119.76
508.68	31159.55
508.85	31690.85
509.03	31302.32
509.20	31295.30
509.38	31452.12
509.55	31072.95
509.73	31775.11
509.90	31676.81
510.08	31407.65
510.25	31641.70
510.42	32013.85
510.60	31828.95
510.77	31981.08
510.95	32477.27
511.12	31779.79
511.30	32332.16
511.47	32535.79
511.64	32493.66
511.82	32598.98
511.99	32306.41
512.17	32814.31
512.34	32376.63
512.51	32556.85
512.69	33078.79
512.86	32800.27
513.04	33296.46
513.21	32959.42
513.38	32919.63
513.56	33223.90
513.73	32589.62
513.90	33092.83
514.08	33315.19
514.25	33574.98
514.43	33369.02
514.60	33722.44
514.77	33464.98
514.95	33902.66
515.12	33516.47
515.29	33883.94
515.47	34263.10
515.64	34150.76
515.81	34375.45
515.99	34036.07
516.16	33921.38
516.33	33993.94
516.51	33921.38
516.68	33294.12
516.85	33750.52
517.03	33977.56
517.20	34045.43
517.37	34330.98
517.54	34586.10
517.72	34190.55
517.89	34031.39
518.06	34171.82
518.24	34490.13
518.41	34731.21
518.58	34934.84
518.75	34941.86
518.93	35063.57
519.10	34740.57
519.27	35138.46
519.45	35236.77
519.62	35758.70
519.79	35534.01
519.96	35702.53
520.14	35351.45
520.31	35269.53
520.48	35599.55
520.65	35421.67
520.83	36226.81
521.00	36313.41
521.17	36453.84
521.34	35941.27
521.52	36538.10
521.69	36802.58
521.86	36830.67
522.03	36512.36
522.20	36510.02
522.38	36409.37
522.55	36383.63
522.72	36652.79
522.89	36641.09
523.07	36811.95
523.24	36666.83
523.41	36919.61
523.58	36943.02
523.75	37462.61
523.92	37361.97
524.10	37715.39
524.27	38043.07
524.44	37469.64
524.61	37958.81
524.78	37682.62
524.96	37998.60
525.13	37912.00
525.30	37696.67
525.47	38260.74
525.64	37631.13
525.81	38642.24
525.98	37727.10
526.16	37408.78
526.33	37315.16
526.50	37731.78
526.67	37759.86
526.84	37572.62
527.01	37759.86
527.18	38225.63
527.36	38043.07
527.53	38670.33
527.70	38464.36
527.87	38485.43
528.04	38026.68
528.21	38630.54
528.38	38581.39
528.55	39433.35
528.72	39210.99
528.89	39175.89
529.07	39005.03
529.24	39285.89
529.41	39241.42
529.58	39299.94
529.75	39124.40
529.92	39297.59
530.09	39477.82
530.26	39414.62
530.43	39765.70
530.60	39201.63
530.77	39646.33
530.94	39353.77
531.11	39531.65
531.28	39302.28
531.46	39819.53
531.63	39981.03
531.80	39653.36
531.97	39861.66
532.14	39873.37
532.31	39632.29
532.48	39440.37
532.65	39856.98
532.82	39529.31
532.99	40011.46
533.16	40140.19
533.33	40285.30
533.50	40385.94
533.67	40020.82
533.84	40142.53
534.01	40397.65
534.18	40339.13
534.35	40521.69
534.52	40392.97
534.69	40404.67
534.86	41029.59
535.03	40154.23
535.20	40807.24
535.37	41036.61
535.54	41500.04
535.71	40774.47
535.88	41174.70
536.05	40987.46
536.22	40840.01
536.38	41329.18
536.55	40753.41
536.72	41312.80
536.89	40825.96
537.06	40762.77
537.23	41350.24
537.40	41116.19
537.57	41312.80
537.74	41198.11
537.91	41839.42
538.08	41673.24
538.25	40982.78
538.42	41441.53
538.59	41612.38
538.75	41588.98
538.92	41855.80
539.09	41914.31
539.26	41890.91
539.43	41656.85
539.60	41600.68
539.77	41443.87
539.94	41897.93
540.11	41661.54
540.28	41921.34
540.44	42103.90
540.61	42031.34
540.78	41460.25
540.95	41617.07
541.12	42096.88
541.29	42305.18
541.46	42054.75
541.62	42143.69
541.79	42429.23
541.96	41673.24
542.13	42066.45
542.30	42122.62
542.47	42129.64
542.63	42279.44
542.80	42312.20
542.97	42611.79
543.14	42438.59
543.31	43227.35
543.48	42787.33
543.64	43339.70
543.81	43065.86
543.98	42759.25
544.15	43192.25
544.32	43070.54
544.48	43260.12
544.65	43206.29
544.82	43175.86
544.99	43002.66
545.16	43117.35
545.32	42752.23
545.49	43863.98
545.66	43875.68
545.83	43037.77
546.00	43702.48
546.16	43585.46
546.33	43435.66
546.50	43276.51
546.67	43587.80
546.83	43166.50
547.00	43482.47
547.17	43611.20
547.34	43496.52
547.50	43423.96
547.67	43880.36
547.84	43540.99
548.00	44044.20
548.17	43966.96
548.34	43669.72
548.51	44299.32
548.67	44091.01
548.84	43973.98
549.01	44098.03
549.18	44086.33
549.34	43983.35
549.51	44098.03
549.68	43992.71
549.84	44013.77
550.01	44149.53
550.18	44189.31
550.34	44083.99
550.51	44116.76
550.68	44343.79
550.84	44079.31
551.01	44706.57
551.18	44133.14
551.34	44046.54
551.51	44722.96
551.68	44355.49
551.84	44924.24
552.01	44231.44
552.18	44313.36
552.34	44318.04
552.51	44512.31
552.68	44266.55
552.84	44556.78
553.01	44713.59
553.18	44641.04
553.34	44732.32
553.51	44760.40
553.67	44725.30
553.84	45165.32
554.01	44680.83
554.17	45036.59
554.34	44879.77
554.51	45003.82
554.67	45127.87
554.84	44994.46
555.00	44699.55
555.17	45130.21
555.33	44978.07
555.50	44739.34
555.67	45202.77
555.83	44708.91
556.00	45467.25
556.16	45162.98
556.33	45200.43
556.50	44851.69
556.66	45427.46
556.83	44861.05
556.99	45247.24
557.16	45584.27
557.32	45059.99
557.49	45240.21
557.65	45214.47
557.82	45296.39
557.98	45151.27
558.15	45560.87
558.32	45808.96
558.48	44825.94
558.65	45481.29
558.81	45518.74
558.98	45106.80
559.14	45083.40
559.31	45205.11
559.47	45078.72
559.64	45361.92
559.80	45265.96
559.97	45815.99
560.13	45102.12
560.30	45560.87
560.46	45619.38
560.63	45722.37
560.79	45193.40
560.96	46059.40
561.12	45507.04
561.29	45310.43
561.45	45766.84
561.61	45397.03
561.78	45326.81
561.94	45509.38
562.11	45277.66
562.27	45242.56
562.44	45581.93
562.60	45970.46
562.77	45804.28
562.93	45511.72
563.10	45993.87
563.26	45652.15
563.42	46155.36
563.59	45647.47
563.75	45724.71
563.92	45797.26
564.08	45888.54
564.24	46239.62
564.41	46213.88
564.57	45668.53
564.74	45720.02
564.90	45773.86
565.07	45663.85
565.23	45560.87
565.39	45656.83
565.56	45972.80
565.72	45535.12
565.88	45914.29
566.05	45603.00
566.21	45942.38
566.38	45523.42
566.54	45979.82
566.70	46017.27
566.87	46602.41
567.03	46148.34
567.19	46344.95
567.36	46265.37
567.52	46153.02
567.68	45904.93
567.85	45970.46
568.01	45797.26
568.17	45682.58
568.34	46167.07
568.50	45977.48
568.66	46089.83
568.83	46431.55
568.99	46082.81
569.15	45759.81
569.32	45614.70
569.48	45940.04
569.64	46227.92
569.81	46043.02
569.97	45876.84
570.13	45668.53
570.30	45764.49
570.46	45727.05
570.62	45862.80
570.78	45497.67
570.95	45467.25
571.11	46061.74
571.27	46054.72
571.43	45961.10
571.60	46316.86
571.76	45848.75
571.92	46146.00
572.09	46155.36
572.25	46232.60
572.41	46382.40
572.57	46567.30
572.74	46756.88
572.90	46211.54
573.06	46483.04
573.22	46548.57
573.38	46146.00
573.55	46021.95
573.71	46155.36
573.87	46431.55
574.03	46080.47
574.20	46370.69
574.36	46476.02
574.52	46356.65
574.68	46059.40
574.84	46342.61
575.01	46253.67
575.17	46068.76
575.33	46066.42
575.49	45841.73
575.65	45965.78
575.82	46473.68
575.98	46082.81
576.14	46174.09
576.30	46059.40
576.46	45893.22
576.62	46057.06
576.79	46057.06
576.95	46045.36
577.11	46630.49
577.27	46197.49
577.43	45853.44
577.59	46129.62
577.75	46438.57
577.92	45588.95
578.08	45294.05
578.24	45872.16
578.40	45834.71
578.56	46309.84
578.72	46417.50
578.88	46731.14
579.04	46454.95
579.21	45958.76
579.37	46162.39
579.53	46131.96
579.69	46174.09
579.85	45942.38
580.01	46007.91
580.17	46024.29
580.33	46129.62
580.49	45993.87
580.65	46017.27
580.82	46160.05
580.98	46251.33
581.14	45815.99
581.30	46412.82
581.46	45947.06
581.62	46539.21
581.78	46162.39
581.94	46663.26
582.10	46454.95
582.26	46440.91
582.42	46576.66
582.58	46143.66
582.74	46085.15
582.90	46672.62
583.06	46581.34
583.22	46363.67
583.38	46461.97
583.54	46616.45
583.70	46344.95
583.86	46820.08
584.02	46284.09
584.18	46298.14
584.34	46674.96
584.50	46246.65
584.66	46529.85
584.82	46412.82
584.98	46490.06
585.14	46096.85
585.30	46019.61
585.46	46246.65
585.62	46218.56
585.78	46263.03
585.94	45865.14
586.10	46146.00
586.26	46230.26
586.42	46508.79
586.58	46824.76
586.74	46747.52
586.90	45900.25
587.06	46300.48
587.22	46117.92
587.38	46073.45
587.54	46300.48
587.70	46370.69
587.86	46370.69
588.02	46043.02
588.18	46546.23
588.34	46248.99
588.49	46192.81
588.65	45684.92
588.81	45848.75
588.97	45993.87
589.13	45755.13
589.29	46209.20
589.45	46073.45
589.61	46036.00
589.77	46646.88
589.93	46445.59
590.08	46567.30
590.24	46649.22
590.40	46527.51
590.56	46679.64
590.72	46614.11
590.88	46539.21
591.04	46508.79
591.20	46845.82
591.35	46649.22
591.51	46880.93
591.67	46169.41
591.83	46618.79
591.99	46061.74
592.15	46490.06
592.31	46520.49
592.46	46508.79
592.62	46653.90
592.78	46745.18
592.94	46801.35
593.10	46373.03
593.26	46873.91
593.41	46459.63
593.57	46220.90
593.73	46457.29
593.89	46305.16
594.05	46417.50
594.20	46316.86
594.36	46806.03
594.52	46211.54
594.68	46471.34
594.84	46263.03
594.99	45867.48
595.15	46639.86
595.31	46525.17
595.47	46557.94
595.62	46199.83
595.78	46277.07
595.94	46791.99
596.10	46579.00
596.25	46621.13
596.41	46494.74
596.57	46138.98
596.73	46611.77
596.88	46632.83
597.04	46504.10
597.20	46464.32
597.36	46459.63
597.51	46571.98
597.67	46595.38
597.83	46766.24
597.99	46897.31
598.14	46583.68
598.30	46211.54
598.46	46492.40
598.61	46621.13
598.77	46487.72
598.93	46691.35
599.09	46354.31
599.24	46983.91
599.40	46309.84
599.56	46770.93
599.71	46651.56
599.87	46794.33
600.03	46625.81
600.18	46234.94
600.34	46576.66
600.50	46574.32
600.65	46691.35
600.81	46358.99
600.97	46564.96
601.12	46784.97
601.28	46752.20
601.44	46429.21
601.59	46206.86
601.75	46050.04
601.91	46363.67
602.06	45764.49
602.22	46504.10
602.37	46356.65
602.53	46862.21
602.69	46726.46
602.84	45972.80
603.00	46188.13
603.16	46330.90
603.31	46415.16
603.47	46382.40
603.62	46291.12
603.78	46436.23
603.94	46405.80
604.09	46897.31
604.25	47004.98
604.40	46909.02
604.56	46197.49
604.71	46274.73
604.87	46127.28
605.03	46356.65
605.18	46380.06
605.34	46571.98
605.49	46616.45
605.65	46305.16
605.80	46223.24
605.96	46604.75
606.12	46197.49
606.27	46665.60
606.43	45993.87
606.58	46295.80
606.74	46417.50
606.89	46373.03
607.05	46717.09
607.20	46391.76
607.36	46019.61
607.51	46506.44
607.67	46319.20
607.82	46265.37
607.98	46117.92
608.13	46291.12
608.29	45918.97
608.44	46223.24
608.60	45769.18
608.75	46403.46
608.91	46218.56
609.06	45757.47
609.22	46134.30
609.37	45942.38
609.53	46295.80
609.68	46272.39
609.84	45900.25
609.99	45956.42
610.15	45752.79
610.30	45720.02
610.46	45434.48
610.61	45982.16
610.76	45783.22
610.92	46017.27
611.07	45698.96
611.23	45783.22
611.38	46047.70
611.54	45661.51
611.69	45357.24
611.84	45710.66
612.00	45713.00
612.15	45691.94
612.31	45799.60
612.46	45368.94
612.62	45698.96
612.77	45619.38
612.92	45705.98
613.08	45429.80
613.23	45471.93
613.39	45088.08
613.54	44898.50
613.69	45162.98
613.85	45158.30
614.00	45752.79
614.15	45551.51
614.31	45549.17
614.46	45539.80
614.62	45104.46
614.77	45673.21
614.92	45272.98
615.08	45364.26
615.23	45214.47
615.38	44949.99
615.54	45008.50
615.69	45127.87
615.84	45478.95
616.00	45315.11
616.15	45230.85
616.30	45518.74
616.46	44971.05
616.61	44769.77
616.76	45020.20
616.92	44865.73
617.07	45102.12
617.22	44746.36
617.37	44491.24
617.53	45031.91
617.68	45050.63
617.83	44729.98
617.99	44832.96
618.14	44697.21
618.29	44502.95
618.45	44411.67
618.60	44318.04
618.75	44634.02
618.90	44289.96
619.06	44385.92
619.21	44133.14
619.36	44788.49
619.51	44975.73
619.67	44634.02
619.82	44657.42
619.97	44418.69
620.12	44105.06
620.28	44163.57
620.43	44751.04
620.58	43978.67
620.73	44201.02
620.89	43934.20
621.04	44313.36
621.19	44832.96
621.34	44346.13
621.49	44254.85
621.65	44322.72
621.80	44563.80
621.95	44112.08
622.10	44477.20
622.25	44156.55
622.41	43744.61
622.56	43597.16
622.71	44458.48
622.86	43592.48
623.01	44168.25
623.16	44069.95
623.32	44058.24
623.47	44238.47
623.62	44334.43
623.77	43957.60
623.92	43379.49
624.07	43742.27
624.23	43723.55
624.38	43342.04
624.53	43690.78
624.68	43646.31
624.83	43812.49
624.98	43501.20
625.13	43522.26
625.29	43402.89
625.44	43040.11
625.59	43470.77
625.74	43332.68
625.89	43213.31
626.04	43084.58
626.19	43423.96
626.34	43395.87
626.49	43515.24
626.65	43126.71
626.80	43718.87
626.95	43269.48
627.10	42792.01
627.25	43384.17
627.40	42625.84
627.55	42628.18
627.70	42693.71
627.85	43021.39
628.00	42883.30
628.15	43082.24
628.30	43072.88
628.45	43107.99
628.60	42756.91
628.76	43136.07
628.91	42590.73
629.06	42497.11
629.21	42478.38
629.36	42548.60
629.51	42473.70
629.66	42478.38
629.81	42534.56
629.96	42277.10
630.11	42543.92
630.26	43063.52
630.41	42852.87
630.56	42693.71
630.71	42738.18
630.86	42328.59
631.01	41942.40
631.16	42485.40
631.31	41998.57
631.46	42075.81
631.61	42363.70
631.76	42108.58
631.91	42588.39
632.06	42621.16
632.21	41801.97
632.36	42218.58
632.51	41883.89
632.66	42417.53
632.81	41825.37
632.96	41935.38
633.10	41993.89
633.25	42082.83
633.40	42256.03
633.55	42260.71
633.70	41778.56
633.85	41872.18
634.00	41993.89
634.15	41310.46
634.30	41961.12
634.45	41778.56
634.60	41394.71
634.75	41509.40
634.90	41771.54
635.05	41511.74
635.19	41614.72
635.34	41574.94
635.49	41626.43
635.64	41577.28
635.79	41593.66
635.94	41450.89
636.09	41436.84
636.24	41277.69
636.39	40985.12
636.53	41207.47
636.68	40996.82
636.83	41343.22
636.98	41139.60
637.13	41212.15
637.28	41462.59
637.43	41324.50
637.57	41530.47
637.72	41153.64
637.87	41050.66
638.02	41324.50
638.17	41029.59
638.32	40788.52
638.46	41184.07
638.61	40711.28
638.76	41038.95
638.91	41198.11
639.06	40928.95
639.20	41226.20
639.35	41233.22
639.50	41003.85
639.65	40931.29
639.80	40879.80
639.94	40524.04
640.09	40861.07
640.24	40376.58
640.39	40594.25
640.54	40439.78
640.68	40498.29
640.83	40701.92
640.98	40336.79
641.13	40414.03
641.27	40856.39
641.42	40339.13
641.57	40142.53
641.72	40767.45
641.86	40189.34
642.01	40268.92
642.16	40100.40
642.31	39847.62
642.45	40542.76
642.60	40224.45
642.75	40243.17
642.90	40311.05
643.04	40168.27
643.19	40332.11
643.34	39990.39
643.48	39920.18
643.63	40163.59
643.78	40119.12
643.93	40215.08
644.07	39929.54
644.22	40133.17
644.37	39672.08
644.51	40156.57
644.66	39704.85
644.81	39847.62
644.95	39873.37
645.10	39529.31
645.25	39962.31
645.39	40135.51
645.54	39812.51
645.69	39442.71
645.83	39449.73
645.98	39510.58
646.13	39203.97
646.27	39742.30
646.42	39695.49
646.57	39515.26
646.71	38909.07
646.86	39978.69
647.00	39531.65
647.15	39407.60
647.30	39559.73
647.44	39721.23
647.59	39344.41
647.74	39292.91
647.88	38998.01
648.03	39180.57
648.17	39227.38
648.32	39072.90
648.47	39093.97
648.61	39290.57
648.76	39274.19
648.90	39229.72
649.05	39061.20
649.20	39131.42
649.34	38976.94
649.49	38319.25
649.63	38822.47
649.78	38960.56
649.92	39173.55
650.07	39192.27
650.21	38799.06
650.36	39068.22
650.51	39175.89
650.65	39646.33
650.80	39625.27
650.94	39077.58
651.09	39098.65
651.23	38497.13
651.38	38543.94
651.52	38522.88
651.67	38307.55
651.81	38588.41
651.96	38710.12
652.10	38520.54
652.25	38391.81
652.39	38682.03
652.54	38600.12
652.68	38789.70
652.83	38576.71
652.97	38747.57
653.12	38649.27
653.26	38204.56
653.41	38153.07
653.55	38302.87
653.70	38309.89
653.84	38534.58
653.99	38473.73
654.13	38508.83
654.27	38202.22
654.42	38206.90
654.56	38267.76
654.71	37883.91
654.85	37912.00
655.00	38314.57
655.14	37902.64
655.29	37794.97
655.43	37713.05
655.57	37558.58
655.72	37181.75
655.86	37495.38
656.01	37254.31
656.15	37102.17
656.30	37563.26
656.44	37111.53
656.58	37612.41
656.73	37542.19
656.87	37518.79
657.01	37050.68
657.16	37469.64
657.30	37186.43
657.45	37113.87
657.59	36999.19
657.73	37266.01
657.88	37481.34
658.02	37481.34
658.16	37502.40
658.31	37160.69
658.45	37376.01
658.60	37429.85
658.74	37338.57
658.88	37083.45
659.03	37001.53
659.17	37240.26
659.31	36978.12
659.46	36945.36
659.60	37200.47
659.74	36872.80
659.89	36517.04
660.03	36315.75
660.17	37174.73
660.32	36835.35
660.46	36947.70
660.60	36673.85
660.74	36573.21
660.89	36554.49
661.03	36135.53
661.17	36371.92
661.32	36226.81
661.46	36343.84
661.60	36355.54
661.74	36105.10
661.89	36390.65
662.03	36357.88
662.17	36201.07
662.31	36364.90
662.46	36580.23
662.60	36247.88
662.74	36172.98
662.88	36004.46
663.03	35955.31
663.17	36114.47
663.31	35761.05
663.45	35632.32
663.60	35667.42
663.74	35674.45
663.88	35391.24
664.02	35751.68
664.17	35608.91
664.31	35416.99
664.45	35306.98
664.59	35159.53
664.73	35189.95
664.88	35070.59
665.02	34906.75
665.16	34763.98
665.30	35143.14
665.44	35330.39
665.59	34855.26
665.73	34696.10
665.87	34586.10
666.01	34810.79
666.15	34831.85
666.29	34562.69
666.44	34558.01
666.58	34916.11
666.72	34691.42
666.86	34614.18
667.00	34363.75
667.14	34483.11
667.28	34724.19
667.43	34333.32
667.57	34464.39
667.71	34167.14
667.85	34284.17
667.99	34279.49
668.13	34103.95
668.27	34015.01
668.41	34246.72
668.56	33830.10
668.70	34015.01
668.84	33745.84
668.98	33703.71
669.12	33677.97
669.26	33743.50
669.40	33448.60
669.54	33186.46
669.68	33582.01
669.82	33017.94
669.96	33020.28
670.10	32943.04
670.25	33275.40
670.39	32879.85
670.53	32905.59
670.67	32744.09
670.81	32828.35
670.95	32968.79
671.09	32563.87
671.23	32620.05
671.37	32797.93
671.51	32514.72
671.65	32657.49
671.79	32109.81
671.93	32774.52
672.07	32552.17
672.21	32507.70
672.35	31945.97
672.49	32081.72
672.63	32313.44
672.77	32229.18
672.91	32250.24
673.05	31945.97
673.19	31969.38
673.33	31819.58
673.47	31702.56
673.61	31749.37
673.75	31309.35
673.89	31213.38
674.03	31360.84
674.17	31606.59
674.31	31438.08
674.45	31307.01
674.59	31456.80
674.73	31566.81
674.87	31276.58
675.01	31152.53
675.15	31227.43
675.29	30668.04
675.43	30768.68
675.56	31023.80
675.70	30707.83
675.84	30810.81
675.98	29680.33
676.12	30089.93
676.26	30026.73
676.40	30370.79
676.54	30651.66
676.68	30206.95
676.82	30199.93
676.96	30092.27
677.10	30082.91
677.23	29956.52
677.37	29656.93
677.51	29647.57
677.65	29497.77
677.79	29020.30
677.93	29277.76
678.07	28671.56
678.21	28814.34
678.34	28802.63
678.48	28919.66
678.62	28676.24
678.76	28528.79
678.90	28573.26
679.04	28278.35
679.18	28198.77
679.31	28231.54
679.45	28072.39
679.59	28287.71
679.73	28126.22
679.87	27864.08
680.00	27548.11
680.14	27901.53
680.28	27843.01
680.42	27702.58
680.56	27557.47
680.70	27803.22
680.83	27454.48
680.97	27175.96
681.11	27316.39
681.25	27489.59
681.39	27161.92
681.52	27058.93
681.66	26871.69
681.80	27049.57
681.94	26712.53
682.07	26412.95
682.21	26441.03
682.35	26642.32
682.49	26218.68
682.62	26197.62
682.76	26548.70
682.90	26099.31
683.04	26256.13
683.17	26363.79
683.31	26038.46
683.45	25989.31
683.59	25593.76
683.72	26050.16
683.86	26043.14
684.00	25680.36
684.13	25179.48
684.27	25193.53
684.41	25322.26
684.55	25125.65
684.68	25097.56
684.82	24968.84
684.96	24877.55
685.09	24886.92
685.23	24828.40
685.37	24889.26
685.50	24753.51
685.64	24531.15
685.78	24418.81
685.91	24713.72
686.05	24198.80
686.19	23819.63
686.32	23747.08
686.46	23690.90
686.60	23307.05
686.73	23124.49
686.87	23058.96
687.01	22988.74
687.14	23250.88
687.28	22815.54
687.42	22984.06
687.55	23227.48
687.69	22946.61
687.82	22972.36
687.96	22916.19
688.10	22640.00
688.23	22291.26
688.37	22834.27
688.50	22539.36
688.64	22661.07
688.78	22565.10
688.91	22309.99
689.05	21940.18
689.18	22092.32
689.32	21465.05
689.46	22040.82
689.59	22525.32
689.73	21795.07
689.86	21914.44
690.00	21720.17
690.13	21518.89
690.27	21544.63
690.41	21607.83
690.54	21165.46
690.68	21443.99
690.81	21415.90
690.95	21380.79
691.08	21422.92
691.22	21090.57
691.35	20992.26
691.49	21095.25
691.62	21001.63
691.76	21050.78
691.89	20776.94
692.03	20671.61
692.16	20809.70
692.30	20479.69
692.43	20063.07
692.57	20217.55
692.70	20025.62
692.84	20086.48
692.97	20053.71
693.11	19822.00
693.24	19939.02
693.38	19580.92
693.51	19859.45
693.65	19843.06
693.78	19417.08
693.92	19461.55
694.05	19344.53
694.19	19499.00
694.32	19161.97
694.45	19342.19
694.59	19005.15
694.72	19073.03
694.86	18867.06
694.99	18703.22
695.13	18923.23
695.26	18490.23
695.39	18635.35
695.53	19033.24
695.66	18572.15
695.80	18520.66
695.93	18654.07
696.07	18403.63
696.20	18291.29
696.33	17900.42
696.47	18310.01
696.60	18092.34
696.73	17813.82
696.87	17961.27
697.00	17624.23
697.14	17708.49
697.27	17617.21
697.40	17507.21
697.54	17444.01
697.67	17324.65
697.80	17083.57
697.94	17179.53
698.07	17125.70
698.21	17479.12
698.34	17163.15
698.47	17172.51
698.61	17092.93
698.74	16734.83
698.87	16643.55
699.01	16638.87
699.14	16540.57
699.27	16390.77
699.40	16369.71
699.54	16521.84
699.67	16156.72
699.80	15932.03
699.94	16091.18
700.07	16166.08
700.20	16194.17
700.34	16119.27
700.47	15962.45
700.60	16175.44
700.73	15871.17
700.87	15887.56
701.00	15676.91
701.13	15529.45
701.26	15396.04
701.40	15330.51
701.53	15309.44
701.66	15248.59
701.79	15059.01
701.93	15051.99
702.06	15061.35
702.19	15103.48
702.32	14939.64
702.46	15229.87
702.59	15023.90
702.72	14839.00
702.85	14726.65
702.99	14656.43
703.12	14775.80
703.25	14375.57
703.38	14469.19
703.51	14389.61
703.65	14406.00
703.78	14094.71
703.91	14012.79
704.04	13898.10
704.17	13947.25
704.31	14132.15
704.44	13778.73
704.57	13909.80
704.70	13551.70
704.83	13610.22
704.96	13699.16
705.10	13867.67
705.23	13556.38
>>>>>End Processed Spectral Data<<<<<
