SpectraSuite Data File
++++++++++++++++++++++++++++++++++++
Date: Fri Oct 25 10:44:26 EDT 2013
User: price-jones
Dark Spectrum Present: No
Reference Spectrum Present: No
Number of Sampled Component Spectra: 1
Spectrometers: USB2+H05261
Integration Time (usec): 100000 (USB2+H05261)
Spectra Averaged: 1 (USB2+H05261)
Boxcar Smoothing: 0 (USB2+H05261)
Correct for Electrical Dark: No (USB2+H05261)
Strobe/Lamp Enabled: No (USB2+H05261)
Correct for Detector Non-linearity: No (USB2+H05261)
Correct for Stray Light: No (USB2+H05261)
Number of Pixels in Processed Spectrum: 2048
>>>>>Begin Processed Spectral Data<<<<<
365.73	173.20
365.92	173.20
366.12	173.20
366.32	0.00
366.52	42.13
366.72	21.06
366.91	0.00
367.11	0.00
367.31	16.38
367.51	0.00
367.70	0.00
367.90	0.00
368.10	49.15
368.30	44.47
368.49	42.13
368.69	98.30
368.89	67.88
369.09	70.22
369.28	51.49
369.48	18.72
369.68	39.79
369.87	142.77
370.07	25.75
370.27	131.07
370.47	196.60
370.66	332.36
370.86	400.23
371.06	491.51
371.25	407.25
371.45	423.64
371.65	503.22
371.84	489.17
372.04	465.77
372.24	463.43
372.44	440.02
372.63	552.37
372.83	505.56
373.03	557.05
373.22	517.26
373.42	505.56
373.62	550.03
373.81	550.03
374.01	587.47
374.21	526.62
374.40	578.11
374.60	535.98
374.79	589.82
374.99	547.69
375.19	641.31
375.38	578.11
375.58	550.03
375.78	610.88
375.97	634.29
376.17	662.37
376.37	571.09
376.56	613.22
376.76	657.69
376.95	594.50
377.15	671.73
377.35	596.84
377.54	741.95
377.74	645.99
377.93	643.65
378.13	704.50
378.33	578.11
378.52	650.67
378.72	613.22
378.91	655.35
379.11	631.94
379.31	653.01
379.50	603.86
379.70	641.31
379.89	760.67
380.09	725.57
380.28	699.82
380.48	770.04
380.68	655.35
380.87	648.33
381.07	781.74
381.26	720.88
381.46	716.20
381.65	784.08
381.85	669.39
382.04	671.73
382.24	720.88
382.43	718.54
382.63	835.57
382.83	699.82
383.02	779.40
383.22	763.01
383.41	697.48
383.61	704.50
383.80	767.70
384.00	791.10
384.19	798.12
384.39	844.93
384.58	828.55
384.78	823.87
384.97	779.40
385.17	854.30
385.36	861.32
385.56	849.61
385.75	837.91
385.95	910.47
386.14	964.30
386.34	835.57
386.53	858.98
386.72	870.68
386.92	891.74
387.11	964.30
387.31	851.96
387.50	788.76
387.70	858.98
387.89	882.38
388.09	880.04
388.28	856.64
388.48	910.47
388.67	978.34
388.86	884.72
389.06	926.85
389.25	992.39
389.45	990.05
389.64	973.66
389.84	1062.60
390.03	1053.24
390.22	1095.37
390.42	1039.20
390.61	994.73
390.81	1116.44
391.00	1048.56
391.19	1020.47
391.39	1095.37
391.58	1123.46
391.78	1107.07
391.97	1093.03
392.16	1088.35
392.36	1086.01
392.55	1067.28
392.75	994.73
392.94	1015.79
393.13	1029.84
393.33	1011.11
393.52	1041.54
393.71	1165.59
393.91	1135.16
394.10	1086.01
394.29	1160.91
394.49	1177.29
394.68	1247.51
394.88	1299.00
395.07	1334.11
395.26	1345.81
395.46	1181.97
395.65	1247.51
395.84	1254.53
396.04	1242.82
396.23	1249.85
396.42	1181.97
396.62	1196.01
396.81	1284.95
397.00	1191.33
397.19	1331.76
397.39	1385.60
397.58	1338.79
397.77	1392.62
397.97	1528.37
398.16	1359.85
398.35	1593.90
398.55	1430.07
398.74	1439.43
398.93	1453.47
399.12	1603.27
399.32	1497.94
399.51	1547.09
399.70	1540.07
399.90	1521.35
400.09	1664.12
400.28	1666.46
400.47	1694.55
400.67	1792.85
400.86	1795.19
401.05	1717.95
401.24	1746.04
401.44	1732.00
401.63	1689.87
401.82	1748.38
402.01	1776.47
402.21	1842.00
402.40	1849.02
402.59	1860.73
402.78	1802.21
402.97	1720.29
403.17	1842.00
403.36	1811.57
403.55	1837.32
403.74	1923.92
403.93	1900.52
404.13	1963.71
404.32	1949.67
404.51	1998.82
404.70	1961.37
404.89	2008.18
405.09	2047.97
405.28	2019.88
405.47	1977.75
405.66	2040.95
405.85	2113.50
406.05	2073.71
406.24	2097.12
406.43	2160.31
406.62	2260.96
406.81	2289.04
407.00	2040.95
407.20	2143.93
407.39	2148.61
407.58	2284.36
407.77	2193.08
407.96	2176.70
408.15	2352.24
408.34	2314.79
408.54	2530.12
408.73	2356.92
408.92	2396.71
409.11	2340.54
409.30	2363.94
409.49	2356.92
409.68	2244.57
409.87	2216.49
410.07	2340.54
410.26	2471.61
410.45	2509.05
410.64	2588.63
410.83	2677.57
411.02	2588.63
411.21	2675.23
411.40	2700.98
411.59	2710.34
411.78	2640.12
411.98	2691.62
412.17	2705.66
412.36	2726.72
412.55	2855.45
412.74	2925.67
412.93	2897.58
413.12	2794.60
413.31	3016.95
413.50	2930.35
413.69	2991.20
413.88	2981.84
414.07	2991.20
414.26	3073.12
414.45	3129.30
414.64	3082.49
414.83	3180.79
415.02	3105.89
415.22	3162.06
415.41	3283.77
415.60	3267.39
415.79	3251.00
415.98	3290.79
416.17	3389.10
416.36	3365.69
416.55	3314.20
416.74	3297.81
416.93	3440.59
417.12	3356.33
417.31	3386.76
417.50	3391.44
417.69	3695.71
417.88	3588.04
418.07	3606.77
418.26	3536.55
418.45	3655.92
418.64	3646.55
418.83	3660.60
419.02	3592.72
419.21	3681.66
419.39	3723.79
419.58	3691.02
419.77	3562.30
419.96	3592.72
420.15	3920.40
420.34	3838.48
420.53	3763.58
420.72	3857.20
420.91	3948.48
421.10	3730.81
421.29	4037.42
421.48	3892.31
421.67	4121.68
421.86	3896.99
422.05	3932.10
422.24	3875.93
422.43	3899.33
422.61	4002.32
422.80	4049.13
422.99	3957.85
423.18	3995.29
423.37	4222.33
423.56	4032.74
423.75	4007.00
423.94	4093.60
424.13	3899.33
424.32	3922.74
424.50	4205.94
424.69	4173.18
424.88	4072.53
425.07	4168.49
425.26	3908.69
425.45	4084.23
425.64	3971.89
425.83	4056.15
426.01	4194.24
426.20	3960.19
426.39	4128.70
426.58	4084.23
426.77	3967.21
426.96	4156.79
427.15	4121.68
427.33	4138.07
427.52	4180.20
427.71	4283.18
427.90	4273.82
428.09	4215.30
428.28	4140.41
428.46	4327.65
428.65	4435.32
428.84	4329.99
429.03	4484.47
429.22	4224.67
429.40	4224.67
429.59	4182.54
429.78	4053.81
429.97	3932.10
430.16	4088.92
430.34	4147.43
430.53	4285.52
430.72	4266.80
430.91	4379.14
431.10	4376.80
431.28	4587.45
431.47	4657.67
431.66	4795.76
431.85	4582.77
432.03	4777.03
432.22	4688.09
432.41	4779.37
432.60	4823.84
432.79	4837.89
432.97	4926.83
433.16	4837.89
433.35	4800.44
433.54	4809.80
433.72	4798.10
433.91	4823.84
434.10	4973.64
434.28	4884.70
434.47	4980.66
434.66	4924.49
434.85	4985.34
435.03	4985.34
435.22	5041.51
435.41	5235.78
435.59	5320.04
435.78	5200.67
435.97	5488.56
436.16	5411.32
436.34	5315.36
436.53	5135.14
436.72	5444.09
436.90	5287.27
437.09	5336.42
437.28	5259.18
437.46	5322.38
437.65	5439.40
437.84	5280.25
438.02	5284.93
438.21	5366.85
438.40	5362.17
438.58	5502.60
438.77	5631.33
438.96	5444.09
439.14	5678.14
439.33	5771.76
439.52	5820.91
439.70	5877.09
439.89	5767.08
440.08	5788.14
440.26	5781.12
440.45	6019.86
440.63	6209.44
440.82	6216.46
441.01	5940.28
441.19	6303.06
441.38	6267.95
441.57	6380.30
441.75	6164.97
441.94	6567.54
442.12	6387.32
442.31	6637.76
442.50	6331.15
442.68	6597.97
442.87	6537.12
443.05	6459.88
443.24	6698.61
443.43	6548.82
443.61	6780.53
443.80	6869.47
443.98	6600.31
444.17	6494.99
444.35	6740.74
444.54	6785.21
444.73	6782.87
444.91	6759.47
445.10	6715.00
445.28	6668.19
445.47	6555.84
445.65	6757.13
445.84	6743.08
446.02	6857.77
446.21	6766.49
446.39	6918.62
446.58	6930.33
446.77	6843.73
446.95	6789.89
447.14	6761.81
447.32	7082.46
447.51	6942.03
447.69	6932.67
447.88	6956.07
448.06	6796.92
448.25	6794.58
448.43	6892.88
448.62	6986.50
448.80	6979.48
448.99	6991.18
449.17	6981.82
449.36	6848.41
449.54	7169.06
449.73	7227.57
449.91	7276.73
450.10	7353.96
450.28	7393.75
450.46	7382.05
450.65	7360.98
450.83	7461.63
451.02	7368.01
451.20	7438.22
451.39	7613.76
451.57	7349.28
451.76	7297.79
451.94	7452.27
452.13	7456.95
452.31	7452.27
452.49	7190.13
452.68	7435.88
452.86	7428.86
453.05	7405.46
453.23	7620.78
453.42	7363.33
453.60	7473.33
453.78	7719.09
453.97	7482.69
454.15	7695.68
454.34	7581.00
454.52	7702.70
454.70	7625.47
454.89	7751.85
455.07	7719.09
455.26	7875.90
455.44	8049.10
455.62	8021.02
455.81	7992.93
455.99	7887.61
456.17	7946.12
456.36	8006.97
456.54	8156.77
456.73	8140.38
456.91	8545.30
457.09	8325.29
457.28	8589.77
457.46	8285.50
457.64	8266.77
457.83	8208.26
458.01	8245.71
458.19	8580.40
458.38	8283.16
458.56	8430.61
458.74	8573.38
458.93	8339.33
459.11	8367.42
459.29	8512.53
459.48	8498.49
459.66	8526.57
459.84	8655.30
460.03	8929.14
460.21	8657.64
460.39	8688.07
460.57	8732.54
460.76	8875.31
460.94	8999.36
461.12	8744.24
461.31	8774.67
461.49	8882.33
461.67	8971.27
461.85	9210.01
462.04	8994.68
462.22	9029.79
462.40	9341.08
462.59	9217.03
462.77	9172.56
462.95	9081.28
463.13	9195.96
463.32	9289.59
463.50	9128.09
463.68	9399.59
463.86	9329.38
464.05	9160.86
464.23	9308.31
464.41	9380.87
464.59	9111.71
464.78	9465.13
464.96	9329.38
465.14	9273.20
465.32	9380.87
465.50	9605.56
465.69	9579.81
465.87	9628.96
466.05	9659.39
466.23	9298.95
466.41	9437.04
466.60	9659.39
466.78	9554.07
466.96	9500.23
467.14	9469.81
467.32	9715.56
467.51	9877.06
467.69	9612.58
467.87	9947.28
468.05	9881.74
468.23	9764.72
468.41	9736.63
468.60	9540.02
468.78	9879.40
468.96	9673.43
469.14	9832.59
469.32	10045.58
469.50	9701.52
469.69	9867.70
469.87	10127.50
470.05	10289.00
470.23	9909.83
470.41	10120.48
470.59	10237.50
470.77	10010.47
470.95	10267.93
471.14	10438.79
471.32	10375.59
471.50	10614.33
471.68	10485.60
471.86	10569.86
472.04	10516.03
472.22	11138.61
472.40	10497.30
472.58	10686.89
472.77	10740.72
472.95	10803.91
473.13	11250.96
473.31	10862.43
473.49	10714.97
473.67	10850.72
473.85	10895.19
474.03	11314.15
474.21	11080.10
474.39	11410.11
474.57	11122.23
474.75	11274.36
474.93	11641.82
475.12	11375.00
475.30	11529.48
475.48	11571.61
475.66	11442.88
475.84	11688.64
476.02	11772.89
476.20	11800.98
476.38	12119.29
476.56	12128.66
476.74	12079.50
476.92	12086.53
477.10	11955.46
477.28	12423.56
477.46	12439.95
477.64	12755.92
477.82	12833.16
478.00	13074.23
478.18	12685.70
478.36	12922.10
478.54	12901.03
478.72	12915.08
478.90	13425.31
479.08	13315.31
479.26	13427.65
479.44	13851.29
479.62	13671.07
479.80	13565.74
479.98	13818.52
480.16	14010.45
480.34	13956.61
480.52	14008.11
480.70	14209.39
480.88	14040.87
481.06	14298.33
481.24	14256.20
481.41	14705.59
481.59	14824.95
481.77	14773.46
481.95	14820.27
482.13	15122.20
482.31	15103.48
482.49	15665.21
482.67	15300.08
482.85	15501.37
483.03	15424.13
483.21	15484.98
483.39	15660.52
483.57	15730.74
483.74	16072.46
483.92	16114.59
484.10	15829.04
484.28	16430.56
484.46	16685.68
484.64	16812.07
484.82	16432.90
485.00	16592.06
485.18	16973.56
485.35	16886.97
485.53	16463.33
485.71	16381.41
485.89	16575.67
486.07	16741.85
486.25	17219.32
486.43	17181.87
486.61	17539.97
486.78	17547.00
486.96	17462.74
487.14	18148.51
487.32	18104.04
487.50	18396.61
487.68	18530.02
487.85	18824.93
488.03	18998.13
488.21	19140.90
488.39	18958.34
488.57	18970.04
488.75	19192.39
488.92	19447.51
489.10	20100.52
489.28	19758.80
489.46	20058.39
489.64	20205.84
489.81	20547.56
489.99	20971.20
490.17	20924.39
490.35	20788.64
490.53	20664.59
490.70	20989.92
490.88	21013.33
491.06	21544.63
491.24	21078.86
491.41	21483.78
491.59	21067.16
491.77	21310.58
491.95	21472.07
492.13	21596.12
492.30	22132.11
492.48	22349.78
492.66	22405.95
492.84	22408.29
493.01	22583.83
493.19	22352.12
493.37	22845.97
493.54	22874.06
493.72	23012.15
493.90	23377.27
494.08	23349.18
494.25	23910.91
494.43	23962.40
494.61	24091.13
494.79	23747.08
494.96	23817.29
495.14	24004.53
495.32	24231.57
495.49	24465.62
495.67	24446.90
495.85	24521.79
496.02	24746.48
496.20	24851.81
496.38	25088.20
496.55	25277.79
496.73	25797.38
496.91	25518.86
497.09	25872.28
497.26	25820.79
497.44	25818.45
497.62	25483.75
497.79	25804.41
497.97	25687.38
498.14	26132.08
498.32	26204.64
498.50	26225.70
498.67	26801.47
498.85	26382.52
499.03	26874.03
499.20	26883.39
499.38	27190.00
499.56	27178.30
499.73	26885.73
499.91	26984.04
500.08	27126.81
500.26	27035.53
500.44	27302.35
500.61	27520.02
500.79	27133.83
500.97	27412.35
501.14	28004.51
501.32	27674.49
501.49	27489.59
501.67	28100.47
501.84	28114.52
502.02	28285.37
502.20	28044.30
502.37	28762.84
502.55	28510.07
502.72	28856.46
502.90	28959.45
503.07	28589.64
503.25	28704.33
503.43	28430.49
503.60	28112.17
503.78	28861.15
503.95	28882.21
504.13	28835.40
504.30	29195.84
504.48	28828.38
504.65	29659.27
504.83	29930.77
505.01	29825.45
505.18	29324.57
505.36	30197.59
505.53	29771.61
505.71	30637.61
505.88	30855.28
506.06	30211.64
506.23	30059.50
506.41	30398.88
506.58	30529.95
506.76	30579.10
506.93	30286.53
507.11	30623.57
507.28	30771.02
507.46	30281.85
507.63	30824.86
507.81	30834.22
507.98	30761.66
508.16	31131.47
508.33	30976.99
508.50	31178.28
508.68	31353.82
508.85	31864.05
509.03	31728.30
509.20	31529.36
509.38	31758.73
509.55	32044.27
509.73	32055.98
509.90	32449.19
510.08	31906.18
510.25	32439.82
510.42	32041.93
510.60	32727.71
510.77	32549.83
510.95	32697.28
511.12	32430.46
511.30	32830.69
511.47	33266.03
511.64	33453.28
511.82	33092.83
511.99	32432.80
512.17	33034.32
512.34	33406.47
512.51	33057.73
512.69	33525.83
512.86	33394.76
513.04	33596.05
513.21	33715.42
513.38	33172.41
513.56	33642.86
513.73	33584.35
513.90	33488.38
514.08	33464.98
514.25	33764.57
514.43	33626.48
514.60	33982.24
514.77	33647.54
514.95	34183.52
515.12	34354.38
515.29	34433.96
515.47	35072.93
515.64	34859.94
515.81	34305.23
515.99	34588.44
516.16	34492.47
516.33	34279.49
516.51	34469.07
516.68	34141.39
516.85	33757.55
517.03	34106.29
517.20	34707.80
517.37	34850.58
517.54	35009.73
517.72	35082.29
517.89	34937.18
518.06	34267.78
518.24	35016.75
518.41	35082.29
518.58	35196.98
518.75	34763.98
518.93	35508.27
519.10	35295.28
519.27	35866.37
519.45	35557.42
519.62	36123.83
519.79	36002.12
519.96	35995.10
520.14	35807.86
520.31	35943.61
520.48	36322.77
520.65	36472.57
520.83	36552.15
521.00	36676.19
521.17	37109.19
521.34	36629.38
521.52	36730.03
521.69	37308.14
521.86	36704.28
522.03	37156.00
522.20	36680.88
522.38	37345.59
522.55	37172.39
522.72	37247.29
522.89	37216.86
523.07	37467.30
523.24	37034.30
523.41	37610.07
523.58	37408.78
523.75	37816.04
523.92	37834.76
524.10	38256.06
524.27	37858.17
524.44	38553.30
524.61	38164.78
524.78	38143.71
524.96	38359.04
525.13	38635.22
525.30	38398.83
525.47	38988.64
525.64	38469.04
525.81	38087.54
525.98	38253.72
526.16	37769.22
526.33	37844.12
526.50	38251.38
526.67	37661.56
526.84	38010.30
527.01	38295.85
527.18	38642.24
527.36	38983.96
527.53	38972.26
527.70	39093.97
527.87	39056.52
528.04	39100.99
528.21	39325.68
528.38	38855.23
528.55	39487.18
528.72	39955.29
528.89	39981.03
529.07	39674.42
529.24	39222.70
529.41	39754.00
529.58	39707.19
529.75	39426.32
529.92	39714.21
530.09	39763.36
530.26	40074.65
530.43	40034.86
530.60	39784.43
530.77	39796.13
530.94	40521.69
531.11	40086.36
531.28	40044.23
531.46	40648.08
531.63	40486.59
531.80	39833.58
531.97	40194.02
532.14	40191.68
532.31	39992.73
532.48	40037.20
532.65	40699.58
532.82	40226.79
532.99	40957.03
533.16	40229.13
533.33	40938.31
533.50	40769.79
533.67	40788.52
533.84	40643.40
534.01	40982.78
534.18	40912.56
534.35	41336.20
534.52	40898.52
534.69	41024.91
534.86	41144.28
535.03	41242.58
535.20	41698.98
535.37	41661.54
535.54	41507.06
535.71	41450.89
535.88	41588.98
536.05	41345.56
536.22	41411.10
536.38	41581.96
536.55	41268.33
536.72	41340.88
536.89	41170.02
537.06	41560.89
537.23	42012.62
537.40	41940.06
537.57	41935.38
537.74	42129.64
537.91	42319.23
538.08	42249.01
538.25	42134.32
538.42	41663.88
538.59	42258.37
538.75	41635.79
538.92	42398.80
539.09	42167.09
539.26	42337.95
539.43	41635.79
539.60	42281.78
539.77	41998.57
539.94	42078.15
540.11	42588.39
540.28	42141.35
540.44	41968.15
540.61	42113.26
540.78	42129.64
540.95	41628.77
541.12	42038.36
541.29	42677.33
541.46	42330.93
541.62	42443.27
541.79	42871.59
541.96	42672.65
542.13	42595.41
542.30	42562.64
542.47	42733.50
542.63	42761.59
542.80	43168.84
542.97	43005.00
543.14	43555.03
543.31	43225.01
543.48	43365.45
543.64	43973.98
543.81	43878.02
543.98	43536.30
544.15	43681.42
544.32	43313.95
544.48	44177.61
544.65	44037.18
544.82	43620.56
544.99	43290.55
545.16	44208.04
545.32	43510.56
545.49	44341.45
545.66	44285.28
545.83	44119.10
546.00	44006.75
546.16	43679.08
546.33	43873.34
546.50	43522.26
546.67	43929.51
546.83	43522.26
547.00	44147.18
547.17	43863.98
547.34	43770.36
547.50	44240.81
547.67	44526.35
547.84	44531.03
548.00	44425.71
548.17	44395.28
548.34	44552.10
548.51	44755.72
548.67	44626.99
548.84	44481.88
549.01	44938.29
549.18	44516.99
549.34	44671.46
549.51	44776.79
549.68	44601.25
549.84	44861.05
550.01	44470.18
550.18	44760.40
550.34	44921.90
550.51	44987.44
550.68	44528.69
550.84	44626.99
551.01	44704.23
551.18	44837.64
551.34	44648.06
551.51	44938.29
551.68	45139.57
551.84	44928.92
552.01	44858.71
552.18	45221.49
552.34	44779.13
552.51	44755.72
552.68	44549.76
552.84	45134.89
553.01	45497.67
553.18	44741.68
553.34	44697.21
553.51	45170.00
553.67	45083.40
553.84	45549.17
554.01	45401.71
554.17	45970.46
554.34	45387.67
554.51	45663.85
554.67	45390.01
554.84	45724.71
555.00	45045.95
555.17	45581.93
555.33	45855.78
555.50	45312.77
555.67	45413.41
555.83	45411.07
556.00	45745.77
556.16	45745.77
556.33	45577.25
556.50	45607.68
556.66	45474.27
556.83	45439.16
556.99	46153.02
557.16	45642.79
557.32	45848.75
557.49	46129.62
557.65	45516.40
557.82	46040.68
557.98	45872.16
558.15	46150.68
558.32	45757.47
558.48	45633.42
558.65	45701.30
558.81	45640.45
558.98	45579.59
559.14	46103.87
559.31	45818.33
559.47	45808.96
559.64	45956.42
559.80	46192.81
559.97	45951.74
560.13	45759.81
560.30	46073.45
560.46	45776.20
560.63	45801.94
560.79	46398.78
560.96	46492.40
561.12	46064.08
561.29	46174.09
561.45	46394.10
561.61	46244.30
561.78	45956.42
561.94	46246.65
562.11	45937.69
562.27	46546.23
562.44	46286.43
562.60	46080.47
562.77	46370.69
562.93	46368.35
563.10	46356.65
563.26	46160.05
563.42	46113.23
563.59	46007.91
563.75	46499.42
563.92	46677.30
564.08	46344.95
564.24	46422.19
564.41	46333.24
564.57	46281.75
564.74	46307.50
564.90	46134.30
565.07	46607.09
565.23	46571.98
565.39	46583.68
565.56	46583.68
565.72	46354.31
565.88	46185.79
566.05	46461.97
566.21	46129.62
566.38	46358.99
566.54	46656.24
566.70	46506.44
566.87	46288.77
567.03	46307.50
567.19	46969.87
567.36	46749.86
567.52	46651.56
567.68	46803.69
567.85	46555.60
568.01	46412.82
568.17	46155.36
568.34	46707.73
568.50	46927.74
568.66	46389.42
568.83	46522.83
568.99	46471.34
569.15	46082.81
569.32	46628.15
569.48	46351.97
569.64	46784.97
569.81	46855.18
569.97	46674.96
570.13	46440.91
570.30	46333.24
570.46	46408.14
570.62	46234.94
570.78	46674.96
570.95	46401.12
571.11	46803.69
571.27	46192.81
571.43	46520.49
571.60	46288.77
571.76	46478.36
571.92	46749.86
572.09	46567.30
572.25	46396.44
572.41	46621.13
572.57	46890.29
572.74	47098.60
572.90	46763.90
573.06	46550.91
573.22	46827.10
573.38	46689.01
573.55	46834.12
573.71	46478.36
573.87	46873.91
574.03	46653.90
574.20	46894.97
574.36	46522.83
574.52	47145.41
574.68	46946.47
574.84	46361.33
575.01	46738.16
575.17	46724.11
575.33	46501.76
575.49	46667.94
575.65	46749.86
575.82	46791.99
575.98	46443.25
576.14	46728.80
576.30	46836.46
576.46	46731.14
576.62	46871.57
576.79	46883.27
576.95	46557.94
577.11	46745.18
577.27	46887.95
577.43	46871.57
577.59	46885.61
577.75	46368.35
577.92	46204.52
578.08	46373.03
578.24	46216.22
578.40	46733.48
578.56	46894.97
578.72	46543.89
578.88	47051.79
579.04	47002.64
579.21	46733.48
579.37	46642.20
579.53	46506.44
579.69	47044.77
579.85	46754.54
580.01	46567.30
580.17	46674.96
580.33	47147.75
580.49	47047.11
580.65	47004.98
580.82	47222.65
580.98	46747.52
581.14	46834.12
581.30	47028.38
581.46	47239.03
581.62	46876.25
581.78	46714.75
581.94	47040.09
582.10	46663.26
582.26	46862.21
582.42	47044.77
582.58	47007.32
582.74	46543.89
582.90	46988.60
583.06	47009.66
583.22	47075.19
583.38	47100.94
583.54	47269.46
583.70	47224.99
583.86	47070.51
584.02	46564.96
584.18	46927.74
584.34	47082.22
584.50	46487.72
584.66	46958.17
584.82	46681.98
584.98	47257.76
585.14	47159.45
585.30	46595.38
585.46	47269.46
585.62	46485.38
585.78	46871.57
585.94	46309.84
586.10	46972.21
586.26	46326.22
586.42	46459.63
586.58	47264.78
586.74	47124.35
586.90	46689.01
587.06	47028.38
587.22	46639.86
587.38	46639.86
587.54	46801.35
587.70	46665.60
587.86	46974.55
588.02	47014.34
588.18	46691.35
588.34	46569.64
588.49	46363.67
588.65	46241.96
588.81	45984.51
588.97	46319.20
589.13	46239.62
589.29	46447.93
589.45	46382.40
589.61	47075.19
589.77	46911.36
589.93	46752.20
590.08	46902.00
590.24	47292.86
590.40	47023.70
590.56	47129.03
590.72	46920.72
590.88	46820.08
591.04	47056.47
591.20	47227.33
591.35	47051.79
591.51	47253.08
591.67	46972.21
591.83	47061.15
591.99	47009.66
592.15	47393.51
592.31	47143.07
592.46	47138.39
592.62	46836.46
592.78	46974.55
592.94	47437.98
593.10	46986.25
593.26	46934.76
593.41	46742.84
593.57	47152.43
593.73	46866.89
593.89	46951.15
594.05	46993.28
594.20	46763.90
594.36	47004.98
594.52	46974.55
594.68	46763.90
594.84	46937.10
594.99	46976.89
595.15	47150.09
595.31	47143.07
595.47	46782.63
595.62	47035.41
595.78	46852.84
595.94	46869.23
596.10	47089.24
596.25	46983.91
596.41	47056.47
596.57	46894.97
596.73	47758.63
596.88	46878.59
597.04	46890.29
597.20	46904.34
597.36	46848.16
597.51	47517.56
597.67	47143.07
597.83	46836.46
597.99	47512.88
598.14	47133.71
598.30	46857.52
598.46	47241.37
598.61	47192.22
598.77	46820.08
598.93	47033.07
599.09	47114.98
599.24	47810.12
599.40	47285.84
599.56	46871.57
599.71	47084.56
599.87	47269.46
600.03	47302.23
600.18	46934.76
600.34	46967.53
600.50	46995.62
600.65	46983.91
600.81	47100.94
600.97	47271.80
601.12	47353.72
601.28	47147.75
601.44	46513.47
601.59	46871.57
601.75	46878.59
601.91	46909.02
602.06	47077.54
602.22	46600.07
602.37	46731.14
602.53	47168.82
602.69	47414.57
602.84	46981.57
603.00	47009.66
603.16	47274.14
603.31	46820.08
603.47	47086.90
603.62	46887.95
603.78	47299.89
603.94	46815.40
604.09	47643.94
604.25	47213.29
604.40	46866.89
604.56	47330.31
604.71	47166.48
604.87	46557.94
605.03	46890.29
605.18	47079.88
605.34	46962.85
605.49	46632.83
605.65	46770.93
605.80	46822.42
605.96	46700.71
606.12	47229.67
606.27	47215.63
606.43	46852.84
606.58	46712.41
606.74	46153.02
606.89	46712.41
607.05	46625.81
607.20	46684.33
607.36	46653.90
607.51	46862.21
607.67	46822.42
607.82	46670.28
607.98	46775.61
608.13	46571.98
608.29	46548.57
608.44	46501.76
608.60	46068.76
608.75	46447.93
608.91	46380.06
609.06	46487.72
609.22	46351.97
609.37	46476.02
609.53	46483.04
609.68	46602.41
609.84	46094.51
609.99	46466.66
610.15	46237.28
610.30	46410.48
610.46	46358.99
610.61	46302.82
610.76	46265.37
610.92	46291.12
611.07	46431.55
611.23	46279.41
611.38	46183.45
611.54	46003.23
611.69	46176.43
611.84	46202.18
612.00	46110.89
612.15	45684.92
612.31	46209.20
612.46	45937.69
612.62	46127.28
612.77	46089.83
612.92	46342.61
613.08	46014.93
613.23	46248.99
613.39	46113.23
613.54	45497.67
613.69	46036.00
613.85	45886.20
614.00	45907.27
614.15	46169.41
614.31	46281.75
614.46	46057.06
614.62	46188.13
614.77	45556.19
614.92	46410.48
615.08	45911.95
615.23	45549.17
615.38	45647.47
615.54	45371.28
615.69	45525.76
615.84	45457.88
616.00	45319.79
616.15	45329.16
616.30	45223.83
616.46	45027.23
616.61	45104.46
616.76	45275.32
616.92	44980.42
617.07	45303.41
617.22	44945.31
617.37	45010.84
617.53	45614.70
617.68	45867.48
617.83	45507.04
617.99	45610.02
618.14	45301.07
618.29	45209.79
618.45	45003.82
618.60	45179.36
618.75	45062.33
618.90	45312.77
619.06	45382.99
619.21	45212.13
619.36	45684.92
619.51	44947.65
619.67	45177.02
619.82	45167.66
619.97	45523.42
620.12	45165.32
620.28	44516.99
620.43	45027.23
620.58	44699.55
620.73	44928.92
620.89	44940.63
621.04	44996.80
621.19	44395.28
621.34	44772.11
621.49	44842.32
621.65	44641.04
621.80	44470.18
621.95	44367.20
622.10	44732.32
622.25	44236.12
622.41	44385.92
622.56	44032.50
622.71	44760.40
622.86	44156.55
623.01	44713.59
623.16	44491.24
623.32	44320.38
623.47	44615.29
623.62	44119.10
623.77	44217.40
623.92	44432.73
624.07	44313.36
624.23	44163.57
624.38	44296.98
624.53	43969.30
624.68	43770.36
624.83	43871.00
624.98	44046.54
625.13	44023.14
625.29	43807.81
625.44	43763.34
625.59	43873.34
625.74	43505.88
625.89	43480.13
626.04	43512.90
626.19	44116.76
626.34	43601.84
626.49	43976.33
626.65	43892.07
626.80	43810.15
626.95	44147.18
627.10	43814.83
627.25	43861.64
627.40	43363.11
627.55	43281.19
627.70	42705.41
627.85	42698.39
628.00	42754.57
628.15	43428.64
628.30	43346.72
628.45	43538.65
628.60	43391.19
628.76	43358.42
628.91	43653.33
629.06	43377.15
629.21	43072.88
629.36	43503.54
629.51	42941.81
629.66	42885.64
629.81	43140.75
629.96	43222.67
630.11	42967.55
630.26	42822.44
630.41	43068.20
630.56	42923.08
630.71	43117.35
630.86	43040.11
631.01	42625.84
631.16	42714.78
631.31	42649.24
631.46	42227.95
631.61	42796.70
631.76	42506.47
631.91	42536.90
632.06	42845.85
632.21	42806.06
632.36	42674.99
632.51	42440.93
632.66	42590.73
632.81	41811.33
632.96	42698.39
633.10	42642.22
633.25	42232.63
633.40	42508.81
633.55	42466.68
633.70	42391.78
633.85	42249.01
634.00	42120.28
634.15	42429.23
634.30	42398.80
634.45	42239.65
634.60	42323.91
634.75	41989.21
634.90	42176.45
635.05	42494.77
635.19	41858.14
635.34	42319.23
635.49	42075.81
635.64	41799.63
635.79	42134.32
635.94	42120.28
636.09	41902.61
636.24	41867.50
636.39	41434.50
636.53	41649.83
636.68	41521.10
636.83	41696.64
636.98	41986.87
637.13	41713.03
637.28	41570.25
637.43	41666.22
637.57	42478.38
637.72	41816.01
637.87	41708.35
638.02	42040.70
638.17	41975.17
638.32	41633.45
638.46	41373.65
638.61	41535.15
638.76	41186.41
638.91	41778.56
639.06	41645.15
639.20	41680.26
639.35	41556.21
639.50	41502.38
639.65	41694.30
639.80	41343.22
639.94	41486.00
640.09	41268.33
640.24	41310.46
640.39	40921.93
640.54	40725.32
640.68	41258.96
640.83	41165.34
640.98	40748.73
641.13	40542.76
641.27	40800.22
641.42	41099.81
641.57	40971.08
641.72	41024.91
641.86	40439.78
642.01	40552.12
642.16	41034.27
642.31	40390.62
642.45	40601.27
642.60	40669.15
642.75	40697.24
642.90	40341.47
643.04	40678.51
643.19	40327.43
643.34	40615.32
643.48	40266.58
643.63	40130.83
643.78	40170.61
643.93	40795.54
644.07	40563.82
644.22	40605.95
644.37	40119.12
644.51	40327.43
644.66	40500.63
644.81	40589.57
644.95	40519.35
645.10	40683.19
645.25	40669.15
645.39	40198.70
645.54	40236.15
645.69	40334.45
645.83	40032.52
645.98	40086.36
646.13	40100.40
646.27	40320.41
646.42	40210.40
646.57	40065.29
646.71	39964.65
646.86	39896.77
647.00	40114.44
647.15	40046.57
647.30	40058.27
647.44	39763.36
647.59	39990.39
647.74	39569.10
647.88	39875.71
648.03	40093.38
648.17	40411.69
648.32	39550.37
648.47	40208.06
648.61	39739.96
648.76	39864.00
648.90	39966.99
649.05	39496.54
649.20	39440.37
649.34	39372.49
649.49	39512.92
649.63	39395.90
649.78	39608.89
649.92	39461.43
650.07	39810.17
650.21	39236.74
650.36	39683.78
650.51	39531.65
650.65	39323.34
650.80	39782.09
650.94	39585.48
651.09	39669.74
651.23	39187.59
651.38	39012.05
651.52	39253.12
651.67	38925.45
651.81	39033.11
651.96	38707.78
652.10	38717.14
652.25	38972.26
652.39	39131.42
652.54	38941.83
652.68	39246.10
652.83	39182.91
652.97	38948.85
653.12	39091.63
653.26	38639.90
653.41	39173.55
653.55	38810.76
653.70	38871.62
653.84	38988.64
653.99	38792.04
654.13	38841.19
654.27	38864.60
654.42	38412.87
654.56	38389.47
654.71	38209.25
654.85	38515.86
655.00	38583.73
655.14	38831.83
655.29	38183.50
655.43	37736.46
655.57	37937.74
655.72	37830.08
655.86	37834.76
656.01	37479.00
656.15	37493.04
656.30	37673.26
656.44	38031.36
656.58	37895.61
656.73	38153.07
656.87	38284.14
657.01	38155.41
657.16	37827.74
657.30	37844.12
657.45	37979.87
657.59	37586.66
657.73	37771.57
657.88	38349.68
658.02	38157.75
658.16	37858.17
658.31	37944.76
658.45	37589.00
658.60	37614.75
658.74	37830.08
658.88	37638.15
659.03	37820.72
659.17	37361.97
659.31	37471.98
659.46	37310.48
659.60	37542.19
659.74	37373.67
659.89	37497.72
660.03	37017.91
660.17	37287.07
660.32	37104.51
660.46	37633.47
660.60	37357.29
660.74	37125.58
660.89	37219.20
661.03	36870.46
661.17	36992.17
661.32	36734.71
661.46	36486.61
661.60	36460.87
661.74	36823.65
661.89	36856.42
662.03	36542.78
662.17	36493.63
662.31	36701.94
662.46	36783.86
662.60	37090.47
662.74	36617.68
662.88	36247.88
663.03	35697.85
663.17	36217.45
663.31	35782.11
663.45	36158.94
663.60	36374.27
663.74	35791.47
663.88	36107.44
664.02	35667.42
664.17	36458.52
664.31	35849.99
664.45	35840.62
664.59	35920.20
664.73	35665.08
664.88	35445.07
665.02	35484.86
665.16	35807.86
665.30	35431.03
665.44	35215.70
665.59	35234.42
665.73	35363.15
665.87	35330.39
666.01	35147.82
666.15	35299.96
666.29	34955.90
666.44	35108.04
666.58	35257.83
666.72	35206.34
666.86	34785.04
667.00	35461.46
667.14	34663.33
667.28	34749.93
667.43	34312.25
667.57	34614.18
667.71	34480.77
667.85	34665.67
667.99	34562.69
668.13	34682.06
668.27	34548.65
668.41	34366.09
668.56	34356.72
668.70	34543.97
668.84	34267.78
668.98	34047.77
669.12	33968.19
669.26	33816.06
669.40	33677.97
669.54	33654.56
669.68	33684.99
669.82	33490.73
669.96	33401.79
670.10	33589.03
670.25	33851.17
670.39	33603.07
670.53	33525.83
670.67	33369.02
670.81	33310.50
670.95	33397.10
671.09	33577.33
671.23	33404.13
671.37	33717.76
671.51	33378.38
671.65	32727.71
671.79	32912.61
671.93	32538.13
672.07	32952.40
672.21	32716.01
672.35	33116.24
672.49	32631.75
672.63	32699.62
672.77	32414.08
672.91	32341.52
673.05	32500.68
673.19	32552.17
673.33	32367.27
673.47	32430.46
673.61	32240.88
673.75	31728.30
673.89	32224.50
674.03	31527.02
674.17	31768.09
674.31	31714.26
674.45	31770.43
674.59	31721.28
674.73	31917.89
674.87	31440.42
675.01	31536.38
675.15	31859.37
675.29	31342.11
675.43	31271.90
675.56	31079.97
675.70	31019.12
675.84	30801.45
675.98	30258.45
676.12	31087.00
676.26	31124.44
676.40	30820.17
676.54	31084.65
676.68	30553.35
676.82	30333.34
676.96	30408.24
677.10	30284.19
677.23	30230.36
677.37	30213.98
677.51	30113.33
677.65	29928.43
677.79	29752.89
677.93	29809.06
678.07	29612.46
678.21	28994.56
678.34	29577.35
678.48	28931.36
678.62	29163.08
678.76	28739.44
678.90	28877.53
679.04	28666.88
679.18	28898.59
679.31	28493.68
679.45	28212.82
679.59	28144.94
679.73	28460.91
679.87	28158.99
680.00	28552.20
680.14	28350.91
680.28	27981.10
680.42	28266.65
680.56	28140.26
680.70	28013.87
680.83	28002.17
680.97	28208.14
681.11	27709.60
681.25	27531.72
681.39	27496.61
681.52	27248.52
681.66	27630.02
681.80	27054.25
681.94	27171.28
682.07	26934.88
682.21	27220.43
682.35	26897.44
682.49	27084.68
682.62	26728.92
682.76	26824.88
682.90	27103.40
683.04	26466.78
683.17	26321.66
683.31	26111.02
683.45	26120.38
683.59	26319.32
683.72	25572.69
683.86	25614.82
684.00	25839.51
684.13	25979.95
684.27	25907.39
684.41	25689.72
684.55	25603.12
684.68	25530.56
684.82	25092.88
684.96	25261.40
685.09	25336.30
685.23	25453.33
685.37	25123.31
685.50	25144.38
685.64	24919.68
685.78	24624.78
685.91	24584.99
686.05	24592.01
686.19	24402.43
686.32	24231.57
686.46	23557.49
686.60	23608.98
686.73	23601.96
686.87	23569.19
687.01	23466.21
687.14	23449.83
687.28	23328.12
687.42	23161.94
687.55	23707.29
687.69	23660.48
687.82	23232.16
687.96	23606.64
688.10	23257.90
688.23	23147.90
688.37	22759.37
688.50	22480.85
688.64	22773.41
688.78	22728.94
688.91	22874.06
689.05	22717.24
689.18	22548.72
689.32	22455.10
689.46	22295.94
689.59	22342.75
689.73	22490.21
689.86	22108.70
690.00	21820.81
690.13	21970.61
690.27	21759.96
690.41	21895.71
690.54	21671.02
690.68	21579.74
690.81	21446.33
690.95	21165.46
691.08	21345.69
691.22	21460.37
691.35	21727.19
691.49	21673.36
691.62	21406.54
691.76	21050.78
691.89	21205.25
692.03	20964.18
692.16	20594.37
692.30	20666.93
692.43	20376.70
692.57	20329.89
692.70	20407.13
692.84	20360.32
692.97	20467.98
693.11	20222.23
693.24	20173.08
693.38	19777.53
693.51	19697.95
693.65	20137.97
693.78	19847.74
693.92	19822.00
694.05	19939.02
694.19	19578.58
694.32	19604.33
694.45	19414.74
694.59	19143.24
694.72	19232.18
694.86	19150.26
694.99	18834.29
695.13	18773.44
695.26	19119.84
695.39	18775.78
695.53	18845.99
695.66	19150.26
695.80	18967.70
695.93	18890.46
696.07	18403.63
696.20	18714.92
696.33	18459.81
696.47	18424.70
696.60	18380.23
696.73	18036.17
696.87	18143.83
697.00	18155.54
697.14	17989.36
697.27	17895.74
697.40	17853.61
697.54	17877.01
697.67	17350.39
697.80	17799.77
697.94	17289.54
698.07	17216.98
698.21	17390.18
698.34	17268.47
698.47	16966.54
698.61	16912.71
698.74	16727.81
698.87	16807.39
699.01	16589.72
699.14	16629.51
699.27	16348.64
699.40	16594.40
699.54	16599.08
699.67	16442.26
699.80	16271.40
699.94	16191.83
700.07	16248.00
700.20	16020.97
700.34	16147.36
700.47	15967.13
700.60	16058.42
700.73	16245.66
700.87	16002.24
701.00	15763.51
701.13	15644.14
701.26	15861.81
701.40	15627.76
701.53	15503.71
701.66	15286.04
701.79	15396.04
701.93	15197.10
702.06	15145.61
702.19	15082.41
702.32	15000.49
702.46	15075.39
702.59	14787.50
702.72	14934.96
702.85	15063.69
702.99	15061.35
703.12	15080.07
703.25	14607.28
703.38	14621.33
703.51	14656.43
703.65	14654.09
703.78	14567.49
703.91	14443.45
704.04	14480.89
704.17	14125.13
704.31	14176.62
704.44	14211.73
704.57	14209.39
704.70	14024.49
704.83	13692.13
704.96	13867.67
705.10	13832.57
705.23	13926.19
>>>>>End Processed Spectral Data<<<<<
