SpectraSuite Data File
++++++++++++++++++++++++++++++++++++
Date: Fri Oct 25 10:43:49 EDT 2013
User: price-jones
Dark Spectrum Present: No
Reference Spectrum Present: No
Number of Sampled Component Spectra: 1
Spectrometers: USB2+H05261
Integration Time (usec): 100000 (USB2+H05261)
Spectra Averaged: 1 (USB2+H05261)
Boxcar Smoothing: 0 (USB2+H05261)
Correct for Electrical Dark: No (USB2+H05261)
Strobe/Lamp Enabled: No (USB2+H05261)
Correct for Detector Non-linearity: No (USB2+H05261)
Correct for Stray Light: No (USB2+H05261)
Number of Pixels in Processed Spectrum: 2048
>>>>>Begin Processed Spectral Data<<<<<
365.73	194.26
365.92	194.26
366.12	194.26
366.32	84.26
366.52	58.51
366.72	0.00
366.91	18.72
367.11	56.17
367.31	65.54
367.51	51.49
367.70	7.02
367.90	16.38
368.10	0.00
368.30	72.56
368.49	23.41
368.69	0.00
368.89	0.00
369.09	74.90
369.28	0.00
369.48	0.00
369.68	84.26
369.87	112.35
370.07	117.03
370.27	65.54
370.47	203.63
370.66	376.83
370.86	458.74
371.06	444.70
371.25	447.04
371.45	456.40
371.65	414.27
371.84	451.72
372.04	411.93
372.24	414.27
372.44	500.87
372.63	475.13
372.83	528.96
373.03	517.26
373.22	496.19
373.42	444.70
373.62	461.09
373.81	484.49
374.01	550.03
374.21	535.98
374.40	561.73
374.60	617.90
374.79	578.11
374.99	571.09
375.19	641.31
375.38	568.75
375.58	545.34
375.78	634.29
375.97	580.45
376.17	664.71
376.37	573.43
376.56	599.18
376.76	552.37
376.95	627.26
377.15	543.00
377.35	638.97
377.54	629.60
377.74	634.29
377.93	624.92
378.13	704.50
378.33	718.54
378.52	575.77
378.72	627.26
378.91	758.33
379.11	667.05
379.31	608.54
379.50	695.14
379.70	706.84
379.89	650.67
380.09	730.25
380.28	723.23
380.48	655.35
380.68	697.48
380.87	681.10
381.07	662.37
381.26	653.01
381.46	706.84
381.65	702.16
381.85	697.48
382.04	678.76
382.24	755.99
382.43	741.95
382.63	683.44
382.83	636.63
383.02	725.57
383.22	667.05
383.41	788.76
383.61	755.99
383.80	755.99
384.00	798.12
384.19	718.54
384.39	784.08
384.58	791.10
384.78	905.79
384.97	847.27
385.17	814.51
385.36	753.65
385.56	870.68
385.75	823.87
385.95	737.27
386.14	866.00
386.34	854.30
386.53	814.51
386.72	842.59
386.92	924.51
387.11	816.85
387.31	961.96
387.50	856.64
387.70	791.10
387.89	863.66
388.09	908.13
388.28	772.38
388.48	896.43
388.67	940.90
388.86	912.81
389.06	875.36
389.25	973.66
389.45	992.39
389.64	1008.77
389.84	1025.15
390.03	1039.20
390.22	1053.24
390.42	1034.52
390.61	1004.09
390.81	1006.43
391.00	999.41
391.19	1093.03
391.39	1076.65
391.58	1076.65
391.78	1018.13
391.97	1011.11
392.16	1004.09
392.36	1083.67
392.55	1022.81
392.75	940.90
392.94	947.92
393.13	1041.54
393.33	947.92
393.52	992.39
393.71	1050.90
393.91	1064.94
394.10	1062.60
394.29	1069.62
394.49	1287.29
394.68	1233.46
394.88	1146.86
395.07	1224.10
395.26	1181.97
395.46	1224.10
395.65	1188.99
395.84	1231.12
396.04	1287.29
396.23	1146.86
396.42	1114.10
396.62	1151.54
396.81	1277.93
397.00	1210.06
397.19	1198.35
397.39	1273.25
397.58	1357.51
397.77	1352.83
397.97	1416.02
398.16	1348.15
398.35	1488.58
398.55	1439.43
398.74	1425.39
398.93	1504.96
399.12	1523.69
399.32	1397.30
399.51	1549.43
399.70	1603.27
399.90	1514.33
400.09	1549.43
400.28	1666.46
400.47	1582.20
400.67	1629.01
400.86	1551.78
401.05	1568.16
401.24	1668.80
401.44	1741.36
401.63	1680.50
401.82	1743.70
402.01	1692.21
402.21	1645.40
402.40	1783.49
402.59	1762.42
402.78	1703.91
402.97	1741.36
403.17	1834.98
403.36	1839.66
403.55	1769.44
403.74	1853.70
403.93	1851.36
404.13	1842.00
404.32	1842.00
404.51	1858.39
404.70	2005.84
404.89	1872.43
405.09	2008.18
405.28	1947.33
405.47	1926.26
405.66	2017.54
405.85	1928.60
406.05	1956.69
406.24	1921.58
406.43	2069.03
406.62	2127.55
406.81	2115.84
407.00	1942.64
407.20	1916.90
407.39	2040.95
407.58	2150.95
407.77	2043.29
407.96	2188.40
408.15	2265.64
408.34	2176.70
408.54	2190.74
408.73	2321.81
408.92	2277.34
409.11	2293.72
409.30	2146.27
409.49	2270.32
409.68	2267.98
409.87	2167.34
410.07	2403.73
410.26	2279.68
410.45	2377.98
410.64	2296.07
410.83	2511.39
411.02	2338.20
411.21	2579.27
411.40	2485.65
411.59	2583.95
411.78	2544.16
411.98	2731.41
412.17	2619.06
412.36	2649.49
412.55	2719.70
412.74	2712.68
412.93	2780.56
413.12	2710.34
413.31	2801.62
413.50	2778.22
413.69	2822.69
413.88	2853.11
414.07	2892.90
414.26	2904.60
414.45	2963.12
414.64	2904.60
414.83	2944.39
415.02	3054.40
415.22	3103.55
415.41	2993.55
415.60	3236.96
415.79	3164.40
415.98	3180.79
416.17	3190.15
416.36	3138.66
416.55	3286.11
416.74	3297.81
416.93	3192.49
417.12	3318.88
417.31	3197.17
417.50	3290.79
417.69	3515.48
417.88	3377.39
418.07	3400.80
418.26	3473.36
418.45	3466.33
418.64	3604.42
418.83	3524.85
419.02	3566.98
419.21	3609.11
419.39	3515.48
419.58	3494.42
419.77	3485.06
419.96	3623.15
420.15	3590.38
420.34	3574.00
420.53	3784.65
420.72	3868.91
420.91	3744.86
421.10	3885.29
421.29	3882.95
421.48	3943.80
421.67	3789.33
421.86	3833.80
422.05	3749.54
422.24	3901.67
422.43	3791.67
422.61	3892.31
422.80	3964.87
422.99	3946.14
423.18	3988.27
423.37	3873.59
423.56	3817.41
423.75	3878.27
423.94	3929.76
424.13	3716.77
424.32	3822.09
424.50	3665.28
424.69	4060.83
424.88	4140.41
425.07	3971.89
425.26	3889.97
425.45	3983.59
425.64	3878.27
425.83	3985.93
426.01	4014.02
426.20	3946.14
426.39	3943.80
426.58	3946.14
426.77	3936.78
426.96	3932.10
427.15	3786.99
427.33	3854.86
427.52	3997.64
427.71	4002.32
427.90	4112.32
428.09	4161.47
428.28	4042.11
428.46	4112.32
428.65	4091.26
428.84	4372.12
429.03	4180.20
429.22	4124.02
429.40	4184.88
429.59	4161.47
429.78	3948.48
429.97	3723.79
430.16	3983.59
430.34	4140.41
430.53	4182.54
430.72	4454.04
430.91	4098.28
431.10	4351.06
431.28	4517.23
431.47	4547.66
431.66	4657.67
431.85	4519.57
432.03	4702.14
432.22	4720.86
432.41	4491.49
432.60	4601.49
432.79	4713.84
432.97	4767.67
433.16	4725.54
433.35	4655.33
433.54	4622.56
433.72	4704.48
433.91	4638.94
434.10	4739.58
434.28	4741.93
434.47	4713.84
434.66	4947.89
434.85	4858.95
435.03	4844.91
435.22	5039.17
435.41	4884.70
435.59	5053.22
435.78	5060.24
435.97	5100.03
436.16	5132.79
436.34	4940.87
436.53	5078.96
436.72	5221.74
436.90	4994.70
437.09	5167.90
437.28	4959.60
437.46	5179.61
437.65	5093.01
437.84	5062.58
438.02	5191.31
438.21	5107.05
438.40	5081.30
438.58	5329.40
438.77	5394.93
438.96	5500.26
439.14	5556.43
439.33	5610.26
439.52	5544.73
439.70	5490.90
439.89	5614.95
440.08	5647.71
440.26	5717.93
440.45	5724.95
440.63	5750.70
440.82	5912.19
441.01	5888.79
441.19	5900.49
441.38	6050.28
441.57	6061.99
441.75	6174.33
441.94	6242.21
442.12	6303.06
442.31	6352.21
442.50	6282.00
442.68	6284.34
442.87	6291.36
443.05	6345.19
443.24	6506.69
443.43	6431.79
443.61	6452.86
443.80	6497.33
443.98	6282.00
444.17	6162.63
444.35	6480.94
444.54	6703.29
444.73	6539.46
444.91	6459.88
445.10	6604.99
445.28	6485.62
445.47	6417.75
445.65	6560.52
445.84	6518.39
446.02	6527.75
446.21	6464.56
446.39	6490.31
446.58	6560.52
446.77	6658.82
446.95	6565.20
447.14	6808.62
447.32	6576.91
447.51	6738.40
447.69	6656.48
447.88	6640.10
448.06	6710.32
448.25	6541.80
448.43	6719.68
448.62	6715.00
448.80	6689.25
448.99	6904.58
449.17	6825.00
449.36	6717.34
449.54	6993.52
449.73	6895.22
449.91	6995.86
450.10	7194.81
450.28	7227.57
450.46	7049.69
450.65	7077.78
450.83	7056.72
451.02	6953.73
451.20	7258.00
451.39	7229.91
451.57	6993.52
451.76	7061.40
451.94	7232.26
452.13	7227.57
452.31	7082.46
452.49	7211.19
452.68	7281.41
452.86	7112.89
453.05	7239.28
453.23	7236.94
453.42	7187.79
453.60	7316.51
453.78	7403.11
453.97	7356.30
454.15	7234.60
454.34	7241.62
454.52	7639.51
454.70	7473.33
454.89	7428.86
455.07	7559.93
455.26	7669.94
455.44	7695.68
455.62	7662.91
455.81	7719.09
455.99	7749.51
456.17	7840.79
456.36	7796.32
456.54	8030.38
456.73	8063.15
456.91	8243.37
457.09	8091.23
457.28	8191.88
457.46	7885.26
457.64	8217.62
457.83	7793.98
458.01	7988.25
458.19	8009.31
458.38	8025.70
458.56	8152.09
458.74	8348.69
458.93	8241.03
459.11	8219.96
459.29	8341.67
459.48	8304.22
459.66	8124.00
459.84	8215.28
460.03	8648.28
460.21	8404.86
460.39	8652.96
460.57	8465.72
460.76	8634.24
460.94	8479.76
461.12	8634.24
461.31	8648.28
461.49	8603.81
461.67	8432.95
461.85	8664.66
462.04	8599.13
462.22	8940.85
462.40	8919.78
462.59	8842.54
462.77	8903.40
462.95	8936.17
463.13	8940.85
463.32	8821.48
463.50	9046.17
463.68	8819.14
463.86	8978.30
464.05	8887.01
464.23	8795.73
464.41	9022.77
464.59	8872.97
464.78	9179.58
464.96	9092.98
465.14	8997.02
465.32	9200.65
465.50	9294.27
465.69	9540.02
465.87	9121.07
466.05	9277.88
466.23	9252.14
466.41	9324.69
466.60	9259.16
466.78	9034.47
466.96	9188.94
467.14	9123.41
467.32	9317.67
467.51	9408.95
467.69	9317.67
467.87	9369.16
468.05	9420.66
468.23	9460.45
468.41	9437.04
468.60	9626.62
468.78	9671.09
468.96	9579.81
469.14	9710.88
469.32	9584.49
469.50	9530.66
469.69	9605.56
469.87	9715.56
470.05	9954.30
470.23	9701.52
470.41	9792.80
470.59	9659.39
470.77	9760.03
470.95	10141.54
471.14	9975.36
471.32	9966.00
471.50	10164.95
471.68	10200.05
471.86	10239.84
472.04	10265.59
472.22	10588.58
472.40	10178.99
472.58	10331.12
472.77	10356.87
472.95	10516.03
473.13	10822.64
473.31	10658.80
473.49	10595.61
473.67	10569.86
473.85	10712.63
474.03	10881.15
474.21	10853.06
474.39	11061.37
474.57	10939.66
474.75	11075.42
474.93	11253.30
475.12	11035.63
475.30	11087.12
475.48	11138.61
475.66	11257.98
475.84	11143.29
476.02	11389.05
476.20	11344.58
476.38	11515.44
476.56	11679.27
476.74	11964.82
476.92	11929.71
477.10	11576.29
477.28	12098.23
477.46	11810.34
477.64	12128.66
477.82	12556.97
478.00	12627.19
478.18	12615.49
478.36	12500.80
478.54	12802.73
478.72	12734.85
478.90	12781.67
479.08	12849.54
479.26	13123.38
479.44	13053.17
479.62	13221.69
479.80	13160.83
479.98	13418.29
480.16	13561.06
480.34	13607.87
480.52	13661.71
480.70	13710.86
480.88	13542.34
481.06	13785.76
481.24	14050.24
481.41	14136.84
481.59	14530.05
481.77	14436.42
481.95	14270.25
482.13	14647.07
482.31	14670.48
482.49	14871.76
482.67	14698.56
482.85	14895.17
483.03	14930.28
483.21	15222.84
483.39	15243.91
483.57	15250.93
483.74	15159.65
483.92	15517.75
484.10	15360.94
484.28	15695.63
484.46	16276.09
484.64	16084.16
484.82	15831.38
485.00	15990.54
485.18	16145.02
485.35	16578.01
485.53	15920.32
485.71	16126.29
485.89	16105.23
486.07	15981.18
486.25	16498.44
486.43	16816.75
486.61	17149.11
486.78	17252.09
486.96	17362.09
487.14	17570.40
487.32	17832.54
487.50	18094.68
487.68	17970.63
487.85	18291.29
488.03	18508.96
488.21	18483.21
488.39	18670.45
488.57	18827.27
488.75	18827.27
488.92	19131.54
489.10	19360.91
489.28	19391.34
489.46	19484.96
489.64	19534.11
489.81	19831.36
489.99	20238.61
490.17	20049.03
490.35	20549.90
490.53	20163.72
490.70	20236.27
490.88	20528.84
491.06	20893.96
491.24	20786.30
491.41	20875.24
491.59	20479.69
491.77	20446.92
491.95	21008.65
492.13	21128.02
492.30	21427.60
492.48	21788.05
492.66	21383.13
492.84	21713.15
493.01	21956.57
493.19	22197.64
493.37	21841.88
493.54	22148.49
493.72	22675.11
493.90	22417.65
494.08	22745.33
494.25	22838.95
494.43	22970.02
494.61	23094.07
494.79	23370.25
494.96	23475.57
495.14	23239.18
495.32	23800.91
495.49	23332.80
495.67	23882.83
495.85	24013.90
496.02	24126.24
496.20	24137.94
496.38	24105.18
496.55	24404.77
496.73	24716.06
496.91	24645.84
497.09	25289.49
497.26	25305.87
497.44	24961.81
497.62	24950.11
497.79	25502.48
497.97	25230.98
498.14	25137.35
498.32	25549.29
498.50	25322.26
498.67	25914.41
498.85	25895.69
499.03	26331.03
499.20	26059.52
499.38	26197.62
499.56	26405.92
499.73	26143.78
499.91	26565.08
500.08	26621.25
500.26	26286.56
500.44	26647.00
500.61	26668.06
500.79	26408.26
500.97	26827.22
501.14	26848.29
501.32	27236.81
501.49	27040.21
501.67	27126.81
501.84	27227.45
502.02	27194.68
502.20	27618.32
502.37	27468.53
502.55	27770.46
502.72	27917.91
502.90	27861.74
503.07	27625.34
503.25	28114.52
503.43	28084.09
503.60	27901.53
503.78	27812.59
503.95	28245.58
504.13	28542.83
504.30	28531.13
504.48	28231.54
504.65	28861.15
504.83	28676.24
505.01	28769.86
505.18	28547.51
505.36	29252.02
505.53	28929.02
505.71	29139.67
505.88	29446.28
506.06	29340.96
506.23	29628.84
506.41	29572.67
506.58	29692.04
506.76	29551.60
506.93	30068.86
507.11	29977.58
507.28	30047.80
507.46	29795.02
507.63	29729.48
507.81	30232.70
507.98	29872.26
508.16	30316.96
508.33	30525.27
508.50	30656.34
508.68	30609.53
508.85	31145.51
509.03	31033.16
509.20	30637.61
509.38	31346.79
509.55	31117.42
509.73	31388.92
509.90	31597.23
510.08	31325.73
510.25	31440.42
510.42	31316.37
510.60	31522.34
510.77	31519.99
510.95	31475.52
511.12	31686.17
511.30	31896.82
511.47	32095.77
511.64	32587.28
511.82	32294.71
511.99	31906.18
512.17	32093.43
512.34	32116.83
512.51	32376.63
512.69	32350.88
512.86	32594.30
513.04	32563.87
513.21	32734.73
513.38	32716.01
513.56	33043.68
513.73	32491.32
513.90	33111.56
514.08	32952.40
514.25	33195.82
514.43	33041.34
514.60	33291.78
514.77	33062.41
514.95	33694.35
515.12	33549.24
515.29	33628.82
515.47	33579.67
515.64	34094.58
515.81	33977.56
515.99	33593.71
516.16	33949.47
516.33	33792.65
516.51	33343.27
516.68	33326.89
516.85	33464.98
517.03	33003.89
517.20	33813.72
517.37	33998.62
517.54	34394.17
517.72	33736.48
517.89	33748.18
518.06	33715.42
518.24	34036.07
518.41	34359.06
518.58	34574.39
518.75	34792.06
518.93	34888.03
519.10	34419.92
519.27	34895.05
519.45	34747.59
519.62	35044.84
519.79	35054.20
519.96	34897.39
520.14	35473.16
520.31	34852.92
520.48	35145.48
520.65	35295.28
520.83	35395.92
521.00	35824.24
521.17	35470.82
521.34	35756.36
521.52	35709.55
521.69	35983.40
521.86	35899.14
522.03	35732.96
522.20	36341.50
522.38	36278.30
522.55	36149.57
522.72	36048.93
522.89	36105.10
523.07	36678.54
523.24	36240.86
523.41	36680.88
523.58	36790.88
523.75	37284.73
523.92	36718.32
524.10	37067.06
524.27	37553.90
524.44	37221.54
524.61	37495.38
524.78	37120.90
524.96	37317.50
525.13	37731.78
525.30	37771.57
525.47	37886.25
525.64	37397.08
525.81	37621.77
525.98	37397.08
526.16	37287.07
526.33	36966.42
526.50	37523.47
526.67	36903.23
526.84	37146.64
527.01	36882.16
527.18	37364.31
527.36	37869.87
527.53	38054.77
527.70	38473.73
527.87	38253.72
528.04	38167.12
528.21	38455.00
528.38	38579.05
528.55	38452.66
528.72	38904.38
528.89	38969.92
529.07	38913.75
529.24	38405.85
529.41	38663.31
529.58	38473.73
529.75	38677.35
529.92	38728.84
530.09	38913.75
530.26	39164.18
530.43	38693.74
530.60	38904.38
530.77	39356.11
530.94	39400.58
531.11	39077.58
531.28	39318.66
531.46	39203.97
531.63	39526.97
531.80	39306.96
531.97	39367.81
532.14	39325.68
532.31	39225.04
532.48	38925.45
532.65	39601.86
532.82	39379.51
532.99	39723.57
533.16	39262.49
533.33	39431.01
533.50	39555.05
533.67	39941.24
533.84	40079.33
534.01	39990.39
534.18	40271.26
534.35	40545.10
534.52	40044.23
534.69	40250.19
534.86	40238.49
535.03	40275.94
535.20	40713.62
535.37	40762.77
535.54	40769.79
535.71	40275.94
535.88	40961.72
536.05	40460.84
536.22	40865.75
536.38	40645.74
536.55	40348.50
536.72	40957.03
536.89	40435.10
537.06	40353.18
537.23	40907.88
537.40	41329.18
537.57	40540.42
537.74	41095.13
537.91	41677.92
538.08	40926.61
538.25	40917.25
538.42	41177.04
538.59	41361.95
538.75	40662.13
538.92	41291.73
539.09	41741.11
539.26	40821.28
539.43	41287.05
539.60	41469.61
539.77	40847.03
539.94	41567.91
540.11	41179.39
540.28	41228.54
540.44	41544.51
540.61	41181.73
540.78	40861.07
540.95	40893.84
541.12	41333.86
541.29	41476.63
541.46	41736.43
541.62	41926.02
541.79	42246.67
541.96	41493.02
542.13	41280.03
542.30	41741.11
542.47	42117.94
542.63	42223.26
542.80	41965.81
542.97	42454.98
543.14	42550.94
543.31	42347.31
543.48	42625.84
543.64	42637.54
543.81	42775.63
543.98	42691.37
544.15	42689.03
544.32	42471.36
544.48	43260.12
544.65	42682.01
544.82	42792.01
544.99	42293.48
545.16	42572.00
545.32	42925.42
545.49	43370.13
545.66	43232.04
545.83	43093.94
546.00	43178.20
546.16	43079.90
546.33	43150.12
546.50	42981.60
546.67	43161.82
546.83	42710.10
547.00	42824.78
547.17	43030.75
547.34	42911.38
547.50	42981.60
547.67	43199.27
547.84	43573.75
548.00	43393.53
548.17	43456.73
548.34	43618.22
548.51	43840.57
548.67	43548.01
548.84	43688.44
549.01	43543.33
549.18	43367.79
549.34	43775.04
549.51	43501.20
549.68	44032.50
549.84	44229.10
550.01	43601.84
550.18	43676.74
550.34	43800.79
550.51	43840.57
550.68	43833.55
550.84	43405.23
551.01	43934.20
551.18	43842.92
551.34	43945.90
551.51	44100.37
551.68	44626.99
551.84	43938.88
552.01	43871.00
552.18	43920.15
552.34	43751.63
552.51	44100.37
552.68	44060.58
552.84	44165.91
553.01	44048.88
553.18	44477.20
553.34	44460.82
553.51	44428.05
553.67	44622.31
553.84	44807.22
554.01	44364.85
554.17	44472.52
554.34	44746.36
554.51	44470.18
554.67	44521.67
554.84	44935.95
555.00	44397.62
555.17	44229.10
555.33	44437.41
555.50	44624.65
555.67	44664.44
555.83	44238.47
556.00	44732.32
556.16	44959.35
556.33	44432.73
556.50	44456.14
556.66	45102.12
556.83	44856.37
556.99	44648.06
557.16	44938.29
557.32	45062.33
557.49	44725.30
557.65	44685.51
557.82	45048.29
557.98	44940.63
558.15	44947.65
558.32	45008.50
558.48	44619.97
558.65	44804.88
558.81	44608.27
558.98	45104.46
559.14	45055.31
559.31	44816.58
559.47	45174.68
559.64	45249.58
559.80	45074.04
559.97	45195.74
560.13	44835.30
560.30	45064.67
560.46	45329.16
560.63	45310.43
560.79	45380.65
560.96	45401.71
561.12	45078.72
561.29	45366.60
561.45	45284.68
561.61	45158.30
561.78	45113.83
561.94	45043.61
562.11	44877.43
562.27	45092.76
562.44	45474.27
562.60	45584.27
562.77	45387.67
562.93	45008.50
563.10	45888.54
563.26	45436.82
563.42	45478.95
563.59	45064.67
563.75	45338.52
563.92	45453.20
564.08	45879.18
564.24	45450.86
564.41	45130.21
564.57	45549.17
564.74	45240.21
564.90	45504.70
565.07	45436.82
565.23	45390.01
565.39	45399.37
565.56	45446.18
565.72	45076.38
565.88	45521.08
566.05	45397.03
566.21	45670.87
566.38	45876.84
566.54	45666.19
566.70	45652.15
566.87	46197.49
567.03	45462.57
567.19	46192.81
567.36	45603.00
567.52	45478.95
567.68	46007.91
567.85	45516.40
568.01	46234.94
568.17	45495.33
568.34	45928.33
568.50	45579.59
568.66	45776.20
568.83	45436.82
568.99	44802.53
569.15	45937.69
569.32	45811.31
569.48	45441.50
569.64	45921.31
569.81	45474.27
569.97	45434.48
570.13	45647.47
570.30	45191.06
570.46	45280.00
570.62	45146.59
570.78	45420.44
570.95	45860.46
571.11	45745.77
571.27	45621.72
571.43	45771.52
571.60	45764.49
571.76	45830.03
571.92	45897.91
572.09	45603.00
572.25	45523.42
572.41	45677.90
572.57	46174.09
572.74	46195.15
572.90	45855.78
573.06	45893.22
573.22	46129.62
573.38	45411.07
573.55	45305.75
573.71	45989.19
573.87	46316.86
574.03	46204.52
574.20	46274.73
574.36	45755.13
574.52	45521.08
574.68	45996.21
574.84	46150.68
575.01	45963.44
575.17	45469.59
575.33	45647.47
575.49	45713.00
575.65	46340.27
575.82	46302.82
575.98	45722.37
576.14	45677.90
576.30	46054.72
576.46	45787.90
576.62	45925.99
576.79	45717.68
576.95	45736.41
577.11	45979.82
577.27	45752.79
577.43	46227.92
577.59	46295.80
577.75	45610.02
577.92	45326.81
578.08	45631.08
578.24	45397.03
578.40	45727.05
578.56	45897.91
578.72	45776.20
578.88	46061.74
579.04	45771.52
579.21	46164.73
579.37	45647.47
579.53	46099.19
579.69	45860.46
579.85	45818.33
580.01	45851.09
580.17	45694.28
580.33	45942.38
580.49	46071.10
580.65	46185.79
580.82	46115.58
580.98	45720.02
581.14	45610.02
581.30	46256.01
581.46	46220.90
581.62	45900.25
581.78	46213.88
581.94	46054.72
582.10	45832.37
582.26	45865.14
582.42	46323.88
582.58	45944.72
582.74	46057.06
582.90	46251.33
583.06	45972.80
583.22	46209.20
583.38	45881.52
583.54	45951.74
583.70	46206.86
583.86	46473.68
584.02	45984.51
584.18	46153.02
584.34	45675.55
584.50	45963.44
584.66	45837.05
584.82	46117.92
584.98	45834.71
585.14	45881.52
585.30	46040.68
585.46	46047.70
585.62	46108.55
585.78	45668.53
585.94	46014.93
586.10	45743.43
586.26	45617.04
586.42	46211.54
586.58	46490.06
586.74	46050.04
586.90	45925.99
587.06	45731.73
587.22	46373.03
587.38	46026.63
587.54	45937.69
587.70	46138.98
587.86	45830.03
588.02	46138.98
588.18	45918.97
588.34	46167.07
588.49	45354.90
588.65	45193.40
588.81	45539.80
588.97	45839.39
589.13	45614.70
589.29	46157.70
589.45	46206.86
589.61	46115.58
589.77	46457.29
589.93	46293.46
590.08	46246.65
590.24	46323.88
590.40	46211.54
590.56	46499.42
590.72	46300.48
590.88	46064.08
591.04	46014.93
591.20	46742.84
591.35	46494.74
591.51	46595.38
591.67	45626.40
591.83	46202.18
591.99	46054.72
592.15	45607.68
592.31	46197.49
592.46	45820.67
592.62	46494.74
592.78	46206.86
592.94	46251.33
593.10	45855.78
593.26	46391.76
593.41	46532.19
593.57	46499.42
593.73	46099.19
593.89	46281.75
594.05	46190.47
594.20	46157.70
594.36	45937.69
594.52	46600.07
594.68	45951.74
594.84	46302.82
594.99	45874.50
595.15	45790.24
595.31	46560.28
595.47	45986.85
595.62	46380.06
595.78	46246.65
595.94	46450.27
596.10	46293.46
596.25	46770.93
596.41	46506.44
596.57	46024.29
596.73	46312.18
596.88	45940.04
597.04	46143.66
597.20	46349.63
597.36	46260.69
597.51	46218.56
597.67	46426.87
597.83	46564.96
597.99	46351.97
598.14	46265.37
598.30	46176.43
598.46	45965.78
598.61	46408.14
598.77	46073.45
598.93	46134.30
599.09	46216.22
599.24	46707.73
599.40	46274.73
599.56	46368.35
599.71	46138.98
599.87	46050.04
600.03	46426.87
600.18	46071.10
600.34	46024.29
600.50	45998.55
600.65	45888.54
600.81	46124.94
600.97	46417.50
601.12	46588.36
601.28	46408.14
601.44	45879.18
601.59	46115.58
601.75	45682.58
601.91	46014.93
602.06	46129.62
602.22	45979.82
602.37	46447.93
602.53	46295.80
602.69	46363.67
602.84	46143.66
603.00	46237.28
603.16	46218.56
603.31	45909.61
603.47	46129.62
603.62	46099.19
603.78	46155.36
603.94	45972.80
604.09	46438.57
604.25	46382.40
604.40	46323.88
604.56	46143.66
604.71	46150.68
604.87	45911.95
605.03	46363.67
605.18	45827.69
605.34	45783.22
605.49	45645.13
605.65	45928.33
605.80	46326.22
605.96	45956.42
606.12	46012.59
606.27	46485.38
606.43	45663.85
606.58	46052.38
606.74	45942.38
606.89	45869.82
607.05	45633.42
607.20	45720.02
607.36	45785.56
607.51	45991.53
607.67	45944.72
607.82	45813.65
607.98	45668.53
608.13	45801.94
608.29	45595.98
608.44	45705.98
608.60	45478.95
608.75	45745.77
608.91	45834.71
609.06	46059.40
609.22	45944.72
609.37	45694.28
609.53	46120.26
609.68	45961.10
609.84	45532.78
609.99	45923.65
610.15	44769.77
610.30	45287.03
610.46	45144.25
610.61	45474.27
610.76	45666.19
610.92	45539.80
611.07	45879.18
611.23	45500.01
611.38	45600.66
611.54	45553.85
611.69	45198.09
611.84	45027.23
612.00	44861.05
612.15	45275.32
612.31	45310.43
612.46	45413.41
612.62	45670.87
612.77	45490.65
612.92	45937.69
613.08	44849.35
613.23	45247.24
613.39	44596.57
613.54	44741.68
613.69	45130.21
613.85	45364.26
614.00	45280.00
614.15	45242.56
614.31	45317.45
614.46	45125.53
614.62	45338.52
614.77	45244.90
614.92	45305.75
615.08	44877.43
615.23	44985.10
615.38	44610.61
615.54	44999.14
615.69	44729.98
615.84	44385.92
616.00	44982.76
616.15	44701.89
616.30	45059.99
616.46	44741.68
616.61	44177.61
616.76	44919.56
616.92	44233.78
617.07	44484.22
617.22	44584.86
617.37	44605.93
617.53	44748.70
617.68	44786.15
617.83	44875.09
617.99	44657.42
618.14	44505.29
618.29	44451.45
618.45	44306.34
618.60	43941.22
618.75	44275.91
618.90	43957.60
619.06	44409.32
619.21	44512.31
619.36	44364.85
619.51	44069.95
619.67	44034.84
619.82	44236.12
619.97	44699.55
620.12	44037.18
620.28	43826.53
620.43	44133.14
620.58	44282.94
620.73	44254.85
620.89	43924.83
621.04	44130.80
621.19	44107.40
621.34	44140.16
621.49	43931.86
621.65	44069.95
621.80	44147.18
621.95	44060.58
622.10	44268.89
622.25	43377.15
622.41	43643.97
622.56	43606.52
622.71	44189.31
622.86	44062.93
623.01	43768.02
623.16	43627.59
623.32	43491.83
623.47	43398.21
623.62	43555.03
623.77	43435.66
623.92	43522.26
624.07	43653.33
624.23	43433.32
624.38	43838.23
624.53	43058.84
624.68	43299.91
624.83	43927.17
624.98	43271.82
625.13	43182.88
625.29	43220.33
625.44	43395.87
625.59	42639.88
625.74	43021.39
625.89	42691.37
626.04	42581.37
626.19	43194.59
626.34	42855.21
626.49	42962.87
626.65	43124.37
626.80	43529.28
626.95	42810.74
627.10	42944.15
627.25	42824.78
627.40	42646.90
627.55	42534.56
627.70	42178.79
627.85	42810.74
628.00	42616.47
628.15	42660.94
628.30	42794.36
628.45	42604.77
628.60	42712.44
628.76	42649.24
628.91	42244.33
629.06	42705.41
629.21	42433.91
629.36	42066.45
629.51	42429.23
629.66	41940.06
629.81	41982.19
629.96	42153.05
630.11	41933.04
630.26	42445.62
630.41	42344.97
630.56	42274.76
630.71	42281.78
630.86	41914.31
631.01	42000.91
631.16	41839.42
631.31	41968.15
631.46	41963.46
631.61	41764.52
631.76	42178.79
631.91	42351.99
632.06	41993.89
632.21	42211.56
632.36	41993.89
632.51	41785.58
632.66	41483.66
632.81	41462.59
632.96	41516.42
633.10	41755.16
633.25	41745.80
633.40	42110.92
633.55	41507.06
633.70	41958.78
633.85	41579.62
634.00	41635.79
634.15	41790.27
634.30	41137.26
634.45	41876.86
634.60	41303.43
634.75	41273.01
634.90	41478.97
635.05	41198.11
635.19	41116.19
635.34	41605.36
635.49	41525.78
635.64	41446.21
635.79	41205.13
635.94	41340.88
636.09	41282.37
636.24	41050.66
636.39	40734.68
636.53	40687.87
636.68	41500.04
636.83	41265.99
636.98	40849.37
637.13	40570.85
637.28	41289.39
637.43	41490.68
637.57	41055.34
637.72	40776.81
637.87	41567.91
638.02	41347.90
638.17	40980.44
638.32	40900.86
638.46	41102.15
638.61	40816.60
638.76	40718.30
638.91	40556.80
639.06	41060.02
639.20	41053.00
639.35	41104.49
639.50	41113.85
639.65	40896.18
639.80	40502.97
639.94	40856.39
640.09	40814.26
640.24	40048.91
640.39	39920.18
640.54	40617.66
640.68	40355.52
640.83	40568.51
640.98	40297.00
641.13	40357.86
641.27	40645.74
641.42	40292.32
641.57	40280.62
641.72	40395.31
641.86	39999.76
642.01	40058.27
642.16	39697.83
642.31	39683.78
642.45	39866.34
642.60	39236.74
642.75	39880.39
642.90	39604.20
643.04	40088.70
643.19	40011.46
643.34	39807.83
643.48	40102.74
643.63	39725.91
643.78	39742.30
643.93	39875.71
644.07	39501.22
644.22	39276.53
644.37	39707.19
644.51	39746.98
644.66	39817.19
644.81	39742.30
644.95	40023.16
645.10	39875.71
645.25	39882.73
645.39	39924.86
645.54	39283.55
645.69	39700.17
645.83	39662.72
645.98	39346.75
646.13	38611.82
646.27	39475.48
646.42	39283.55
646.57	39234.40
646.71	38850.55
646.86	39136.10
647.00	39288.23
647.15	38993.32
647.30	39267.17
647.44	39056.52
647.59	39164.18
647.74	39124.40
647.88	39051.84
648.03	39189.93
648.17	39005.03
648.32	38873.96
648.47	39321.00
648.61	38862.26
648.76	39283.55
648.90	39037.80
649.05	38576.71
649.20	38983.96
649.34	38934.81
649.49	38553.30
649.63	38375.42
649.78	38850.55
649.92	39222.70
650.07	39402.92
650.21	38490.11
650.36	39028.43
650.51	38911.41
650.65	39000.35
650.80	39131.42
650.94	38916.09
651.09	38459.68
651.23	38567.35
651.38	38543.94
651.52	38508.83
651.67	38604.80
651.81	38305.21
651.96	38267.76
652.10	38604.80
652.25	38394.15
652.39	38478.41
652.54	37986.89
652.68	38424.57
652.83	38101.58
652.97	38663.31
653.12	38693.74
653.26	37670.92
653.41	38272.44
653.55	38391.81
653.70	37998.60
653.84	37940.08
653.99	38213.93
654.13	38424.57
654.27	37598.37
654.42	37769.22
654.56	37984.55
654.71	37794.97
654.85	37551.56
655.00	37703.69
655.14	38050.09
655.29	37525.81
655.43	37890.93
655.57	37153.66
655.72	37305.80
655.86	37029.62
656.01	37003.87
656.15	37015.57
656.30	36858.76
656.44	37219.20
656.58	37261.33
656.73	37584.32
656.87	37207.50
657.01	36952.38
657.16	37507.08
657.30	36921.95
657.45	36975.78
657.59	37394.74
657.73	37282.39
657.88	37467.30
658.02	37359.63
658.16	37266.01
658.31	37801.99
658.45	37589.00
658.60	37191.11
658.74	37436.87
658.88	37174.73
659.03	36659.81
659.17	36863.44
659.31	36664.49
659.46	36720.66
659.60	36748.75
659.74	36734.71
659.89	36556.83
660.03	36683.22
660.17	36596.62
660.32	36603.64
660.46	36397.67
660.60	36456.18
660.74	36168.30
660.89	36928.97
661.03	36072.34
661.17	36446.82
661.32	36156.60
661.46	36233.83
661.60	36708.96
661.74	35756.36
661.89	36154.26
662.03	35952.97
662.17	36067.66
662.31	36077.02
662.46	36194.04
662.60	36238.51
662.74	35849.99
662.88	35360.81
663.03	35562.10
663.17	35948.29
663.31	35351.45
663.45	35484.86
663.60	35744.66
663.74	35033.14
663.88	35470.82
664.02	35459.12
664.17	35927.22
664.31	35377.20
664.45	35084.63
664.59	34738.23
664.73	35253.15
664.88	35304.64
665.02	34728.87
665.16	35278.89
665.30	34988.67
665.44	34930.16
665.59	34710.14
665.73	34628.23
665.87	34787.38
666.01	34646.95
666.15	34782.70
666.29	34682.06
666.44	34651.63
666.58	34352.04
666.72	34359.06
666.86	34831.85
667.00	34389.49
667.14	33949.47
667.28	33954.15
667.43	34326.30
667.57	34232.68
667.71	34129.69
667.85	33954.15
667.99	34288.85
668.13	34113.31
668.27	34078.20
668.41	33942.45
668.56	33663.93
668.70	34218.63
668.84	33479.02
668.98	33308.16
669.12	33411.15
669.26	32989.85
669.40	33675.63
669.54	33338.59
669.68	33378.38
669.82	33195.82
669.96	33085.81
670.10	32933.68
670.25	32994.53
670.39	33130.28
670.53	32943.04
670.67	32947.72
670.81	32996.87
670.95	32910.27
671.09	32774.52
671.23	32774.52
671.37	32343.86
671.51	32156.62
671.65	32442.17
671.79	32236.20
671.93	32582.60
672.07	32411.74
672.21	32154.28
672.35	32589.62
672.49	32488.98
672.63	32048.96
672.77	32095.77
672.91	31824.26
673.05	31749.37
673.19	31962.36
673.33	31906.18
673.47	31318.71
673.61	31634.68
673.75	30967.63
673.89	31201.68
674.03	31468.50
674.17	31101.04
674.31	31044.87
674.45	31185.30
674.59	31351.48
674.73	31276.58
674.87	31145.51
675.01	31084.65
675.15	31033.16
675.29	30426.96
675.43	30728.89
675.56	30579.10
675.70	30448.03
675.84	30433.99
675.98	29942.47
676.12	30300.58
676.26	30391.86
676.40	30611.87
676.54	30331.00
676.68	30429.30
676.82	29647.57
676.96	29984.60
677.10	29685.01
677.23	29652.25
677.37	29670.97
677.51	29481.39
677.65	29256.70
677.79	29385.43
677.93	29001.58
678.07	28610.71
678.21	28804.97
678.34	28634.11
678.48	28931.36
678.62	28945.41
678.76	28769.86
678.90	28451.55
679.04	28168.35
679.18	28584.96
679.31	28402.40
679.45	27889.82
679.59	27807.90
679.73	27566.83
679.87	27700.24
680.00	27924.93
680.14	27882.80
680.28	28095.79
680.42	27496.61
680.56	27644.07
680.70	27365.54
680.83	27283.62
680.97	27377.25
681.11	27005.10
681.25	27222.77
681.39	27325.75
681.52	27101.06
681.66	26960.63
681.80	26965.31
681.94	26871.69
682.07	26754.66
682.21	26480.82
682.35	26618.91
682.49	26506.57
682.62	26003.35
682.76	26017.40
682.90	26354.43
683.04	26300.60
683.17	26239.75
683.31	25797.38
683.45	25692.06
683.59	25883.98
683.72	25589.08
683.86	25736.53
684.00	25642.91
684.13	25450.99
684.27	25111.61
684.41	24882.24
684.55	25404.17
684.68	25132.67
684.82	25116.29
684.96	24975.86
685.09	24996.92
685.23	24608.39
685.37	24926.71
685.50	24500.73
685.64	24800.32
685.78	24166.03
685.91	24386.04
686.05	23821.97
686.19	23726.01
686.32	24086.45
686.46	23482.59
686.60	23199.39
686.73	23108.11
686.87	23332.80
687.01	22939.59
687.14	22972.36
687.28	22771.07
687.42	22698.52
687.55	22963.00
687.69	23049.60
687.82	22871.72
687.96	22843.63
688.10	22480.85
688.23	23012.15
688.37	22789.80
688.50	22476.16
688.64	22530.00
688.78	22370.84
688.91	22300.62
689.05	22419.99
689.18	22155.51
689.32	21961.25
689.46	22272.54
689.59	22005.72
689.73	22387.22
689.86	21867.63
690.00	21341.00
690.13	21806.77
690.27	21401.86
690.41	21710.81
690.54	21289.51
690.68	21408.88
690.81	21324.62
690.95	21275.47
691.08	21359.73
691.22	21315.26
691.35	20816.72
691.49	21074.18
691.62	20919.71
691.76	20606.08
691.89	20795.66
692.03	20329.89
692.16	20397.77
692.30	20484.37
692.43	20306.49
692.57	20191.80
692.70	19960.09
692.84	19864.13
692.97	20006.90
693.11	19854.76
693.24	19702.63
693.38	19662.84
693.51	19456.87
693.65	19623.05
693.78	19353.89
693.92	19253.25
694.05	19360.91
694.19	19278.99
694.32	19187.71
694.45	19250.91
694.59	18939.62
694.72	19035.58
694.86	18604.92
694.99	18963.02
695.13	18604.92
695.26	18679.82
695.39	18490.23
695.53	18527.68
695.66	18635.35
695.80	18738.33
695.93	18244.48
696.07	18143.83
696.20	17937.87
696.33	18441.08
696.47	18174.26
696.60	18005.74
696.73	17729.56
696.87	17605.51
697.00	17689.77
697.14	17462.74
697.27	17448.69
697.40	17226.34
697.54	17317.62
697.67	17181.87
697.80	17158.47
697.94	17076.55
698.07	17270.81
698.21	17050.80
698.34	17188.89
698.47	16748.87
698.61	16482.05
698.74	16634.19
698.87	16416.52
699.01	16484.39
699.14	16170.76
699.27	16226.93
699.40	16238.64
699.54	16105.23
699.67	16013.95
699.80	15971.82
699.94	15955.43
700.07	16060.76
700.20	15927.35
700.34	15840.75
700.47	16166.08
700.60	16002.24
700.73	16091.18
700.87	15484.98
701.00	15419.45
701.13	15538.82
701.26	15592.65
701.40	15447.54
701.53	15257.95
701.66	15339.87
701.79	15438.17
701.93	14995.81
702.06	14960.70
702.19	14609.62
702.32	14932.62
702.46	14794.53
702.59	15108.16
702.72	14703.25
702.85	14658.78
702.99	14647.07
703.12	14743.03
703.25	14317.06
703.38	14354.51
703.51	14525.36
703.65	14356.85
703.78	14230.46
703.91	13792.78
704.04	13989.38
704.17	13895.76
704.31	13837.25
704.44	13769.37
704.57	13881.72
704.70	13762.35
704.83	13479.15
704.96	13799.80
705.10	13858.31
705.23	13579.79
>>>>>End Processed Spectral Data<<<<<
