SpectraSuite Data File
++++++++++++++++++++++++++++++++++++
Date: Fri Oct 25 10:43:34 EDT 2013
User: price-jones
Dark Spectrum Present: No
Reference Spectrum Present: No
Number of Sampled Component Spectra: 1
Spectrometers: USB2+H05261
Integration Time (usec): 100000 (USB2+H05261)
Spectra Averaged: 1 (USB2+H05261)
Boxcar Smoothing: 0 (USB2+H05261)
Correct for Electrical Dark: No (USB2+H05261)
Strobe/Lamp Enabled: No (USB2+H05261)
Correct for Detector Non-linearity: No (USB2+H05261)
Correct for Stray Light: No (USB2+H05261)
Number of Pixels in Processed Spectrum: 2048
>>>>>Begin Processed Spectral Data<<<<<
365.73	114.69
365.92	114.69
366.12	114.69
366.32	11.70
366.52	25.75
366.72	81.92
366.91	42.13
367.11	32.77
367.31	16.38
367.51	4.68
367.70	0.00
367.90	51.49
368.10	65.54
368.30	0.00
368.49	37.45
368.69	60.85
368.89	77.24
369.09	70.22
369.28	32.77
369.48	46.81
369.68	16.38
369.87	32.77
370.07	58.51
370.27	58.51
370.47	196.60
370.66	402.57
370.86	430.66
371.06	447.04
371.25	500.87
371.45	447.04
371.65	444.70
371.84	461.09
372.04	451.72
372.24	498.53
372.44	489.17
372.63	472.79
372.83	428.32
373.03	477.47
373.22	528.96
373.42	456.40
373.62	493.85
373.81	622.58
374.01	568.75
374.21	571.09
374.40	521.94
374.60	557.05
374.79	543.00
374.99	589.82
375.19	606.20
375.38	524.28
375.58	608.54
375.78	608.54
375.97	559.39
376.17	643.65
376.37	606.20
376.56	610.88
376.76	662.37
376.95	613.22
377.15	608.54
377.35	645.99
377.54	711.52
377.74	617.90
377.93	697.48
378.13	631.94
378.33	627.26
378.52	664.71
378.72	603.86
378.91	699.82
379.11	676.41
379.31	627.26
379.50	706.84
379.70	638.97
379.89	765.36
380.09	667.05
380.28	657.69
380.48	641.31
380.68	692.80
380.87	802.80
381.07	695.14
381.26	767.70
381.46	779.40
381.65	627.26
381.85	624.92
382.04	629.60
382.24	737.27
382.43	636.63
382.63	655.35
382.83	667.05
383.02	711.52
383.22	788.76
383.41	737.27
383.61	744.29
383.80	828.55
384.00	786.42
384.19	798.12
384.39	828.55
384.58	863.66
384.78	779.40
384.97	758.33
385.17	671.73
385.36	795.78
385.56	807.48
385.75	823.87
385.95	781.74
386.14	842.59
386.34	821.53
386.53	807.48
386.72	784.08
386.92	844.93
387.11	821.53
387.31	908.13
387.50	898.77
387.70	903.45
387.89	863.66
388.09	898.77
388.28	919.83
388.48	1022.81
388.67	933.87
388.86	915.15
389.06	1001.75
389.25	926.85
389.45	978.34
389.64	1055.58
389.84	968.98
390.03	901.11
390.22	1022.81
390.42	1011.11
390.61	952.60
390.81	992.39
391.00	1060.26
391.19	1102.39
391.39	1057.92
391.58	1107.07
391.78	1039.20
391.97	1111.75
392.16	1081.33
392.36	1046.22
392.55	1015.79
392.75	1067.28
392.94	980.68
393.13	990.05
393.33	1011.11
393.52	1053.24
393.71	1132.82
393.91	1135.16
394.10	1130.48
394.29	1114.10
394.49	1144.52
394.68	1200.69
394.88	1350.49
395.07	1324.74
395.26	1207.72
395.46	1240.48
395.65	1364.53
395.84	1254.53
396.04	1256.87
396.23	1219.42
396.42	1153.88
396.62	1172.61
396.81	1238.14
397.00	1247.51
397.19	1310.70
397.39	1376.24
397.58	1427.73
397.77	1383.26
397.97	1322.40
398.16	1439.43
398.35	1509.65
398.55	1453.47
398.74	1479.22
398.93	1568.16
399.12	1519.01
399.32	1582.20
399.51	1582.20
399.70	1565.82
399.90	1589.22
400.09	1664.12
400.28	1661.78
400.47	1556.46
400.67	1619.65
400.86	1678.16
401.05	1624.33
401.24	1675.82
401.44	1650.08
401.63	1776.47
401.82	1809.23
402.01	1710.93
402.21	1774.13
402.40	1839.66
402.59	1685.19
402.78	1732.00
402.97	1870.09
403.17	1837.32
403.36	1832.64
403.55	1823.28
403.74	1909.88
403.93	1907.54
404.13	1923.92
404.32	1853.70
404.51	1947.33
404.70	1952.01
404.89	1872.43
405.09	1923.92
405.28	1961.37
405.47	1980.09
405.66	1963.71
405.85	1923.92
406.05	2104.14
406.24	1949.67
406.43	2129.89
406.62	2113.50
406.81	2237.55
407.00	2134.57
407.20	2228.19
407.39	2148.61
407.58	2223.51
407.77	2228.19
407.96	2352.24
408.15	2239.89
408.34	2228.19
408.54	2363.94
408.73	2387.35
408.92	2413.09
409.11	2368.62
409.30	2342.88
409.49	2347.56
409.68	2221.17
409.87	2270.32
410.07	2382.67
410.26	2256.28
410.45	2352.24
410.64	2452.88
410.83	2422.45
411.02	2569.91
411.21	2752.47
411.40	2583.95
411.59	2619.06
411.78	2679.91
411.98	2717.36
412.17	2745.45
412.36	2705.66
412.55	2747.79
412.74	2771.19
412.93	2691.62
413.12	2871.84
413.31	3007.59
413.50	2822.69
413.69	2825.03
413.88	2923.33
414.07	3019.29
414.26	3016.95
414.45	2946.73
414.64	2972.48
414.83	3073.12
415.02	3133.98
415.22	3126.96
415.41	3187.81
415.60	3213.56
415.79	3241.64
415.98	3253.34
416.17	3103.55
416.36	3269.73
416.55	3304.84
416.74	3269.73
416.93	3339.94
417.12	3403.14
417.31	3335.26
417.50	3412.50
417.69	3618.47
417.88	3379.73
418.07	3304.84
418.26	3508.46
418.45	3569.32
418.64	3641.87
418.83	3595.06
419.02	3571.66
419.21	3562.30
419.39	3662.94
419.58	3545.91
419.77	3541.23
419.96	3655.92
420.15	3653.58
420.34	3765.92
420.53	3672.30
420.72	3887.63
420.91	3824.44
421.10	3749.54
421.29	3852.52
421.48	3852.52
421.67	3894.65
421.86	3948.48
422.05	3850.18
422.24	3775.28
422.43	3875.93
422.61	3990.61
422.80	3988.27
422.99	4058.49
423.18	3927.42
423.37	4039.76
423.56	4032.74
423.75	4007.00
423.94	3906.35
424.13	3812.73
424.32	3798.69
424.50	3960.19
424.69	4187.22
424.88	4140.41
425.07	4046.79
425.26	3964.87
425.45	3960.19
425.64	4051.47
425.83	3953.16
426.01	4166.15
426.20	3962.53
426.39	4035.08
426.58	4086.58
426.77	4060.83
426.96	3962.53
427.15	3946.14
427.33	4009.34
427.52	4128.70
427.71	4168.49
427.90	4184.88
428.09	4161.47
428.28	4191.90
428.46	3990.61
428.65	4147.43
428.84	4381.48
429.03	4346.37
429.22	4100.62
429.40	4231.69
429.59	4177.86
429.78	3967.21
429.97	3894.65
430.16	4124.02
430.34	4086.58
430.53	4243.39
430.72	4217.65
430.91	4306.59
431.10	4423.61
431.28	4566.39
431.47	4636.60
431.66	4758.31
431.85	4631.92
432.03	4720.86
432.22	4634.26
432.41	4587.45
432.60	4791.08
432.79	4772.35
432.97	4779.37
433.16	4826.18
433.35	4652.98
433.54	4664.69
433.72	4648.30
433.91	4758.31
434.10	4723.20
434.28	4809.80
434.47	4997.04
434.66	5006.41
434.85	5032.15
435.03	4992.36
435.22	5067.26
435.41	5144.50
435.59	5210.03
435.78	5200.67
435.97	5125.77
436.16	5151.52
436.34	5298.97
436.53	5301.31
436.72	5376.21
436.90	5165.56
437.09	5167.90
437.28	5289.61
437.46	5366.85
437.65	5387.91
437.84	5343.44
438.02	5341.10
438.21	5252.16
438.40	5121.09
438.58	5394.93
438.77	5504.94
438.96	5523.66
439.14	5619.63
439.33	5689.84
439.52	5628.99
439.70	5626.65
439.89	5741.33
440.08	5650.05
440.26	5839.64
440.45	5874.74
440.63	5930.92
440.82	6104.12
441.01	6050.28
441.19	6019.86
441.38	6232.85
441.57	6148.59
441.75	6328.81
441.94	6317.11
442.12	6361.58
442.31	6464.56
442.50	6361.58
442.68	6413.07
442.87	6457.54
443.05	6478.60
443.24	6520.73
443.43	6520.73
443.61	6560.52
443.80	6658.82
443.98	6244.55
444.17	6338.17
444.35	6473.92
444.54	6607.33
444.73	6796.92
444.91	6429.45
445.10	6492.65
445.28	6312.42
445.47	6523.07
445.65	6590.95
445.84	6609.67
446.02	6843.73
446.21	6654.14
446.39	6485.62
446.58	6651.80
446.77	6729.04
446.95	6642.44
447.14	6843.73
447.32	6874.15
447.51	6717.34
447.69	6658.82
447.88	6761.81
448.06	6698.61
448.25	6803.94
448.43	6897.56
448.62	6843.73
448.80	6920.96
448.99	6920.96
449.17	6855.43
449.36	6855.43
449.54	7028.63
449.73	7091.82
449.91	7103.53
450.10	7204.17
450.28	7529.50
450.46	7241.62
450.65	7384.39
450.83	7365.67
451.02	7410.14
451.20	7424.18
451.39	7428.86
451.57	7070.76
451.76	7155.02
451.94	7353.96
452.13	7304.81
452.31	7290.77
452.49	7267.36
452.68	7098.84
452.86	7187.79
453.05	7304.81
453.23	7368.01
453.42	7428.86
453.60	7499.08
453.78	7606.74
453.97	7421.84
454.15	7520.14
454.34	7337.58
454.52	7578.65
454.70	7562.27
454.89	7728.45
455.07	7674.62
455.26	7726.11
455.44	7784.62
455.62	7744.83
455.81	7969.52
455.99	7843.14
456.17	7864.20
456.36	7768.24
456.54	8156.77
456.73	8077.19
456.91	8257.41
457.09	8224.64
457.28	8514.87
457.46	8175.49
457.64	8444.65
457.83	8205.92
458.01	7985.91
458.19	8341.67
458.38	8269.11
458.56	8423.59
458.74	8346.35
458.93	8374.44
459.11	8489.12
459.29	8383.80
459.48	8229.32
459.66	8226.98
459.84	8435.29
460.03	8493.80
460.21	8610.83
460.39	8592.11
460.57	8720.84
460.76	8681.05
460.94	8779.35
461.12	8664.66
461.31	8903.40
461.49	8741.90
461.67	8870.63
461.85	9055.53
462.04	8879.99
462.22	9245.12
462.40	9055.53
462.59	8985.32
462.77	8990.00
462.95	9022.77
463.13	9062.55
463.32	9149.15
463.50	9188.94
463.68	9078.94
463.86	8966.59
464.05	8990.00
464.23	9020.42
464.41	9100.00
464.59	8821.48
464.78	9320.01
464.96	9219.37
465.14	9135.11
465.32	9153.84
465.50	9390.23
465.69	9561.09
465.87	9294.27
466.05	9226.39
466.23	9184.26
466.41	9268.52
466.60	9753.01
466.78	9153.84
466.96	9425.34
467.14	9397.25
467.32	9554.07
467.51	9516.62
467.69	9401.93
467.87	9635.99
468.05	9507.26
468.23	9469.81
468.41	9387.89
468.60	9392.57
468.78	9659.39
468.96	9745.99
469.14	9790.46
469.32	9799.82
469.50	9628.96
469.69	9853.66
469.87	9961.32
470.05	9996.43
470.23	9870.04
470.41	9975.36
470.59	10029.20
470.77	9872.38
470.95	10122.82
471.14	10331.12
471.32	10209.42
471.50	10253.89
471.68	10441.13
471.86	10506.66
472.04	10691.57
472.22	10497.30
472.40	10293.68
472.58	10345.17
472.77	10377.94
472.95	10579.22
473.13	10839.02
473.31	10546.45
473.49	10604.97
473.67	10675.18
473.85	10803.91
474.03	11211.17
474.21	11089.46
474.39	11218.19
474.57	11304.79
474.75	11375.00
474.93	11239.25
475.12	11269.68
475.30	11220.53
475.48	11389.05
475.66	11510.75
475.84	11662.89
476.02	11407.77
476.20	11433.52
476.38	11770.55
476.56	12224.62
476.74	11969.50
476.92	11896.94
477.10	11836.09
477.28	12322.92
477.46	12081.85
477.64	12255.04
477.82	12542.93
478.00	12781.67
478.18	12849.54
478.36	12587.40
478.54	12819.11
478.72	12833.16
478.90	13036.78
479.08	13174.88
479.26	13327.01
479.44	13139.77
479.62	13493.19
479.80	13422.97
479.98	13476.80
480.16	13811.50
480.34	13675.75
480.52	13687.45
480.70	13820.86
480.88	13785.76
481.06	14078.32
481.24	14155.56
481.41	14211.73
481.59	14661.12
481.77	14621.33
481.95	14445.79
482.13	14803.89
482.31	14567.49
482.49	15023.90
482.67	14803.89
482.85	15016.88
483.03	15288.38
483.21	15185.40
483.39	15475.62
483.57	15541.16
483.74	15587.97
483.92	15999.90
484.10	15634.78
484.28	15992.88
484.46	16163.74
484.64	16514.82
484.82	16222.25
485.00	16205.87
485.18	16383.75
485.35	16676.32
485.53	16189.49
485.71	16240.98
485.89	16669.30
486.07	16510.14
486.25	16760.58
486.43	17118.68
486.61	17334.01
486.78	17467.42
486.96	17462.74
487.14	17795.09
487.32	17804.46
487.50	17961.27
487.68	18246.82
487.85	18448.10
488.03	18497.25
488.21	18967.70
488.39	18562.79
488.57	18981.74
488.75	18817.91
488.92	19187.71
489.10	19719.01
489.28	19541.13
489.46	20107.54
489.64	19784.55
489.81	20357.98
489.99	20411.81
490.17	20184.78
490.35	20531.18
490.53	20900.98
490.70	20566.29
490.88	20943.11
491.06	20992.26
491.24	20917.37
491.41	21013.33
491.59	20884.60
491.77	21083.55
491.95	21556.33
492.13	21582.08
492.30	21865.28
492.48	21661.66
492.66	22015.08
492.84	22057.21
493.01	22525.32
493.19	22089.98
493.37	22581.49
493.54	22504.25
493.72	22628.30
493.90	22544.04
494.08	22881.08
494.25	23232.16
494.43	22986.40
494.61	23616.01
494.79	23866.44
494.96	23807.93
495.14	23791.55
495.32	23901.55
495.49	23859.42
495.67	23946.02
495.85	24533.50
496.02	24086.45
496.20	24746.48
496.38	24856.49
496.55	24842.45
496.73	24992.24
496.91	25046.07
497.09	24886.92
497.26	25411.20
497.44	25303.53
497.62	25263.74
497.79	25502.48
497.97	25406.52
498.14	26031.44
498.32	26040.80
498.50	25823.13
498.67	26101.65
498.85	26113.36
499.03	26810.84
499.20	26214.00
499.38	26347.41
499.56	26597.85
499.73	27068.30
499.91	26848.29
500.08	26670.40
500.26	26771.05
500.44	26541.68
500.61	27192.34
500.79	26544.02
500.97	26981.70
501.14	27496.61
501.32	26965.31
501.49	27452.14
501.67	27304.69
501.84	27805.56
502.02	27470.87
502.20	28016.21
502.37	28154.30
502.55	27967.06
502.72	28123.88
502.90	28041.96
503.07	28301.76
503.25	28500.70
503.43	28299.42
503.60	28418.78
503.78	28137.92
503.95	28460.91
504.13	28938.38
504.30	28713.69
504.48	28622.41
504.65	29048.39
504.83	29481.39
505.01	28893.91
505.18	29355.00
505.36	29869.92
505.53	29518.84
505.71	29874.60
505.88	30031.41
506.06	29640.54
506.23	30398.88
506.41	29675.65
506.58	30068.86
506.76	29703.74
506.93	30122.69
507.11	30017.37
507.28	30436.33
507.46	30291.21
507.63	30120.35
507.81	30625.91
507.98	30188.23
508.16	30476.12
508.33	30874.01
508.50	30871.67
508.68	31236.79
508.85	31269.56
509.03	31285.94
509.20	31288.28
509.38	31489.57
509.55	31608.93
509.73	31428.71
509.90	31754.05
510.08	31882.78
510.25	31590.21
510.42	32341.52
510.60	32219.81
510.77	31887.46
510.95	32355.57
511.12	32325.14
511.30	32158.96
511.47	32758.14
511.64	32793.25
511.82	32753.46
511.99	32292.37
512.17	32870.48
512.34	32610.68
512.51	32404.72
512.69	32886.87
512.86	32711.33
513.04	33088.15
513.21	33336.25
513.38	33207.52
513.56	33144.33
513.73	33329.23
513.90	33387.74
514.08	33397.10
514.25	33457.96
514.43	33261.35
514.60	33404.13
514.77	33464.98
514.95	34188.21
515.12	33823.08
515.29	33750.52
515.47	34190.55
515.64	34389.49
515.81	34305.23
515.99	34211.61
516.16	33942.45
516.33	33790.31
516.51	34127.35
516.68	33553.92
516.85	33516.47
517.03	33830.10
517.20	34338.00
517.37	34429.28
517.54	34810.79
517.72	34541.63
517.89	34403.53
518.06	33797.34
518.24	34497.16
518.41	34057.14
518.58	34614.18
518.75	34607.16
518.93	34686.74
519.10	35065.91
519.27	35487.20
519.45	35325.71
519.62	35433.37
519.79	35775.09
519.96	35175.91
520.14	35330.39
520.31	35328.05
520.48	35910.84
520.65	35505.93
520.83	36126.17
521.00	35859.35
521.17	35772.75
521.34	36362.56
521.52	36182.34
521.69	36130.85
521.86	36673.85
522.03	36311.07
522.20	36460.87
522.38	36605.98
522.55	36657.47
522.72	36259.58
522.89	36631.72
523.07	37113.87
523.24	36751.09
523.41	37488.36
523.58	37343.25
523.75	37551.56
523.92	37308.14
524.10	37085.79
524.27	37242.60
524.44	37443.89
524.61	37748.16
524.78	37715.39
524.96	37418.14
525.13	38087.54
525.30	38307.55
525.47	38075.84
525.64	37965.83
525.81	37495.38
525.98	37825.40
526.16	37282.39
526.33	37516.45
526.50	37816.04
526.67	37446.23
526.84	37511.77
527.01	37144.30
527.18	37647.52
527.36	38066.47
527.53	38838.85
527.70	38827.15
527.87	38719.48
528.04	38251.38
528.21	38443.30
528.38	38483.09
528.55	38831.83
528.72	39098.65
528.89	39524.63
529.07	38951.20
529.24	39166.52
529.41	38775.66
529.58	38637.56
529.75	39213.34
529.92	39339.72
530.09	39431.01
530.26	39487.18
530.43	39690.80
530.60	39012.05
530.77	39466.11
530.94	39892.09
531.11	39412.28
531.28	40027.84
531.46	39655.70
531.63	39730.59
531.80	39538.67
531.97	39433.35
532.14	39597.18
532.31	39473.13
532.48	39449.73
532.65	39761.02
532.82	39899.11
532.99	40524.04
533.16	39887.41
533.33	40027.84
533.50	40107.42
533.67	39938.90
533.84	40683.19
534.01	40308.71
534.18	40395.31
534.35	40336.79
534.52	40854.05
534.69	40622.34
534.86	40844.69
535.03	40566.16
535.20	41055.34
535.37	40825.96
535.54	41200.45
535.71	41083.42
535.88	41060.02
536.05	40535.74
536.22	41034.27
536.38	40985.12
536.55	40966.40
536.72	40945.33
536.89	40570.85
537.06	41212.15
537.23	41469.61
537.40	40786.18
537.57	41249.60
537.74	41354.93
537.91	41537.49
538.08	41654.51
538.25	40950.01
538.42	41514.08
538.59	41713.03
538.75	41638.13
538.92	41457.91
539.09	41624.09
539.26	41034.27
539.43	41832.39
539.60	41605.36
539.77	41464.93
539.94	41574.94
540.11	41757.50
540.28	41724.73
540.44	41975.17
540.61	41886.23
540.78	41530.47
540.95	41490.68
541.12	41455.57
541.29	41853.46
541.46	42183.48
541.62	42183.48
541.79	42057.09
541.96	41439.18
542.13	41848.78
542.30	42092.19
542.47	42403.49
542.63	42361.36
542.80	42169.43
542.97	42644.56
543.14	42824.78
543.31	43047.13
543.48	42834.14
543.64	43030.75
543.81	43278.85
543.98	43098.62
544.15	42852.87
544.32	43346.72
544.48	43761.00
544.65	43058.84
544.82	43349.06
544.99	42953.51
545.16	42934.79
545.32	42766.27
545.49	44086.33
545.66	43283.53
545.83	43023.73
546.00	43388.85
546.16	43213.31
546.33	43201.61
546.50	43192.25
546.67	43482.47
546.83	42728.82
547.00	43274.16
547.17	43271.82
547.34	43072.88
547.50	43622.90
547.67	44023.14
547.84	43737.59
548.00	43557.37
548.17	43863.98
548.34	44037.18
548.51	44250.17
548.67	43990.37
548.84	43758.66
549.01	43721.21
549.18	43791.42
549.34	44006.75
549.51	43859.30
549.68	44051.22
549.84	44545.08
550.01	44357.83
550.18	44002.07
550.34	44091.01
550.51	44177.61
550.68	43735.25
550.84	43206.29
551.01	44474.86
551.18	44329.75
551.34	43856.96
551.51	44505.29
551.68	44186.97
551.84	44109.74
552.01	44474.86
552.18	44381.24
552.34	44430.39
552.51	44514.65
552.68	44577.84
552.84	44409.32
553.01	44776.79
553.18	44378.90
553.34	44680.83
553.51	44655.08
553.67	44825.94
553.84	45198.09
554.01	45251.92
554.17	45219.15
554.34	44722.96
554.51	44807.22
554.67	44804.88
554.84	44676.15
555.00	44322.72
555.17	44498.26
555.33	44418.69
555.50	45067.02
555.67	45284.68
555.83	44690.19
556.00	45074.04
556.16	45832.37
556.33	44781.47
556.50	45097.44
556.66	45373.63
556.83	44676.15
556.99	45258.94
557.16	45448.52
557.32	44903.18
557.49	45099.78
557.65	45366.60
557.82	44985.10
557.98	45385.33
558.15	45207.45
558.32	45427.46
558.48	44732.32
558.65	44931.26
558.81	45177.02
558.98	45172.34
559.14	45375.97
559.31	44849.35
559.47	45116.17
559.64	45237.87
559.80	45476.61
559.97	45338.52
560.13	45237.87
560.30	45226.17
560.46	45963.44
560.63	45935.35
560.79	45907.27
560.96	45703.64
561.12	45579.59
561.29	45528.10
561.45	45579.59
561.61	45406.39
561.78	45256.60
561.94	45560.87
562.11	45191.06
562.27	45312.77
562.44	45226.17
562.60	46075.79
562.77	45837.05
562.93	45361.92
563.10	46436.23
563.26	45546.82
563.42	45675.55
563.59	45766.84
563.75	45773.86
563.92	45874.50
564.08	45633.42
564.24	46181.11
564.41	45619.38
564.57	45776.20
564.74	45698.96
564.90	45806.62
565.07	45528.10
565.23	45720.02
565.39	45507.04
565.56	45755.13
565.72	45265.96
565.88	46033.66
566.05	45605.34
566.21	45436.82
566.38	45818.33
566.54	45415.76
566.70	46071.10
566.87	46223.24
567.03	46192.81
567.19	46471.34
567.36	46146.00
567.52	45656.83
567.68	45834.71
567.85	45741.09
568.01	45869.82
568.17	45806.62
568.34	45853.44
568.50	45799.60
568.66	45900.25
568.83	46391.76
568.99	45909.61
569.15	46312.18
569.32	45670.87
569.48	45799.60
569.64	45954.08
569.81	46216.22
569.97	45865.14
570.13	45736.41
570.30	45460.23
570.46	45696.62
570.62	45673.21
570.78	45694.28
570.95	45441.50
571.11	45797.26
571.27	45607.68
571.43	46188.13
571.60	45921.31
571.76	45830.03
571.92	45771.52
572.09	45846.41
572.25	46326.22
572.41	46213.88
572.57	45881.52
572.74	46571.98
572.90	46347.29
573.06	46288.77
573.22	46637.51
573.38	46358.99
573.55	45944.72
573.71	46602.41
573.87	46131.96
574.03	45703.64
574.20	45963.44
574.36	46150.68
574.52	46134.30
574.68	46108.55
574.84	46298.14
575.01	45792.58
575.17	45883.86
575.33	45680.24
575.49	45839.39
575.65	45916.63
575.82	46071.10
575.98	45762.15
576.14	46499.42
576.30	46368.35
576.46	46167.07
576.62	46471.34
576.79	46003.23
576.95	45991.53
577.11	46307.50
577.27	46433.89
577.43	46476.02
577.59	46176.43
577.75	46174.09
577.92	45731.73
578.08	45886.20
578.24	45916.63
578.40	45752.79
578.56	46216.22
578.72	46323.88
578.88	46480.70
579.04	46447.93
579.21	45951.74
579.37	46263.03
579.53	46178.77
579.69	46043.02
579.85	46129.62
580.01	46150.68
580.17	45895.56
580.33	46256.01
580.49	46623.47
580.65	46024.29
580.82	46089.83
580.98	46450.27
581.14	45659.17
581.30	46401.12
581.46	46178.77
581.62	46471.34
581.78	46106.21
581.94	46302.82
582.10	46380.06
582.26	46307.50
582.42	46557.94
582.58	46157.70
582.74	46340.27
582.90	46574.32
583.06	46447.93
583.22	46059.40
583.38	46251.33
583.54	46581.34
583.70	46667.94
583.86	46213.88
584.02	45853.44
584.18	46483.04
584.34	46314.52
584.50	46368.35
584.66	46108.55
584.82	46342.61
584.98	46375.37
585.14	45720.02
585.30	46225.58
585.46	45935.35
585.62	46028.98
585.78	46190.47
585.94	45975.14
586.10	45963.44
586.26	46052.38
586.42	46110.89
586.58	46937.10
586.74	46169.41
586.90	46241.96
587.06	46127.28
587.22	46080.47
587.38	45900.25
587.54	46490.06
587.70	46440.91
587.86	46225.58
588.02	46174.09
588.18	46169.41
588.34	46138.98
588.49	45766.84
588.65	45925.99
588.81	45476.61
588.97	46054.72
589.13	45539.80
589.29	45514.06
589.45	45837.05
589.61	45830.03
589.77	46518.15
589.93	46204.52
590.08	46485.38
590.24	46515.81
590.40	46576.66
590.56	46754.54
590.72	46220.90
590.88	46363.67
591.04	46272.39
591.20	46684.33
591.35	46593.04
591.51	46972.21
591.67	45837.05
591.83	46354.31
591.99	46124.94
592.15	46026.63
592.31	46342.61
592.46	46850.50
592.62	46621.13
592.78	46036.00
592.94	46469.00
593.10	46532.19
593.26	46204.52
593.41	46471.34
593.57	46122.60
593.73	46286.43
593.89	46218.56
594.05	46316.86
594.20	46099.19
594.36	46705.39
594.52	46333.24
594.68	46092.17
594.84	45975.14
594.99	46681.98
595.15	46621.13
595.31	46436.23
595.47	46674.96
595.62	46579.00
595.78	46344.95
595.94	46770.93
596.10	46529.85
596.25	46206.86
596.41	46405.80
596.57	46005.57
596.73	46492.40
596.88	46335.59
597.04	46515.81
597.20	46539.21
597.36	46621.13
597.51	46684.33
597.67	46506.44
597.83	46801.35
597.99	46827.10
598.14	46398.78
598.30	46686.67
598.46	46653.90
598.61	46632.83
598.77	46480.70
598.93	45940.04
599.09	46459.63
599.24	46927.74
599.40	46522.83
599.56	46478.36
599.71	46492.40
599.87	46644.54
600.03	46628.15
600.18	46459.63
600.34	46326.22
600.50	46485.38
600.65	46019.61
600.81	46220.90
600.97	46288.77
601.12	46632.83
601.28	46522.83
601.44	46169.41
601.59	45940.04
601.75	45848.75
601.91	46396.44
602.06	46185.79
602.22	46094.51
602.37	46803.69
602.53	46492.40
602.69	46663.26
602.84	46424.53
603.00	46232.60
603.16	46185.79
603.31	46232.60
603.47	46461.97
603.62	46014.93
603.78	46454.95
603.94	46410.48
604.09	46258.35
604.25	46464.32
604.40	46473.68
604.56	46089.83
604.71	47215.63
604.87	46316.86
605.03	46267.71
605.18	45792.58
605.34	46256.01
605.49	46326.22
605.65	46354.31
605.80	46600.07
605.96	46539.21
606.12	46248.99
606.27	46700.71
606.43	46204.52
606.58	46387.08
606.74	46131.96
606.89	46197.49
607.05	46078.13
607.20	46279.41
607.36	46089.83
607.51	46419.84
607.67	46153.02
607.82	46064.08
607.98	46258.35
608.13	45844.07
608.29	46050.04
608.44	45574.91
608.60	45797.26
608.75	45886.20
608.91	45680.24
609.06	45902.59
609.22	45886.20
609.37	45844.07
609.53	46195.15
609.68	45895.56
609.84	45560.87
609.99	45853.44
610.15	45785.56
610.30	45755.13
610.46	45322.13
610.61	45907.27
610.76	45940.04
610.92	46204.52
611.07	45986.85
611.23	46031.32
611.38	45677.90
611.54	45642.79
611.69	45397.03
611.84	45584.27
612.00	45294.05
612.15	45390.01
612.31	45787.90
612.46	45666.19
612.62	45439.16
612.77	45874.50
612.92	45684.92
613.08	45867.48
613.23	45272.98
613.39	45113.83
613.54	44931.26
613.69	44959.35
613.85	45127.87
614.00	45453.20
614.15	45436.82
614.31	45312.77
614.46	45460.23
614.62	45469.59
614.77	44863.39
614.92	45076.38
615.08	45364.26
615.23	44896.16
615.38	44863.39
615.54	44762.75
615.69	44856.37
615.84	44896.16
616.00	45120.85
616.15	45280.00
616.30	44882.11
616.46	44940.63
616.61	44694.87
616.76	44687.85
616.92	44346.13
617.07	44985.10
617.22	44699.55
617.37	44811.90
617.53	44605.93
617.68	45542.14
617.83	45031.91
617.99	44737.00
618.14	44451.45
618.29	44488.90
618.45	44914.88
618.60	44414.01
618.75	44182.29
618.90	43810.15
619.06	44725.30
619.21	44437.41
619.36	44589.55
619.51	44343.79
619.67	44390.60
619.82	44444.43
619.97	44378.90
620.12	44460.82
620.28	43976.33
620.43	44516.99
620.58	44346.13
620.73	44116.76
620.89	43559.71
621.04	44088.67
621.19	44528.69
621.34	43962.28
621.49	43646.31
621.65	44055.90
621.80	44406.98
621.95	43847.60
622.10	44076.97
622.25	44179.95
622.41	43779.72
622.56	43459.07
622.71	44128.46
622.86	43856.96
623.01	44025.48
623.16	43662.69
623.32	43833.55
623.47	43423.96
623.62	43435.66
623.77	43962.28
623.92	43709.50
624.07	43438.00
624.23	43288.21
624.38	43166.50
624.53	43807.81
624.68	43402.89
624.83	43648.65
624.98	43412.26
625.13	42871.59
625.29	43777.38
625.44	43005.00
625.59	43325.66
625.74	43194.59
625.89	42740.52
626.04	43086.92
626.19	43189.91
626.34	43250.76
626.49	43129.05
626.65	42960.53
626.80	43360.76
626.95	43072.88
627.10	43185.22
627.25	43239.06
627.40	42895.00
627.55	42953.51
627.70	42691.37
627.85	42604.77
628.00	42904.36
628.15	42775.63
628.30	42487.74
628.45	42717.12
628.60	42974.58
628.76	42768.61
628.91	42836.48
629.06	42572.00
629.21	42607.11
629.36	42300.50
629.51	42532.22
629.66	42564.98
629.81	42366.04
629.96	42646.90
630.11	42665.63
630.26	42380.08
630.41	42925.42
630.56	42440.93
630.71	42143.69
630.86	42550.94
631.01	42363.70
631.16	41823.03
631.31	42263.05
631.46	42120.28
631.61	41708.35
631.76	41722.39
631.91	41935.38
632.06	42316.89
632.21	42157.73
632.36	42010.28
632.51	42038.36
632.66	41890.91
632.81	41471.95
632.96	42216.24
633.10	41518.76
633.25	41785.58
633.40	41956.44
633.55	41783.24
633.70	41741.11
633.85	41495.36
634.00	42014.96
634.15	42188.16
634.30	41570.25
634.45	41610.04
634.60	41872.18
634.75	41675.58
634.90	41008.53
635.05	41549.19
635.19	41193.43
635.34	41596.00
635.49	41727.07
635.64	41258.96
635.79	41230.88
635.94	41242.58
636.09	41378.33
636.24	40737.02
636.39	40959.38
636.53	40996.82
636.68	40821.28
636.83	41076.40
636.98	41429.82
637.13	41027.25
637.28	41624.09
637.43	41563.23
637.57	41397.06
637.72	41120.87
637.87	41090.44
638.02	41551.53
638.17	40959.38
638.32	40563.82
638.46	40823.62
638.61	41151.30
638.76	41233.22
638.91	40744.05
639.06	40935.97
639.20	41036.61
639.35	41053.00
639.50	40596.59
639.65	40627.02
639.80	40629.36
639.94	40730.00
640.09	40760.43
640.24	40685.53
640.39	40634.04
640.54	40418.71
640.68	40346.15
640.83	40531.06
640.98	40287.64
641.13	40385.94
641.27	40552.12
641.42	40172.96
641.57	40563.82
641.72	40409.35
641.86	40236.15
642.01	39674.42
642.16	40608.29
642.31	40105.08
642.45	40240.83
642.60	39536.33
642.75	39927.20
642.90	39873.37
643.04	39803.15
643.19	40336.79
643.34	39941.24
643.48	40074.65
643.63	39779.74
643.78	39910.82
643.93	39955.29
644.07	39669.74
644.22	39859.32
644.37	39739.96
644.51	39651.02
644.66	40011.46
644.81	39756.34
644.95	40149.55
645.10	39873.37
645.25	39746.98
645.39	39793.79
645.54	39515.26
645.69	39519.95
645.83	39253.12
645.98	39690.80
646.13	39384.19
646.27	39739.96
646.42	39569.10
646.57	39309.30
646.71	39557.39
646.86	39737.62
647.00	39529.31
647.15	39402.92
647.30	38906.73
647.44	39068.22
647.59	39342.06
647.74	38885.66
647.88	38962.90
648.03	39311.64
648.17	38841.19
648.32	39262.49
648.47	38796.72
648.61	38822.47
648.76	38799.06
648.90	39140.78
649.05	38993.32
649.20	38824.81
649.34	39108.01
649.49	38810.76
649.63	38675.01
649.78	38965.24
649.92	39089.29
650.07	39236.74
650.21	38543.94
650.36	38831.83
650.51	38644.59
650.65	39225.04
650.80	39531.65
650.94	39070.56
651.09	38820.13
651.23	38609.48
651.38	38581.39
651.52	38270.10
651.67	38246.69
651.81	38857.57
651.96	38583.73
652.10	38440.96
652.25	38363.72
652.39	38689.06
652.54	38658.63
652.68	38525.22
652.83	38445.64
652.97	38426.92
653.12	38829.49
653.26	38253.72
653.41	38036.05
653.55	38101.58
653.70	38326.27
653.84	38267.76
653.99	38068.81
654.13	38169.46
654.27	37940.08
654.42	37846.46
654.56	38391.81
654.71	38108.60
654.85	37514.11
655.00	38134.35
655.14	37771.57
655.29	37745.82
655.43	37013.23
655.57	37368.99
655.72	37322.18
655.86	37399.42
656.01	37266.01
656.15	36889.18
656.30	36914.93
656.44	37195.79
656.58	37347.93
656.73	37558.58
656.87	37504.74
657.01	37076.43
657.16	37212.18
657.30	37113.87
657.45	36701.94
657.59	36933.65
657.73	37167.71
657.88	37401.76
658.02	37474.32
658.16	37434.53
658.31	37125.58
658.45	37137.28
658.60	37364.31
658.74	37294.10
658.88	37439.21
659.03	37078.77
659.17	36802.58
659.31	36807.26
659.46	36952.38
659.60	37076.43
659.74	36893.86
659.89	36376.61
660.03	36620.02
660.17	36769.82
660.32	37092.81
660.46	36374.27
660.60	36823.65
660.74	36217.45
660.89	36577.89
661.03	36175.32
661.17	35880.41
661.32	36500.65
661.46	36664.49
661.60	36315.75
661.74	35875.73
661.89	36201.07
662.03	36385.97
662.17	36210.43
662.31	36165.96
662.46	36615.34
662.60	36397.67
662.74	35969.35
662.88	36161.28
663.03	35667.42
663.17	36112.13
663.31	35093.99
663.45	35447.41
663.60	36126.17
663.74	35791.47
663.88	35435.71
664.02	35311.66
664.17	35442.73
664.31	35267.19
664.45	34983.99
664.59	35337.41
664.73	34916.11
664.88	35356.13
665.02	34663.33
665.16	35189.95
665.30	34747.59
665.44	34576.73
665.59	35082.29
665.73	35122.08
665.87	34508.86
666.01	34396.51
666.15	34574.39
666.29	35047.18
666.44	34911.43
666.58	34852.92
666.72	34803.77
666.86	34150.76
667.00	34644.61
667.14	34410.56
667.28	34410.56
667.43	34670.36
667.57	34485.45
667.71	34057.14
667.85	34220.97
667.99	34265.44
668.13	34602.48
668.27	33961.17
668.41	34223.31
668.56	34094.58
668.70	33862.87
668.84	33158.37
668.98	33472.00
669.12	33207.52
669.26	33287.10
669.40	33542.22
669.54	33312.84
669.68	33385.40
669.82	33106.88
669.96	33106.88
670.10	32917.29
670.25	32938.36
670.39	33106.88
670.53	32793.25
670.67	33074.11
670.81	32898.57
670.95	32966.45
671.09	32868.14
671.23	32744.09
671.37	32690.26
671.51	32531.11
671.65	32514.72
671.79	32058.32
671.93	32105.13
672.07	32343.86
672.21	32500.68
672.35	32264.28
672.49	31948.31
672.63	32093.43
672.77	31693.19
672.91	32147.26
673.05	31744.69
673.19	32109.81
673.33	31594.89
673.47	31660.43
673.61	31491.91
673.75	31529.36
673.89	31335.09
674.03	31201.68
674.17	30948.90
674.31	31419.35
674.45	31519.99
674.59	31564.46
674.73	31065.93
674.87	31414.67
675.01	30520.59
675.15	30677.40
675.29	30651.66
675.43	30881.03
675.56	30745.28
675.70	30731.23
675.84	30639.95
675.98	29558.63
676.12	30518.25
676.26	30293.55
676.40	30331.00
676.54	30614.21
676.68	30331.00
676.82	29254.36
676.96	29462.66
677.10	30181.21
677.23	29699.06
677.37	29762.25
677.51	29876.94
677.65	29535.22
677.79	28840.08
677.93	29472.03
678.07	28975.83
678.21	28662.20
678.34	28641.14
678.48	28622.41
678.62	28748.80
678.76	28645.82
678.90	28023.23
679.04	28400.06
679.18	28266.65
679.31	28570.92
679.45	28137.92
679.59	28332.18
679.73	28245.58
679.87	28032.60
680.00	28088.77
680.14	27716.62
680.28	27672.15
680.42	27639.39
680.56	27545.76
680.70	27428.74
680.83	27374.91
680.97	27620.66
681.11	27101.06
681.25	27365.54
681.39	27075.32
681.52	27337.46
681.66	26888.07
681.80	27159.58
681.94	26787.43
682.07	26263.15
682.21	26293.58
682.35	26789.77
682.49	26600.19
682.62	26148.46
682.76	26216.34
682.90	26008.03
683.04	26162.51
683.17	25818.45
683.31	25673.34
683.45	25710.78
683.59	25715.47
683.72	25729.51
683.86	25968.24
684.00	25259.06
684.13	25324.60
684.27	25160.76
684.41	24978.20
684.55	25092.88
684.68	25205.23
684.82	24755.85
684.96	24912.66
685.09	24634.14
685.23	24830.74
685.37	24636.48
685.50	24835.42
685.64	24556.90
685.78	24554.56
685.91	23943.68
686.05	24177.73
686.19	23955.38
686.32	23803.25
686.46	23782.18
686.60	23381.95
686.73	23077.68
686.87	23365.57
687.01	23091.73
687.14	22869.37
687.28	22799.16
687.42	22923.21
687.55	22761.71
687.69	22710.22
687.82	22888.10
687.96	22972.36
688.10	22611.92
688.23	22576.81
688.37	22513.61
688.50	22576.81
688.64	22834.27
688.78	22602.55
688.91	22427.01
689.05	21970.61
689.18	21874.65
689.32	21507.18
689.46	22532.34
689.59	22366.16
689.73	22256.15
689.86	21582.08
690.00	21722.51
690.13	21568.04
690.27	21418.24
690.41	21507.18
690.54	21399.52
690.68	21006.31
690.81	21193.55
690.95	21280.15
691.08	20952.48
691.22	21088.23
691.35	20917.37
691.49	20753.53
691.62	20943.11
691.76	20751.19
691.89	20734.81
692.03	20781.62
692.16	20697.36
692.30	20299.47
692.43	20236.27
692.57	19910.94
692.70	20065.41
692.84	20102.86
692.97	19845.40
693.11	19686.25
693.24	19335.17
693.38	19590.28
693.51	19714.33
693.65	19470.92
693.78	19276.65
693.92	19601.99
694.05	19487.30
694.19	19161.97
694.32	19337.51
694.45	19140.90
694.59	19124.52
694.72	18834.29
694.86	19005.15
694.99	18860.04
695.13	18993.45
695.26	18354.48
695.39	18501.93
695.53	18780.46
695.66	18480.87
695.80	18513.64
695.93	18324.05
696.07	18422.36
696.20	18384.91
696.33	18209.37
696.47	18111.07
696.60	17867.65
696.73	18040.85
696.87	17731.90
697.00	17825.52
697.14	17586.79
697.27	17380.82
697.40	17818.50
697.54	17701.47
697.67	17142.08
697.80	17385.50
697.94	17069.53
698.07	16898.67
698.21	16901.01
698.34	17191.23
698.47	17254.43
698.61	16460.99
698.74	16645.89
698.87	16943.14
699.01	16500.78
699.14	16498.44
699.27	16156.72
699.40	16358.00
699.54	16009.26
699.67	16231.62
699.80	16011.60
699.94	15920.32
700.07	15819.68
700.20	16308.85
700.34	16037.35
700.47	15824.36
700.60	15665.21
700.73	15810.32
700.87	15798.62
701.00	15543.50
701.13	15475.62
701.26	15424.13
701.40	15454.56
701.53	15410.09
701.66	15131.56
701.79	14984.11
701.93	14974.75
702.06	14995.81
702.19	14654.09
702.32	14808.57
702.46	14967.73
702.59	14878.79
702.72	14621.33
702.85	14586.22
702.99	14668.14
703.12	14413.02
703.25	14506.64
703.38	14263.22
703.51	14324.08
703.65	14246.84
703.78	13977.68
703.91	14094.71
704.04	13965.98
704.17	13830.23
704.31	13738.94
704.44	13848.95
704.57	13858.31
704.70	13584.47
704.83	13476.80
704.96	13551.70
705.10	13785.76
705.23	13399.57
>>>>>End Processed Spectral Data<<<<<
