SpectraSuite Data File
++++++++++++++++++++++++++++++++++++
Date: Fri Oct 25 10:48:04 EDT 2013
User: price-jones
Dark Spectrum Present: No
Reference Spectrum Present: No
Number of Sampled Component Spectra: 1
Spectrometers: USB2+H05261
Integration Time (usec): 100000 (USB2+H05261)
Spectra Averaged: 1 (USB2+H05261)
Boxcar Smoothing: 0 (USB2+H05261)
Correct for Electrical Dark: No (USB2+H05261)
Strobe/Lamp Enabled: No (USB2+H05261)
Correct for Detector Non-linearity: No (USB2+H05261)
Correct for Stray Light: No (USB2+H05261)
Number of Pixels in Processed Spectrum: 2048
>>>>>Begin Processed Spectral Data<<<<<
365.73	182.56
365.92	182.56
366.12	182.56
366.32	72.56
366.52	95.96
366.72	81.92
366.91	145.11
367.11	30.43
367.31	28.09
367.51	37.45
367.70	105.32
367.90	37.45
368.10	28.09
368.30	65.54
368.49	70.22
368.69	67.88
368.89	49.15
369.09	35.11
369.28	79.58
369.48	60.85
369.68	58.51
369.87	110.01
370.07	114.69
370.27	159.16
370.47	252.78
370.66	334.70
370.86	374.49
371.06	456.40
371.25	463.43
371.45	430.66
371.65	423.64
371.84	423.64
372.04	402.57
372.24	428.32
372.44	498.53
372.63	512.58
372.83	468.11
373.03	493.85
373.22	482.15
373.42	437.68
373.62	496.19
373.81	531.30
374.01	578.11
374.21	575.77
374.40	545.34
374.60	514.92
374.79	538.32
374.99	622.58
375.19	587.47
375.38	582.79
375.58	601.52
375.78	566.41
375.97	615.56
376.17	566.41
376.37	496.19
376.56	475.13
376.76	566.41
376.95	601.52
377.15	624.92
377.35	582.79
377.54	503.22
377.74	592.16
377.93	547.69
378.13	554.71
378.33	592.16
378.52	601.52
378.72	606.20
378.91	606.20
379.11	573.43
379.31	589.82
379.50	667.05
379.70	545.34
379.89	657.69
380.09	699.82
380.28	653.01
380.48	622.58
380.68	622.58
380.87	608.54
381.07	638.97
381.26	615.56
381.46	613.22
381.65	681.10
381.85	669.39
382.04	585.13
382.24	753.65
382.43	725.57
382.63	683.44
382.83	622.58
383.02	739.61
383.22	690.46
383.41	667.05
383.61	671.73
383.80	741.95
384.00	706.84
384.19	744.29
384.39	716.20
384.58	692.80
384.78	692.80
384.97	774.72
385.17	730.25
385.36	711.52
385.56	732.59
385.75	720.88
385.95	706.84
386.14	748.97
386.34	727.91
386.53	709.18
386.72	706.84
386.92	802.80
387.11	826.21
387.31	821.53
387.50	807.48
387.70	755.99
387.89	830.89
388.09	854.30
388.28	821.53
388.48	819.19
388.67	938.55
388.86	837.91
389.06	880.04
389.25	837.91
389.45	849.61
389.64	861.32
389.84	851.96
390.03	983.02
390.22	926.85
390.42	870.68
390.61	875.36
390.81	926.85
391.00	1029.84
391.19	985.37
391.39	877.70
391.58	1039.20
391.78	1013.45
391.97	858.98
392.16	943.24
392.36	992.39
392.55	994.73
392.75	983.02
392.94	966.64
393.13	1039.20
393.33	938.55
393.52	973.66
393.71	1029.84
393.91	1027.50
394.10	1046.22
394.29	1165.59
394.49	1064.94
394.68	1095.37
394.88	1081.33
395.07	1118.78
395.26	973.66
395.46	1104.73
395.65	1074.31
395.84	1123.46
396.04	1144.52
396.23	1132.82
396.42	1116.44
396.62	1165.59
396.81	1191.33
397.00	1144.52
397.19	1083.67
397.39	1181.97
397.58	1139.84
397.77	1205.38
397.97	1233.46
398.16	1320.06
398.35	1320.06
398.55	1273.25
398.74	1334.11
398.93	1329.42
399.12	1282.61
399.32	1252.19
399.51	1273.25
399.70	1343.47
399.90	1409.00
400.09	1343.47
400.28	1397.30
400.47	1284.95
400.67	1401.98
400.86	1397.30
401.05	1446.45
401.24	1399.64
401.44	1502.62
401.63	1519.01
401.82	1451.13
402.01	1537.73
402.21	1467.52
402.40	1500.28
402.59	1511.99
402.78	1479.22
402.97	1502.62
403.17	1561.14
403.36	1600.93
403.55	1568.16
403.74	1579.86
403.93	1659.44
404.13	1598.59
404.32	1617.31
404.51	1626.67
404.70	1645.40
404.89	1577.52
405.09	1657.10
405.28	1652.42
405.47	1710.93
405.66	1724.97
405.85	1724.97
406.05	1687.53
406.24	1837.32
406.43	1682.85
406.62	1748.38
406.81	1797.53
407.00	1741.36
407.20	1717.95
407.39	1816.26
407.58	1842.00
407.77	1926.26
407.96	1858.39
408.15	1865.41
408.34	1858.39
408.54	1944.99
408.73	2019.88
408.92	1980.09
409.11	2062.01
409.30	2038.61
409.49	2003.50
409.68	1991.80
409.87	2001.16
410.07	2139.25
410.26	2062.01
410.45	2033.93
410.64	2099.46
410.83	2050.31
411.02	2143.93
411.21	2150.95
411.40	2179.04
411.59	2310.11
411.78	2230.53
411.98	2312.45
412.17	2235.21
412.36	2361.60
412.55	2354.58
412.74	2385.01
412.93	2399.05
413.12	2303.09
413.31	2410.75
413.50	2436.50
413.69	2436.50
413.88	2518.42
414.07	2476.29
414.26	2525.44
414.45	2551.18
414.64	2518.42
414.83	2658.85
415.02	2605.02
415.22	2736.09
415.41	2726.72
415.60	2696.30
415.79	2876.52
415.98	2761.83
416.17	2775.88
416.36	2766.51
416.55	2801.62
416.74	2759.49
416.93	2946.73
417.12	2818.00
417.31	2904.60
417.50	3021.63
417.69	3019.29
417.88	2963.12
418.07	3005.25
418.26	3009.93
418.45	3040.36
418.64	3049.72
418.83	3084.83
419.02	3183.13
419.21	3150.36
419.39	3073.12
419.58	3108.23
419.77	2995.89
419.96	3148.02
420.15	3192.49
420.34	3208.87
420.53	3328.24
420.72	3361.01
420.91	3311.86
421.10	3353.99
421.29	3414.84
421.48	3267.39
421.67	3325.90
421.86	3225.26
422.05	3297.81
422.24	3258.03
422.43	3449.95
422.61	3379.73
422.80	3471.01
422.99	3368.03
423.18	3508.46
423.37	3632.51
423.56	3403.14
423.75	3311.86
423.94	3447.61
424.13	3218.24
424.32	3414.84
424.50	3471.01
424.69	3543.57
424.88	3611.45
425.07	3489.74
425.26	3407.82
425.45	3442.93
425.64	3398.46
425.83	3480.38
426.01	3499.10
426.20	3566.98
426.39	3377.39
426.58	3531.87
426.77	3524.85
426.96	3503.78
427.15	3478.04
427.33	3531.87
427.52	3599.74
427.71	3676.98
427.90	3672.30
428.09	3691.02
428.28	3634.85
428.46	3665.28
428.65	3721.45
428.84	3789.33
429.03	3836.14
429.22	3749.54
429.40	3772.94
429.59	3669.96
429.78	3641.87
429.97	3592.72
430.16	3597.40
430.34	3707.41
430.53	3861.88
430.72	3889.97
430.91	3859.54
431.10	3880.61
431.28	3786.99
431.47	4072.53
431.66	4145.09
431.85	4074.87
432.03	3988.27
432.22	4009.34
432.41	4063.17
432.60	4025.72
432.79	4011.68
432.97	4257.43
433.16	4107.64
433.35	4107.64
433.54	4117.00
433.72	4102.96
433.91	4124.02
434.10	4133.39
434.28	4215.30
434.47	4250.41
434.66	4252.75
434.85	4472.76
435.03	4351.06
435.22	4355.74
435.41	4489.15
435.59	4461.06
435.78	4437.66
435.97	4390.84
436.16	4437.66
436.34	4451.70
436.53	4542.98
436.72	4702.14
436.90	4383.82
437.09	4601.49
437.28	4365.10
437.46	4503.19
437.65	4540.64
437.84	4657.67
438.02	4615.54
438.21	4624.90
438.40	4571.07
438.58	4793.42
438.77	4903.42
438.96	4781.71
439.14	4856.61
439.33	5041.51
439.52	4973.64
439.70	5032.15
439.89	4910.44
440.08	5114.07
440.26	5170.24
440.45	5069.60
440.63	5085.98
440.82	5275.57
441.01	5331.74
441.19	5198.33
441.38	5294.29
441.57	5310.68
441.75	5511.96
441.94	5451.11
442.12	5507.28
442.31	5612.60
442.50	5434.72
442.68	5708.57
442.87	5455.79
443.05	5643.03
443.24	5643.03
443.43	5673.46
443.61	5685.16
443.80	5652.39
443.98	5518.98
444.17	5336.42
444.35	5385.57
444.54	5713.25
444.73	5783.46
444.91	5666.44
445.10	5804.53
445.28	5729.63
445.47	5628.99
445.65	5516.64
445.84	5708.57
446.02	5673.46
446.21	5781.12
446.39	5706.23
446.58	5987.09
446.77	5926.24
446.95	5628.99
447.14	5696.86
447.32	5984.75
447.51	5928.58
447.69	5856.02
447.88	5844.32
448.06	5909.85
448.25	5921.56
448.43	6022.20
448.62	5841.98
448.80	5881.77
448.99	5919.21
449.17	5919.21
449.36	5926.24
449.54	6099.44
449.73	6181.35
449.91	6307.74
450.10	6300.72
450.28	6256.25
450.46	6031.56
450.65	6417.75
450.83	6237.53
451.02	6190.72
451.20	6284.34
451.39	6293.70
451.57	6326.47
451.76	6296.04
451.94	6200.08
452.13	6333.49
452.31	6340.51
452.49	6305.40
452.68	6450.52
452.86	6218.80
453.05	6354.55
453.23	6361.58
453.42	6539.46
453.60	6338.17
453.78	6502.01
453.97	6331.15
454.15	6445.84
454.34	6422.43
454.52	6590.95
454.70	6476.26
454.89	6560.52
455.07	6738.40
455.26	6684.57
455.44	6825.00
455.62	6740.74
455.81	6668.19
455.99	6820.32
456.17	6771.17
456.36	7042.67
456.54	6906.92
456.73	6946.71
456.91	6998.20
457.09	7002.88
457.28	6967.77
457.46	7087.14
457.64	7126.93
457.83	7000.54
458.01	6888.20
458.19	7246.30
458.38	7187.79
458.56	7344.60
458.74	7344.60
458.93	7155.02
459.11	7199.49
459.29	7330.56
459.48	7405.46
459.66	7314.17
459.84	7419.50
460.03	7522.48
460.21	7339.92
460.39	7508.44
460.57	7386.73
460.76	7658.23
460.94	7520.14
461.12	7428.86
461.31	7529.50
461.49	7632.49
461.67	7616.10
461.85	7887.61
462.04	7550.57
462.22	8154.43
462.40	7782.28
462.59	7782.28
462.77	7887.61
462.95	7824.41
463.13	7833.77
463.32	7829.09
463.50	7801.01
463.68	7913.35
463.86	7953.14
464.05	7988.25
464.23	7756.54
464.41	8058.46
464.59	7969.52
464.78	8133.36
464.96	7960.16
465.14	7948.46
465.32	8154.43
465.50	8109.96
465.69	8119.32
465.87	8077.19
466.05	8184.85
466.23	8182.51
466.41	8393.16
466.60	8271.45
466.78	8194.22
466.96	8156.77
467.14	8086.55
467.32	8299.54
467.51	8557.00
467.69	8212.94
467.87	8276.13
468.05	8414.23
468.23	8407.20
468.41	8325.29
468.60	8353.37
468.78	8547.64
468.96	8306.56
469.14	8540.61
469.32	8615.51
469.50	8393.16
469.69	8645.94
469.87	8795.73
470.05	8603.81
470.23	8760.63
470.41	8734.88
470.59	8828.50
470.77	8652.96
470.95	8865.95
471.14	8924.46
471.32	8741.90
471.50	9041.49
471.68	9029.79
471.86	9146.81
472.04	9149.15
472.22	9401.93
472.40	9048.51
472.58	9118.73
472.77	9186.60
472.95	9320.01
473.13	9575.13
473.31	9554.07
473.49	9413.63
473.67	9348.10
473.85	9359.80
474.03	9720.24
474.21	9582.15
474.39	9678.12
474.57	9863.02
474.75	9783.44
474.93	9984.73
475.12	9928.55
475.30	10061.96
475.48	10186.01
475.66	10141.54
475.84	10029.20
476.02	10181.33
476.20	10326.44
476.38	10281.97
476.56	10710.29
476.74	10462.19
476.92	10380.28
477.10	10532.41
477.28	10574.54
477.46	10895.19
477.64	10497.30
477.82	11033.29
478.00	11218.19
478.18	11227.55
478.36	11302.45
478.54	11452.24
478.72	11569.27
478.90	11412.45
479.08	11632.46
479.26	11616.08
479.44	11623.10
479.62	11800.98
479.80	11812.68
479.98	11660.55
480.16	12173.13
480.34	11992.90
480.52	12133.34
480.70	12044.40
480.88	12093.55
481.06	12528.89
481.24	12287.81
481.41	12594.42
481.59	12830.82
481.77	12779.32
481.95	12699.75
482.13	13050.83
482.31	12702.09
482.49	13500.21
482.67	13495.53
482.85	13212.32
483.03	13380.84
483.21	13792.78
483.39	13860.65
483.57	13912.14
483.74	14188.33
483.92	14066.62
484.10	13853.63
484.28	14249.18
484.46	14476.21
484.64	14794.53
484.82	14361.53
485.00	14448.13
485.18	14649.41
485.35	14850.70
485.53	14565.15
485.71	14675.16
485.89	15178.37
486.07	14862.40
486.25	14974.75
486.43	15311.78
486.61	15372.64
486.78	15594.99
486.96	15648.82
487.14	15988.20
487.32	15777.55
487.50	16257.36
487.68	16535.88
487.85	16524.18
488.03	16837.81
488.21	16800.37
488.39	16713.77
488.57	16833.13
488.75	17149.11
488.92	17404.22
489.10	17713.17
489.28	17465.08
489.46	17790.41
489.64	17516.57
489.81	18043.19
489.99	18178.94
490.17	18293.63
490.35	18270.22
490.53	18293.63
490.70	18431.72
490.88	18380.23
491.06	18609.60
491.24	18822.59
491.41	18558.11
491.59	18820.25
491.77	18881.10
491.95	19166.65
492.13	19026.21
492.30	19653.48
492.48	19494.32
492.66	19506.02
492.84	19613.69
493.01	19978.81
493.19	19758.80
493.37	20107.54
493.54	20308.83
493.72	20327.55
493.90	20243.29
494.08	20594.37
494.25	20819.07
494.43	20594.37
494.61	20849.49
494.79	21032.05
494.96	20863.54
495.14	20943.11
495.32	21308.24
495.49	21448.67
495.67	21528.25
495.85	21589.10
496.02	21591.44
496.20	22040.82
496.38	21891.03
496.55	22036.14
496.73	22602.55
496.91	22228.07
497.09	22548.72
497.26	22801.50
497.44	22398.93
497.62	22754.69
497.79	22878.74
497.97	23232.16
498.14	23342.16
498.32	23302.37
498.50	23508.34
498.67	23264.92
498.85	23541.11
499.03	23859.42
499.20	23723.67
499.38	23850.06
499.56	23981.13
499.73	24009.22
499.91	24067.73
500.08	24273.70
500.26	24236.25
500.44	24575.62
500.61	24133.26
500.79	24247.95
500.97	24683.29
501.14	24999.26
501.32	24823.72
501.49	24690.31
501.67	24936.07
501.84	25205.23
502.02	24919.68
502.20	25443.96
502.37	25017.99
502.55	25296.51
502.72	25741.21
502.90	25511.84
503.07	25722.49
503.25	25378.43
503.43	25535.24
503.60	25781.00
503.78	25411.20
503.95	25853.56
504.13	25972.92
504.30	26223.36
504.48	25869.94
504.65	26522.95
504.83	26347.41
505.01	26644.66
505.18	26307.62
505.36	26632.96
505.53	26778.07
505.71	26733.60
505.88	26974.67
506.06	26719.56
506.23	26841.26
506.41	26775.73
506.58	27295.33
506.76	27288.31
506.93	27442.78
507.11	27250.86
507.28	27445.12
507.46	27129.15
507.63	27587.89
507.81	27737.69
507.98	27686.20
508.16	27899.19
508.33	27744.71
508.50	28194.09
508.68	28142.60
508.85	28086.43
509.03	27964.72
509.20	28634.11
509.38	28442.19
509.55	28437.51
509.73	28498.36
509.90	28283.03
510.08	28704.33
510.25	28694.97
510.42	28481.98
510.60	28842.42
510.77	29216.91
510.95	29362.02
511.12	29092.86
511.30	29156.05
511.47	29764.59
511.64	29441.60
511.82	29556.28
511.99	29799.70
512.17	29675.65
512.34	29862.90
512.51	30068.86
512.69	29965.88
512.86	29874.60
513.04	30654.00
513.21	29823.11
513.38	30600.16
513.56	30125.04
513.73	30452.71
513.90	30576.76
514.08	30319.30
514.25	30731.23
514.43	30342.70
514.60	30628.25
514.77	30707.83
514.95	30820.17
515.12	30551.01
515.29	31063.59
515.47	31131.47
515.64	31344.45
515.81	31124.44
515.99	31040.18
516.16	30726.55
516.33	31194.66
516.51	31346.79
516.68	31173.60
516.85	31054.23
517.03	31192.32
517.20	31622.98
517.37	31749.37
517.54	31875.76
517.72	31742.35
517.89	31770.43
518.06	31566.81
518.24	31887.46
518.41	31501.27
518.58	32070.02
518.75	31662.77
518.93	31859.37
519.10	32376.63
519.27	32481.95
519.45	32442.17
519.62	32545.15
519.79	32943.04
519.96	32467.91
520.14	33343.27
520.31	32966.45
520.48	33097.52
520.65	32629.41
520.83	32919.63
521.00	33282.42
521.17	33193.48
521.34	33251.99
521.52	33619.46
521.69	33577.33
521.86	33560.94
522.03	33460.30
522.20	33935.43
522.38	33806.70
522.55	34110.97
522.72	33804.36
522.89	33954.15
523.07	34017.35
523.24	34050.11
523.41	33928.41
523.58	33795.00
523.75	34405.88
523.92	34249.06
524.10	34440.98
524.27	34227.99
524.44	34600.14
524.61	34433.96
524.78	34536.94
524.96	34855.26
525.13	35056.54
525.30	35297.62
525.47	35002.71
525.64	35058.88
525.81	35171.23
525.98	34965.26
526.16	35133.78
526.33	34649.29
526.50	35206.34
526.67	34979.31
526.84	35049.52
527.01	35037.82
527.18	35550.40
527.36	35332.73
527.53	35615.93
527.70	35798.49
527.87	35852.33
528.04	35756.36
528.21	35772.75
528.38	35721.26
528.55	36126.17
528.72	35789.13
528.89	36140.21
529.07	35967.01
529.24	36189.36
529.41	36084.04
529.58	35917.86
529.75	36233.83
529.92	36231.49
530.09	36130.85
530.26	36158.94
530.43	36477.25
530.60	36006.80
530.77	36147.23
530.94	36725.35
531.11	36627.04
531.28	36776.84
531.46	37083.45
531.63	36800.24
531.80	36804.92
531.97	36781.52
532.14	36690.24
532.31	36561.51
532.48	36844.71
532.65	37275.37
532.82	37062.38
532.99	37345.59
533.16	37207.50
533.33	37446.23
533.50	37897.95
533.67	37331.54
533.84	36849.39
534.01	36971.10
534.18	37219.20
534.35	37958.81
534.52	37251.97
534.69	37270.69
534.86	37954.13
535.03	37574.96
535.20	37706.03
535.37	37879.23
535.54	37556.24
535.71	37607.73
535.88	37720.07
536.05	37951.79
536.22	38068.81
536.38	38534.58
536.55	37546.87
536.72	38431.60
536.89	38010.30
537.06	37511.77
537.23	38525.22
537.40	38204.56
537.57	38223.29
537.74	38597.77
537.91	38438.62
538.08	38880.98
538.25	37965.83
538.42	38410.53
538.59	38752.25
538.75	38174.14
538.92	38574.37
539.09	38960.56
539.26	38478.41
539.43	38841.19
539.60	38988.64
539.77	38768.63
539.94	38927.79
540.11	39122.05
540.28	38918.43
540.44	38756.93
540.61	38848.21
540.78	38951.20
540.95	38703.10
541.12	39136.10
541.29	39005.03
541.46	39391.22
541.62	39456.75
541.79	39775.06
541.96	39239.08
542.13	39484.84
542.30	39639.31
542.47	39276.53
542.63	39646.33
542.80	39831.24
542.97	40240.83
543.14	40037.20
543.31	40315.73
543.48	40245.51
543.64	40442.12
543.81	40266.58
543.98	40257.21
544.15	40257.21
544.32	40348.50
544.48	40535.74
544.65	40383.60
544.82	40172.96
544.99	39995.07
545.16	40350.84
545.32	40149.55
545.49	40507.65
545.66	40610.64
545.83	40758.09
546.00	40582.55
546.16	40727.66
546.33	40961.72
546.50	40371.90
546.67	40624.68
546.83	40402.33
547.00	40959.38
547.17	40540.42
547.34	41120.87
547.50	40713.62
547.67	40931.29
547.84	41551.53
548.00	41303.43
548.17	41591.32
548.34	41137.26
548.51	41509.40
548.67	41745.80
548.84	41020.23
549.01	40931.29
549.18	41235.56
549.34	41301.09
549.51	41528.13
549.68	41471.95
549.84	41378.33
550.01	41748.14
550.18	41556.21
550.34	41331.52
550.51	41471.95
550.68	41354.93
550.84	40793.20
551.01	41591.32
551.18	41586.64
551.34	41507.06
551.51	41736.43
551.68	41851.12
551.84	41839.42
552.01	41464.93
552.18	42155.39
552.34	41560.89
552.51	41748.14
552.68	41764.52
552.84	42019.64
553.01	42642.22
553.18	41968.15
553.34	42185.82
553.51	41521.10
553.67	41846.44
553.84	42494.77
554.01	42157.73
554.17	42543.92
554.34	42377.74
554.51	42497.11
554.67	42150.71
554.84	42454.98
555.00	42024.32
555.17	42092.19
555.33	42340.29
555.50	42497.11
555.67	42359.02
555.83	42579.03
556.00	42459.66
556.16	42951.17
556.33	42499.45
556.50	42323.91
556.66	42618.81
556.83	42354.33
556.99	42656.26
557.16	42738.18
557.32	42555.62
557.49	42885.64
557.65	42550.94
557.82	42906.70
557.98	42735.84
558.15	42712.44
558.32	42768.61
558.48	42401.14
558.65	42780.31
558.81	42930.11
558.98	42972.24
559.14	42918.40
559.31	43079.90
559.47	42590.73
559.64	43585.46
559.80	43089.26
559.97	43269.48
560.13	42878.61
560.30	43257.78
560.46	43269.48
560.63	43033.09
560.79	43587.80
560.96	43070.54
561.12	43241.40
561.29	43208.63
561.45	42967.55
561.61	43098.62
561.78	43505.88
561.94	42969.90
562.11	43208.63
562.27	43370.13
562.44	42988.62
562.60	43796.10
562.77	43222.67
562.93	43047.13
563.10	43784.40
563.26	43377.15
563.42	43770.36
563.59	43339.70
563.75	43590.14
563.92	43372.47
564.08	43800.79
564.24	43611.20
564.41	43880.36
564.57	43655.67
564.74	43679.08
564.90	43922.49
565.07	43660.35
565.23	43423.96
565.39	43625.25
565.56	43606.52
565.72	43697.80
565.88	43318.64
566.05	43529.28
566.21	43629.93
566.38	43704.82
566.54	43845.26
566.70	44098.03
566.87	44100.37
567.03	43761.00
567.19	44079.31
567.36	43608.86
567.52	43938.88
567.68	43683.76
567.85	44046.54
568.01	43374.81
568.17	43578.43
568.34	44044.20
568.50	43999.73
568.66	43601.84
568.83	43805.47
568.99	43552.69
569.15	43817.17
569.32	43456.73
569.48	43805.47
569.64	44081.65
569.81	44299.32
569.97	44091.01
570.13	43566.73
570.30	43796.10
570.46	43648.65
570.62	43667.37
570.78	43438.00
570.95	43751.63
571.11	43831.21
571.27	43950.58
571.43	43800.79
571.60	43901.43
571.76	44285.28
571.92	43988.03
572.09	44058.24
572.25	44037.18
572.41	43981.01
572.57	44062.93
572.74	44229.10
572.90	44032.50
573.06	43866.32
573.22	44268.89
573.38	44086.33
573.55	44395.28
573.71	44306.34
573.87	44357.83
574.03	44058.24
574.20	43735.25
574.36	44069.95
574.52	44069.95
574.68	44058.24
574.84	44397.62
575.01	44416.35
575.17	44151.87
575.33	43810.15
575.49	44079.31
575.65	44402.30
575.82	44491.24
575.98	44041.86
576.14	43983.35
576.30	44421.03
576.46	43700.14
576.62	44020.80
576.79	44067.61
576.95	43990.37
577.11	44135.48
577.27	43936.54
577.43	44055.90
577.59	44301.66
577.75	44467.84
577.92	43772.70
578.08	43966.96
578.24	43896.75
578.40	44179.95
578.56	44065.27
578.72	44329.75
578.88	44332.09
579.04	44100.37
579.21	44053.56
579.37	44083.99
579.53	43737.59
579.69	44037.18
579.85	44046.54
580.01	44301.66
580.17	44444.43
580.33	44713.59
580.49	44170.59
580.65	44596.57
580.82	44318.04
580.98	44495.92
581.14	44044.20
581.30	44353.15
581.46	44533.37
581.62	44421.03
581.78	44250.17
581.94	44432.73
582.10	44732.32
582.26	44243.15
582.42	44589.55
582.58	44322.72
582.74	44219.74
582.90	43990.37
583.06	44542.74
583.22	44378.90
583.38	44383.58
583.54	44388.26
583.70	44212.72
583.86	44165.91
584.02	44285.28
584.18	44823.60
584.34	44186.97
584.50	44502.95
584.66	44210.38
584.82	44186.97
584.98	44706.57
585.14	44280.60
585.30	44313.36
585.46	44229.10
585.62	44355.49
585.78	44837.64
585.94	43929.51
586.10	44236.12
586.26	44191.65
586.42	44889.13
586.58	44423.37
586.74	44435.07
586.90	44488.90
587.06	44280.60
587.22	44676.15
587.38	43959.94
587.54	45055.31
587.70	44790.83
587.86	44257.19
588.02	44444.43
588.18	44662.10
588.34	44126.12
588.49	44081.65
588.65	44067.61
588.81	44175.27
588.97	44109.74
589.13	44184.63
589.29	43782.06
589.45	44690.19
589.61	44535.71
589.77	44706.57
589.93	44531.03
590.08	44430.39
590.24	44746.36
590.40	44481.88
590.56	44638.70
590.72	44664.44
590.88	44259.53
591.04	44727.64
591.20	44327.41
591.35	44772.11
591.51	44598.91
591.67	44767.43
591.83	44945.31
591.99	44224.42
592.15	44311.02
592.31	44732.32
592.46	44282.94
592.62	44753.38
592.78	45036.59
592.94	45179.36
593.10	44495.92
593.26	44673.81
593.41	44790.83
593.57	44545.08
593.73	44402.30
593.89	44699.55
594.05	44641.04
594.20	44521.67
594.36	45113.83
594.52	44821.26
594.68	44711.25
594.84	44851.69
594.99	44772.11
595.15	44437.41
595.31	44765.09
595.47	44849.35
595.62	44821.26
595.78	44839.98
595.94	44739.34
596.10	45251.92
596.25	45371.28
596.41	44818.92
596.57	44746.36
596.73	45249.58
596.88	45020.20
597.04	45081.06
597.20	44336.77
597.36	44994.46
597.51	44636.36
597.67	44910.20
597.83	44615.29
597.99	45144.25
598.14	44868.07
598.30	44655.08
598.46	44519.33
598.61	44893.82
598.77	44701.89
598.93	45296.39
599.09	44725.30
599.24	45312.77
599.40	45214.47
599.56	45179.36
599.71	44818.92
599.87	45272.98
600.03	44439.75
600.18	44832.96
600.34	44484.22
600.50	45102.12
600.65	44942.97
600.81	44917.22
600.97	45359.58
601.12	45195.74
601.28	45324.47
601.44	45062.33
601.59	44854.03
601.75	44233.78
601.91	44589.55
602.06	44842.32
602.22	44971.05
602.37	44863.39
602.53	44842.32
602.69	45092.76
602.84	44568.48
603.00	44638.70
603.16	44760.40
603.31	44495.92
603.47	45104.46
603.62	44458.48
603.78	44603.59
603.94	44793.17
604.09	44762.75
604.25	44786.15
604.40	44446.77
604.56	44954.67
604.71	44926.58
604.87	44957.01
605.03	44802.53
605.18	44666.78
605.34	44737.00
605.49	44603.59
605.65	44758.06
605.80	44975.73
605.96	44657.42
606.12	44470.18
606.27	45055.31
606.43	44666.78
606.58	44811.90
606.74	44631.68
606.89	44690.19
607.05	44472.52
607.20	44786.15
607.36	44959.35
607.51	44823.60
607.67	44982.76
607.82	44861.05
607.98	44924.24
608.13	44638.70
608.29	44563.80
608.44	43882.70
608.60	43714.19
608.75	44266.55
608.91	44208.04
609.06	44058.24
609.22	44722.96
609.37	44390.60
609.53	44561.46
609.68	44650.40
609.84	44226.76
609.99	44676.15
610.15	44594.23
610.30	44451.45
610.46	44285.28
610.61	44788.49
610.76	44294.64
610.92	44657.42
611.07	44332.09
611.23	44402.30
611.38	44102.71
611.54	44313.36
611.69	44257.19
611.84	44215.06
612.00	44362.51
612.15	44236.12
612.31	44184.63
612.46	43791.42
612.62	44753.38
612.77	43775.04
612.92	44629.34
613.08	43718.87
613.23	44067.61
613.39	43737.59
613.54	43461.41
613.69	43807.81
613.85	44060.58
614.00	44189.31
614.15	43590.14
614.31	44027.82
614.46	44109.74
614.62	43688.44
614.77	44030.16
614.92	44002.07
615.08	44069.95
615.23	43566.73
615.38	43880.36
615.54	43461.41
615.69	43430.98
615.84	43250.76
616.00	43927.17
616.15	43533.96
616.30	43770.36
616.46	43597.16
616.61	43882.70
616.76	43585.46
616.92	43229.69
617.07	43604.18
617.22	43328.00
617.37	43374.81
617.53	43779.72
617.68	43313.95
617.83	43594.82
617.99	43468.43
618.14	43304.59
618.29	43381.83
618.45	43173.52
618.60	43110.33
618.75	43459.07
618.90	43189.91
619.06	43611.20
619.21	43033.09
619.36	43475.45
619.51	43552.69
619.67	43014.37
619.82	43248.42
619.97	43405.23
620.12	43548.01
620.28	42756.91
620.43	43189.91
620.58	43187.56
620.73	43316.29
620.89	43007.34
621.04	42934.79
621.19	42902.02
621.34	42588.39
621.49	42721.80
621.65	42852.87
621.80	43269.48
621.95	42780.31
622.10	43173.52
622.25	42651.58
622.41	42632.86
622.56	42366.04
622.71	43124.37
622.86	42859.89
623.01	42871.59
623.16	42993.30
623.32	42836.48
623.47	42738.18
623.62	42806.06
623.77	42836.48
623.92	42466.68
624.07	42564.98
624.23	42440.93
624.38	42094.53
624.53	42431.57
624.68	42600.09
624.83	42644.56
624.98	42295.82
625.13	42663.28
625.29	41998.57
625.44	42122.62
625.59	42415.19
625.74	41867.50
625.89	41640.47
626.04	41799.63
626.19	42122.62
626.34	42422.21
626.49	41694.30
626.65	42281.78
626.80	42101.56
626.95	42050.06
627.10	41794.95
627.25	41633.45
627.40	41331.52
627.55	41062.36
627.70	41577.28
627.85	41612.38
628.00	41783.24
628.15	41982.19
628.30	41858.14
628.45	41722.39
628.60	41352.58
628.76	41717.71
628.91	41558.55
629.06	41904.95
629.21	41493.02
629.36	41223.86
629.51	41813.67
629.66	41177.04
629.81	41003.85
629.96	41048.32
630.11	41317.48
630.26	41581.96
630.41	41413.44
630.56	41282.37
630.71	41200.45
630.86	41158.32
631.01	41219.17
631.16	40840.01
631.31	41071.72
631.46	40741.71
631.61	41006.19
631.76	40950.01
631.91	41422.80
632.06	40994.48
632.21	41045.97
632.36	41397.06
632.51	41249.60
632.66	41219.17
632.81	40767.45
632.96	40779.15
633.10	40954.69
633.25	40575.53
633.40	40650.42
633.55	40832.99
633.70	40886.82
633.85	40643.40
634.00	40697.24
634.15	40814.26
634.30	40598.93
634.45	40556.80
634.60	40563.82
634.75	40699.58
634.90	40329.77
635.05	40556.80
635.19	40509.99
635.34	41130.23
635.49	40849.37
635.64	40362.54
635.79	40224.45
635.94	40900.86
636.09	40231.47
636.24	40528.72
636.39	40156.57
636.53	40130.83
636.68	39859.32
636.83	40140.19
636.98	40755.75
637.13	39866.34
637.28	40311.05
637.43	40638.72
637.57	40191.68
637.72	40224.45
637.87	39842.94
638.02	40093.38
638.17	39990.39
638.32	39906.13
638.46	39716.55
638.61	40203.38
638.76	39351.43
638.91	39564.42
639.06	39716.55
639.20	39751.66
639.35	40236.15
639.50	39620.59
639.65	40194.02
639.80	40311.05
639.94	39866.34
640.09	39959.97
640.24	38878.64
640.39	39325.68
640.54	39833.58
640.68	39239.08
640.83	39845.28
640.98	39812.51
641.13	39304.62
641.27	39875.71
641.42	39555.05
641.57	39288.23
641.72	39210.99
641.86	39222.70
642.01	39159.50
642.16	39002.69
642.31	38778.00
642.45	39686.12
642.60	38675.01
642.75	38937.15
642.90	39185.25
643.04	38951.20
643.19	39353.77
643.34	39082.27
643.48	39309.30
643.63	39227.38
643.78	38979.28
643.93	38782.68
644.07	38990.98
644.22	38862.26
644.37	38464.36
644.51	38763.95
644.66	39016.73
644.81	38831.83
644.95	38843.53
645.10	39203.97
645.25	38590.75
645.39	38848.21
645.54	38855.23
645.69	38759.27
645.83	38511.17
645.98	39129.08
646.13	39033.11
646.27	38836.51
646.42	38202.22
646.57	38607.14
646.71	38354.36
646.86	38204.56
647.00	38604.80
647.15	38738.21
647.30	38906.73
647.44	38447.98
647.59	38518.20
647.74	38693.74
647.88	38415.21
648.03	38246.69
648.17	38075.84
648.32	38244.35
648.47	38330.95
648.61	38211.59
648.76	38232.65
648.90	38108.60
649.05	38141.37
649.20	38419.89
649.34	38394.15
649.49	38368.40
649.63	38293.50
649.78	38366.06
649.92	37893.27
650.07	38918.43
650.21	37691.99
650.36	38511.17
650.51	38433.94
650.65	38007.96
650.80	38014.98
650.94	38099.24
651.09	38167.12
651.23	37528.15
651.38	37509.43
651.52	37436.87
651.67	38047.75
651.81	37605.39
651.96	37413.46
652.10	37418.14
652.25	37823.06
652.39	37794.97
652.54	37593.68
652.68	37813.70
652.83	37717.73
652.97	37790.29
653.12	37132.60
653.26	37471.98
653.41	37776.25
653.55	37603.05
653.70	37130.26
653.84	37853.48
653.99	37687.31
654.13	37518.79
654.27	37408.78
654.42	37415.80
654.56	37418.14
654.71	37411.12
654.85	37376.01
655.00	37453.25
655.14	37186.43
655.29	36484.27
655.43	37095.15
655.57	36790.88
655.72	36535.76
655.86	36669.17
656.01	37106.85
656.15	36804.92
656.30	36601.30
656.44	37020.25
656.58	36835.35
656.73	36587.25
656.87	36708.96
657.01	36416.40
657.16	36760.45
657.30	36435.12
657.45	36484.27
657.59	36517.04
657.73	36662.15
657.88	36758.11
658.02	36657.47
658.16	36921.95
658.31	37020.25
658.45	36715.98
658.60	36800.24
658.74	36060.63
658.88	36428.10
659.03	36271.28
659.17	36126.17
659.31	36650.45
659.46	35894.46
659.60	36320.43
659.74	36395.33
659.89	36341.50
660.03	35868.71
660.17	36275.96
660.32	35941.27
660.46	36477.25
660.60	36095.74
660.74	35929.56
660.89	35845.30
661.03	35622.95
661.17	35498.91
661.32	35358.47
661.46	35700.19
661.60	35590.19
661.74	35718.92
661.89	35454.44
662.03	35871.05
662.17	35302.30
662.31	34911.43
662.46	35613.59
662.60	35505.93
662.74	35002.71
662.88	35196.98
663.03	35611.25
663.17	35103.35
663.31	35171.23
663.45	35239.11
663.60	35248.47
663.74	34761.64
663.88	34705.46
664.02	34864.62
664.17	35000.37
664.31	34518.22
664.45	34698.44
664.59	34866.96
664.73	34532.26
664.88	34740.57
665.02	34520.56
665.16	34455.03
665.30	34293.53
665.44	34382.47
665.59	33923.72
665.73	34038.41
665.87	34031.39
666.01	33790.31
666.15	34190.55
666.29	33764.57
666.44	34169.48
666.58	34366.09
666.72	34389.49
666.86	34066.50
667.00	34010.32
667.14	33713.08
667.28	33493.07
667.43	33350.29
667.57	33453.28
667.71	33455.62
667.85	33752.87
667.99	33308.16
668.13	32966.45
668.27	33352.63
668.41	33523.49
668.56	32624.73
668.70	32943.04
668.84	33006.23
668.98	32905.59
669.12	33184.12
669.26	33053.05
669.40	33165.39
669.54	33071.77
669.68	33160.71
669.82	32964.10
669.96	32369.61
670.10	32847.08
670.25	32374.29
670.39	32795.59
670.53	32477.27
670.67	32283.01
670.81	32259.60
670.95	32671.54
671.09	32741.75
671.23	32505.36
671.37	32739.41
671.51	32397.70
671.65	31866.39
671.79	31754.05
671.93	32088.74
672.07	32088.74
672.21	31835.97
672.35	31606.59
672.49	31655.75
672.63	31985.76
672.77	31866.39
672.91	31562.12
673.05	31304.67
673.19	31503.61
673.33	31335.09
673.47	31274.24
673.61	31124.44
673.75	30836.56
673.89	30754.64
674.03	31201.68
674.17	30628.25
674.31	30745.28
674.45	30574.42
674.59	30600.16
674.73	31147.85
674.87	30756.98
675.01	30756.98
675.15	30714.85
675.29	30333.34
675.43	30295.89
675.56	30565.06
675.70	30335.68
675.84	29956.52
675.98	29516.50
676.12	29841.83
676.26	30167.16
676.40	29631.18
676.54	30136.74
676.68	29797.36
676.82	29116.26
676.96	29621.82
677.10	29673.31
677.23	29259.04
677.37	29364.36
677.51	29291.80
677.65	29331.59
677.79	28631.77
677.93	28781.57
678.07	28814.34
678.21	28376.66
678.34	28416.44
678.48	28414.10
678.62	28343.89
678.76	28240.90
678.90	28133.24
679.04	27950.68
679.18	28329.84
679.31	27850.03
679.45	27990.47
679.59	27704.92
679.73	27632.36
679.87	27550.45
680.00	27641.73
680.14	27791.52
680.28	27445.12
680.42	26881.05
680.56	27466.19
680.70	27358.52
680.83	27358.52
680.97	26794.45
681.11	26738.28
681.25	26927.86
681.39	26881.05
681.52	27049.57
681.66	26834.24
681.80	26668.06
681.94	26644.66
682.07	26417.63
682.21	26218.68
682.35	26249.11
682.49	26263.15
682.62	26462.10
682.76	25804.41
682.90	26059.52
683.04	25876.96
683.17	26181.23
683.31	25668.66
683.45	25769.30
683.59	25528.22
683.72	25380.77
683.86	25113.95
684.00	24980.54
684.13	24929.05
684.27	25376.09
684.41	24987.56
684.55	24706.70
684.68	24809.68
684.82	24851.81
684.96	24549.88
685.09	24552.22
685.23	24290.08
685.37	24346.25
685.50	24467.96
685.64	24088.79
685.78	24325.19
685.91	24266.67
686.05	23798.57
686.19	23403.02
686.32	23861.76
686.46	23747.08
686.60	23108.11
686.73	23309.40
686.87	23522.38
687.01	23442.81
687.14	23445.15
687.28	23126.83
687.42	23058.96
687.55	22902.14
687.69	22869.37
687.82	22647.02
687.96	22754.69
688.10	22684.47
688.23	22719.58
688.37	22284.24
688.50	22677.45
688.64	22242.11
688.78	22122.74
688.91	22125.08
689.05	21921.46
689.18	21940.18
689.32	21680.38
689.46	21806.77
689.59	21848.90
689.73	21949.54
689.86	21961.25
690.00	21727.19
690.13	21575.06
690.27	21727.19
690.41	21275.47
690.54	21074.18
690.68	21296.53
690.81	21287.17
690.95	21118.65
691.08	20685.65
691.22	20893.96
691.35	20978.22
691.49	21366.75
691.62	20678.63
691.76	20641.18
691.89	21064.82
692.03	20273.72
692.16	20304.15
692.30	20112.22
692.43	20257.34
692.57	20107.54
692.70	19910.94
692.84	19779.87
692.97	20002.22
693.11	19721.35
693.24	19456.87
693.38	19290.70
693.51	19115.16
693.65	19688.59
693.78	19304.74
693.92	19288.35
694.05	19183.03
694.19	19105.79
694.32	18951.32
694.45	18937.27
694.59	19077.71
694.72	18745.35
694.86	18897.49
694.99	18401.29
695.13	18246.82
695.26	18539.38
695.39	18200.01
695.53	18469.17
695.66	18588.53
695.80	18160.22
695.93	18087.66
696.07	18054.89
696.20	18038.51
696.33	17614.87
696.47	17860.63
696.60	17724.88
696.73	17764.67
696.87	17685.09
697.00	17486.14
697.14	17631.26
697.27	17296.56
697.40	17242.73
697.54	17294.22
697.67	17415.93
697.80	17181.87
697.94	17242.73
698.07	17025.06
698.21	16877.60
698.34	16896.33
698.47	16617.80
698.61	16545.25
698.74	16589.72
698.87	16472.69
699.01	16341.62
699.14	16360.34
699.27	16514.82
699.40	16121.61
699.54	15974.16
699.67	16304.17
699.80	16226.93
699.94	16011.60
700.07	15941.39
700.20	15981.18
700.34	15955.43
700.47	15899.26
700.60	15719.04
700.73	15702.65
700.87	15580.95
701.00	15051.99
701.13	15377.32
701.26	15087.09
701.40	15112.84
701.53	15236.89
701.66	15211.14
701.79	14963.04
701.93	14827.29
702.06	14707.93
702.19	14953.68
702.32	14871.76
702.46	14827.29
702.59	14855.38
702.72	14834.32
702.85	14490.26
702.99	14609.62
703.12	14848.36
703.25	14345.14
703.38	14511.32
703.51	14413.02
703.65	14279.61
703.78	14061.94
703.91	13919.17
704.04	14122.79
704.17	13886.40
704.31	13645.32
704.44	13617.24
704.57	13699.16
704.70	13745.97
704.83	13565.74
704.96	13282.54
705.10	13490.85
705.23	13528.30
>>>>>End Processed Spectral Data<<<<<
