SpectraSuite Data File
++++++++++++++++++++++++++++++++++++
Date: Fri Oct 25 10:44:01 EDT 2013
User: price-jones
Dark Spectrum Present: No
Reference Spectrum Present: No
Number of Sampled Component Spectra: 1
Spectrometers: USB2+H05261
Integration Time (usec): 100000 (USB2+H05261)
Spectra Averaged: 1 (USB2+H05261)
Boxcar Smoothing: 0 (USB2+H05261)
Correct for Electrical Dark: No (USB2+H05261)
Strobe/Lamp Enabled: No (USB2+H05261)
Correct for Detector Non-linearity: No (USB2+H05261)
Correct for Stray Light: No (USB2+H05261)
Number of Pixels in Processed Spectrum: 2048
>>>>>Begin Processed Spectral Data<<<<<
365.73	117.03
365.92	117.03
366.12	117.03
366.32	16.38
366.52	37.45
366.72	84.26
366.91	14.04
367.11	35.11
367.31	0.00
367.51	7.02
367.70	21.06
367.90	102.98
368.10	65.54
368.30	25.75
368.49	0.00
368.69	56.17
368.89	49.15
369.09	14.04
369.28	51.49
369.48	102.98
369.68	44.47
369.87	121.71
370.07	58.51
370.27	140.43
370.47	177.88
370.66	346.40
370.86	454.06
371.06	456.40
371.25	416.62
371.45	433.00
371.65	524.28
371.84	454.06
372.04	463.43
372.24	477.47
372.44	505.56
372.63	580.45
372.83	486.83
373.03	557.05
373.22	505.56
373.42	557.05
373.62	580.45
373.81	543.00
374.01	573.43
374.21	559.39
374.40	510.24
374.60	578.11
374.79	622.58
374.99	545.34
375.19	592.16
375.38	575.77
375.58	559.39
375.78	688.12
375.97	603.86
376.17	608.54
376.37	629.60
376.56	585.13
376.76	608.54
376.95	592.16
377.15	636.63
377.35	599.18
377.54	697.48
377.74	650.67
377.93	629.60
378.13	648.33
378.33	739.61
378.52	627.26
378.72	629.60
378.91	683.44
379.11	648.33
379.31	685.78
379.50	617.90
379.70	751.31
379.89	676.41
380.09	739.61
380.28	709.18
380.48	765.36
380.68	699.82
380.87	671.73
381.07	681.10
381.26	716.20
381.46	730.25
381.65	674.07
381.85	674.07
382.04	709.18
382.24	678.76
382.43	688.12
382.63	730.25
382.83	723.23
383.02	770.04
383.22	791.10
383.41	704.50
383.61	744.29
383.80	816.85
384.00	753.65
384.19	826.21
384.39	809.83
384.58	833.23
384.78	823.87
384.97	870.68
385.17	842.59
385.36	835.57
385.56	788.76
385.75	849.61
385.95	800.46
386.14	875.36
386.34	828.55
386.53	877.70
386.72	844.93
386.92	793.44
387.11	835.57
387.31	976.00
387.50	823.87
387.70	929.19
387.89	917.49
388.09	950.26
388.28	877.70
388.48	882.38
388.67	1015.79
388.86	917.49
389.06	887.06
389.25	980.68
389.45	973.66
389.64	1027.50
389.84	1027.50
390.03	943.24
390.22	1055.58
390.42	1008.77
390.61	1090.69
390.81	1006.43
391.00	1100.05
391.19	1177.29
391.39	1090.69
391.58	1088.35
391.78	1025.15
391.97	1050.90
392.16	1029.84
392.36	1081.33
392.55	992.39
392.75	1011.11
392.94	1020.47
393.13	1032.18
393.33	985.37
393.52	1018.13
393.71	1139.84
393.91	1167.93
394.10	1142.18
394.29	1160.91
394.49	1179.63
394.68	1277.93
394.88	1238.14
395.07	1352.83
395.26	1284.95
395.46	1235.80
395.65	1196.01
395.84	1160.91
396.04	1320.06
396.23	1196.01
396.42	1163.25
396.62	1111.75
396.81	1238.14
397.00	1163.25
397.19	1235.80
397.39	1303.68
397.58	1341.13
397.77	1441.77
397.97	1554.12
398.16	1488.58
398.35	1467.52
398.55	1490.92
398.74	1437.09
398.93	1561.14
399.12	1708.59
399.32	1465.18
399.51	1493.26
399.70	1603.27
399.90	1647.74
400.09	1633.69
400.28	1652.42
400.47	1633.69
400.67	1720.29
400.86	1664.12
401.05	1729.66
401.24	1727.32
401.44	1762.42
401.63	1781.15
401.82	1769.44
402.01	1811.57
402.21	1923.92
402.40	1724.97
402.59	1804.55
402.78	1727.32
402.97	1818.60
403.17	1797.53
403.36	1884.13
403.55	1935.62
403.74	2031.58
403.93	1825.62
404.13	1940.30
404.32	1982.43
404.51	1830.30
404.70	1973.07
404.89	1916.90
405.09	1991.80
405.28	1984.77
405.47	2003.50
405.66	2015.20
405.85	2064.35
406.05	1928.60
406.24	2057.33
406.43	2008.18
406.62	2165.00
406.81	2176.70
407.00	2052.65
407.20	2153.29
407.39	1959.03
407.58	2239.89
407.77	2246.91
407.96	2363.94
408.15	2303.09
408.34	2197.76
408.54	2293.72
408.73	2277.34
408.92	2417.77
409.11	2335.85
409.30	2403.73
409.49	2406.07
409.68	2265.64
409.87	2279.68
410.07	2422.45
410.26	2452.88
410.45	2410.75
410.64	2530.12
410.83	2422.45
411.02	2487.99
411.21	2724.38
411.40	2679.91
411.59	2733.75
411.78	2602.68
411.98	2663.53
412.17	2850.77
412.36	2759.49
412.55	2766.51
412.74	2764.17
412.93	2740.77
413.12	2726.72
413.31	2810.98
413.50	2897.58
413.69	2883.54
413.88	2970.14
414.07	3030.99
414.26	3033.33
414.45	2946.73
414.64	2988.86
414.83	2995.89
415.02	3190.15
415.22	3190.15
415.41	3229.94
415.60	3330.58
415.79	3246.32
415.98	3339.94
416.17	3251.00
416.36	3302.50
416.55	3375.05
416.74	3438.25
416.93	3353.99
417.12	3353.99
417.31	3445.27
417.50	3386.76
417.69	3440.59
417.88	3543.57
418.07	3510.80
418.26	3545.91
418.45	3655.92
418.64	3674.64
418.83	3733.15
419.02	3686.34
419.21	3749.54
419.39	3672.30
419.58	3637.19
419.77	3588.04
419.96	3810.39
420.15	3784.65
420.34	3826.78
420.53	3770.60
420.72	3815.07
420.91	3960.19
421.10	3868.91
421.29	3868.91
421.48	3751.88
421.67	3798.69
421.86	3838.48
422.05	3810.39
422.24	3791.67
422.43	3908.69
422.61	3971.89
422.80	3964.87
422.99	4102.96
423.18	4081.89
423.37	3988.27
423.56	4023.38
423.75	4018.70
423.94	3999.98
424.13	3700.39
424.32	3913.38
424.50	4049.13
424.69	4049.13
424.88	4234.03
425.07	3953.16
425.26	4016.36
425.45	4063.17
425.64	3866.56
425.83	4039.76
426.01	4166.15
426.20	4112.32
426.39	4070.19
426.58	4042.11
426.77	4173.18
426.96	3967.21
427.15	4117.00
427.33	4131.05
427.52	4219.99
427.71	4236.37
427.90	4271.48
428.09	4238.71
428.28	4285.52
428.46	4346.37
428.65	4327.65
428.84	4360.42
429.03	4421.27
429.22	4145.09
429.40	4231.69
429.59	4182.54
429.78	3946.14
429.97	3971.89
430.16	4222.33
430.34	4262.12
430.53	4397.87
430.72	4238.71
430.91	4320.63
431.10	4456.38
431.28	4634.26
431.47	4734.90
431.66	4664.69
431.85	4547.66
432.03	4631.92
432.22	4833.21
432.41	4753.63
432.60	4755.97
432.79	4896.40
432.97	4884.70
433.16	4840.23
433.35	4723.20
433.54	4779.37
433.72	4929.17
433.91	4748.95
434.10	4821.50
434.28	4922.15
434.47	4950.23
434.66	5013.43
434.85	4959.60
435.03	5207.69
435.22	4987.68
435.41	5226.42
435.59	5324.72
435.78	5151.52
435.97	5392.59
436.16	5245.14
436.34	5357.49
436.53	5247.48
436.72	5369.19
436.90	5186.63
437.09	5474.51
437.28	5203.01
437.46	5411.32
437.65	5355.15
437.84	5287.27
438.02	5313.02
438.21	5331.74
438.40	5280.25
438.58	5509.62
438.77	5533.03
438.96	5430.04
439.14	5554.09
439.33	5783.46
439.52	5706.23
439.70	5827.93
439.89	5921.56
440.08	5865.38
440.26	5884.11
440.45	5926.24
440.63	6174.33
440.82	6001.13
441.01	5956.66
441.19	6031.56
441.38	6232.85
441.57	6267.95
441.75	6291.36
441.94	6565.20
442.12	6532.44
442.31	6651.80
442.50	6539.46
442.68	6389.66
442.87	6558.18
443.05	6473.92
443.24	6670.53
443.43	6579.25
443.61	6572.22
443.80	6787.55
443.98	6595.63
444.17	6260.93
444.35	6614.35
444.54	6707.98
444.73	6621.38
444.91	6607.33
445.10	6616.69
445.28	6717.34
445.47	6665.85
445.65	6630.74
445.84	6485.62
446.02	6773.51
446.21	6752.45
446.39	6583.93
446.58	6916.28
446.77	6904.58
446.95	6696.27
447.14	6906.92
447.32	6923.30
447.51	6951.39
447.69	6782.87
447.88	6853.09
448.06	6696.27
448.25	6920.96
448.43	6815.64
448.62	6956.07
448.80	6930.33
448.99	6935.01
449.17	7124.59
449.36	6977.14
449.54	7023.95
449.73	7332.90
449.91	7255.66
450.10	7304.81
450.28	7449.93
450.46	7463.97
450.65	7358.64
450.83	7372.69
451.02	7321.20
451.20	7487.37
451.39	7550.57
451.57	7328.22
451.76	7368.01
451.94	7531.84
452.13	7442.90
452.31	7456.95
452.49	7267.36
452.68	7417.16
452.86	7454.61
453.05	7571.63
453.23	7562.27
453.42	7389.07
453.60	7644.19
453.78	7641.85
453.97	7508.44
454.15	7779.94
454.34	7548.23
454.52	7763.56
454.70	7850.16
454.89	7782.28
455.07	7896.97
455.26	7805.69
455.44	8051.44
455.62	7819.73
455.81	7824.41
455.99	7939.10
456.17	8205.92
456.36	7950.80
456.54	8149.75
456.73	8372.10
456.91	8400.18
457.09	8229.32
457.28	8365.07
457.46	8276.13
457.64	8381.46
457.83	8306.56
458.01	8358.05
458.19	8465.72
458.38	8528.91
458.56	8493.80
458.74	8496.14
458.93	8566.36
459.11	8542.96
459.29	8667.00
459.48	8531.25
459.66	8425.93
459.84	8695.09
460.03	8812.12
460.21	8800.41
460.39	8711.47
460.57	8643.60
460.76	8887.01
460.94	8791.05
461.12	8858.93
461.31	8924.46
461.49	9001.70
461.67	8954.89
461.85	9233.41
462.04	8854.25
462.22	9650.03
462.40	9135.11
462.59	9193.62
462.77	9345.76
462.95	9186.60
463.13	9252.14
463.32	9078.94
463.50	9198.31
463.68	9174.90
463.86	9128.09
464.05	9064.89
464.23	9221.71
464.41	9280.22
464.59	8884.67
464.78	9327.03
464.96	9544.70
465.14	9434.70
465.32	9547.05
465.50	9575.13
465.69	9584.49
465.87	9495.55
466.05	9343.42
466.23	9305.97
466.41	9249.80
466.60	9659.39
466.78	9446.40
466.96	9528.32
467.14	9612.58
467.32	9598.54
467.51	9764.72
467.69	9411.29
467.87	9870.04
468.05	9928.55
468.23	9778.76
468.41	9530.66
468.60	9650.03
468.78	9645.35
468.96	9778.76
469.14	9940.26
469.32	10146.22
469.50	9816.21
469.69	9841.95
469.87	9970.68
470.05	10061.96
470.23	10066.64
470.41	10001.11
470.59	10267.93
470.77	10216.44
470.95	10237.50
471.14	10441.13
471.32	10380.28
471.50	10431.77
471.68	10731.36
471.86	10637.73
472.04	10710.29
472.22	10995.84
472.40	10476.24
472.58	10607.31
472.77	10649.44
472.95	11152.65
473.13	11059.03
473.31	10731.36
473.49	10827.32
473.67	10827.32
473.85	11122.23
474.03	11147.97
474.21	11173.72
474.39	11440.54
474.57	11386.71
474.75	11489.69
474.93	11712.04
475.12	11318.83
475.30	11585.65
475.48	11641.82
475.66	11730.76
475.84	11613.74
476.02	11819.71
476.20	11740.13
476.38	12025.67
476.56	12163.76
476.74	12018.65
476.92	12238.66
477.10	12063.12
477.28	12442.29
477.46	12559.31
477.64	12587.40
477.82	12704.43
478.00	12786.35
478.18	12727.83
478.36	12882.31
478.54	13209.98
478.72	12863.58
478.90	13020.40
479.08	13273.18
479.26	13579.79
479.44	13561.06
479.62	13694.47
479.80	13626.60
479.98	13841.93
480.16	14153.22
480.34	14010.45
480.52	14122.79
480.70	14342.80
480.88	13994.06
481.06	14092.37
481.24	14450.47
481.41	14506.64
481.59	14759.42
481.77	14817.93
481.95	14764.10
482.13	15005.17
482.31	14918.57
482.49	15222.84
482.67	15396.04
482.85	15396.04
483.03	15686.27
483.21	15602.01
483.39	15779.89
483.57	15875.85
483.74	15983.52
483.92	16049.05
484.10	15681.59
484.28	16402.47
484.46	16388.43
484.64	16795.68
484.82	16559.29
485.00	16716.11
485.18	16540.57
485.35	17104.64
485.53	16425.88
485.71	16809.73
485.89	16662.27
486.07	16652.91
486.25	16835.47
486.43	17114.00
486.61	17380.82
486.78	17502.53
486.96	17769.35
487.14	17942.55
487.32	18113.41
487.50	18581.51
487.68	18424.70
487.85	18836.63
488.03	18750.03
488.21	19056.64
488.39	18768.76
488.57	19035.58
488.75	19271.97
488.92	19711.99
489.10	20056.05
489.28	19819.66
489.46	20285.42
489.64	20437.56
489.81	20570.97
489.99	20603.74
490.17	20858.85
490.35	20900.98
490.53	20964.18
490.70	20940.77
490.88	20823.75
491.06	21179.51
491.24	21205.25
491.41	21027.37
491.59	21266.11
491.77	21259.09
491.95	21467.39
492.13	21994.01
492.30	22047.85
492.48	21949.54
492.66	22249.13
492.84	22270.20
493.01	22780.43
493.19	22579.15
493.37	22724.26
493.54	22860.01
493.72	23288.33
493.90	23087.04
494.08	23398.34
494.25	23913.25
494.43	23906.23
494.61	24053.69
494.79	23901.55
494.96	23833.68
495.14	24070.07
495.32	24453.92
495.49	24313.48
495.67	24608.39
495.85	24477.32
496.02	24758.19
496.20	24711.38
496.38	24851.81
496.55	25125.65
496.73	25443.96
496.91	25593.76
497.09	25785.68
497.26	25900.37
497.44	25413.54
497.62	25935.48
497.79	26008.03
497.97	25720.15
498.14	25949.52
498.32	26103.99
498.50	26199.96
498.67	26429.33
498.85	26635.30
499.03	26764.03
499.20	26852.97
499.38	26764.03
499.56	26932.54
499.73	27098.72
499.91	27339.80
500.08	27037.87
500.26	26911.48
500.44	27379.59
500.61	27133.83
500.79	27346.82
500.97	27215.75
501.14	27632.36
501.32	27372.57
501.49	27885.14
501.67	27875.78
501.84	27896.85
502.02	28046.64
502.20	28470.28
502.37	28327.50
502.55	28060.68
502.72	28786.25
502.90	28793.27
503.07	28584.96
503.25	28847.10
503.43	28762.84
503.60	28912.64
503.78	28851.78
503.95	28919.66
504.13	28922.00
504.30	29418.19
504.48	29177.12
504.65	29572.67
504.83	29579.69
505.01	29912.05
505.18	29706.08
505.36	30443.35
505.53	29912.05
505.71	30698.47
505.88	30345.05
506.06	30300.58
506.23	30209.29
506.41	29851.19
506.58	30288.87
506.76	30644.63
506.93	30410.58
507.11	31051.89
507.28	30766.34
507.46	30445.69
507.63	30356.75
507.81	30607.19
507.98	30918.48
508.16	31056.57
508.33	31342.11
508.50	31501.27
508.68	31503.61
508.85	31697.88
509.03	31842.99
509.20	31969.38
509.38	32046.62
509.55	31892.14
509.73	32093.43
509.90	31920.23
510.08	32203.43
510.25	31857.03
510.42	32231.52
510.60	32378.97
510.77	32514.72
510.95	32718.35
511.12	32283.01
511.30	32598.98
511.47	33010.92
511.64	33130.28
511.82	32865.80
511.99	33301.14
512.17	32936.02
512.34	32989.85
512.51	33354.97
512.69	33462.64
512.86	33715.42
513.04	33467.32
513.21	33366.68
513.38	33549.24
513.56	33383.06
513.73	33443.91
513.90	33689.67
514.08	33696.69
514.25	33890.96
514.43	33989.26
514.60	33982.24
514.77	34209.27
514.95	34412.90
515.12	34703.12
515.29	34354.38
515.47	34668.02
515.64	34850.58
515.81	34878.66
515.99	34806.11
516.16	34576.73
516.33	33958.83
516.51	34679.72
516.68	33986.92
516.85	33930.75
517.03	33998.62
517.20	34981.65
517.37	34728.87
517.54	35180.59
517.72	34672.70
517.89	34836.53
518.06	34733.55
518.24	35065.91
518.41	35173.57
518.58	35150.17
518.75	34873.98
518.93	35269.53
519.10	35442.73
519.27	36009.14
519.45	35772.75
519.62	35707.21
519.79	36027.87
519.96	36278.30
520.14	36278.30
520.31	36334.48
520.48	36463.21
520.65	36112.13
520.83	36921.95
521.00	36554.49
521.17	36545.12
521.34	36858.76
521.52	36315.75
521.69	36865.78
521.86	37020.25
522.03	37179.41
522.20	37141.96
522.38	37539.85
522.55	37064.72
522.72	36795.56
522.89	37275.37
523.07	37078.77
523.24	37546.87
523.41	37670.92
523.58	37404.10
523.75	37883.91
523.92	38335.63
524.10	37972.85
524.27	38286.48
524.44	37816.04
524.61	38174.14
524.78	38253.72
524.96	38045.41
525.13	38157.75
525.30	38829.49
525.47	38937.15
525.64	38504.15
525.81	37897.95
525.98	38211.59
526.16	38251.38
526.33	38054.77
526.50	38288.82
526.67	37738.80
526.84	38017.32
527.01	38171.80
527.18	38485.43
527.36	38572.03
527.53	38866.94
527.70	39264.83
527.87	39002.69
528.04	39005.03
528.21	39330.36
528.38	39461.43
528.55	39681.44
528.72	39782.09
528.89	39880.39
529.07	39604.20
529.24	38995.67
529.41	39597.18
529.58	39522.29
529.75	39704.85
529.92	39318.66
530.09	39754.00
530.26	39573.78
530.43	39908.47
530.60	39487.18
530.77	40079.33
530.94	40006.78
531.11	39931.88
531.28	40582.55
531.46	40512.33
531.63	40357.86
531.80	39880.39
531.97	40147.21
532.14	40231.47
532.31	39880.39
532.48	40378.92
532.65	40346.15
532.82	40086.36
532.99	40392.97
533.16	40236.15
533.33	40659.79
533.50	40992.14
533.67	40690.21
533.84	40318.07
534.01	40648.08
534.18	40449.14
534.35	41411.10
534.52	40933.63
534.69	41254.28
534.86	41240.24
535.03	41053.00
535.20	41532.81
535.37	41900.27
535.54	41549.19
535.71	41022.57
535.88	41542.17
536.05	41326.84
536.22	41830.05
536.38	41764.52
536.55	41455.57
536.72	41488.34
536.89	41331.52
537.06	41443.87
537.23	42012.62
537.40	41764.52
537.57	41729.41
537.74	41783.24
537.91	41872.18
538.08	41813.67
538.25	41951.76
538.42	42073.47
538.59	41907.29
538.75	41881.55
538.92	42403.49
539.09	42120.28
539.26	42288.80
539.43	42155.39
539.60	41649.83
539.77	42167.09
539.94	42167.09
540.11	42024.32
540.28	42167.09
540.44	42087.51
540.61	41874.52
540.78	41577.28
540.95	42375.40
541.12	42351.99
541.29	42370.72
541.46	42560.30
541.62	42740.52
541.79	42941.81
541.96	42614.13
542.13	42637.54
542.30	42405.83
542.47	42579.03
542.63	42887.98
542.80	43033.09
542.97	43494.18
543.14	43566.73
543.31	43306.93
543.48	43313.95
543.64	44016.11
543.81	43711.84
543.98	43203.95
544.15	43625.25
544.32	43723.55
544.48	43868.66
544.65	43765.68
544.82	43599.50
544.99	43552.69
545.16	44065.27
545.32	43571.41
545.49	43875.68
545.66	43936.54
545.83	44133.14
546.00	43833.55
546.16	44179.95
546.33	43739.93
546.50	43648.65
546.67	43887.39
546.83	43529.28
547.00	44072.29
547.17	43735.25
547.34	43693.12
547.50	44123.78
547.67	44074.63
547.84	43634.61
548.00	44524.01
548.17	44254.85
548.34	44512.31
548.51	44636.36
548.67	44732.32
548.84	44589.55
549.01	44378.90
549.18	44547.42
549.34	44397.62
549.51	44472.52
549.68	44634.02
549.84	44891.48
550.01	44751.04
550.18	44404.64
550.34	44472.52
550.51	44406.98
550.68	44673.81
550.84	44650.40
551.01	45045.95
551.18	44837.64
551.34	45017.86
551.51	45193.40
551.68	45120.85
551.84	45074.04
552.01	44708.91
552.18	44959.35
552.34	44493.58
552.51	45193.40
552.68	44809.56
552.84	44940.63
553.01	45216.81
553.18	45141.91
553.34	44821.26
553.51	44737.00
553.67	45347.88
553.84	45387.67
554.01	45111.49
554.17	45331.50
554.34	45783.22
554.51	45570.23
554.67	45680.24
554.84	45710.66
555.00	45518.74
555.17	45347.88
555.33	45308.09
555.50	45408.73
555.67	45532.78
555.83	45443.84
556.00	45701.30
556.16	46005.57
556.33	45752.79
556.50	45478.95
556.66	45600.66
556.83	45382.99
556.99	45848.75
557.16	45649.81
557.32	45996.21
557.49	46017.27
557.65	45673.21
557.82	45584.27
557.98	45752.79
558.15	46017.27
558.32	45581.93
558.48	45397.03
558.65	45659.17
558.81	45542.14
558.98	45879.18
559.14	46021.95
559.31	45984.51
559.47	45736.41
559.64	46293.46
559.80	45904.93
559.97	45916.63
560.13	45848.75
560.30	45961.10
560.46	45965.78
560.63	46171.75
560.79	46176.43
560.96	46600.07
561.12	45869.82
561.29	45844.07
561.45	45914.29
561.61	46031.32
561.78	46225.58
561.94	45837.05
562.11	45874.50
562.27	45993.87
562.44	46117.92
562.60	45851.09
562.77	46244.30
562.93	46368.35
563.10	46038.34
563.26	46110.89
563.42	46195.15
563.59	46129.62
563.75	45904.93
563.92	46808.37
564.08	46396.44
564.24	46534.53
564.41	46169.41
564.57	46651.56
564.74	46309.84
564.90	46490.06
565.07	46146.00
565.23	46295.80
565.39	46241.96
565.56	45881.52
565.72	46305.16
565.88	46218.56
566.05	45935.35
566.21	46202.18
566.38	45923.65
566.54	46284.09
566.70	47107.96
566.87	47061.15
567.03	46248.99
567.19	46813.05
567.36	46827.10
567.52	46485.38
567.68	47133.71
567.85	46663.26
568.01	46548.57
568.17	46539.21
568.34	46707.73
568.50	46693.69
568.66	46319.20
568.83	46717.09
568.99	46117.92
569.15	46571.98
569.32	46230.26
569.48	46218.56
569.64	46934.76
569.81	46454.95
569.97	46504.10
570.13	46433.89
570.30	46019.61
570.46	46646.88
570.62	45963.44
570.78	45977.48
570.95	46316.86
571.11	46794.33
571.27	46382.40
571.43	46515.81
571.60	46452.61
571.76	46398.78
571.92	46417.50
572.09	46728.80
572.25	46658.58
572.41	46548.57
572.57	46583.68
572.74	46969.87
572.90	46892.63
573.06	46843.48
573.22	46433.89
573.38	46658.58
573.55	46412.82
573.71	47016.68
573.87	47129.03
574.03	46766.24
574.20	46380.06
574.36	46906.68
574.52	46326.22
574.68	46658.58
574.84	46845.82
575.01	46719.43
575.17	46550.91
575.33	46138.98
575.49	46450.27
575.65	47093.92
575.82	46749.86
575.98	46490.06
576.14	46653.90
576.30	46986.25
576.46	46483.04
576.62	46586.02
576.79	46728.80
576.95	46450.27
577.11	46787.31
577.27	46955.83
577.43	46784.97
577.59	46791.99
577.75	46513.47
577.92	46026.63
578.08	46272.39
578.24	46220.90
578.40	46550.91
578.56	46698.37
578.72	46347.29
578.88	46801.35
579.04	47014.34
579.21	46555.60
579.37	46635.17
579.53	46696.03
579.69	46817.74
579.85	46576.66
580.01	46742.84
580.17	46635.17
580.33	46841.14
580.49	46515.81
580.65	46527.51
580.82	46873.91
580.98	46401.12
581.14	46787.31
581.30	46983.91
581.46	46712.41
581.62	46679.64
581.78	46944.12
581.94	47288.18
582.10	47269.46
582.26	46623.47
582.42	46651.56
582.58	46763.90
582.74	46714.75
582.90	46738.16
583.06	47110.30
583.22	47014.34
583.38	46738.16
583.54	47285.84
583.70	47100.94
583.86	47079.88
584.02	46768.58
584.18	46841.14
584.34	46857.52
584.50	46490.06
584.66	46752.20
584.82	46471.34
584.98	47054.13
585.14	46967.53
585.30	46990.94
585.46	46796.67
585.62	46815.40
585.78	46349.63
585.94	46333.24
586.10	46951.15
586.26	46527.51
586.42	47295.21
586.58	46829.44
586.74	47058.81
586.90	46520.49
587.06	46630.49
587.22	47056.47
587.38	46089.83
587.54	46920.72
587.70	47004.98
587.86	46660.92
588.02	46539.21
588.18	47318.61
588.34	46681.98
588.49	46218.56
588.65	46162.39
588.81	45998.55
588.97	46501.76
589.13	45830.03
589.29	46611.77
589.45	46773.27
589.61	46183.45
589.77	47096.26
589.93	46721.77
590.08	46916.04
590.24	46916.04
590.40	47414.57
590.56	47393.51
590.72	46834.12
590.88	46693.69
591.04	47262.44
591.20	47332.65
591.35	47096.26
591.51	47344.36
591.67	46815.40
591.83	46920.72
591.99	46862.21
592.15	46796.67
592.31	47093.92
592.46	46824.76
592.62	46930.08
592.78	47201.58
592.94	47716.50
593.10	46780.29
593.26	47393.51
593.41	46930.08
593.57	46859.87
593.73	47082.22
593.89	47058.81
594.05	47164.14
594.20	47117.32
594.36	46567.30
594.52	46763.90
594.68	47290.52
594.84	46710.07
594.99	46862.21
595.15	46724.11
595.31	47023.70
595.47	46953.49
595.62	47079.88
595.78	47105.62
595.94	47346.70
596.10	47316.27
596.25	46930.08
596.41	47124.35
596.57	46972.21
596.73	47374.78
596.88	46969.87
597.04	46689.01
597.20	47325.63
597.36	47026.04
597.51	47210.95
597.67	46932.42
597.83	46728.80
597.99	47311.59
598.14	47253.08
598.30	46637.51
598.46	47002.64
598.61	47105.62
598.77	46628.15
598.93	47079.88
599.09	46759.22
599.24	47679.05
599.40	46855.18
599.56	46904.34
599.71	46703.05
599.87	46686.67
600.03	47105.62
600.18	47129.03
600.34	46780.29
600.50	47395.85
600.65	46946.47
600.81	47332.65
600.97	47435.64
601.12	47220.31
601.28	47044.77
601.44	46791.99
601.59	46756.88
601.75	46913.70
601.91	46813.05
602.06	46611.77
602.22	47077.54
602.37	47152.43
602.53	46972.21
602.69	47086.90
602.84	46990.94
603.00	47035.41
603.16	47075.19
603.31	46838.80
603.47	46707.73
603.62	46937.10
603.78	47093.92
603.94	46799.01
604.09	47318.61
604.25	46878.59
604.40	46871.57
604.56	46909.02
604.71	47035.41
604.87	46869.23
605.03	46756.88
605.18	46906.68
605.34	46756.88
605.49	46628.15
605.65	46864.55
605.80	46799.01
605.96	47021.36
606.12	46707.73
606.27	46834.12
606.43	46960.51
606.58	47103.28
606.74	46801.35
606.89	46724.11
607.05	46878.59
607.20	46831.78
607.36	46499.42
607.51	46834.12
607.67	46408.14
607.82	46461.97
607.98	46642.20
608.13	46543.89
608.29	46223.24
608.44	46188.13
608.60	46216.22
608.75	46483.04
608.91	46897.31
609.06	46637.51
609.22	46405.80
609.37	45963.44
609.53	46642.20
609.68	46579.00
609.84	46375.37
609.99	46234.94
610.15	45862.80
610.30	46330.90
610.46	46036.00
610.61	46223.24
610.76	45846.41
610.92	46539.21
611.07	46520.49
611.23	46239.62
611.38	46155.36
611.54	46230.26
611.69	46153.02
611.84	45902.59
612.00	46052.38
612.15	46096.85
612.31	46564.96
612.46	45951.74
612.62	46337.93
612.77	45792.58
612.92	46377.72
613.08	45745.77
613.23	45874.50
613.39	46064.08
613.54	45413.41
613.69	46014.93
613.85	45734.07
614.00	45734.07
614.15	46071.10
614.31	45565.55
614.46	45975.14
614.62	45869.82
614.77	45982.16
614.92	45710.66
615.08	46014.93
615.23	45801.94
615.38	45577.25
615.54	45488.31
615.69	45610.02
615.84	45420.44
616.00	45680.24
616.15	45270.64
616.30	45474.27
616.46	45745.77
616.61	45359.58
616.76	45387.67
616.92	45315.11
617.07	45390.01
617.22	45162.98
617.37	45055.31
617.53	45406.39
617.68	45029.57
617.83	45497.67
617.99	45102.12
618.14	45291.71
618.29	45382.99
618.45	44914.88
618.60	45062.33
618.75	44737.00
618.90	45022.54
619.06	45188.72
619.21	45347.88
619.36	45088.08
619.51	45062.33
619.67	45155.96
619.82	44854.03
619.97	44713.59
620.12	44502.95
620.28	44601.25
620.43	44877.43
620.58	45298.73
620.73	45172.34
620.89	44872.75
621.04	44949.99
621.19	45015.52
621.34	44893.82
621.49	44683.17
621.65	44376.56
621.80	45024.89
621.95	44203.36
622.10	44409.32
622.25	44694.87
622.41	44570.82
622.56	44205.70
622.71	44772.11
622.86	44395.28
623.01	44872.75
623.16	44177.61
623.32	44547.42
623.47	44371.88
623.62	44669.12
623.77	44577.84
623.92	44179.95
624.07	44027.82
624.23	43917.81
624.38	43901.43
624.53	43899.09
624.68	44072.29
624.83	44072.29
624.98	44154.21
625.13	43571.41
625.29	43688.44
625.44	43559.71
625.59	43693.12
625.74	43056.50
625.89	43676.74
626.04	43873.34
626.19	43641.63
626.34	43835.89
626.49	43866.32
626.65	43796.10
626.80	43938.88
626.95	43367.79
627.10	43398.21
627.25	43753.97
627.40	43014.37
627.55	42806.06
627.70	42969.90
627.85	42871.59
628.00	42941.81
628.15	43115.01
628.30	42948.83
628.45	43503.54
628.60	43538.65
628.76	43175.86
628.91	43220.33
629.06	42899.68
629.21	43145.44
629.36	42911.38
629.51	43044.79
629.66	42366.04
629.81	42761.59
629.96	42703.07
630.11	42794.36
630.26	43241.40
630.41	43028.41
630.56	43037.77
630.71	43213.31
630.86	42974.58
631.01	42391.78
631.16	42623.50
631.31	42513.49
631.46	42223.26
631.61	42609.45
631.76	42548.60
631.91	42721.80
632.06	43112.67
632.21	42848.19
632.36	42885.64
632.51	42108.58
632.66	42129.64
632.81	41759.84
632.96	42415.19
633.10	42450.30
633.25	42590.73
633.40	42827.12
633.55	42398.80
633.70	42323.91
633.85	41858.14
634.00	42403.49
634.15	42426.89
634.30	42043.04
634.45	41933.04
634.60	42347.31
634.75	42225.60
634.90	42384.76
635.05	41827.71
635.19	41881.55
635.34	41820.69
635.49	41659.20
635.64	41902.61
635.79	41949.42
635.94	41780.90
636.09	41825.37
636.24	41762.18
636.39	41368.97
636.53	41848.78
636.68	42043.04
636.83	41530.47
636.98	42141.35
637.13	41441.53
637.28	41776.22
637.43	41972.83
637.57	41918.99
637.72	41797.29
637.87	41666.22
638.02	41717.71
638.17	41729.41
638.32	41638.13
638.46	41586.64
638.61	41361.95
638.76	41666.22
638.91	41521.10
639.06	41226.20
639.20	41195.77
639.35	41724.73
639.50	41375.99
639.65	41427.48
639.80	41144.28
639.94	41453.23
640.09	41289.39
640.24	41282.37
640.39	41088.10
640.54	41167.68
640.68	40849.37
640.83	40964.06
640.98	41186.41
641.13	40617.66
641.27	40783.83
641.42	40896.18
641.57	40629.36
641.72	40767.45
641.86	40463.18
642.01	40964.06
642.16	40194.02
642.31	40407.01
642.45	40858.73
642.60	40545.10
642.75	40605.95
642.90	40446.80
643.04	40938.31
643.19	40554.46
643.34	40779.15
643.48	40877.46
643.63	40339.13
643.78	40336.79
643.93	40046.57
644.07	40147.21
644.22	40238.49
644.37	40421.05
644.51	40076.99
644.66	40325.09
644.81	40360.20
644.95	40676.17
645.10	39924.86
645.25	40481.91
645.39	40491.27
645.54	40313.39
645.69	40395.31
645.83	40058.27
645.98	40016.14
646.13	40140.19
646.27	40301.68
646.42	39931.88
646.57	39782.09
646.71	39508.24
646.86	39763.36
647.00	39768.04
647.15	39983.37
647.30	39594.84
647.44	39777.40
647.59	39594.84
647.74	39339.72
647.88	39381.85
648.03	39690.80
648.17	39049.50
648.32	39840.60
648.47	39482.50
648.61	39789.11
648.76	39803.15
648.90	39187.59
649.05	39594.84
649.20	39529.31
649.34	39704.85
649.49	39044.82
649.63	39379.51
649.78	39229.72
649.92	39580.80
650.07	39763.36
650.21	39342.06
650.36	39356.11
650.51	39077.58
650.65	39634.63
650.80	39943.58
650.94	39704.85
651.09	39213.34
651.23	38667.99
651.38	39484.84
651.52	38546.28
651.67	38576.71
651.81	38979.28
651.96	39136.10
652.10	39175.89
652.25	38976.94
652.39	38848.21
652.54	39250.78
652.68	38983.96
652.83	38873.96
652.97	39271.85
653.12	38895.02
653.26	38925.45
653.41	38717.14
653.55	38574.37
653.70	38918.43
653.84	38527.56
653.99	38389.47
654.13	38857.57
654.27	38583.73
654.42	38094.56
654.56	38185.84
654.71	38436.28
654.85	38565.01
655.00	38621.18
655.14	38089.88
655.29	37778.59
655.43	38340.32
655.57	37951.79
655.72	37867.53
655.86	37799.65
656.01	37628.79
656.15	37240.26
656.30	37895.61
656.44	38073.49
656.58	38005.62
656.73	37677.94
656.87	37738.80
657.01	37460.27
657.16	37806.67
657.30	37350.27
657.45	37474.32
657.59	37383.04
657.73	37982.21
657.88	38003.28
658.02	37940.08
658.16	38099.24
658.31	38199.88
658.45	37713.05
658.60	37612.41
658.74	37542.19
658.88	37170.05
659.03	37869.87
659.17	37493.04
659.31	37432.19
659.46	37069.40
659.60	37226.22
659.74	37617.09
659.89	37530.49
660.03	37158.34
660.17	37525.81
660.32	37371.33
660.46	37067.06
660.60	36889.18
660.74	36961.74
660.89	37113.87
661.03	36540.44
661.17	36652.79
661.32	36797.90
661.46	37287.07
661.60	36610.66
661.74	37095.15
661.89	36570.87
662.03	36437.46
662.17	36360.22
662.31	36629.38
662.46	36451.50
662.60	36694.92
662.74	36109.78
662.88	36144.89
663.03	35964.67
663.17	36320.43
663.31	36175.32
663.45	36041.91
663.60	36161.28
663.74	35484.86
663.88	35676.79
664.02	35842.96
664.17	35695.51
664.31	35857.01
664.45	35576.14
664.59	36009.14
664.73	35342.09
664.88	35491.88
665.02	35541.03
665.16	35723.60
665.30	35583.16
665.44	35246.13
665.59	35110.38
665.73	34712.49
665.87	35367.84
666.01	35346.77
666.15	35559.76
666.29	35115.06
666.44	35243.79
666.58	34890.37
666.72	34644.61
666.86	34775.68
667.00	34820.15
667.14	34429.28
667.28	34675.04
667.43	34806.11
667.57	34773.34
667.71	34663.33
667.85	34668.02
667.99	34403.53
668.13	34550.99
668.27	34656.31
668.41	34597.80
668.56	34120.33
668.70	34415.24
668.84	33750.52
668.98	33993.94
669.12	34101.61
669.26	34061.82
669.40	33659.24
669.54	33605.41
669.68	33930.75
669.82	33312.84
669.96	33429.87
670.10	33516.47
670.25	33282.42
670.39	33305.82
670.53	33191.14
670.67	33146.67
670.81	33277.74
670.95	33287.10
671.09	33083.47
671.23	33280.08
671.37	33223.90
671.51	32250.24
671.65	32800.27
671.79	32907.93
671.93	32950.06
672.07	32809.63
672.21	32615.37
672.35	32435.14
672.49	32367.27
672.63	32503.02
672.77	32481.95
672.91	32414.08
673.05	32285.35
673.19	31964.70
673.33	31950.65
673.47	32147.26
673.61	32453.87
673.75	31821.92
673.89	31730.64
674.03	31304.67
674.17	31622.98
674.31	31477.86
674.45	31388.92
674.59	31498.93
674.73	31681.49
674.87	31419.35
675.01	31637.02
675.15	31393.61
675.29	31515.31
675.43	31405.31
675.56	30995.71
675.70	30862.30
675.84	30586.12
675.98	30288.87
676.12	30888.05
676.26	30532.29
676.40	30874.01
676.54	30792.09
676.68	30881.03
676.82	29977.58
676.96	30286.53
677.10	30377.81
677.23	30148.44
677.37	30033.75
677.51	29923.75
677.65	29869.92
677.79	29523.52
677.93	29422.87
678.07	29631.18
678.21	29095.20
678.34	29624.16
678.48	29039.03
678.62	28858.81
678.76	29116.26
678.90	28973.49
679.04	28711.35
679.18	28659.86
679.31	29027.32
679.45	28409.42
679.59	28421.13
679.73	28348.57
679.87	28620.07
680.00	28364.95
680.14	27681.52
680.28	28254.95
680.42	27817.27
680.56	28063.02
680.70	28086.43
680.83	28634.11
680.97	27850.03
681.11	27861.74
681.25	27606.62
681.39	27400.65
681.52	27461.51
681.66	27321.07
681.80	27325.75
681.94	27096.38
682.07	27239.15
682.21	26581.46
682.35	26663.38
682.49	26876.37
682.62	26738.28
682.76	26155.49
682.90	26471.46
683.04	26174.21
683.17	26106.34
683.31	26176.55
683.45	26169.53
683.59	26115.70
683.72	25879.30
683.86	26197.62
684.00	26096.97
684.13	26139.10
684.27	25654.61
684.41	25366.73
684.55	25488.43
684.68	25362.04
684.82	25610.14
684.96	25575.03
685.09	25495.46
685.23	24748.82
685.37	25291.83
685.50	24800.32
685.64	25193.53
685.78	24854.15
685.91	24664.57
686.05	24313.48
686.19	24030.28
686.32	24119.22
686.46	23702.61
686.60	23676.86
686.73	23459.19
686.87	23520.04
687.01	23077.68
687.14	22815.54
687.28	23374.93
687.42	23222.80
687.55	23676.86
687.69	23580.90
687.82	23321.10
687.96	23075.34
688.10	23271.95
688.23	22885.76
688.37	22672.77
688.50	22831.93
688.64	22817.88
688.78	22817.88
688.91	22782.77
689.05	22504.25
689.18	22609.58
689.32	22106.36
689.46	22387.22
689.59	22441.06
689.73	22476.16
689.86	22113.38
690.00	22047.85
690.13	22089.98
690.27	21951.88
690.41	21589.10
690.54	21404.20
690.68	21467.39
690.81	21495.48
690.95	21495.48
691.08	21586.76
691.22	21383.13
691.35	21710.81
691.49	21172.49
691.62	21308.24
691.76	21130.36
691.89	20854.17
692.03	20400.11
692.16	21055.46
692.30	20503.09
692.43	20601.40
692.57	20159.03
692.70	20283.08
692.84	20203.50
692.97	20088.82
693.11	19988.18
693.24	20081.80
693.38	19953.07
693.51	19894.55
693.65	19887.53
693.78	19721.35
693.92	19552.84
694.05	19585.60
694.19	19442.83
694.32	19342.19
694.45	19367.93
694.59	19199.41
694.72	19311.76
694.86	18881.10
694.99	19154.94
695.13	19302.40
695.26	18909.19
695.39	19047.28
695.53	19126.86
695.66	18764.07
695.80	18600.24
695.93	18625.98
696.07	18412.99
696.20	18518.32
696.33	18221.07
696.47	18342.78
696.60	18192.98
696.73	18157.88
696.87	18052.55
697.00	17989.36
697.14	17802.11
697.27	17874.67
697.40	17905.10
697.54	17401.88
697.67	17502.53
697.80	17277.83
697.94	17348.05
698.07	17355.07
698.21	17266.13
698.34	16922.07
698.47	17195.92
698.61	17132.72
698.74	17149.11
698.87	16648.23
699.01	16631.85
699.14	16507.80
699.27	16559.29
699.40	16290.13
699.54	16416.52
699.67	15971.82
699.80	16388.43
699.94	16182.46
700.07	16060.76
700.20	16177.78
700.34	16479.71
700.47	16154.38
700.60	16070.12
700.73	16105.23
700.87	16011.60
701.00	15719.04
701.13	15466.26
701.26	15784.57
701.40	15517.75
701.53	15536.48
701.66	15489.67
701.79	15192.42
701.93	15400.72
702.06	15033.26
702.19	14794.53
702.32	15035.60
702.46	14939.64
702.59	15000.49
702.72	14888.15
702.85	15037.94
702.99	14904.53
703.12	14824.95
703.25	14635.37
703.38	14487.92
703.51	14469.19
703.65	14539.41
703.78	14359.19
703.91	14153.22
704.04	13898.10
704.17	14424.72
704.31	14288.97
704.44	14136.84
704.57	14176.62
704.70	14090.02
704.83	13673.41
704.96	13968.32
705.10	13647.66
705.23	13865.33
>>>>>End Processed Spectral Data<<<<<
