SpectraSuite Data File
++++++++++++++++++++++++++++++++++++
Date: Fri Oct 25 10:44:20 EDT 2013
User: price-jones
Dark Spectrum Present: No
Reference Spectrum Present: No
Number of Sampled Component Spectra: 1
Spectrometers: USB2+H05261
Integration Time (usec): 100000 (USB2+H05261)
Spectra Averaged: 1 (USB2+H05261)
Boxcar Smoothing: 0 (USB2+H05261)
Correct for Electrical Dark: No (USB2+H05261)
Strobe/Lamp Enabled: No (USB2+H05261)
Correct for Detector Non-linearity: No (USB2+H05261)
Correct for Stray Light: No (USB2+H05261)
Number of Pixels in Processed Spectrum: 2048
>>>>>Begin Processed Spectral Data<<<<<
365.73	177.88
365.92	177.88
366.12	177.88
366.32	91.28
366.52	95.96
366.72	74.90
366.91	0.00
367.11	0.00
367.31	60.85
367.51	0.00
367.70	21.06
367.90	67.88
368.10	72.56
368.30	74.90
368.49	95.96
368.69	95.96
368.89	91.28
369.09	63.19
369.28	91.28
369.48	16.38
369.68	110.01
369.87	28.09
370.07	7.02
370.27	86.60
370.47	255.12
370.66	374.49
370.86	435.34
371.06	491.51
371.25	470.45
371.45	428.32
371.65	517.26
371.84	491.51
372.04	451.72
372.24	475.13
372.44	538.32
372.63	519.60
372.83	559.39
373.03	458.74
373.22	514.92
373.42	491.51
373.62	482.15
373.81	585.13
374.01	510.24
374.21	573.43
374.40	528.96
374.60	601.52
374.79	540.66
374.99	599.18
375.19	627.26
375.38	608.54
375.58	634.29
375.78	589.82
375.97	681.10
376.17	641.31
376.37	683.44
376.56	671.73
376.76	620.24
376.95	573.43
377.15	657.69
377.35	739.61
377.54	667.05
377.74	662.37
377.93	688.12
378.13	692.80
378.33	695.14
378.52	664.71
378.72	685.78
378.91	669.39
379.11	629.60
379.31	692.80
379.50	608.54
379.70	643.65
379.89	702.16
380.09	692.80
380.28	662.37
380.48	706.84
380.68	671.73
380.87	774.72
381.07	720.88
381.26	744.29
381.46	734.93
381.65	746.63
381.85	657.69
382.04	660.03
382.24	746.63
382.43	662.37
382.63	685.78
382.83	784.08
383.02	767.70
383.22	725.57
383.41	730.25
383.61	798.12
383.80	812.17
384.00	751.31
384.19	788.76
384.39	849.61
384.58	767.70
384.78	816.85
384.97	877.70
385.17	821.53
385.36	774.72
385.56	922.17
385.75	765.36
385.95	809.83
386.14	793.44
386.34	851.96
386.53	889.40
386.72	877.70
386.92	929.19
387.11	891.74
387.31	877.70
387.50	875.36
387.70	936.21
387.89	922.17
388.09	961.96
388.28	933.87
388.48	915.15
388.67	952.60
388.86	917.49
389.06	1029.84
389.25	957.28
389.45	1057.92
389.64	992.39
389.84	1050.90
390.03	1081.33
390.22	1008.77
390.42	1020.47
390.61	968.98
390.81	943.24
391.00	1006.43
391.19	1170.27
391.39	1090.69
391.58	1020.47
391.78	1032.18
391.97	1104.73
392.16	1090.69
392.36	1146.86
392.55	973.66
392.75	1046.22
392.94	976.00
393.13	957.28
393.33	1135.16
393.52	1078.99
393.71	1158.57
393.91	1118.78
394.10	1268.57
394.29	1249.85
394.49	1167.93
394.68	1327.08
394.88	1327.08
395.07	1270.91
395.26	1331.76
395.46	1289.64
395.65	1327.08
395.84	1268.57
396.04	1313.04
396.23	1196.01
396.42	1261.55
396.62	1306.02
396.81	1188.99
397.00	1273.25
397.19	1397.30
397.39	1327.08
397.58	1336.45
397.77	1277.93
397.97	1383.26
398.16	1500.28
398.35	1448.79
398.55	1502.62
398.74	1619.65
398.93	1591.56
399.12	1465.18
399.32	1605.61
399.51	1568.16
399.70	1598.59
399.90	1577.52
400.09	1650.08
400.28	1713.27
400.47	1748.38
400.67	1699.23
400.86	1666.46
401.05	1795.19
401.24	1746.04
401.44	1781.15
401.63	1809.23
401.82	1746.04
402.01	1799.87
402.21	1832.64
402.40	1856.04
402.59	1757.74
402.78	1811.57
402.97	1809.23
403.17	1851.36
403.36	1874.77
403.55	1872.43
403.74	1947.33
403.93	1884.13
404.13	1970.73
404.32	2003.50
404.51	1905.20
404.70	2104.14
404.89	1867.75
405.09	2024.56
405.28	2045.63
405.47	2031.58
405.66	2052.65
405.85	1991.80
406.05	2155.63
406.24	2057.33
406.43	2078.40
406.62	2239.89
406.81	2197.76
407.00	2160.31
407.20	2104.14
407.39	2094.78
407.58	2223.51
407.77	2232.87
407.96	2331.17
408.15	2326.49
408.34	2338.20
408.54	2438.84
408.73	2359.26
408.92	2335.85
409.11	2413.09
409.30	2401.39
409.49	2340.54
409.68	2305.43
409.87	2349.90
410.07	2427.14
410.26	2429.48
410.45	2609.70
410.64	2452.88
410.83	2616.72
411.02	2567.57
411.21	2715.02
411.40	2665.87
411.59	2656.51
411.78	2759.49
411.98	2693.96
412.17	2731.41
412.36	2841.41
412.55	2818.00
412.74	2977.16
412.93	2808.64
413.12	2841.41
413.31	3047.38
413.50	2963.12
413.69	3019.29
413.88	3005.25
414.07	3000.57
414.26	3042.70
414.45	3159.72
414.64	3199.51
414.83	3255.69
415.02	3023.97
415.22	3239.30
415.41	3295.47
415.60	3328.24
415.79	3349.31
415.98	3515.48
416.17	3279.09
416.36	3391.44
416.55	3344.63
416.74	3391.44
416.93	3419.52
417.12	3403.14
417.31	3349.31
417.50	3487.40
417.69	3637.19
417.88	3627.83
418.07	3676.98
418.26	3630.17
418.45	3592.72
418.64	3735.50
418.83	3674.64
419.02	3698.05
419.21	3726.13
419.39	3508.46
419.58	3625.49
419.77	3562.30
419.96	3686.34
420.15	3812.73
420.34	3723.79
420.53	3990.61
420.72	3997.64
420.91	3815.07
421.10	4032.74
421.29	4007.00
421.48	3955.51
421.67	3981.25
421.86	4011.68
422.05	3964.87
422.24	3915.72
422.43	4025.72
422.61	3962.53
422.80	4049.13
422.99	3962.53
423.18	4070.19
423.37	4032.74
423.56	4210.62
423.75	4070.19
423.94	4088.92
424.13	3819.75
424.32	3974.23
424.50	4175.52
424.69	4098.28
424.88	4229.35
425.07	4009.34
425.26	4081.89
425.45	4086.58
425.64	4133.39
425.83	4060.83
426.01	4311.27
426.20	4250.41
426.39	4224.67
426.58	4163.81
426.77	3981.25
426.96	4086.58
427.15	4070.19
427.33	4163.81
427.52	4173.18
427.71	4241.05
427.90	4264.46
428.09	4273.82
428.28	4325.31
428.46	4432.97
428.65	4276.16
428.84	4348.72
429.03	4442.34
429.22	4229.35
429.40	4196.58
429.59	4250.41
429.78	3999.98
429.97	4035.08
430.16	4210.62
430.34	4210.62
430.53	4236.37
430.72	4290.20
430.91	4362.76
431.10	4521.92
431.28	4688.09
431.47	4758.31
431.66	4772.35
431.85	4800.44
432.03	4819.16
432.22	4784.06
432.41	4837.89
432.60	4645.96
432.79	4856.61
432.97	4812.14
433.16	4812.14
433.35	4760.65
433.54	5025.13
433.72	4847.25
433.91	4940.87
434.10	4968.96
434.28	4966.62
434.47	4978.32
434.66	4983.00
434.85	5069.60
435.03	5214.71
435.22	5097.69
435.41	5502.60
435.59	5252.16
435.78	5221.74
435.97	5420.68
436.16	5270.89
436.34	5308.34
436.53	5320.04
436.72	5413.66
436.90	5315.36
437.09	5291.95
437.28	5104.71
437.46	5380.89
437.65	5455.79
437.84	5376.21
438.02	5500.26
438.21	5294.29
438.40	5310.68
438.58	5526.00
438.77	5568.13
438.96	5661.76
439.14	5748.36
439.33	5816.23
439.52	5818.57
439.70	5769.42
439.89	5940.28
440.08	5886.45
440.26	5884.11
440.45	5877.09
440.63	5949.64
440.82	6286.68
441.01	6349.87
441.19	6218.80
441.38	6326.47
441.57	6260.93
441.75	6466.90
441.94	6499.67
442.12	6506.69
442.31	6523.07
442.50	6600.31
442.68	6609.67
442.87	6663.51
443.05	6576.91
443.24	6705.63
443.43	6743.08
443.61	6766.49
443.80	6995.86
443.98	6630.74
444.17	6511.37
444.35	6759.47
444.54	6888.20
444.73	6906.92
444.91	6520.73
445.10	6677.55
445.28	6525.41
445.47	6640.10
445.65	6717.34
445.84	6637.76
446.02	6743.08
446.21	6621.38
446.39	6780.53
446.58	6782.87
446.77	6960.75
446.95	6832.02
447.14	6761.81
447.32	7115.23
447.51	7000.54
447.69	6965.43
447.88	6932.67
448.06	6946.71
448.25	6906.92
448.43	6848.41
448.62	6892.88
448.80	6857.77
448.99	7103.53
449.17	7080.12
449.36	7192.47
449.54	7276.73
449.73	7365.67
449.91	7321.20
450.10	7398.43
450.28	7531.84
450.46	7454.61
450.65	7286.09
450.83	7337.58
451.02	7433.54
451.20	7716.75
451.39	7728.45
451.57	7356.30
451.76	7555.25
451.94	7463.97
452.13	7721.43
452.31	7499.08
452.49	7602.06
452.68	7637.17
452.86	7499.08
453.05	7566.95
453.23	7632.49
453.42	7550.57
453.60	7768.24
453.78	7875.90
453.97	7676.96
454.15	7747.17
454.34	7665.25
454.52	7763.56
454.70	7709.72
454.89	7939.10
455.07	7735.47
455.26	7967.18
455.44	8037.40
455.62	7836.11
455.81	8077.19
455.99	7950.80
456.17	8021.02
456.36	8070.17
456.54	8159.11
456.73	8418.91
456.91	8407.20
457.09	8355.71
457.28	8564.02
457.46	8365.07
457.64	8402.52
457.83	8297.20
458.01	8133.36
458.19	8664.66
458.38	8503.17
458.56	8540.61
458.74	8540.61
458.93	8390.82
459.11	8517.21
459.29	8781.69
459.48	8545.30
459.66	8676.37
459.84	8917.44
460.03	8924.46
460.21	8734.88
460.39	8753.60
460.57	8662.32
460.76	8957.23
460.94	8872.97
461.12	8758.28
461.31	8997.02
461.49	9046.17
461.67	8877.65
461.85	9310.65
462.04	9067.24
462.22	9076.60
462.40	9193.62
462.59	9188.94
462.77	9338.74
462.95	9287.25
463.13	9151.49
463.32	9191.28
463.50	9439.38
463.68	9533.00
463.86	9228.73
464.05	9055.53
464.23	9165.54
464.41	9275.54
464.59	9156.18
464.78	9415.98
464.96	9373.85
465.14	9509.60
465.32	9685.14
465.50	9694.50
465.69	9530.66
465.87	9596.20
466.05	9390.23
466.23	9589.17
466.41	9481.51
466.60	9556.41
466.78	9570.45
466.96	9635.99
467.14	9582.15
467.32	9540.02
467.51	9645.35
467.69	9441.72
467.87	9727.27
468.05	10010.47
468.23	9614.92
468.41	9717.90
468.60	9839.61
468.78	9958.98
468.96	9991.75
469.14	9916.85
469.32	10279.63
469.50	9753.01
469.69	10104.09
469.87	10214.10
470.05	10211.76
470.23	9989.41
470.41	10108.77
470.59	10078.35
470.77	10164.95
470.95	10281.97
471.14	10527.73
471.32	10216.44
471.50	10476.24
471.68	10565.18
471.86	10525.39
472.04	10832.00
472.22	10916.26
472.40	10619.01
472.58	10717.31
472.77	10600.29
472.95	10780.51
473.13	11426.50
473.31	10874.13
473.49	10761.78
473.67	11035.63
473.85	11337.56
474.03	11309.47
474.21	11080.10
474.39	11501.39
474.57	11325.85
474.75	11433.52
474.93	11627.78
475.12	11470.97
475.30	11520.12
475.48	11651.19
475.66	11566.93
475.84	11386.71
476.02	11768.21
476.20	11882.90
476.38	12114.61
476.56	12287.81
476.74	12210.57
476.92	12222.28
477.10	12383.77
477.28	12594.42
477.46	12580.38
477.64	12643.57
477.82	13184.24
478.00	13081.25
478.18	12858.90
478.36	12933.80
478.54	13095.30
478.72	13137.43
478.90	13479.15
479.08	13453.40
479.26	13741.29
479.44	13331.69
479.62	13685.11
479.80	13664.05
479.98	14157.90
480.16	14094.71
480.34	13961.30
480.52	14328.76
480.70	14602.60
480.88	14012.79
481.06	14298.33
481.24	14553.45
481.41	14752.40
481.59	14897.51
481.77	14796.87
481.95	15105.82
482.13	15042.62
482.31	14820.27
482.49	15428.81
482.67	15571.58
482.85	15550.52
483.03	15580.95
483.21	15826.70
483.39	16121.61
483.57	15910.96
483.74	15868.83
483.92	16084.16
484.10	16046.71
484.28	16432.90
484.46	16720.79
484.64	16788.66
484.82	16451.63
485.00	16475.03
485.18	16704.40
485.35	16774.62
485.53	16421.20
485.71	16482.05
485.89	17041.44
486.07	17067.19
486.25	17151.45
486.43	17334.01
486.61	17481.46
486.78	17572.74
486.96	17994.04
487.14	18331.08
487.32	18324.05
487.50	18602.58
487.68	18551.09
487.85	18609.60
488.03	19133.88
488.21	19103.45
488.39	19051.96
488.57	19030.90
488.75	19239.20
488.92	19580.92
489.10	19845.40
489.28	20056.05
489.46	20016.26
489.64	20266.70
489.81	20610.76
489.99	20690.34
490.17	20636.50
490.35	21055.46
490.53	20844.81
490.70	20662.25
490.88	21083.55
491.06	21572.72
491.24	21254.40
491.41	21392.50
491.59	21586.76
491.77	21228.66
491.95	21731.87
492.13	21893.37
492.30	21965.93
492.48	22288.92
492.66	22183.60
492.84	22630.64
493.01	22665.75
493.19	22899.80
493.37	22885.76
493.54	22677.45
493.72	23459.19
493.90	23197.05
494.08	23527.06
494.25	23915.59
494.43	23761.12
494.61	24273.70
494.79	24236.25
494.96	24098.16
495.14	24114.54
495.32	23964.75
495.49	24517.11
495.67	24627.12
495.85	24533.50
496.02	25310.55
496.20	25252.04
496.38	24947.77
496.55	25287.15
496.73	25652.27
496.91	25558.65
497.09	25773.98
497.26	26099.31
497.44	26029.10
497.62	26073.57
497.79	26424.65
497.97	25827.81
498.14	26108.68
498.32	25928.45
498.50	26239.75
498.67	26834.24
498.85	26499.55
499.03	26787.43
499.20	27297.67
499.38	26892.76
499.56	27386.61
499.73	27569.17
499.91	27370.22
500.08	27587.89
500.26	26757.00
500.44	27475.55
500.61	27384.27
500.79	27367.88
500.97	27438.10
501.14	28100.47
501.32	27859.40
501.49	28149.62
501.67	27964.72
501.84	28264.31
502.02	28233.88
502.20	28568.58
502.37	28561.56
502.55	28133.24
502.72	29034.35
502.90	28851.78
503.07	28842.42
503.25	29010.94
503.43	28767.52
503.60	28130.90
503.78	29106.90
503.95	29020.30
504.13	28957.11
504.30	29448.62
504.48	29184.14
504.65	29481.39
504.83	29916.73
505.01	30136.74
505.18	29752.89
505.36	30382.49
505.53	30579.10
505.71	30834.22
505.88	30560.37
506.06	30059.50
506.23	30522.93
506.41	30738.26
506.58	30492.50
506.76	30445.69
506.93	30946.56
507.11	30742.94
507.28	30543.99
507.46	30937.20
507.63	31063.59
507.81	30787.41
507.98	31044.87
508.16	31311.69
508.33	31328.07
508.50	31976.40
508.68	31419.35
508.85	31864.05
509.03	31707.24
509.20	31955.33
509.38	31894.48
509.55	31995.12
509.73	31999.80
509.90	32364.93
510.08	32133.21
510.25	32301.73
510.42	32423.44
510.60	32467.91
510.77	32393.01
510.95	32886.87
511.12	32577.92
511.30	33315.19
511.47	33282.42
511.64	32870.48
511.82	33338.59
511.99	32971.13
512.17	33099.86
512.34	33542.22
512.51	33755.21
512.69	33397.10
512.86	33305.82
513.04	33710.74
513.21	33223.90
513.38	33621.80
513.56	33600.73
513.73	33560.94
513.90	34190.55
514.08	34007.98
514.25	34040.75
514.43	33944.79
514.60	34232.68
514.77	34185.86
514.95	34197.57
515.12	34618.86
515.29	34593.12
515.47	35098.67
515.64	34698.44
515.81	34660.99
515.99	34614.18
516.16	34644.61
516.33	34232.68
516.51	34593.12
516.68	33759.89
516.85	34113.31
517.03	34506.52
517.20	34546.31
517.37	35421.67
517.54	35398.26
517.72	35388.90
517.89	35091.65
518.06	34925.47
518.24	34913.77
518.41	34937.18
518.58	35365.49
518.75	35215.70
518.93	35957.65
519.10	35438.05
519.27	35714.23
519.45	35791.47
519.62	35868.71
519.79	36016.16
519.96	36100.42
520.14	36605.98
520.31	36547.47
520.48	36594.28
520.65	36177.66
520.83	36847.05
521.00	36730.03
521.17	36870.46
521.34	37095.15
521.52	36931.31
521.69	36954.72
521.86	37490.70
522.03	37226.22
522.20	37546.87
522.38	37867.53
522.55	37317.50
522.72	37240.26
522.89	37195.79
523.07	37212.18
523.24	37525.81
523.41	38078.18
523.58	37703.69
523.75	38506.49
523.92	38487.77
524.10	38368.40
524.27	37975.19
524.44	38466.70
524.61	38059.45
524.78	38534.58
524.96	38450.32
525.13	38824.81
525.30	38897.36
525.47	38986.30
525.64	38464.36
525.81	38810.76
525.98	38789.70
526.16	38291.16
526.33	38237.33
526.50	38162.43
526.67	37895.61
526.84	38335.63
527.01	38459.68
527.18	39086.95
527.36	39000.35
527.53	39124.40
527.70	39210.99
527.87	39297.59
528.04	39306.96
528.21	39178.23
528.38	39213.34
528.55	39370.15
528.72	39758.68
528.89	40018.48
529.07	40055.93
529.24	39594.84
529.41	39819.53
529.58	39559.73
529.75	39814.85
529.92	40116.78
530.09	39622.93
530.26	40554.46
530.43	40177.64
530.60	40383.60
530.77	40254.87
530.94	40594.25
531.11	40252.53
531.28	40095.72
531.46	40662.13
531.63	40617.66
531.80	40690.21
531.97	40133.17
532.14	40271.26
532.31	40048.91
532.48	40315.73
532.65	40727.66
532.82	40336.79
532.99	40727.66
533.16	40481.91
533.33	40968.74
533.50	41064.70
533.67	40938.31
533.84	40863.41
534.01	40811.92
534.18	40818.94
534.35	41858.14
534.52	40769.79
534.69	41289.39
534.86	41275.35
535.03	41532.81
535.20	41670.90
535.37	41968.15
535.54	41930.70
535.71	41710.69
535.88	42024.32
536.05	41698.98
536.22	41710.69
536.38	41881.55
536.55	41596.00
536.72	41521.10
536.89	41354.93
537.06	41347.90
537.23	42244.33
537.40	41846.44
537.57	42064.11
537.74	42405.83
537.91	42225.60
538.08	41841.76
538.25	41834.74
538.42	42019.64
538.59	42312.20
538.75	42298.16
538.92	41904.95
539.09	42667.97
539.26	42188.16
539.43	41930.70
539.60	42298.16
539.77	42295.82
539.94	42572.00
540.11	42309.86
540.28	42213.90
540.44	42590.73
540.61	42272.42
540.78	42394.12
540.95	42607.11
541.12	42312.20
541.29	42925.42
541.46	42738.18
541.62	42705.41
541.79	42967.55
541.96	42653.92
542.13	42880.95
542.30	43072.88
542.47	42967.55
542.63	42981.60
542.80	43014.37
542.97	43171.18
543.14	43447.36
543.31	43112.67
543.48	43545.67
543.64	44004.41
543.81	43550.35
543.98	43810.15
544.15	43548.01
544.32	43955.26
544.48	44458.48
544.65	43826.53
544.82	44285.28
544.99	43531.62
545.16	43906.11
545.32	43854.62
545.49	44369.54
545.66	44357.83
545.83	44385.92
546.00	44102.71
546.16	44135.48
546.33	43655.67
546.50	43985.69
546.67	44362.51
546.83	44191.65
547.00	43976.33
547.17	44105.06
547.34	44158.89
547.50	44463.16
547.67	44332.09
547.84	44383.58
548.00	44339.11
548.17	44680.83
548.34	44685.51
548.51	44589.55
548.67	44774.45
548.84	44575.50
549.01	44788.49
549.18	44531.03
549.34	44725.30
549.51	44891.48
549.68	44935.95
549.84	44638.70
550.01	45043.61
550.18	44659.76
550.34	44746.36
550.51	44568.48
550.68	44755.72
550.84	44556.78
551.01	44814.24
551.18	44992.12
551.34	45198.09
551.51	45158.30
551.68	45361.92
551.84	45567.89
552.01	45069.36
552.18	45209.79
552.34	44746.36
552.51	45338.52
552.68	44910.20
552.84	45453.20
553.01	45570.23
553.18	45134.89
553.34	45340.86
553.51	45052.97
553.67	45170.00
553.84	45563.21
554.01	45397.03
554.17	45598.32
554.34	45963.44
554.51	45673.21
554.67	46183.45
554.84	45436.82
555.00	45261.28
555.17	45460.23
555.33	45691.94
555.50	45640.45
555.67	45448.52
555.83	45600.66
556.00	45904.93
556.16	45914.29
556.33	45476.61
556.50	45457.88
556.66	46019.61
556.83	45825.35
556.99	45755.13
557.16	46092.17
557.32	45598.32
557.49	45958.76
557.65	45794.92
557.82	45420.44
557.98	45890.88
558.15	45867.48
558.32	45909.61
558.48	45626.40
558.65	46019.61
558.81	45675.55
558.98	45895.56
559.14	45684.92
559.31	45942.38
559.47	46073.45
559.64	45918.97
559.80	46340.27
559.97	46288.77
560.13	45970.46
560.30	45979.82
560.46	46450.27
560.63	46302.82
560.79	46518.15
560.96	47082.22
561.12	46293.46
561.29	46473.68
561.45	46110.89
561.61	46483.04
561.78	46422.19
561.94	45682.58
562.11	46267.71
562.27	46567.30
562.44	46164.73
562.60	46550.91
562.77	46330.90
562.93	46539.21
563.10	46438.57
563.26	46169.41
563.42	46471.34
563.59	45940.04
563.75	46232.60
563.92	46469.00
564.08	46794.33
564.24	46508.79
564.41	46387.08
564.57	46653.90
564.74	46506.44
564.90	46323.88
565.07	46550.91
565.23	46557.94
565.39	46237.28
565.56	46693.69
565.72	46426.87
565.88	46469.00
566.05	46164.73
566.21	46459.63
566.38	46443.25
566.54	46586.02
566.70	47070.51
566.87	47096.26
567.03	46808.37
567.19	47388.83
567.36	46424.53
567.52	46178.77
567.68	46756.88
567.85	46597.73
568.01	46745.18
568.17	46707.73
568.34	46447.93
568.50	46464.32
568.66	46607.09
568.83	46309.84
568.99	46131.96
569.15	46562.62
569.32	46564.96
569.48	46021.95
569.64	46885.61
569.81	47072.85
569.97	46586.02
570.13	46969.87
570.30	46473.68
570.46	46277.07
570.62	46480.70
570.78	46417.50
570.95	46169.41
571.11	46925.40
571.27	46890.29
571.43	46817.74
571.60	46639.86
571.76	46529.85
571.92	46827.10
572.09	46548.57
572.25	47049.45
572.41	46389.42
572.57	46897.31
572.74	47182.86
572.90	47178.18
573.06	46873.91
573.22	46740.50
573.38	46951.15
573.55	46838.80
573.71	47047.11
573.87	46986.25
574.03	46387.08
574.20	46635.17
574.36	46997.96
574.52	46579.00
574.68	46693.69
574.84	46595.38
575.01	46822.42
575.17	46614.11
575.33	46459.63
575.49	46829.44
575.65	46274.73
575.82	46763.90
575.98	46897.31
576.14	47103.28
576.30	47026.04
576.46	46674.96
576.62	46834.12
576.79	46674.96
576.95	46902.00
577.11	46848.16
577.27	46653.90
577.43	46712.41
577.59	47133.71
577.75	46483.04
577.92	46169.41
578.08	46096.85
578.24	46604.75
578.40	46541.55
578.56	46244.30
578.72	46663.26
578.88	47049.45
579.04	47084.56
579.21	46824.76
579.37	46817.74
579.53	46745.18
579.69	46820.08
579.85	46658.58
580.01	47161.79
580.17	46993.28
580.33	47000.30
580.49	47536.28
580.65	46749.86
580.82	46756.88
580.98	47084.56
581.14	46815.40
581.30	47161.79
581.46	47313.93
581.62	46953.49
581.78	46981.57
581.94	47232.01
582.10	47023.70
582.26	47063.49
582.42	46958.17
582.58	46777.95
582.74	46927.74
582.90	47014.34
583.06	47313.93
583.22	47084.56
583.38	47437.98
583.54	46878.59
583.70	46864.55
583.86	47264.78
584.02	46787.31
584.18	46834.12
584.34	47386.49
584.50	46965.19
584.66	47021.36
584.82	47119.66
584.98	47419.25
585.14	47082.22
585.30	46810.71
585.46	47306.91
585.62	46368.35
585.78	46726.46
585.94	46368.35
586.10	46862.21
586.26	47009.66
586.42	46850.50
586.58	47047.11
586.74	47213.29
586.90	46883.27
587.06	46838.80
587.22	46981.57
587.38	46649.22
587.54	47510.53
587.70	46838.80
587.86	47107.96
588.02	46646.88
588.18	47077.54
588.34	46679.64
588.49	46211.54
588.65	46361.33
588.81	46185.79
588.97	46679.64
589.13	46412.82
589.29	46571.98
589.45	46656.24
589.61	46653.90
589.77	47114.98
589.93	46824.76
590.08	46892.63
590.24	47152.43
590.40	47075.19
590.56	47246.05
590.72	47154.77
590.88	47096.26
591.04	47063.49
591.20	47442.66
591.35	47578.41
591.51	47599.47
591.67	46880.93
591.83	47056.47
591.99	46981.57
592.15	47150.09
592.31	47047.11
592.46	46997.96
592.62	47171.16
592.78	47236.69
592.94	46925.40
593.10	46990.94
593.26	47203.92
593.41	46691.35
593.57	47030.72
593.73	47173.50
593.89	47105.62
594.05	46937.10
594.20	47133.71
594.36	47068.17
594.52	46841.14
594.68	46581.34
594.84	46831.78
594.99	47306.91
595.15	47086.90
595.31	47217.97
595.47	47330.31
595.62	47054.13
595.78	47213.29
595.94	47447.34
596.10	46913.70
596.25	46934.76
596.41	47021.36
596.57	47196.90
596.73	47339.68
596.88	47054.13
597.04	46803.69
597.20	47201.58
597.36	47164.14
597.51	47091.58
597.67	47508.19
597.83	47480.11
597.99	47114.98
598.14	47330.31
598.30	47026.04
598.46	47381.80
598.61	46843.48
598.77	46946.47
598.93	46824.76
599.09	47210.95
599.24	47655.65
599.40	47386.49
599.56	46799.01
599.71	46948.81
599.87	47086.90
600.03	47320.95
600.18	47033.07
600.34	47103.28
600.50	47058.81
600.65	46913.70
600.81	47014.34
600.97	47196.90
601.12	47164.14
601.28	46972.21
601.44	46948.81
601.59	47061.15
601.75	46974.55
601.91	46822.42
602.06	47016.68
602.22	47054.13
602.37	47297.55
602.53	47337.33
602.69	47210.95
602.84	46883.27
603.00	47014.34
603.16	47435.64
603.31	46637.51
603.47	47058.81
603.62	46920.72
603.78	47187.54
603.94	46796.67
604.09	47281.16
604.25	47583.09
604.40	47007.32
604.56	47164.14
604.71	47175.84
604.87	46789.65
605.03	47318.61
605.18	46630.49
605.34	46490.06
605.49	47061.15
605.65	46890.29
605.80	47147.75
605.96	46836.46
606.12	47166.48
606.27	47145.41
606.43	46876.25
606.58	47313.93
606.74	46689.01
606.89	46581.34
607.05	47107.96
607.20	46796.67
607.36	46995.62
607.51	47129.03
607.67	46667.94
607.82	46773.27
607.98	46569.64
608.13	46670.28
608.29	46719.43
608.44	46344.95
608.60	46288.77
608.75	46204.52
608.91	46728.80
609.06	46745.18
609.22	46466.66
609.37	46548.57
609.53	46412.82
609.68	46733.48
609.84	46153.02
609.99	46103.87
610.15	46330.90
610.30	46227.92
610.46	46080.47
610.61	46141.32
610.76	46092.17
610.92	46356.65
611.07	46560.28
611.23	46646.88
611.38	46747.52
611.54	46335.59
611.69	46138.98
611.84	45808.96
612.00	46094.51
612.15	46277.07
612.31	46312.18
612.46	46298.14
612.62	45937.69
612.77	46054.72
612.92	46431.55
613.08	45778.54
613.23	46394.10
613.39	45900.25
613.54	45748.11
613.69	45862.80
613.85	46054.72
614.00	45539.80
614.15	46738.16
614.31	46258.35
614.46	46291.12
614.62	46064.08
614.77	45830.03
614.92	46197.49
615.08	45680.24
615.23	45523.42
615.38	45558.53
615.54	45624.06
615.69	45640.45
615.84	45500.01
616.00	45469.59
616.15	45640.45
616.30	45645.13
616.46	45069.36
616.61	45181.70
616.76	45263.62
616.92	45055.31
617.07	45359.58
617.22	45464.91
617.37	45390.01
617.53	45743.43
617.68	45450.86
617.83	45624.06
617.99	45553.85
618.14	45462.57
618.29	45268.30
618.45	45263.62
618.60	44889.13
618.75	45408.73
618.90	44999.14
619.06	44847.00
619.21	44954.67
619.36	45378.31
619.51	45364.26
619.67	44928.92
619.82	44900.84
619.97	45296.39
620.12	44722.96
620.28	44619.97
620.43	45247.24
620.58	45162.98
620.73	44657.42
620.89	44704.23
621.04	44737.00
621.19	44994.46
621.34	45174.68
621.49	44610.61
621.65	44561.46
621.80	44760.40
621.95	44399.96
622.10	44907.86
622.25	44753.38
622.41	44191.65
622.56	44339.11
622.71	44526.35
622.86	44641.04
623.01	44250.17
623.16	44669.12
623.32	44477.20
623.47	44421.03
623.62	44306.34
623.77	44645.72
623.92	44271.23
624.07	44144.84
624.23	43915.47
624.38	43756.32
624.53	44095.69
624.68	44119.10
624.83	44163.57
624.98	44198.68
625.13	44093.35
625.29	43880.36
625.44	43728.23
625.59	43679.08
625.74	43243.74
625.89	43543.33
626.04	43253.10
626.19	43643.97
626.34	43871.00
626.49	43999.73
626.65	43770.36
626.80	44074.63
626.95	43903.77
627.10	43723.55
627.25	43552.69
627.40	43210.97
627.55	43157.14
627.70	42906.70
627.85	43105.65
628.00	43014.37
628.15	43391.19
628.30	42658.60
628.45	43604.18
628.60	43351.40
628.76	43351.40
628.91	43414.60
629.06	43545.67
629.21	43086.92
629.36	43234.38
629.51	42906.70
629.66	42806.06
629.81	42314.55
629.96	42373.06
630.11	43260.12
630.26	42986.28
630.41	43175.86
630.56	42997.98
630.71	43168.84
630.86	42981.60
631.01	42731.16
631.16	42902.02
631.31	42548.60
631.46	42281.78
631.61	42328.59
631.76	42700.73
631.91	42869.25
632.06	42679.67
632.21	42895.00
632.36	42913.72
632.51	42534.56
632.66	42197.52
632.81	42293.48
632.96	42408.17
633.10	42052.41
633.25	42756.91
633.40	42670.31
633.55	42534.56
633.70	42321.57
633.85	42174.11
634.00	42763.93
634.15	42139.00
634.30	42321.57
634.45	42199.86
634.60	42436.25
634.75	42312.20
634.90	42244.33
635.05	42195.18
635.19	42199.86
635.34	42506.47
635.49	41383.01
635.64	42007.94
635.79	41951.76
635.94	41825.37
636.09	41825.37
636.24	41748.14
636.39	42103.90
636.53	41558.55
636.68	41846.44
636.83	42143.69
636.98	42031.34
637.13	41542.17
637.28	42206.88
637.43	41895.59
637.57	41975.17
637.72	41731.75
637.87	41558.55
638.02	41902.61
638.17	41413.44
638.32	41607.70
638.46	41600.68
638.61	41324.50
638.76	41511.74
638.91	42101.56
639.06	41493.02
639.20	42007.94
639.35	41453.23
639.50	41291.73
639.65	41729.41
639.80	41478.97
639.94	41249.60
640.09	41088.10
640.24	40865.75
640.39	41036.61
640.54	41195.77
640.68	40751.07
640.83	40903.20
640.98	40975.76
641.13	40720.64
641.27	41326.84
641.42	40978.10
641.57	41326.84
641.72	41097.47
641.86	40374.24
642.01	40737.02
642.16	41202.79
642.31	40430.41
642.45	40811.92
642.60	40390.62
642.75	40727.66
642.90	41001.50
643.04	40751.07
643.19	40830.65
643.34	41202.79
643.48	40327.43
643.63	40399.99
643.78	40247.85
643.93	39915.50
644.07	40128.48
644.22	40371.90
644.37	39674.42
644.51	40004.44
644.66	40425.73
644.81	40278.28
644.95	40591.91
645.10	40257.21
645.25	40432.75
645.39	40783.83
645.54	40622.34
645.69	40201.04
645.83	40137.85
645.98	40187.00
646.13	40055.93
646.27	40285.30
646.42	40243.17
646.57	40264.24
646.71	40240.83
646.86	40449.14
647.00	40519.35
647.15	40041.88
647.30	39805.49
647.44	39735.27
647.59	39847.62
647.74	39615.91
647.88	39674.42
648.03	39828.90
648.17	39573.78
648.32	39562.08
648.47	39641.65
648.61	39524.63
648.76	39995.07
648.90	39796.13
649.05	40098.06
649.20	39386.54
649.34	39613.57
649.49	39461.43
649.63	39222.70
649.78	39257.81
649.92	39281.21
650.07	39538.67
650.21	39086.95
650.36	39283.55
650.51	39243.76
650.65	40025.50
650.80	39597.18
650.94	39728.25
651.09	39182.91
651.23	39365.47
651.38	39264.83
651.52	38960.56
651.67	39044.82
651.81	38869.28
651.96	38820.13
652.10	38506.49
652.25	38986.30
652.39	38930.13
652.54	39264.83
652.68	39496.54
652.83	39175.89
652.97	38857.57
653.12	38934.81
653.26	38848.21
653.41	39108.01
653.55	39075.24
653.70	38728.84
653.84	38731.18
653.99	38653.95
654.13	38572.03
654.27	38623.52
654.42	38094.56
654.56	38052.43
654.71	38548.62
654.85	38557.99
655.00	38789.70
655.14	38513.52
655.29	38059.45
655.43	38005.62
655.57	37799.65
655.72	37500.06
655.86	37081.11
656.01	37614.75
656.15	37584.32
656.30	37900.29
656.44	38110.94
656.58	37596.03
656.73	38005.62
656.87	38099.24
657.01	37816.04
657.16	37862.85
657.30	38022.00
657.45	37457.93
657.59	37577.30
657.73	37448.57
657.88	38431.60
658.02	38356.70
658.16	38014.98
658.31	38277.12
658.45	37790.29
658.60	38117.96
658.74	37996.26
658.88	37816.04
659.03	37556.24
659.17	37579.64
659.31	37081.11
659.46	37677.94
659.60	37308.14
659.74	37628.79
659.89	37668.58
660.03	36711.30
660.17	37574.96
660.32	36992.17
660.46	37041.32
660.60	37125.58
660.74	37006.21
660.89	36907.91
661.03	36685.56
661.17	36961.74
661.32	36601.30
661.46	36493.63
661.60	37338.57
661.74	36950.04
661.89	36814.29
662.03	36828.33
662.17	36343.84
662.31	36568.53
662.46	36369.58
662.60	36474.91
662.74	36762.79
662.88	36400.01
663.03	36039.57
663.17	36664.49
663.31	35976.37
663.45	36114.47
663.60	36219.79
663.74	35976.37
663.88	36032.55
664.02	35414.65
664.17	35894.46
664.31	36044.25
664.45	35845.30
664.59	35709.55
664.73	36123.83
664.88	35751.68
665.02	35377.20
665.16	35592.53
665.30	35215.70
665.44	35557.42
665.59	34902.07
665.73	35054.20
665.87	35229.74
666.01	35360.81
666.15	35367.84
666.29	35260.17
666.44	35550.40
666.58	35159.53
666.72	35131.44
666.86	34986.33
667.00	35054.20
667.14	35098.67
667.28	34628.23
667.43	34553.33
667.57	35056.54
667.71	34302.89
667.85	34838.87
667.99	34663.33
668.13	34558.01
668.27	34455.03
668.41	34190.55
668.56	34377.79
668.70	34478.43
668.84	34499.50
668.98	34024.37
669.12	33881.60
669.26	33890.96
669.40	33720.10
669.54	33783.29
669.68	33830.10
669.82	33586.69
669.96	33745.84
670.10	33322.21
670.25	33993.94
670.39	33752.87
670.53	33495.41
670.67	33216.88
670.81	33298.80
670.95	33202.84
671.09	33539.88
671.23	33668.61
671.37	33170.07
671.51	33074.11
671.65	32797.93
671.79	32465.57
671.93	32879.85
672.07	33287.10
672.21	32795.59
672.35	32598.98
672.49	32875.16
672.63	32734.73
672.77	32627.07
672.91	32776.86
673.05	32442.17
673.19	32100.45
673.33	32610.68
673.47	31957.67
673.61	32311.10
673.75	31906.18
673.89	32119.17
674.03	31985.76
674.17	32121.51
674.31	32004.49
674.45	31435.74
674.59	31419.35
674.73	31679.15
674.87	31831.29
675.01	31185.30
675.15	31564.46
675.29	31241.47
675.43	31175.94
675.56	31763.41
675.70	31311.69
675.84	31002.74
675.98	30125.04
676.12	30859.96
676.26	31517.65
676.40	30747.62
676.54	30824.86
676.68	30831.88
676.82	30178.87
676.96	30941.88
677.10	30363.77
677.23	30422.28
677.37	29951.84
677.51	30244.40
677.65	29837.15
677.79	29376.06
677.93	29851.19
678.07	29448.62
678.21	29266.06
678.34	28903.28
678.48	29565.65
678.62	29198.18
678.76	29097.54
678.90	28945.41
679.04	28603.69
679.18	28741.78
679.31	28481.98
679.45	28205.80
679.59	28524.11
679.73	28659.86
679.87	28432.83
680.00	28156.64
680.14	28151.96
680.28	28236.22
680.42	28432.83
680.56	28093.45
680.70	27955.36
680.83	28168.35
680.97	27690.88
681.11	27946.00
681.25	27529.38
681.39	27749.39
681.52	27733.01
681.66	27211.07
681.80	27393.63
681.94	27182.98
682.07	27353.84
682.21	27131.49
682.35	27049.57
682.49	26977.01
682.62	27009.78
682.76	26551.04
682.90	26700.83
683.04	26635.30
683.17	26199.96
683.31	26284.22
683.45	26293.58
683.59	26429.33
683.72	25701.42
683.86	25806.75
684.00	25778.66
684.13	26206.98
684.27	25692.06
684.41	25465.03
684.55	25373.75
684.68	25422.90
684.82	25626.53
684.96	25525.88
685.09	25235.66
685.23	25315.23
685.37	25296.51
685.50	25228.63
685.64	24910.32
685.78	25085.86
685.91	24634.14
686.05	24711.38
686.19	24414.13
686.32	24383.70
686.46	23620.69
686.60	23639.41
686.73	23812.61
686.87	23339.82
687.01	23550.47
687.14	23000.44
687.28	23396.00
687.42	23391.31
687.55	23346.84
687.69	23346.84
687.82	23206.41
687.96	23506.00
688.10	23325.78
688.23	23236.84
688.37	22602.55
688.50	22836.61
688.64	22981.72
688.78	22970.02
688.91	22621.28
689.05	22609.58
689.18	22609.58
689.32	22134.45
689.46	22352.12
689.59	22211.68
689.73	22789.80
689.86	22244.45
690.00	22242.11
690.13	22059.55
690.27	21926.14
690.41	21759.96
690.54	21673.36
690.68	21273.13
690.81	21390.16
690.95	21135.04
691.08	21486.12
691.22	21357.39
691.35	21151.42
691.49	21516.54
691.62	21226.32
691.76	20905.66
691.89	20875.24
692.03	20973.54
692.16	21018.01
692.30	20837.79
692.43	20526.50
692.57	20152.01
692.70	20430.54
692.84	20664.59
692.97	20290.10
693.11	20463.30
693.24	19901.58
693.38	20102.86
693.51	19969.45
693.65	19985.83
693.78	19852.42
693.92	19840.72
694.05	19826.68
694.19	19653.48
694.32	19573.90
694.45	19442.83
694.59	19152.60
694.72	19293.04
694.86	19164.31
694.99	18827.27
695.13	19091.75
695.26	19061.32
695.39	18953.66
695.53	18801.52
695.66	19421.77
695.80	19110.47
695.93	19171.33
696.07	18569.81
696.20	18679.82
696.33	18625.98
696.47	18305.33
696.60	18501.93
696.73	18115.75
696.87	18223.41
697.00	18085.32
697.14	18354.48
697.27	18001.06
697.40	17706.15
697.54	17895.74
697.67	17649.98
697.80	17713.17
697.94	17600.83
698.07	17401.88
698.21	17312.94
698.34	17205.28
698.47	17153.79
698.61	16875.26
698.74	16603.76
698.87	16655.25
699.01	16620.14
699.14	16596.74
699.27	16397.79
699.40	16517.16
699.54	16475.03
699.67	16575.67
699.80	16308.85
699.94	16545.25
700.07	16610.78
700.20	16444.60
700.34	16084.16
700.47	15941.39
700.60	16196.51
700.73	15896.92
700.87	16140.33
701.00	16013.95
701.13	15899.26
701.26	15765.85
701.40	15712.02
701.53	15552.86
701.66	15405.41
701.79	15382.00
701.93	15520.09
702.06	15206.46
702.19	14972.41
702.32	15152.63
702.46	15094.11
702.59	15070.71
702.72	15080.07
702.85	14986.45
702.99	15101.14
703.12	14890.49
703.25	14471.53
703.38	14333.44
703.51	14483.24
703.65	14602.60
703.78	14408.34
703.91	14382.59
704.04	14614.30
704.17	14506.64
704.31	14265.57
704.44	14281.95
704.57	13809.16
704.70	14043.21
704.83	13963.64
704.96	13862.99
705.10	14003.43
705.23	13930.87
>>>>>End Processed Spectral Data<<<<<
