SpectraSuite Data File
++++++++++++++++++++++++++++++++++++
Date: Fri Oct 25 11:33:14 EDT 2013
User: price-jones
Dark Spectrum Present: No
Reference Spectrum Present: No
Number of Sampled Component Spectra: 1
Spectrometers: USB2+H05261
Integration Time (usec): 100000 (USB2+H05261)
Spectra Averaged: 1 (USB2+H05261)
Boxcar Smoothing: 0 (USB2+H05261)
Correct for Electrical Dark: No (USB2+H05261)
Strobe/Lamp Enabled: No (USB2+H05261)
Correct for Detector Non-linearity: No (USB2+H05261)
Correct for Stray Light: No (USB2+H05261)
Number of Pixels in Processed Spectrum: 2048
>>>>>Begin Processed Spectral Data<<<<<
365.73	266.82
365.92	266.82
366.12	266.82
366.32	212.99
366.52	224.69
366.72	168.52
366.91	189.58
367.11	135.75
367.31	205.97
367.51	145.11
367.70	166.18
367.90	161.50
368.10	177.88
368.30	191.92
368.49	170.86
368.69	135.75
368.89	166.18
369.09	182.56
369.28	191.92
369.48	224.69
369.68	266.82
369.87	182.56
370.07	252.78
370.27	339.38
370.47	344.06
370.66	421.30
370.86	475.13
371.06	561.73
371.25	610.88
371.45	578.11
371.65	603.86
371.84	517.26
372.04	557.05
372.24	528.96
372.44	503.22
372.63	622.58
372.83	622.58
373.03	589.82
373.22	566.41
373.42	655.35
373.62	575.77
373.81	585.13
374.01	645.99
374.21	617.90
374.40	587.47
374.60	706.84
374.79	716.20
374.99	669.39
375.19	606.20
375.38	718.54
375.58	676.41
375.78	664.71
375.97	655.35
376.17	739.61
376.37	723.23
376.56	737.27
376.76	627.26
376.95	641.31
377.15	678.76
377.35	709.18
377.54	627.26
377.74	744.29
377.93	613.22
378.13	688.12
378.33	643.65
378.52	723.23
378.72	727.91
378.91	812.17
379.11	730.25
379.31	678.76
379.50	699.82
379.70	737.27
379.89	793.44
380.09	711.52
380.28	788.76
380.48	660.03
380.68	702.16
380.87	688.12
381.07	671.73
381.26	741.95
381.46	748.97
381.65	734.93
381.85	784.08
382.04	795.78
382.24	791.10
382.43	842.59
382.63	812.17
382.83	819.19
383.02	770.04
383.22	763.01
383.41	772.38
383.61	842.59
383.80	849.61
384.00	880.04
384.19	809.83
384.39	802.80
384.58	875.36
384.78	896.43
384.97	898.77
385.17	812.17
385.36	861.32
385.56	887.06
385.75	816.85
385.95	880.04
386.14	873.02
386.34	821.53
386.53	894.08
386.72	847.27
386.92	922.17
387.11	863.66
387.31	894.08
387.50	917.49
387.70	844.93
387.89	908.13
388.09	966.64
388.28	915.15
388.48	866.00
388.67	919.83
388.86	903.45
389.06	912.81
389.25	961.96
389.45	973.66
389.64	929.19
389.84	933.87
390.03	959.62
390.22	964.30
390.42	922.17
390.61	915.15
390.81	1081.33
391.00	971.32
391.19	1036.86
391.39	1046.22
391.58	1032.18
391.78	1039.20
391.97	1025.15
392.16	1018.13
392.36	1057.92
392.55	1064.94
392.75	992.39
392.94	1076.65
393.13	1057.92
393.33	1095.37
393.52	1067.28
393.71	1071.97
393.91	1123.46
394.10	1172.61
394.29	1196.01
394.49	1090.69
394.68	1107.07
394.88	1057.92
395.07	1125.80
395.26	1163.25
395.46	1090.69
395.65	1116.44
395.84	1135.16
396.04	1245.16
396.23	1228.78
396.42	1170.27
396.62	1240.48
396.81	1259.21
397.00	1179.63
397.19	1167.93
397.39	1198.35
397.58	1324.74
397.77	1210.06
397.97	1263.89
398.16	1277.93
398.35	1256.87
398.55	1273.25
398.74	1376.24
398.93	1432.41
399.12	1266.23
399.32	1303.68
399.51	1301.34
399.70	1322.40
399.90	1303.68
400.09	1263.89
400.28	1296.66
400.47	1416.02
400.67	1432.41
400.86	1324.74
401.05	1385.60
401.24	1413.68
401.44	1502.62
401.63	1387.94
401.82	1430.07
402.01	1556.46
402.21	1467.52
402.40	1507.30
402.59	1474.54
402.78	1416.02
402.97	1537.73
403.17	1612.63
403.36	1579.86
403.55	1619.65
403.74	1612.63
403.93	1516.67
404.13	1582.20
404.32	1549.43
404.51	1563.48
404.70	1621.99
404.89	1598.59
405.09	1659.44
405.28	1757.74
405.47	1680.50
405.66	1666.46
405.85	1788.17
406.05	1739.02
406.24	1713.27
406.43	1692.21
406.62	1771.79
406.81	1846.68
407.00	1797.53
407.20	1816.26
407.39	1764.76
407.58	1851.36
407.77	1874.77
407.96	1886.47
408.15	1923.92
408.34	1914.56
408.54	1884.13
408.73	1893.49
408.92	1818.60
409.11	2097.12
409.30	2052.65
409.49	2050.31
409.68	1888.81
409.87	1966.05
410.07	2097.12
410.26	2097.12
410.45	2099.46
410.64	2047.97
410.83	2136.91
411.02	2230.53
411.21	2202.44
411.40	2085.42
411.59	2167.34
411.78	2197.76
411.98	2298.41
412.17	2186.06
412.36	2385.01
412.55	2265.64
412.74	2410.75
412.93	2282.02
413.12	2349.90
413.31	2396.71
413.50	2422.45
413.69	2424.80
413.88	2457.56
414.07	2530.12
414.26	2530.12
414.45	2492.67
414.64	2490.33
414.83	2490.33
415.02	2537.14
415.22	2649.49
415.41	2705.66
415.60	2757.15
415.79	2586.29
415.98	2750.13
416.17	2726.72
416.36	2855.45
416.55	2764.17
416.74	2808.64
416.93	2876.52
417.12	2810.98
417.31	2857.79
417.50	2855.45
417.69	2956.10
417.88	2904.60
418.07	3019.29
418.26	2864.82
418.45	3077.80
418.64	3150.36
418.83	3052.06
419.02	3021.63
419.21	3101.21
419.39	3042.70
419.58	3126.96
419.77	3145.68
419.96	3199.51
420.15	3183.13
420.34	2960.78
420.53	3321.22
420.72	3314.20
420.91	3335.26
421.10	3337.60
421.29	3330.58
421.48	3246.32
421.67	3234.62
421.86	3201.85
422.05	3318.88
422.24	3440.59
422.43	3337.60
422.61	3337.60
422.80	3328.24
422.99	3417.18
423.18	3358.67
423.37	3522.51
423.56	3279.09
423.75	3400.80
423.94	3346.97
424.13	3274.41
424.32	3358.67
424.50	3361.01
424.69	3522.51
424.88	3646.55
425.07	3456.97
425.26	3365.69
425.45	3438.25
425.64	3454.63
425.83	3522.51
426.01	3358.67
426.20	3501.44
426.39	3524.85
426.58	3463.99
426.77	3447.61
426.96	3459.31
427.15	3604.42
427.33	3590.38
427.52	3454.63
427.71	3669.96
427.90	3749.54
428.09	3803.37
428.28	3641.87
428.46	3604.42
428.65	3695.71
428.84	3684.00
429.03	3779.97
429.22	3810.39
429.40	3850.18
429.59	3794.01
429.78	3592.72
429.97	3616.13
430.16	3847.84
430.34	3941.46
430.53	3964.87
430.72	3864.22
430.91	3967.21
431.10	3899.33
431.28	3904.01
431.47	3955.51
431.66	4184.88
431.85	3911.04
432.03	4060.83
432.22	4077.21
432.41	4149.77
432.60	3932.10
432.79	3964.87
432.97	4201.26
433.16	4236.37
433.35	4098.28
433.54	4173.18
433.72	4182.54
433.91	4173.18
434.10	4292.54
434.28	4128.70
434.47	4201.26
434.66	4297.22
434.85	4339.35
435.03	4367.44
435.22	4320.63
435.41	4552.34
435.59	4477.44
435.78	4489.15
435.97	4383.82
436.16	4451.70
436.34	4432.97
436.53	4503.19
436.72	4533.62
436.90	4470.42
437.09	4580.43
437.28	4430.63
437.46	4545.32
437.65	4580.43
437.84	4699.80
438.02	4631.92
438.21	4585.11
438.40	4634.26
438.58	4720.86
438.77	4826.18
438.96	4667.03
439.14	4856.61
439.33	4924.49
439.52	4994.70
439.70	4971.30
439.89	5128.11
440.08	5095.35
440.26	5095.35
440.45	5135.14
440.63	5081.30
440.82	5165.56
441.01	5242.80
441.19	5205.35
441.38	5298.97
441.57	5284.93
441.75	5547.07
441.94	5392.59
442.12	5474.51
442.31	5479.19
442.50	5474.51
442.68	5497.92
442.87	5476.85
443.05	5453.45
443.24	5652.39
443.43	5710.91
443.61	5682.82
443.80	5757.72
443.98	5657.07
444.17	5462.81
444.35	5650.05
444.54	5841.98
444.73	5535.37
444.91	5717.93
445.10	5586.86
445.28	5497.92
445.47	5628.99
445.65	5596.22
445.84	5680.48
446.02	5757.72
446.21	5680.48
446.39	5612.60
446.58	5748.36
446.77	5771.76
446.95	5600.90
447.14	5675.80
447.32	5748.36
447.51	5673.46
447.69	5767.08
447.88	5844.32
448.06	5818.57
448.25	5916.87
448.43	5919.21
448.62	5797.51
448.80	5771.76
448.99	5891.13
449.17	5813.89
449.36	5701.54
449.54	6134.54
449.73	5856.02
449.91	6054.97
450.10	6090.07
450.28	6136.88
450.46	6167.31
450.65	6115.82
450.83	6209.44
451.02	6097.10
451.20	6258.59
451.39	6080.71
451.57	6162.63
451.76	6118.16
451.94	6115.82
452.13	6436.47
452.31	6181.35
452.49	6190.72
452.68	6296.04
452.86	6438.81
453.05	6459.88
453.23	6394.34
453.42	6317.11
453.60	6289.02
453.78	6530.09
453.97	6513.71
454.15	6480.94
454.34	6375.62
454.52	6567.54
454.70	6504.35
454.89	6579.25
455.07	6539.46
455.26	6511.37
455.44	6506.69
455.62	6665.85
455.81	6670.53
455.99	6619.04
456.17	6806.28
456.36	6808.62
456.54	6839.05
456.73	7136.29
456.91	6932.67
457.09	7157.36
457.28	7218.21
457.46	7087.14
457.64	7094.16
457.83	7009.90
458.01	7030.97
458.19	7274.38
458.38	7119.91
458.56	7386.73
458.74	7267.36
458.93	7314.17
459.11	7239.28
459.29	7288.43
459.48	7365.67
459.66	7382.05
459.84	7192.47
460.03	7480.35
460.21	7508.44
460.39	7265.02
460.57	7541.21
460.76	7377.37
460.94	7524.82
461.12	7679.30
461.31	7679.30
461.49	7557.59
461.67	7559.93
461.85	7777.60
462.04	7503.76
462.22	8107.62
462.40	7691.00
462.59	7808.03
462.77	7885.26
462.95	7775.26
463.13	7789.30
463.32	7761.22
463.50	7932.08
463.68	8079.53
463.86	8035.06
464.05	7847.82
464.23	7999.95
464.41	8072.51
464.59	7815.05
464.78	8013.99
464.96	8081.87
465.14	7836.11
465.32	8063.15
465.50	8234.00
465.69	8231.66
465.87	8002.29
466.05	8215.28
466.23	8423.59
466.41	8318.26
466.60	8332.31
466.78	8168.47
466.96	8444.65
467.14	8306.56
467.32	8381.46
467.51	8297.20
467.69	8114.64
467.87	8379.12
468.05	8645.94
468.23	8332.31
468.41	8423.59
468.60	8629.56
468.78	8847.22
468.96	8489.12
469.14	8592.11
469.32	8744.24
469.50	8573.38
469.69	8713.81
469.87	8802.75
470.05	8865.95
470.23	8929.14
470.41	8985.32
470.59	9039.15
470.77	8816.80
470.95	8882.33
471.14	9132.77
471.32	8805.10
471.50	9100.00
471.68	9102.34
471.86	9151.49
472.04	9350.44
472.22	9404.27
472.40	9137.45
472.58	9252.14
472.77	9334.06
472.95	9518.96
473.13	9755.35
473.31	9366.82
473.49	9596.20
473.67	9481.51
473.85	9593.86
474.03	9654.71
474.21	9727.27
474.39	9998.77
474.57	9856.00
474.75	9902.81
474.93	10118.14
475.12	9982.38
475.30	9933.23
475.48	10146.22
475.66	10232.82
475.84	10193.03
476.02	10256.23
476.20	10427.09
476.38	10413.04
476.56	10562.84
476.74	10562.84
476.92	10707.95
477.10	10572.20
477.28	10724.33
477.46	10780.51
477.64	10803.91
477.82	11047.33
478.00	11178.40
478.18	11126.91
478.36	11337.56
478.54	11480.33
478.72	11559.91
478.90	11515.44
479.08	11775.24
479.26	11915.67
479.44	11896.94
479.62	11740.13
479.80	12116.95
479.98	11962.48
480.16	12531.23
480.34	12180.15
480.52	12369.73
480.70	12313.56
480.88	12128.66
481.06	12496.12
481.24	12681.02
481.41	12732.51
481.59	12791.03
481.77	13043.81
481.95	12922.10
482.13	13242.75
482.31	13245.09
482.49	13486.17
482.67	13385.52
482.85	13427.65
483.03	13392.55
483.21	13743.63
483.39	13860.65
483.57	14068.96
483.74	14099.39
483.92	14225.78
484.10	14026.83
484.28	14464.51
484.46	14581.54
484.64	14794.53
484.82	14621.33
485.00	14743.03
485.18	14986.45
485.35	15143.27
485.53	15059.01
485.71	15143.27
485.89	15396.04
486.07	15499.03
486.25	15517.75
486.43	15594.99
486.61	15864.15
486.78	16088.84
486.96	15953.09
487.14	16149.70
487.32	16243.32
487.50	16554.61
487.68	16336.94
487.85	16753.55
488.03	16753.55
488.21	17106.98
488.39	17067.19
488.57	17137.40
488.75	17259.11
488.92	17350.39
489.10	17476.78
489.28	17633.60
489.46	18167.24
489.64	17919.14
489.81	18359.16
489.99	18291.29
490.17	18523.00
490.35	18604.92
490.53	18494.91
490.70	18743.01
490.88	18806.20
491.06	18838.97
491.24	19075.37
491.41	19337.51
491.59	19386.66
491.77	19227.50
491.95	19679.22
492.13	19679.22
492.30	19747.10
492.48	19927.32
492.66	19857.10
492.84	20224.57
493.01	20531.18
493.19	20376.70
493.37	20496.07
493.54	20559.27
493.72	20425.86
493.90	20751.19
494.08	21032.05
494.25	21018.01
494.43	21172.49
494.61	20945.45
494.79	21326.96
494.96	21378.45
495.14	21687.40
495.32	21891.03
495.49	21722.51
495.67	21933.16
495.85	22061.89
496.02	22204.66
496.20	22361.48
496.38	22436.38
496.55	22614.26
496.73	23091.73
496.91	22719.58
497.09	22726.60
497.26	23335.14
497.44	22822.56
497.62	23110.45
497.79	23377.27
497.97	23435.78
498.14	23580.90
498.32	23927.30
498.50	23756.44
498.67	24301.78
498.85	24269.01
499.03	24364.98
499.20	24430.51
499.38	24343.91
499.56	24753.51
499.73	24692.65
499.91	24643.50
500.08	24931.39
500.26	24694.99
500.44	24877.55
500.61	24884.58
500.79	25102.25
500.97	25369.07
501.14	25614.82
501.32	25289.49
501.49	25612.48
501.67	25420.56
501.84	25685.04
502.02	25420.56
502.20	25638.23
502.37	25778.66
502.55	26080.59
502.72	26150.81
502.90	26045.48
503.07	26092.29
503.25	26595.51
503.43	26164.85
503.60	26455.08
503.78	26810.84
503.95	26967.65
504.13	26534.65
504.30	27007.44
504.48	26534.65
504.65	26864.67
504.83	27035.53
505.01	27449.80
505.18	27637.05
505.36	27391.29
505.53	27372.57
505.71	27342.14
505.88	27550.45
506.06	27510.66
506.23	27887.48
506.41	27548.11
506.58	27831.31
506.76	28451.55
506.93	28383.68
507.11	28400.06
507.28	28339.21
507.46	28292.40
507.63	28573.26
507.81	28610.71
507.98	28671.56
508.16	28936.04
508.33	28620.07
508.50	28659.86
508.68	28863.49
508.85	29202.86
509.03	29195.84
509.20	29263.72
509.38	29397.13
509.55	29390.11
509.73	29249.67
509.90	29769.27
510.08	29771.61
510.25	29773.95
510.42	29893.32
510.60	30183.55
510.77	30342.70
510.95	30169.51
511.12	30256.11
511.30	30068.86
511.47	30494.84
511.64	30223.34
511.82	30635.27
511.99	30574.42
512.17	31264.88
512.34	30885.71
512.51	31133.81
512.69	30941.88
512.86	30984.01
513.04	31019.12
513.21	31124.44
513.38	31094.02
513.56	31367.86
513.73	31276.58
513.90	31501.27
514.08	31321.05
514.25	31648.72
514.43	32161.30
514.60	31934.27
514.77	32130.87
514.95	32229.18
515.12	32002.14
515.29	31742.35
515.47	32320.46
515.64	32526.42
515.81	32070.02
515.99	32451.53
516.16	32783.88
516.33	32519.40
516.51	32877.51
516.68	32790.91
516.85	32577.92
517.03	33013.26
517.20	33118.58
517.37	32961.76
517.54	32926.66
517.72	32842.40
517.89	33317.53
518.06	33259.01
518.24	33371.36
518.41	33511.79
518.58	33516.47
518.75	33476.68
518.93	33422.85
519.10	33663.93
519.27	33855.85
519.45	33919.04
519.62	33710.74
519.79	34122.67
519.96	33612.43
520.14	34089.90
520.31	33881.60
520.48	34050.11
520.65	34265.44
520.83	34543.97
521.00	34780.36
521.17	34881.00
521.34	35175.91
521.52	34962.92
521.69	34323.96
521.86	34958.24
522.03	35117.40
522.20	35065.91
522.38	35314.00
522.55	35620.61
522.72	35534.01
522.89	35311.66
523.07	35452.09
523.24	35494.22
523.41	35548.06
523.58	35409.96
523.75	35583.16
523.92	35782.11
524.10	35948.29
524.27	35770.41
524.44	35655.72
524.61	36144.89
524.78	36257.24
524.96	36463.21
525.13	36435.12
525.30	36488.95
525.47	36521.72
525.64	36411.71
525.81	37069.40
525.98	36517.04
526.16	36172.98
526.33	36376.61
526.50	36893.86
526.67	36423.42
526.84	36980.46
527.01	36964.08
527.18	37113.87
527.36	37235.58
527.53	37076.43
527.70	37233.24
527.87	37139.62
528.04	37354.95
528.21	36994.51
528.38	37230.90
528.55	37591.34
528.72	37326.86
528.89	37277.71
529.07	37502.40
529.24	37654.54
529.41	38066.47
529.58	37830.08
529.75	37387.72
529.92	37851.14
530.09	37628.79
530.26	37909.66
530.43	38190.52
530.60	37902.64
530.77	37956.47
530.94	38834.17
531.11	37846.46
531.28	38628.20
531.46	38422.23
531.63	38328.61
531.80	37914.34
531.97	38726.50
532.14	39129.08
532.31	38490.11
532.48	38749.91
532.65	38890.34
532.82	38983.96
532.99	38780.34
533.16	38864.60
533.33	38869.28
533.50	39501.22
533.67	39007.37
533.84	39068.22
534.01	39297.59
534.18	39154.82
534.35	39541.01
534.52	39615.91
534.69	39641.65
534.86	39723.57
535.03	39758.68
535.20	39718.89
535.37	39686.12
535.54	40100.40
535.71	39725.91
535.88	40194.02
536.05	39931.88
536.22	40231.47
536.38	39880.39
536.55	40079.33
536.72	39477.82
536.89	40194.02
537.06	40098.06
537.23	40371.90
537.40	40215.08
537.57	39761.02
537.74	40009.12
537.91	40573.19
538.08	40542.76
538.25	40266.58
538.42	40891.50
538.59	40638.72
538.75	40456.16
538.92	40985.12
539.09	41020.23
539.26	41102.15
539.43	40690.21
539.60	40914.90
539.77	41045.97
539.94	41434.50
540.11	41392.37
540.28	41586.64
540.44	40774.47
540.61	40818.94
540.78	40931.29
540.95	41415.78
541.12	40989.80
541.29	41446.21
541.46	41319.82
541.62	41652.17
541.79	41598.34
541.96	40856.39
542.13	41425.14
542.30	41537.49
542.47	41584.30
542.63	41989.21
542.80	41743.45
542.97	42263.05
543.14	42263.05
543.31	42089.85
543.48	42101.56
543.64	42644.56
543.81	42529.87
543.98	42209.22
544.15	42146.03
544.32	42651.58
544.48	42815.42
544.65	42546.26
544.82	42529.87
544.99	42380.08
545.16	42553.28
545.32	42492.43
545.49	42869.25
545.66	43213.31
545.83	43215.65
546.00	43089.26
546.16	42934.79
546.33	42941.81
546.50	42438.59
546.67	42923.08
546.83	42815.42
547.00	42934.79
547.17	42878.61
547.34	43178.20
547.50	43416.94
547.67	43761.00
547.84	43075.22
548.00	43433.32
548.17	43983.35
548.34	43477.79
548.51	44037.18
548.67	43210.97
548.84	43573.75
549.01	43264.80
549.18	43526.94
549.34	43981.01
549.51	43739.93
549.68	43627.59
549.84	43721.21
550.01	43557.37
550.18	43388.85
550.34	44048.88
550.51	44210.38
550.68	43899.09
550.84	43838.23
551.01	43859.30
551.18	44114.42
551.34	44505.29
551.51	44790.83
551.68	44320.38
551.84	44215.06
552.01	44032.50
552.18	44144.84
552.34	44245.49
552.51	44367.20
552.68	44051.22
552.84	44739.34
553.01	44456.14
553.18	44465.50
553.34	44299.32
553.51	44313.36
553.67	44683.17
553.84	44163.57
554.01	44603.59
554.17	44914.88
554.34	44882.11
554.51	45326.81
554.67	44832.96
554.84	45055.31
555.00	44744.02
555.17	44964.03
555.33	45263.62
555.50	45167.66
555.67	45104.46
555.83	45415.76
556.00	45387.67
556.16	45874.50
556.33	44685.51
556.50	45209.79
556.66	45434.48
556.83	45048.29
556.99	45329.16
557.16	45893.22
557.32	45504.70
557.49	46038.34
557.65	45013.18
557.82	45624.06
557.98	45684.92
558.15	45979.82
558.32	45256.60
558.48	45467.25
558.65	45364.26
558.81	45890.88
558.98	45888.54
559.14	45638.11
559.31	45649.81
559.47	45565.55
559.64	45343.20
559.80	45495.33
559.97	45476.61
560.13	45621.72
560.30	45787.90
560.46	46232.60
560.63	46064.08
560.79	45879.18
560.96	45757.47
561.12	46075.79
561.29	46110.89
561.45	46213.88
561.61	45661.51
561.78	46075.79
561.94	45961.10
562.11	46232.60
562.27	45844.07
562.44	46068.76
562.60	46358.99
562.77	46263.03
562.93	46064.08
563.10	46281.75
563.26	46265.37
563.42	46447.93
563.59	46361.33
563.75	45968.12
563.92	46164.73
564.08	46426.87
564.24	46742.84
564.41	46188.13
564.57	46066.42
564.74	46377.72
564.90	46068.76
565.07	46234.94
565.23	46007.91
565.39	46263.03
565.56	46237.28
565.72	46363.67
565.88	46576.66
566.05	46618.79
566.21	46553.26
566.38	46422.19
566.54	46644.54
566.70	46806.03
566.87	46227.92
567.03	46396.44
567.19	46813.05
567.36	46639.86
567.52	46934.76
567.68	46937.10
567.85	46871.57
568.01	46932.42
568.17	46520.49
568.34	46843.48
568.50	47143.07
568.66	46735.82
568.83	46831.78
568.99	46490.06
569.15	47114.98
569.32	46494.74
569.48	46862.21
569.64	46808.37
569.81	46813.05
569.97	47114.98
570.13	47028.38
570.30	46831.78
570.46	46955.83
570.62	46368.35
570.78	46911.36
570.95	47372.44
571.11	47370.10
571.27	46934.76
571.43	46920.72
571.60	47009.66
571.76	46562.62
571.92	47082.22
572.09	46777.95
572.25	46878.59
572.41	47035.41
572.57	46967.53
572.74	47363.08
572.90	47070.51
573.06	47384.15
573.22	47206.26
573.38	47402.87
573.55	47316.27
573.71	47370.10
573.87	47334.99
574.03	46859.87
574.20	47304.57
574.36	47456.70
574.52	47304.57
574.68	47555.00
574.84	47395.85
575.01	47550.32
575.17	47618.20
575.33	47473.09
575.49	47517.56
575.65	47409.89
575.82	47608.84
575.98	47215.63
576.14	47573.73
576.30	47772.67
576.46	47002.64
576.62	47540.96
576.79	47536.28
576.95	46756.88
577.11	47519.90
577.27	47620.54
577.43	47379.46
577.59	47669.69
577.75	47442.66
577.92	46990.94
578.08	47344.36
578.24	47445.00
578.40	47665.01
578.56	47356.06
578.72	47693.10
578.88	47966.94
579.04	47791.40
579.21	47442.66
579.37	47213.29
579.53	47482.45
579.69	47082.22
579.85	47615.86
580.01	47208.61
580.17	47395.85
580.33	47428.62
580.49	47620.54
580.65	47587.77
580.82	47665.01
580.98	47353.72
581.14	47096.26
581.30	47868.64
581.46	47147.75
581.62	47578.41
581.78	47524.58
581.94	48098.01
582.10	47210.95
582.26	47463.72
582.42	47931.83
582.58	48004.39
582.74	47629.90
582.90	47536.28
583.06	48076.94
583.22	47185.20
583.38	47922.47
583.54	47454.36
583.70	47695.44
583.86	47320.95
584.02	47533.94
584.18	48086.31
584.34	48025.45
584.50	47952.90
584.66	47903.74
584.82	47379.46
584.98	48067.58
585.14	47789.06
585.30	47426.28
585.46	47882.68
585.62	47533.94
585.78	47969.28
585.94	47547.98
586.10	47655.65
586.26	47667.35
586.42	47650.97
586.58	48074.60
586.74	47487.13
586.90	47522.24
587.06	47737.57
587.22	47749.27
587.38	47803.10
587.54	47920.13
587.70	48271.21
587.86	47473.09
588.02	47653.31
588.18	47971.62
588.34	47559.69
588.49	48067.58
588.65	47440.32
588.81	47777.36
588.97	47725.86
589.13	47842.89
589.29	47927.15
589.45	47896.72
589.61	47657.99
589.77	47824.17
589.93	48264.19
590.08	48081.63
590.24	48182.27
590.40	48184.61
590.56	48271.21
590.72	47980.98
590.88	47721.18
591.04	48236.10
591.20	48156.52
591.35	48048.86
591.51	48458.45
591.67	48193.97
591.83	48631.65
591.99	48243.12
592.15	48224.40
592.31	48336.74
592.46	47861.61
592.62	48355.47
592.78	48217.38
592.94	48488.88
593.10	48308.66
593.26	48388.24
593.41	48362.49
593.57	48458.45
593.73	48362.49
593.89	48540.37
594.05	48521.65
594.20	48416.32
594.36	48704.21
594.52	48762.72
594.68	48498.24
594.84	48236.10
594.99	48552.07
595.15	48341.42
595.31	48676.12
595.47	48769.74
595.62	48233.76
595.78	48446.75
595.94	48278.23
596.10	48402.28
596.25	48636.33
596.41	48959.33
596.57	48147.16
596.73	48774.42
596.88	48399.94
597.04	48179.93
597.20	48783.79
597.36	48332.06
597.51	47878.00
597.67	48388.24
597.83	48786.13
597.99	48500.58
598.14	48554.41
598.30	48413.98
598.46	48311.00
598.61	48816.55
598.77	48736.98
598.93	48783.79
599.09	48568.46
599.24	48809.53
599.40	48353.13
599.56	48872.73
599.71	49291.68
599.87	49055.29
600.03	48961.67
600.18	48397.60
600.34	48839.96
600.50	48690.16
600.65	48776.76
600.81	48837.62
600.97	48914.86
601.12	48734.63
601.28	48626.97
601.44	48421.00
601.59	48758.04
601.75	48741.66
601.91	48971.03
602.06	48814.21
602.22	48807.19
602.37	48788.47
602.53	48823.58
602.69	48825.92
602.84	48250.14
603.00	48519.31
603.16	48854.00
603.31	48655.06
603.47	48954.64
603.62	48502.92
603.78	48704.21
603.94	48673.78
604.09	48357.81
604.25	48425.68
604.40	48556.75
604.56	48839.96
604.71	48879.75
604.87	48474.84
605.03	48776.76
605.18	48626.97
605.34	48626.97
605.49	48428.02
605.65	48772.08
605.80	48748.68
605.96	48170.57
606.12	48533.35
606.27	48907.83
606.43	48229.08
606.58	48402.28
606.74	48367.17
606.89	48718.25
607.05	48577.82
607.20	48659.74
607.36	48343.77
607.51	48631.65
607.67	48282.91
607.82	48378.87
607.98	48381.21
608.13	48322.70
608.29	48282.91
608.44	48177.59
608.60	48460.79
608.75	48512.28
608.91	48463.13
609.06	48460.79
609.22	48914.86
609.37	48519.31
609.53	48484.20
609.68	48451.43
609.84	48498.24
609.99	48322.70
610.15	48432.71
610.30	48376.53
610.46	48355.47
610.61	48332.06
610.76	48402.28
610.92	48303.98
611.07	48208.01
611.23	48446.75
611.38	48268.87
611.54	48140.14
611.69	48512.28
611.84	48320.36
612.00	47971.62
612.15	48395.26
612.31	47999.71
612.46	47997.37
612.62	47971.62
612.77	48151.84
612.92	48252.48
613.08	48301.64
613.23	47793.74
613.39	48168.22
613.54	47697.78
613.69	48294.61
613.85	47903.74
614.00	48123.75
614.15	47674.37
614.31	47945.87
614.46	48112.05
614.62	48126.10
614.77	47571.39
614.92	48390.58
615.08	47831.19
615.23	48065.24
615.38	48140.14
615.54	47938.85
615.69	48416.32
615.84	47714.16
616.00	47601.82
616.15	47870.98
616.30	47941.19
616.46	47789.06
616.61	48065.24
616.76	47611.18
616.92	47667.35
617.07	47892.04
617.22	47758.63
617.37	47129.03
617.53	47817.14
617.68	47674.37
617.83	47622.88
617.99	48072.26
618.14	48121.41
618.29	47327.97
618.45	47229.67
618.60	47533.94
618.75	47215.63
618.90	47297.55
619.06	47320.95
619.21	47573.73
619.36	47463.72
619.51	47114.98
619.67	47264.78
619.82	47501.17
619.97	47192.22
620.12	47566.71
620.28	47145.41
620.43	47299.89
620.58	47459.04
620.73	47676.71
620.89	47316.27
621.04	47342.02
621.19	47117.32
621.34	47440.32
621.49	46899.65
621.65	47103.28
621.80	47604.16
621.95	47332.65
622.10	47433.30
622.25	46944.12
622.41	46990.94
622.56	46878.59
622.71	47042.43
622.86	46876.25
623.01	47234.35
623.16	47089.24
623.32	47398.19
623.47	46902.00
623.62	47201.58
623.77	47054.13
623.92	46852.84
624.07	46848.16
624.23	47119.66
624.38	46995.62
624.53	47004.98
624.68	46195.15
624.83	46763.90
624.98	46649.22
625.13	46471.34
625.29	46384.74
625.44	46763.90
625.59	46763.90
625.74	46569.64
625.89	46143.66
626.04	46377.72
626.19	46550.91
626.34	46263.03
626.49	46445.59
626.65	46333.24
626.80	46644.54
626.95	46370.69
627.10	45986.85
627.25	46043.02
627.40	46223.24
627.55	46190.47
627.70	46293.46
627.85	46274.73
628.00	46181.11
628.15	46300.48
628.30	45825.35
628.45	45780.88
628.60	45750.45
628.76	45963.44
628.91	46080.47
629.06	45450.86
629.21	45710.66
629.36	45752.79
629.51	46021.95
629.66	46361.33
629.81	45855.78
629.96	45888.54
630.11	46089.83
630.26	45682.58
630.41	45902.59
630.56	45689.60
630.71	45911.95
630.86	45492.99
631.01	45696.62
631.16	45577.25
631.31	45448.52
631.46	45478.95
631.61	46038.34
631.76	45729.39
631.91	45546.82
632.06	45930.67
632.21	45869.82
632.36	45860.46
632.51	45258.94
632.66	45635.77
632.81	45158.30
632.96	45469.59
633.10	45525.76
633.25	45289.37
633.40	45289.37
633.55	45460.23
633.70	45631.08
633.85	45022.54
634.00	45308.09
634.15	45422.78
634.30	44961.69
634.45	44891.48
634.60	45008.50
634.75	45361.92
634.90	44964.03
635.05	45436.82
635.19	44861.05
635.34	45390.01
635.49	44772.11
635.64	45275.32
635.79	45663.85
635.94	45013.18
636.09	44825.94
636.24	45170.00
636.39	45233.19
636.53	45008.50
636.68	44634.02
636.83	44343.79
636.98	44406.98
637.13	44589.55
637.28	44451.45
637.43	44636.36
637.57	44718.28
637.72	44320.38
637.87	44177.61
638.02	44893.82
638.17	44421.03
638.32	44683.17
638.46	44540.39
638.61	44552.10
638.76	44470.18
638.91	44615.29
639.06	44210.38
639.20	44460.82
639.35	44399.96
639.50	44315.70
639.65	44362.51
639.80	44549.76
639.94	44694.87
640.09	44198.68
640.24	44238.47
640.39	44002.07
640.54	44081.65
640.68	44048.88
640.83	44226.76
640.98	44119.10
641.13	43913.13
641.27	44325.07
641.42	44278.25
641.57	44126.12
641.72	44254.85
641.86	43892.07
642.01	43688.44
642.16	43147.78
642.31	43316.29
642.45	43901.43
642.60	43875.68
642.75	43875.68
642.90	44156.55
643.04	43894.41
643.19	43697.80
643.34	43770.36
643.48	43732.91
643.63	43655.67
643.78	43849.94
643.93	44027.82
644.07	43742.27
644.22	43700.14
644.37	43655.67
644.51	43847.60
644.66	43379.49
644.81	43672.06
644.95	43227.35
645.10	43290.55
645.25	43196.93
645.39	43035.43
645.54	43550.35
645.69	42986.28
645.83	43056.50
645.98	42990.96
646.13	43227.35
646.27	43005.00
646.42	42677.33
646.57	43100.97
646.71	43227.35
646.86	43674.40
647.00	42859.89
647.15	43391.19
647.30	43548.01
647.44	42822.44
647.59	43243.74
647.74	42653.92
647.88	43234.38
648.03	42616.47
648.17	43580.78
648.32	43044.79
648.47	43173.52
648.61	43077.56
648.76	42789.67
648.90	43009.68
649.05	42864.57
649.20	42703.07
649.34	42092.19
649.49	42560.30
649.63	42712.44
649.78	42471.36
649.92	42784.99
650.07	43136.07
650.21	43463.75
650.36	43019.05
650.51	42595.41
650.65	42815.42
650.80	42564.98
650.94	42780.31
651.09	42623.50
651.23	42169.43
651.38	42462.00
651.52	42075.81
651.67	42188.16
651.81	42380.08
651.96	42120.28
652.10	42134.32
652.25	41940.06
652.39	42464.34
652.54	42225.60
652.68	42157.73
652.83	42071.13
652.97	42574.34
653.12	42419.87
653.26	41710.69
653.41	42328.59
653.55	42195.18
653.70	42054.75
653.84	42424.55
653.99	42080.49
654.13	42038.36
654.27	41872.18
654.42	42024.32
654.56	41717.71
654.71	42038.36
654.85	42108.58
655.00	42073.47
655.14	42033.68
655.29	41830.05
655.43	42155.39
655.57	41977.51
655.72	41394.71
655.86	41708.35
656.01	41549.19
656.15	41354.93
656.30	41649.83
656.44	41481.31
656.58	41621.75
656.73	41720.05
656.87	41116.19
657.01	40996.82
657.16	41422.80
657.30	41682.60
657.45	41385.35
657.59	41305.77
657.73	41235.56
657.88	41244.92
658.02	41347.90
658.16	41603.02
658.31	41233.22
658.45	41148.96
658.60	40957.03
658.74	41497.70
658.88	41216.83
659.03	41031.93
659.17	40950.01
659.31	40629.36
659.46	40701.92
659.60	40940.65
659.74	40477.22
659.89	40460.84
660.03	40409.35
660.17	40545.10
660.32	40168.27
660.46	40697.24
660.60	40259.55
660.74	40273.60
660.89	40353.18
661.03	40215.08
661.17	39948.26
661.32	40002.10
661.46	39892.09
661.60	39899.11
661.74	40055.93
661.89	39859.32
662.03	39786.77
662.17	39889.75
662.31	39622.93
662.46	40048.91
662.60	39917.84
662.74	39110.35
662.88	39498.88
663.03	39122.05
663.17	39566.76
663.31	39192.27
663.45	39325.68
663.60	39899.11
663.74	40095.72
663.88	39299.94
664.02	38998.01
664.17	39243.76
664.31	38644.59
664.45	39267.17
664.59	38934.81
664.73	39316.32
664.88	38948.85
665.02	38485.43
665.16	38789.70
665.30	38831.83
665.44	38466.70
665.59	38342.66
665.73	38782.68
665.87	38377.76
666.01	38384.79
666.15	38572.03
666.29	38211.59
666.44	38565.01
666.58	38466.70
666.72	38153.07
666.86	38244.35
667.00	38066.47
667.14	37879.23
667.28	37780.93
667.43	37963.49
667.57	38160.09
667.71	37900.29
667.85	37886.25
667.99	37757.52
668.13	37958.81
668.27	37691.99
668.41	37729.44
668.56	36952.38
668.70	37209.84
668.84	37041.32
668.98	36814.29
669.12	37034.30
669.26	37415.80
669.40	36992.17
669.54	37242.60
669.68	37310.48
669.82	36528.74
669.96	36601.30
670.10	36259.58
670.25	36299.37
670.39	36517.04
670.53	36512.36
670.67	36524.06
670.81	37006.21
670.95	36294.69
671.09	36212.77
671.23	36491.29
671.37	36273.62
671.51	36411.71
671.65	36109.78
671.79	35887.43
671.93	35892.12
672.07	36165.96
672.21	36088.72
672.35	35772.75
672.49	35459.12
672.63	35400.60
672.77	35587.85
672.91	35447.41
673.05	35475.50
673.19	35393.58
673.33	35168.89
673.47	35304.64
673.61	34756.96
673.75	34588.44
673.89	35199.32
674.03	34539.29
674.17	34424.60
674.31	34574.39
674.45	34569.71
674.59	34398.85
674.73	34532.26
674.87	33802.02
675.01	33837.12
675.15	34033.73
675.29	33549.24
675.43	33862.87
675.56	34148.42
675.70	33806.70
675.84	33727.12
675.98	32545.15
676.12	33694.35
676.26	33607.75
676.40	33273.06
676.54	33102.20
676.68	33001.55
676.82	32795.59
676.96	33359.66
677.10	32835.38
677.23	32659.84
677.37	32947.72
677.51	32842.40
677.65	32556.85
677.79	32467.91
677.93	32638.77
678.07	32086.40
678.21	31992.78
678.34	32229.18
678.48	31660.43
678.62	31835.97
678.76	31592.55
678.90	31793.84
679.04	31192.32
679.18	31789.16
679.31	30892.73
679.45	31124.44
679.59	30829.54
679.73	30951.24
679.87	30792.09
680.00	30817.83
680.14	31049.55
680.28	30733.57
680.42	30551.01
680.56	30398.88
680.70	30473.78
680.83	30232.70
680.97	29968.22
681.11	30272.49
681.25	29460.32
681.39	29462.66
681.52	30134.40
681.66	29230.95
681.80	28912.64
681.94	28980.51
682.07	29233.29
682.21	28947.75
682.35	29090.52
682.49	28779.23
682.62	29394.79
682.76	28882.21
682.90	29039.03
683.04	28620.07
683.17	28634.11
683.31	28505.38
683.45	28194.09
683.59	27906.21
683.72	27948.34
683.86	28411.76
684.00	28304.10
684.13	28034.94
684.27	27676.83
684.41	27491.93
684.55	27599.60
684.68	27711.94
684.82	27300.01
684.96	27112.77
685.09	27367.88
685.23	27175.96
685.37	27754.07
685.50	27513.00
685.64	26796.79
685.78	26993.40
685.91	26801.47
686.05	26249.11
686.19	26206.98
686.32	26448.05
686.46	26012.71
686.60	26057.18
686.73	26022.08
686.87	25549.29
687.01	26026.76
687.14	25984.63
687.28	25589.08
687.42	25680.36
687.55	25521.20
687.69	25343.32
687.82	25184.16
687.96	25205.23
688.10	24772.23
688.23	25132.67
688.37	25303.53
688.50	25223.95
688.64	24938.41
688.78	24797.98
688.91	24599.03
689.05	24386.04
689.18	23971.77
689.32	23915.59
689.46	23723.67
689.59	24107.52
689.73	24107.52
689.86	24290.08
690.00	23887.51
690.13	24032.62
690.27	23377.27
690.41	23695.58
690.54	23211.09
690.68	23468.55
690.81	23276.63
690.95	23431.10
691.08	23129.17
691.22	22817.88
691.35	23012.15
691.49	23112.79
691.62	22607.23
691.76	22354.46
691.89	22373.18
692.03	22314.67
692.16	22169.55
692.30	22127.42
692.43	22171.89
692.57	21509.52
692.70	22047.85
692.84	21759.96
692.97	21593.78
693.11	21626.55
693.24	21329.30
693.38	21429.94
693.51	21174.83
693.65	20940.77
693.78	20992.26
693.92	20788.64
694.05	20868.22
694.19	20762.89
694.32	20830.77
694.45	20973.54
694.59	20713.74
694.72	20828.43
694.86	20613.10
694.99	20322.87
695.13	19999.88
695.26	19924.98
695.39	19850.08
695.53	20091.16
695.66	19857.10
695.80	19934.34
695.93	19786.89
696.07	19300.06
696.20	19473.26
696.33	19386.66
696.47	19199.41
696.60	19138.56
696.73	19171.33
696.87	19360.91
697.00	18899.83
697.14	18850.67
697.27	18820.25
697.40	18923.23
697.54	18913.87
697.67	18387.25
697.80	18726.63
697.94	18537.04
698.07	18539.38
698.21	18354.48
698.34	18141.49
698.47	17963.61
698.61	17504.87
698.74	17834.88
698.87	17841.90
699.01	17762.33
699.14	17912.12
699.27	17481.46
699.40	17441.67
699.54	17692.11
699.67	17324.65
699.80	17362.09
699.94	17097.61
700.07	17249.75
700.20	16926.75
700.34	16989.95
700.47	16812.07
700.60	17200.60
700.73	17036.76
700.87	16812.07
701.00	16255.02
701.13	16217.57
701.26	16456.31
701.40	16350.98
701.53	15906.28
701.66	16149.70
701.79	16074.80
701.93	15847.77
702.06	15810.32
702.19	15639.46
702.32	15719.04
702.46	15861.81
702.59	15791.59
702.72	15896.92
702.85	15744.78
702.99	15644.14
703.12	15470.94
703.25	15344.55
703.38	15204.12
703.51	15035.60
703.65	14794.53
703.78	14834.32
703.91	14710.27
704.04	14693.88
704.17	14640.05
704.31	14801.55
704.44	14700.90
704.57	14441.11
704.70	14499.62
704.83	14256.20
704.96	14413.02
705.10	14132.15
705.23	13792.78
>>>>>End Processed Spectral Data<<<<<
