SpectraSuite Data File
++++++++++++++++++++++++++++++++++++
Date: Fri Oct 25 10:43:37 EDT 2013
User: price-jones
Dark Spectrum Present: No
Reference Spectrum Present: No
Number of Sampled Component Spectra: 1
Spectrometers: USB2+H05261
Integration Time (usec): 100000 (USB2+H05261)
Spectra Averaged: 1 (USB2+H05261)
Boxcar Smoothing: 0 (USB2+H05261)
Correct for Electrical Dark: No (USB2+H05261)
Strobe/Lamp Enabled: No (USB2+H05261)
Correct for Detector Non-linearity: No (USB2+H05261)
Correct for Stray Light: No (USB2+H05261)
Number of Pixels in Processed Spectrum: 2048
>>>>>Begin Processed Spectral Data<<<<<
365.73	28.09
365.92	28.09
366.12	28.09
366.32	44.47
366.52	51.49
366.72	86.60
366.91	53.83
367.11	74.90
367.31	39.79
367.51	18.72
367.70	0.00
367.90	32.77
368.10	0.00
368.30	74.90
368.49	53.83
368.69	98.30
368.89	58.51
369.09	39.79
369.28	42.13
369.48	56.17
369.68	42.13
369.87	131.07
370.07	86.60
370.27	100.64
370.47	222.35
370.66	346.40
370.86	393.21
371.06	423.64
371.25	463.43
371.45	456.40
371.65	535.98
371.84	430.66
372.04	433.00
372.24	505.56
372.44	442.36
372.63	451.72
372.83	517.26
373.03	524.28
373.22	454.06
373.42	575.77
373.62	475.13
373.81	547.69
374.01	610.88
374.21	620.24
374.40	580.45
374.60	594.50
374.79	571.09
374.99	557.05
375.19	594.50
375.38	688.12
375.58	514.92
375.78	573.43
375.97	627.26
376.17	685.78
376.37	608.54
376.56	631.94
376.76	685.78
376.95	582.79
377.15	620.24
377.35	645.99
377.54	592.16
377.74	699.82
377.93	603.86
378.13	662.37
378.33	643.65
378.52	697.48
378.72	671.73
378.91	660.03
379.11	636.63
379.31	575.77
379.50	645.99
379.70	695.14
379.89	730.25
380.09	711.52
380.28	730.25
380.48	695.14
380.68	664.71
380.87	662.37
381.07	739.61
381.26	702.16
381.46	706.84
381.65	709.18
381.85	690.46
382.04	620.24
382.24	760.67
382.43	653.01
382.63	697.48
382.83	650.67
383.02	702.16
383.22	739.61
383.41	805.14
383.61	760.67
383.80	784.08
384.00	716.20
384.19	844.93
384.39	844.93
384.58	823.87
384.78	826.21
384.97	866.00
385.17	760.67
385.36	763.01
385.56	844.93
385.75	772.38
385.95	807.48
386.14	924.51
386.34	856.64
386.53	833.23
386.72	903.45
386.92	933.87
387.11	931.53
387.31	866.00
387.50	826.21
387.70	830.89
387.89	922.17
388.09	917.49
388.28	929.19
388.48	870.68
388.67	978.34
388.86	943.24
389.06	943.24
389.25	1025.15
389.45	1069.62
389.64	950.26
389.84	1015.79
390.03	994.73
390.22	1064.94
390.42	999.41
390.61	933.87
390.81	1069.62
391.00	1022.81
391.19	1018.13
391.39	1078.99
391.58	1088.35
391.78	1163.25
391.97	966.64
392.16	1078.99
392.36	1015.79
392.55	978.34
392.75	1013.45
392.94	1018.13
393.13	896.43
393.33	940.90
393.52	1095.37
393.71	1174.95
393.91	1165.59
394.10	1116.44
394.29	1139.84
394.49	1107.07
394.68	1203.04
394.88	1219.42
395.07	1207.72
395.26	1196.01
395.46	1275.59
395.65	1186.65
395.84	1210.06
396.04	1242.82
396.23	1186.65
396.42	1137.50
396.62	1151.54
396.81	1252.19
397.00	1184.31
397.19	1301.34
397.39	1308.36
397.58	1423.05
397.77	1359.85
397.97	1409.00
398.16	1427.73
398.35	1502.62
398.55	1439.43
398.74	1542.41
398.93	1591.56
399.12	1490.92
399.32	1523.69
399.51	1533.05
399.70	1612.63
399.90	1640.72
400.09	1593.90
400.28	1703.91
400.47	1619.65
400.67	1722.63
400.86	1715.61
401.05	1596.25
401.24	1619.65
401.44	1778.81
401.63	1701.57
401.82	1736.68
402.01	1767.10
402.21	1727.32
402.40	1748.38
402.59	1797.53
402.78	1816.26
402.97	1886.47
403.17	1844.34
403.36	1839.66
403.55	1916.90
403.74	1930.94
403.93	1867.75
404.13	1863.07
404.32	1973.07
404.51	1900.52
404.70	2062.01
404.89	1905.20
405.09	2036.27
405.28	2010.52
405.47	1991.80
405.66	2031.58
405.85	2001.16
406.05	1987.11
406.24	1994.14
406.43	2122.87
406.62	2108.82
406.81	2242.23
407.00	1998.82
407.20	2062.01
407.39	2122.87
407.58	2097.12
407.77	2104.14
407.96	2223.51
408.15	2345.22
408.34	2284.36
408.54	2258.62
408.73	2377.98
408.92	2258.62
409.11	2420.11
409.30	2267.98
409.49	2354.58
409.68	2394.37
409.87	2267.98
410.07	2363.94
410.26	2340.54
410.45	2502.03
410.64	2434.16
410.83	2616.72
411.02	2590.97
411.21	2651.83
411.40	2626.08
411.59	2560.55
411.78	2649.49
411.98	2597.99
412.17	2649.49
412.36	2708.00
412.55	2834.39
412.74	2775.88
412.93	2782.90
413.12	2766.51
413.31	2944.39
413.50	2693.96
413.69	2808.64
413.88	2841.41
414.07	2853.11
414.26	3040.36
414.45	3005.25
414.64	3070.78
414.83	3126.96
415.02	3063.76
415.22	3108.23
415.41	3178.45
415.60	3169.09
415.79	3220.58
415.98	3346.97
416.17	3227.60
416.36	3293.13
416.55	3265.05
416.74	3398.46
416.93	3344.63
417.12	3288.45
417.31	3433.57
417.50	3339.94
417.69	3510.80
417.88	3576.34
418.07	3513.14
418.26	3478.04
418.45	3485.06
418.64	3611.45
418.83	3515.48
419.02	3548.25
419.21	3653.58
419.39	3611.45
419.58	3602.08
419.77	3529.53
419.96	3599.74
420.15	3716.77
420.34	3744.86
420.53	3840.82
420.72	3882.95
420.91	3838.48
421.10	3723.79
421.29	3901.67
421.48	3915.72
421.67	3955.51
421.86	3922.74
422.05	3889.97
422.24	3887.63
422.43	3911.04
422.61	3962.53
422.80	4109.98
422.99	4109.98
423.18	3960.19
423.37	4077.21
423.56	3861.88
423.75	3978.91
423.94	3786.99
424.13	3817.41
424.32	3845.50
424.50	3978.91
424.69	4058.49
424.88	4084.23
425.07	3847.84
425.26	3943.80
425.45	3962.53
425.64	3995.29
425.83	4053.81
426.01	4102.96
426.20	4049.13
426.39	4109.98
426.58	4044.45
426.77	3997.64
426.96	4014.02
427.15	4126.36
427.33	4142.75
427.52	4023.38
427.71	4294.88
427.90	4227.01
428.09	4414.25
428.28	4308.93
428.46	4224.67
428.65	4196.58
428.84	4423.61
429.03	4318.29
429.22	4271.48
429.40	4238.71
429.59	4339.35
429.78	4009.34
429.97	4021.04
430.16	4014.02
430.34	4159.13
430.53	4208.28
430.72	4227.01
430.91	4386.16
431.10	4390.84
431.28	4559.36
431.47	4667.03
431.66	4746.61
431.85	4491.49
432.03	4650.64
432.22	4786.40
432.41	4629.58
432.60	4751.29
432.79	4671.71
432.97	4847.25
433.16	4910.44
433.35	4732.56
433.54	4753.63
433.72	4631.92
433.91	4777.03
434.10	4662.35
434.28	4779.37
434.47	4863.63
434.66	4985.34
434.85	4957.25
435.03	5018.11
435.22	5022.79
435.41	5317.70
435.59	5109.39
435.78	5111.73
435.97	5158.54
436.16	5043.85
436.34	5315.36
436.53	5296.63
436.72	5301.31
436.90	5074.28
437.09	5249.82
437.28	5153.86
437.46	5280.25
437.65	5231.10
437.84	5390.25
438.02	5387.91
438.21	5193.65
438.40	5200.67
438.58	5385.57
438.77	5542.39
438.96	5568.13
439.14	5493.24
439.33	5661.76
439.52	5767.08
439.70	5687.50
439.89	5626.65
440.08	5699.20
440.26	5893.47
440.45	5783.46
440.63	6054.97
440.82	6174.33
441.01	5914.53
441.19	6043.26
441.38	6256.25
441.57	6209.44
441.75	6258.59
441.94	6436.47
442.12	6396.68
442.31	6345.19
442.50	6286.68
442.68	6516.05
442.87	6270.30
443.05	6394.34
443.24	6494.99
443.43	6471.58
443.61	6462.22
443.80	6705.63
443.98	6401.37
444.17	6438.81
444.35	6623.72
444.54	6548.82
444.73	6511.37
444.91	6801.60
445.10	6567.54
445.28	6319.45
445.47	6441.15
445.65	6499.67
445.84	6691.59
446.02	6745.42
446.21	6658.82
446.39	6832.02
446.58	6729.04
446.77	6712.66
446.95	6808.62
447.14	6719.68
447.32	6970.12
447.51	6707.98
447.69	6768.83
447.88	6715.00
448.06	6785.21
448.25	6906.92
448.43	6682.23
448.62	6883.52
448.80	6820.32
448.99	7012.24
449.17	6930.33
449.36	6958.41
449.54	7068.42
449.73	7169.06
449.91	7169.06
450.10	7335.24
450.28	7297.79
450.46	7171.40
450.65	7328.22
450.83	7428.86
451.02	7227.57
451.20	7379.71
451.39	7318.86
451.57	7398.43
451.76	7112.89
451.94	7318.86
452.13	7346.94
452.31	7318.86
452.49	7180.76
452.68	7227.57
452.86	7473.33
453.05	7398.43
453.23	7421.84
453.42	7403.11
453.60	7281.41
453.78	7576.31
453.97	7391.41
454.15	7529.50
454.34	7290.77
454.52	7597.38
454.70	7632.49
454.89	7637.17
455.07	7653.55
455.26	7691.00
455.44	7660.57
455.62	7775.26
455.81	7868.88
455.99	7878.24
456.17	8095.91
456.36	7925.05
456.54	7997.61
456.73	8091.23
456.91	8355.71
457.09	8283.16
457.28	8416.57
457.46	8114.64
457.64	8105.28
457.83	8102.93
458.01	8065.49
458.19	8245.71
458.38	8339.33
458.56	8465.72
458.74	8430.61
458.93	8367.42
459.11	8088.89
459.29	8322.94
459.48	8245.71
459.66	8292.52
459.84	8496.14
460.03	8919.78
460.21	8575.72
460.39	8475.08
460.57	8786.37
460.76	8617.85
460.94	8690.41
461.12	8762.97
461.31	8688.07
461.49	8936.17
461.67	8933.82
461.85	8950.21
462.04	8725.52
462.22	9245.12
462.40	8898.72
462.59	9071.92
462.77	9287.25
462.95	9013.40
463.13	9001.70
463.32	8910.42
463.50	9069.58
463.68	9217.03
463.86	9114.05
464.05	9004.04
464.23	9057.87
464.41	9291.93
464.59	8931.48
464.78	9221.71
464.96	9310.65
465.14	8903.40
465.32	9118.73
465.50	9509.60
465.69	9315.33
465.87	9247.46
466.05	9495.55
466.23	9238.09
466.41	9289.59
466.60	9348.10
466.78	9238.09
466.96	9537.68
467.14	9469.81
467.32	9605.56
467.51	9401.93
467.69	9240.44
467.87	9530.66
468.05	9650.03
468.23	9640.67
468.41	9652.37
468.60	9699.18
468.78	9657.05
468.96	9544.70
469.14	9954.30
469.32	9874.72
469.50	9612.58
469.69	9624.28
469.87	10057.28
470.05	9909.83
470.23	9909.83
470.41	10008.13
470.59	10120.48
470.77	9870.04
470.95	10043.24
471.14	10246.87
471.32	10195.37
471.50	10420.06
471.68	10431.77
471.86	10668.16
472.04	10710.29
472.22	10483.26
472.40	10443.47
472.58	10225.80
472.77	10595.61
472.95	10642.42
473.13	11028.60
473.31	10640.08
473.49	10443.47
473.67	10778.17
473.85	10726.68
474.03	11197.12
474.21	11201.80
474.39	11199.46
474.57	11297.77
474.75	11236.91
474.93	11325.85
475.12	11091.80
475.30	11424.15
475.48	11384.37
475.66	11391.39
475.84	11571.61
476.02	11831.41
476.20	11529.48
476.38	11712.04
476.56	11948.43
476.74	11997.59
476.92	12140.36
477.10	12046.74
477.28	12250.36
477.46	12217.60
477.64	12294.83
477.82	12432.93
478.00	12702.09
478.18	12774.64
478.36	12638.89
478.54	12851.88
478.72	12798.05
478.90	12891.67
479.08	13418.29
479.26	13432.33
479.44	13076.57
479.62	13418.29
479.80	13802.14
479.98	13521.27
480.16	13895.76
480.34	13781.07
480.52	13898.10
480.70	13867.67
480.88	13703.84
481.06	14092.37
481.24	13984.70
481.41	14150.88
481.59	14487.92
481.77	14185.99
481.95	14553.45
482.13	14839.00
482.31	14813.25
482.49	14815.59
482.67	14888.15
482.85	15117.52
483.03	15517.75
483.21	15545.84
483.39	15513.07
483.57	15616.05
483.74	15384.34
483.92	15929.69
484.10	15674.57
484.28	16018.63
484.46	16224.59
484.64	16589.72
484.82	16229.27
485.00	16365.03
485.18	16830.79
485.35	16772.28
485.53	16437.58
485.71	16180.12
485.89	16615.46
486.07	16460.99
486.25	16629.51
486.43	16975.91
486.61	17249.75
486.78	17392.52
486.96	17582.10
487.14	17820.84
487.32	17764.67
487.50	18221.07
487.68	18195.32
487.85	18286.61
488.03	18523.00
488.21	18703.22
488.39	18834.29
488.57	18848.33
488.75	19168.99
488.92	19370.27
489.10	19541.13
489.28	19641.78
489.46	20067.75
489.64	19941.36
489.81	20353.30
489.99	20102.86
490.17	20446.92
490.35	20542.88
490.53	20533.52
490.70	20842.47
490.88	20577.99
491.06	20950.14
491.24	21018.01
491.41	20893.96
491.59	21135.04
491.77	20711.40
491.95	21373.77
492.13	21322.28
492.30	21706.13
492.48	21935.50
492.66	22174.24
492.84	22169.55
493.01	22302.96
493.19	22661.07
493.37	22391.91
493.54	22424.67
493.72	22885.76
493.90	22918.53
494.08	22890.44
494.25	23248.54
494.43	23491.96
494.61	23597.28
494.79	23960.06
494.96	23939.00
495.14	23531.75
495.32	23620.69
495.49	23637.07
495.67	23953.04
495.85	24233.91
496.02	24442.21
496.20	24580.31
496.38	24622.44
496.55	24666.91
496.73	25240.34
496.91	25069.48
497.09	25142.03
497.26	25170.12
497.44	24952.45
497.62	25577.37
497.79	25722.49
497.97	25144.38
498.14	25771.64
498.32	25979.95
498.50	26370.82
498.67	26672.74
498.85	26408.26
499.03	26216.34
499.20	26288.90
499.38	26459.76
499.56	26469.12
499.73	26560.40
499.91	26953.61
500.08	26780.41
500.26	26511.25
500.44	26843.60
500.61	26808.50
500.79	26705.51
500.97	27087.02
501.14	27274.26
501.32	27491.93
501.49	27360.86
501.67	27405.33
501.84	27976.42
502.02	27737.69
502.20	28060.68
502.37	27892.16
502.55	27955.36
502.72	28350.91
502.90	28247.93
503.07	28072.39
503.25	28524.11
503.43	28187.07
503.60	28936.04
503.78	28222.18
503.95	28435.17
504.13	28655.18
504.30	28830.72
504.48	28905.62
504.65	28865.83
504.83	29081.16
505.01	29336.27
505.18	29256.70
505.36	30199.93
505.53	29804.38
505.71	30000.99
505.88	30094.61
506.06	29392.45
506.23	30026.73
506.41	29832.47
506.58	30073.54
506.76	29958.86
506.93	30352.07
507.11	30473.78
507.28	30017.37
507.46	30099.29
507.63	30143.76
507.81	30590.80
507.98	30661.02
508.16	30682.08
508.33	30939.54
508.50	31019.12
508.68	30920.82
508.85	31573.83
509.03	31164.23
509.20	31311.69
509.38	31585.53
509.55	31662.77
509.73	31215.72
509.90	31758.73
510.08	31620.64
510.25	31470.84
510.42	32119.17
510.60	31938.95
510.77	32077.04
510.95	32631.75
511.12	31721.28
511.30	32243.22
511.47	32292.37
511.64	32732.39
511.82	32629.41
511.99	32301.73
512.17	32109.81
512.34	32545.15
512.51	32814.31
512.69	32603.66
512.86	33261.35
513.04	33280.08
513.21	32996.87
513.38	33102.20
513.56	33273.06
513.73	33053.05
513.90	33343.27
514.08	33338.59
514.25	33244.97
514.43	33376.04
514.60	33172.41
514.77	33663.93
514.95	33748.18
515.12	33289.44
515.29	33549.24
515.47	34108.63
515.64	34010.32
515.81	34333.32
515.99	33797.34
516.16	34298.21
516.33	34050.11
516.51	34057.14
516.68	33607.75
516.85	33692.01
517.03	33783.29
517.20	34227.99
517.37	34499.50
517.54	34653.97
517.72	34653.97
517.89	34300.55
518.06	34036.07
518.24	34314.59
518.41	34632.91
518.58	34483.11
518.75	34972.28
518.93	34918.45
519.10	34773.34
519.27	35477.84
519.45	35243.79
519.62	35618.27
519.79	35470.82
519.96	35702.53
520.14	35667.42
520.31	35269.53
520.48	35627.63
520.65	35632.32
520.83	36240.86
521.00	36058.29
521.17	35978.72
521.34	36503.00
521.52	36519.38
521.69	36795.56
521.86	36671.51
522.03	36409.37
522.20	36503.00
522.38	36655.13
522.55	36926.63
522.72	36624.70
522.89	36650.45
523.07	36814.29
523.24	37188.77
523.41	37137.28
523.58	37017.91
523.75	37525.81
523.92	37076.43
524.10	37347.93
524.27	37104.51
524.44	37282.39
524.61	37638.15
524.78	37247.29
524.96	37354.95
525.13	37979.87
525.30	38101.58
525.47	38387.13
525.64	37645.18
525.81	37771.57
525.98	37745.82
526.16	37530.49
526.33	37504.74
526.50	37563.26
526.67	37443.89
526.84	37738.80
527.01	37624.11
527.18	37991.58
527.36	38293.50
527.53	38375.42
527.70	38565.01
527.87	38990.98
528.04	38733.53
528.21	38815.44
528.38	38862.26
528.55	38906.73
528.72	38965.24
528.89	39470.79
529.07	38967.58
529.24	39236.74
529.41	39126.74
529.58	38913.75
529.75	39309.30
529.92	39697.83
530.09	39524.63
530.26	39395.90
530.43	39215.68
530.60	39550.37
530.77	39459.09
530.94	39833.58
531.11	39496.54
531.28	39868.69
531.46	39910.82
531.63	39882.73
531.80	39910.82
531.97	39398.24
532.14	39583.14
532.31	39557.39
532.48	39346.75
532.65	40170.61
532.82	39695.49
532.99	40325.09
533.16	39868.69
533.33	39896.77
533.50	40402.33
533.67	40069.97
533.84	40327.43
534.01	40598.93
534.18	40409.35
534.35	40720.64
534.52	40517.01
534.69	40622.34
534.86	40797.88
535.03	40706.60
535.20	40971.08
535.37	41045.97
535.54	41263.64
535.71	40931.29
535.88	41045.97
536.05	41132.57
536.22	41125.55
536.38	41198.11
536.55	40938.31
536.72	40898.52
536.89	40636.38
537.06	41418.12
537.23	41586.64
537.40	40987.46
537.57	41706.01
537.74	41111.51
537.91	41633.45
538.08	41640.47
538.25	41235.56
538.42	41432.16
538.59	41483.66
538.75	41249.60
538.92	41546.85
539.09	41708.35
539.26	41706.01
539.43	41691.96
539.60	41713.03
539.77	41624.09
539.94	41504.72
540.11	41336.20
540.28	41710.69
540.44	41942.40
540.61	41839.42
540.78	41329.18
540.95	41722.39
541.12	41853.46
541.29	41799.63
541.46	42021.98
541.62	41937.72
541.79	42225.60
541.96	42087.51
542.13	41867.50
542.30	42478.38
542.47	42768.61
542.63	42452.64
542.80	42108.58
542.97	42838.83
543.14	43070.54
543.31	42843.51
543.48	42534.56
543.64	43220.33
543.81	43402.89
543.98	43206.29
544.15	43154.80
544.32	43037.77
544.48	43370.13
544.65	43526.94
544.82	43124.37
544.99	42892.66
545.16	43435.66
545.32	42960.53
545.49	43854.62
545.66	43196.93
545.83	43358.42
546.00	43257.78
546.16	43386.51
546.33	43363.11
546.50	42829.46
546.67	43086.92
546.83	43236.72
547.00	43363.11
547.17	43517.58
547.34	43526.94
547.50	43442.68
547.67	44039.52
547.84	43405.23
548.00	43915.47
548.17	44233.78
548.34	44048.88
548.51	44685.51
548.67	44154.21
548.84	44013.77
549.01	44147.18
549.18	44020.80
549.34	44114.42
549.51	43910.79
549.68	44222.08
549.84	44112.08
550.01	43917.81
550.18	44062.93
550.34	44278.25
550.51	44191.65
550.68	43873.34
550.84	43861.64
551.01	44002.07
551.18	44275.91
551.34	44423.37
551.51	44385.92
551.68	44559.12
551.84	44486.56
552.01	44126.12
552.18	44601.25
552.34	44662.10
552.51	44334.43
552.68	44727.64
552.84	44563.80
553.01	44748.70
553.18	44800.19
553.34	44484.22
553.51	44556.78
553.67	45001.48
553.84	45120.85
554.01	45006.16
554.17	44882.11
554.34	45130.21
554.51	44690.19
554.67	45296.39
554.84	45001.48
555.00	45085.74
555.17	44821.26
555.33	45116.17
555.50	45130.21
555.67	45310.43
555.83	44879.77
556.00	44931.26
556.16	45048.29
556.33	45064.67
556.50	44788.49
556.66	44959.35
556.83	44865.73
556.99	45137.23
557.16	45305.75
557.32	45258.94
557.49	45713.00
557.65	44872.75
557.82	45490.65
557.98	45067.02
558.15	45371.28
558.32	45841.73
558.48	44985.10
558.65	45247.24
558.81	45081.06
558.98	45305.75
559.14	45549.17
559.31	45118.51
559.47	45109.14
559.64	45382.99
559.80	45052.97
559.97	45544.48
560.13	45270.64
560.30	45401.71
560.46	45701.30
560.63	45595.98
560.79	45663.85
560.96	45703.64
561.12	45354.90
561.29	45649.81
561.45	45914.29
561.61	45956.42
561.78	45579.59
561.94	45757.47
562.11	45436.82
562.27	45680.24
562.44	45759.81
562.60	46031.32
562.77	46138.98
562.93	45633.42
563.10	45961.10
563.26	45680.24
563.42	46038.34
563.59	45734.07
563.75	45556.19
563.92	46155.36
564.08	45787.90
564.24	46101.53
564.41	45907.27
564.57	45736.41
564.74	45605.34
564.90	45675.55
565.07	45928.33
565.23	45991.53
565.39	45921.31
565.56	45584.27
565.72	45605.34
565.88	45820.67
566.05	45378.31
566.21	46354.31
566.38	45811.31
566.54	45677.90
566.70	46108.55
566.87	46307.50
567.03	46082.81
567.19	46700.71
567.36	46178.77
567.52	46227.92
567.68	46244.30
567.85	45680.24
568.01	45954.08
568.17	46246.65
568.34	45907.27
568.50	46017.27
568.66	45801.94
568.83	45804.28
568.99	45762.15
569.15	46045.36
569.32	45982.16
569.48	45799.60
569.64	46291.12
569.81	46054.72
569.97	45841.73
570.13	45933.01
570.30	46241.96
570.46	45610.02
570.62	45783.22
570.78	45378.31
570.95	45614.70
571.11	46272.39
571.27	46085.15
571.43	45755.13
571.60	46464.32
571.76	45956.42
571.92	45853.44
572.09	46265.37
572.25	45986.85
572.41	46319.20
572.57	46632.83
572.74	46274.73
572.90	46326.22
573.06	46291.12
573.22	46763.90
573.38	46120.26
573.55	45970.46
573.71	46092.17
573.87	46286.43
574.03	45610.02
574.20	45923.65
574.36	46169.41
574.52	46586.02
574.68	46124.94
574.84	46419.84
575.01	46096.85
575.17	46028.98
575.33	45904.93
575.49	45862.80
575.65	46230.26
575.82	46323.88
575.98	45968.12
576.14	46710.07
576.30	46059.40
576.46	46340.27
576.62	46398.78
576.79	46197.49
576.95	45727.05
577.11	45951.74
577.27	46307.50
577.43	46398.78
577.59	46071.10
577.75	46178.77
577.92	45694.28
578.08	45581.93
578.24	45883.86
578.40	46541.55
578.56	46459.63
578.72	46656.24
578.88	46094.51
579.04	46403.46
579.21	46120.26
579.37	45982.16
579.53	46031.32
579.69	45851.09
579.85	46300.48
580.01	46272.39
580.17	46122.60
580.33	46171.75
580.49	46323.88
580.65	46195.15
580.82	46323.88
580.98	45951.74
581.14	46106.21
581.30	46656.24
581.46	46923.06
581.62	46454.95
581.78	46183.45
581.94	46705.39
582.10	46237.28
582.26	46391.76
582.42	46031.32
582.58	46113.23
582.74	46501.76
582.90	46328.56
583.06	46445.59
583.22	46157.70
583.38	46719.43
583.54	46564.96
583.70	46185.79
583.86	46394.10
584.02	46672.62
584.18	45933.01
584.34	46515.81
584.50	46375.37
584.66	46302.82
584.82	46401.12
584.98	46499.42
585.14	46213.88
585.30	46728.80
585.46	46148.34
585.62	46061.74
585.78	46178.77
585.94	46370.69
586.10	46337.93
586.26	45911.95
586.42	46773.27
586.58	46600.07
586.74	46351.97
586.90	46581.34
587.06	46162.39
587.22	46747.52
587.38	46424.53
587.54	46443.25
587.70	47100.94
587.86	46550.91
588.02	46412.82
588.18	46377.72
588.34	46295.80
588.49	45794.92
588.65	45925.99
588.81	46019.61
588.97	46122.60
589.13	45982.16
589.29	45930.67
589.45	46354.31
589.61	46054.72
589.77	46499.42
589.93	46518.15
590.08	46405.80
590.24	46710.07
590.40	46625.81
590.56	46756.88
590.72	46567.30
590.88	46291.12
591.04	46199.83
591.20	46951.15
591.35	46597.73
591.51	46843.48
591.67	46375.37
591.83	46220.90
591.99	46471.34
592.15	46391.76
592.31	46735.82
592.46	46637.51
592.62	46452.61
592.78	46660.92
592.94	46387.08
593.10	46351.97
593.26	46672.62
593.41	46342.61
593.57	46312.18
593.73	46178.77
593.89	46347.29
594.05	46520.49
594.20	46775.61
594.36	46260.69
594.52	46567.30
594.68	46178.77
594.84	46539.21
594.99	46326.22
595.15	46483.04
595.31	46401.12
595.47	46483.04
595.62	46670.28
595.78	46536.87
595.94	46738.16
596.10	46340.27
596.25	46382.40
596.41	46354.31
596.57	46174.09
596.73	46274.73
596.88	46230.26
597.04	46302.82
597.20	46354.31
597.36	46574.32
597.51	46227.92
597.67	46515.81
597.83	46693.69
597.99	47007.32
598.14	46241.96
598.30	46726.46
598.46	46216.22
598.61	47070.51
598.77	46476.02
598.93	46590.70
599.09	46581.34
599.24	46822.42
599.40	46066.42
599.56	46637.51
599.71	46810.71
599.87	46534.53
600.03	46410.48
600.18	46394.10
600.34	45996.21
600.50	46220.90
600.65	46447.93
600.81	46721.77
600.97	46698.37
601.12	46447.93
601.28	46244.30
601.44	46230.26
601.59	45717.68
601.75	46169.41
601.91	46401.12
602.06	45837.05
602.22	46382.40
602.37	46387.08
602.53	46319.20
602.69	46660.92
602.84	46373.03
603.00	46375.37
603.16	46770.93
603.31	46373.03
603.47	46656.24
603.62	46146.00
603.78	46454.95
603.94	46380.06
604.09	46593.04
604.25	46422.19
604.40	46316.86
604.56	46623.47
604.71	46920.72
604.87	46094.51
605.03	46590.70
605.18	46216.22
605.34	46122.60
605.49	45993.87
605.65	46586.02
605.80	46256.01
605.96	46466.66
606.12	46419.84
606.27	46307.50
606.43	46387.08
606.58	46466.66
606.74	46305.16
606.89	46162.39
607.05	46429.21
607.20	46358.99
607.36	46319.20
607.51	46529.85
607.67	46162.39
607.82	46220.90
607.98	45956.42
608.13	45834.71
608.29	46003.23
608.44	45600.66
608.60	45530.44
608.75	46113.23
608.91	45998.55
609.06	46162.39
609.22	46078.13
609.37	45937.69
609.53	45874.50
609.68	46195.15
609.84	45734.07
609.99	45916.63
610.15	45771.52
610.30	45977.48
610.46	45549.17
610.61	45577.25
610.76	45989.19
610.92	46136.64
611.07	46232.60
611.23	45432.14
611.38	45591.30
611.54	45734.07
611.69	45354.90
611.84	45446.18
612.00	45261.28
612.15	45701.30
612.31	45401.71
612.46	45511.72
612.62	45851.09
612.77	45804.28
612.92	45792.58
613.08	45221.49
613.23	45404.05
613.39	44975.73
613.54	45078.72
613.69	45406.39
613.85	45097.44
614.00	45329.16
614.15	45371.28
614.31	45022.54
614.46	45654.49
614.62	45069.36
614.77	45130.21
614.92	45392.35
615.08	44917.22
615.23	45017.86
615.38	45371.28
615.54	44725.30
615.69	45099.78
615.84	45034.25
616.00	45074.04
616.15	45158.30
616.30	45233.19
616.46	44669.12
616.61	45202.77
616.76	45104.46
616.92	44294.64
617.07	44847.00
617.22	44968.71
617.37	44540.39
617.53	45165.32
617.68	44800.19
617.83	45364.26
617.99	44545.08
618.14	44933.60
618.29	44636.36
618.45	44414.01
618.60	44671.46
618.75	44030.16
618.90	44430.39
619.06	44444.43
619.21	44596.57
619.36	44872.75
619.51	44055.90
619.67	44580.18
619.82	44051.22
619.97	44301.66
620.12	43861.64
620.28	44067.61
620.43	44458.48
620.58	44531.03
620.73	44622.31
620.89	43880.36
621.04	44329.75
621.19	44783.81
621.34	44481.88
621.49	43929.51
621.65	44172.93
621.80	44257.19
621.95	43969.30
622.10	44435.07
622.25	43966.96
622.41	44224.42
622.56	44236.12
622.71	44591.89
622.86	43887.39
623.01	43892.07
623.16	44135.48
623.32	43955.26
623.47	43955.26
623.62	43566.73
623.77	43356.08
623.92	43658.01
624.07	43604.18
624.23	43302.25
624.38	43531.62
624.53	43395.87
624.68	43903.77
624.83	43620.56
624.98	43641.63
625.13	43529.28
625.29	43208.63
625.44	43358.42
625.59	43065.86
625.74	43288.21
625.89	43208.63
626.04	43400.55
626.19	43171.18
626.34	43278.85
626.49	43222.67
626.65	43246.08
626.80	43351.40
626.95	43192.25
627.10	42944.15
627.25	43344.38
627.40	43112.67
627.55	42562.64
627.70	42838.83
627.85	42670.31
628.00	42836.48
628.15	42902.02
628.30	42918.40
628.45	43281.19
628.60	42859.89
628.76	43206.29
628.91	42707.76
629.06	42983.94
629.21	42810.74
629.36	42770.95
629.51	42628.18
629.66	42405.83
629.81	42351.99
629.96	42373.06
630.11	42499.45
630.26	43047.13
630.41	42401.14
630.56	42139.00
630.71	42560.30
630.86	42735.84
631.01	42553.28
631.16	42244.33
631.31	42085.17
631.46	42057.09
631.61	42326.25
631.76	42288.80
631.91	42621.16
632.06	42492.43
632.21	42789.67
632.36	42129.64
632.51	41624.09
632.66	42120.28
632.81	41825.37
632.96	42241.99
633.10	42061.77
633.25	41914.31
633.40	42143.69
633.55	41890.91
633.70	42033.68
633.85	42096.88
634.00	41972.83
634.15	41741.11
634.30	41558.55
634.45	41310.46
634.60	41551.53
634.75	41872.18
634.90	41706.01
635.05	41691.96
635.19	41399.40
635.34	41390.03
635.49	41296.41
635.64	41130.23
635.79	41518.76
635.94	41375.99
636.09	41399.40
636.24	41191.09
636.39	41205.13
636.53	41301.09
636.68	40905.54
636.83	41268.33
636.98	41706.01
637.13	41387.69
637.28	41738.77
637.43	41610.04
637.57	41598.34
637.72	41008.53
637.87	41324.50
638.02	41216.83
638.17	41081.08
638.32	41043.63
638.46	40861.07
638.61	41050.66
638.76	40800.22
638.91	41057.68
639.06	40942.99
639.20	41273.01
639.35	41024.91
639.50	41132.57
639.65	40893.84
639.80	40517.01
639.94	40755.75
640.09	40966.40
640.24	40912.56
640.39	40491.27
640.54	40624.68
640.68	40423.39
640.83	40715.96
640.98	40395.31
641.13	39988.05
641.27	40769.79
641.42	40638.72
641.57	40718.30
641.72	40879.80
641.86	40563.82
642.01	40004.44
642.16	40224.45
642.31	39929.54
642.45	40392.97
642.60	40285.30
642.75	40217.43
642.90	40423.39
643.04	40261.90
643.19	40060.61
643.34	40163.59
643.48	39725.91
643.63	39995.07
643.78	39952.94
643.93	40212.74
644.07	39945.92
644.22	39906.13
644.37	39337.38
644.51	39959.97
644.66	40006.78
644.81	39915.50
644.95	39985.71
645.10	39751.66
645.25	40018.48
645.39	39817.19
645.54	39915.50
645.69	39538.67
645.83	39526.97
645.98	39875.71
646.13	39304.62
646.27	39819.53
646.42	39702.51
646.57	39519.95
646.71	39454.41
646.86	39288.23
647.00	39517.60
647.15	39246.10
647.30	39271.85
647.44	39365.47
647.59	39281.21
647.74	39140.78
647.88	39253.12
648.03	39323.34
648.17	39435.69
648.32	39035.45
648.47	39442.71
648.61	38710.12
648.76	39414.62
648.90	39138.44
649.05	39009.71
649.20	38625.86
649.34	39522.29
649.49	38761.61
649.63	38810.76
649.78	38995.67
649.92	39262.49
650.07	39325.68
650.21	38843.53
650.36	39002.69
650.51	38794.38
650.65	39416.96
650.80	39201.63
650.94	39264.83
651.09	38998.01
651.23	38806.08
651.38	38511.17
651.52	38717.14
651.67	38143.71
651.81	38693.74
651.96	38373.08
652.10	38911.41
652.25	38742.89
652.39	38499.47
652.54	38712.46
652.68	38349.68
652.83	38391.81
652.97	38693.74
653.12	38064.13
653.26	38223.29
653.41	38155.41
653.55	38307.55
653.70	38253.72
653.84	38412.87
653.99	37841.78
654.13	37860.51
654.27	38249.03
654.42	37965.83
654.56	38415.21
654.71	38155.41
654.85	37560.92
655.00	38234.99
655.14	37670.92
655.29	37439.21
655.43	37228.56
655.57	36935.99
655.72	37261.33
655.86	37137.28
656.01	37411.12
656.15	37071.75
656.30	37340.91
656.44	37361.97
656.58	37310.48
656.73	37258.99
656.87	37488.36
657.01	37214.52
657.16	37743.48
657.30	37226.22
657.45	36950.04
657.59	37390.06
657.73	37027.28
657.88	37511.77
658.02	37542.19
658.16	37511.77
658.31	37666.24
658.45	37455.59
658.60	36828.33
658.74	37378.36
658.88	37256.65
659.03	36989.83
659.17	36898.55
659.31	36987.49
659.46	36987.49
659.60	36868.12
659.74	37113.87
659.89	36751.09
660.03	36392.99
660.17	37216.86
660.32	37144.30
660.46	36751.09
660.60	37006.21
660.74	36935.99
660.89	36896.20
661.03	36549.81
661.17	36418.74
661.32	36287.67
661.46	36371.92
661.60	36807.26
661.74	36079.36
661.89	36322.77
662.03	36170.64
662.17	36521.72
662.31	36048.93
662.46	36875.14
662.60	36098.08
662.74	35838.28
662.88	35824.24
663.03	35859.35
663.17	35772.75
663.31	35526.99
663.45	35971.69
663.60	35697.85
663.74	35754.02
663.88	35751.68
664.02	35393.58
664.17	35838.28
664.31	35468.48
664.45	35138.46
664.59	35138.46
664.73	35711.89
664.88	35555.08
665.02	35070.59
665.16	35498.91
665.30	34890.37
665.44	34918.45
665.59	34838.87
665.73	34766.32
665.87	34787.38
666.01	34841.21
666.15	34686.74
666.29	34696.10
666.44	35475.50
666.58	34600.14
666.72	34424.60
666.86	34497.16
667.00	34345.02
667.14	34382.47
667.28	34176.50
667.43	33956.49
667.57	34492.47
667.71	33937.77
667.85	34476.09
667.99	34501.84
668.13	34363.75
668.27	34270.12
668.41	33783.29
668.56	34071.18
668.70	33692.01
668.84	33764.57
668.98	33677.97
669.12	33392.42
669.26	33909.68
669.40	33614.77
669.54	33518.81
669.68	33841.81
669.82	32987.51
669.96	32966.45
670.10	33200.50
670.25	33500.09
670.39	33305.82
670.53	32926.66
670.67	32837.72
670.81	33425.19
670.95	33434.55
671.09	32716.01
671.23	33003.89
671.37	32496.00
671.51	32474.93
671.65	32393.01
671.79	32673.88
671.93	32549.83
672.07	32460.89
672.21	32182.37
672.35	32231.52
672.49	32329.82
672.63	32266.63
672.77	32006.83
672.91	31955.33
673.05	32016.19
673.19	31789.16
673.33	31903.84
673.47	31215.72
673.61	31447.44
673.75	31316.37
673.89	31718.94
674.03	31428.71
674.17	31330.41
674.31	31138.49
674.45	31463.82
674.59	31688.51
674.73	31524.68
674.87	31164.23
675.01	30998.06
675.15	31283.60
675.29	30981.67
675.43	30885.71
675.56	30670.38
675.70	30810.81
675.84	30764.00
675.98	29933.11
676.12	30539.31
676.26	30621.23
676.40	30375.47
676.54	30419.94
676.68	30061.84
676.82	29670.97
676.96	29724.80
677.10	29958.86
677.23	29923.75
677.37	29486.07
677.51	29830.13
677.65	29404.15
677.79	29371.38
677.93	29488.41
678.07	28863.49
678.21	28996.90
678.34	28922.00
678.48	28833.06
678.62	28716.03
678.76	28474.96
678.90	28811.99
679.04	28453.89
679.18	28442.19
679.31	28084.09
679.45	28184.73
679.59	28088.77
679.73	28304.10
679.87	28428.15
680.00	28095.79
680.14	28039.62
680.28	27707.26
680.42	27917.91
680.56	27644.07
680.70	27412.35
680.83	27489.59
680.97	27363.20
681.11	27386.61
681.25	27454.48
681.39	27110.43
681.52	27356.18
681.66	27035.53
681.80	26794.45
681.94	26895.10
682.07	26658.70
682.21	26412.95
682.35	26724.24
682.49	26370.82
682.62	26167.19
682.76	26022.08
682.90	26017.40
683.04	26054.84
683.17	25682.70
683.31	25881.64
683.45	25521.20
683.59	25685.04
683.72	25848.88
683.86	26080.59
684.00	25706.10
684.13	25502.48
684.27	25362.04
684.41	25245.02
684.55	25216.93
684.68	25240.34
684.82	24842.45
684.96	24554.56
685.09	24947.77
685.23	24751.17
685.37	24657.54
685.50	24929.05
685.64	24669.25
685.78	24751.17
685.91	24161.35
686.05	23948.36
686.19	23608.98
686.32	24100.50
686.46	23655.79
686.60	23466.21
686.73	23665.16
686.87	23183.01
687.01	23281.31
687.14	23185.35
687.28	23075.34
687.42	23426.42
687.55	23091.73
687.69	23108.11
687.82	23215.77
687.96	23124.49
688.10	22679.79
688.23	22443.40
688.37	22663.41
688.50	22345.09
688.64	22972.36
688.78	22656.39
688.91	22340.41
689.05	22272.54
689.18	21694.43
689.32	22045.51
689.46	22097.00
689.59	22122.74
689.73	22391.91
689.86	21752.94
690.00	21731.87
690.13	21893.37
690.27	21614.85
690.41	21666.34
690.54	20814.38
690.68	21338.66
690.81	21301.22
690.95	21228.66
691.08	21359.73
691.22	21542.29
691.35	21128.02
691.49	21048.44
691.62	21008.65
691.76	21050.78
691.89	20786.30
692.03	20339.26
692.16	20568.63
692.30	20297.13
692.43	20437.56
692.57	19978.81
692.70	20152.01
692.84	19903.92
692.97	19786.89
693.11	20009.24
693.24	19735.40
693.38	19604.33
693.51	19840.72
693.65	19873.49
693.78	19122.18
693.92	19641.78
694.05	19431.13
694.19	19314.10
694.32	19391.34
694.45	19091.75
694.59	19447.51
694.72	18923.23
694.86	19283.67
694.99	18906.85
695.13	19073.03
695.26	18642.37
695.39	18682.16
695.53	18780.46
695.66	18710.24
695.80	18415.34
695.93	18700.88
696.07	18314.69
696.20	18448.10
696.33	18445.76
696.47	18375.55
696.60	18120.43
696.73	18157.88
696.87	17792.75
697.00	17635.94
697.14	17507.21
697.27	17694.45
697.40	17511.89
697.54	17326.99
697.67	17439.33
697.80	17233.36
697.94	17193.58
698.07	17238.05
698.21	17191.23
698.34	17156.13
698.47	17193.58
698.61	16781.64
698.74	16769.94
698.87	16695.04
699.01	16760.58
699.14	16709.08
699.27	16269.06
699.40	16428.22
699.54	16194.17
699.67	16383.75
699.80	16250.34
699.94	15836.06
700.07	15859.47
700.20	16006.92
700.34	16147.36
700.47	16203.53
700.60	15847.77
700.73	15915.64
700.87	15850.11
701.00	15564.56
701.13	15372.64
701.26	15587.97
701.40	15213.48
701.53	15262.63
701.66	15611.37
701.79	15140.93
701.93	15070.71
702.06	15028.58
702.19	14920.92
702.32	14822.61
702.46	14958.36
702.59	15030.92
702.72	14937.30
702.85	14881.13
702.99	14778.14
703.12	14548.77
703.25	14600.26
703.38	14604.94
703.51	14494.94
703.65	14310.04
703.78	13991.72
703.91	13825.54
704.04	13975.34
704.17	13977.68
704.31	13816.18
704.44	14033.85
704.57	13724.90
704.70	13752.99
704.83	13848.95
704.96	13521.27
705.10	13680.43
705.23	13420.63
>>>>>End Processed Spectral Data<<<<<
