SpectraSuite Data File
++++++++++++++++++++++++++++++++++++
Date: Fri Oct 25 10:44:25 EDT 2013
User: price-jones
Dark Spectrum Present: No
Reference Spectrum Present: No
Number of Sampled Component Spectra: 1
Spectrometers: USB2+H05261
Integration Time (usec): 100000 (USB2+H05261)
Spectra Averaged: 1 (USB2+H05261)
Boxcar Smoothing: 0 (USB2+H05261)
Correct for Electrical Dark: No (USB2+H05261)
Strobe/Lamp Enabled: No (USB2+H05261)
Correct for Detector Non-linearity: No (USB2+H05261)
Correct for Stray Light: No (USB2+H05261)
Number of Pixels in Processed Spectrum: 2048
>>>>>Begin Processed Spectral Data<<<<<
365.73	140.43
365.92	140.43
366.12	140.43
366.32	0.00
366.52	0.00
366.72	53.83
366.91	16.38
367.11	4.68
367.31	0.00
367.51	0.00
367.70	4.68
367.90	25.75
368.10	16.38
368.30	11.70
368.49	16.38
368.69	18.72
368.89	37.45
369.09	72.56
369.28	77.24
369.48	23.41
369.68	25.75
369.87	37.45
370.07	49.15
370.27	74.90
370.47	154.48
370.66	435.34
370.86	463.43
371.06	425.98
371.25	491.51
371.45	440.02
371.65	496.19
371.84	449.38
372.04	479.81
372.24	517.26
372.44	402.57
372.63	505.56
372.83	528.96
373.03	475.13
373.22	470.45
373.42	524.28
373.62	638.97
373.81	617.90
374.01	571.09
374.21	578.11
374.40	554.71
374.60	575.77
374.79	566.41
374.99	580.45
375.19	610.88
375.38	589.82
375.58	573.43
375.78	676.41
375.97	617.90
376.17	615.56
376.37	615.56
376.56	645.99
376.76	571.09
376.95	592.16
377.15	664.71
377.35	596.84
377.54	641.31
377.74	617.90
377.93	695.14
378.13	744.29
378.33	720.88
378.52	704.50
378.72	608.54
378.91	767.70
379.11	648.33
379.31	718.54
379.50	667.05
379.70	748.97
379.89	688.12
380.09	638.97
380.28	711.52
380.48	748.97
380.68	774.72
380.87	650.67
381.07	690.46
381.26	901.11
381.46	725.57
381.65	688.12
381.85	676.41
382.04	641.31
382.24	746.63
382.43	671.73
382.63	641.31
382.83	734.93
383.02	709.18
383.22	730.25
383.41	765.36
383.61	760.67
383.80	802.80
384.00	793.44
384.19	784.08
384.39	844.93
384.58	802.80
384.78	807.48
384.97	793.44
385.17	812.17
385.36	875.36
385.56	847.27
385.75	774.72
385.95	826.21
386.14	847.27
386.34	889.40
386.53	849.61
386.72	816.85
386.92	830.89
387.11	903.45
387.31	945.58
387.50	858.98
387.70	891.74
387.89	880.04
388.09	912.81
388.28	931.53
388.48	903.45
388.67	919.83
388.86	1011.11
389.06	983.02
389.25	889.40
389.45	1036.86
389.64	999.41
389.84	983.02
390.03	1015.79
390.22	1055.58
390.42	1039.20
390.61	1039.20
390.81	1095.37
391.00	1118.78
391.19	1151.54
391.39	1032.18
391.58	1261.55
391.78	1144.52
391.97	1027.50
392.16	1001.75
392.36	1172.61
392.55	1011.11
392.75	1064.94
392.94	1008.77
393.13	990.05
393.33	924.51
393.52	1018.13
393.71	1100.05
393.91	1109.41
394.10	1214.74
394.29	1224.10
394.49	1240.48
394.68	1263.89
394.88	1310.70
395.07	1287.29
395.26	1345.81
395.46	1313.04
395.65	1165.59
395.84	1263.89
396.04	1233.46
396.23	1240.48
396.42	1191.33
396.62	1167.93
396.81	1184.31
397.00	1240.48
397.19	1186.65
397.39	1263.89
397.58	1451.13
397.77	1348.15
397.97	1542.41
398.16	1469.86
398.35	1535.39
398.55	1432.41
398.74	1568.16
398.93	1582.20
399.12	1481.56
399.32	1493.26
399.51	1568.16
399.70	1647.74
399.90	1671.14
400.09	1689.87
400.28	1640.72
400.47	1605.61
400.67	1668.80
400.86	1664.12
401.05	1750.72
401.24	1792.85
401.44	1764.76
401.63	1739.02
401.82	1816.26
402.01	1881.79
402.21	1797.53
402.40	1842.00
402.59	1888.81
402.78	1799.87
402.97	1825.62
403.17	1853.70
403.36	1771.79
403.55	1949.67
403.74	2033.93
403.93	2008.18
404.13	1907.54
404.32	1966.05
404.51	1870.09
404.70	2003.50
404.89	1952.01
405.09	2043.29
405.28	2106.48
405.47	2015.20
405.66	2172.02
405.85	2080.74
406.05	2078.40
406.24	2050.31
406.43	2099.46
406.62	2165.00
406.81	2155.63
407.00	2129.89
407.20	2106.48
407.39	2139.25
407.58	2232.87
407.77	2190.74
407.96	2246.91
408.15	2293.72
408.34	2310.11
408.54	2354.58
408.73	2361.60
408.92	2368.62
409.11	2459.90
409.30	2429.48
409.49	2319.47
409.68	2349.90
409.87	2312.45
410.07	2466.92
410.26	2408.41
410.45	2583.95
410.64	2544.16
410.83	2614.38
411.02	2562.89
411.21	2759.49
411.40	2722.04
411.59	2658.85
411.78	2717.36
411.98	2677.57
412.17	2792.26
412.36	2731.41
412.55	2808.64
412.74	2876.52
412.93	2780.56
413.12	2729.06
413.31	2984.18
413.50	2906.95
413.69	2930.35
413.88	3052.06
414.07	3094.19
414.26	3023.97
414.45	3112.91
414.64	3030.99
414.83	3133.98
415.02	3155.04
415.22	3199.51
415.41	3274.41
415.60	3318.88
415.79	3206.53
415.98	3419.52
416.17	3166.74
416.36	3358.67
416.55	3391.44
416.74	3438.25
416.93	3311.86
417.12	3438.25
417.31	3548.25
417.50	3265.05
417.69	3515.48
417.88	3595.06
418.07	3478.04
418.26	3550.59
418.45	3653.58
418.64	3794.01
418.83	3751.88
419.02	3569.32
419.21	3932.10
419.39	3660.60
419.58	3646.55
419.77	3555.27
419.96	3733.15
420.15	3819.75
420.34	3878.27
420.53	3705.07
420.72	3936.78
420.91	3978.91
421.10	3969.55
421.29	3971.89
421.48	3859.54
421.67	4042.11
421.86	3922.74
422.05	3822.09
422.24	3852.52
422.43	3967.21
422.61	4114.66
422.80	3974.23
422.99	4044.45
423.18	4107.64
423.37	4175.52
423.56	4042.11
423.75	4072.53
423.94	4018.70
424.13	3794.01
424.32	3880.61
424.50	3948.48
424.69	4074.87
424.88	4063.17
425.07	3953.16
425.26	3911.04
425.45	4067.85
425.64	4016.36
425.83	3988.27
426.01	4245.73
426.20	4121.68
426.39	4145.09
426.58	4070.19
426.77	4109.98
426.96	4152.11
427.15	4107.64
427.33	4219.99
427.52	4252.75
427.71	4208.28
427.90	4255.09
428.09	4264.46
428.28	4372.12
428.46	4236.37
428.65	4231.69
428.84	4421.27
429.03	4440.00
429.22	4201.26
429.40	4283.18
429.59	4259.78
429.78	4081.89
429.97	3939.12
430.16	4128.70
430.34	4198.92
430.53	4184.88
430.72	4236.37
430.91	4432.97
431.10	4381.48
431.28	4620.22
431.47	4716.18
431.66	4882.36
431.85	4667.03
432.03	4723.20
432.22	4833.21
432.41	4634.26
432.60	4802.78
432.79	4945.55
432.97	4880.02
433.16	4877.68
433.35	4767.67
433.54	4727.88
433.72	4779.37
433.91	4887.04
434.10	5032.15
434.28	5018.11
434.47	4983.00
434.66	5032.15
434.85	4884.70
435.03	5132.79
435.22	5125.77
435.41	5174.92
435.59	5078.96
435.78	5238.12
435.97	5303.65
436.16	5165.56
436.34	5408.98
436.53	5373.87
436.72	5369.19
436.90	5341.10
437.09	5350.46
437.28	5207.69
437.46	5572.82
437.65	5425.36
437.84	5427.70
438.02	5224.08
438.21	5320.04
438.40	5130.45
438.58	5399.62
438.77	5621.97
438.96	5582.18
439.14	5696.86
439.33	5860.70
439.52	5975.39
439.70	5736.65
439.89	5802.19
440.08	5769.42
440.26	5816.23
440.45	5874.74
440.63	6003.47
440.82	6171.99
441.01	6162.63
441.19	6207.10
441.38	6263.27
441.57	6471.58
441.75	6434.13
441.94	6487.96
442.12	6396.68
442.31	6637.76
442.50	6623.72
442.68	6415.41
442.87	6569.88
443.05	6548.82
443.24	6649.46
443.43	6518.39
443.61	6527.75
443.80	6754.79
443.98	6623.72
444.17	6427.11
444.35	6621.38
444.54	6958.41
444.73	6689.25
444.91	6750.10
445.10	6560.52
445.28	6640.10
445.47	6696.27
445.65	6654.14
445.84	6764.15
446.02	6878.83
446.21	6817.98
446.39	6609.67
446.58	6892.88
446.77	6822.66
446.95	6743.08
447.14	6932.67
447.32	6925.65
447.51	6747.76
447.69	6801.60
447.88	6897.56
448.06	6848.41
448.25	6949.05
448.43	6993.52
448.62	6832.02
448.80	7052.03
448.99	7105.87
449.17	7204.17
449.36	6925.65
449.54	7173.74
449.73	7337.58
449.91	7478.01
450.10	7335.24
450.28	7426.52
450.46	7492.05
450.65	7541.21
450.83	7480.35
451.02	7358.64
451.20	7389.07
451.39	7573.97
451.57	7386.73
451.76	7529.50
451.94	7410.14
452.13	7620.78
452.31	7414.82
452.49	7295.45
452.68	7318.86
452.86	7442.90
453.05	7569.29
453.23	7646.53
453.42	7445.24
453.60	7559.93
453.78	7779.94
453.97	7557.59
454.15	7548.23
454.34	7669.94
454.52	7805.69
454.70	7772.92
454.89	7679.30
455.07	7864.20
455.26	7592.70
455.44	7948.46
455.62	7929.74
455.81	7838.45
455.99	8229.32
456.17	8109.96
456.36	8039.74
456.54	8236.35
456.73	8292.52
456.91	8418.91
457.09	8491.46
457.28	8458.70
457.46	8252.73
457.64	8620.19
457.83	8280.82
458.01	8250.39
458.19	8332.31
458.38	8425.93
458.56	8554.66
458.74	8620.19
458.93	8327.63
459.11	8498.49
459.29	8538.27
459.48	8753.60
459.66	8634.24
459.84	8737.22
460.03	8723.18
460.21	8954.89
460.39	8884.67
460.57	8659.98
460.76	8781.69
460.94	8840.20
461.12	8767.65
461.31	9027.45
461.49	9013.40
461.67	8870.63
461.85	9123.41
462.04	8975.95
462.22	9167.88
462.40	9284.91
462.59	9310.65
462.77	9270.86
462.95	9301.29
463.13	9202.99
463.32	9378.53
463.50	9341.08
463.68	9331.72
463.86	9219.37
464.05	9130.43
464.23	9240.44
464.41	9345.76
464.59	9071.92
464.78	9483.85
464.96	9256.82
465.14	9273.20
465.32	9334.06
465.50	9659.39
465.69	9795.14
465.87	9673.43
466.05	9495.55
466.23	9497.89
466.41	9509.60
466.60	9612.58
466.78	9448.74
466.96	9486.19
467.14	9385.55
467.32	9856.00
467.51	9783.44
467.69	9584.49
467.87	9902.81
468.05	9987.07
468.23	9774.08
468.41	9736.63
468.60	9909.83
468.78	9738.97
468.96	9792.80
469.14	9970.68
469.32	9926.21
469.50	9722.59
469.69	10008.13
469.87	10113.45
470.05	10148.56
470.23	10068.98
470.41	10279.63
470.59	10326.44
470.77	10162.61
470.95	10286.65
471.14	10539.43
471.32	10235.16
471.50	10642.42
471.68	10705.61
471.86	10740.72
472.04	10579.22
472.22	11094.14
472.40	10438.79
472.58	10569.86
472.77	10773.49
472.95	10799.23
473.13	11171.38
473.31	10675.18
473.49	10719.65
473.67	10902.22
473.85	11016.90
474.03	11044.99
474.21	11316.49
474.39	11370.32
474.57	11314.15
474.75	11473.31
474.93	11466.28
475.12	11510.75
475.30	11456.92
475.48	11580.97
475.66	11693.32
475.84	11627.78
476.02	11889.92
476.20	11683.95
476.38	11843.11
476.56	12163.76
476.74	12203.55
476.92	12046.74
477.10	12264.41
477.28	12393.14
477.46	12343.99
477.64	12521.87
477.82	12669.32
478.00	13067.21
478.18	12774.64
478.36	12828.48
478.54	12973.59
478.72	12779.32
478.90	13240.41
479.08	13486.17
479.26	13736.60
479.44	13589.15
479.62	13654.69
479.80	13687.45
479.98	13872.36
480.16	13909.80
480.34	14120.45
480.52	14019.81
480.70	14134.50
480.88	14237.48
481.06	14120.45
481.24	14665.80
481.41	14768.78
481.59	14689.20
481.77	15374.98
481.95	14757.08
482.13	15246.25
482.31	14984.11
482.49	15131.56
482.67	15370.30
482.85	15522.43
483.03	15482.64
483.21	15875.85
483.39	15829.04
483.57	15932.03
483.74	16086.50
483.92	16203.53
484.10	15815.00
484.28	16486.73
484.46	16444.60
484.64	16847.18
484.82	16744.19
485.00	16407.16
485.18	16526.52
485.35	17046.12
485.53	16578.01
485.71	16657.59
485.89	16886.97
486.07	16847.18
486.25	16985.27
486.43	17296.56
486.61	17561.04
486.78	17715.51
486.96	17909.78
487.14	18153.20
487.32	18429.38
487.50	18480.87
487.68	18665.77
487.85	18745.35
488.03	18920.89
488.21	19185.37
488.39	19154.94
488.57	18988.77
488.75	19234.52
488.92	19499.00
489.10	19772.85
489.28	19791.57
489.46	20336.91
489.64	20332.23
489.81	20975.88
489.99	20795.66
490.17	20669.27
490.35	21018.01
490.53	20882.26
490.70	20877.58
490.88	20943.11
491.06	21481.44
491.24	21324.62
491.41	21261.43
491.59	21500.16
491.77	21193.55
491.95	21701.45
492.13	21975.29
492.30	22281.90
492.48	22197.64
492.66	22717.24
492.84	22541.70
493.01	22951.29
493.19	22473.82
493.37	23021.51
493.54	23115.13
493.72	23297.69
493.90	23035.55
494.08	23709.63
494.25	23819.63
494.43	23711.97
494.61	24327.53
494.79	24283.06
494.96	23939.00
495.14	24009.22
495.32	24467.96
495.49	24430.51
495.67	24247.95
495.85	24734.78
496.02	24926.71
496.20	25366.73
496.38	24950.11
496.55	25252.04
496.73	25645.25
496.91	25584.40
497.09	25905.05
497.26	25659.29
497.44	25675.68
497.62	25970.58
497.79	25713.13
497.97	25963.56
498.14	26211.66
498.32	26375.50
498.50	26176.55
498.67	26824.88
498.85	26841.26
499.03	26937.23
499.20	26939.57
499.38	26883.39
499.56	27140.85
499.73	27250.86
499.91	26916.16
500.08	27239.15
500.26	27147.87
500.44	27461.51
500.61	27225.11
500.79	27349.16
500.97	27564.49
501.14	27688.54
501.32	27496.61
501.49	27608.96
501.67	28133.24
501.84	27995.15
502.02	28318.14
502.20	28215.16
502.37	28573.26
502.55	28706.67
502.72	28561.56
502.90	28849.44
503.07	28364.95
503.25	28741.78
503.43	28797.95
503.60	28924.34
503.78	28891.57
503.95	28870.51
504.13	29528.20
504.30	29394.79
504.48	29392.45
504.65	29509.47
504.83	29759.91
505.01	30000.99
505.18	29883.96
505.36	30122.69
505.53	30164.82
505.71	30609.53
505.88	30719.53
506.06	30010.35
506.23	30300.58
506.41	30515.90
506.58	30480.80
506.76	30663.36
506.93	30738.26
507.11	30560.37
507.28	30775.70
507.46	30583.78
507.63	30410.58
507.81	31000.40
507.98	30855.28
508.16	31040.18
508.33	31321.05
508.50	31653.40
508.68	31496.59
508.85	31798.52
509.03	31842.99
509.20	32048.96
509.38	31913.20
509.55	32067.68
509.73	31728.30
509.90	32252.58
510.08	32205.77
510.25	31985.76
510.42	31983.42
510.60	32648.13
510.77	32868.14
510.95	32746.44
511.12	33127.94
511.30	32837.72
511.47	33261.35
511.64	33277.74
511.82	33207.52
511.99	33095.18
512.17	32940.70
512.34	32936.02
512.51	33319.87
512.69	33656.90
512.86	33450.94
513.04	33759.89
513.21	33256.67
513.38	33677.97
513.56	33539.88
513.73	33441.57
513.90	34106.29
514.08	33766.91
514.25	33886.28
514.43	34295.87
514.60	34099.26
514.77	34099.26
514.95	34431.62
515.12	34335.66
515.29	34015.01
515.47	34417.58
515.64	34569.71
515.81	34572.05
515.99	34532.26
516.16	34553.33
516.33	34497.16
516.51	34253.74
516.68	33916.70
516.85	34120.33
517.03	34462.05
517.20	34494.82
517.37	35157.19
517.54	35124.42
517.72	34810.79
517.89	34892.71
518.06	34761.64
518.24	34476.09
518.41	35175.91
518.58	35276.55
518.75	35344.43
518.93	35571.46
519.10	35449.75
519.27	35484.86
519.45	36013.82
519.62	36233.83
519.79	35976.37
519.96	35842.96
520.14	36411.71
520.31	35931.90
520.48	36437.46
520.65	36285.33
520.83	36879.82
521.00	36821.31
521.17	36605.98
521.34	36996.85
521.52	36957.06
521.69	37354.95
521.86	37326.86
522.03	36959.40
522.20	37762.20
522.38	37102.17
522.55	37165.37
522.72	37329.20
522.89	37422.83
523.07	37530.49
523.24	37200.47
523.41	37972.85
523.58	37675.60
523.75	37825.40
523.92	38031.36
524.10	38225.63
524.27	37951.79
524.44	38546.28
524.61	38162.43
524.78	38506.49
524.96	38129.67
525.13	38576.71
525.30	38733.53
525.47	38569.69
525.64	38373.08
525.81	38089.88
525.98	38260.74
526.16	38380.10
526.33	37991.58
526.50	38403.51
526.67	37940.08
526.84	38045.41
527.01	38251.38
527.18	38574.37
527.36	39068.22
527.53	39037.80
527.70	39431.01
527.87	39545.69
528.04	39019.07
528.21	39370.15
528.38	39440.37
528.55	39845.28
528.72	39379.51
528.89	39662.72
529.07	39761.02
529.24	39033.11
529.41	39676.76
529.58	39636.97
529.75	39501.22
529.92	39868.69
530.09	40304.02
530.26	40428.07
530.43	40006.78
530.60	40088.70
530.77	40191.68
530.94	40966.40
531.11	40231.47
531.28	39941.24
531.46	40474.88
531.63	40435.10
531.80	40451.48
531.97	40634.04
532.14	40140.19
532.31	39995.07
532.48	40556.80
532.65	40069.97
532.82	40868.09
532.99	40676.17
533.16	40250.19
533.33	40823.62
533.50	41282.37
533.67	40699.58
533.84	40500.63
534.01	40999.16
534.18	40954.69
534.35	41455.57
534.52	41209.81
534.69	41212.15
534.86	41493.02
535.03	41544.51
535.20	41394.71
535.37	41844.10
535.54	41738.77
535.71	41776.22
535.88	41574.94
536.05	41572.60
536.22	41710.69
536.38	41436.84
536.55	41645.15
536.72	41490.68
536.89	41464.93
537.06	41694.30
537.23	42096.88
537.40	41804.31
537.57	41834.74
537.74	41869.84
537.91	42298.16
538.08	42120.28
538.25	41907.29
538.42	42054.75
538.59	42197.52
538.75	41961.12
538.92	42169.43
539.09	42220.92
539.26	42071.13
539.43	42197.52
539.60	42527.53
539.77	42422.21
539.94	41947.08
540.11	41907.29
540.28	42356.67
540.44	42689.03
540.61	42085.17
540.78	42422.21
540.95	41867.50
541.12	42389.44
541.29	42031.34
541.46	42508.81
541.62	42993.30
541.79	43019.05
541.96	42600.09
542.13	42705.41
542.30	42738.18
542.47	42827.12
542.63	43065.86
542.80	43342.04
542.97	43115.01
543.14	43295.23
543.31	43496.52
543.48	43292.89
543.64	43873.34
543.81	43791.42
543.98	44179.95
544.15	43849.94
544.32	43732.91
544.48	43798.44
544.65	44109.74
544.82	43903.77
544.99	43957.60
545.16	43566.73
545.32	43611.20
545.49	44346.13
545.66	44463.16
545.83	44013.77
546.00	44058.24
546.16	44304.00
546.33	44184.63
546.50	43992.71
546.67	44289.96
546.83	43948.24
547.00	44282.94
547.17	44114.42
547.34	44500.61
547.50	44495.92
547.67	44224.42
547.84	44479.54
548.00	44451.45
548.17	44825.94
548.34	44268.89
548.51	44816.58
548.67	44648.06
548.84	44374.22
549.01	44439.75
549.18	44301.66
549.34	44924.24
549.51	44769.77
549.68	44966.37
549.84	44437.41
550.01	44851.69
550.18	45097.44
550.34	44587.21
550.51	44708.91
550.68	44882.11
550.84	44793.17
551.01	45212.13
551.18	44947.65
551.34	45099.78
551.51	45284.68
551.68	45258.94
551.84	45244.90
552.01	44872.75
552.18	44823.60
552.34	44699.55
552.51	45357.24
552.68	45144.25
552.84	45799.60
553.01	45144.25
553.18	45352.56
553.34	45331.50
553.51	44701.89
553.67	45359.58
553.84	45394.69
554.01	45605.34
554.17	45455.54
554.34	45668.53
554.51	45570.23
554.67	45930.67
554.84	45830.03
555.00	45815.99
555.17	45251.92
555.33	45729.39
555.50	45198.09
555.67	45619.38
555.83	45560.87
556.00	46052.38
556.16	46000.89
556.33	45567.89
556.50	45645.13
556.66	45495.33
556.83	45294.05
556.99	45895.56
557.16	46337.93
557.32	45785.56
557.49	45759.81
557.65	45359.58
557.82	45642.79
557.98	45914.29
558.15	46028.98
558.32	45947.06
558.48	46003.23
558.65	45603.00
558.81	45752.79
558.98	45450.86
559.14	45450.86
559.31	45778.54
559.47	45909.61
559.64	46251.33
559.80	46113.23
559.97	46239.62
560.13	46162.39
560.30	45883.86
560.46	46164.73
560.63	46043.02
560.79	46358.99
560.96	46487.72
561.12	46047.70
561.29	46092.17
561.45	45991.53
561.61	46192.81
561.78	46291.12
561.94	46244.30
562.11	46403.46
562.27	46010.25
562.44	46199.83
562.60	46380.06
562.77	46508.79
562.93	46321.54
563.10	46700.71
563.26	45954.08
563.42	46466.66
563.59	45961.10
563.75	46167.07
563.92	46309.84
564.08	46522.83
564.24	46820.08
564.41	46178.77
564.57	46595.38
564.74	46522.83
564.90	46167.07
565.07	46422.19
565.23	46373.03
565.39	46092.17
565.56	46777.95
565.72	46164.73
565.88	46740.50
566.05	46298.14
566.21	46930.08
566.38	46689.01
566.54	46707.73
566.70	46557.94
566.87	47079.88
567.03	46433.89
567.19	46794.33
567.36	46885.61
567.52	46113.23
567.68	46396.44
567.85	46586.02
568.01	46433.89
568.17	46391.76
568.34	46815.40
568.50	46017.27
568.66	46230.26
568.83	46707.73
568.99	46492.40
569.15	46401.12
569.32	46791.99
569.48	46665.60
569.64	46913.70
569.81	46850.50
569.97	46419.84
570.13	47009.66
570.30	46260.69
570.46	46340.27
570.62	46642.20
570.78	46625.81
570.95	46389.42
571.11	47103.28
571.27	46265.37
571.43	46480.70
571.60	47173.50
571.76	46974.55
571.92	46660.92
572.09	46794.33
572.25	46543.89
572.41	46520.49
572.57	46836.46
572.74	47161.79
572.90	46698.37
573.06	46684.33
573.22	46866.89
573.38	46909.02
573.55	46670.28
573.71	47154.77
573.87	46539.21
574.03	46471.34
574.20	46632.83
574.36	46281.75
574.52	46827.10
574.68	46476.02
574.84	46820.08
575.01	46724.11
575.17	46993.28
575.33	46120.26
575.49	46382.40
575.65	46838.80
575.82	46883.27
575.98	46749.86
576.14	46742.84
576.30	46911.36
576.46	46679.64
576.62	46766.24
576.79	46894.97
576.95	46717.09
577.11	46571.98
577.27	46686.67
577.43	46873.91
577.59	47203.92
577.75	46522.83
577.92	46321.54
578.08	46146.00
578.24	46595.38
578.40	46197.49
578.56	46593.04
578.72	46911.36
578.88	47002.64
579.04	46693.69
579.21	46871.57
579.37	46995.62
579.53	46965.19
579.69	46995.62
579.85	46955.83
580.01	47072.85
580.17	46923.06
580.33	47255.42
580.49	46431.55
580.65	47047.11
580.82	46995.62
580.98	46581.34
581.14	46843.48
581.30	47119.66
581.46	46782.63
581.62	47257.76
581.78	46944.12
581.94	47222.65
582.10	47030.72
582.26	46724.11
582.42	46728.80
582.58	46904.34
582.74	47145.41
582.90	46873.91
583.06	47447.34
583.22	47456.70
583.38	46808.37
583.54	47107.96
583.70	47381.80
583.86	47002.64
584.02	46342.61
584.18	47215.63
584.34	47173.50
584.50	46787.31
584.66	46843.48
584.82	47114.98
584.98	46960.51
585.14	46703.05
585.30	46794.33
585.46	47313.93
585.62	46747.52
585.78	46836.46
585.94	46464.32
586.10	46799.01
586.26	46906.68
586.42	46983.91
586.58	47220.31
586.74	47147.75
586.90	46951.15
587.06	47283.50
587.22	46703.05
587.38	46815.40
587.54	47688.42
587.70	47210.95
587.86	46733.48
588.02	47021.36
588.18	46906.68
588.34	47159.45
588.49	46635.17
588.65	46225.58
588.81	46344.95
588.97	46534.53
589.13	46550.91
589.29	46375.37
589.45	46319.20
589.61	46724.11
589.77	47131.37
589.93	46873.91
590.08	47173.50
590.24	47274.14
590.40	47196.90
590.56	47154.77
590.72	47377.12
590.88	46948.81
591.04	47182.86
591.20	47538.62
591.35	47489.47
591.51	47253.08
591.67	46887.95
591.83	47510.53
591.99	47276.48
592.15	47061.15
592.31	47400.53
592.46	46972.21
592.62	46974.55
592.78	47428.62
592.94	47377.12
593.10	47114.98
593.26	46894.97
593.41	47283.50
593.57	46770.93
593.73	46609.43
593.89	46969.87
594.05	46902.00
594.20	47093.92
594.36	47145.41
594.52	46920.72
594.68	46883.27
594.84	47033.07
594.99	47746.93
595.15	46960.51
595.31	47105.62
595.47	47063.49
595.62	47234.35
595.78	47040.09
595.94	47372.44
596.10	47491.81
596.25	47248.39
596.41	47320.95
596.57	47079.88
596.73	47430.96
596.88	46763.90
597.04	46892.63
597.20	46894.97
597.36	46918.38
597.51	47550.32
597.67	47414.57
597.83	47365.42
597.99	47175.84
598.14	47143.07
598.30	46557.94
598.46	46827.10
598.61	46759.22
598.77	46866.89
598.93	47068.17
599.09	46976.89
599.24	47590.11
599.40	47358.40
599.56	47313.93
599.71	47232.01
599.87	47239.03
600.03	47407.55
600.18	47171.16
600.34	47105.62
600.50	47360.74
600.65	47077.54
600.81	47004.98
600.97	47484.79
601.12	47477.77
601.28	47292.86
601.44	46810.71
601.59	47269.46
601.75	47349.04
601.91	46677.30
602.06	46871.57
602.22	46909.02
602.37	46869.23
602.53	47360.74
602.69	47138.39
602.84	47075.19
603.00	47201.58
603.16	46937.10
603.31	46899.65
603.47	46717.09
603.62	46756.88
603.78	47339.68
603.94	47033.07
604.09	47379.46
604.25	46864.55
604.40	46974.55
604.56	46944.12
604.71	47145.41
604.87	46899.65
605.03	47185.20
605.18	47035.41
605.34	46773.27
605.49	46934.76
605.65	47014.34
605.80	46866.89
605.96	47461.38
606.12	47264.78
606.27	47140.73
606.43	47416.91
606.58	47182.86
606.74	46803.69
606.89	46557.94
607.05	47332.65
607.20	47285.84
607.36	46927.74
607.51	46892.63
607.67	46916.04
607.82	46789.65
607.98	47065.83
608.13	46539.21
608.29	46752.20
608.44	46710.07
608.60	46216.22
608.75	46248.99
608.91	46815.40
609.06	46560.28
609.22	46773.27
609.37	46384.74
609.53	46595.38
609.68	46714.75
609.84	46075.79
609.99	46295.80
610.15	46220.90
610.30	46174.09
610.46	46033.66
610.61	46564.96
610.76	46527.51
610.92	46225.58
611.07	46405.80
611.23	46043.02
611.38	46188.13
611.54	46057.06
611.69	46363.67
611.84	46122.60
612.00	46731.14
612.15	45933.01
612.31	46333.24
612.46	46094.51
612.62	46237.28
612.77	46237.28
612.92	46068.76
613.08	46117.92
613.23	46068.76
613.39	46314.52
613.54	46068.76
613.69	46057.06
613.85	46108.55
614.00	46174.09
614.15	46548.57
614.31	46270.05
614.46	45855.78
614.62	46031.32
614.77	46197.49
614.92	46251.33
615.08	45918.97
615.23	45591.30
615.38	45907.27
615.54	45595.98
615.69	45867.48
615.84	45509.38
616.00	45600.66
616.15	45691.94
616.30	45563.21
616.46	45373.63
616.61	45701.30
616.76	45450.86
616.92	44926.58
617.07	45415.76
617.22	45579.59
617.37	45359.58
617.53	45427.46
617.68	45621.72
617.83	45411.07
617.99	45226.17
618.14	45401.71
618.29	45750.45
618.45	45158.30
618.60	45118.51
618.75	45450.86
618.90	45193.40
619.06	45694.28
619.21	45502.35
619.36	45544.48
619.51	45179.36
619.67	44844.66
619.82	45251.92
619.97	45322.13
620.12	44942.97
620.28	44608.27
620.43	44687.85
620.58	44755.72
620.73	45181.70
620.89	44952.33
621.04	44591.89
621.19	44942.97
621.34	44739.34
621.49	44437.41
621.65	44406.98
621.80	45059.99
621.95	44816.58
622.10	44797.85
622.25	44388.26
622.41	44308.68
622.56	44219.74
622.71	44432.73
622.86	44636.36
623.01	44179.95
623.16	44683.17
623.32	44395.28
623.47	44554.44
623.62	44900.84
623.77	44147.18
623.92	44493.58
624.07	44304.00
624.23	44428.05
624.38	44299.32
624.53	43758.66
624.68	44432.73
624.83	44069.95
624.98	44072.29
625.13	43819.51
625.29	44018.46
625.44	43536.30
625.59	43522.26
625.74	43452.05
625.89	43400.55
626.04	43758.66
626.19	43597.16
626.34	43922.49
626.49	44009.09
626.65	43852.28
626.80	43810.15
626.95	44051.22
627.10	43863.98
627.25	43681.42
627.40	43571.41
627.55	43100.97
627.70	43337.36
627.85	42937.13
628.00	43035.43
628.15	43466.09
628.30	43005.00
628.45	43533.96
628.60	43391.19
628.76	43407.58
628.91	43456.73
629.06	43152.46
629.21	43262.46
629.36	43430.98
629.51	42855.21
629.66	42911.38
629.81	42930.11
629.96	42990.96
630.11	42866.91
630.26	42803.72
630.41	43360.76
630.56	42906.70
630.71	43023.73
630.86	43002.66
631.01	42801.38
631.16	43002.66
631.31	42740.52
631.46	42707.76
631.61	42813.08
631.76	42459.66
631.91	43049.47
632.06	42913.72
632.21	43463.75
632.36	42646.90
632.51	42583.71
632.66	42527.53
632.81	42471.36
632.96	42312.20
633.10	42478.38
633.25	42609.45
633.40	42600.09
633.55	42480.72
633.70	42387.10
633.85	42206.88
634.00	42113.26
634.15	42672.65
634.30	42614.13
634.45	42295.82
634.60	42616.47
634.75	41972.83
634.90	42403.49
635.05	42047.72
635.19	42066.45
635.34	42351.99
635.49	42197.52
635.64	41841.76
635.79	41816.01
635.94	42143.69
636.09	41977.51
636.24	41778.56
636.39	42099.22
636.53	41827.71
636.68	41996.23
636.83	42246.67
636.98	42099.22
637.13	41628.77
637.28	41970.49
637.43	42211.56
637.57	42206.88
637.72	41890.91
637.87	41743.45
638.02	41823.03
638.17	41631.11
638.32	41752.82
638.46	41787.92
638.61	41818.35
638.76	41373.65
638.91	41745.80
639.06	42021.98
639.20	41790.27
639.35	41542.17
639.50	41460.25
639.65	41486.00
639.80	41586.64
639.94	41507.06
640.09	41226.20
640.24	41418.12
640.39	40811.92
640.54	41443.87
640.68	41022.57
640.83	41043.63
640.98	40865.75
641.13	40320.41
641.27	41141.94
641.42	41397.06
641.57	41116.19
641.72	41029.59
641.86	40610.64
642.01	41050.66
642.16	40720.64
642.31	40601.27
642.45	41184.07
642.60	40669.15
642.75	41202.79
642.90	40912.56
643.04	40629.36
643.19	40594.25
643.34	41158.32
643.48	39971.67
643.63	40467.86
643.78	40339.13
643.93	40521.69
644.07	40512.33
644.22	41083.42
644.37	40397.65
644.51	40526.38
644.66	40690.21
644.81	40304.02
644.95	40591.91
645.10	40577.87
645.25	40477.22
645.39	40732.34
645.54	40598.93
645.69	40486.59
645.83	40016.14
645.98	40458.50
646.13	40308.71
646.27	40074.65
646.42	40287.64
646.57	40044.23
646.71	39985.71
646.86	40231.47
647.00	40109.76
647.15	40322.75
647.30	39714.21
647.44	39416.96
647.59	40318.07
647.74	39709.53
647.88	39782.09
648.03	39789.11
648.17	39859.32
648.32	39936.56
648.47	39313.98
648.61	39721.23
648.76	40023.16
648.90	39716.55
649.05	40048.91
649.20	39632.29
649.34	39384.19
649.49	39569.10
649.63	39136.10
649.78	39484.84
649.92	39421.64
650.07	39456.75
650.21	39196.95
650.36	39384.19
650.51	39328.02
650.65	39964.65
650.80	39824.22
650.94	39583.14
651.09	39196.95
651.23	39168.87
651.38	39175.89
651.52	39297.59
651.67	39250.78
651.81	39049.50
651.96	38902.04
652.10	39122.05
652.25	39274.19
652.39	39409.94
652.54	39082.27
652.68	39309.30
652.83	39393.56
652.97	39220.36
653.12	39070.56
653.26	38946.51
653.41	39152.48
653.55	38195.20
653.70	38525.22
653.84	39091.63
653.99	38623.52
654.13	38462.02
654.27	38785.02
654.42	38625.86
654.56	38232.65
654.71	38632.88
654.85	38602.46
655.00	38363.72
655.14	38242.01
655.29	38167.12
655.43	38066.47
655.57	38036.05
655.72	38057.11
655.86	37820.72
656.01	37914.34
656.15	37715.39
656.30	37949.45
656.44	38026.68
656.58	37942.42
656.73	37717.73
656.87	38010.30
657.01	37624.11
657.16	38160.09
657.30	38103.92
657.45	37551.56
657.59	37783.27
657.73	38117.96
657.88	38117.96
658.02	38302.87
658.16	38391.81
658.31	37902.64
658.45	37975.19
658.60	37832.42
658.74	38080.52
658.88	37944.76
659.03	37415.80
659.17	37474.32
659.31	37696.67
659.46	37640.50
659.60	37516.45
659.74	37525.81
659.89	37745.82
660.03	37317.50
660.17	37294.10
660.32	37113.87
660.46	37689.65
660.60	37324.52
660.74	37116.22
660.89	37446.23
661.03	36858.76
661.17	37301.12
661.32	36498.31
661.46	36765.14
661.60	36802.58
661.74	36940.68
661.89	36917.27
662.03	36882.16
662.17	36601.30
662.31	36723.01
662.46	36844.71
662.60	36975.78
662.74	36776.84
662.88	35981.06
663.03	36123.83
663.17	36556.83
663.31	35515.29
663.45	36222.13
663.60	35842.96
663.74	35910.84
663.88	36133.19
664.02	35791.47
664.17	36392.99
664.31	35786.79
664.45	35826.58
664.59	35873.39
664.73	36212.77
664.88	35646.36
665.02	35526.99
665.16	36025.53
665.30	35281.24
665.44	35534.01
665.59	35023.78
665.73	35463.80
665.87	35395.92
666.01	35388.90
666.15	35182.93
666.29	35332.73
666.44	34941.86
666.58	35129.10
666.72	34972.28
666.86	34829.51
667.00	35512.95
667.14	34583.76
667.28	34602.48
667.43	34672.70
667.57	34178.84
667.71	34738.23
667.85	34501.84
667.99	34508.86
668.13	34682.06
668.27	34548.65
668.41	34534.60
668.56	34536.94
668.70	34401.19
668.84	34625.89
668.98	34239.70
669.12	33773.93
669.26	34110.97
669.40	33596.05
669.54	33853.51
669.68	33851.17
669.82	33572.64
669.96	33881.60
670.10	33584.35
670.25	34253.74
670.39	33713.08
670.53	33036.66
670.67	32924.32
670.81	33809.04
670.95	33378.38
671.09	32975.81
671.23	33153.69
671.37	33495.41
671.51	33090.49
671.65	32863.46
671.79	32732.39
671.93	33322.21
672.07	33523.49
672.21	33015.60
672.35	32861.12
672.49	33207.52
672.63	32882.19
672.77	32292.37
672.91	32589.62
673.05	32463.23
673.19	32893.89
673.33	32414.08
673.47	32290.03
673.61	31800.86
673.75	32058.32
673.89	31999.80
674.03	31622.98
674.17	32048.96
674.31	31648.72
674.45	31976.40
674.59	31906.18
674.73	31950.65
674.87	31873.42
675.01	31777.45
675.15	31672.13
675.29	31072.95
675.43	31438.08
675.56	31585.53
675.70	31023.80
675.84	31278.92
675.98	30092.27
676.12	30904.43
676.26	31199.34
676.40	30717.19
676.54	30719.53
676.68	31068.27
676.82	30298.23
676.96	30302.92
677.10	30443.35
677.23	30576.76
677.37	30120.35
677.51	29804.38
677.65	30181.21
677.79	29633.52
677.93	29340.96
678.07	29486.07
678.21	29230.95
678.34	29198.18
678.48	29237.97
678.62	29280.10
678.76	28767.52
678.90	28835.40
679.04	28975.83
679.18	28788.59
679.31	28552.20
679.45	28830.72
679.59	28409.42
679.73	28339.21
679.87	28364.95
680.00	28285.37
680.14	28144.94
680.28	28236.22
680.42	28421.13
680.56	28056.00
680.70	27948.34
680.83	28144.94
680.97	28030.26
681.11	28245.58
681.25	27878.12
681.39	27615.98
681.52	28191.75
681.66	27527.04
681.80	27644.07
681.94	27433.42
682.07	27260.22
682.21	26859.99
682.35	27269.58
682.49	26899.78
682.62	26981.70
682.76	26714.87
682.90	26782.75
683.04	26492.52
683.17	26501.89
683.31	26153.15
683.45	26125.06
683.59	26412.95
683.72	25984.63
683.86	25891.01
684.00	26092.29
684.13	26146.12
684.27	25867.60
684.41	25715.47
684.55	25130.33
684.68	25263.74
684.82	25579.71
684.96	25277.79
685.09	25434.60
685.23	25390.13
685.37	25287.15
685.50	24978.20
685.64	24769.89
685.78	24589.67
685.91	24671.59
686.05	24545.20
686.19	24254.97
686.32	24439.87
686.46	23901.55
686.60	23847.72
686.73	23908.57
686.87	23573.88
687.01	23377.27
687.14	23529.41
687.28	23428.76
687.42	23344.50
687.55	23550.47
687.69	23796.23
687.82	23484.94
687.96	23349.18
688.10	23285.99
688.23	23122.15
688.37	22813.20
688.50	22780.43
688.64	22944.27
688.78	22712.56
688.91	22553.40
689.05	22911.50
689.18	22532.34
689.32	22366.16
689.46	22321.69
689.59	22225.73
689.73	22480.85
689.86	22181.26
690.00	22239.77
690.13	22253.81
690.27	21919.12
690.41	22207.00
690.54	21563.36
690.68	21502.50
690.81	21687.40
690.95	21680.38
691.08	21614.85
691.22	21214.62
691.35	21296.53
691.49	21198.23
691.62	21291.85
691.76	21186.53
691.89	21006.31
692.03	20957.16
692.16	20905.66
692.30	20872.90
692.43	20531.18
692.57	20479.69
692.70	20503.09
692.84	20376.70
692.97	20355.64
693.11	20205.84
693.24	20020.94
693.38	20004.56
693.51	19957.75
693.65	20276.06
693.78	19672.20
693.92	20205.84
694.05	20077.12
694.19	19683.91
694.32	19578.58
694.45	19276.65
694.59	18974.72
694.72	19073.03
694.86	19171.33
694.99	18909.19
695.13	19215.80
695.26	18986.43
695.39	18483.21
695.53	18679.82
695.66	18923.23
695.80	19030.90
695.93	18932.59
696.07	18860.04
696.20	18410.65
696.33	18593.22
696.47	18408.31
696.60	18335.76
696.73	18398.95
696.87	17984.68
697.00	18181.28
697.14	18115.75
697.27	17755.30
697.40	17921.48
697.54	17907.44
697.67	17572.74
697.80	17458.06
697.94	17401.88
698.07	17238.05
698.21	17497.84
698.34	17163.15
698.47	17123.36
698.61	16938.46
698.74	16975.91
698.87	16833.13
699.01	16594.40
699.14	16428.22
699.27	16568.65
699.40	16643.55
699.54	16336.94
699.67	16238.64
699.80	16566.31
699.94	16393.11
700.07	16381.41
700.20	16301.83
700.34	16077.14
700.47	16407.16
700.60	16149.70
700.73	16372.05
700.87	16145.02
701.00	16023.31
701.13	15894.58
701.26	15983.52
701.40	15620.74
701.53	15480.30
701.66	15524.77
701.79	15358.60
701.93	15571.58
702.06	15169.01
702.19	15365.62
702.32	15157.31
702.46	14808.57
702.59	15143.27
702.72	15096.46
702.85	15161.99
702.99	15314.13
703.12	14995.81
703.25	14717.29
703.38	14609.62
703.51	14368.55
703.65	14675.16
703.78	14508.98
703.91	14572.18
704.04	14288.97
704.17	14326.42
704.31	14260.88
704.44	14064.28
704.57	14225.78
704.70	14106.41
704.83	14160.24
704.96	14120.45
705.10	14085.34
705.23	13870.01
>>>>>End Processed Spectral Data<<<<<
