SpectraSuite Data File
++++++++++++++++++++++++++++++++++++
Date: Fri Oct 25 11:33:57 EDT 2013
User: price-jones
Dark Spectrum Present: No
Reference Spectrum Present: No
Number of Sampled Component Spectra: 1
Spectrometers: USB2+H05261
Integration Time (usec): 100000 (USB2+H05261)
Spectra Averaged: 1 (USB2+H05261)
Boxcar Smoothing: 0 (USB2+H05261)
Correct for Electrical Dark: No (USB2+H05261)
Strobe/Lamp Enabled: No (USB2+H05261)
Correct for Detector Non-linearity: No (USB2+H05261)
Correct for Stray Light: No (USB2+H05261)
Number of Pixels in Processed Spectrum: 2048
>>>>>Begin Processed Spectral Data<<<<<
365.73	292.57
365.92	292.57
366.12	292.57
366.32	203.63
366.52	114.69
366.72	215.33
366.91	191.92
367.11	177.88
367.31	156.82
367.51	243.42
367.70	159.16
367.90	222.35
368.10	51.49
368.30	208.31
368.49	229.37
368.69	203.63
368.89	215.33
369.09	264.48
369.28	196.60
369.48	205.97
369.68	198.95
369.87	252.78
370.07	231.71
370.27	243.42
370.47	290.23
370.66	395.55
370.86	505.56
371.06	531.30
371.25	575.77
371.45	557.05
371.65	568.75
371.84	505.56
372.04	564.07
372.24	557.05
372.44	510.24
372.63	610.88
372.83	657.69
373.03	578.11
373.22	627.26
373.42	624.92
373.62	571.09
373.81	543.00
374.01	678.76
374.21	667.05
374.40	648.33
374.60	678.76
374.79	746.63
374.99	676.41
375.19	692.80
375.38	720.88
375.58	667.05
375.78	629.60
375.97	716.20
376.17	730.25
376.37	683.44
376.56	718.54
376.76	746.63
376.95	706.84
377.15	709.18
377.35	716.20
377.54	699.82
377.74	627.26
377.93	648.33
378.13	681.10
378.33	697.48
378.52	741.95
378.72	795.78
378.91	748.97
379.11	667.05
379.31	748.97
379.50	702.16
379.70	772.38
379.89	748.97
380.09	753.65
380.28	723.23
380.48	716.20
380.68	784.08
380.87	695.14
381.07	706.84
381.26	774.72
381.46	765.36
381.65	760.67
381.85	737.27
382.04	816.85
382.24	777.06
382.43	777.06
382.63	767.70
382.83	751.31
383.02	744.29
383.22	828.55
383.41	816.85
383.61	751.31
383.80	823.87
384.00	837.91
384.19	819.19
384.39	821.53
384.58	744.29
384.78	793.44
384.97	837.91
385.17	870.68
385.36	929.19
385.56	746.63
385.75	816.85
385.95	837.91
386.14	866.00
386.34	844.93
386.53	912.81
386.72	856.64
386.92	882.38
387.11	898.77
387.31	929.19
387.50	875.36
387.70	868.34
387.89	861.32
388.09	959.62
388.28	898.77
388.48	933.87
388.67	945.58
388.86	983.02
389.06	912.81
389.25	964.30
389.45	940.90
389.64	901.11
389.84	877.70
390.03	987.71
390.22	966.64
390.42	957.28
390.61	959.62
390.81	908.13
391.00	947.92
391.19	980.68
391.39	1013.45
391.58	940.90
391.78	1020.47
391.97	1006.43
392.16	1034.52
392.36	1132.82
392.55	961.96
392.75	1062.60
392.94	1001.75
393.13	1069.62
393.33	954.94
393.52	1015.79
393.71	1116.44
393.91	992.39
394.10	1055.58
394.29	1135.16
394.49	1156.22
394.68	1097.71
394.88	1184.31
395.07	1107.07
395.26	1130.48
395.46	1172.61
395.65	1198.35
395.84	1196.01
396.04	1144.52
396.23	1151.54
396.42	1163.25
396.62	1212.40
396.81	1198.35
397.00	1142.18
397.19	1174.95
397.39	1273.25
397.58	1329.42
397.77	1249.85
397.97	1282.61
398.16	1156.22
398.35	1317.72
398.55	1355.17
398.74	1350.49
398.93	1247.51
399.12	1334.11
399.32	1270.91
399.51	1317.72
399.70	1364.53
399.90	1341.13
400.09	1362.19
400.28	1364.53
400.47	1369.21
400.67	1406.66
400.86	1406.66
401.05	1366.87
401.24	1385.60
401.44	1474.54
401.63	1488.58
401.82	1416.02
402.01	1411.34
402.21	1416.02
402.40	1476.88
402.59	1427.73
402.78	1460.49
402.97	1514.33
403.17	1547.09
403.36	1577.52
403.55	1514.33
403.74	1533.05
403.93	1586.88
404.13	1579.86
404.32	1605.61
404.51	1568.16
404.70	1619.65
404.89	1586.88
405.09	1678.16
405.28	1701.57
405.47	1579.86
405.66	1715.61
405.85	1603.27
406.05	1689.87
406.24	1703.91
406.43	1736.68
406.62	1673.48
406.81	1849.02
407.00	1743.70
407.20	1799.87
407.39	1788.17
407.58	1907.54
407.77	1842.00
407.96	1755.40
408.15	1830.30
408.34	1771.79
408.54	1842.00
408.73	1856.04
408.92	1968.39
409.11	1952.01
409.30	2003.50
409.49	1956.69
409.68	2024.56
409.87	1919.24
410.07	1987.11
410.26	2029.24
410.45	2033.93
410.64	2136.91
410.83	2031.58
411.02	1989.46
411.21	2087.76
411.40	2165.00
411.59	2122.87
411.78	2183.72
411.98	2186.06
412.17	2298.41
412.36	2204.78
412.55	2275.00
412.74	2305.43
412.93	2359.26
413.12	2286.70
413.31	2328.83
413.50	2345.22
413.69	2349.90
413.88	2469.27
414.07	2469.27
414.26	2567.57
414.45	2532.46
414.64	2469.27
414.83	2572.25
415.02	2597.99
415.22	2607.36
415.41	2560.55
415.60	2640.12
415.79	2794.60
415.98	2745.45
416.17	2644.81
416.36	2635.44
416.55	2717.36
416.74	2848.43
416.93	2752.47
417.12	2754.81
417.31	2752.47
417.50	2803.96
417.69	2960.78
417.88	2881.20
418.07	2902.26
418.26	2881.20
418.45	2951.42
418.64	3070.78
418.83	3009.93
419.02	3131.64
419.21	3094.19
419.39	3180.79
419.58	2977.16
419.77	2993.55
419.96	3080.14
420.15	3103.55
420.34	3105.89
420.53	3194.83
420.72	3243.98
420.91	3131.64
421.10	3162.06
421.29	3176.11
421.48	3258.03
421.67	3227.60
421.86	3279.09
422.05	3314.20
422.24	3356.33
422.43	3335.26
422.61	3433.57
422.80	3361.01
422.99	3321.22
423.18	3447.61
423.37	3433.57
423.56	3372.71
423.75	3353.99
423.94	3239.30
424.13	3185.47
424.32	3314.20
424.50	3375.05
424.69	3503.78
424.88	3482.72
425.07	3435.91
425.26	3370.37
425.45	3339.94
425.64	3468.67
425.83	3375.05
426.01	3424.20
426.20	3468.67
426.39	3442.93
426.58	3339.94
426.77	3384.41
426.96	3487.40
427.15	3466.33
427.33	3489.74
427.52	3396.12
427.71	3609.11
427.90	3555.27
428.09	3538.89
428.28	3648.90
428.46	3611.45
428.65	3564.64
428.84	3695.71
429.03	3705.07
429.22	3627.83
429.40	3728.47
429.59	3808.05
429.78	3754.22
429.97	3625.49
430.16	3667.62
430.34	3728.47
430.53	3845.50
430.72	3873.59
430.91	3819.75
431.10	3864.22
431.28	3913.38
431.47	3850.18
431.66	4058.49
431.85	3915.72
432.03	3992.95
432.22	4035.08
432.41	4032.74
432.60	4002.32
432.79	4114.66
432.97	4039.76
433.16	3997.64
433.35	4166.15
433.54	4011.68
433.72	4189.56
433.91	4140.41
434.10	4161.47
434.28	4128.70
434.47	4112.32
434.66	4393.19
434.85	4287.86
435.03	4374.46
435.22	4255.09
435.41	4388.50
435.59	4339.35
435.78	4283.18
435.97	4428.29
436.16	4332.33
436.34	4456.38
436.53	4390.84
436.72	4519.57
436.90	4283.18
437.09	4479.79
437.28	4308.93
437.46	4575.75
437.65	4456.38
437.84	4585.11
438.02	4421.27
438.21	4695.11
438.40	4402.55
438.58	4650.64
438.77	4723.20
438.96	4627.24
439.14	4706.82
439.33	4865.97
439.52	4730.22
439.70	4861.29
439.89	4968.96
440.08	5041.51
440.26	5020.45
440.45	4849.59
440.63	5053.22
440.82	5151.52
441.01	5200.67
441.19	5238.12
441.38	5088.32
441.57	5142.16
441.75	5268.55
441.94	5324.72
442.12	5383.23
442.31	5362.17
442.50	5416.00
442.68	5310.68
442.87	5259.18
443.05	5399.62
443.24	5626.65
443.43	5460.47
443.61	5460.47
443.80	5738.99
443.98	5540.05
444.17	5378.55
444.35	5617.29
444.54	5652.39
444.73	5561.11
444.91	5495.58
445.10	5631.33
445.28	5636.01
445.47	5462.81
445.65	5692.18
445.84	5596.22
446.02	5781.12
446.21	5743.67
446.39	5572.82
446.58	5614.95
446.77	5621.97
446.95	5568.13
447.14	5584.52
447.32	5797.51
447.51	5610.26
447.69	5734.31
447.88	5661.76
448.06	5640.69
448.25	5734.31
448.43	5706.23
448.62	5661.76
448.80	5708.57
448.99	5806.87
449.17	6024.54
449.36	5802.19
449.54	5881.77
449.73	5951.98
449.91	6045.60
450.10	6071.35
450.28	6146.25
450.46	6043.26
450.65	5902.83
450.83	5989.43
451.02	6239.87
451.20	6228.17
451.39	6050.28
451.57	6188.38
451.76	6134.54
451.94	6239.87
452.13	6230.51
452.31	6293.70
452.49	6303.06
452.68	6125.18
452.86	6354.55
453.05	6277.32
453.23	6282.00
453.42	6328.81
453.60	6270.30
453.78	6209.44
453.97	6338.17
454.15	6370.94
454.34	6326.47
454.52	6544.14
454.70	6349.87
454.89	6518.39
455.07	6548.82
455.26	6572.22
455.44	6649.46
455.62	6560.52
455.81	6665.85
455.99	6707.98
456.17	6712.66
456.36	6604.99
456.54	6906.92
456.73	6808.62
456.91	6799.26
457.09	7040.33
457.28	7115.23
457.46	6972.46
457.64	6960.75
457.83	7014.59
458.01	6944.37
458.19	7204.17
458.38	6970.12
458.56	7225.23
458.74	7063.74
458.93	7073.10
459.11	7267.36
459.29	7227.57
459.48	7225.23
459.66	7152.68
459.84	7218.21
460.03	7253.32
460.21	7346.94
460.39	7152.68
460.57	7220.55
460.76	7297.79
460.94	7515.46
461.12	7382.05
461.31	7503.76
461.49	7597.38
461.67	7475.67
461.85	7576.31
462.04	7424.18
462.22	7810.37
462.40	7672.28
462.59	7630.15
462.77	7674.62
462.95	7922.71
463.13	7815.05
463.32	7878.24
463.50	7777.60
463.68	7943.78
463.86	7714.41
464.05	7779.94
464.23	7592.70
464.41	7826.75
464.59	7768.24
464.78	8154.43
464.96	7791.64
465.14	7737.81
465.32	8105.28
465.50	8131.02
465.69	8187.19
465.87	7990.59
466.05	8077.19
466.23	8039.74
466.41	8156.77
466.60	8212.94
466.78	7997.61
466.96	8163.79
467.14	8334.65
467.32	8224.64
467.51	8226.98
467.69	8058.46
467.87	8589.77
468.05	8262.09
468.23	8500.83
468.41	8226.98
468.60	8390.82
468.78	8456.36
468.96	8351.03
469.14	8407.20
469.32	8760.63
469.50	8535.93
469.69	8526.57
469.87	8793.39
470.05	8601.47
470.23	8730.20
470.41	8744.24
470.59	8755.94
470.77	8753.60
470.95	8861.27
471.14	8894.04
471.32	8753.60
471.50	8788.71
471.68	8877.65
471.86	9057.87
472.04	9153.84
472.22	9254.48
472.40	8971.27
472.58	9041.49
472.77	9046.17
472.95	9305.97
473.13	9710.88
473.31	9205.33
473.49	9312.99
473.67	9261.50
473.85	9296.61
474.03	9626.62
474.21	9577.47
474.39	9654.71
474.57	9565.77
474.75	9692.16
474.93	10029.20
475.12	9825.57
475.30	10068.98
475.48	9797.48
475.66	10008.13
475.84	10076.01
476.02	10071.33
476.20	9975.36
476.38	10565.18
476.56	10597.95
476.74	10478.58
476.92	10410.70
477.10	10366.23
477.28	10736.04
477.46	10619.01
477.64	10684.55
477.82	10888.17
478.00	11171.38
478.18	10974.77
478.36	11101.16
478.54	11169.04
478.72	11190.10
478.90	11480.33
479.08	11480.33
479.26	11555.22
479.44	11419.47
479.62	11606.72
479.80	11946.09
479.98	11747.15
480.16	11934.39
480.34	12053.76
480.52	11747.15
480.70	12301.86
480.88	11894.60
481.06	12325.26
481.24	12294.83
481.41	12573.36
481.59	12482.08
481.77	12933.80
481.95	12730.17
482.13	12968.91
482.31	12910.40
482.49	13401.91
482.67	13245.09
482.85	13310.63
483.03	13497.87
483.21	13652.34
483.39	13781.07
483.57	13380.84
483.74	14064.28
483.92	13886.40
484.10	13870.01
484.28	14314.72
484.46	14408.34
484.64	14707.93
484.82	14494.94
485.00	14654.09
485.18	14831.97
485.35	14890.49
485.53	14827.29
485.71	14736.01
485.89	15506.05
486.07	15248.59
486.25	15403.07
486.43	15482.64
486.61	15704.99
486.78	15424.13
486.96	15496.69
487.14	15758.83
487.32	16219.91
487.50	16152.04
487.68	16407.16
487.85	16510.14
488.03	16517.16
488.21	16732.49
488.39	16531.20
488.57	16737.17
488.75	16718.45
488.92	17116.34
489.10	17376.14
489.28	17444.01
489.46	17474.44
489.64	17476.78
489.81	17743.60
489.99	18237.45
490.17	18237.45
490.35	18473.85
490.53	18251.50
490.70	18565.13
490.88	18038.51
491.06	18960.68
491.24	18745.35
491.41	18663.43
491.59	19070.68
491.77	19089.41
491.95	19126.86
492.13	19499.00
492.30	19248.57
492.48	19491.98
492.66	19580.92
492.84	19793.91
493.01	19971.79
493.19	19857.10
493.37	19985.83
493.54	20236.27
493.72	20407.13
493.90	20360.32
494.08	20634.16
494.25	20844.81
494.43	20917.37
494.61	21055.46
494.79	21177.17
494.96	20982.90
495.14	21245.04
495.32	21170.15
495.49	21741.24
495.67	21792.73
495.85	22043.17
496.02	21860.60
496.20	21930.82
496.38	22066.57
496.55	22305.31
496.73	22590.85
496.91	22476.16
497.09	22733.62
497.26	22647.02
497.44	22717.24
497.62	22789.80
497.79	23241.52
497.97	23047.26
498.14	23335.14
498.32	22965.34
498.50	23852.40
498.67	23828.99
498.85	23447.49
499.03	23777.50
499.20	23726.01
499.38	23978.79
499.56	24166.03
499.73	23913.25
499.91	24709.04
500.08	24404.77
500.26	24336.89
500.44	24629.46
500.61	24610.73
500.79	24514.77
500.97	24594.35
501.14	24999.26
501.32	24973.52
501.49	25034.37
501.67	25111.61
501.84	25310.55
502.02	25348.00
502.20	25090.54
502.37	25521.20
502.55	25898.03
502.72	25668.66
502.90	25848.88
503.07	25633.55
503.25	25876.96
503.43	25560.99
503.60	26274.85
503.78	26066.55
503.95	26382.52
504.13	26272.51
504.30	26726.58
504.48	26553.38
504.65	26426.99
504.83	26333.37
505.01	26850.63
505.18	26927.86
505.36	27105.74
505.53	26984.04
505.71	27119.79
505.88	27229.79
506.06	27241.50
506.23	27557.47
506.41	27398.31
506.58	27222.77
506.76	27807.90
506.93	27807.90
507.11	27651.09
507.28	27852.38
507.46	27981.10
507.63	28287.71
507.81	28261.97
507.98	28182.39
508.16	27892.16
508.33	28397.72
508.50	28437.51
508.68	28355.59
508.85	28924.34
509.03	28301.76
509.20	29118.60
509.38	29146.69
509.55	29127.97
509.73	29233.29
509.90	29034.35
510.08	29226.27
510.25	29006.26
510.42	29322.23
510.60	29387.77
510.77	29883.96
510.95	29729.48
511.12	29853.53
511.30	29947.15
511.47	29879.28
511.64	29813.74
511.82	30024.39
511.99	29949.50
512.17	30195.25
512.34	30218.66
512.51	30452.71
512.69	30771.02
512.86	30558.03
513.04	30558.03
513.21	31002.74
513.38	30742.94
513.56	30955.93
513.73	30558.03
513.90	30848.26
514.08	30595.48
514.25	31431.05
514.43	31145.51
514.60	31175.94
514.77	31447.44
514.95	31484.89
515.12	31229.77
515.29	31463.82
515.47	32011.51
515.64	31908.52
515.81	31505.95
515.99	31775.11
516.16	32278.33
516.33	31999.80
516.51	32133.21
516.68	32161.30
516.85	31892.14
517.03	32463.23
517.20	32418.76
517.37	32765.16
517.54	32528.77
517.72	32315.78
517.89	32301.73
518.06	32954.74
518.24	32760.48
518.41	32584.94
518.58	32746.44
518.75	32486.64
518.93	33001.55
519.10	33191.14
519.27	33151.35
519.45	33160.71
519.62	33450.94
519.79	33376.04
519.96	33064.75
520.14	33493.07
520.31	33181.77
520.48	33708.40
520.65	33729.46
520.83	34117.99
521.00	34295.87
521.17	34068.84
521.34	34307.57
521.52	34312.25
521.69	34354.38
521.86	34213.95
522.03	34518.22
522.20	34850.58
522.38	34553.33
522.55	34756.96
522.72	34899.73
522.89	34462.05
523.07	35232.08
523.24	34773.34
523.41	35171.23
523.58	34766.32
523.75	35421.67
523.92	35063.57
524.10	35196.98
524.27	35079.95
524.44	35405.28
524.61	35531.67
524.78	35194.64
524.96	35875.73
525.13	35618.27
525.30	35917.86
525.47	35768.07
525.64	35697.85
525.81	35882.75
525.98	36135.53
526.16	36079.36
526.33	36135.53
526.50	36563.85
526.67	35983.40
526.84	36542.78
527.01	35526.99
527.18	36126.17
527.36	36201.07
527.53	36407.03
527.70	36549.81
527.87	36708.96
528.04	36517.04
528.21	36968.76
528.38	36245.54
528.55	37064.72
528.72	36678.54
528.89	36865.78
529.07	36907.91
529.24	36622.36
529.41	37256.65
529.58	37294.10
529.75	37022.59
529.92	37130.26
530.09	37146.64
530.26	37319.84
530.43	37408.78
530.60	37165.37
530.77	37151.32
530.94	37343.25
531.11	37380.70
531.28	37762.20
531.46	37656.88
531.63	38106.26
531.80	37432.19
531.97	37998.60
532.14	37965.83
532.31	37940.08
532.48	38160.09
532.65	38431.60
532.82	38059.45
532.99	38721.82
533.16	37895.61
533.33	38199.88
533.50	38291.16
533.67	38469.04
533.84	37928.38
534.01	38143.71
534.18	38522.88
534.35	38632.88
534.52	38733.53
534.69	39210.99
534.86	39086.95
535.03	38885.66
535.20	39033.11
535.37	39349.09
535.54	39189.93
535.71	39421.64
535.88	39349.09
536.05	39260.15
536.22	39419.30
536.38	39344.41
536.55	39171.21
536.72	38988.64
536.89	39360.79
537.06	39765.70
537.23	40025.50
537.40	39725.91
537.57	39370.15
537.74	39667.40
537.91	40048.91
538.08	39494.20
538.25	39533.99
538.42	40013.80
538.59	40112.10
538.75	39655.70
538.92	40292.32
539.09	40128.48
539.26	39735.27
539.43	39770.38
539.60	40032.52
539.77	40430.41
539.94	40381.26
540.11	40524.04
540.28	40477.22
540.44	39756.34
540.61	40182.32
540.78	40196.36
540.95	40086.36
541.12	40268.92
541.29	40339.13
541.46	40208.06
541.62	40612.98
541.79	40783.83
541.96	40737.02
542.13	40973.42
542.30	40634.04
542.47	40755.75
542.63	41034.27
542.80	41476.63
542.97	41600.68
543.14	41001.50
543.31	41041.29
543.48	41511.74
543.64	42031.34
543.81	41633.45
543.98	41525.78
544.15	41668.56
544.32	41954.10
544.48	42026.66
544.65	41588.98
544.82	42405.83
544.99	41617.07
545.16	41352.58
545.32	41659.20
545.49	42209.22
545.66	42031.34
545.83	42061.77
546.00	42480.72
546.16	42321.57
546.33	41958.78
546.50	41694.30
546.67	42775.63
546.83	41902.61
547.00	42483.06
547.17	42394.12
547.34	42525.19
547.50	42813.08
547.67	42855.21
547.84	42422.21
548.00	42911.38
548.17	42513.49
548.34	42951.17
548.51	42747.54
548.67	43091.60
548.84	42740.52
549.01	42796.70
549.18	42761.59
549.34	42731.16
549.51	43047.13
549.68	43342.04
549.84	42927.77
550.01	43225.01
550.18	43072.88
550.34	43089.26
550.51	43470.77
550.68	42939.47
550.84	43185.22
551.01	43398.21
551.18	43161.82
551.34	43026.07
551.51	43658.01
551.68	43709.50
551.84	43941.22
552.01	43545.67
552.18	43625.25
552.34	43620.56
552.51	43952.92
552.68	43311.61
552.84	43758.66
553.01	44048.88
553.18	43526.94
553.34	43812.49
553.51	43723.55
553.67	43868.66
553.84	44224.42
554.01	44058.24
554.17	43693.12
554.34	44446.77
554.51	43746.95
554.67	44418.69
554.84	44458.48
555.00	44114.42
555.17	44318.04
555.33	44404.64
555.50	43833.55
555.67	44201.02
555.83	44446.77
556.00	44149.53
556.16	44395.28
556.33	44498.26
556.50	44559.12
556.66	44533.37
556.83	44245.49
556.99	44554.44
557.16	44708.91
557.32	44421.03
557.49	44772.11
557.65	44608.27
557.82	44692.53
557.98	44774.45
558.15	44479.54
558.32	44814.24
558.48	44509.97
558.65	45134.89
558.81	45062.33
558.98	44666.78
559.14	44809.56
559.31	44980.42
559.47	44828.28
559.64	45057.65
559.80	44793.17
559.97	44868.07
560.13	44753.38
560.30	44818.92
560.46	45439.16
560.63	45675.55
560.79	45240.21
560.96	45345.54
561.12	45251.92
561.29	45071.70
561.45	45324.47
561.61	45106.80
561.78	45387.67
561.94	45104.46
562.11	45036.59
562.27	45174.68
562.44	44910.20
562.60	45846.41
562.77	45193.40
562.93	45111.49
563.10	45670.87
563.26	45457.88
563.42	45766.84
563.59	45242.56
563.75	45511.72
563.92	45659.17
564.08	45588.95
564.24	45661.51
564.41	45265.96
564.57	45839.39
564.74	45853.44
564.90	45743.43
565.07	45497.67
565.23	45645.13
565.39	45734.07
565.56	45691.94
565.72	46129.62
565.88	45811.31
566.05	45883.86
566.21	45902.59
566.38	45794.92
566.54	45984.51
566.70	46092.17
566.87	45839.39
567.03	45727.05
567.19	46134.30
567.36	45464.91
567.52	45914.29
567.68	46349.63
567.85	46017.27
568.01	46073.45
568.17	45764.49
568.34	46103.87
568.50	46302.82
568.66	45918.97
568.83	45797.26
568.99	46101.53
569.15	45776.20
569.32	45930.67
569.48	46190.47
569.64	46375.37
569.81	45886.20
569.97	46021.95
570.13	46244.30
570.30	45818.33
570.46	46354.31
570.62	46553.26
570.78	46171.75
570.95	46422.19
571.11	46471.34
571.27	46078.13
571.43	46258.35
571.60	46028.98
571.76	46466.66
571.92	46358.99
572.09	46021.95
572.25	46099.19
572.41	46270.05
572.57	46663.26
572.74	46962.85
572.90	46120.26
573.06	46548.57
573.22	46667.94
573.38	46515.81
573.55	46284.09
573.71	46871.57
573.87	46335.59
574.03	46220.90
574.20	46714.75
574.36	46380.06
574.52	46752.20
574.68	46777.95
574.84	46445.59
575.01	46597.73
575.17	46487.72
575.33	46763.90
575.49	46555.60
575.65	46478.36
575.82	46473.68
575.98	46464.32
576.14	46820.08
576.30	46766.24
576.46	46677.30
576.62	46749.86
576.79	46513.47
576.95	46377.72
577.11	46408.14
577.27	46890.29
577.43	46759.22
577.59	46670.28
577.75	46206.86
577.92	46295.80
578.08	46759.22
578.24	46515.81
578.40	46681.98
578.56	46476.02
578.72	46923.06
578.88	46808.37
579.04	46777.95
579.21	46483.04
579.37	46733.48
579.53	46962.85
579.69	46768.58
579.85	46855.18
580.01	46997.96
580.17	46780.29
580.33	47014.34
580.49	46541.55
580.65	46689.01
580.82	46852.84
580.98	46866.89
581.14	46595.38
581.30	46522.83
581.46	46993.28
581.62	46735.82
581.78	46733.48
581.94	46749.86
582.10	46941.78
582.26	46857.52
582.42	47100.94
582.58	46803.69
582.74	47124.35
582.90	47040.09
583.06	46761.56
583.22	47082.22
583.38	47054.13
583.54	47009.66
583.70	47175.84
583.86	47269.46
584.02	46656.24
584.18	46923.06
584.34	46988.60
584.50	47065.83
584.66	46866.89
584.82	47161.79
584.98	47189.88
585.14	47175.84
585.30	47349.04
585.46	46894.97
585.62	46618.79
585.78	47234.35
585.94	46693.69
586.10	46906.68
586.26	46827.10
586.42	47044.77
586.58	47435.64
586.74	47157.11
586.90	46990.94
587.06	46913.70
587.22	47089.24
587.38	46815.40
587.54	47447.34
587.70	47175.84
587.86	46995.62
588.02	46597.73
588.18	47040.09
588.34	47173.50
588.49	46925.40
588.65	46796.67
588.81	47054.13
588.97	47250.74
589.13	47358.40
589.29	47430.96
589.45	47306.91
589.61	46880.93
589.77	47143.07
589.93	47112.64
590.08	47182.86
590.24	47526.92
590.40	47540.96
590.56	47697.78
590.72	47440.32
590.88	47154.77
591.04	47297.55
591.20	47306.91
591.35	47597.13
591.51	47973.96
591.67	47470.75
591.83	47866.30
591.99	47325.63
592.15	47143.07
592.31	47480.11
592.46	47367.76
592.62	47393.51
592.78	47760.97
592.94	47725.86
593.10	47686.07
593.26	47861.61
593.41	47601.82
593.57	47536.28
593.73	47679.05
593.89	48095.67
594.05	47983.32
594.20	47566.71
594.36	47625.22
594.52	47646.29
594.68	47559.69
594.84	47566.71
594.99	47936.51
595.15	47725.86
595.31	47786.72
595.47	47730.54
595.62	47613.52
595.78	47995.03
595.94	47412.23
596.10	47807.78
596.25	47807.78
596.41	47753.95
596.57	47505.85
596.73	48009.07
596.88	47753.95
597.04	47669.69
597.20	48306.32
597.36	47789.06
597.51	47772.67
597.67	47407.55
597.83	47566.71
597.99	47714.16
598.14	47592.45
598.30	48065.24
598.46	47798.42
598.61	48273.55
598.77	47702.46
598.93	48025.45
599.09	47854.59
599.24	48320.36
599.40	47952.90
599.56	48179.93
599.71	47723.52
599.87	48399.94
600.03	48236.10
600.18	47861.61
600.34	47681.39
600.50	48018.43
600.65	48006.73
600.81	48025.45
600.97	47941.19
601.12	48065.24
601.28	47948.21
601.44	47805.44
601.59	47681.39
601.75	47817.14
601.91	48296.95
602.06	47636.92
602.22	48107.37
602.37	47819.49
602.53	48053.54
602.69	48133.12
602.84	48055.88
603.00	47913.11
603.16	47999.71
603.31	47707.14
603.47	48114.39
603.62	47866.30
603.78	47826.51
603.94	47735.23
604.09	47831.19
604.25	48095.67
604.40	47608.84
604.56	47873.32
604.71	48238.44
604.87	47805.44
605.03	47634.58
605.18	47681.39
605.34	48013.75
605.49	47826.51
605.65	48095.67
605.80	47482.45
605.96	47901.40
606.12	47304.57
606.27	47938.85
606.43	47573.73
606.58	47859.27
606.74	47817.14
606.89	47894.38
607.05	47997.37
607.20	47742.25
607.36	47611.18
607.51	47543.30
607.67	47707.14
607.82	47917.79
607.98	47641.60
608.13	47760.97
608.29	47285.84
608.44	47936.51
608.60	47571.39
608.75	47533.94
608.91	47599.47
609.06	47346.70
609.22	47908.43
609.37	47367.76
609.53	47847.57
609.68	47700.12
609.84	48109.71
609.99	47739.91
610.15	47735.23
610.30	47538.62
610.46	47676.71
610.61	47416.91
610.76	47632.24
610.92	47236.69
611.07	47026.04
611.23	47746.93
611.38	47662.67
611.54	47540.96
611.69	47152.43
611.84	47831.19
612.00	47416.91
612.15	47227.33
612.31	47643.94
612.46	47222.65
612.62	47339.68
612.77	46843.48
612.92	47531.60
613.08	47203.92
613.23	47737.57
613.39	46969.87
613.54	47239.03
613.69	47040.09
613.85	46960.51
614.00	47337.33
614.15	47367.76
614.31	47309.25
614.46	47292.86
614.62	46838.80
614.77	46976.89
614.92	47269.46
615.08	47049.45
615.23	47056.47
615.38	47100.94
615.54	47049.45
615.69	47168.82
615.84	47332.65
616.00	47189.88
616.15	46873.91
616.30	47349.04
616.46	47210.95
616.61	47007.32
616.76	47304.57
616.92	46974.55
617.07	47145.41
617.22	46714.75
617.37	46571.98
617.53	46632.83
617.68	46841.14
617.83	46761.56
617.99	46967.53
618.14	46894.97
618.29	46920.72
618.45	46681.98
618.60	46864.55
618.75	46323.88
618.90	46789.65
619.06	46326.22
619.21	46314.52
619.36	46677.30
619.51	46829.44
619.67	46787.31
619.82	46679.64
619.97	46761.56
620.12	46513.47
620.28	46478.36
620.43	46862.21
620.58	46827.10
620.73	46911.36
620.89	46686.67
621.04	46880.93
621.19	46419.84
621.34	46169.41
621.49	45923.65
621.65	46263.03
621.80	46424.53
621.95	46548.57
622.10	46557.94
622.25	46548.57
622.41	46134.30
622.56	46377.72
622.71	46232.60
622.86	45897.91
623.01	46602.41
623.16	46057.06
623.32	46103.87
623.47	46117.92
623.62	46412.82
623.77	46066.42
623.92	45996.21
624.07	46059.40
624.23	46307.50
624.38	46012.59
624.53	45883.86
624.68	45832.37
624.83	45652.15
624.98	46188.13
625.13	46096.85
625.29	45230.85
625.44	46005.57
625.59	46061.74
625.74	45708.32
625.89	45137.23
626.04	45825.35
626.19	45638.11
626.34	45757.47
626.49	45537.46
626.65	45095.10
626.80	45425.12
626.95	45378.31
627.10	45497.67
627.25	45581.93
627.40	45460.23
627.55	45918.97
627.70	45567.89
627.85	45715.34
628.00	45603.00
628.15	45663.85
628.30	45188.72
628.45	45399.37
628.60	44783.81
628.76	45013.18
628.91	45104.46
629.06	45333.84
629.21	44758.06
629.36	44928.92
629.51	44861.05
629.66	45270.64
629.81	45116.17
629.96	45038.93
630.11	45209.79
630.26	45429.80
630.41	44980.42
630.56	44584.86
630.71	44790.83
630.86	44669.12
631.01	44542.74
631.16	44524.01
631.31	44809.56
631.46	44905.52
631.61	45200.43
631.76	45092.76
631.91	44837.64
632.06	45191.06
632.21	44713.59
632.36	45130.21
632.51	44694.87
632.66	44746.36
632.81	44626.99
632.96	45076.38
633.10	44456.14
633.25	44720.62
633.40	44526.35
633.55	44718.28
633.70	44765.09
633.85	44271.23
634.00	44095.69
634.15	44252.51
634.30	44215.06
634.45	44505.29
634.60	44399.96
634.75	44315.70
634.90	44018.46
635.05	44376.56
635.19	44484.22
635.34	44355.49
635.49	44245.49
635.64	44254.85
635.79	44732.32
635.94	43812.49
636.09	44006.75
636.24	44179.95
636.39	44168.25
636.53	44348.47
636.68	43592.48
636.83	44074.63
636.98	43854.62
637.13	43777.38
637.28	43274.16
637.43	43931.86
637.57	43761.00
637.72	43611.20
637.87	43480.13
638.02	43552.69
638.17	43779.72
638.32	44020.80
638.46	43475.45
638.61	43728.23
638.76	43650.99
638.91	43363.11
639.06	43655.67
639.20	43585.46
639.35	43255.44
639.50	43400.55
639.65	43105.65
639.80	43430.98
639.94	43810.15
640.09	43756.32
640.24	43276.51
640.39	43285.87
640.54	42829.46
640.68	43283.53
640.83	43426.30
640.98	43325.66
641.13	43124.37
641.27	43611.20
641.42	43147.78
641.57	42930.11
641.72	43363.11
641.86	43302.25
642.01	42803.72
642.16	43166.50
642.31	42300.50
642.45	43210.97
642.60	42508.81
642.75	43208.63
642.90	43253.10
643.04	43253.10
643.19	42925.42
643.34	42829.46
643.48	42637.54
643.63	42588.39
643.78	42717.12
643.93	43012.02
644.07	43061.18
644.22	42527.53
644.37	42738.18
644.51	43257.78
644.66	42649.24
644.81	42263.05
644.95	42574.34
645.10	42658.60
645.25	42497.11
645.39	42174.11
645.54	42000.91
645.69	41942.40
645.83	42646.90
645.98	42693.71
646.13	42808.40
646.27	42288.80
646.42	42314.55
646.57	42871.59
646.71	42511.15
646.86	42838.83
647.00	42504.13
647.15	42625.84
647.30	42375.40
647.44	42176.45
647.59	42373.06
647.74	41883.89
647.88	42707.76
648.03	42110.92
648.17	42478.38
648.32	42447.96
648.47	42490.09
648.61	41481.31
648.76	42340.29
648.90	42300.50
649.05	41771.54
649.20	41975.17
649.34	41696.64
649.49	41872.18
649.63	41883.89
649.78	42157.73
649.92	42073.47
650.07	42157.73
650.21	42096.88
650.36	41874.52
650.51	41933.04
650.65	41902.61
650.80	41851.12
650.94	41860.48
651.09	42043.04
651.23	41298.75
651.38	41333.86
651.52	41223.86
651.67	41666.22
651.81	41808.99
651.96	41605.36
652.10	41188.75
652.25	41570.25
652.39	41364.29
652.54	40954.69
652.68	41319.82
652.83	40994.48
652.97	41160.66
653.12	41546.85
653.26	41549.19
653.41	41329.18
653.55	41099.81
653.70	41139.60
653.84	41764.52
653.99	41427.48
654.13	41443.87
654.27	41359.61
654.42	41401.74
654.56	41127.89
654.71	40816.60
654.85	41338.54
655.00	40891.50
655.14	41425.14
655.29	40935.97
655.43	41366.63
655.57	40872.78
655.72	40493.61
655.86	41022.57
656.01	40685.53
656.15	40814.26
656.30	40680.85
656.44	41130.23
656.58	40996.82
656.73	40636.38
656.87	40172.96
657.01	40407.01
657.16	40715.96
657.30	41081.08
657.45	40762.77
657.59	40371.90
657.73	40627.02
657.88	39985.71
658.02	40783.83
658.16	40704.26
658.31	40563.82
658.45	40109.76
658.60	40217.43
658.74	40018.48
658.88	40297.00
659.03	39990.39
659.17	39901.45
659.31	40100.40
659.46	40123.80
659.60	40418.71
659.74	39950.60
659.89	40259.55
660.03	39274.19
660.17	39627.61
660.32	39763.36
660.46	39412.28
660.60	39311.64
660.74	39615.91
660.89	39690.80
661.03	39295.25
661.17	39601.86
661.32	39374.83
661.46	39519.95
661.60	38930.13
661.74	38862.26
661.89	39601.86
662.03	38815.44
662.17	39138.44
662.31	39049.50
662.46	39363.13
662.60	38878.64
662.74	38504.15
662.88	38995.67
663.03	38218.61
663.17	38459.68
663.31	38719.48
663.45	38459.68
663.60	39175.89
663.74	38396.49
663.88	38349.68
664.02	38244.35
664.17	38476.07
664.31	38763.95
664.45	38153.07
664.59	38103.92
664.73	38127.33
664.88	38337.98
665.02	38099.24
665.16	37919.02
665.30	37818.38
665.44	38171.80
665.59	37471.98
665.73	37876.89
665.87	37504.74
666.01	37706.03
666.15	37869.87
666.29	37603.05
666.44	37769.22
666.58	37537.51
666.72	37436.87
666.86	37219.20
667.00	37001.53
667.14	37270.69
667.28	37621.77
667.43	37282.39
667.57	37429.85
667.71	37097.49
667.85	37148.98
667.99	37233.24
668.13	36676.19
668.27	36795.56
668.41	36397.67
668.56	36266.60
668.70	36432.78
668.84	36004.46
668.98	36666.83
669.12	36395.33
669.26	36170.64
669.40	36388.31
669.54	35667.42
669.68	36268.94
669.82	36205.75
669.96	36194.04
670.10	35896.80
670.25	35735.30
670.39	35857.01
670.53	36208.09
670.67	35814.88
670.81	35903.82
670.95	35992.76
671.09	35634.66
671.23	35386.56
671.37	35632.32
671.51	35342.09
671.65	35189.95
671.79	34904.41
671.93	35072.93
672.07	35512.95
672.21	35379.54
672.35	34967.60
672.49	35016.75
672.63	34771.00
672.77	34714.83
672.91	34752.27
673.05	34726.53
673.19	34466.73
673.33	34426.94
673.47	34436.30
673.61	34169.48
673.75	33834.78
673.89	33937.77
674.03	33626.48
674.17	33481.36
674.31	33729.46
674.45	33640.52
674.59	33783.29
674.73	33680.31
674.87	33684.99
675.01	33181.77
675.15	33130.28
675.29	33017.94
675.43	33076.45
675.56	33263.69
675.70	33156.03
675.84	33172.41
675.98	31990.44
676.12	32786.22
676.26	32687.92
676.40	32524.08
676.54	32416.42
676.68	32292.37
676.82	31964.70
676.96	31974.06
677.10	32165.98
677.23	32322.80
677.37	32224.50
677.51	31957.67
677.65	32002.14
677.79	31873.42
677.93	31812.56
678.07	31519.99
678.21	31484.89
678.34	31276.58
678.48	30934.86
678.62	30988.69
678.76	31077.63
678.90	31014.44
679.04	31040.18
679.18	30930.18
679.31	30794.43
679.45	30703.15
679.59	30464.41
679.73	30590.80
679.87	30569.74
680.00	30082.91
680.14	30059.50
680.28	30426.96
680.42	30015.03
680.56	29879.28
680.70	29298.83
680.83	29542.24
680.97	29329.25
681.11	29399.47
681.25	29347.98
681.39	29116.26
681.52	28893.91
681.66	28926.68
681.80	28926.68
681.94	28435.17
682.07	28538.15
682.21	28369.63
682.35	28570.92
682.49	28257.29
682.62	28336.87
682.76	28554.54
682.90	28278.35
683.04	28240.90
683.17	27924.93
683.31	27957.70
683.45	27740.03
683.59	27667.47
683.72	27065.96
683.86	27564.49
684.00	27632.36
684.13	27234.47
684.27	27147.87
684.41	26955.95
684.55	26969.99
684.68	26944.25
684.82	26639.98
684.96	26738.28
685.09	26820.20
685.23	26616.57
685.37	27070.64
685.50	26995.74
685.64	26560.40
685.78	26403.58
685.91	26214.00
686.05	25715.47
686.19	25532.90
686.32	25839.51
686.46	25570.35
686.60	25230.98
686.73	25682.70
686.87	25238.00
687.01	25465.03
687.14	25366.73
687.28	25305.87
687.42	25275.45
687.55	25013.31
687.69	25067.14
687.82	24526.47
687.96	24442.21
688.10	24741.80
688.23	24500.73
688.37	24486.68
688.50	24669.25
688.64	24362.64
688.78	24084.11
688.91	24130.92
689.05	24346.25
689.18	23756.44
689.32	23616.01
689.46	23199.39
689.59	23396.00
689.73	23960.06
689.86	23824.31
690.00	23328.12
690.13	23709.63
690.27	23119.81
690.41	23400.68
690.54	22979.38
690.68	22820.22
690.81	22640.00
690.95	22600.21
691.08	22204.66
691.22	22040.82
691.35	21888.69
691.49	22279.56
691.62	22352.12
691.76	21820.81
691.89	21818.47
692.03	21717.83
692.16	21621.87
692.30	21874.65
692.43	21504.84
692.57	21156.10
692.70	21563.36
692.84	21411.22
692.97	21188.87
693.11	21132.70
693.24	20844.81
693.38	20877.58
693.51	20760.55
693.65	20929.07
693.78	20585.01
693.92	20535.86
694.05	20561.61
694.19	20350.96
694.32	20496.07
694.45	20507.77
694.59	20496.07
694.72	20641.18
694.86	20219.89
694.99	19936.68
695.13	19541.13
695.26	19770.51
695.39	19513.05
695.53	19606.67
695.66	19396.02
695.80	19138.56
695.93	19391.34
696.07	19396.02
696.20	18890.46
696.33	18611.94
696.47	18714.92
696.60	18785.14
696.73	18796.84
696.87	18864.72
697.00	18698.54
697.14	18391.93
697.27	18452.78
697.40	18387.25
697.54	18190.64
697.67	17923.82
697.80	18178.94
697.94	18216.39
698.07	17858.29
698.21	18012.76
698.34	17752.96
698.47	17628.92
698.61	17104.64
698.74	17460.40
698.87	17509.55
699.01	17156.13
699.14	17146.76
699.27	17301.24
699.40	17123.36
699.54	17027.40
699.67	17015.69
699.80	17095.27
699.94	16884.62
700.07	16854.20
700.20	16739.51
700.34	16723.13
700.47	16411.84
700.60	16650.57
700.73	16641.21
700.87	16386.09
701.00	15704.99
701.13	16018.63
701.26	16049.05
701.40	15985.86
701.53	15894.58
701.66	15854.79
701.79	15611.37
701.93	15576.27
702.06	15613.71
702.19	15211.14
702.32	15541.16
702.46	15297.74
702.59	15515.41
702.72	15456.90
702.85	15094.11
702.99	15234.55
703.12	15124.54
703.25	14918.57
703.38	14909.21
703.51	14883.47
703.65	14677.50
703.78	14504.30
703.91	14473.87
704.04	14366.21
704.17	14307.69
704.31	14597.92
704.44	14401.32
704.57	14136.84
704.70	14031.51
704.83	14178.97
704.96	13947.25
705.10	13989.38
705.23	13919.17
>>>>>End Processed Spectral Data<<<<<
