SpectraSuite Data File
++++++++++++++++++++++++++++++++++++
Date: Fri Oct 25 11:33:41 EDT 2013
User: price-jones
Dark Spectrum Present: No
Reference Spectrum Present: No
Number of Sampled Component Spectra: 1
Spectrometers: USB2+H05261
Integration Time (usec): 100000 (USB2+H05261)
Spectra Averaged: 1 (USB2+H05261)
Boxcar Smoothing: 0 (USB2+H05261)
Correct for Electrical Dark: No (USB2+H05261)
Strobe/Lamp Enabled: No (USB2+H05261)
Correct for Detector Non-linearity: No (USB2+H05261)
Correct for Stray Light: No (USB2+H05261)
Number of Pixels in Processed Spectrum: 2048
>>>>>Begin Processed Spectral Data<<<<<
365.73	315.97
365.92	315.97
366.12	315.97
366.32	147.45
366.52	145.11
366.72	266.82
366.91	177.88
367.11	203.63
367.31	102.98
367.51	168.52
367.70	191.92
367.90	184.90
368.10	128.73
368.30	182.56
368.49	182.56
368.69	229.37
368.89	168.52
369.09	198.95
369.28	182.56
369.48	170.86
369.68	187.24
369.87	201.29
370.07	273.84
370.27	315.97
370.47	283.20
370.66	463.43
370.86	519.60
371.06	547.69
371.25	514.92
371.45	505.56
371.65	592.16
371.84	521.94
372.04	582.79
372.24	526.62
372.44	587.47
372.63	592.16
372.83	566.41
373.03	582.79
373.22	641.31
373.42	723.23
373.62	617.90
373.81	634.29
374.01	711.52
374.21	709.18
374.40	587.47
374.60	634.29
374.79	692.80
374.99	648.33
375.19	662.37
375.38	664.71
375.58	624.92
375.78	615.56
375.97	566.41
376.17	727.91
376.37	643.65
376.56	669.39
376.76	608.54
376.95	634.29
377.15	692.80
377.35	653.01
377.54	706.84
377.74	755.99
377.93	624.92
378.13	636.63
378.33	671.73
378.52	631.94
378.72	685.78
378.91	688.12
379.11	671.73
379.31	669.39
379.50	690.46
379.70	631.94
379.89	786.42
380.09	716.20
380.28	751.31
380.48	777.06
380.68	788.76
380.87	772.38
381.07	748.97
381.26	716.20
381.46	739.61
381.65	732.59
381.85	798.12
382.04	702.16
382.24	805.14
382.43	812.17
382.63	716.20
382.83	753.65
383.02	856.64
383.22	795.78
383.41	875.36
383.61	821.53
383.80	840.25
384.00	896.43
384.19	767.70
384.39	821.53
384.58	844.93
384.78	826.21
384.97	863.66
385.17	868.34
385.36	837.91
385.56	809.83
385.75	887.06
385.95	903.45
386.14	887.06
386.34	795.78
386.53	931.53
386.72	826.21
386.92	854.30
387.11	971.32
387.31	875.36
387.50	856.64
387.70	823.87
387.89	849.61
388.09	945.58
388.28	936.21
388.48	978.34
388.67	858.98
388.86	983.02
389.06	919.83
389.25	912.81
389.45	901.11
389.64	922.17
389.84	915.15
390.03	915.15
390.22	945.58
390.42	903.45
390.61	945.58
390.81	952.60
391.00	957.28
391.19	961.96
391.39	985.37
391.58	1039.20
391.78	971.32
391.97	1011.11
392.16	1011.11
392.36	1043.88
392.55	1076.65
392.75	1053.24
392.94	992.39
393.13	1053.24
393.33	1046.22
393.52	1102.39
393.71	1114.10
393.91	1053.24
394.10	1076.65
394.29	1029.84
394.49	1071.97
394.68	1130.48
394.88	1116.44
395.07	1210.06
395.26	1188.99
395.46	1172.61
395.65	1123.46
395.84	1174.95
396.04	1242.82
396.23	1210.06
396.42	1212.40
396.62	1247.51
396.81	1299.00
397.00	1181.97
397.19	1158.57
397.39	1231.12
397.58	1287.29
397.77	1219.42
397.97	1287.29
398.16	1261.55
398.35	1231.12
398.55	1280.27
398.74	1357.51
398.93	1299.00
399.12	1310.70
399.32	1273.25
399.51	1294.32
399.70	1385.60
399.90	1291.98
400.09	1376.24
400.28	1439.43
400.47	1427.73
400.67	1437.09
400.86	1362.19
401.05	1500.28
401.24	1490.92
401.44	1493.26
401.63	1399.64
401.82	1469.86
402.01	1437.09
402.21	1495.60
402.40	1521.35
402.59	1439.43
402.78	1526.03
402.97	1547.09
403.17	1516.67
403.36	1472.20
403.55	1535.39
403.74	1565.82
403.93	1593.90
404.13	1568.16
404.32	1689.87
404.51	1516.67
404.70	1668.80
404.89	1607.95
405.09	1603.27
405.28	1631.35
405.47	1666.46
405.66	1685.19
405.85	1715.61
406.05	1673.48
406.24	1680.50
406.43	1694.55
406.62	1809.23
406.81	1792.85
407.00	1685.19
407.20	1809.23
407.39	1699.23
407.58	1916.90
407.77	1872.43
407.96	1830.30
408.15	1858.39
408.34	1804.55
408.54	2010.52
408.73	1919.24
408.92	1914.56
409.11	1895.83
409.30	1989.46
409.49	2015.20
409.68	2062.01
409.87	1930.94
410.07	2017.54
410.26	2054.99
410.45	2143.93
410.64	1977.75
410.83	2134.57
411.02	2218.83
411.21	2167.34
411.40	2174.36
411.59	2143.93
411.78	2153.29
411.98	2172.02
412.17	2207.13
412.36	2183.72
412.55	2267.98
412.74	2345.22
412.93	2321.81
413.12	2450.54
413.31	2394.37
413.50	2331.17
413.69	2459.90
413.88	2441.18
414.07	2548.84
414.26	2359.26
414.45	2558.21
414.64	2588.63
414.83	2544.16
415.02	2532.46
415.22	2780.56
415.41	2637.78
415.60	2663.53
415.79	2705.66
415.98	2647.15
416.17	2705.66
416.36	2637.78
416.55	2740.77
416.74	2860.13
416.93	2740.77
417.12	2794.60
417.31	2874.18
417.50	2937.37
417.69	3087.17
417.88	2902.26
418.07	3000.57
418.26	3052.06
418.45	3049.72
418.64	3012.27
418.83	3021.63
419.02	2984.18
419.21	3094.19
419.39	3145.68
419.58	3157.38
419.77	3103.55
419.96	3180.79
420.15	3206.53
420.34	3220.58
420.53	3183.13
420.72	3283.77
420.91	3262.71
421.10	3290.79
421.29	3297.81
421.48	3243.98
421.67	3279.09
421.86	3194.83
422.05	3365.69
422.24	3405.48
422.43	3414.84
422.61	3405.48
422.80	3414.84
422.99	3365.69
423.18	3344.63
423.37	3361.01
423.56	3447.61
423.75	3452.29
423.94	3286.11
424.13	3192.49
424.32	3274.41
424.50	3499.10
424.69	3569.32
424.88	3510.80
425.07	3393.78
425.26	3391.44
425.45	3379.73
425.64	3323.56
425.83	3337.60
426.01	3604.42
426.20	3382.07
426.39	3571.66
426.58	3634.85
426.77	3452.29
426.96	3618.47
427.15	3536.55
427.33	3702.73
427.52	3592.72
427.71	3627.83
427.90	3543.57
428.09	3658.26
428.28	3620.81
428.46	3606.77
428.65	3641.87
428.84	3740.18
429.03	3742.52
429.22	3646.55
429.40	3698.05
429.59	3854.86
429.78	3644.21
429.97	3747.20
430.16	3819.75
430.34	3847.84
430.53	3936.78
430.72	3784.65
430.91	3885.29
431.10	3950.82
431.28	3943.80
431.47	3929.76
431.66	3969.55
431.85	3913.38
432.03	4095.94
432.22	4337.01
432.41	4049.13
432.60	4053.81
432.79	4119.34
432.97	4088.92
433.16	4180.20
433.35	4187.22
433.54	4161.47
433.72	4095.94
433.91	4138.07
434.10	4325.31
434.28	4138.07
434.47	4337.01
434.66	4301.90
434.85	4294.88
435.03	4360.42
435.22	4297.22
435.41	4545.32
435.59	4320.63
435.78	4440.00
435.97	4397.87
436.16	4545.32
436.34	4451.70
436.53	4386.16
436.72	4554.68
436.90	4512.55
437.09	4645.96
437.28	4491.49
437.46	4432.97
437.65	4601.49
437.84	4578.09
438.02	4571.07
438.21	4664.69
438.40	4603.83
438.58	4795.76
438.77	4863.63
438.96	4697.46
439.14	4858.95
439.33	4788.74
439.52	4933.85
439.70	4952.57
439.89	5013.43
440.08	5029.81
440.26	5011.09
440.45	4983.00
440.63	5043.85
440.82	5240.46
441.01	5165.56
441.19	5247.48
441.38	5289.61
441.57	5355.15
441.75	5331.74
441.94	5467.49
442.12	5270.89
442.31	5476.85
442.50	5509.62
442.68	5451.11
442.87	5582.18
443.05	5495.58
443.24	5458.13
443.43	5610.26
443.61	5654.73
443.80	5762.40
443.98	5579.84
444.17	5320.04
444.35	5521.32
444.54	5701.54
444.73	5671.12
444.91	5696.86
445.10	5652.39
445.28	5638.35
445.47	5521.32
445.65	5729.63
445.84	5696.86
446.02	5858.36
446.21	5760.06
446.39	5570.48
446.58	5886.45
446.77	5757.72
446.95	5689.84
447.14	5673.46
447.32	5926.24
447.51	5654.73
447.69	5762.40
447.88	5738.99
448.06	5844.32
448.25	5863.04
448.43	5802.19
448.62	5703.89
448.80	5797.51
448.99	5991.77
449.17	5900.49
449.36	5912.19
449.54	5954.32
449.73	6078.37
449.91	6129.86
450.10	6064.33
450.28	6193.06
450.46	6127.52
450.65	6045.60
450.83	5994.11
451.02	6169.65
451.20	6111.14
451.39	6092.41
451.57	6019.86
451.76	6073.69
451.94	6087.73
452.13	6258.59
452.31	6368.60
452.49	6349.87
452.68	6232.85
452.86	6370.94
453.05	6417.75
453.23	6462.22
453.42	6333.49
453.60	6527.75
453.78	6455.20
453.97	6448.18
454.15	6373.28
454.34	6459.88
454.52	6583.93
454.70	6607.33
454.89	6672.87
455.07	6553.50
455.26	6729.04
455.44	6633.08
455.62	6562.86
455.81	6719.68
455.99	6848.41
456.17	6801.60
456.36	6789.89
456.54	6825.00
456.73	6871.81
456.91	6979.48
457.09	7197.15
457.28	7094.16
457.46	6848.41
457.64	7108.21
457.83	7005.22
458.01	7040.33
458.19	7272.04
458.38	7155.02
458.56	7370.35
458.74	7169.06
458.93	7150.34
459.11	7176.08
459.29	7136.29
459.48	7068.42
459.66	7220.55
459.84	7283.75
460.03	7541.21
460.21	7480.35
460.39	7566.95
460.57	7293.11
460.76	7438.22
460.94	7470.99
461.12	7440.56
461.31	7501.42
461.49	7592.70
461.67	7597.38
461.85	7597.38
462.04	7449.93
462.22	8166.13
462.40	7845.48
462.59	7740.15
462.77	7754.19
462.95	7840.79
463.13	7777.60
463.32	7819.73
463.50	7964.84
463.68	7822.07
463.86	7801.01
464.05	7932.08
464.23	7967.18
464.41	8180.17
464.59	7786.96
464.78	8290.18
464.96	7990.59
465.14	7960.16
465.32	7999.95
465.50	8133.36
465.69	8161.45
465.87	7983.57
466.05	8002.29
466.23	8116.98
466.41	8135.70
466.60	8484.44
466.78	8119.32
466.96	8013.99
467.14	8346.35
467.32	8229.32
467.51	8297.20
467.69	8226.98
467.87	8320.60
468.05	8411.89
468.23	8336.99
468.41	8353.37
468.60	8329.97
468.78	8418.91
468.96	8421.25
469.14	8659.98
469.32	8545.30
469.50	8465.72
469.69	8793.39
469.87	8652.96
470.05	8645.94
470.23	8936.17
470.41	8667.00
470.59	8945.53
470.77	8823.82
470.95	8702.11
471.14	9114.05
471.32	8699.77
471.50	9158.52
471.68	9174.90
471.86	9006.38
472.04	9107.02
472.22	9369.16
472.40	9240.44
472.58	9135.11
472.77	9074.26
472.95	9371.50
473.13	9507.26
473.31	9331.72
473.49	9427.68
473.67	9434.70
473.85	9570.45
474.03	9841.95
474.21	9631.30
474.39	9853.66
474.57	9762.37
474.75	10047.92
474.93	10097.07
475.12	9825.57
475.30	10026.86
475.48	9994.09
475.66	10125.16
475.84	10010.47
476.02	10277.29
476.20	10324.10
476.38	10445.81
476.56	10726.68
476.74	10682.20
476.92	10473.90
477.10	10413.04
477.28	10724.33
477.46	10853.06
477.64	10860.09
477.82	10995.84
478.00	11321.17
478.18	11007.54
478.36	11164.36
478.54	11248.61
478.72	11566.93
478.90	11538.84
479.08	11611.40
479.26	11672.25
479.44	11534.16
479.62	11702.68
479.80	11859.49
479.98	11955.46
480.16	12231.64
480.34	12369.73
480.52	12299.52
480.70	12304.20
480.88	12383.77
481.06	12521.87
481.24	12482.08
481.41	12671.66
481.59	12865.92
481.77	12828.48
481.95	12809.75
482.13	13060.19
482.31	13008.70
482.49	13408.93
482.67	13369.14
482.85	13561.06
483.03	13582.13
483.21	13579.79
483.39	13682.77
483.57	13689.79
483.74	13977.68
483.92	14115.77
484.10	14246.84
484.28	14291.31
484.46	14401.32
484.64	14567.49
484.82	14317.06
485.00	14736.01
485.18	14888.15
485.35	15283.70
485.53	14869.42
485.71	15140.93
485.89	15676.91
486.07	15559.88
486.25	15484.98
486.43	15880.53
486.61	15634.78
486.78	15618.39
486.96	15693.29
487.14	16376.73
487.32	16418.86
487.50	16084.16
487.68	16519.50
487.85	16503.12
488.03	16706.74
488.21	17046.12
488.39	17076.55
488.57	17310.60
488.75	17193.58
488.92	17401.88
489.10	17621.89
489.28	17769.35
489.46	17774.03
489.64	17980.00
489.81	18134.47
489.99	18167.24
490.17	18359.16
490.35	18422.36
490.53	18656.41
490.70	18974.72
490.88	18647.05
491.06	18904.51
491.24	18719.60
491.41	18815.57
491.59	19293.04
491.77	19166.65
491.95	19587.94
492.13	19587.94
492.30	19552.84
492.48	19707.31
492.66	19445.17
492.84	20056.05
493.01	19941.36
493.19	19943.70
493.37	20208.19
493.54	20374.36
493.72	20748.85
493.90	20755.87
494.08	20704.38
494.25	21149.08
494.43	21020.35
494.61	21158.44
494.79	21483.78
494.96	21193.55
495.14	21610.17
495.32	21656.98
495.49	21846.56
495.67	21869.97
495.85	21898.05
496.02	22115.72
496.20	22260.84
496.38	22419.99
496.55	22293.60
496.73	23234.50
496.91	22845.97
497.09	22967.68
497.26	22838.95
497.44	22724.26
497.62	23278.97
497.79	23506.00
497.97	23204.07
498.14	23667.50
498.32	23861.76
498.50	23866.44
498.67	23929.64
498.85	23690.90
499.03	24018.58
499.20	24273.70
499.38	24184.76
499.56	24552.22
499.73	24549.88
499.91	24369.66
500.08	24807.34
500.26	24840.11
500.44	24762.87
500.61	24779.25
500.79	24807.34
500.97	25221.61
501.14	25450.99
501.32	25081.18
501.49	25614.82
501.67	25605.46
501.84	25724.83
502.02	25298.85
502.20	25296.51
502.37	26050.16
502.55	25532.90
502.72	25942.50
502.90	25614.82
503.07	26061.87
503.25	25970.58
503.43	26237.41
503.60	26258.47
503.78	26087.61
503.95	26426.99
504.13	26621.25
504.30	26850.63
504.48	26941.91
504.65	26642.32
504.83	27082.34
505.01	27283.62
505.18	27480.23
505.36	27452.14
505.53	27634.71
505.71	27615.98
505.88	27824.29
506.06	27309.37
506.23	27365.54
506.41	27405.33
506.58	27768.12
506.76	27812.59
506.93	27768.12
507.11	28212.82
507.28	28318.14
507.46	28205.80
507.63	28568.58
507.81	28559.22
507.98	28521.77
508.16	28727.74
508.33	28205.80
508.50	29003.92
508.68	28496.02
508.85	28924.34
509.03	28811.99
509.20	29123.29
509.38	29418.19
509.55	29268.40
509.73	29481.39
509.90	29467.34
510.08	29598.41
510.25	29930.77
510.42	29628.84
510.60	29848.85
510.77	30094.61
510.95	29984.60
511.12	29785.66
511.30	30019.71
511.47	30232.70
511.64	30127.38
511.82	30185.89
511.99	30101.63
512.17	30719.53
512.34	30394.20
512.51	30693.79
512.69	30927.84
512.86	30558.03
513.04	31087.00
513.21	30967.63
513.38	31175.94
513.56	31332.75
513.73	30969.97
513.90	31512.97
514.08	31028.48
514.25	31641.70
514.43	31775.11
514.60	31732.98
514.77	31559.78
514.95	31494.25
515.12	31669.79
515.29	31709.58
515.47	32137.90
515.64	32039.59
515.81	32016.19
515.99	32203.43
516.16	32350.88
516.33	32418.76
516.51	32369.61
516.68	32304.07
516.85	32540.47
517.03	33104.54
517.20	32746.44
517.37	32781.54
517.54	32744.09
517.72	32727.71
517.89	33572.64
518.06	32858.78
518.24	33181.77
518.41	32818.99
518.58	32753.46
518.75	33039.00
518.93	33263.69
519.10	33336.25
519.27	33242.63
519.45	33497.75
519.62	33982.24
519.79	33668.61
519.96	33493.07
520.14	33860.53
520.31	33530.51
520.48	34579.07
520.65	34162.46
520.83	34480.77
521.00	34419.92
521.17	34150.76
521.34	34288.85
521.52	34356.72
521.69	34707.80
521.86	34792.06
522.03	34768.66
522.20	34705.46
522.38	35225.06
522.55	35225.06
522.72	35150.17
522.89	35473.16
523.07	35566.78
523.24	35438.05
523.41	35484.86
523.58	34916.11
523.75	35721.26
523.92	35503.59
524.10	35323.36
524.27	35454.44
524.44	35690.83
524.61	35924.88
524.78	36013.82
524.96	36254.90
525.13	36287.67
525.30	36154.26
525.47	36404.69
525.64	36107.44
525.81	36254.90
525.98	36598.96
526.16	36463.21
526.33	36201.07
526.50	36563.85
526.67	36318.09
526.84	36598.96
527.01	36643.43
527.18	36907.91
527.36	36734.71
527.53	36950.04
527.70	37479.00
527.87	37228.56
528.04	36514.70
528.21	37158.34
528.38	37216.86
528.55	37165.37
528.72	37354.95
528.89	37322.18
529.07	37528.15
529.24	37202.82
529.41	37193.45
529.58	37457.93
529.75	36886.84
529.92	37626.45
530.09	37876.89
530.26	37773.91
530.43	38047.75
530.60	37462.61
530.77	37607.73
530.94	38171.80
531.11	37572.62
531.28	38174.14
531.46	38298.19
531.63	38141.37
531.80	38162.43
531.97	38309.89
532.14	38417.55
532.31	38480.75
532.48	38548.62
532.65	38787.36
532.82	38258.40
532.99	39044.82
533.16	38679.69
533.33	38799.06
533.50	38745.23
533.67	38909.07
533.84	38632.88
534.01	39260.15
534.18	38941.83
534.35	39365.47
534.52	38869.28
534.69	39524.63
534.86	39782.09
535.03	39281.21
535.20	39756.34
535.37	39519.95
535.54	39435.69
535.71	39395.90
535.88	39328.02
536.05	39871.03
536.22	39868.69
536.38	39749.32
536.55	39363.13
536.72	39653.36
536.89	39552.71
537.06	40154.23
537.23	39922.52
537.40	39789.11
537.57	39789.11
537.74	40423.39
537.91	40128.48
538.08	40325.09
538.25	39882.73
538.42	40107.42
538.59	40381.26
538.75	40519.35
538.92	40657.45
539.09	40374.24
539.26	40664.47
539.43	40205.72
539.60	40851.71
539.77	40568.51
539.94	40973.42
540.11	41036.61
540.28	40758.09
540.44	40722.98
540.61	41038.95
540.78	41282.37
540.95	40914.90
541.12	40643.40
541.29	40858.73
541.46	41221.52
541.62	41420.46
541.79	41104.49
541.96	41088.10
542.13	41155.98
542.30	41151.30
542.47	41425.14
542.63	41443.87
542.80	41535.15
542.97	41750.48
543.14	42225.60
543.31	41612.38
543.48	41846.44
543.64	42504.13
543.81	41825.37
543.98	42239.65
544.15	42246.67
544.32	41684.94
544.48	42623.50
544.65	42396.46
544.82	42691.37
544.99	41956.44
545.16	42897.34
545.32	42256.03
545.49	42483.06
545.66	42733.50
545.83	42366.04
546.00	42462.00
546.16	42754.57
546.33	42139.00
546.50	42134.32
546.67	42724.14
546.83	42012.62
547.00	42766.27
547.17	42663.28
547.34	42593.07
547.50	42649.24
547.67	42782.65
547.84	42965.21
548.00	43283.53
548.17	43496.52
548.34	43391.19
548.51	43639.29
548.67	43356.08
548.84	42941.81
549.01	43524.60
549.18	43335.02
549.34	43288.21
549.51	43412.26
549.68	43718.87
549.84	43491.83
550.01	43285.87
550.18	43400.55
550.34	43845.26
550.51	43744.61
550.68	44158.89
550.84	43632.27
551.01	44182.29
551.18	43686.10
551.34	44128.46
551.51	43948.24
551.68	44210.38
551.84	43770.36
552.01	43606.52
552.18	44034.84
552.34	43894.41
552.51	44259.53
552.68	43929.51
552.84	43819.51
553.01	44093.35
553.18	44109.74
553.34	44311.02
553.51	44208.04
553.67	44364.85
553.84	44493.58
554.01	44392.94
554.17	44465.50
554.34	44404.64
554.51	44425.71
554.67	44751.04
554.84	44732.32
555.00	44484.22
555.17	44760.40
555.33	44980.42
555.50	44732.32
555.67	44814.24
555.83	44921.90
556.00	45319.79
556.16	45092.76
556.33	44954.67
556.50	45048.29
556.66	44818.92
556.83	44432.73
556.99	45223.83
557.16	45148.93
557.32	45118.51
557.49	45029.57
557.65	44594.23
557.82	44886.79
557.98	45059.99
558.15	45008.50
558.32	44942.97
558.48	44879.77
558.65	45296.39
558.81	45371.28
558.98	45226.17
559.14	45352.56
559.31	45125.53
559.47	45200.43
559.64	45343.20
559.80	45422.78
559.97	45778.54
560.13	45483.63
560.30	45471.93
560.46	45523.42
560.63	45921.31
560.79	45593.64
560.96	45811.31
561.12	45708.32
561.29	45621.72
561.45	45869.82
561.61	45661.51
561.78	45815.99
561.94	45811.31
562.11	45785.56
562.27	45741.09
562.44	45778.54
562.60	45902.59
562.77	45975.14
562.93	45738.75
563.10	46232.60
563.26	45577.25
563.42	46389.42
563.59	45963.44
563.75	46131.96
563.92	45834.71
564.08	46185.79
564.24	46101.53
564.41	46157.70
564.57	45963.44
564.74	46117.92
564.90	45848.75
565.07	46218.56
565.23	46293.46
565.39	45965.78
565.56	46358.99
565.72	46595.38
565.88	46225.58
566.05	46351.97
566.21	45839.39
566.38	46157.70
566.54	46452.61
566.70	46471.34
566.87	46288.77
567.03	46185.79
567.19	46766.24
567.36	46344.95
567.52	46232.60
567.68	46218.56
567.85	46763.90
568.01	46527.51
568.17	46340.27
568.34	46780.29
568.50	46934.76
568.66	46857.52
568.83	46763.90
568.99	46532.19
569.15	46880.93
569.32	46574.32
569.48	46295.80
569.64	46740.50
569.81	46117.92
569.97	46665.60
570.13	46564.96
570.30	46848.16
570.46	46548.57
570.62	46398.78
570.78	46754.54
570.95	46852.84
571.11	46906.68
571.27	46553.26
571.43	46763.90
571.60	46731.14
571.76	46726.46
571.92	46349.63
572.09	46609.43
572.25	46993.28
572.41	46705.39
572.57	47058.81
572.74	47028.38
572.90	46660.92
573.06	47019.02
573.22	46951.15
573.38	46969.87
573.55	46637.51
573.71	47412.23
573.87	47262.44
574.03	46934.76
574.20	47164.14
574.36	47063.49
574.52	47264.78
574.68	47145.41
574.84	46937.10
575.01	47327.97
575.17	47194.56
575.33	47075.19
575.49	46923.06
575.65	47311.59
575.82	47224.99
575.98	46885.61
576.14	47503.51
576.30	47117.32
576.46	47356.06
576.62	46658.58
576.79	47040.09
576.95	46602.41
577.11	46822.42
577.27	46990.94
577.43	47105.62
577.59	47030.72
577.75	46927.74
577.92	46974.55
578.08	47098.60
578.24	47117.32
578.40	47255.42
578.56	47070.51
578.72	46782.63
578.88	47356.06
579.04	47091.58
579.21	46876.25
579.37	46810.71
579.53	47487.13
579.69	46988.60
579.85	46941.78
580.01	47173.50
580.17	47143.07
580.33	47491.81
580.49	47243.71
580.65	47051.79
580.82	47206.26
580.98	47098.60
581.14	47072.85
581.30	47615.86
581.46	47330.31
581.62	47510.53
581.78	47037.75
581.94	47194.56
582.10	47119.66
582.26	47477.77
582.42	47489.47
582.58	47423.93
582.74	47372.44
582.90	47093.92
583.06	47388.83
583.22	47344.36
583.38	47569.05
583.54	47402.87
583.70	47676.71
583.86	47330.31
584.02	47086.90
584.18	47494.15
584.34	47398.19
584.50	47601.82
584.66	47529.26
584.82	47496.49
584.98	48016.09
585.14	47475.43
585.30	47229.67
585.46	47365.42
585.62	47318.61
585.78	47456.70
585.94	47164.14
586.10	47430.96
586.26	47419.25
586.42	47363.08
586.58	47538.62
586.74	47545.64
586.90	47351.38
587.06	46902.00
587.22	47868.64
587.38	47285.84
587.54	47707.14
587.70	47847.57
587.86	47540.96
588.02	47332.65
588.18	47267.12
588.34	47632.24
588.49	47625.22
588.65	47377.12
588.81	47430.96
588.97	47540.96
589.13	47866.30
589.29	47547.98
589.45	48142.48
589.61	47831.19
589.77	47887.36
589.93	47695.44
590.08	47562.03
590.24	48121.41
590.40	47880.34
590.56	47992.68
590.72	47868.64
590.88	47887.36
591.04	47821.83
591.20	47966.94
591.35	48385.89
591.51	48369.51
591.67	48236.10
591.83	48102.69
591.99	47835.87
592.15	48205.67
592.31	47861.61
592.46	47861.61
592.62	47899.06
592.78	48165.88
592.94	48266.53
593.10	48676.12
593.26	48500.58
593.41	48676.12
593.57	47894.38
593.73	48615.27
593.89	48481.86
594.05	48322.70
594.20	48184.61
594.36	48266.53
594.52	48367.17
594.68	47847.57
594.84	47988.00
594.99	48179.93
595.15	47718.84
595.31	48460.79
595.47	48224.40
595.62	48135.46
595.78	48353.13
595.94	48158.86
596.10	48229.08
596.25	48467.81
596.41	48009.07
596.57	47810.12
596.73	48573.14
596.88	48072.26
597.04	48156.52
597.20	48481.86
597.36	47756.29
597.51	48523.99
597.67	48421.00
597.83	48399.94
597.99	48268.87
598.14	48130.78
598.30	48367.17
598.46	48821.23
598.61	48399.94
598.77	47812.46
598.93	48278.23
599.09	48203.33
599.24	48690.16
599.40	48512.28
599.56	48495.90
599.71	48699.53
599.87	48608.25
600.03	48425.68
600.18	48303.98
600.34	48287.59
600.50	48271.21
600.65	48303.98
600.81	48947.62
600.97	48432.71
601.12	48481.86
601.28	48807.19
601.44	48573.14
601.59	47950.56
601.75	48116.73
601.91	48582.50
602.06	48289.93
602.22	47847.57
602.37	48058.22
602.53	48437.39
602.69	48442.07
602.84	48432.71
603.00	47971.62
603.16	48170.57
603.31	48409.30
603.47	48439.73
603.62	48156.52
603.78	48617.61
603.94	48215.04
604.09	48004.39
604.25	48332.06
604.40	48325.04
604.56	48540.37
604.71	48582.50
604.87	48636.33
605.03	48402.28
605.18	48322.70
605.34	48465.47
605.49	48444.41
605.65	48545.05
605.80	48477.18
605.96	48009.07
606.12	48203.33
606.27	48413.98
606.43	48404.62
606.58	48383.55
606.74	48348.45
606.89	48203.33
607.05	48364.83
607.20	48428.02
607.36	48271.21
607.51	48186.95
607.67	48287.59
607.82	48086.31
607.98	48320.36
608.13	48243.12
608.29	48224.40
608.44	47999.71
608.60	47887.36
608.75	48196.31
608.91	48123.75
609.06	47983.32
609.22	48818.89
609.37	48156.52
609.53	48247.80
609.68	48463.13
609.84	47693.10
609.99	47882.68
610.15	48067.58
610.30	48088.65
610.46	47840.55
610.61	48032.47
610.76	47863.96
610.92	47908.43
611.07	47800.76
611.23	47821.83
611.38	47896.72
611.54	48191.63
611.69	48093.33
611.84	48308.66
612.00	48250.14
612.15	47470.75
612.31	48341.42
612.46	47585.43
612.62	47807.78
612.77	47735.23
612.92	48203.33
613.08	47887.36
613.23	48112.05
613.39	47920.13
613.54	47662.67
613.69	47765.65
613.85	48058.22
614.00	47894.38
614.15	47763.31
614.31	47634.58
614.46	47997.37
614.62	47510.53
614.77	47344.36
614.92	47508.19
615.08	47765.65
615.23	48006.73
615.38	47239.03
615.54	47831.19
615.69	47585.43
615.84	47704.80
616.00	47510.53
616.15	47498.83
616.30	47606.50
616.46	47571.39
616.61	47765.65
616.76	47569.05
616.92	47093.92
617.07	47349.04
617.22	47360.74
617.37	46986.25
617.53	47555.00
617.68	47374.78
617.83	47042.43
617.99	47767.99
618.14	47966.94
618.29	47353.72
618.45	47129.03
618.60	47311.59
618.75	47063.49
618.90	46911.36
619.06	47435.64
619.21	47199.24
619.36	47070.51
619.51	47283.50
619.67	47133.71
619.82	46976.89
619.97	47187.54
620.12	47075.19
620.28	47227.33
620.43	47353.72
620.58	47498.83
620.73	46951.15
620.89	47213.29
621.04	47304.57
621.19	47157.11
621.34	47206.26
621.49	46890.29
621.65	47051.79
621.80	47145.41
621.95	46967.53
622.10	46777.95
622.25	46988.60
622.41	46600.07
622.56	46965.19
622.71	46396.44
622.86	46405.80
623.01	46796.67
623.16	46948.81
623.32	46639.86
623.47	46288.77
623.62	46590.70
623.77	46649.22
623.92	46894.97
624.07	46600.07
624.23	46829.44
624.38	46803.69
624.53	46604.75
624.68	46131.96
624.83	46656.24
624.98	46539.21
625.13	46036.00
625.29	46192.81
625.44	46176.43
625.59	46412.82
625.74	46300.48
625.89	46120.26
626.04	45986.85
626.19	46019.61
626.34	46511.13
626.49	46005.57
626.65	45628.74
626.80	45619.38
626.95	45687.26
627.10	45579.59
627.25	46211.54
627.40	46148.34
627.55	46302.82
627.70	45841.73
627.85	45900.25
628.00	45930.67
628.15	46190.47
628.30	45813.65
628.45	45361.92
628.60	45553.85
628.76	45469.59
628.91	45427.46
629.06	45244.90
629.21	45804.28
629.36	45155.96
629.51	45525.76
629.66	45717.68
629.81	45710.66
629.96	45455.54
630.11	45624.06
630.26	45509.38
630.41	45713.00
630.56	45446.18
630.71	45385.33
630.86	45357.24
631.01	45385.33
631.16	45450.86
631.31	45102.12
631.46	45448.52
631.61	45560.87
631.76	45404.05
631.91	45387.67
632.06	45708.32
632.21	45404.05
632.36	45509.38
632.51	44872.75
632.66	45338.52
632.81	45766.84
632.96	45219.15
633.10	44931.26
633.25	44818.92
633.40	45247.24
633.55	45603.00
633.70	45237.87
633.85	44505.29
634.00	44802.53
634.15	45123.19
634.30	44877.43
634.45	44921.90
634.60	44767.43
634.75	44957.01
634.90	44664.44
635.05	45165.32
635.19	45078.72
635.34	44619.97
635.49	44545.08
635.64	44985.10
635.79	44795.51
635.94	44615.29
636.09	44762.75
636.24	44563.80
636.39	44701.89
636.53	44842.32
636.68	44545.08
636.83	43875.68
636.98	44655.08
637.13	44231.44
637.28	44048.88
637.43	44222.08
637.57	44722.96
637.72	44201.02
637.87	44343.79
638.02	44083.99
638.17	44072.29
638.32	44406.98
638.46	44114.42
638.61	44086.33
638.76	43812.49
638.91	44179.95
639.06	43952.92
639.20	43456.73
639.35	43749.29
639.50	44048.88
639.65	44168.25
639.80	44299.32
639.94	44399.96
640.09	44128.46
640.24	44259.53
640.39	43854.62
640.54	43194.59
640.68	44107.40
640.83	43901.43
640.98	43627.59
641.13	43650.99
641.27	44175.27
641.42	44142.50
641.57	43604.18
641.72	43871.00
641.86	43885.04
642.01	43187.56
642.16	43583.12
642.31	43164.16
642.45	43885.04
642.60	42979.26
642.75	43459.07
642.90	43398.21
643.04	43496.52
643.19	43461.41
643.34	43096.28
643.48	43232.04
643.63	43203.95
643.78	43262.46
643.93	43555.03
644.07	43409.92
644.22	43751.63
644.37	43323.32
644.51	43306.93
644.66	43012.02
644.81	43339.70
644.95	43512.90
645.10	42976.92
645.25	42766.27
645.39	42911.38
645.54	42969.90
645.69	42366.04
645.83	42553.28
645.98	42684.35
646.13	43009.68
646.27	42698.39
646.42	42611.79
646.57	42883.30
646.71	43159.48
646.86	43232.04
647.00	42625.84
647.15	42660.94
647.30	42969.90
647.44	42768.61
647.59	43002.66
647.74	42073.47
647.88	42733.50
648.03	42876.27
648.17	42824.78
648.32	42838.83
648.47	43423.96
648.61	42621.16
648.76	42616.47
648.90	42340.29
649.05	42281.78
649.20	42164.75
649.34	42773.29
649.49	42883.30
649.63	42700.73
649.78	43012.02
649.92	42471.36
650.07	42672.65
650.21	42719.46
650.36	42841.17
650.51	42368.38
650.65	42614.13
650.80	42382.42
650.94	42141.35
651.09	42277.10
651.23	41872.18
651.38	42038.36
651.52	41820.69
651.67	41930.70
651.81	41972.83
651.96	41961.12
652.10	41762.18
652.25	41776.22
652.39	41851.12
652.54	41832.39
652.68	41858.14
652.83	42347.31
652.97	41926.02
653.12	41570.25
653.26	41673.24
653.41	41799.63
653.55	41654.51
653.70	42087.51
653.84	42211.56
653.99	42012.62
654.13	41783.24
654.27	41610.04
654.42	41776.22
654.56	41743.45
654.71	41694.30
654.85	41282.37
655.00	41745.80
655.14	41441.53
655.29	42003.25
655.43	41581.96
655.57	41263.64
655.72	41172.36
655.86	41024.91
656.01	41340.88
656.15	40634.04
656.30	40861.07
656.44	41139.60
656.58	41340.88
656.73	41315.14
656.87	40919.59
657.01	41031.93
657.16	40900.86
657.30	41027.25
657.45	41097.47
657.59	40701.92
657.73	40561.48
657.88	40713.62
658.02	40947.67
658.16	41031.93
658.31	41062.36
658.45	40631.70
658.60	40634.04
658.74	40982.78
658.88	40989.80
659.03	40484.25
659.17	40123.80
659.31	40634.04
659.46	40100.40
659.60	40720.64
659.74	40631.70
659.89	40091.04
660.03	40119.12
660.17	40325.09
660.32	40076.99
660.46	40306.37
660.60	39515.26
660.74	40123.80
660.89	40086.36
661.03	40060.61
661.17	39770.38
661.32	39569.10
661.46	39608.89
661.60	39409.94
661.74	39463.77
661.89	39772.72
662.03	39831.24
662.17	39435.69
662.31	39171.21
662.46	39512.92
662.60	39358.45
662.74	39033.11
662.88	39398.24
663.03	39110.35
663.17	38972.26
663.31	38806.08
663.45	39000.35
663.60	39491.86
663.74	39026.09
663.88	38824.81
664.02	38457.34
664.17	39042.48
664.31	38820.13
664.45	38529.90
664.59	38778.00
664.73	38590.75
664.88	38871.62
665.02	38494.79
665.16	38263.08
665.30	38433.94
665.44	38258.40
665.59	38256.06
665.73	38007.96
665.87	38022.00
666.01	38302.87
666.15	38319.25
666.29	38370.74
666.44	38302.87
666.58	37797.31
666.72	37420.48
666.86	37750.50
667.00	38068.81
667.14	37837.10
667.28	37654.54
667.43	37399.42
667.57	37738.80
667.71	37844.12
667.85	37769.22
667.99	37633.47
668.13	37275.37
668.27	36975.78
668.41	37493.04
668.56	36615.34
668.70	36840.03
668.84	37013.23
668.98	36849.39
669.12	36842.37
669.26	37062.38
669.40	36730.03
669.54	37226.22
669.68	37081.11
669.82	36582.57
669.96	36430.44
670.10	36275.96
670.25	36531.08
670.39	36320.43
670.53	36198.73
670.67	36273.62
670.81	36758.11
670.95	36198.73
671.09	35817.22
671.23	36114.47
671.37	36060.63
671.51	35545.72
671.65	35768.07
671.79	35531.67
671.93	35468.48
672.07	35765.73
672.21	36011.48
672.35	35604.23
672.49	35105.70
672.63	35122.08
672.77	35194.64
672.91	35145.48
673.05	35030.80
673.19	35220.38
673.33	35147.82
673.47	34445.66
673.61	34677.38
673.75	34251.40
673.89	34616.52
674.03	34253.74
674.17	34490.13
674.31	33853.51
674.45	34045.43
674.59	34307.57
674.73	33715.42
674.87	34040.75
675.01	33797.34
675.15	33457.96
675.29	33551.58
675.43	33759.89
675.56	34139.05
675.70	33722.44
675.84	33345.61
675.98	32339.18
676.12	33474.34
676.26	33338.59
676.40	32900.91
676.54	32666.86
676.68	32725.37
676.82	32198.75
676.96	33193.48
677.10	32315.78
677.23	32329.82
677.37	32652.81
677.51	32364.93
677.65	32093.43
677.79	32285.35
677.93	31971.72
678.07	31557.44
678.21	31772.77
678.34	31538.72
678.48	31534.04
678.62	31302.32
678.76	31541.06
678.90	31318.71
679.04	31683.83
679.18	31328.07
679.31	31124.44
679.45	30965.29
679.59	30780.39
679.73	30988.69
679.87	30380.15
680.00	30817.83
680.14	30553.35
680.28	30490.16
680.42	30405.90
680.56	29827.79
680.70	30190.57
680.83	29907.37
680.97	29560.97
681.11	29734.17
681.25	29567.99
681.39	29261.38
681.52	29617.14
681.66	29315.21
681.80	29013.28
681.94	29266.06
682.07	28865.83
682.21	28795.61
682.35	28870.51
682.49	28467.94
682.62	28634.11
682.76	28933.70
682.90	28692.63
683.04	28299.42
683.17	28397.72
683.31	28072.39
683.45	28004.51
683.59	27974.08
683.72	27908.55
683.86	27723.65
684.00	27709.60
684.13	27742.37
684.27	27307.03
684.41	27641.73
684.55	27426.40
684.68	27283.62
684.82	26824.88
684.96	26909.14
685.09	26869.35
685.23	27072.98
685.37	27386.61
685.50	27206.39
685.64	26761.69
685.78	26487.84
685.91	26654.02
686.05	26026.76
686.19	25720.15
686.32	25947.18
686.46	25757.60
686.60	25486.09
686.73	25706.10
686.87	25593.76
687.01	25785.68
687.14	25905.05
687.28	25062.46
687.42	25333.96
687.55	25308.21
687.69	25394.81
687.82	24952.45
687.96	25184.16
688.10	25050.75
688.23	25020.33
688.37	24957.13
688.50	25095.22
688.64	24734.78
688.78	24870.53
688.91	24559.24
689.05	24212.84
689.18	23843.04
689.32	23655.79
689.46	23608.98
689.59	23906.23
689.73	24067.73
689.86	24135.60
690.00	23913.25
690.13	23625.37
690.27	23250.88
690.41	23503.66
690.54	23379.61
690.68	22857.67
690.81	22803.84
690.95	23005.13
691.08	22661.07
691.22	22581.49
691.35	22567.45
691.49	23037.89
691.62	22761.71
691.76	22382.54
691.89	22146.15
692.03	21834.86
692.16	21998.70
692.30	22298.28
692.43	21664.00
692.57	21589.10
692.70	21715.49
692.84	21486.12
692.97	21509.52
693.11	21380.79
693.24	21247.38
693.38	21085.89
693.51	20961.84
693.65	21053.12
693.78	20643.52
693.92	20863.54
694.05	21104.61
694.19	20875.24
694.32	20585.01
694.45	20720.76
694.59	21008.65
694.72	20737.15
694.86	20245.63
694.99	19857.10
695.13	20240.95
695.26	20100.52
695.39	19566.88
695.53	19824.34
695.66	19690.93
695.80	19700.29
695.93	19592.62
696.07	19187.71
696.20	19194.73
696.33	19096.43
696.47	19433.47
696.60	19042.60
696.73	19110.47
696.87	19084.73
697.00	18888.12
697.14	18635.35
697.27	18504.28
697.40	18279.58
697.54	18602.58
697.67	18415.34
697.80	18611.94
697.94	18438.74
698.07	18167.24
698.21	18380.23
698.34	18015.10
698.47	18185.96
698.61	17479.12
698.74	17605.51
698.87	17640.62
699.01	17516.57
699.14	17528.27
699.27	17481.46
699.40	17495.50
699.54	17432.31
699.67	17305.92
699.80	17366.78
699.94	17142.08
700.07	16933.78
700.20	17106.98
700.34	16716.11
700.47	16809.73
700.60	16912.71
700.73	16868.24
700.87	16451.63
701.00	16367.37
701.13	16416.52
701.26	16248.00
701.40	16360.34
701.53	16112.25
701.66	15939.05
701.79	16137.99
701.93	15531.80
702.06	15609.03
702.19	15398.38
702.32	15697.97
702.46	15627.76
702.59	15784.57
702.72	15782.23
702.85	15594.99
702.99	15550.52
703.12	15166.67
703.25	14998.15
703.38	14958.36
703.51	15112.84
703.65	14995.81
703.78	14644.73
703.91	14541.75
704.04	14721.97
704.17	14483.24
704.31	14679.84
704.44	14677.50
704.57	14389.61
704.70	14459.83
704.83	14324.08
704.96	14026.83
705.10	14097.05
705.23	13788.10
>>>>>End Processed Spectral Data<<<<<
