SpectraSuite Data File
++++++++++++++++++++++++++++++++++++
Date: Fri Oct 25 10:48:21 EDT 2013
User: price-jones
Dark Spectrum Present: No
Reference Spectrum Present: No
Number of Sampled Component Spectra: 1
Spectrometers: USB2+H05261
Integration Time (usec): 100000 (USB2+H05261)
Spectra Averaged: 1 (USB2+H05261)
Boxcar Smoothing: 0 (USB2+H05261)
Correct for Electrical Dark: No (USB2+H05261)
Strobe/Lamp Enabled: No (USB2+H05261)
Correct for Detector Non-linearity: No (USB2+H05261)
Correct for Stray Light: No (USB2+H05261)
Number of Pixels in Processed Spectrum: 2048
>>>>>Begin Processed Spectral Data<<<<<
365.73	205.97
365.92	205.97
366.12	205.97
366.32	0.00
366.52	0.00
366.72	44.47
366.91	77.24
367.11	86.60
367.31	67.88
367.51	98.30
367.70	51.49
367.90	93.62
368.10	39.79
368.30	44.47
368.49	2.34
368.69	77.24
368.89	42.13
369.09	46.81
369.28	74.90
369.48	44.47
369.68	91.28
369.87	74.90
370.07	86.60
370.27	173.20
370.47	250.44
370.66	393.21
370.86	428.32
371.06	461.09
371.25	524.28
371.45	409.59
371.65	599.18
371.84	503.22
372.04	484.49
372.24	573.43
372.44	543.00
372.63	489.17
372.83	526.62
373.03	505.56
373.22	587.47
373.42	585.13
373.62	557.05
373.81	526.62
374.01	650.67
374.21	643.65
374.40	585.13
374.60	608.54
374.79	585.13
374.99	617.90
375.19	608.54
375.38	603.86
375.58	617.90
375.78	578.11
375.97	496.19
376.17	685.78
376.37	662.37
376.56	610.88
376.76	676.41
376.95	608.54
377.15	683.44
377.35	589.82
377.54	573.43
377.74	620.24
377.93	641.31
378.13	664.71
378.33	695.14
378.52	809.83
378.72	716.20
378.91	634.29
379.11	690.46
379.31	681.10
379.50	657.69
379.70	716.20
379.89	688.12
380.09	732.59
380.28	763.01
380.48	755.99
380.68	681.10
380.87	737.27
381.07	739.61
381.26	741.95
381.46	751.31
381.65	786.42
381.85	711.52
382.04	770.04
382.24	748.97
382.43	667.05
382.63	774.72
382.83	727.91
383.02	739.61
383.22	807.48
383.41	812.17
383.61	746.63
383.80	856.64
384.00	793.44
384.19	821.53
384.39	863.66
384.58	798.12
384.78	840.25
384.97	826.21
385.17	880.04
385.36	819.19
385.56	847.27
385.75	866.00
385.95	863.66
386.14	866.00
386.34	924.51
386.53	851.96
386.72	915.15
386.92	847.27
387.11	924.51
387.31	880.04
387.50	912.81
387.70	894.08
387.89	931.53
388.09	898.77
388.28	971.32
388.48	922.17
388.67	959.62
388.86	1004.09
389.06	1053.24
389.25	1008.77
389.45	1008.77
389.64	1060.26
389.84	950.26
390.03	1048.56
390.22	1043.88
390.42	1043.88
390.61	1062.60
390.81	1006.43
391.00	1083.67
391.19	1090.69
391.39	1130.48
391.58	1203.04
391.78	1074.31
391.97	1132.82
392.16	1179.63
392.36	1088.35
392.55	1123.46
392.75	1128.14
392.94	1020.47
393.13	1067.28
393.33	1074.31
393.52	1125.80
393.71	1181.97
393.91	1163.25
394.10	1069.62
394.29	1193.67
394.49	1256.87
394.68	1165.59
394.88	1308.36
395.07	1254.53
395.26	1212.40
395.46	1254.53
395.65	1376.24
395.84	1310.70
396.04	1306.02
396.23	1144.52
396.42	1177.29
396.62	1273.25
396.81	1263.89
397.00	1200.69
397.19	1390.28
397.39	1390.28
397.58	1416.02
397.77	1458.15
397.97	1476.88
398.16	1481.56
398.35	1535.39
398.55	1460.49
398.74	1586.88
398.93	1540.07
399.12	1579.86
399.32	1453.47
399.51	1577.52
399.70	1598.59
399.90	1591.56
400.09	1701.57
400.28	1771.79
400.47	1652.42
400.67	1762.42
400.86	1650.08
401.05	1673.48
401.24	1839.66
401.44	1774.13
401.63	1732.00
401.82	1774.13
402.01	1769.44
402.21	1823.28
402.40	1827.96
402.59	1734.34
402.78	1746.04
402.97	1776.47
403.17	1823.28
403.36	1895.83
403.55	1961.37
403.74	2003.50
403.93	1984.77
404.13	1905.20
404.32	1975.41
404.51	1888.81
404.70	1996.48
404.89	2024.56
405.09	1952.01
405.28	1905.20
405.47	2104.14
405.66	2083.08
405.85	2047.97
406.05	1933.28
406.24	2036.27
406.43	2101.80
406.62	2207.13
406.81	2214.15
407.00	2122.87
407.20	2059.67
407.39	2188.40
407.58	2258.62
407.77	2251.60
407.96	2326.49
408.15	2335.85
408.34	2312.45
408.54	2333.51
408.73	2356.92
408.92	2232.87
409.11	2464.58
409.30	2342.88
409.49	2347.56
409.68	2403.73
409.87	2377.98
410.07	2443.52
410.26	2427.14
410.45	2525.44
410.64	2567.57
410.83	2551.18
411.02	2560.55
411.21	2686.94
411.40	2644.81
411.59	2745.45
411.78	2726.72
411.98	2656.51
412.17	2712.68
412.36	2902.26
412.55	2834.39
412.74	2778.22
412.93	2745.45
413.12	2958.44
413.31	2951.42
413.50	2860.13
413.69	2801.62
413.88	2972.48
414.07	2913.97
414.26	3016.95
414.45	3042.70
414.64	3126.96
414.83	3105.89
415.02	3084.83
415.22	3164.40
415.41	3171.43
415.60	3089.51
415.79	3342.28
415.98	3370.37
416.17	3403.14
416.36	3297.81
416.55	3328.24
416.74	3389.10
416.93	3241.64
417.12	3337.60
417.31	3384.41
417.50	3417.18
417.69	3454.63
417.88	3442.93
418.07	3447.61
418.26	3529.53
418.45	3506.12
418.64	3805.71
418.83	3630.17
419.02	3709.75
419.21	3616.13
419.39	3728.47
419.58	3595.06
419.77	3637.19
419.96	3693.37
420.15	3730.81
420.34	3803.37
420.53	3847.84
420.72	3880.61
420.91	3819.75
421.10	3925.08
421.29	4058.49
421.48	3871.25
421.67	3911.04
421.86	3985.93
422.05	4091.26
422.24	4007.00
422.43	3950.82
422.61	3974.23
422.80	3969.55
422.99	4105.30
423.18	4121.68
423.37	4189.56
423.56	4023.38
423.75	3988.27
423.94	4016.36
424.13	3754.22
424.32	3918.06
424.50	4065.51
424.69	4276.16
424.88	4131.05
425.07	4147.43
425.26	3978.91
425.45	3927.42
425.64	3906.35
425.83	4131.05
426.01	4159.13
426.20	4119.34
426.39	4259.78
426.58	4098.28
426.77	4084.23
426.96	4098.28
427.15	4126.36
427.33	4231.69
427.52	4208.28
427.71	4184.88
427.90	4168.49
428.09	4325.31
428.28	4217.65
428.46	4269.14
428.65	4416.59
428.84	4344.03
429.03	4322.97
429.22	4135.73
429.40	4425.95
429.59	4198.92
429.78	4056.15
429.97	4051.47
430.16	4098.28
430.34	4170.83
430.53	4355.74
430.72	4367.44
430.91	4238.71
431.10	4397.87
431.28	4671.71
431.47	4692.77
431.66	4791.08
431.85	4526.60
432.03	4709.16
432.22	4716.18
432.41	4734.90
432.60	4784.06
432.79	4844.91
432.97	4910.44
433.16	4784.06
433.35	4711.50
433.54	4816.82
433.72	4901.08
433.91	4875.34
434.10	4975.98
434.28	4905.76
434.47	4938.53
434.66	5118.75
434.85	5200.67
435.03	5163.22
435.22	5046.20
435.41	5200.67
435.59	5228.76
435.78	5074.28
435.97	5268.55
436.16	5242.80
436.34	5256.84
436.53	5383.23
436.72	5373.87
436.90	5177.26
437.09	5301.31
437.28	5205.35
437.46	5184.29
437.65	5383.23
437.84	5322.38
438.02	5268.55
438.21	5376.21
438.40	5373.87
438.58	5518.98
438.77	5636.01
438.96	5579.84
439.14	5636.01
439.33	5792.83
439.52	5778.78
439.70	5776.44
439.89	5921.56
440.08	5851.34
440.26	5748.36
440.45	5923.90
440.63	6001.13
440.82	6099.44
441.01	5959.00
441.19	6090.07
441.38	6328.81
441.57	6471.58
441.75	6406.05
441.94	6431.79
442.12	6277.32
442.31	6443.49
442.50	6494.99
442.68	6502.01
442.87	6450.52
443.05	6544.14
443.24	6406.05
443.43	6715.00
443.61	6607.33
443.80	6740.74
443.98	6590.95
444.17	6450.52
444.35	6626.06
444.54	6750.10
444.73	6640.10
444.91	6567.54
445.10	6616.69
445.28	6635.42
445.47	6677.55
445.65	6656.48
445.84	6619.04
446.02	6738.40
446.21	6628.40
446.39	6642.44
446.58	6876.49
446.77	6817.98
446.95	6684.57
447.14	6836.70
447.32	6738.40
447.51	6789.89
447.69	6773.51
447.88	6764.15
448.06	6803.94
448.25	6794.58
448.43	6993.52
448.62	7052.03
448.80	6895.22
448.99	6834.36
449.17	6960.75
449.36	6923.30
449.54	7194.81
449.73	7199.49
449.91	7115.23
450.10	7166.72
450.28	7424.18
450.46	7328.22
450.65	7346.94
450.83	7377.37
451.02	7456.95
451.20	7473.33
451.39	7576.31
451.57	7274.38
451.76	7396.09
451.94	7351.62
452.13	7433.54
452.31	7424.18
452.49	7482.69
452.68	7510.78
452.86	7534.18
453.05	7431.20
453.23	7545.89
453.42	7382.05
453.60	7412.48
453.78	7817.39
453.97	7597.38
454.15	7602.06
454.34	7365.67
454.52	7536.52
454.70	7915.69
454.89	7702.70
455.07	7950.80
455.26	7770.58
455.44	7875.90
455.62	8067.83
455.81	7948.46
455.99	8051.44
456.17	8102.93
456.36	8224.64
456.54	8255.07
456.73	8175.49
456.91	8219.96
457.09	8259.75
457.28	8500.83
457.46	8205.92
457.64	8301.88
457.83	8259.75
458.01	8116.98
458.19	8617.85
458.38	8278.47
458.56	8566.36
458.74	8540.61
458.93	8418.91
459.11	8552.32
459.29	8418.91
459.48	8662.32
459.66	8564.02
459.84	8484.44
460.03	8833.18
460.21	8636.58
460.39	8812.12
460.57	8613.17
460.76	8858.93
460.94	8737.22
461.12	8802.75
461.31	8791.05
461.49	8940.85
461.67	9067.24
461.85	9214.69
462.04	9123.41
462.22	9528.32
462.40	9167.88
462.59	9076.60
462.77	9088.30
462.95	9385.55
463.13	9111.71
463.32	9039.15
463.50	9111.71
463.68	9102.34
463.86	9146.81
464.05	8912.76
464.23	9125.75
464.41	9296.61
464.59	9071.92
464.78	9570.45
464.96	9151.49
465.14	9224.05
465.32	9455.76
465.50	9607.90
465.69	9617.26
465.87	9249.80
466.05	9408.95
466.23	9355.12
466.41	9394.91
466.60	9825.57
466.78	9364.48
466.96	9476.83
467.14	9556.41
467.32	9579.81
467.51	9778.76
467.69	9357.46
467.87	9565.77
468.05	9710.88
468.23	9678.12
468.41	9591.52
468.60	9813.87
468.78	9776.42
468.96	9813.87
469.14	9865.36
469.32	9926.21
469.50	9724.93
469.69	10008.13
469.87	10050.26
470.05	10127.50
470.23	10003.45
470.41	9970.68
470.59	10281.97
470.77	10071.33
470.95	10408.36
471.14	10359.21
471.32	10174.31
471.50	10480.92
471.68	10441.13
471.86	10869.45
472.04	10658.80
472.22	10885.83
472.40	10539.43
472.58	10609.65
472.77	10628.37
472.95	10789.87
473.13	11082.44
473.31	10778.17
473.49	10942.00
473.67	10689.23
473.85	11026.26
474.03	11101.16
474.21	11260.32
474.39	11232.23
474.57	11349.26
474.75	11538.84
474.93	11513.10
475.12	11426.50
475.30	11403.09
475.48	11564.59
475.66	11648.85
475.84	11428.84
476.02	11714.38
476.20	11576.29
476.38	12138.02
476.56	12238.66
476.74	12210.57
476.92	12044.40
477.10	12205.89
477.28	12512.50
477.46	12390.80
477.64	12486.76
477.82	12393.14
478.00	12908.05
478.18	12821.45
478.36	12858.90
478.54	12891.67
478.72	13207.64
478.90	13116.36
479.08	13415.95
479.26	13422.97
479.44	13427.65
479.62	13509.57
479.80	13525.96
479.98	13598.51
480.16	13937.89
480.34	13968.32
480.52	14005.77
480.70	14015.13
480.88	14045.55
481.06	14398.98
481.24	14284.29
481.41	14813.25
481.59	14822.61
481.77	14822.61
481.95	14932.62
482.13	15033.26
482.31	14721.97
482.49	15211.14
482.67	15075.39
482.85	15501.37
483.03	15632.44
483.21	15616.05
483.39	15899.26
483.57	15634.78
483.74	15950.75
483.92	16004.58
484.10	15740.10
484.28	16013.95
484.46	16273.74
484.64	16627.17
484.82	16449.28
485.00	16627.17
485.18	17116.34
485.35	16620.14
485.53	16676.32
485.71	16856.54
485.89	16980.59
486.07	17207.62
486.25	17032.08
486.43	17455.72
486.61	17394.86
486.78	17811.48
486.96	17759.98
487.14	18085.32
487.32	18078.30
487.50	18272.56
487.68	18558.11
487.85	18806.20
488.03	19103.45
488.21	18888.12
488.39	19290.70
488.57	19124.52
488.75	19403.04
488.92	19353.89
489.10	19974.13
489.28	19971.79
489.46	20067.75
489.64	20252.66
489.81	20327.55
489.99	20341.60
490.17	20498.41
490.35	21034.39
490.53	20842.47
490.70	21104.61
490.88	21111.63
491.06	21240.36
491.24	21142.06
491.41	21209.93
491.59	21156.10
491.77	21226.32
491.95	21778.68
492.13	21593.78
492.30	22153.17
492.48	22246.79
492.66	22153.17
492.84	22132.11
493.01	22649.36
493.19	22668.09
493.37	22817.88
493.54	22876.40
493.72	23410.04
493.90	23351.52
494.08	23365.57
494.25	23566.85
494.43	24016.24
494.61	24161.35
494.79	23730.69
494.96	23779.84
495.14	24100.50
495.32	24517.11
495.49	24208.16
495.67	24327.53
495.85	24790.95
496.02	24776.91
496.20	24842.45
496.38	25013.31
496.55	25132.67
496.73	25624.18
496.91	25156.08
497.09	25528.22
497.26	25722.49
497.44	25586.74
497.62	25680.36
497.79	26033.78
497.97	25874.62
498.14	26265.49
498.32	26438.69
498.50	26162.51
498.67	26618.91
498.85	26663.38
499.03	26785.09
499.20	26852.97
499.38	26838.92
499.56	27049.57
499.73	26789.77
499.91	27243.84
500.08	27033.19
500.26	26775.73
500.44	27047.23
500.61	27611.30
500.79	26974.67
500.97	27543.42
501.14	27730.67
501.32	27850.03
501.49	27814.93
501.67	28077.07
501.84	27978.76
502.02	27992.81
502.20	28465.60
502.37	28561.56
502.55	28397.72
502.72	28924.34
502.90	29036.69
503.07	28503.04
503.25	29076.48
503.43	28465.60
503.60	28863.49
503.78	28849.44
503.95	29242.65
504.13	29455.64
504.30	29069.45
504.48	29156.05
504.65	29493.09
504.83	29975.24
505.01	29677.99
505.18	29890.98
505.36	30115.67
505.53	30096.95
505.71	30354.41
505.88	30721.87
506.06	29834.81
506.23	30281.85
506.41	30216.32
506.58	30700.81
506.76	30735.92
506.93	30965.29
507.11	30433.99
507.28	30726.55
507.46	30764.00
507.63	30845.92
507.81	30944.22
507.98	30979.33
508.16	31129.12
508.33	31131.47
508.50	31239.13
508.68	31749.37
508.85	32039.59
509.03	31676.81
509.20	32095.77
509.38	31974.06
509.55	31812.56
509.73	31988.10
509.90	32182.37
510.08	31803.20
510.25	32290.03
510.42	32226.84
510.60	32659.84
510.77	32685.58
510.95	32730.05
511.12	32800.27
511.30	32659.84
511.47	32725.37
511.64	32961.76
511.82	33017.94
511.99	32690.26
512.17	32905.59
512.34	33240.29
512.51	33315.19
512.69	33013.26
512.86	33354.97
513.04	33694.35
513.21	33577.33
513.38	33385.40
513.56	33530.51
513.73	33251.99
513.90	33572.64
514.08	33919.04
514.25	33926.07
514.43	34125.01
514.60	34323.96
514.77	33795.00
514.95	34270.12
515.12	34150.76
515.29	34272.46
515.47	34707.80
515.64	34672.70
515.81	34206.93
515.99	34691.42
516.16	34431.62
516.33	34384.81
516.51	34394.17
516.68	34015.01
516.85	33755.21
517.03	34309.91
517.20	34588.44
517.37	34972.28
517.54	34843.56
517.72	35115.06
517.89	34820.15
518.06	34373.11
518.24	34998.03
518.41	35204.00
518.58	35285.92
518.75	35110.38
518.93	35599.55
519.10	35599.55
519.27	35693.17
519.45	35672.10
519.62	36095.74
519.79	36411.71
519.96	36531.08
520.14	36694.92
520.31	36271.28
520.48	36364.90
520.65	36425.76
520.83	36430.44
521.00	36938.33
521.17	36636.41
521.34	36737.05
521.52	36833.01
521.69	37130.26
521.86	37060.04
522.03	37205.16
522.20	37003.87
522.38	37434.53
522.55	37420.48
522.72	37102.17
522.89	37357.29
523.07	37390.06
523.24	37422.83
523.41	38099.24
523.58	37425.17
523.75	38281.80
523.92	37794.97
524.10	37855.82
524.27	38103.92
524.44	38373.08
524.61	38239.67
524.78	38401.17
524.96	38155.41
525.13	38373.08
525.30	38841.19
525.47	38806.08
525.64	38646.93
525.81	38864.60
525.98	38543.94
526.16	38000.94
526.33	38031.36
526.50	38483.09
526.67	38462.02
526.84	38555.64
527.01	38754.59
527.18	39058.86
527.36	39194.61
527.53	38986.30
527.70	39264.83
527.87	39494.20
528.04	39035.45
528.21	39262.49
528.38	39686.12
528.55	39599.52
528.72	39878.05
528.89	40079.33
529.07	39707.19
529.24	39714.21
529.41	39442.71
529.58	39803.15
529.75	39859.32
529.92	39915.50
530.09	40109.76
530.26	40142.53
530.43	40341.47
530.60	39693.15
530.77	39955.29
530.94	40271.26
531.11	40582.55
531.28	40311.05
531.46	40584.89
531.63	40865.75
531.80	40247.85
531.97	40245.51
532.14	40229.13
532.31	40388.28
532.48	40390.62
532.65	40170.61
532.82	40498.29
532.99	40919.59
533.16	40718.30
533.33	40678.51
533.50	40891.50
533.67	40959.38
533.84	40832.99
534.01	40875.12
534.18	40978.10
534.35	41556.21
534.52	41029.59
534.69	41170.02
534.86	41383.01
535.03	41277.69
535.20	41631.11
535.37	41900.27
535.54	41886.23
535.71	41694.30
535.88	41504.72
536.05	41750.48
536.22	41652.17
536.38	41706.01
536.55	41769.20
536.72	41347.90
536.89	41565.57
537.06	41780.90
537.23	42354.33
537.40	42141.35
537.57	42330.93
537.74	41972.83
537.91	42672.65
538.08	42469.02
538.25	41867.50
538.42	41921.34
538.59	42354.33
538.75	42024.32
538.92	42094.53
539.09	42689.03
539.26	42354.33
539.43	42377.74
539.60	42761.59
539.77	42354.33
539.94	42305.18
540.11	42251.35
540.28	42504.13
540.44	42143.69
540.61	42190.50
540.78	42396.46
540.95	42829.46
541.12	42651.58
541.29	42862.23
541.46	42955.85
541.62	42845.85
541.79	42728.82
541.96	42508.81
542.13	43297.57
542.30	42836.48
542.47	43332.68
542.63	43356.08
542.80	43604.18
542.97	43847.60
543.14	43613.54
543.31	43505.88
543.48	43597.16
543.64	43973.98
543.81	43753.97
543.98	43934.20
544.15	43288.21
544.32	43899.09
544.48	44083.99
544.65	44025.48
544.82	43742.27
544.99	43669.72
545.16	44381.24
545.32	43765.68
545.49	44179.95
545.66	44254.85
545.83	44154.21
546.00	44154.21
546.16	44238.47
546.33	44353.15
546.50	43800.79
546.67	44348.47
546.83	43796.10
547.00	44304.00
547.17	43772.70
547.34	43917.81
547.50	43957.60
547.67	44428.05
547.84	44320.38
548.00	44912.54
548.17	44737.00
548.34	44311.02
548.51	44676.15
548.67	44755.72
548.84	44680.83
549.01	44772.11
549.18	44655.08
549.34	44528.69
549.51	44837.64
549.68	44570.82
549.84	45392.35
550.01	45057.65
550.18	44814.24
550.34	45127.87
550.51	44961.69
550.68	44989.78
550.84	44573.16
551.01	45111.49
551.18	45015.52
551.34	44727.64
551.51	44942.97
551.68	45001.48
551.84	45392.35
552.01	45048.29
552.18	44722.96
552.34	44945.31
552.51	45425.12
552.68	45144.25
552.84	45378.31
553.01	45621.72
553.18	45406.39
553.34	45387.67
553.51	45240.21
553.67	45361.92
553.84	45752.79
554.01	45668.53
554.17	45813.65
554.34	45851.09
554.51	45736.41
554.67	45986.85
554.84	45488.31
555.00	45518.74
555.17	45572.57
555.33	45642.79
555.50	45689.60
555.67	45921.31
555.83	46134.30
556.00	45900.25
556.16	46178.77
556.33	45869.82
556.50	45776.20
556.66	46061.74
556.83	45654.49
556.99	46036.00
557.16	46396.44
557.32	46071.10
557.49	45907.27
557.65	45879.18
557.82	46052.38
557.98	45876.84
558.15	46078.13
558.32	46241.96
558.48	46138.98
558.65	46096.85
558.81	45872.16
558.98	46241.96
559.14	46295.80
559.31	46370.69
559.47	46597.73
559.64	46136.64
559.80	46791.99
559.97	46607.09
560.13	45808.96
560.30	46440.91
560.46	46223.24
560.63	46410.48
560.79	46309.84
560.96	46494.74
561.12	46604.75
561.29	46419.84
561.45	46457.29
561.61	46064.08
561.78	46223.24
561.94	46155.36
562.11	46574.32
562.27	46171.75
562.44	46206.86
562.60	46920.72
562.77	46471.34
562.93	46349.63
563.10	46534.53
563.26	46146.00
563.42	46646.88
563.59	46237.28
563.75	46745.18
563.92	46548.57
564.08	46665.60
564.24	46735.82
564.41	46810.71
564.57	46548.57
564.74	46937.10
564.90	46953.49
565.07	46820.08
565.23	46431.55
565.39	46272.39
565.56	46670.28
565.72	46305.16
565.88	46527.51
566.05	46918.38
566.21	46625.81
566.38	46204.52
566.54	46906.68
566.70	46869.23
566.87	46822.42
567.03	46918.38
567.19	47349.04
567.36	47072.85
567.52	46885.61
567.68	46958.17
567.85	46773.27
568.01	46916.04
568.17	46670.28
568.34	46761.56
568.50	46808.37
568.66	46794.33
568.83	46904.34
568.99	46178.77
569.15	46799.01
569.32	46335.59
569.48	46721.77
569.64	47093.92
569.81	46979.23
569.97	47093.92
570.13	46810.71
570.30	46815.40
570.46	46745.18
570.62	46553.26
570.78	46679.64
570.95	46593.04
571.11	46857.52
571.27	47145.41
571.43	46595.38
571.60	46801.35
571.76	46747.52
571.92	46939.44
572.09	47477.77
572.25	46637.51
572.41	46745.18
572.57	47290.52
572.74	47459.04
572.90	46885.61
573.06	46981.57
573.22	47213.29
573.38	47297.55
573.55	46880.93
573.71	47349.04
573.87	47035.41
574.03	46457.29
574.20	46773.27
574.36	46635.17
574.52	46916.04
574.68	46960.51
574.84	46834.12
575.01	46878.59
575.17	47199.24
575.33	46726.46
575.49	47051.79
575.65	47152.43
575.82	47262.44
575.98	46913.70
576.14	47229.67
576.30	47215.63
576.46	46946.47
576.62	46784.97
576.79	47049.45
576.95	46555.60
577.11	46859.87
577.27	47054.13
577.43	47379.46
577.59	46990.94
577.75	47009.66
577.92	46274.73
578.08	46820.08
578.24	46560.28
578.40	46845.82
578.56	47028.38
578.72	47143.07
578.88	47283.50
579.04	47070.51
579.21	46794.33
579.37	47096.26
579.53	46749.86
579.69	46873.91
579.85	47028.38
580.01	46962.85
580.17	47180.52
580.33	46955.83
580.49	47192.22
580.65	46941.78
580.82	47248.39
580.98	47356.06
581.14	47351.38
581.30	47564.37
581.46	47248.39
581.62	47210.95
581.78	47201.58
581.94	47510.53
582.10	47400.53
582.26	47349.04
582.42	47466.06
582.58	47070.51
582.74	47168.82
582.90	47306.91
583.06	47112.64
583.22	46857.52
583.38	47257.76
583.54	47452.02
583.70	47372.44
583.86	47290.52
584.02	47007.32
584.18	47129.03
584.34	47480.11
584.50	46948.81
584.66	46967.53
584.82	46885.61
584.98	47716.50
585.14	47337.33
585.30	47414.57
585.46	47063.49
585.62	46916.04
585.78	47004.98
585.94	46759.22
586.10	47068.17
586.26	46871.57
586.42	47342.02
586.58	47215.63
586.74	47342.02
586.90	47084.56
587.06	46824.76
587.22	47264.78
587.38	47168.82
587.54	47569.05
587.70	47391.17
587.86	47330.31
588.02	46869.23
588.18	47337.33
588.34	46829.44
588.49	46459.63
588.65	46555.60
588.81	46597.73
588.97	46958.17
589.13	46813.05
589.29	46471.34
589.45	46810.71
589.61	47070.51
589.77	47199.24
589.93	47164.14
590.08	47281.16
590.24	47257.76
590.40	47283.50
590.56	47346.70
590.72	47351.38
590.88	46836.46
591.04	47374.78
591.20	47487.13
591.35	47562.03
591.51	47665.01
591.67	47526.92
591.83	47157.11
591.99	47185.20
592.15	47119.66
592.31	47145.41
592.46	47257.76
592.62	47215.63
592.78	47267.12
592.94	47393.51
593.10	47536.28
593.26	47217.97
593.41	47351.38
593.57	47173.50
593.73	46993.28
593.89	47330.31
594.05	47323.29
594.20	47435.64
594.36	47430.96
594.52	47421.59
594.68	47229.67
594.84	47613.52
594.99	47592.45
595.15	46876.25
595.31	47400.53
595.47	47295.21
595.62	47409.89
595.78	47725.86
595.94	47625.22
596.10	47363.08
596.25	47838.21
596.41	47318.61
596.57	47009.66
596.73	47430.96
596.88	47260.10
597.04	47189.88
597.20	47650.97
597.36	47618.20
597.51	47339.68
597.67	47592.45
597.83	47356.06
597.99	47721.18
598.14	47351.38
598.30	47175.84
598.46	47044.77
598.61	47599.47
598.77	47236.69
598.93	47503.51
599.09	47510.53
599.24	47714.16
599.40	47381.80
599.56	47571.39
599.71	47171.16
599.87	47735.23
600.03	47353.72
600.18	47477.77
600.34	47681.39
600.50	46890.29
600.65	47157.11
600.81	47885.02
600.97	47657.99
601.12	47758.63
601.28	47758.63
601.44	47566.71
601.59	47136.05
601.75	46969.87
601.91	47000.30
602.06	47143.07
602.22	47526.92
602.37	47688.42
602.53	47395.85
602.69	47845.23
602.84	47402.87
603.00	47175.84
603.16	47334.99
603.31	47681.39
603.47	47241.37
603.62	46944.12
603.78	47515.22
603.94	47201.58
604.09	47824.17
604.25	47442.66
604.40	47187.54
604.56	47398.19
604.71	47402.87
604.87	47131.37
605.03	47173.50
605.18	47030.72
605.34	47117.32
605.49	47002.64
605.65	47194.56
605.80	47058.81
605.96	47412.23
606.12	47201.58
606.27	47365.42
606.43	47224.99
606.58	47192.22
606.74	47220.31
606.89	47271.80
607.05	46955.83
607.20	47194.56
607.36	47241.37
607.51	47702.46
607.67	47388.83
607.82	47040.09
607.98	47243.71
608.13	47236.69
608.29	46806.03
608.44	46733.48
608.60	46710.07
608.75	46387.08
608.91	47079.88
609.06	46609.43
609.22	46728.80
609.37	46546.23
609.53	46885.61
609.68	46518.15
609.84	46684.33
609.99	46925.40
610.15	46913.70
610.30	46473.68
610.46	46803.69
610.61	46569.64
610.76	46445.59
610.92	46349.63
611.07	46426.87
611.23	46564.96
611.38	46845.82
611.54	46756.88
611.69	46258.35
611.84	46136.64
612.00	46579.00
612.15	46431.55
612.31	47047.11
612.46	46527.51
612.62	46646.88
612.77	46501.76
612.92	46883.27
613.08	46321.54
613.23	46244.30
613.39	46171.75
613.54	45860.46
613.69	46248.99
613.85	45881.52
614.00	46197.49
614.15	46548.57
614.31	46174.09
614.46	46431.55
614.62	45862.80
614.77	46387.08
614.92	46335.59
615.08	45844.07
615.23	46134.30
615.38	45956.42
615.54	46050.04
615.69	45893.22
615.84	45696.62
616.00	45893.22
616.15	46101.53
616.30	46499.42
616.46	45593.64
616.61	45228.51
616.76	45930.67
616.92	45684.92
617.07	45729.39
617.22	45757.47
617.37	45879.18
617.53	46174.09
617.68	45813.65
617.83	45970.46
617.99	45977.48
618.14	45799.60
618.29	45439.16
618.45	45352.56
618.60	45198.09
618.75	45937.69
618.90	45687.26
619.06	46033.66
619.21	45607.68
619.36	46087.49
619.51	45600.66
619.67	45453.20
619.82	45390.01
619.97	45703.64
620.12	45256.60
620.28	45247.24
620.43	45361.92
620.58	45158.30
620.73	45404.05
620.89	45191.06
621.04	45518.74
621.19	45153.62
621.34	45258.94
621.49	44839.98
621.65	45013.18
621.80	44987.44
621.95	44905.52
622.10	44942.97
622.25	44952.33
622.41	45177.02
622.56	45202.77
622.71	45198.09
622.86	44886.79
623.01	44940.63
623.16	45069.36
623.32	45181.70
623.47	45207.45
623.62	45291.71
623.77	44446.77
623.92	44671.46
624.07	44809.56
624.23	44678.49
624.38	44465.50
624.53	44648.06
624.68	44390.60
624.83	44247.83
624.98	44655.08
625.13	44013.77
625.29	44313.36
625.44	44385.92
625.59	44208.04
625.74	43978.67
625.89	43842.92
626.04	43833.55
626.19	44692.53
626.34	44514.65
626.49	43819.51
626.65	44566.14
626.80	44563.80
626.95	44025.48
627.10	44023.14
627.25	44002.07
627.40	43688.44
627.55	43966.96
627.70	43309.27
627.85	43658.01
628.00	44306.34
628.15	43936.54
628.30	44259.53
628.45	43894.41
628.60	43805.47
628.76	44194.00
628.91	43697.80
629.06	43721.21
629.21	43033.09
629.36	43618.22
629.51	43320.98
629.66	43536.30
629.81	43632.27
629.96	43536.30
630.11	43306.93
630.26	43634.61
630.41	43526.94
630.56	43166.50
630.71	43328.00
630.86	43161.82
631.01	43058.84
631.16	43131.39
631.31	43365.45
631.46	42794.36
631.61	42717.12
631.76	43370.13
631.91	43267.14
632.06	43023.73
632.21	43473.11
632.36	43150.12
632.51	43012.02
632.66	43157.14
632.81	43007.34
632.96	42595.41
633.10	42962.87
633.25	42546.26
633.40	42880.95
633.55	42813.08
633.70	42782.65
633.85	43023.73
634.00	42897.34
634.15	42855.21
634.30	42775.63
634.45	42707.76
634.60	42733.50
634.75	42436.25
634.90	42639.88
635.05	42564.98
635.19	42724.14
635.34	42873.93
635.49	42286.46
635.64	42314.55
635.79	42391.78
635.94	41879.21
636.09	42433.91
636.24	42237.31
636.39	42230.29
636.53	42462.00
636.68	42155.39
636.83	42323.91
636.98	42330.93
637.13	41551.53
637.28	42419.87
637.43	42525.19
637.57	42679.67
637.72	42246.67
637.87	42422.21
638.02	42686.69
638.17	42036.02
638.32	41881.55
638.46	41918.99
638.61	41904.95
638.76	41837.08
638.91	41771.54
639.06	41621.75
639.20	41464.93
639.35	41956.44
639.50	41926.02
639.65	42302.84
639.80	41748.14
639.94	41956.44
640.09	41766.86
640.24	41593.66
640.39	41935.38
640.54	41528.13
640.68	41432.16
640.83	41897.93
640.98	41558.55
641.13	40950.01
641.27	41958.78
641.42	41301.09
641.57	41385.35
641.72	41291.73
641.86	41043.63
642.01	41015.55
642.16	41205.13
642.31	41013.21
642.45	41268.33
642.60	40992.14
642.75	40804.90
642.90	41045.97
643.04	40879.80
643.19	41202.79
643.34	41233.22
643.48	41219.17
643.63	41301.09
643.78	41216.83
643.93	40893.84
644.07	40769.79
644.22	40491.27
644.37	40966.40
644.51	40292.32
644.66	40818.94
644.81	41120.87
644.95	41219.17
645.10	40734.68
645.25	40589.57
645.39	40882.14
645.54	40847.03
645.69	40868.09
645.83	40568.51
645.98	40671.49
646.13	40758.09
646.27	40591.91
646.42	40320.41
646.57	40664.47
646.71	40383.60
646.86	40299.34
647.00	40814.26
647.15	40535.74
647.30	40629.36
647.44	40313.39
647.59	40308.71
647.74	40025.50
647.88	40254.87
648.03	39758.68
648.17	40353.18
648.32	39805.49
648.47	40336.79
648.61	39941.24
648.76	40201.04
648.90	40013.80
649.05	39959.97
649.20	40142.53
649.34	40016.14
649.49	39812.51
649.63	39643.99
649.78	39833.58
649.92	39683.78
650.07	39913.16
650.21	39833.58
650.36	39648.68
650.51	39896.77
650.65	40233.81
650.80	40383.60
650.94	39770.38
651.09	40341.47
651.23	39824.22
651.38	39651.02
651.52	39407.60
651.67	39798.47
651.81	39990.39
651.96	39651.02
652.10	39405.26
652.25	39100.99
652.39	39250.78
652.54	39576.12
652.68	39590.16
652.83	39681.44
652.97	39445.05
653.12	39407.60
653.26	39576.12
653.41	39454.41
653.55	38902.04
653.70	38712.46
653.84	39288.23
653.99	39449.73
654.13	38792.04
654.27	39363.13
654.42	39271.85
654.56	39126.74
654.71	39140.78
654.85	38897.36
655.00	38925.45
655.14	38902.04
655.29	38649.27
655.43	38398.83
655.57	38146.05
655.72	38529.90
655.86	37970.51
656.01	38572.03
656.15	38089.88
656.30	38586.07
656.44	37928.38
656.58	38099.24
656.73	38670.33
656.87	38143.71
657.01	38258.40
657.16	38139.03
657.30	38136.69
657.45	37567.94
657.59	38337.98
657.73	38047.75
657.88	38452.66
658.02	38281.80
658.16	38417.55
658.31	38139.03
658.45	38649.27
658.60	38237.33
658.74	38426.92
658.88	38230.31
659.03	38000.94
659.17	37734.12
659.31	38040.73
659.46	37647.52
659.60	37663.90
659.74	37752.84
659.89	37897.95
660.03	37633.47
660.17	38139.03
660.32	37624.11
660.46	37958.81
660.60	37942.42
660.74	37801.99
660.89	37523.47
661.03	36992.17
661.17	37371.33
661.32	37205.16
661.46	37593.68
661.60	36849.39
661.74	37207.50
661.89	37586.66
662.03	37127.92
662.17	36992.17
662.31	36971.10
662.46	37148.98
662.60	37310.48
662.74	37177.07
662.88	36816.63
663.03	37020.25
663.17	36833.01
663.31	36514.70
663.45	36921.95
663.60	36519.38
663.74	36479.59
663.88	36395.33
664.02	36128.51
664.17	36329.80
664.31	35594.87
664.45	36161.28
664.59	36397.67
664.73	36154.26
664.88	36617.68
665.02	36521.72
665.16	36388.31
665.30	36327.45
665.44	36182.34
665.59	35974.03
665.73	35718.92
665.87	35606.57
666.01	35758.70
666.15	35386.56
666.29	35887.43
666.44	35737.64
666.58	35475.50
666.72	35725.94
666.86	35349.11
667.00	35515.29
667.14	35330.39
667.28	35314.00
667.43	34864.62
667.57	35164.21
667.71	35192.30
667.85	35124.42
667.99	34719.51
668.13	34604.82
668.27	35131.44
668.41	34738.23
668.56	34438.64
668.70	34796.74
668.84	34534.60
668.98	34242.04
669.12	34342.68
669.26	34660.99
669.40	34330.98
669.54	34373.11
669.68	34492.47
669.82	34455.03
669.96	33998.62
670.10	33394.76
670.25	34359.06
670.39	33897.98
670.53	34110.97
670.67	34232.68
670.81	33865.21
670.95	33972.88
671.09	33977.56
671.23	34415.24
671.37	34075.86
671.51	33617.11
671.65	33408.81
671.79	33191.14
671.93	33263.69
672.07	33455.62
672.21	33254.33
672.35	33064.75
672.49	33078.79
672.63	32957.08
672.77	32996.87
672.91	32701.96
673.05	33024.96
673.19	32739.41
673.33	32826.01
673.47	32327.48
673.61	32233.86
673.75	32233.86
673.89	32781.54
674.03	31903.84
674.17	31990.44
674.31	31814.90
674.45	31920.23
674.59	32273.65
674.73	32320.46
674.87	31690.85
675.01	32004.49
675.15	32072.36
675.29	31531.70
675.43	31988.10
675.56	31854.69
675.70	31206.36
675.84	31667.45
675.98	30611.87
676.12	31072.95
676.26	31089.34
676.40	31204.02
676.54	31342.11
676.68	31321.05
676.82	30555.69
676.96	30663.36
677.10	30600.16
677.23	30441.01
677.37	30864.64
677.51	30253.76
677.65	30485.48
677.79	30005.67
677.93	30190.57
678.07	30094.61
678.21	29872.26
678.34	29797.36
678.48	29443.94
678.62	29462.66
678.76	29600.76
678.90	29359.68
679.04	29369.04
679.18	29546.92
679.31	29139.67
679.45	28758.16
679.59	29130.31
679.73	29010.94
679.87	29237.97
680.00	29280.10
680.14	28648.16
680.28	28512.41
680.42	28163.67
680.56	28521.77
680.70	28538.15
680.83	28166.01
680.97	28151.96
681.11	27800.88
681.25	27763.43
681.39	27985.79
681.52	28013.87
681.66	28222.18
681.80	27534.06
681.94	27662.79
682.07	27402.99
682.21	27463.85
682.35	26906.80
682.49	27658.11
682.62	27318.73
682.76	27681.52
682.90	27131.49
683.04	26972.33
683.17	27098.72
683.31	26969.99
683.45	26813.18
683.59	26658.70
683.72	26541.68
683.86	26139.10
684.00	25905.05
684.13	26422.31
684.27	26426.99
684.41	26038.46
684.55	26171.87
684.68	25846.54
684.82	25804.41
684.96	25750.57
685.09	25565.67
685.23	25404.17
685.37	25345.66
685.50	25619.50
685.64	25394.81
685.78	25120.97
685.91	25195.87
686.05	24819.04
686.19	24535.84
686.32	24929.05
686.46	24519.45
686.60	24149.65
686.73	24486.68
686.87	23747.08
687.01	23618.35
687.14	23716.65
687.28	23318.76
687.42	23864.10
687.55	23651.11
687.69	23770.48
687.82	23498.98
687.96	23541.11
688.10	23473.23
688.23	23360.89
688.37	23225.14
688.50	23030.87
688.64	23063.64
688.78	23012.15
688.91	23122.15
689.05	22841.29
689.18	22731.28
689.32	22616.60
689.46	22522.98
689.59	22668.09
689.73	22642.34
689.86	22565.10
690.00	22309.99
690.13	22298.28
690.27	22188.28
690.41	22097.00
690.54	21996.35
690.68	21678.04
690.81	21752.94
690.95	21631.23
691.08	21720.17
691.22	21514.20
691.35	21546.97
691.49	21607.83
691.62	21656.98
691.76	21050.78
691.89	21579.74
692.03	21207.59
692.16	21322.28
692.30	20875.24
692.43	21177.17
692.57	20709.06
692.70	20826.09
692.84	20566.29
692.97	20690.34
693.11	20210.53
693.24	20582.67
693.38	20210.53
693.51	20034.99
693.65	20086.48
693.78	20215.21
693.92	20278.40
694.05	20056.05
694.19	19803.27
694.32	19871.15
694.45	19756.46
694.59	19681.56
694.72	19545.81
694.86	19379.64
694.99	19374.95
695.13	19042.60
695.26	18677.48
695.39	18890.46
695.53	19227.50
695.66	19014.51
695.80	18984.09
695.93	18834.29
696.07	18845.99
696.20	18738.33
696.33	18590.88
696.47	18654.07
696.60	18363.84
696.73	18307.67
696.87	18356.82
697.00	18267.88
697.14	18169.58
697.27	18197.67
697.40	18097.02
697.54	17624.23
697.67	17961.27
697.80	17839.56
697.94	17762.33
698.07	17474.44
698.21	17558.70
698.34	17528.27
698.47	17359.75
698.61	17062.51
698.74	17071.87
698.87	17088.25
699.01	16924.41
699.14	16950.16
699.27	16933.78
699.40	16905.69
699.54	16865.90
699.67	16643.55
699.80	16594.40
699.94	16706.74
700.07	16540.57
700.20	16304.17
700.34	16299.49
700.47	16285.45
700.60	16437.58
700.73	16233.96
700.87	16381.41
701.00	16196.51
701.13	15941.39
701.26	15815.00
701.40	15871.17
701.53	15789.25
701.66	15815.00
701.79	15697.97
701.93	15580.95
702.06	15080.07
702.19	15311.78
702.32	15414.77
702.46	15236.89
702.59	15367.96
702.72	15377.32
702.85	15161.99
702.99	15030.92
703.12	15342.21
703.25	15140.93
703.38	15243.91
703.51	14703.25
703.65	14984.11
703.78	14752.40
703.91	14869.42
704.04	14569.83
704.17	14595.58
704.31	14565.15
704.44	13998.74
704.57	13891.08
704.70	14162.58
704.83	14242.16
704.96	14047.90
705.10	13989.38
705.23	14157.90
>>>>>End Processed Spectral Data<<<<<
