SpectraSuite Data File
++++++++++++++++++++++++++++++++++++
Date: Fri Oct 25 10:43:55 EDT 2013
User: price-jones
Dark Spectrum Present: No
Reference Spectrum Present: No
Number of Sampled Component Spectra: 1
Spectrometers: USB2+H05261
Integration Time (usec): 100000 (USB2+H05261)
Spectra Averaged: 1 (USB2+H05261)
Boxcar Smoothing: 0 (USB2+H05261)
Correct for Electrical Dark: No (USB2+H05261)
Strobe/Lamp Enabled: No (USB2+H05261)
Correct for Detector Non-linearity: No (USB2+H05261)
Correct for Stray Light: No (USB2+H05261)
Number of Pixels in Processed Spectrum: 2048
>>>>>Begin Processed Spectral Data<<<<<
365.73	142.77
365.92	142.77
366.12	142.77
366.32	39.79
366.52	0.00
366.72	14.04
366.91	44.47
367.11	25.75
367.31	0.00
367.51	65.54
367.70	18.72
367.90	91.28
368.10	0.00
368.30	16.38
368.49	56.17
368.69	60.85
368.89	0.00
369.09	23.41
369.28	51.49
369.48	74.90
369.68	81.92
369.87	159.16
370.07	39.79
370.27	84.26
370.47	175.54
370.66	369.80
370.86	418.96
371.06	390.87
371.25	437.68
371.45	458.74
371.65	505.56
371.84	430.66
372.04	433.00
372.24	409.59
372.44	566.41
372.63	512.58
372.83	496.19
373.03	486.83
373.22	496.19
373.42	547.69
373.62	533.64
373.81	557.05
374.01	603.86
374.21	599.18
374.40	510.24
374.60	594.50
374.79	571.09
374.99	531.30
375.19	585.13
375.38	582.79
375.58	571.09
375.78	631.94
375.97	599.18
376.17	699.82
376.37	564.07
376.56	645.99
376.76	596.84
376.95	589.82
377.15	732.59
377.35	765.36
377.54	669.39
377.74	688.12
377.93	664.71
378.13	706.84
378.33	695.14
378.52	678.76
378.72	671.73
378.91	674.07
379.11	624.92
379.31	697.48
379.50	641.31
379.70	678.76
379.89	730.25
380.09	753.65
380.28	746.63
380.48	739.61
380.68	690.46
380.87	683.44
381.07	690.46
381.26	692.80
381.46	819.19
381.65	741.95
381.85	734.93
382.04	716.20
382.24	739.61
382.43	690.46
382.63	746.63
382.83	758.33
383.02	770.04
383.22	720.88
383.41	772.38
383.61	741.95
383.80	835.57
384.00	807.48
384.19	849.61
384.39	809.83
384.58	760.67
384.78	856.64
384.97	856.64
385.17	805.14
385.36	873.02
385.56	847.27
385.75	786.42
385.95	805.14
386.14	898.77
386.34	912.81
386.53	863.66
386.72	814.51
386.92	837.91
387.11	905.79
387.31	919.83
387.50	884.72
387.70	866.00
387.89	905.79
388.09	791.10
388.28	954.94
388.48	887.06
388.67	1032.18
388.86	954.94
389.06	931.53
389.25	976.00
389.45	943.24
389.64	992.39
389.84	1102.39
390.03	1039.20
390.22	905.79
390.42	1093.03
390.61	1095.37
390.81	1132.82
391.00	1163.25
391.19	1118.78
391.39	1060.26
391.58	1153.88
391.78	1128.14
391.97	1172.61
392.16	1128.14
392.36	1100.05
392.55	1137.50
392.75	1046.22
392.94	1015.79
393.13	1055.58
393.33	1078.99
393.52	1022.81
393.71	1128.14
393.91	1156.22
394.10	1086.01
394.29	1151.54
394.49	1245.16
394.68	1263.89
394.88	1322.40
395.07	1224.10
395.26	1259.21
395.46	1280.27
395.65	1249.85
395.84	1217.08
396.04	1212.40
396.23	1224.10
396.42	1196.01
396.62	1205.38
396.81	1149.20
397.00	1198.35
397.19	1324.74
397.39	1432.41
397.58	1406.66
397.77	1507.30
397.97	1434.75
398.16	1549.43
398.35	1533.05
398.55	1526.03
398.74	1554.12
398.93	1621.99
399.12	1603.27
399.32	1521.35
399.51	1582.20
399.70	1605.61
399.90	1636.03
400.09	1710.93
400.28	1636.03
400.47	1633.69
400.67	1760.08
400.86	1624.33
401.05	1673.48
401.24	1755.40
401.44	1806.89
401.63	1816.26
401.82	1952.01
402.01	1813.92
402.21	1844.34
402.40	1830.30
402.59	1865.41
402.78	1888.81
402.97	1849.02
403.17	1921.58
403.36	1888.81
403.55	1949.67
403.74	1923.92
403.93	2045.63
404.13	2031.58
404.32	1916.90
404.51	1879.45
404.70	2047.97
404.89	2001.16
405.09	2157.97
405.28	2062.01
405.47	2090.10
405.66	2134.57
405.85	2118.18
406.05	1980.09
406.24	2108.82
406.43	2132.23
406.62	2183.72
406.81	2136.91
407.00	2214.15
407.20	2134.57
407.39	2111.16
407.58	2216.49
407.77	2368.62
407.96	2317.13
408.15	2307.77
408.34	2314.79
408.54	2368.62
408.73	2422.45
408.92	2492.67
409.11	2527.78
409.30	2434.16
409.49	2413.09
409.68	2387.35
409.87	2544.16
410.07	2427.14
410.26	2527.78
410.45	2380.32
410.64	2544.16
410.83	2558.21
411.02	2722.04
411.21	2717.36
411.40	2609.70
411.59	2745.45
411.78	2724.38
411.98	2731.41
412.17	2754.81
412.36	2745.45
412.55	2796.94
412.74	2834.39
412.93	2862.48
413.12	2862.48
413.31	3012.27
413.50	2958.44
413.69	3030.99
413.88	3042.70
414.07	2946.73
414.26	3021.63
414.45	3091.85
414.64	3089.51
414.83	3126.96
415.02	3258.03
415.22	3236.96
415.41	3344.63
415.60	3265.05
415.79	3346.97
415.98	3335.26
416.17	3363.35
416.36	3379.73
416.55	3382.07
416.74	3356.33
416.93	3375.05
417.12	3426.54
417.31	3449.95
417.50	3545.91
417.69	3627.83
417.88	3648.90
418.07	3613.79
418.26	3576.34
418.45	3719.11
418.64	3754.22
418.83	3847.84
419.02	3768.26
419.21	3721.45
419.39	3850.18
419.58	3616.13
419.77	3723.79
419.96	3784.65
420.15	3765.92
420.34	3885.29
420.53	3875.93
420.72	3962.53
420.91	4093.60
421.10	4028.06
421.29	4147.43
421.48	4060.83
421.67	4021.04
421.86	4044.45
422.05	3948.48
422.24	3913.38
422.43	3871.25
422.61	4109.98
422.80	4046.79
422.99	4053.81
423.18	4063.17
423.37	4264.46
423.56	3997.64
423.75	4088.92
423.94	4105.30
424.13	3988.27
424.32	3908.69
424.50	4114.66
424.69	4322.97
424.88	4250.41
425.07	4107.64
425.26	4046.79
425.45	4201.26
425.64	4215.30
425.83	4147.43
426.01	4025.72
426.20	4227.01
426.39	4159.13
426.58	4189.56
426.77	4215.30
426.96	4039.76
427.15	4212.96
427.33	4187.22
427.52	4234.03
427.71	4360.42
427.90	4271.48
428.09	4271.48
428.28	4313.61
428.46	4297.22
428.65	4348.72
428.84	4477.44
429.03	4379.14
429.22	4322.97
429.40	4421.27
429.59	4208.28
429.78	4124.02
429.97	4032.74
430.16	4145.09
430.34	4231.69
430.53	4278.50
430.72	4367.44
430.91	4390.84
431.10	4629.58
431.28	4550.00
431.47	4903.42
431.66	4903.42
431.85	4643.62
432.03	4828.53
432.22	4882.36
432.41	4784.06
432.60	4842.57
432.79	4975.98
432.97	5008.75
433.16	4922.15
433.35	4760.65
433.54	4971.30
433.72	4580.43
433.91	4849.59
434.10	5104.71
434.28	4999.38
434.47	5118.75
434.66	5266.21
434.85	5137.48
435.03	5165.56
435.22	5228.76
435.41	5282.59
435.59	5259.18
435.78	5170.24
435.97	5399.62
436.16	5231.10
436.34	5324.72
436.53	5387.91
436.72	5465.15
436.90	5200.67
437.09	5481.53
437.28	5394.93
437.46	5205.35
437.65	5397.28
437.84	5460.47
438.02	5317.70
438.21	5383.23
438.40	5338.76
438.58	5593.88
438.77	5643.03
438.96	5659.42
439.14	5783.46
439.33	5930.92
439.52	5820.91
439.70	6146.25
439.89	5914.53
440.08	5963.68
440.26	6087.73
440.45	5888.79
440.63	6197.74
440.82	6239.87
441.01	6197.74
441.19	6324.13
441.38	6342.85
441.57	6389.66
441.75	6583.93
441.94	6513.71
442.12	6504.35
442.31	6705.63
442.50	6471.58
442.68	6581.59
442.87	6537.12
443.05	6635.42
443.24	6710.32
443.43	6590.95
443.61	6637.76
443.80	6722.02
443.98	6623.72
444.17	6438.81
444.35	6785.21
444.54	6951.39
444.73	6747.76
444.91	6715.00
445.10	6869.47
445.28	6787.55
445.47	6546.48
445.65	6689.25
445.84	6654.14
446.02	6722.02
446.21	6771.17
446.39	6892.88
446.58	6869.47
446.77	6923.30
446.95	6789.89
447.14	7030.97
447.32	7061.40
447.51	6986.50
447.69	7019.27
447.88	7016.93
448.06	7178.42
448.25	7080.12
448.43	7178.42
448.62	6801.60
448.80	7089.48
448.99	7016.93
449.17	7171.40
449.36	7070.76
449.54	7311.83
449.73	7377.37
449.91	7541.21
450.10	7585.68
450.28	7662.91
450.46	7456.95
450.65	7569.29
450.83	7611.42
451.02	7681.64
451.20	7576.31
451.39	7588.02
451.57	7541.21
451.76	7700.36
451.94	7651.21
452.13	7513.12
452.31	7599.72
452.49	7559.93
452.68	7456.95
452.86	7590.36
453.05	7719.09
453.23	7730.79
453.42	7777.60
453.60	7618.44
453.78	7744.83
453.97	7679.30
454.15	7817.39
454.34	7857.18
454.52	7833.77
454.70	7705.04
454.89	7871.22
455.07	7911.01
455.26	8037.40
455.44	8093.57
455.62	8236.35
455.81	8021.02
455.99	8301.88
456.17	8126.34
456.36	8245.71
456.54	8327.63
456.73	8444.65
456.91	8472.74
457.09	8449.33
457.28	8652.96
457.46	8425.93
457.64	8571.04
457.83	8425.93
458.01	8245.71
458.19	8564.02
458.38	8468.06
458.56	8737.22
458.74	8465.72
458.93	8578.06
459.11	8648.28
459.29	8765.31
459.48	8769.99
459.66	8592.11
459.84	8650.62
460.03	9027.45
460.21	8830.84
460.39	8809.78
460.57	8879.99
460.76	8769.99
460.94	8985.32
461.12	8917.44
461.31	8990.00
461.49	8851.91
461.67	8800.41
461.85	9116.39
462.04	9188.94
462.22	9441.72
462.40	9064.89
462.59	9343.42
462.77	9210.01
462.95	9329.38
463.13	9198.31
463.32	9329.38
463.50	9453.42
463.68	9298.95
463.86	9287.25
464.05	9383.21
464.23	9273.20
464.41	9156.18
464.59	9191.28
464.78	9720.24
464.96	9329.38
465.14	9214.69
465.32	9537.68
465.50	9657.05
465.69	9624.28
465.87	9544.70
466.05	9502.58
466.23	9565.77
466.41	9706.20
466.60	9933.23
466.78	9811.53
466.96	9568.11
467.14	9624.28
467.32	9619.60
467.51	9951.96
467.69	9540.02
467.87	9813.87
468.05	10038.56
468.23	9916.85
468.41	9813.87
468.60	9947.28
468.78	10148.56
468.96	9907.49
469.14	10099.41
469.32	10289.00
469.50	9783.44
469.69	10221.12
469.87	10265.59
470.05	10321.76
470.23	9848.97
470.41	10216.44
470.59	10347.51
470.77	10193.03
470.95	10466.88
471.14	10616.67
471.32	10214.10
471.50	10860.09
471.68	10878.81
471.86	10768.80
472.04	10712.63
472.22	10923.28
472.40	10621.35
472.58	10745.40
472.77	11061.37
472.95	11023.92
473.13	11337.56
473.31	10963.07
473.49	11117.54
473.67	10841.36
473.85	11185.42
474.03	11384.37
474.21	11213.51
474.39	11690.98
474.57	11386.71
474.75	11763.53
474.93	11459.26
475.12	11503.73
475.30	11735.45
475.48	11585.65
475.66	11815.02
475.84	11730.76
476.02	11761.19
476.20	12084.19
476.38	11969.50
476.56	12196.53
476.74	12395.48
476.92	12119.29
477.10	12175.47
477.28	12702.09
477.46	12582.72
477.64	13050.83
477.82	12943.16
478.00	12985.29
478.18	13090.62
478.36	12908.05
478.54	13252.11
478.72	13254.45
478.90	13617.24
479.08	13507.23
479.26	13830.23
479.44	13570.43
479.62	13799.80
479.80	13813.84
479.98	13907.46
480.16	14122.79
480.34	13973.00
480.52	14267.91
480.70	14497.28
480.88	14361.53
481.06	14300.67
481.24	14633.03
481.41	14862.40
481.59	15108.16
481.77	15201.78
481.95	15016.88
482.13	15068.37
482.31	15164.33
482.49	15276.68
482.67	15466.26
482.85	15592.65
483.03	15644.14
483.21	15807.98
483.39	15988.20
483.57	15777.55
483.74	16114.59
483.92	16184.80
484.10	16025.65
484.28	16416.52
484.46	16585.04
484.64	17149.11
484.82	16809.73
485.00	16652.91
485.18	16814.41
485.35	17294.22
485.53	16837.81
485.71	16512.48
485.89	17116.34
486.07	16666.95
486.25	17153.79
486.43	17209.96
486.61	17743.60
486.78	17970.63
486.96	17909.78
487.14	18221.07
487.32	18534.70
487.50	18518.32
487.68	18714.92
487.85	19019.19
488.03	19171.33
488.21	19077.71
488.39	19218.14
488.57	19239.20
488.75	19342.19
488.92	19721.35
489.10	20070.09
489.28	20100.52
489.46	20355.64
489.64	20357.98
489.81	20709.06
489.99	21025.03
490.17	20652.89
490.35	21380.79
490.53	20798.00
490.70	21193.55
490.88	21109.29
491.06	21692.08
491.24	21350.37
491.41	21238.02
491.59	21322.28
491.77	21481.44
491.95	21771.66
492.13	22377.86
492.30	22663.41
492.48	22555.74
492.66	22647.02
492.84	22726.60
493.01	22773.41
493.19	22925.55
493.37	22977.04
493.54	23084.70
493.72	23367.91
493.90	23438.12
494.08	23681.54
494.25	23920.28
494.43	23924.96
494.61	24425.83
494.79	24306.46
494.96	24678.61
495.14	24425.83
495.32	24163.69
495.49	24737.12
495.67	24849.47
495.85	25172.46
496.02	25137.35
496.20	25095.22
496.38	25055.43
496.55	25333.96
496.73	25855.90
496.91	25860.58
497.09	26038.46
497.26	25876.96
497.44	26316.98
497.62	25834.83
497.79	25977.61
497.97	26015.05
498.14	26300.60
498.32	26387.20
498.50	26518.27
498.67	27372.57
498.85	26855.31
499.03	26852.97
499.20	27204.05
499.38	27742.37
499.56	27232.13
499.73	27133.83
499.91	27566.83
500.08	27749.39
500.26	27349.16
500.44	27967.06
500.61	27419.38
500.79	27569.17
500.97	27742.37
501.14	28121.54
501.32	28046.64
501.49	28177.71
501.67	28280.69
501.84	28425.81
502.02	28137.92
502.20	28297.08
502.37	28847.10
502.55	28540.49
502.72	28662.20
502.90	28982.85
503.07	29123.29
503.25	29127.97
503.43	28854.12
503.60	29350.32
503.78	28964.13
503.95	29195.84
504.13	29043.71
504.30	29677.99
504.48	29710.76
504.65	30221.00
504.83	29905.02
505.01	30110.99
505.18	30206.95
505.36	30436.33
505.53	30602.50
505.71	30476.12
505.88	30761.66
506.06	30595.48
506.23	30754.64
506.41	30527.61
506.58	30600.16
506.76	31054.23
506.93	31084.65
507.11	30888.05
507.28	31138.49
507.46	30787.41
507.63	31463.82
507.81	31047.21
507.98	31374.88
508.16	31494.25
508.33	31854.69
508.50	31819.58
508.68	31915.54
508.85	32039.59
509.03	32158.96
509.20	32123.85
509.38	31945.97
509.55	32364.93
509.73	32594.30
509.90	32357.91
510.08	32622.39
510.25	32425.78
510.42	32165.98
510.60	32774.52
510.77	32781.54
510.95	32952.40
511.12	32627.07
511.30	33200.50
511.47	33249.65
511.64	33287.10
511.82	33689.67
511.99	33031.98
512.17	33551.58
512.34	33141.99
512.51	33600.73
512.69	33614.77
512.86	33909.68
513.04	34160.12
513.21	33743.50
513.38	33661.58
513.56	33584.35
513.73	33806.70
513.90	34134.37
514.08	33855.85
514.25	34246.72
514.43	34319.28
514.60	34363.75
514.77	34698.44
514.95	34719.51
515.12	34286.51
515.29	34733.55
515.47	34529.92
515.64	35222.72
515.81	34597.80
515.99	35012.07
516.16	34366.09
516.33	34616.52
516.51	34597.80
516.68	34279.49
516.85	34576.73
517.03	34726.53
517.20	34881.00
517.37	35241.45
517.54	35578.48
517.72	34897.39
517.89	35299.96
518.06	35194.64
518.24	34951.22
518.41	35086.97
518.58	35641.68
518.75	35295.28
518.93	36044.25
519.10	35536.35
519.27	36072.34
519.45	36402.35
519.62	36446.82
519.79	36308.73
519.96	36395.33
520.14	36477.25
520.31	36041.91
520.48	36472.57
520.65	36613.00
520.83	37069.40
521.00	37317.50
521.17	36533.42
521.34	37064.72
521.52	37273.03
521.69	37364.31
521.86	37361.97
522.03	37614.75
522.20	37317.50
522.38	37549.21
522.55	36856.42
522.72	37579.64
522.89	37642.84
523.07	37745.82
523.24	37860.51
523.41	38101.58
523.58	37958.81
523.75	38663.31
523.92	38553.30
524.10	38494.79
524.27	38316.91
524.44	38293.50
524.61	38778.00
524.78	38616.50
524.96	38539.26
525.13	38719.48
525.30	39103.33
525.47	38927.79
525.64	38796.72
525.81	38925.45
525.98	38550.96
526.16	38366.06
526.33	38345.00
526.50	38660.97
526.67	38188.18
526.84	38227.97
527.01	38866.94
527.18	38838.85
527.36	39466.11
527.53	39428.66
527.70	39335.04
527.87	39517.60
528.04	39646.33
528.21	39641.65
528.38	39545.69
528.55	40231.47
528.72	39978.69
528.89	40088.70
529.07	40041.88
529.24	39950.60
529.41	40395.31
529.58	39957.63
529.75	40177.64
529.92	40245.51
530.09	40301.68
530.26	40561.48
530.43	40636.38
530.60	40299.34
530.77	40301.68
530.94	40816.60
531.11	40568.51
531.28	40711.28
531.46	40966.40
531.63	41006.19
531.80	40479.57
531.97	40355.52
532.14	40601.27
532.31	40023.16
532.48	40940.65
532.65	40893.84
532.82	40924.27
532.99	40832.99
533.16	40612.98
533.33	41284.71
533.50	41041.29
533.67	41127.89
533.84	41003.85
534.01	41233.22
534.18	41457.91
534.35	41741.11
534.52	41200.45
534.69	41523.44
534.86	41495.36
535.03	41322.16
535.20	41834.74
535.37	42319.23
535.54	42213.90
535.71	41750.48
535.88	41832.39
536.05	41593.66
536.22	41708.35
536.38	41368.97
536.55	41834.74
536.72	41825.37
536.89	41462.59
537.06	41830.05
537.23	42293.48
537.40	41865.16
537.57	42412.85
537.74	42555.62
537.91	42476.04
538.08	42085.17
538.25	42534.56
538.42	42291.14
538.59	42742.86
538.75	41780.90
538.92	42412.85
539.09	42628.18
539.26	42600.09
539.43	42459.66
539.60	42794.36
539.77	42230.29
539.94	42586.05
540.11	42096.88
540.28	42726.48
540.44	42473.70
540.61	42997.98
540.78	42293.48
540.95	42253.69
541.12	42738.18
541.29	42895.00
541.46	43143.09
541.62	42920.74
541.79	43508.22
541.96	42593.07
542.13	43339.70
542.30	42822.44
542.47	43257.78
542.63	43047.13
542.80	43360.76
542.97	43915.47
543.14	44013.77
543.31	43903.77
543.48	43875.68
543.64	44456.14
543.81	44053.56
543.98	43985.69
544.15	44053.56
544.32	43938.88
544.48	44584.86
544.65	44172.93
544.82	44100.37
544.99	44081.65
545.16	44013.77
545.32	44154.21
545.49	44264.21
545.66	44198.68
545.83	43995.05
546.00	44208.04
546.16	44458.48
546.33	44102.71
546.50	43777.38
546.67	44186.97
546.83	43908.45
547.00	44196.34
547.17	44334.43
547.34	44250.17
547.50	44458.48
547.67	44172.93
547.84	44739.34
548.00	44774.45
548.17	44987.44
548.34	45003.82
548.51	45134.89
548.67	44479.54
548.84	45158.30
549.01	44587.21
549.18	44708.91
549.34	44706.57
549.51	44575.50
549.68	44856.37
549.84	44903.18
550.01	45106.80
550.18	44971.05
550.34	45090.42
550.51	45104.46
550.68	45071.70
550.84	44772.11
551.01	45462.57
551.18	45130.21
551.34	45387.67
551.51	45654.49
551.68	45380.65
551.84	44828.28
552.01	44783.81
552.18	45020.20
552.34	45249.58
552.51	45385.33
552.68	45485.97
552.84	45359.58
553.01	45532.78
553.18	45713.00
553.34	44980.42
553.51	45354.90
553.67	45755.13
553.84	45827.69
554.01	46120.26
554.17	45696.62
554.34	45780.88
554.51	46101.53
554.67	46408.14
554.84	45666.19
555.00	45769.18
555.17	45373.63
555.33	46033.66
555.50	45614.70
555.67	45500.01
555.83	45689.60
556.00	45904.93
556.16	46483.04
556.33	45867.48
556.50	46153.02
556.66	46143.66
556.83	45750.45
556.99	45844.07
557.16	46106.21
557.32	46171.75
557.49	46148.34
557.65	46174.09
557.82	45687.26
557.98	46164.73
558.15	46263.03
558.32	46347.29
558.48	45792.58
558.65	45610.02
558.81	46059.40
558.98	45748.11
559.14	46012.59
559.31	46113.23
559.47	46305.16
559.64	46293.46
559.80	46188.13
559.97	46106.21
560.13	46300.48
560.30	46288.77
560.46	46518.15
560.63	46082.81
560.79	46801.35
560.96	46703.05
561.12	46284.09
561.29	46593.04
561.45	46326.22
561.61	46480.70
561.78	46396.44
561.94	45832.37
562.11	46028.98
562.27	46108.55
562.44	46536.87
562.60	46649.22
562.77	46454.95
562.93	45977.48
563.10	46504.10
563.26	46197.49
563.42	46494.74
563.59	46344.95
563.75	46391.76
563.92	46403.46
564.08	46644.54
564.24	46649.22
564.41	46632.83
564.57	46761.56
564.74	46595.38
564.90	46443.25
565.07	46796.67
565.23	46681.98
565.39	46529.85
565.56	46595.38
565.72	46288.77
565.88	46677.30
566.05	46663.26
566.21	46073.45
566.38	46810.71
566.54	46476.02
566.70	46857.52
566.87	47126.69
567.03	46742.84
567.19	47248.39
567.36	46906.68
567.52	46843.48
567.68	46550.91
567.85	46337.93
568.01	46660.92
568.17	46590.70
568.34	46876.25
568.50	47009.66
568.66	47054.13
568.83	46803.69
568.99	46478.36
569.15	46450.27
569.32	46508.79
569.48	46740.50
569.64	46752.20
569.81	46644.54
569.97	46347.29
570.13	46850.50
570.30	46492.40
570.46	46490.06
570.62	46150.68
570.78	46532.19
570.95	46300.48
571.11	46883.27
571.27	46508.79
571.43	46511.13
571.60	46726.46
571.76	46944.12
571.92	47077.54
572.09	46880.93
572.25	46515.81
572.41	47150.09
572.57	47229.67
572.74	47004.98
572.90	46930.08
573.06	47222.65
573.22	47070.51
573.38	47077.54
573.55	46794.33
573.71	47079.88
573.87	47388.83
574.03	46904.34
574.20	47180.52
574.36	47180.52
574.52	46733.48
574.68	47311.59
574.84	47199.24
575.01	47072.85
575.17	47131.37
575.33	46394.10
575.49	46803.69
575.65	46784.97
575.82	47203.92
575.98	46986.25
576.14	46848.16
576.30	47075.19
576.46	46878.59
576.62	46625.81
576.79	47117.32
576.95	46831.78
577.11	47063.49
577.27	46866.89
577.43	46707.73
577.59	46909.02
577.75	46894.97
577.92	46628.15
578.08	46450.27
578.24	46461.97
578.40	46871.57
578.56	47002.64
578.72	46972.21
578.88	47222.65
579.04	46754.54
579.21	46796.67
579.37	47309.25
579.53	46986.25
579.69	46780.29
579.85	46756.88
580.01	47306.91
580.17	46916.04
580.33	47229.67
580.49	47208.61
580.65	47023.70
580.82	47100.94
580.98	46777.95
581.14	46649.22
581.30	47164.14
581.46	46775.61
581.62	47571.39
581.78	46974.55
581.94	46850.50
582.10	47290.52
582.26	47152.43
582.42	46953.49
582.58	46852.84
582.74	47126.69
582.90	46836.46
583.06	47103.28
583.22	47119.66
583.38	47213.29
583.54	47267.12
583.70	47171.16
583.86	47065.83
584.02	47072.85
584.18	47351.38
584.34	47100.94
584.50	46939.44
584.66	46700.71
584.82	46906.68
584.98	47580.75
585.14	47026.04
585.30	47012.00
585.46	46909.02
585.62	46581.34
585.78	47168.82
585.94	46883.27
586.10	47047.11
586.26	46880.93
586.42	46820.08
586.58	47009.66
586.74	47349.04
586.90	47091.58
587.06	47196.90
587.22	47330.31
587.38	47178.18
587.54	46995.62
587.70	47269.46
587.86	46770.93
588.02	47063.49
588.18	47428.62
588.34	47035.41
588.49	46681.98
588.65	46349.63
588.81	46146.00
588.97	46686.67
589.13	46731.14
589.29	46906.68
589.45	46508.79
589.61	46483.04
589.77	47161.79
589.93	46705.39
590.08	47461.38
590.24	47154.77
590.40	47398.19
590.56	47318.61
590.72	47192.22
590.88	46777.95
591.04	47702.46
591.20	47653.31
591.35	46848.16
591.51	47426.28
591.67	46852.84
591.83	46850.50
591.99	47051.79
592.15	47037.75
592.31	47309.25
592.46	47206.26
592.62	47140.73
592.78	47325.63
592.94	47435.64
593.10	47079.88
593.26	47367.76
593.41	47365.42
593.57	47063.49
593.73	47014.34
593.89	47236.69
594.05	47143.07
594.20	47131.37
594.36	46916.04
594.52	47056.47
594.68	47061.15
594.84	46993.28
594.99	46941.78
595.15	47182.86
595.31	47557.35
595.47	47224.99
595.62	47580.75
595.78	47054.13
595.94	47559.69
596.10	47325.63
596.25	47342.02
596.41	47421.59
596.57	46887.95
596.73	47334.99
596.88	47084.56
597.04	47194.56
597.20	47274.14
597.36	47414.57
597.51	47477.77
597.67	47091.58
597.83	47370.10
597.99	47515.22
598.14	47405.21
598.30	47555.00
598.46	46740.50
598.61	47494.15
598.77	46850.50
598.93	46906.68
599.09	47229.67
599.24	47702.46
599.40	47316.27
599.56	47096.26
599.71	47082.22
599.87	47140.73
600.03	47220.31
600.18	47224.99
600.34	47103.28
600.50	47033.07
600.65	47306.91
600.81	47402.87
600.97	47487.13
601.12	47316.27
601.28	47112.64
601.44	47152.43
601.59	47194.56
601.75	47004.98
601.91	46848.16
602.06	46937.10
602.22	47040.09
602.37	47454.36
602.53	47234.35
602.69	47487.13
602.84	46946.47
603.00	47075.19
603.16	47164.14
603.31	46967.53
603.47	47150.09
603.62	47220.31
603.78	47803.10
603.94	47079.88
604.09	47653.31
604.25	47255.42
604.40	46838.80
604.56	46679.64
604.71	47171.16
604.87	47430.96
605.03	47084.56
605.18	47124.35
605.34	46962.85
605.49	46651.56
605.65	46997.96
605.80	47014.34
605.96	47100.94
606.12	46813.05
606.27	47042.43
606.43	46944.12
606.58	47035.41
606.74	47026.04
606.89	46960.51
607.05	46857.52
607.20	47281.16
607.36	47122.01
607.51	47093.92
607.67	47100.94
607.82	46972.21
607.98	46674.96
608.13	46527.51
608.29	46415.16
608.44	46487.72
608.60	46656.24
608.75	46787.31
608.91	46710.07
609.06	46597.73
609.22	46677.30
609.37	46880.93
609.53	46941.78
609.68	46518.15
609.84	46712.41
609.99	46433.89
610.15	46244.30
610.30	46595.38
610.46	45872.16
610.61	46241.96
610.76	46586.02
610.92	46571.98
611.07	46799.01
611.23	46459.63
611.38	46143.66
611.54	46398.78
611.69	45902.59
611.84	45654.49
612.00	45979.82
612.15	45989.19
612.31	46665.60
612.46	46078.13
612.62	46447.93
612.77	45933.01
612.92	46087.49
613.08	46178.77
613.23	46220.90
613.39	46291.12
613.54	45717.68
613.69	45993.87
613.85	46045.36
614.00	46160.05
614.15	45982.16
614.31	46164.73
614.46	46504.10
614.62	46492.40
614.77	46038.34
614.92	45448.52
615.08	45219.15
615.23	45855.78
615.38	45741.09
615.54	45647.47
615.69	45935.35
615.84	45432.14
616.00	45642.79
616.15	45495.33
616.30	45881.52
616.46	45329.16
616.61	45595.98
616.76	45837.05
616.92	45294.05
617.07	45298.73
617.22	45734.07
617.37	45626.40
617.53	45495.33
617.68	45991.53
617.83	45724.71
617.99	45298.73
618.14	45682.58
618.29	45177.02
618.45	45216.81
618.60	45270.64
618.75	44643.38
618.90	45277.66
619.06	44882.11
619.21	45521.08
619.36	45546.82
619.51	45258.94
619.67	44893.82
619.82	45130.21
619.97	44992.12
620.12	44889.13
620.28	44662.10
620.43	45085.74
620.58	45092.76
620.73	45340.86
620.89	44975.73
621.04	44893.82
621.19	44839.98
621.34	45104.46
621.49	44949.99
621.65	44732.32
621.80	45038.93
621.95	44917.22
622.10	44655.08
622.25	44442.09
622.41	44516.99
622.56	44463.16
622.71	44804.88
622.86	44734.66
623.01	44619.97
623.16	44711.25
623.32	44378.90
623.47	44626.99
623.62	45010.84
623.77	44556.78
623.92	44715.93
624.07	44020.80
624.23	44004.41
624.38	44481.88
624.53	44388.26
624.68	44048.88
624.83	44605.93
624.98	44030.16
625.13	43662.69
625.29	44289.96
625.44	43927.17
625.59	43250.76
625.74	43828.87
625.89	43737.59
626.04	43421.62
626.19	44306.34
626.34	44076.97
626.49	43931.86
626.65	43803.13
626.80	43952.92
626.95	43964.62
627.10	43849.94
627.25	43267.14
627.40	43335.02
627.55	43175.86
627.70	43243.74
627.85	43349.06
628.00	43438.00
628.15	43690.78
628.30	43466.09
628.45	44025.48
628.60	43285.87
628.76	43356.08
628.91	43175.86
629.06	43564.39
629.21	43304.59
629.36	42909.04
629.51	43363.11
629.66	43063.52
629.81	43489.49
629.96	43386.51
630.11	43159.48
630.26	43856.96
630.41	43129.05
630.56	43246.08
630.71	43227.35
630.86	43100.97
631.01	42972.24
631.16	43189.91
631.31	42349.65
631.46	42103.90
631.61	42436.25
631.76	42625.84
631.91	42911.38
632.06	43157.14
632.21	42927.77
632.36	42375.40
632.51	42038.36
632.66	42473.70
632.81	42724.14
632.96	42770.95
633.10	42621.16
633.25	43005.00
633.40	42485.40
633.55	42686.69
633.70	42445.62
633.85	42134.32
634.00	42408.17
634.15	42373.06
634.30	42284.12
634.45	41958.78
634.60	42232.63
634.75	42143.69
634.90	42054.75
635.05	42359.02
635.19	42021.98
635.34	42417.53
635.49	42129.64
635.64	42494.77
635.79	41883.89
635.94	41958.78
636.09	42274.76
636.24	42366.04
636.39	41373.65
636.53	41860.48
636.68	42014.96
636.83	41682.60
636.98	42298.16
637.13	41617.07
637.28	41804.31
637.43	42045.38
637.57	42274.76
637.72	41591.32
637.87	41872.18
638.02	42096.88
638.17	42057.09
638.32	41661.54
638.46	42057.09
638.61	41429.82
638.76	41539.83
638.91	41930.70
639.06	41371.31
639.20	41930.70
639.35	41773.88
639.50	41954.10
639.65	41628.77
639.80	41706.01
639.94	41450.89
640.09	41202.79
640.24	41074.06
640.39	41113.85
640.54	41230.88
640.68	40755.75
640.83	40999.16
640.98	41200.45
641.13	40797.88
641.27	41340.88
641.42	40978.10
641.57	40762.77
641.72	41109.17
641.86	40678.51
642.01	40680.85
642.16	40722.98
642.31	40418.71
642.45	40830.65
642.60	40533.40
642.75	40814.26
642.90	40435.10
643.04	40662.13
643.19	40898.52
643.34	40589.57
643.48	40378.92
643.63	40458.50
643.78	40701.92
643.93	40524.04
644.07	40893.84
644.22	40060.61
644.37	40526.38
644.51	40315.73
644.66	40615.32
644.81	40280.62
644.95	40444.46
645.10	40540.42
645.25	40521.69
645.39	40268.92
645.54	40229.13
645.69	40170.61
645.83	40126.14
645.98	40245.51
646.13	40041.88
646.27	40079.33
646.42	39861.66
646.57	40046.57
646.71	39861.66
646.86	40095.72
647.00	39938.90
647.15	40201.04
647.30	39913.16
647.44	39400.58
647.59	40191.68
647.74	39744.64
647.88	39824.22
648.03	39491.86
648.17	39784.43
648.32	39416.96
648.47	39150.14
648.61	39599.52
648.76	39927.20
648.90	39920.18
649.05	39079.92
649.20	39604.20
649.34	39707.19
649.49	39248.44
649.63	39653.36
649.78	39854.64
649.92	39629.95
650.07	39899.11
650.21	39395.90
650.36	40062.95
650.51	39409.94
650.65	40158.91
650.80	40151.89
650.94	39704.85
651.09	39772.72
651.23	39203.97
651.38	39232.06
651.52	38693.74
651.67	39131.42
651.81	39416.96
651.96	39468.45
652.10	38946.51
652.25	38960.56
652.39	39442.71
652.54	39072.90
652.68	38880.98
652.83	38890.34
652.97	39061.20
653.12	38960.56
653.26	38373.08
653.41	39044.82
653.55	38424.57
653.70	38707.78
653.84	38806.08
653.99	38586.07
654.13	38794.38
654.27	38602.46
654.42	38464.36
654.56	38347.34
654.71	38794.38
654.85	38459.68
655.00	38562.67
655.14	38684.37
655.29	38087.54
655.43	38199.88
655.57	37998.60
655.72	37841.78
655.86	37635.81
656.01	37778.59
656.15	37464.96
656.30	38078.18
656.44	37610.07
656.58	37860.51
656.73	37914.34
656.87	37649.86
657.01	37729.44
657.16	38436.28
657.30	37841.78
657.45	37450.91
657.59	37982.21
657.73	37890.93
657.88	38059.45
658.02	37717.73
658.16	38195.20
658.31	38094.56
658.45	37958.81
658.60	38117.96
658.74	37874.55
658.88	37439.21
659.03	37495.38
659.17	37600.71
659.31	37324.52
659.46	37261.33
659.60	37535.17
659.74	37687.31
659.89	37633.47
660.03	37188.77
660.17	37174.73
660.32	37378.36
660.46	37598.37
660.60	36912.59
660.74	37230.90
660.89	37280.05
661.03	36580.23
661.17	36952.38
661.32	36622.36
661.46	36891.52
661.60	36591.94
661.74	36959.40
661.89	36573.21
662.03	36723.01
662.17	36704.28
662.31	36840.03
662.46	36758.11
662.60	36720.66
662.74	36465.55
662.88	36229.15
663.03	36058.29
663.17	36318.09
663.31	36222.13
663.45	36437.46
663.60	36098.08
663.74	36369.58
663.88	36236.17
664.02	36180.00
664.17	36215.11
664.31	35810.20
664.45	35697.85
664.59	35735.30
664.73	35739.98
664.88	35653.38
665.02	35517.63
665.16	35777.43
665.30	35484.86
665.44	35615.93
665.59	35311.66
665.73	35583.16
665.87	35180.59
666.01	35321.02
666.15	35447.41
666.29	35037.82
666.44	35409.96
666.58	35215.70
666.72	34988.67
666.86	34911.43
667.00	34773.34
667.14	34438.64
667.28	34927.81
667.43	34494.82
667.57	34752.27
667.71	34927.81
667.85	34705.46
667.99	35051.86
668.13	35204.00
668.27	35063.57
668.41	34494.82
668.56	34253.74
668.70	34195.23
668.84	34150.76
668.98	33897.98
669.12	34129.69
669.26	33682.65
669.40	34054.79
669.54	33972.88
669.68	33713.08
669.82	33975.22
669.96	33490.73
670.10	33603.07
670.25	33816.06
670.39	33542.22
670.53	33362.00
670.67	33095.18
670.81	33228.59
670.95	33432.21
671.09	33317.53
671.23	33385.40
671.37	33120.92
671.51	32804.95
671.65	32811.97
671.79	33010.92
671.93	32704.31
672.07	33263.69
672.21	33001.55
672.35	32865.80
672.49	33291.78
672.63	32900.91
672.77	32868.14
672.91	32746.44
673.05	32587.28
673.19	32400.04
673.33	32573.24
673.47	31960.02
673.61	31812.56
673.75	31814.90
673.89	31796.18
674.03	31842.99
674.17	31791.50
674.31	31960.02
674.45	31831.29
674.59	31716.60
674.73	31791.50
674.87	31723.62
675.01	31541.06
675.15	31732.98
675.29	31234.45
675.43	31494.25
675.56	31026.14
675.70	30909.11
675.84	31136.15
675.98	30169.51
676.12	30845.92
676.26	30572.08
676.40	30986.35
676.54	30988.69
676.68	31096.36
676.82	30363.77
676.96	30270.15
677.10	30286.53
677.23	29919.07
677.37	30169.51
677.51	30143.76
677.65	29855.87
677.79	29390.11
677.93	29596.07
678.07	29427.56
678.21	29106.90
678.34	29301.17
678.48	29284.78
678.62	28680.92
678.76	28648.16
678.90	28744.12
679.04	28767.52
679.18	28945.41
679.31	29149.03
679.45	28589.64
679.59	28811.99
679.73	28577.94
679.87	28694.97
680.00	28268.99
680.14	28341.55
680.28	28283.03
680.42	27983.44
680.56	28095.79
680.70	28156.64
680.83	28088.77
680.97	28020.89
681.11	27756.41
681.25	27520.02
681.39	27618.32
681.52	27463.85
681.66	27419.38
681.80	27335.12
681.94	27222.77
682.07	27035.53
682.21	26885.73
682.35	27019.14
682.49	27414.69
682.62	26703.17
682.76	26796.79
682.90	26342.73
683.04	26431.67
683.17	26387.20
683.31	26146.12
683.45	26370.82
683.59	26059.52
683.72	26059.52
683.86	26038.46
684.00	26272.51
684.13	25647.59
684.27	25614.82
684.41	25336.30
684.55	25553.97
684.68	25696.74
684.82	25223.95
684.96	25263.74
685.09	25277.79
685.23	25118.63
685.37	24989.90
685.50	25036.71
685.64	25001.60
685.78	25097.56
685.91	24641.16
686.05	24383.70
686.19	24596.69
686.32	24496.05
686.46	23606.64
686.60	23957.72
686.73	23590.26
686.87	23264.92
687.01	23199.39
687.14	23400.68
687.28	23068.32
687.42	23885.17
687.55	23309.40
687.69	23445.15
687.82	23117.47
687.96	23269.61
688.10	23419.40
688.23	22628.30
688.37	22852.99
688.50	22787.46
688.64	22698.52
688.78	22705.54
688.91	22520.63
689.05	22661.07
689.18	22427.01
689.32	21652.30
689.46	22441.06
689.59	22532.34
689.73	22576.81
689.86	22087.64
690.00	22054.87
690.13	22150.83
690.27	21848.90
690.41	21589.10
690.54	21294.19
690.68	21371.43
690.81	21572.72
690.95	21706.13
691.08	21448.67
691.22	21298.88
691.35	21394.84
691.49	21467.39
691.62	21551.65
691.76	21322.28
691.89	20987.58
692.03	20994.61
692.16	20652.89
692.30	20627.14
692.43	20657.57
692.57	20514.80
692.70	20404.79
692.84	20386.07
692.97	20304.15
693.11	20243.29
693.24	20018.60
693.38	19688.59
693.51	19913.28
693.65	20147.33
693.78	19784.55
693.92	19679.22
694.05	19843.06
694.19	19618.37
694.32	19559.86
694.45	19520.07
694.59	19215.80
694.72	19295.38
694.86	18974.72
694.99	19204.10
695.13	18981.74
695.26	19058.98
695.39	18984.09
695.53	18920.89
695.66	18904.51
695.80	18998.13
695.93	18775.78
696.07	18286.61
696.20	18616.62
696.33	18703.22
696.47	18443.42
696.60	18246.82
696.73	18054.89
696.87	18150.85
697.00	17991.70
697.14	17626.57
697.27	17757.64
697.40	17827.86
697.54	17572.74
697.67	17827.86
697.80	17317.62
697.94	17277.83
698.07	17338.69
698.21	17509.55
698.34	17170.17
698.47	17011.01
698.61	17046.12
698.74	16734.83
698.87	17128.04
699.01	16891.65
699.14	16484.39
699.27	16573.33
699.40	16507.80
699.54	16210.55
699.67	16641.21
699.80	16156.72
699.94	16187.14
700.07	16231.62
700.20	16133.31
700.34	16273.74
700.47	15997.56
700.60	16287.79
700.73	15985.86
700.87	16027.99
701.00	15838.41
701.13	15723.72
701.26	15829.04
701.40	15831.38
701.53	15391.36
701.66	15468.60
701.79	15463.92
701.93	15126.88
702.06	15096.46
702.19	15098.80
702.32	14895.17
702.46	15110.50
702.59	15152.63
702.72	15122.20
702.85	15183.06
702.99	14689.20
703.12	14710.27
703.25	14679.84
703.38	14773.46
703.51	14501.96
703.65	14506.64
703.78	14211.73
703.91	14300.67
704.04	14057.26
704.17	14471.53
704.31	14291.31
704.44	14298.33
704.57	13982.36
704.70	13870.01
704.83	14204.71
704.96	13851.29
705.10	13841.93
705.23	13734.26
>>>>>End Processed Spectral Data<<<<<
