SpectraSuite Data File
++++++++++++++++++++++++++++++++++++
Date: Fri Oct 25 10:43:40 EDT 2013
User: price-jones
Dark Spectrum Present: No
Reference Spectrum Present: No
Number of Sampled Component Spectra: 1
Spectrometers: USB2+H05261
Integration Time (usec): 100000 (USB2+H05261)
Spectra Averaged: 1 (USB2+H05261)
Boxcar Smoothing: 0 (USB2+H05261)
Correct for Electrical Dark: No (USB2+H05261)
Strobe/Lamp Enabled: No (USB2+H05261)
Correct for Detector Non-linearity: No (USB2+H05261)
Correct for Stray Light: No (USB2+H05261)
Number of Pixels in Processed Spectrum: 2048
>>>>>Begin Processed Spectral Data<<<<<
365.73	124.05
365.92	124.05
366.12	124.05
366.32	56.17
366.52	30.43
366.72	23.41
366.91	0.00
367.11	14.04
367.31	0.00
367.51	0.00
367.70	0.00
367.90	14.04
368.10	25.75
368.30	51.49
368.49	18.72
368.69	0.00
368.89	49.15
369.09	0.00
369.28	60.85
369.48	91.28
369.68	77.24
369.87	124.05
370.07	77.24
370.27	70.22
370.47	205.97
370.66	360.44
370.86	447.04
371.06	454.06
371.25	468.11
371.45	423.64
371.65	491.51
371.84	498.53
372.04	470.45
372.24	512.58
372.44	528.96
372.63	507.90
372.83	491.51
373.03	505.56
373.22	458.74
373.42	545.34
373.62	526.62
373.81	491.51
374.01	606.20
374.21	580.45
374.40	545.34
374.60	538.32
374.79	587.47
374.99	561.73
375.19	589.82
375.38	634.29
375.58	587.47
375.78	564.07
375.97	603.86
376.17	732.59
376.37	624.92
376.56	655.35
376.76	601.52
376.95	578.11
377.15	674.07
377.35	636.63
377.54	596.84
377.74	624.92
377.93	678.76
378.13	653.01
378.33	660.03
378.52	655.35
378.72	603.86
378.91	683.44
379.11	613.22
379.31	664.71
379.50	657.69
379.70	706.84
379.89	751.31
380.09	634.29
380.28	711.52
380.48	732.59
380.68	678.76
380.87	683.44
381.07	681.10
381.26	697.48
381.46	758.33
381.65	671.73
381.85	727.91
382.04	681.10
382.24	650.67
382.43	688.12
382.63	718.54
382.83	671.73
383.02	800.46
383.22	716.20
383.41	737.27
383.61	744.29
383.80	739.61
384.00	760.67
384.19	807.48
384.39	816.85
384.58	765.36
384.78	828.55
384.97	732.59
385.17	720.88
385.36	763.01
385.56	807.48
385.75	793.44
385.95	770.04
386.14	882.38
386.34	844.93
386.53	873.02
386.72	791.10
386.92	961.96
387.11	919.83
387.31	896.43
387.50	917.49
387.70	765.36
387.89	863.66
388.09	854.30
388.28	936.21
388.48	915.15
388.67	887.06
388.86	971.32
389.06	978.34
389.25	1036.86
389.45	978.34
389.64	994.73
389.84	931.53
390.03	1039.20
390.22	1069.62
390.42	983.02
390.61	1064.94
390.81	1078.99
391.00	1116.44
391.19	936.21
391.39	1043.88
391.58	1130.48
391.78	1022.81
391.97	1029.84
392.16	980.68
392.36	1043.88
392.55	1004.09
392.75	1036.86
392.94	978.34
393.13	1050.90
393.33	952.60
393.52	1034.52
393.71	1064.94
393.91	1128.14
394.10	1088.35
394.29	1151.54
394.49	1163.25
394.68	1254.53
394.88	1146.86
395.07	1303.68
395.26	1261.55
395.46	1289.64
395.65	1193.67
395.84	1193.67
396.04	1191.33
396.23	1170.27
396.42	1128.14
396.62	1200.69
396.81	1184.31
397.00	1313.04
397.19	1270.91
397.39	1317.72
397.58	1357.51
397.77	1385.60
397.97	1411.34
398.16	1399.64
398.35	1437.09
398.55	1458.15
398.74	1465.18
398.93	1533.05
399.12	1528.37
399.32	1528.37
399.51	1486.24
399.70	1488.58
399.90	1678.16
400.09	1636.03
400.28	1537.73
400.47	1605.61
400.67	1657.10
400.86	1612.63
401.05	1668.80
401.24	1666.46
401.44	1703.91
401.63	1734.34
401.82	1743.70
402.01	1769.44
402.21	1795.19
402.40	1820.94
402.59	1701.57
402.78	1827.96
402.97	1708.59
403.17	1748.38
403.36	1884.13
403.55	1811.57
403.74	1884.13
403.93	1774.13
404.13	1870.09
404.32	1823.28
404.51	1877.11
404.70	1905.20
404.89	1914.56
405.09	2069.03
405.28	2038.61
405.47	1989.46
405.66	1912.22
405.85	1991.80
406.05	1881.79
406.24	1884.13
406.43	1996.48
406.62	2085.42
406.81	2118.18
407.00	2073.71
407.20	2069.03
407.39	2050.31
407.58	2265.64
407.77	2186.06
407.96	2169.68
408.15	2303.09
408.34	2218.83
408.54	2169.68
408.73	2293.72
408.92	2303.09
409.11	2300.75
409.30	2293.72
409.49	2326.49
409.68	2251.60
409.87	2242.23
410.07	2424.80
410.26	2359.26
410.45	2417.77
410.64	2466.92
410.83	2520.76
411.02	2555.86
411.21	2656.51
411.40	2619.06
411.59	2619.06
411.78	2518.42
411.98	2544.16
412.17	2677.57
412.36	2661.19
412.55	2789.92
412.74	2869.50
412.93	2864.82
413.12	2785.24
413.31	2829.71
413.50	2827.37
413.69	2944.39
413.88	2963.12
414.07	3038.02
414.26	2981.84
414.45	2986.52
414.64	2970.14
414.83	3131.64
415.02	3042.70
415.22	3023.97
415.41	3138.66
415.60	3185.47
415.79	3283.77
415.98	3335.26
416.17	3361.01
416.36	3290.79
416.55	3241.64
416.74	3449.95
416.93	3335.26
417.12	3295.47
417.31	3508.46
417.50	3398.46
417.69	3557.61
417.88	3513.14
418.07	3454.63
418.26	3431.23
418.45	3527.19
418.64	3751.88
418.83	3705.07
419.02	3658.26
419.21	3651.24
419.39	3552.93
419.58	3543.57
419.77	3609.11
419.96	3716.77
420.15	3716.77
420.34	3684.00
420.53	4016.36
420.72	3915.72
420.91	3866.56
421.10	3847.84
421.29	4014.02
421.48	3803.37
421.67	3852.52
421.86	3840.82
422.05	3967.21
422.24	3845.50
422.43	3927.42
422.61	3981.25
422.80	3957.85
422.99	3955.51
423.18	3990.61
423.37	3969.55
423.56	3957.85
423.75	3983.59
423.94	4014.02
424.13	3714.43
424.32	3810.39
424.50	3974.23
424.69	4131.05
424.88	3981.25
425.07	4091.26
425.26	3894.65
425.45	4025.72
425.64	3997.64
425.83	3985.93
426.01	4217.65
426.20	4025.72
426.39	4046.79
426.58	4086.58
426.77	3990.61
426.96	4084.23
427.15	3955.51
427.33	4210.62
427.52	4222.33
427.71	4100.62
427.90	4301.90
428.09	4163.81
428.28	4191.90
428.46	4156.79
428.65	4255.09
428.84	4355.74
429.03	4327.65
429.22	4194.24
429.40	4320.63
429.59	4224.67
429.78	4042.11
429.97	3967.21
430.16	4021.04
430.34	4093.60
430.53	4117.00
430.72	4102.96
430.91	4269.14
431.10	4468.08
431.28	4620.22
431.47	4770.01
431.66	4678.73
431.85	4702.14
432.03	4692.77
432.22	4697.46
432.41	4652.98
432.60	4821.50
432.79	4709.16
432.97	4784.06
433.16	4833.21
433.35	4601.49
433.54	4681.07
433.72	4873.00
433.91	4961.94
434.10	4645.96
434.28	4753.63
434.47	4856.61
434.66	5071.94
434.85	5245.14
435.03	5083.64
435.22	4931.51
435.41	5085.98
435.59	5064.92
435.78	5139.82
435.97	5273.23
436.16	5256.84
436.34	5177.26
436.53	5238.12
436.72	5322.38
436.90	5121.09
437.09	5254.50
437.28	5144.50
437.46	5352.81
437.65	5181.95
437.84	5116.41
438.02	5179.61
438.21	5226.42
438.40	5284.93
438.58	5320.04
438.77	5579.84
438.96	5406.64
439.14	5621.97
439.33	5685.16
439.52	5706.23
439.70	5710.91
439.89	5776.44
440.08	5743.67
440.26	5713.25
440.45	5916.87
440.63	5891.13
440.82	6087.73
441.01	6001.13
441.19	6033.90
441.38	6188.38
441.57	6232.85
441.75	6047.94
441.94	6436.47
442.12	6450.52
442.31	6406.05
442.50	6497.33
442.68	6338.17
442.87	6284.34
443.05	6399.02
443.24	6607.33
443.43	6560.52
443.61	6551.16
443.80	6642.44
443.98	6457.54
444.17	6305.40
444.35	6483.28
444.54	6712.66
444.73	6441.15
444.91	6612.01
445.10	6548.82
445.28	6422.43
445.47	6303.06
445.65	6417.75
445.84	6621.38
446.02	6817.98
446.21	6722.02
446.39	6675.21
446.58	6703.29
446.77	6621.38
446.95	6724.36
447.14	6808.62
447.32	6780.53
447.51	6537.12
447.69	6775.85
447.88	6881.18
448.06	6726.70
448.25	6672.87
448.43	6855.43
448.62	6817.98
448.80	6906.92
448.99	6885.86
449.17	7005.22
449.36	6981.82
449.54	7138.63
449.73	7169.06
449.91	7159.70
450.10	7126.93
450.28	7262.68
450.46	7300.13
450.65	7335.24
450.83	7363.33
451.02	7297.79
451.20	7478.01
451.39	7283.75
451.57	7227.57
451.76	7185.44
451.94	7475.67
452.13	7370.35
452.31	7227.57
452.49	7157.36
452.68	7246.30
452.86	7145.66
453.05	7190.13
453.23	7492.05
453.42	7435.88
453.60	7421.84
453.78	7583.34
453.97	7281.41
454.15	7297.79
454.34	7421.84
454.52	7770.58
454.70	7503.76
454.89	7728.45
455.07	7709.72
455.26	7695.68
455.44	7882.92
455.62	7796.32
455.81	7740.15
455.99	7868.88
456.17	8002.29
456.36	7957.82
456.54	7887.61
456.73	7929.74
456.91	8273.79
457.09	8219.96
457.28	8446.99
457.46	8035.06
457.64	8421.25
457.83	8346.35
458.01	8187.19
458.19	8194.22
458.38	8318.26
458.56	8285.50
458.74	8271.45
458.93	8276.13
459.11	8266.77
459.29	8196.56
459.48	8545.30
459.66	8397.84
459.84	8491.46
460.03	8589.77
460.21	8561.68
460.39	8503.17
460.57	8667.00
460.76	8727.86
460.94	8865.95
461.12	8748.92
461.31	8479.76
461.49	8777.01
461.67	8734.88
461.85	8947.87
462.04	8800.41
462.22	9626.62
462.40	9060.21
462.59	8980.64
462.77	9027.45
462.95	8968.93
463.13	8814.46
463.32	9142.13
463.50	9100.00
463.68	8997.02
463.86	9109.36
464.05	9032.13
464.23	8940.85
464.41	9184.26
464.59	9015.74
464.78	9430.02
464.96	9308.31
465.14	8973.61
465.32	9184.26
465.50	9525.98
465.69	9399.59
465.87	9249.80
466.05	9366.82
466.23	9282.56
466.41	9259.16
466.60	9708.54
466.78	9289.59
466.96	9334.06
467.14	9369.16
467.32	9329.38
467.51	9715.56
467.69	9242.78
467.87	9514.28
468.05	9706.20
468.23	9497.89
468.41	9659.39
468.60	9467.47
468.78	9694.50
468.96	9584.49
469.14	9640.67
469.32	9729.61
469.50	9514.28
469.69	9839.61
469.87	9937.91
470.05	9867.70
470.23	9895.78
470.41	9930.89
470.59	10071.33
470.77	10029.20
470.95	10097.07
471.14	10061.96
471.32	9870.04
471.50	10628.37
471.68	10253.89
471.86	10429.43
472.04	10427.09
472.22	10530.07
472.40	10265.59
472.58	10373.25
472.77	10328.78
472.95	10663.48
473.13	10956.05
473.31	10698.59
473.49	10747.74
473.67	10644.76
473.85	10754.76
474.03	11213.51
474.21	11005.20
474.39	11171.38
474.57	11225.21
474.75	11108.18
474.93	11382.03
475.12	11211.17
475.30	11370.32
475.48	11534.16
475.66	11417.13
475.84	11428.84
476.02	11520.12
476.20	11599.70
476.38	11866.52
476.56	11749.49
476.74	12035.03
476.92	11992.90
477.10	12020.99
477.28	12336.96
477.46	12177.81
477.64	12451.65
477.82	12678.68
478.00	12947.84
478.18	12826.14
478.36	12643.57
478.54	12798.05
478.72	12774.64
478.90	12879.97
479.08	13137.43
479.26	13174.88
479.44	13018.06
479.62	13331.69
479.80	13509.57
479.98	13298.92
480.16	13968.32
480.34	13586.81
480.52	13900.44
480.70	14019.81
480.88	13673.41
481.06	14078.32
481.24	14104.07
481.41	14448.13
481.59	14679.84
481.77	14719.63
481.95	14548.77
482.13	14939.64
482.31	14747.72
482.49	15157.31
482.67	14967.73
482.85	15124.54
483.03	15337.53
483.21	15424.13
483.39	15571.58
483.57	15695.63
483.74	15534.14
483.92	15658.18
484.10	15833.72
484.28	16018.63
484.46	16304.17
484.64	16683.34
484.82	16177.78
485.00	16503.12
485.18	16411.84
485.35	16636.53
485.53	16325.24
485.71	16465.67
485.89	16456.31
486.07	16423.54
486.25	16723.13
486.43	16980.59
486.61	17188.89
486.78	17624.23
486.96	17429.97
487.14	17706.15
487.32	17769.35
487.50	18328.74
487.68	18684.50
487.85	18640.03
488.03	18698.54
488.21	18604.92
488.39	18792.16
488.57	19089.41
488.75	19040.26
488.92	19119.84
489.10	19620.71
489.28	19534.11
489.46	20044.35
489.64	19765.82
489.81	20439.90
489.99	20463.30
490.17	20367.34
490.35	20498.41
490.53	20240.95
490.70	20879.92
490.88	20627.14
491.06	20975.88
491.24	20844.81
491.41	20793.32
491.59	20886.94
491.77	20978.22
491.95	21074.18
492.13	21385.47
492.30	22106.36
492.48	22029.12
492.66	21949.54
492.84	22104.02
493.01	22403.61
493.19	22366.16
493.37	22401.27
493.54	22422.33
493.72	22972.36
493.90	22794.48
494.08	23285.99
494.25	23386.63
494.43	23227.48
494.61	23737.71
494.79	23733.03
494.96	23517.70
495.14	23889.85
495.32	23686.22
495.49	24044.32
495.67	23850.06
495.85	24219.86
496.02	24313.48
496.20	24580.31
496.38	24706.70
496.55	25062.46
496.73	25502.48
496.91	24865.85
497.09	25191.19
497.26	25455.67
497.44	25308.21
497.62	25254.38
497.79	25696.74
497.97	25303.53
498.14	26015.05
498.32	26150.81
498.50	26157.83
498.67	26326.35
498.85	26286.56
499.03	26466.78
499.20	26499.55
499.38	26735.94
499.56	26766.37
499.73	26815.52
499.91	26621.25
500.08	26895.10
500.26	26595.51
500.44	26696.15
500.61	27047.23
500.79	26794.45
500.97	27131.49
501.14	27517.68
501.32	27311.71
501.49	26892.76
501.67	27091.70
501.84	27566.83
502.02	27735.35
502.20	27438.10
502.37	28250.27
502.55	28107.49
502.72	28191.75
502.90	28254.95
503.07	27964.72
503.25	28437.51
503.43	28252.61
503.60	28554.54
503.78	28121.54
503.95	28535.81
504.13	28999.24
504.30	29067.11
504.48	28678.58
504.65	29256.70
504.83	29378.40
505.01	29326.91
505.18	29207.55
505.36	29757.57
505.53	29565.65
505.71	29563.31
505.88	30146.10
506.06	29535.22
506.23	30052.48
506.41	30230.36
506.58	30237.38
506.76	29977.58
506.93	30382.49
507.11	30136.74
507.28	30026.73
507.46	30288.87
507.63	30326.32
507.81	30347.39
507.98	30562.72
508.16	30717.19
508.33	30939.54
508.50	30890.39
508.68	31084.65
508.85	31372.54
509.03	31466.16
509.20	31297.64
509.38	31386.58
509.55	31297.64
509.73	31658.09
509.90	31601.91
510.08	31924.91
510.25	31421.69
510.42	31632.34
510.60	32325.14
510.77	32254.92
510.95	32243.22
511.12	31882.78
511.30	32610.68
511.47	32552.17
511.64	32456.21
511.82	32924.32
511.99	32521.74
512.17	32842.40
512.34	32666.86
512.51	32774.52
512.69	33146.67
512.86	32781.54
513.04	33060.07
513.21	33134.96
513.38	32851.76
513.56	33006.23
513.73	33088.15
513.90	33120.92
514.08	33137.30
514.25	33259.01
514.43	33684.99
514.60	33722.44
514.77	33193.48
514.95	33951.81
515.12	33530.51
515.29	33954.15
515.47	33734.14
515.64	34099.26
515.81	34511.20
515.99	34010.32
516.16	34113.31
516.33	33713.08
516.51	33731.80
516.68	33823.08
516.85	33488.38
517.03	33986.92
517.20	34192.89
517.37	34546.31
517.54	34366.09
517.72	34232.68
517.89	34206.93
518.06	34249.06
518.24	34148.42
518.41	34572.05
518.58	34974.63
518.75	34873.98
518.93	34995.69
519.10	34679.72
519.27	35009.73
519.45	35578.48
519.62	35651.04
519.79	35936.59
519.96	35388.90
520.14	35653.38
520.31	35871.05
520.48	35700.19
520.65	35611.25
520.83	35988.08
521.00	36367.24
521.17	36062.97
521.34	36027.87
521.52	36027.87
521.69	36620.02
521.86	37095.15
522.03	36858.76
522.20	36713.64
522.38	36643.43
522.55	36524.06
522.72	36781.52
522.89	36662.15
523.07	36678.54
523.24	36685.56
523.41	37380.70
523.58	37240.26
523.75	37574.96
523.92	37296.44
524.10	37565.60
524.27	37563.26
524.44	37738.80
524.61	37701.35
524.78	37827.74
524.96	37729.44
525.13	38005.62
525.30	37947.11
525.47	38136.69
525.64	37830.08
525.81	37741.14
525.98	37923.70
526.16	37500.06
526.33	37935.40
526.50	37542.19
526.67	37589.00
526.84	37888.59
527.01	37771.57
527.18	38272.44
527.36	38693.74
527.53	38094.56
527.70	38227.97
527.87	38569.69
528.04	38295.85
528.21	38768.63
528.38	39086.95
528.55	39409.94
528.72	39330.36
528.89	39304.62
529.07	39370.15
529.24	39075.24
529.41	39049.50
529.58	39061.20
529.75	39292.91
529.92	39044.82
530.09	39503.56
530.26	39613.57
530.43	39922.52
530.60	39246.10
530.77	39812.51
530.94	39878.05
531.11	39519.95
531.28	39578.46
531.46	40179.98
531.63	39859.32
531.80	39948.26
531.97	39761.02
532.14	39335.04
532.31	39136.10
532.48	39856.98
532.65	40219.77
532.82	39765.70
532.99	40222.11
533.16	39744.64
533.33	40446.80
533.50	40411.69
533.67	40121.46
533.84	40304.02
534.01	40591.91
534.18	40128.48
534.35	40886.82
534.52	40395.31
534.69	40676.17
534.86	40774.47
535.03	40423.39
535.20	41659.20
535.37	41483.66
535.54	40840.01
535.71	41076.40
535.88	40896.18
536.05	40641.06
536.22	41160.66
536.38	40840.01
536.55	40687.87
536.72	41015.55
536.89	40903.20
537.06	40947.67
537.23	41783.24
537.40	41308.11
537.57	41525.78
537.74	41397.06
537.91	41858.14
538.08	41375.99
538.25	41298.75
538.42	41244.92
538.59	41560.89
538.75	41322.16
538.92	41242.58
539.09	41661.54
539.26	41493.02
539.43	41350.24
539.60	41404.08
539.77	41713.03
539.94	41869.84
540.11	41551.53
540.28	41930.70
540.44	42153.05
540.61	41556.21
540.78	41570.25
540.95	41523.44
541.12	42003.25
541.29	42326.25
541.46	41504.72
541.62	42497.11
541.79	42351.99
541.96	41893.25
542.13	42167.09
542.30	42384.76
542.47	42293.48
542.63	42309.86
542.80	42639.88
542.97	42953.51
543.14	43054.15
543.31	43133.73
543.48	42909.04
543.64	43489.49
543.81	43381.83
543.98	43030.75
544.15	43278.85
544.32	43276.51
544.48	43356.08
544.65	43058.84
544.82	43164.16
544.99	42911.38
545.16	42862.23
545.32	43199.27
545.49	43711.84
545.66	43690.78
545.83	43297.57
546.00	43608.86
546.16	42972.24
546.33	42682.01
546.50	42990.96
546.67	43849.94
546.83	43246.08
547.00	43681.42
547.17	42997.98
547.34	43274.16
547.50	43255.44
547.67	43990.37
547.84	43536.30
548.00	44020.80
548.17	44289.96
548.34	43934.20
548.51	44170.59
548.67	44177.61
548.84	44219.74
549.01	43906.11
549.18	44086.33
549.34	43725.89
549.51	43962.28
549.68	44245.49
549.84	44465.50
550.01	44299.32
550.18	43690.78
550.34	44299.32
550.51	43903.77
550.68	44165.91
550.84	43934.20
551.01	44027.82
551.18	44163.57
551.34	44116.76
551.51	44608.27
551.68	44423.37
551.84	44421.03
552.01	44280.60
552.18	44502.95
552.34	44016.11
552.51	44603.59
552.68	44535.71
552.84	44737.00
553.01	45041.27
553.18	44577.84
553.34	44828.28
553.51	44575.50
553.67	45081.06
553.84	45408.73
554.01	45127.87
554.17	45134.89
554.34	45052.97
554.51	44877.43
554.67	45165.32
554.84	44921.90
555.00	44741.68
555.17	45106.80
555.33	45106.80
555.50	44442.09
555.67	45031.91
555.83	44987.44
556.00	44854.03
556.16	45565.55
556.33	45319.79
556.50	44837.64
556.66	45151.27
556.83	44980.42
556.99	44835.30
557.16	45354.90
557.32	45453.20
557.49	45434.48
557.65	45090.42
557.82	45322.13
557.98	45317.45
558.15	45418.10
558.32	45324.47
558.48	45284.68
558.65	44748.70
558.81	45076.38
558.98	45090.42
559.14	45102.12
559.31	45130.21
559.47	45170.00
559.64	45834.71
559.80	45612.36
559.97	45530.44
560.13	45055.31
560.30	45624.06
560.46	45511.72
560.63	45654.49
560.79	45947.06
560.96	45532.78
561.12	45277.66
561.29	45102.12
561.45	45432.14
561.61	45778.54
561.78	45797.26
561.94	45748.11
562.11	45134.89
562.27	45525.76
562.44	45933.01
562.60	45539.80
562.77	45762.15
562.93	45804.28
563.10	45984.51
563.26	45537.46
563.42	46054.72
563.59	45626.40
563.75	45483.63
563.92	45998.55
564.08	45624.06
564.24	46078.13
564.41	45801.94
564.57	46148.34
564.74	45729.39
564.90	45879.18
565.07	45954.08
565.23	45598.32
565.39	46188.13
565.56	45720.02
565.72	45441.50
565.88	46181.11
566.05	45659.17
566.21	45677.90
566.38	45865.14
566.54	45963.44
566.70	46241.96
566.87	46120.26
567.03	46403.46
567.19	46291.12
567.36	46614.11
567.52	45942.38
567.68	46012.59
567.85	45743.43
568.01	45972.80
568.17	46050.04
568.34	45626.40
568.50	46251.33
568.66	45876.84
568.83	45947.06
568.99	45759.81
569.15	45984.51
569.32	45787.90
569.48	45394.69
569.64	46354.31
569.81	45837.05
569.97	45858.12
570.13	46417.50
570.30	45436.82
570.46	45666.19
570.62	45471.93
570.78	45539.80
570.95	45979.82
571.11	45755.13
571.27	45984.51
571.43	46213.88
571.60	46469.00
571.76	46279.41
571.92	45890.88
572.09	46061.74
572.25	46265.37
572.41	46295.80
572.57	46417.50
572.74	46499.42
572.90	45893.22
573.06	46085.15
573.22	46358.99
573.38	46277.07
573.55	45731.73
573.71	46375.37
573.87	46555.60
574.03	46398.78
574.20	46106.21
574.36	46052.38
574.52	46529.85
574.68	46019.61
574.84	46218.56
575.01	46141.32
575.17	45879.18
575.33	46426.87
575.49	45947.06
575.65	46120.26
575.82	46461.97
575.98	46153.02
576.14	46513.47
576.30	46464.32
576.46	46384.74
576.62	46192.81
576.79	46286.43
576.95	45595.98
577.11	46272.39
577.27	46120.26
577.43	46043.02
577.59	46358.99
577.75	46508.79
577.92	45867.48
578.08	45827.69
578.24	45862.80
578.40	46092.17
578.56	46677.30
578.72	46426.87
578.88	46380.06
579.04	46445.59
579.21	46146.00
579.37	46043.02
579.53	46358.99
579.69	46204.52
579.85	46241.96
580.01	46473.68
580.17	46033.66
580.33	46330.90
580.49	46644.54
580.65	46171.75
580.82	46188.13
580.98	45970.46
581.14	45691.94
581.30	46511.13
581.46	46452.61
581.62	46597.73
581.78	46534.53
581.94	46766.24
582.10	46466.66
582.26	46689.01
582.42	46169.41
582.58	46146.00
582.74	46270.05
582.90	46721.77
583.06	46761.56
583.22	46433.89
583.38	46511.13
583.54	46850.50
583.70	46405.80
583.86	46487.72
584.02	46335.59
584.18	46384.74
584.34	46349.63
584.50	45853.44
584.66	46223.24
584.82	46302.82
584.98	46752.20
585.14	46354.31
585.30	46382.40
585.46	46773.27
585.62	45925.99
585.78	46307.50
585.94	46017.27
586.10	46476.02
586.26	46129.62
586.42	46618.79
586.58	46417.50
586.74	46466.66
586.90	46408.14
587.06	46138.98
587.22	46438.57
587.38	46410.48
587.54	46389.42
587.70	46522.83
587.86	46223.24
588.02	46513.47
588.18	46672.62
588.34	45935.35
588.49	45811.31
588.65	45581.93
588.81	46270.05
588.97	45940.04
589.13	45607.68
589.29	46092.17
589.45	46120.26
589.61	46110.89
589.77	46534.53
589.93	46483.04
590.08	46506.44
590.24	46574.32
590.40	46536.87
590.56	47168.82
590.72	46696.03
590.88	46689.01
591.04	46859.87
591.20	46927.74
591.35	46864.55
591.51	46918.38
591.67	46354.31
591.83	46447.93
591.99	46424.53
592.15	46412.82
592.31	46443.25
592.46	46550.91
592.62	46464.32
592.78	46429.21
592.94	46513.47
593.10	46129.62
593.26	46773.27
593.41	46370.69
593.57	46094.51
593.73	46689.01
593.89	46340.27
594.05	47098.60
594.20	46710.07
594.36	46052.38
594.52	47002.64
594.68	46092.17
594.84	46405.80
594.99	46569.64
595.15	46548.57
595.31	46237.28
595.47	46295.80
595.62	46309.84
595.78	46115.58
595.94	46637.51
596.10	47068.17
596.25	46852.84
596.41	46735.82
596.57	46342.61
596.73	46658.58
596.88	46478.36
597.04	46705.39
597.20	46426.87
597.36	46642.20
597.51	46801.35
597.67	46550.91
597.83	46380.06
597.99	46415.16
598.14	45904.93
598.30	46586.02
598.46	46583.68
598.61	46937.10
598.77	46321.54
598.93	46382.40
599.09	46735.82
599.24	47054.13
599.40	46883.27
599.56	46492.40
599.71	46579.00
599.87	46674.96
600.03	46277.07
600.18	46607.09
600.34	46312.18
600.50	46698.37
600.65	46148.34
600.81	46590.70
600.97	46590.70
601.12	46777.95
601.28	46827.10
601.44	46447.93
601.59	46436.23
601.75	46394.10
601.91	46433.89
602.06	46469.00
602.22	46576.66
602.37	46337.93
602.53	46529.85
602.69	46532.19
602.84	46321.54
603.00	46440.91
603.16	46653.90
603.31	46576.66
603.47	46464.32
603.62	46260.69
603.78	46740.50
603.94	46073.45
604.09	46679.64
604.25	46417.50
604.40	46197.49
604.56	46178.77
604.71	46263.03
604.87	46361.33
605.03	46628.15
605.18	46628.15
605.34	46466.66
605.49	46300.48
605.65	46571.98
605.80	46368.35
605.96	46197.49
606.12	46164.73
606.27	46714.75
606.43	46122.60
606.58	46375.37
606.74	46314.52
606.89	46031.32
607.05	46422.19
607.20	46298.14
607.36	46557.94
607.51	46564.96
607.67	46401.12
607.82	46014.93
607.98	46164.73
608.13	46012.59
608.29	45680.24
608.44	45979.82
608.60	45790.24
608.75	46410.48
608.91	46326.22
609.06	46017.27
609.22	46108.55
609.37	45876.84
609.53	45879.18
609.68	46115.58
609.84	46150.68
609.99	45851.09
610.15	45584.27
610.30	46302.82
610.46	45708.32
610.61	45722.37
610.76	45928.33
610.92	45928.33
611.07	46239.62
611.23	45862.80
611.38	46174.09
611.54	46047.70
611.69	45649.81
611.84	45357.24
612.00	45734.07
612.15	45368.94
612.31	45954.08
612.46	45928.33
612.62	45783.22
612.77	45701.30
612.92	45907.27
613.08	45249.58
613.23	45155.96
613.39	45139.57
613.54	44996.80
613.69	45731.73
613.85	45205.11
614.00	45539.80
614.15	45703.64
614.31	45502.35
614.46	45755.13
614.62	45413.41
614.77	45521.08
614.92	45420.44
615.08	45277.66
615.23	45127.87
615.38	45251.92
615.54	44905.52
615.69	45179.36
615.84	45310.43
616.00	45132.55
616.15	45151.27
616.30	45141.91
616.46	45074.04
616.61	45003.82
616.76	45137.23
616.92	44516.99
617.07	44748.70
617.22	45162.98
617.37	45045.95
617.53	44952.33
617.68	45155.96
617.83	45235.53
617.99	44966.37
618.14	44318.04
618.29	44889.13
618.45	44540.39
618.60	44545.08
618.75	44587.21
618.90	44261.87
619.06	44980.42
619.21	44587.21
619.36	44617.63
619.51	44538.05
619.67	44629.34
619.82	44507.63
619.97	44837.64
620.12	44095.69
620.28	44168.25
620.43	44456.14
620.58	44612.95
620.73	44271.23
620.89	44189.31
621.04	44306.34
621.19	44697.21
621.34	44711.25
621.49	44516.99
621.65	44182.29
621.80	44374.22
621.95	44034.84
622.10	44500.61
622.25	44229.10
622.41	44435.07
622.56	43908.45
622.71	44219.74
622.86	43814.83
623.01	43915.47
623.16	43866.32
623.32	43941.22
623.47	44039.52
623.62	44006.75
623.77	43311.61
623.92	43819.51
624.07	43388.85
624.23	43519.92
624.38	43817.17
624.53	43536.30
624.68	43157.14
624.83	43531.62
624.98	43262.46
625.13	43012.02
625.29	43213.31
625.44	43342.04
625.59	42960.53
625.74	43592.48
625.89	43124.37
626.04	43264.80
626.19	43419.28
626.34	43225.01
626.49	43360.76
626.65	43344.38
626.80	43714.19
626.95	43026.07
627.10	43164.16
627.25	43007.34
627.40	42911.38
627.55	42663.28
627.70	42794.36
627.85	42792.01
628.00	42801.38
628.15	43098.62
628.30	43049.47
628.45	43056.50
628.60	42911.38
628.76	43122.03
628.91	42595.41
629.06	42906.70
629.21	42810.74
629.36	42698.39
629.51	42604.77
629.66	42838.83
629.81	42328.59
629.96	42532.22
630.11	42579.03
630.26	43019.05
630.41	42508.81
630.56	42534.56
630.71	42366.04
630.86	42508.81
631.01	42272.42
631.16	42462.00
631.31	41830.05
631.46	42115.60
631.61	41930.70
631.76	42117.94
631.91	42174.11
632.06	42216.24
632.21	41907.29
632.36	42162.41
632.51	41954.10
632.66	42220.92
632.81	41893.25
632.96	41860.48
633.10	42078.15
633.25	41560.89
633.40	42225.60
633.55	42064.11
633.70	42054.75
633.85	41626.43
634.00	41673.24
634.15	41954.10
634.30	41972.83
634.45	41434.50
634.60	41841.76
634.75	41743.45
634.90	41373.65
635.05	41490.68
635.19	41570.25
635.34	41916.65
635.49	41680.26
635.64	42099.22
635.79	41736.43
635.94	41413.44
636.09	41544.51
636.24	41289.39
636.39	41055.34
636.53	41478.97
636.68	41064.70
636.83	41408.76
636.98	41394.71
637.13	41158.32
637.28	41837.08
637.43	41624.09
637.57	41097.47
637.72	41310.46
637.87	41483.66
638.02	41434.50
638.17	41441.53
638.32	40994.48
638.46	41034.27
638.61	41158.32
638.76	40947.67
638.91	40708.94
639.06	41069.38
639.20	41340.88
639.35	40755.75
639.50	41088.10
639.65	40776.81
639.80	41034.27
639.94	41118.53
640.09	40968.74
640.24	40706.60
640.39	40662.13
640.54	40369.56
640.68	40652.76
640.83	40395.31
640.98	40453.82
641.13	40208.06
641.27	40685.53
641.42	40395.31
641.57	40594.25
641.72	40652.76
641.86	40428.07
642.01	40245.51
642.16	40509.99
642.31	39917.84
642.45	40474.88
642.60	40151.89
642.75	40362.54
642.90	40495.95
643.04	40428.07
643.19	40245.51
643.34	40126.14
643.48	40044.23
643.63	40311.05
643.78	40498.29
643.93	40238.49
644.07	39655.70
644.22	39700.17
644.37	39849.96
644.51	40023.16
644.66	40086.36
644.81	39985.71
644.95	40191.68
645.10	39983.37
645.25	40219.77
645.39	40039.54
645.54	39761.02
645.69	39627.61
645.83	39723.57
645.98	39672.08
646.13	39402.92
646.27	39522.29
646.42	39695.49
646.57	39524.63
646.71	39817.19
646.86	39658.04
647.00	39702.51
647.15	39234.40
647.30	39381.85
647.44	39569.10
647.59	39274.19
647.74	39330.36
647.88	38885.66
648.03	39227.38
648.17	39323.34
648.32	39014.39
648.47	39033.11
648.61	38899.70
648.76	39063.54
648.90	39091.63
649.05	39189.93
649.20	39552.71
649.34	39239.08
649.49	38951.20
649.63	38499.47
649.78	39178.23
649.92	39431.01
650.07	39388.88
650.21	38749.91
650.36	39100.99
650.51	39433.35
650.65	39159.50
650.80	39337.38
650.94	39278.87
651.09	38644.59
651.23	38691.40
651.38	38768.63
651.52	38387.13
651.67	38742.89
651.81	38855.23
651.96	38602.46
652.10	38459.68
652.25	38934.81
652.39	38576.71
652.54	39225.04
652.68	38745.23
652.83	38906.73
652.97	38363.72
653.12	38801.40
653.26	38660.97
653.41	38066.47
653.55	38099.24
653.70	38518.20
653.84	38600.12
653.99	38670.33
654.13	37921.36
654.27	38043.07
654.42	38562.67
654.56	38080.52
654.71	37862.85
654.85	38059.45
655.00	38164.78
655.14	37989.24
655.29	38103.92
655.43	37907.32
655.57	37317.50
655.72	37111.53
655.86	37282.39
656.01	37027.28
656.15	37404.10
656.30	37315.16
656.44	37247.29
656.58	37556.24
656.73	37488.36
656.87	37104.51
657.01	37371.33
657.16	37706.03
657.30	37277.71
657.45	36793.22
657.59	37104.51
657.73	37525.81
657.88	37579.64
658.02	37584.32
658.16	37287.07
658.31	37649.86
658.45	37460.27
658.60	37511.77
658.74	37476.66
658.88	37139.62
659.03	37434.53
659.17	37228.56
659.31	36830.67
659.46	36996.85
659.60	36828.33
659.74	36959.40
659.89	36449.16
660.03	36898.55
660.17	36753.43
660.32	37137.28
660.46	37083.45
660.60	36701.94
660.74	36477.25
660.89	37003.87
661.03	36432.78
661.17	36381.29
661.32	36596.62
661.46	36575.55
661.60	36428.10
661.74	36006.80
661.89	36510.02
662.03	36182.34
662.17	36634.06
662.31	36046.59
662.46	36825.99
662.60	36098.08
662.74	36065.31
662.88	36332.14
663.03	36182.34
663.17	35873.39
663.31	35728.28
663.45	35915.52
663.60	35941.27
663.74	35772.75
663.88	35754.02
664.02	35353.79
664.17	35983.40
664.31	35213.36
664.45	34897.39
664.59	35047.18
664.73	35077.61
664.88	34960.58
665.02	35206.34
665.16	35438.05
665.30	35077.61
665.44	34897.39
665.59	34827.17
665.73	35213.36
665.87	34595.46
666.01	34623.54
666.15	34918.45
666.29	34859.94
666.44	35192.30
666.58	34916.11
666.72	34499.50
666.86	34682.06
667.00	34462.05
667.14	34171.82
667.28	34209.27
667.43	34532.26
667.57	34485.45
667.71	34382.47
667.85	34396.51
667.99	34609.50
668.13	34431.62
668.27	34487.79
668.41	34415.24
668.56	34141.39
668.70	34024.37
668.84	33738.82
668.98	33684.99
669.12	33692.01
669.26	34174.16
669.40	33619.46
669.54	33528.17
669.68	33649.88
669.82	33221.56
669.96	33259.01
670.10	33172.41
670.25	33106.88
670.39	33443.91
670.53	32781.54
670.67	32875.16
670.81	33385.40
670.95	32835.38
671.09	32755.80
671.23	32933.68
671.37	32828.35
671.51	32479.61
671.65	32517.06
671.79	32526.42
671.93	32566.21
672.07	32552.17
672.21	32222.16
672.35	32154.28
672.49	32304.07
672.63	31988.10
672.77	32086.40
672.91	31821.92
673.05	31936.61
673.19	32020.87
673.33	31906.18
673.47	31407.65
673.61	31618.30
673.75	31234.45
673.89	31290.62
674.03	31531.70
674.17	31264.88
674.31	31318.71
674.45	31662.77
674.59	31349.14
674.73	31718.94
674.87	31555.10
675.01	30824.86
675.15	30897.41
675.29	30883.37
675.43	30782.73
675.56	31206.36
675.70	30852.94
675.84	30705.49
675.98	29579.69
676.12	30368.45
676.26	30712.51
676.40	30473.78
676.54	30728.89
676.68	30008.01
676.82	29914.39
676.96	29930.77
677.10	29921.41
677.23	29898.00
677.37	30047.80
677.51	29752.89
677.65	29631.18
677.79	29266.06
677.93	29109.24
678.07	28804.97
678.21	28386.02
678.34	28800.29
678.48	28673.90
678.62	28823.70
678.76	28545.17
678.90	28435.17
679.04	28294.74
679.18	28577.94
679.31	28128.56
679.45	28311.12
679.59	28081.75
679.73	27976.42
679.87	28245.58
680.00	28217.50
680.14	27880.46
680.28	27859.40
680.42	27754.07
680.56	27866.42
680.70	27637.05
680.83	27714.28
680.97	27604.28
681.11	27513.00
681.25	27632.36
681.39	27164.26
681.52	27391.29
681.66	26820.20
681.80	26932.54
681.94	26663.38
682.07	26794.45
682.21	26932.54
682.35	26747.64
682.49	26735.94
682.62	26635.30
682.76	26139.10
682.90	26256.13
683.04	26211.66
683.17	26106.34
683.31	25956.54
683.45	25982.29
683.59	25750.57
683.72	26003.35
683.86	25975.27
684.00	25827.81
684.13	25474.39
684.27	25355.02
684.41	25436.94
684.55	24772.23
684.68	24863.51
684.82	25350.34
684.96	24959.47
685.09	24676.27
685.23	24957.13
685.37	24372.00
685.50	24765.21
685.64	24587.33
685.78	24474.98
685.91	24425.83
686.05	24386.04
686.19	24049.00
686.32	23791.55
686.46	23693.24
686.60	23325.78
686.73	23353.87
686.87	23269.61
687.01	23199.39
687.14	23157.26
687.28	23154.92
687.42	23171.30
687.55	23033.21
687.69	23168.96
687.82	22991.08
687.96	22960.66
688.10	22860.01
688.23	22757.03
688.37	22862.35
688.50	22752.35
688.64	22817.88
688.78	22572.13
688.91	22134.45
689.05	22256.15
689.18	22118.06
689.32	21626.55
689.46	22218.71
689.59	22361.48
689.73	22218.71
689.86	21844.22
690.00	21834.86
690.13	21884.01
690.27	21366.75
690.41	21603.14
690.54	21135.04
690.68	21172.49
690.81	21245.04
690.95	21216.96
691.08	21310.58
691.22	21394.84
691.35	21200.57
691.49	21106.95
691.62	21198.23
691.76	21146.74
691.89	20931.41
692.03	20486.71
692.16	20669.27
692.30	20397.77
692.43	20554.58
692.57	19988.18
692.70	20130.95
692.84	20098.18
692.97	19878.17
693.11	19894.55
693.24	19824.34
693.38	19510.71
693.51	19639.44
693.65	19674.54
693.78	19632.41
693.92	19295.38
694.05	19398.36
694.19	19379.64
694.32	19054.30
694.45	19096.43
694.59	19571.56
694.72	19199.41
694.86	18930.25
694.99	18799.18
695.13	19030.90
695.26	18530.02
695.39	18492.57
695.53	18845.99
695.66	18576.83
695.80	18401.29
695.93	18806.20
696.07	18569.81
696.20	18328.74
696.33	18281.92
696.47	17905.10
696.60	18300.65
696.73	17755.30
696.87	17745.94
697.00	17898.08
697.14	17687.43
697.27	17495.50
697.40	17448.69
697.54	17338.69
697.67	17308.26
697.80	17366.78
697.94	16940.80
698.07	17097.61
698.21	17060.16
698.34	17392.52
698.47	16994.63
698.61	16917.39
698.74	16734.83
698.87	16767.60
699.01	16482.05
699.14	16528.86
699.27	16287.79
699.40	16507.80
699.54	16512.48
699.67	16231.62
699.80	16002.24
699.94	16079.48
700.07	16212.89
700.20	16063.10
700.34	15978.84
700.47	15742.44
700.60	15999.90
700.73	16095.86
700.87	15796.28
701.00	15740.10
701.13	15520.09
701.26	15180.71
701.40	15405.41
701.53	15403.07
701.66	15281.36
701.79	14934.96
701.93	14696.22
702.06	14892.83
702.19	14855.38
702.32	15026.24
702.46	14923.26
702.59	14883.47
702.72	14485.58
702.85	14796.87
702.99	14745.38
703.12	14750.06
703.25	14382.59
703.38	14647.07
703.51	14490.26
703.65	14560.47
703.78	14218.75
703.91	14078.32
704.04	13848.95
704.17	14038.53
704.31	13802.14
704.44	13965.98
704.57	13895.76
704.70	13568.09
704.83	13572.77
704.96	13743.63
705.10	13614.90
705.23	13500.21
>>>>>End Processed Spectral Data<<<<<
