SpectraSuite Data File
++++++++++++++++++++++++++++++++++++
Date: Fri Oct 25 11:34:32 EDT 2013
User: price-jones
Dark Spectrum Present: No
Reference Spectrum Present: No
Number of Sampled Component Spectra: 1
Spectrometers: USB2+H05261
Integration Time (usec): 100000 (USB2+H05261)
Spectra Averaged: 1 (USB2+H05261)
Boxcar Smoothing: 0 (USB2+H05261)
Correct for Electrical Dark: No (USB2+H05261)
Strobe/Lamp Enabled: No (USB2+H05261)
Correct for Detector Non-linearity: No (USB2+H05261)
Correct for Stray Light: No (USB2+H05261)
Number of Pixels in Processed Spectrum: 2048
>>>>>Begin Processed Spectral Data<<<<<
365.73	271.50
365.92	271.50
366.12	271.50
366.32	271.50
366.52	212.99
366.72	205.97
366.91	196.60
367.11	142.77
367.31	217.67
367.51	201.29
367.70	168.52
367.90	170.86
368.10	168.52
368.30	180.22
368.49	189.58
368.69	205.97
368.89	180.22
369.09	163.84
369.28	215.33
369.48	175.54
369.68	212.99
369.87	285.55
370.07	236.39
370.27	283.20
370.47	355.76
370.66	498.53
370.86	447.04
371.06	540.66
371.25	552.37
371.45	491.51
371.65	519.60
371.84	475.13
372.04	557.05
372.24	573.43
372.44	550.03
372.63	547.69
372.83	613.22
373.03	608.54
373.22	613.22
373.42	631.94
373.62	617.90
373.81	589.82
374.01	624.92
374.21	650.67
374.40	653.01
374.60	676.41
374.79	578.11
374.99	624.92
375.19	629.60
375.38	660.03
375.58	580.45
375.78	622.58
375.97	667.05
376.17	695.14
376.37	613.22
376.56	704.50
376.76	671.73
376.95	596.84
377.15	641.31
377.35	610.88
377.54	653.01
377.74	657.69
377.93	580.45
378.13	669.39
378.33	716.20
378.52	655.35
378.72	641.31
378.91	634.29
379.11	692.80
379.31	657.69
379.50	718.54
379.70	767.70
379.89	688.12
380.09	667.05
380.28	702.16
380.48	674.07
380.68	662.37
380.87	681.10
381.07	744.29
381.26	819.19
381.46	706.84
381.65	711.52
381.85	758.33
382.04	720.88
382.24	727.91
382.43	772.38
382.63	732.59
382.83	774.72
383.02	765.36
383.22	823.87
383.41	704.50
383.61	800.46
383.80	760.67
384.00	798.12
384.19	858.98
384.39	791.10
384.58	830.89
384.78	866.00
384.97	847.27
385.17	746.63
385.36	777.06
385.56	849.61
385.75	781.74
385.95	809.83
386.14	784.08
386.34	800.46
386.53	884.72
386.72	793.44
386.92	908.13
387.11	866.00
387.31	940.90
387.50	812.17
387.70	863.66
387.89	891.74
388.09	866.00
388.28	856.64
388.48	863.66
388.67	940.90
388.86	889.40
389.06	919.83
389.25	992.39
389.45	901.11
389.64	903.45
389.84	968.98
390.03	912.81
390.22	912.81
390.42	877.70
390.61	1001.75
390.81	851.96
391.00	954.94
391.19	976.00
391.39	976.00
391.58	985.37
391.78	1004.09
391.97	1114.10
392.16	917.49
392.36	1036.86
392.55	1039.20
392.75	1050.90
392.94	987.71
393.13	1097.71
393.33	1041.54
393.52	1074.31
393.71	1013.45
393.91	1055.58
394.10	1015.79
394.29	1039.20
394.49	1104.73
394.68	1118.78
394.88	1116.44
395.07	1139.84
395.26	1149.20
395.46	1118.78
395.65	1167.93
395.84	1163.25
396.04	1118.78
396.23	1158.57
396.42	1100.05
396.62	1181.97
396.81	1214.74
397.00	1196.01
397.19	1137.50
397.39	1102.39
397.58	1132.82
397.77	1198.35
397.97	1196.01
398.16	1277.93
398.35	1207.72
398.55	1188.99
398.74	1184.31
398.93	1291.98
399.12	1217.08
399.32	1336.45
399.51	1221.76
399.70	1329.42
399.90	1336.45
400.09	1350.49
400.28	1343.47
400.47	1301.34
400.67	1362.19
400.86	1291.98
401.05	1299.00
401.24	1376.24
401.44	1514.33
401.63	1371.55
401.82	1350.49
402.01	1425.39
402.21	1404.32
402.40	1444.11
402.59	1441.77
402.78	1495.60
402.97	1427.73
403.17	1502.62
403.36	1519.01
403.55	1502.62
403.74	1540.07
403.93	1516.67
404.13	1577.52
404.32	1591.56
404.51	1495.60
404.70	1565.82
404.89	1551.78
405.09	1568.16
405.28	1638.38
405.47	1638.38
405.66	1591.56
405.85	1636.03
406.05	1640.72
406.24	1631.35
406.43	1701.57
406.62	1652.42
406.81	1783.49
407.00	1739.02
407.20	1785.83
407.39	1668.80
407.58	1739.02
407.77	1778.81
407.96	1755.40
408.15	1783.49
408.34	1741.36
408.54	1849.02
408.73	1825.62
408.92	1748.38
409.11	1884.13
409.30	1994.14
409.49	1865.41
409.68	1902.86
409.87	1886.47
410.07	1963.71
410.26	1942.64
410.45	2019.88
410.64	1973.07
410.83	1977.75
411.02	1928.60
411.21	2129.89
411.40	2083.08
411.59	2101.80
411.78	2101.80
411.98	2139.25
412.17	2136.91
412.36	2230.53
412.55	2221.17
412.74	2209.47
412.93	2347.56
413.12	2211.81
413.31	2324.15
413.50	2331.17
413.69	2298.41
413.88	2443.52
414.07	2239.89
414.26	2354.58
414.45	2363.94
414.64	2382.67
414.83	2450.54
415.02	2387.35
415.22	2471.61
415.41	2619.06
415.60	2525.44
415.79	2537.14
415.98	2509.05
416.17	2628.42
416.36	2668.21
416.55	2518.42
416.74	2724.38
416.93	2672.89
417.12	2689.28
417.31	2654.17
417.50	2605.02
417.69	2747.79
417.88	2712.68
418.07	2843.75
418.26	2801.62
418.45	2836.73
418.64	2953.76
418.83	2920.99
419.02	3005.25
419.21	2998.23
419.39	2920.99
419.58	2942.05
419.77	2853.11
419.96	2951.42
420.15	3014.61
420.34	3098.87
420.53	3101.21
420.72	3265.05
420.91	3075.46
421.10	3028.65
421.29	3152.70
421.48	3171.43
421.67	3204.19
421.86	3119.93
422.05	3122.27
422.24	3276.75
422.43	3171.43
422.61	3171.43
422.80	3166.74
422.99	3307.18
423.18	3274.41
423.37	3265.05
423.56	3243.98
423.75	3335.26
423.94	3124.62
424.13	3047.38
424.32	3108.23
424.50	3311.86
424.69	3279.09
424.88	3332.92
425.07	3339.94
425.26	3262.71
425.45	3192.49
425.64	3265.05
425.83	3269.73
426.01	3330.58
426.20	3382.07
426.39	3311.86
426.58	3339.94
426.77	3393.78
426.96	3344.63
427.15	3412.50
427.33	3414.84
427.52	3410.16
427.71	3496.76
427.90	3428.88
428.09	3552.93
428.28	3478.04
428.46	3555.27
428.65	3517.83
428.84	3623.15
429.03	3545.91
429.22	3442.93
429.40	3550.59
429.59	3489.74
429.78	3508.46
429.97	3428.88
430.16	3754.22
430.34	3730.81
430.53	3597.40
430.72	3775.28
430.91	3674.64
431.10	3758.90
431.28	3887.63
431.47	3772.94
431.66	3817.41
431.85	3723.79
432.03	3908.69
432.22	3990.61
432.41	3875.93
432.60	3929.76
432.79	3953.16
432.97	4023.38
433.16	4046.79
433.35	3913.38
433.54	3805.71
433.72	4018.70
433.91	4028.06
434.10	4058.49
434.28	4018.70
434.47	3988.27
434.66	4107.64
434.85	4079.55
435.03	4170.83
435.22	4114.66
435.41	4273.82
435.59	4182.54
435.78	4241.05
435.97	4262.12
436.16	4159.13
436.34	4175.52
436.53	4273.82
436.72	4322.97
436.90	4301.90
437.09	4512.55
437.28	4294.88
437.46	4269.14
437.65	4299.56
437.84	4421.27
438.02	4390.84
438.21	4507.87
438.40	4444.68
438.58	4631.92
438.77	4596.81
438.96	4624.90
439.14	4645.96
439.33	4674.05
439.52	4741.93
439.70	4737.24
439.89	4739.58
440.08	4840.23
440.26	4798.10
440.45	4765.33
440.63	4908.10
440.82	4959.60
441.01	5083.64
441.19	4994.70
441.38	5041.51
441.57	4882.36
441.75	5064.92
441.94	4994.70
442.12	5132.79
442.31	5188.97
442.50	5287.27
442.68	5160.88
442.87	5228.76
443.05	5380.89
443.24	5439.40
443.43	5366.85
443.61	5210.03
443.80	5439.40
443.98	5172.58
444.17	4964.28
444.35	5198.33
444.54	5418.34
444.73	5378.55
444.91	5549.41
445.10	5298.97
445.28	5376.21
445.47	5479.19
445.65	5387.91
445.84	5603.24
446.02	5605.58
446.21	5397.28
446.39	5451.11
446.58	5308.34
446.77	5488.56
446.95	5298.97
447.14	5479.19
447.32	5544.73
447.51	5666.44
447.69	5523.66
447.88	5493.24
448.06	5535.37
448.25	5790.49
448.43	5411.32
448.62	5479.19
448.80	5652.39
448.99	5823.25
449.17	5565.79
449.36	5617.29
449.54	5816.23
449.73	5741.33
449.91	5774.10
450.10	5654.73
450.28	5720.27
450.46	5951.98
450.65	5837.30
450.83	5956.66
451.02	5837.30
451.20	5940.28
451.39	5984.75
451.57	5884.11
451.76	5797.51
451.94	5867.72
452.13	5940.28
452.31	6071.35
452.49	5811.55
452.68	6052.63
452.86	6031.56
453.05	6216.46
453.23	6043.26
453.42	5966.03
453.60	5980.07
453.78	6193.06
453.97	6019.86
454.15	6019.86
454.34	6071.35
454.52	6099.44
454.70	6204.76
454.89	6352.21
455.07	6202.42
455.26	6389.66
455.44	6494.99
455.62	6394.34
455.81	6445.84
455.99	6539.46
456.17	6530.09
456.36	6497.33
456.54	6462.22
456.73	6757.13
456.91	6740.74
457.09	6569.88
457.28	6906.92
457.46	6890.54
457.64	6869.47
457.83	6757.13
458.01	6670.53
458.19	6827.34
458.38	6792.23
458.56	6860.11
458.74	6792.23
458.93	6902.24
459.11	6965.43
459.29	6846.07
459.48	6956.07
459.66	6960.75
459.84	6993.52
460.03	7030.97
460.21	7077.78
460.39	7070.76
460.57	7103.53
460.76	7098.84
460.94	7328.22
461.12	7180.76
461.31	7267.36
461.49	7206.51
461.67	7140.97
461.85	7222.89
462.04	7197.15
462.22	7536.52
462.40	7396.09
462.59	7428.86
462.77	7328.22
462.95	7456.95
463.13	7375.03
463.32	7440.56
463.50	7396.09
463.68	7627.81
463.86	7456.95
464.05	7508.44
464.23	7492.05
464.41	7735.47
464.59	7473.33
464.78	7808.03
464.96	7529.50
465.14	7597.38
465.32	7953.14
465.50	7875.90
465.69	7761.22
465.87	7590.36
466.05	7712.07
466.23	7716.75
466.41	7840.79
466.60	7939.10
466.78	7779.94
466.96	7786.96
467.14	7819.73
467.32	7908.67
467.51	7920.37
467.69	7817.39
467.87	7943.78
468.05	7925.05
468.23	7927.39
468.41	7878.24
468.60	8166.13
468.78	8219.96
468.96	7948.46
469.14	8060.80
469.32	8266.77
469.50	8161.45
469.69	8278.47
469.87	8437.63
470.05	8468.06
470.23	8390.82
470.41	8421.25
470.59	8430.61
470.77	8414.23
470.95	8472.74
471.14	8828.50
471.32	8489.12
471.50	8575.72
471.68	8720.84
471.86	8952.55
472.04	8769.99
472.22	8826.16
472.40	8606.15
472.58	8912.76
472.77	9004.04
472.95	9116.39
473.13	9310.65
473.31	9053.19
473.49	9221.71
473.67	9004.04
473.85	9085.96
474.03	9104.68
474.21	9301.29
474.39	9467.47
474.57	9273.20
474.75	9537.68
474.93	9423.00
475.12	9399.59
475.30	9603.22
475.48	9556.41
475.66	9563.43
475.84	9706.20
476.02	9863.02
476.20	9750.67
476.38	9860.68
476.56	10169.63
476.74	10251.55
476.92	10101.75
477.10	10073.67
477.28	10389.64
477.46	10303.04
477.64	10277.29
477.82	10527.73
478.00	10717.31
478.18	10581.56
478.36	10857.75
478.54	10902.22
478.72	11009.88
478.90	11052.01
479.08	11087.12
479.26	11084.78
479.44	11073.07
479.62	11367.98
479.80	11435.86
479.98	11239.25
480.16	11513.10
480.34	11445.22
480.52	11751.83
480.70	11618.42
480.88	11719.06
481.06	11964.82
481.24	11988.22
481.41	12067.80
481.59	12161.42
481.77	12325.26
481.95	12386.12
482.13	12264.41
482.31	12444.63
482.49	12800.39
482.67	12575.70
482.85	12842.52
483.03	12982.95
483.21	12950.18
483.39	13146.79
483.57	12875.29
483.74	13282.54
483.92	13462.76
484.10	13331.69
484.28	13671.07
484.46	14045.55
484.64	13785.76
484.82	13507.23
485.00	13947.25
485.18	14033.85
485.35	14080.66
485.53	14675.16
485.71	14548.77
485.89	14567.49
486.07	14721.97
486.25	14614.30
486.43	15140.93
486.61	15016.88
486.78	15185.40
486.96	14963.04
487.14	15499.03
487.32	15349.23
487.50	15557.54
487.68	15667.55
487.85	15747.12
488.03	15859.47
488.21	16109.91
488.39	16161.40
488.57	16514.82
488.75	16313.53
488.92	16327.58
489.10	16685.68
489.28	16650.57
489.46	17111.66
489.64	17050.80
489.81	17130.38
489.99	17170.17
490.17	17205.28
490.35	17481.46
490.53	17851.27
490.70	17701.47
490.88	17357.41
491.06	18134.47
491.24	17879.35
491.41	17956.59
491.59	18497.25
491.77	18363.84
491.95	18312.35
492.13	18356.82
492.30	18993.45
492.48	18623.64
492.66	18970.04
492.84	18820.25
493.01	19007.49
493.19	19180.69
493.37	19466.24
493.54	19080.05
493.72	19587.94
493.90	19782.21
494.08	20156.69
494.25	19723.69
494.43	19875.83
494.61	20098.18
494.79	20133.29
494.96	20318.19
495.14	20276.06
495.32	20716.08
495.49	20322.87
495.67	20601.40
495.85	21188.87
496.02	21118.65
496.20	21451.01
496.38	21167.80
496.55	21205.25
496.73	22029.12
496.91	21465.05
497.09	21727.19
497.26	21493.14
497.44	21626.55
497.62	22473.82
497.79	22115.72
497.97	22328.71
498.14	22127.42
498.32	22829.59
498.50	22579.15
498.67	22607.23
498.85	22572.13
499.03	22916.19
499.20	22953.63
499.38	23183.01
499.56	23260.24
499.73	23414.72
499.91	23311.74
500.08	23718.99
500.26	23386.63
500.44	23351.52
500.61	23559.83
500.79	23578.56
500.97	23817.29
501.14	23974.11
501.32	24247.95
501.49	24278.38
501.67	24395.40
501.84	24446.90
502.02	24243.27
502.20	24482.00
502.37	24620.10
502.55	24400.08
502.72	24767.55
502.90	24730.10
503.07	24821.38
503.25	25036.71
503.43	24739.46
503.60	24954.79
503.78	25259.06
503.95	24985.22
504.13	25249.70
504.30	25584.40
504.48	25483.75
504.65	25191.19
504.83	25729.51
505.01	25879.30
505.18	26136.76
505.36	26033.78
505.53	26015.05
505.71	25823.13
505.88	26080.59
506.06	26106.34
506.23	26232.72
506.41	26281.88
506.58	26567.42
506.76	26452.73
506.93	26405.92
507.11	26548.70
507.28	26871.69
507.46	26759.34
507.63	26628.27
507.81	27168.94
507.98	26862.33
508.16	27117.45
508.33	27182.98
508.50	27012.12
508.68	27470.87
508.85	27796.20
509.03	27697.90
509.20	27449.80
509.38	27316.39
509.55	28016.21
509.73	27637.05
509.90	28371.97
510.08	28109.83
510.25	27894.50
510.42	28222.18
510.60	28407.08
510.77	28458.57
510.95	28800.29
511.12	28114.52
511.30	28386.02
511.47	28800.29
511.64	28648.16
511.82	29127.97
511.99	28816.68
512.17	29235.63
512.34	29181.80
512.51	29179.46
512.69	29392.45
512.86	29237.97
513.04	29401.81
513.21	29495.43
513.38	29795.02
513.56	29741.19
513.73	29518.84
513.90	29944.81
514.08	29696.72
514.25	30342.70
514.43	30022.05
514.60	30197.59
514.77	30340.36
514.95	30171.85
515.12	30195.25
515.29	30295.89
515.47	30466.75
515.64	30677.40
515.81	30529.95
515.99	30600.16
516.16	31047.21
516.33	30656.34
516.51	31112.74
516.68	30829.54
516.85	30866.98
517.03	31274.24
517.20	31187.64
517.37	31117.42
517.54	30981.67
517.72	31484.89
517.89	31407.65
518.06	31075.29
518.24	31604.25
518.41	31529.36
518.58	31180.62
518.75	31391.26
518.93	31761.07
519.10	31737.66
519.27	31761.07
519.45	31775.11
519.62	31894.48
519.79	32020.87
519.96	32231.52
520.14	32060.66
520.31	31744.69
520.48	32177.68
520.65	32385.99
520.83	32727.71
521.00	32659.84
521.17	32624.73
521.34	32760.48
521.52	33022.62
521.69	32814.31
521.86	32470.25
522.03	33188.80
522.20	33383.06
522.38	33474.34
522.55	33266.03
522.72	33177.09
522.89	33364.34
523.07	33509.45
523.24	33614.77
523.41	33312.84
523.58	33207.52
523.75	34178.84
523.92	33855.85
524.10	34171.82
524.27	33876.91
524.44	34309.91
524.61	34103.95
524.78	33792.65
524.96	34565.03
525.13	34459.71
525.30	34265.44
525.47	34122.67
525.64	34492.47
525.81	34295.87
525.98	34658.65
526.16	34440.98
526.33	34843.56
526.50	34822.49
526.67	34518.22
526.84	34623.54
527.01	34848.24
527.18	35028.46
527.36	34845.90
527.53	35204.00
527.70	35442.73
527.87	35449.75
528.04	34817.81
528.21	35070.59
528.38	35510.61
528.55	35358.47
528.72	35225.06
528.89	35129.10
529.07	35215.70
529.24	35042.50
529.41	35517.63
529.58	35695.51
529.75	35496.56
529.92	35875.73
530.09	35931.90
530.26	35803.17
530.43	35454.44
530.60	35936.59
530.77	36144.89
530.94	35686.15
531.11	35784.45
531.28	36252.56
531.46	36257.24
531.63	36334.48
531.80	36416.40
531.97	36554.49
532.14	36428.10
532.31	36421.08
532.48	36631.72
532.65	36931.31
532.82	36383.63
532.99	36753.43
533.16	36746.41
533.33	36694.92
533.50	36844.71
533.67	37017.91
533.84	37195.79
534.01	36957.06
534.18	37156.00
534.35	37394.74
534.52	37514.11
534.69	37364.31
534.86	37109.19
535.03	37425.17
535.20	37612.41
535.37	37748.16
535.54	37792.63
535.71	37528.15
535.88	37649.86
536.05	38089.88
536.22	37708.37
536.38	37443.89
536.55	37858.17
536.72	37785.61
536.89	37511.77
537.06	37794.97
537.23	38036.05
537.40	38022.00
537.57	38153.07
537.74	37727.10
537.91	38197.54
538.08	38022.00
538.25	37743.48
538.42	38499.47
538.59	38614.16
538.75	38462.02
538.92	38422.23
539.09	38433.94
539.26	38440.96
539.43	38738.21
539.60	38824.81
539.77	38321.59
539.94	38731.18
540.11	38880.98
540.28	39023.75
540.44	38590.75
540.61	39070.56
540.78	38735.87
540.95	39274.19
541.12	39288.23
541.29	38958.22
541.46	39152.48
541.62	39234.40
541.79	39115.03
541.96	38810.76
542.13	38763.95
542.30	39323.34
542.47	39721.23
542.63	39672.08
542.80	39519.95
542.97	39590.16
543.14	39983.37
543.31	39814.85
543.48	39681.44
543.64	39941.24
543.81	40189.34
543.98	40072.31
544.15	39929.54
544.32	40278.28
544.48	40229.13
544.65	40495.95
544.82	40746.39
544.99	40156.57
545.16	39992.73
545.32	40013.80
545.49	40786.18
545.66	40903.20
545.83	40561.48
546.00	40678.51
546.16	40247.85
546.33	40769.79
546.50	40381.26
546.67	40690.21
546.83	40179.98
547.00	40341.47
547.17	40825.96
547.34	40748.73
547.50	40645.74
547.67	41191.09
547.84	41158.32
548.00	41008.53
548.17	41284.71
548.34	41287.05
548.51	41434.50
548.67	41237.90
548.84	41111.51
549.01	40858.73
549.18	41294.07
549.34	41502.38
549.51	41605.36
549.68	41560.89
549.84	41022.57
550.01	41242.58
550.18	41268.33
550.34	41565.57
550.51	41750.48
550.68	41614.72
550.84	41256.62
551.01	41385.35
551.18	41453.23
551.34	41773.88
551.51	41853.46
551.68	41902.61
551.84	42153.05
552.01	41675.58
552.18	42064.11
552.34	41876.86
552.51	42101.56
552.68	41979.85
552.84	41935.38
553.01	41783.24
553.18	42127.30
553.34	42515.83
553.51	41846.44
553.67	42120.28
553.84	42253.69
554.01	42157.73
554.17	41937.72
554.34	42660.94
554.51	42672.65
554.67	42953.51
554.84	42497.11
555.00	42417.53
555.17	42249.01
555.33	43077.56
555.50	42604.77
555.67	42637.54
555.83	42305.18
556.00	42384.76
556.16	42913.72
556.33	42965.21
556.50	42890.32
556.66	42670.31
556.83	42628.18
556.99	42967.55
557.16	43180.54
557.32	42740.52
557.49	42827.12
557.65	42534.56
557.82	42623.50
557.98	42621.16
558.15	43070.54
558.32	43344.38
558.48	42892.66
558.65	43002.66
558.81	43042.45
558.98	42792.01
559.14	43276.51
559.31	42930.11
559.47	43386.51
559.64	43288.21
559.80	43473.11
559.97	43782.06
560.13	43091.60
560.30	43459.07
560.46	43491.83
560.63	43501.20
560.79	43416.94
560.96	43798.44
561.12	43454.39
561.29	43723.55
561.45	43608.86
561.61	43648.65
561.78	43512.90
561.94	43730.57
562.11	43562.05
562.27	43992.71
562.44	43744.61
562.60	43501.20
562.77	43950.58
562.93	43494.18
563.10	44402.30
563.26	43629.93
563.42	44058.24
563.59	43800.79
563.75	43852.28
563.92	43929.51
564.08	43578.43
564.24	44011.43
564.41	43957.60
564.57	43655.67
564.74	43842.92
564.90	43721.21
565.07	44013.77
565.23	43908.45
565.39	44116.76
565.56	44374.22
565.72	44044.20
565.88	44278.25
566.05	43892.07
566.21	43952.92
566.38	44519.33
566.54	44215.06
566.70	44025.48
566.87	44091.01
567.03	43826.53
567.19	44165.91
567.36	44215.06
567.52	44194.00
567.68	44460.82
567.85	44215.06
568.01	44388.26
568.17	44091.01
568.34	44587.21
568.50	44437.41
568.66	44383.58
568.83	44184.63
568.99	44327.41
569.15	44760.40
569.32	44566.14
569.48	44500.61
569.64	44603.59
569.81	44238.47
569.97	44629.34
570.13	44708.91
570.30	44271.23
570.46	44655.08
570.62	44699.55
570.78	44002.07
570.95	44830.62
571.11	45050.63
571.27	44179.95
571.43	44271.23
571.60	44598.91
571.76	44664.44
571.92	44671.46
572.09	44362.51
572.25	44385.92
572.41	44453.79
572.57	44399.96
572.74	44886.79
572.90	44685.51
573.06	44821.26
573.22	44680.83
573.38	44868.07
573.55	44849.35
573.71	45083.40
573.87	45027.23
574.03	44804.88
574.20	44935.95
574.36	44919.56
574.52	44966.37
574.68	44608.27
574.84	45179.36
575.01	45277.66
575.17	45195.74
575.33	44882.11
575.49	44477.20
575.65	44765.09
575.82	44762.75
575.98	44940.63
576.14	45331.50
576.30	44865.73
576.46	44952.33
576.62	44835.30
576.79	45031.91
576.95	44397.62
577.11	44818.92
577.27	44985.10
577.43	44910.20
577.59	45038.93
577.75	44877.43
577.92	44832.96
578.08	44886.79
578.24	45354.90
578.40	44917.22
578.56	44903.18
578.72	45067.02
578.88	45083.40
579.04	44837.64
579.21	44744.02
579.37	44949.99
579.53	45127.87
579.69	44680.83
579.85	45209.79
580.01	45088.08
580.17	44706.57
580.33	45420.44
580.49	44655.08
580.65	45345.54
580.82	44947.65
580.98	45045.95
581.14	44502.95
581.30	44732.32
581.46	44854.03
581.62	45015.52
581.78	45228.51
581.94	45361.92
582.10	45034.25
582.26	45460.23
582.42	45104.46
582.58	45186.38
582.74	45235.53
582.90	45338.52
583.06	45469.59
583.22	45048.29
583.38	45069.36
583.54	45191.06
583.70	45280.00
583.86	45043.61
584.02	45193.40
584.18	45607.68
584.34	45324.47
584.50	45654.49
584.66	45429.80
584.82	45518.74
584.98	45680.24
585.14	45673.21
585.30	45055.31
585.46	45226.17
585.62	45130.21
585.78	45350.22
585.94	44942.97
586.10	45165.32
586.26	44985.10
586.42	45071.70
586.58	45429.80
586.74	45518.74
586.90	45296.39
587.06	44999.14
587.22	45490.65
587.38	45415.76
587.54	45258.94
587.70	45972.80
587.86	45294.05
588.02	44989.78
588.18	45375.97
588.34	45565.55
588.49	45233.19
588.65	45425.12
588.81	45067.02
588.97	45617.04
589.13	45162.98
589.29	45474.27
589.45	45579.59
589.61	45556.19
589.77	45532.78
589.93	45977.48
590.08	45563.21
590.24	45825.35
590.40	46150.68
590.56	45769.18
590.72	45977.48
590.88	45516.40
591.04	45537.46
591.20	45808.96
591.35	45645.13
591.51	46005.57
591.67	45923.65
591.83	45640.45
591.99	46052.38
592.15	45638.11
592.31	46071.10
592.46	45647.47
592.62	45806.62
592.78	46096.85
592.94	46300.48
593.10	46047.70
593.26	46040.68
593.41	45846.41
593.57	45827.69
593.73	45982.16
593.89	45801.94
594.05	46223.24
594.20	45720.02
594.36	46106.21
594.52	45993.87
594.68	45553.85
594.84	45771.52
594.99	46525.17
595.15	46401.12
595.31	46078.13
595.47	46171.75
595.62	46115.58
595.78	45654.49
595.94	45921.31
596.10	45996.21
596.25	45940.04
596.41	46291.12
596.57	45762.15
596.73	46054.72
596.88	46438.57
597.04	46248.99
597.20	46281.75
597.36	45998.55
597.51	45984.51
597.67	45745.77
597.83	45989.19
597.99	45925.99
598.14	46146.00
598.30	46059.40
598.46	45825.35
598.61	46426.87
598.77	46066.42
598.93	45446.18
599.09	45963.44
599.24	46461.97
599.40	46127.28
599.56	46103.87
599.71	46438.57
599.87	46705.39
600.03	45837.05
600.18	46082.81
600.34	46358.99
600.50	46234.94
600.65	46197.49
600.81	46579.00
600.97	46602.41
601.12	46511.13
601.28	46461.97
601.44	46007.91
601.59	46202.18
601.75	46115.58
601.91	46387.08
602.06	46082.81
602.22	46146.00
602.37	46312.18
602.53	46057.06
602.69	46469.00
602.84	46080.47
603.00	46305.16
603.16	46527.51
603.31	46253.67
603.47	46459.63
603.62	46293.46
603.78	46305.16
603.94	46085.15
604.09	46160.05
604.25	46239.62
604.40	46080.47
604.56	46146.00
604.71	46553.26
604.87	46064.08
605.03	46333.24
605.18	45979.82
605.34	46597.73
605.49	45897.91
605.65	46302.82
605.80	45792.58
605.96	45895.56
606.12	46160.05
606.27	45900.25
606.43	45839.39
606.58	46096.85
606.74	46066.42
606.89	45897.91
607.05	45567.89
607.20	46274.73
607.36	46047.70
607.51	46117.92
607.67	45750.45
607.82	46239.62
607.98	45612.36
608.13	45907.27
608.29	45830.03
608.44	46031.32
608.60	45881.52
608.75	46052.38
608.91	45811.31
609.06	45617.04
609.22	46197.49
609.37	45535.12
609.53	45989.19
609.68	46295.80
609.84	45701.30
609.99	46330.90
610.15	46115.58
610.30	45577.25
610.46	45598.32
610.61	46019.61
610.76	45830.03
610.92	45474.27
611.07	45464.91
611.23	45750.45
611.38	45464.91
611.54	46167.07
611.69	46014.93
611.84	46185.79
612.00	45481.29
612.15	45600.66
612.31	45612.36
612.46	45563.21
612.62	45830.03
612.77	45680.24
612.92	46047.70
613.08	45790.24
613.23	45764.49
613.39	45773.86
613.54	45806.62
613.69	45872.16
613.85	45158.30
614.00	45523.42
614.15	45970.46
614.31	45254.26
614.46	45167.66
614.62	45301.07
614.77	45406.39
614.92	45453.20
615.08	45581.93
615.23	45705.98
615.38	45560.87
615.54	45268.30
615.69	45118.51
615.84	45291.71
616.00	45553.85
616.15	45209.79
616.30	45125.53
616.46	45617.04
616.61	45120.85
616.76	45284.68
616.92	45308.09
617.07	45485.97
617.22	45209.79
617.37	45081.06
617.53	45202.77
617.68	44985.10
617.83	45092.76
617.99	45703.64
618.14	45228.51
618.29	45083.40
618.45	44594.23
618.60	44954.67
618.75	44495.92
618.90	45029.57
619.06	44877.43
619.21	45198.09
619.36	45235.53
619.51	44856.37
619.67	44708.91
619.82	45106.80
619.97	44816.58
620.12	44814.24
620.28	44369.54
620.43	45076.38
620.58	45141.91
620.73	44954.67
620.89	45216.81
621.04	45001.48
621.19	44800.19
621.34	45111.49
621.49	44353.15
621.65	44753.38
621.80	45125.53
621.95	44601.25
622.10	44957.01
622.25	44561.46
622.41	44203.36
622.56	44495.92
622.71	44980.42
622.86	44711.25
623.01	44935.95
623.16	44470.18
623.32	44952.33
623.47	44217.40
623.62	44535.71
623.77	44460.82
623.92	44563.80
624.07	44362.51
624.23	44655.08
624.38	44512.31
624.53	44233.78
624.68	44259.53
624.83	43852.28
624.98	44154.21
625.13	43768.02
625.29	43899.09
625.44	43964.62
625.59	43981.01
625.74	44091.01
625.89	43681.42
626.04	43847.60
626.19	43955.26
626.34	44074.63
626.49	43782.06
626.65	43700.14
626.80	43704.82
626.95	43386.51
627.10	43421.62
627.25	44002.07
627.40	43721.21
627.55	43346.72
627.70	43367.79
627.85	43641.63
628.00	43751.63
628.15	43655.67
628.30	43316.29
628.45	43426.30
628.60	42897.34
628.76	43524.60
628.91	43716.53
629.06	43243.74
629.21	43618.22
629.36	43058.84
629.51	43503.54
629.66	43636.95
629.81	43421.62
629.96	43344.38
630.11	43667.37
630.26	43035.43
630.41	43653.33
630.56	43229.69
630.71	43426.30
630.86	42962.87
631.01	42492.43
631.16	42899.68
631.31	42997.98
631.46	42913.72
631.61	43360.76
631.76	43388.85
631.91	43515.24
632.06	43351.40
632.21	43344.38
632.36	43288.21
632.51	42630.52
632.66	43248.42
632.81	42850.53
632.96	43157.14
633.10	42932.45
633.25	42899.68
633.40	43096.28
633.55	42824.78
633.70	42845.85
633.85	42759.25
634.00	42782.65
634.15	42595.41
634.30	42373.06
634.45	42759.25
634.60	42754.57
634.75	42508.81
634.90	42590.73
635.05	42515.83
635.19	42911.38
635.34	42380.08
635.49	42529.87
635.64	42445.62
635.79	42625.84
635.94	42337.95
636.09	42749.88
636.24	42319.23
636.39	42518.17
636.53	42651.58
636.68	42267.73
636.83	41965.81
636.98	41949.42
637.13	41851.12
637.28	41975.17
637.43	42003.25
637.57	41780.90
637.72	41813.67
637.87	41738.77
638.02	42284.12
638.17	42129.64
638.32	42232.63
638.46	41778.56
638.61	42244.33
638.76	41748.14
638.91	41914.31
639.06	41640.47
639.20	41226.20
639.35	41904.95
639.50	41460.25
639.65	41560.89
639.80	41780.90
639.94	41834.74
640.09	41738.77
640.24	41865.16
640.39	41816.01
640.54	41354.93
640.68	41893.25
640.83	41984.53
640.98	41207.47
641.13	41193.43
641.27	41588.98
641.42	41715.37
641.57	41478.97
641.72	41846.44
641.86	41383.01
642.01	41167.68
642.16	40992.14
642.31	41244.92
642.45	41649.83
642.60	40863.41
642.75	41170.02
642.90	41537.49
643.04	41155.98
643.19	40935.97
643.34	40725.32
643.48	40797.88
643.63	40655.11
643.78	40980.44
643.93	41476.63
644.07	41010.87
644.22	40975.76
644.37	41092.79
644.51	41270.67
644.66	40830.65
644.81	40961.72
644.95	40931.29
645.10	40746.39
645.25	40692.55
645.39	40575.53
645.54	40800.22
645.69	40549.78
645.83	40491.27
645.98	40481.91
646.13	40741.71
646.27	40816.60
646.42	40554.46
646.57	40364.88
646.71	41057.68
646.86	40978.10
647.00	40884.48
647.15	40840.01
647.30	40690.21
647.44	40423.39
647.59	40369.56
647.74	40280.62
647.88	40559.14
648.03	40776.81
648.17	40910.22
648.32	40664.47
648.47	40954.69
648.61	40500.63
648.76	40418.71
648.90	40002.10
649.05	40278.28
649.20	40484.25
649.34	40388.28
649.49	40002.10
649.63	40460.84
649.78	40378.92
649.92	40079.33
650.07	40793.20
650.21	40378.92
650.36	40278.28
650.51	40224.45
650.65	40734.68
650.80	39983.37
650.94	40231.47
651.09	40032.52
651.23	39643.99
651.38	39819.53
651.52	39737.62
651.67	39594.84
651.81	39938.90
651.96	39915.50
652.10	39503.56
652.25	39496.54
652.39	39655.70
652.54	39728.25
652.68	39758.68
652.83	39470.79
652.97	39861.66
653.12	40027.84
653.26	39306.96
653.41	39913.16
653.55	39313.98
653.70	39510.58
653.84	39391.22
653.99	39625.27
654.13	39838.26
654.27	39370.15
654.42	39522.29
654.56	38965.24
654.71	39594.84
654.85	39531.65
655.00	39433.35
655.14	39669.74
655.29	39716.55
655.43	39395.90
655.57	38895.02
655.72	38827.15
655.86	39079.92
656.01	39037.80
656.15	39091.63
656.30	38700.76
656.44	39164.18
656.58	39014.39
656.73	39304.62
656.87	39049.50
657.01	38363.72
657.16	39056.52
657.30	39093.97
657.45	38696.08
657.59	38682.03
657.73	38546.28
657.88	38803.74
658.02	38738.21
658.16	38998.01
658.31	38909.07
658.45	38457.34
658.60	38396.49
658.74	38181.16
658.88	38628.20
659.03	38693.74
659.17	38391.81
659.31	38359.04
659.46	38417.55
659.60	38586.07
659.74	38092.22
659.89	37860.51
660.03	37902.64
660.17	37907.32
660.32	37909.66
660.46	38022.00
660.60	37509.43
660.74	38078.18
660.89	37944.76
661.03	37535.17
661.17	37593.68
661.32	37635.81
661.46	37809.01
661.60	37691.99
661.74	38007.96
661.89	37532.83
662.03	37556.24
662.17	37455.59
662.31	37675.60
662.46	37172.39
662.60	36947.70
662.74	37233.24
662.88	37055.36
663.03	37055.36
663.17	37209.84
663.31	36650.45
663.45	36872.80
663.60	37209.84
663.74	36751.09
663.88	37287.07
664.02	36737.05
664.17	37144.30
664.31	36690.24
664.45	36395.33
664.59	36821.31
664.73	36638.75
664.88	36725.35
665.02	36601.30
665.16	36409.37
665.30	36374.27
665.44	36692.58
665.59	35878.07
665.73	35847.64
665.87	35927.22
666.01	36428.10
666.15	35676.79
666.29	36046.59
666.44	35981.06
666.58	36133.19
666.72	35681.47
666.86	35662.74
667.00	35590.19
667.14	35658.06
667.28	35622.95
667.43	35997.44
667.57	35800.83
667.71	35721.26
667.85	35782.11
667.99	35576.14
668.13	35585.50
668.27	34972.28
668.41	34883.34
668.56	34738.23
668.70	35173.57
668.84	34834.19
668.98	34649.29
669.12	34899.73
669.26	35269.53
669.40	35072.93
669.54	35171.23
669.68	34756.96
669.82	34501.84
669.96	34515.88
670.10	34291.19
670.25	34249.06
670.39	34146.08
670.53	34190.55
670.67	34295.87
670.81	34443.32
670.95	34216.29
671.09	34113.31
671.23	33968.19
671.37	34127.35
671.51	33792.65
671.65	33694.35
671.79	33722.44
671.93	33984.58
672.07	33963.51
672.21	33490.73
672.35	33188.80
672.49	33291.78
672.63	33855.85
672.77	32987.51
672.91	33612.43
673.05	33237.95
673.19	32987.51
673.33	33177.09
673.47	33083.47
673.61	32971.13
673.75	32856.44
673.89	32538.13
674.03	32587.28
674.17	32254.92
674.31	32072.36
674.45	31990.44
674.59	32414.08
674.73	32318.12
674.87	32369.61
675.01	31791.50
675.15	31585.53
675.29	31494.25
675.43	31613.62
675.56	31498.93
675.70	31667.45
675.84	31173.60
675.98	30731.23
676.12	31267.22
676.26	31103.38
676.40	31290.62
676.54	31028.48
676.68	30930.18
676.82	30625.91
676.96	30869.33
677.10	30712.51
677.23	30827.20
677.37	30731.23
677.51	30284.19
677.65	30431.65
677.79	30242.06
677.93	30476.12
678.07	30256.11
678.21	30284.19
678.34	29956.52
678.48	29284.78
678.62	29694.38
678.76	29472.03
678.90	29249.67
679.04	29603.10
679.18	30171.85
679.31	29106.90
679.45	29188.82
679.59	29006.26
679.73	29036.69
679.87	28849.44
680.00	29048.39
680.14	28896.25
680.28	28563.90
680.42	28311.12
680.56	28580.28
680.70	28219.84
680.83	28659.86
680.97	28428.15
681.11	28589.64
681.25	27779.82
681.39	27623.00
681.52	27838.33
681.66	27882.80
681.80	27082.34
681.94	27337.46
682.07	27232.13
682.21	27234.47
682.35	27040.21
682.49	27634.71
682.62	26981.70
682.76	27168.94
682.90	27187.66
683.04	27040.21
683.17	27157.24
683.31	26298.26
683.45	26415.29
683.59	26581.46
683.72	26307.62
683.86	26459.76
684.00	25944.84
684.13	26314.64
684.27	25942.50
684.41	25926.11
684.55	26031.44
684.68	25600.78
684.82	25518.86
684.96	25488.43
685.09	25305.87
685.23	25273.10
685.37	25439.28
685.50	25521.20
685.64	25319.92
685.78	25020.33
685.91	25078.84
686.05	24762.87
686.19	24484.34
686.32	24645.84
686.46	24154.33
686.60	24301.78
686.73	24563.92
686.87	24041.98
687.01	24329.87
687.14	24428.17
687.28	24023.26
687.42	24018.58
687.55	24109.86
687.69	23821.97
687.82	23557.49
687.96	23241.52
688.10	23697.92
688.23	23868.78
688.37	23456.85
688.50	23501.32
688.64	23236.84
688.78	23037.89
688.91	22991.08
689.05	23040.23
689.18	22745.33
689.32	22115.72
689.46	22405.95
689.59	22366.16
689.73	22710.22
689.86	22668.09
690.00	22422.33
690.13	22333.39
690.27	22005.72
690.41	21951.88
690.54	21986.99
690.68	21862.94
690.81	21673.36
690.95	21762.30
691.08	21537.61
691.22	21462.71
691.35	21469.73
691.49	21521.23
691.62	21397.18
691.76	20975.88
691.89	20938.43
692.03	20643.52
692.16	20739.49
692.30	20774.60
692.43	20437.56
692.57	20496.07
692.70	20652.89
692.84	20601.40
692.97	20095.84
693.11	20053.71
693.24	20187.12
693.38	20140.31
693.51	20140.31
693.65	19747.10
693.78	19882.85
693.92	19573.90
694.05	19566.88
694.19	19609.01
694.32	19433.47
694.45	19609.01
694.59	19412.40
694.72	19768.16
694.86	19239.20
694.99	18698.54
695.13	18998.13
695.26	18775.78
695.39	18768.76
695.53	18675.13
695.66	18525.34
695.80	18630.66
695.93	18675.13
696.07	18207.03
696.20	18354.48
696.33	17921.48
696.47	17965.95
696.60	17942.55
696.73	17851.27
696.87	17858.29
697.00	17757.64
697.14	17556.36
697.27	17586.79
697.40	18092.34
697.54	17385.50
697.67	17427.63
697.80	17591.47
697.94	17032.08
698.07	17156.13
698.21	17074.21
698.34	16931.44
698.47	16776.96
698.61	16524.18
698.74	16830.79
698.87	16868.24
699.01	16556.95
699.14	16287.79
699.27	16669.30
699.40	16435.24
699.54	16217.57
699.67	16341.62
699.80	16105.23
699.94	16088.84
700.07	15927.35
700.20	16407.16
700.34	15908.62
700.47	15903.94
700.60	15908.62
700.73	15754.15
700.87	15580.95
701.00	15477.96
701.13	15611.37
701.26	15351.57
701.40	15180.71
701.53	15218.16
701.66	15377.32
701.79	15377.32
701.93	14806.23
702.06	14562.81
702.19	14672.82
702.32	14979.43
702.46	14817.93
702.59	14712.61
702.72	14775.80
702.85	14693.88
702.99	14427.06
703.12	14368.55
703.25	14530.05
703.38	14111.09
703.51	14406.00
703.65	13900.44
703.78	13877.04
703.91	13921.51
704.04	13893.42
704.17	13579.79
704.31	13673.41
704.44	13760.01
704.57	13682.77
704.70	13432.33
704.83	13418.29
704.96	13160.83
705.10	13170.19
705.23	13303.60
>>>>>End Processed Spectral Data<<<<<
