SpectraSuite Data File
++++++++++++++++++++++++++++++++++++
Date: Fri Oct 25 10:47:38 EDT 2013
User: price-jones
Dark Spectrum Present: No
Reference Spectrum Present: No
Number of Sampled Component Spectra: 1
Spectrometers: USB2+H05261
Integration Time (usec): 100000 (USB2+H05261)
Spectra Averaged: 1 (USB2+H05261)
Boxcar Smoothing: 0 (USB2+H05261)
Correct for Electrical Dark: No (USB2+H05261)
Strobe/Lamp Enabled: No (USB2+H05261)
Correct for Detector Non-linearity: No (USB2+H05261)
Correct for Stray Light: No (USB2+H05261)
Number of Pixels in Processed Spectrum: 2048
>>>>>Begin Processed Spectral Data<<<<<
365.73	121.71
365.92	121.71
366.12	121.71
366.32	74.90
366.52	11.70
366.72	112.35
366.91	18.72
367.11	65.54
367.31	70.22
367.51	51.49
367.70	65.54
367.90	65.54
368.10	0.00
368.30	0.00
368.49	0.00
368.69	65.54
368.89	105.32
369.09	88.94
369.28	25.75
369.48	131.07
369.68	110.01
369.87	81.92
370.07	70.22
370.27	128.73
370.47	173.20
370.66	360.44
370.86	461.09
371.06	454.06
371.25	491.51
371.45	386.19
371.65	416.62
371.84	393.21
372.04	444.70
372.24	503.22
372.44	535.98
372.63	496.19
372.83	575.77
373.03	535.98
373.22	543.00
373.42	531.30
373.62	526.62
373.81	512.58
374.01	510.24
374.21	543.00
374.40	493.85
374.60	575.77
374.79	524.28
374.99	582.79
375.19	620.24
375.38	622.58
375.58	592.16
375.78	587.47
375.97	601.52
376.17	683.44
376.37	564.07
376.56	589.82
376.76	547.69
376.95	622.58
377.15	610.88
377.35	603.86
377.54	636.63
377.74	613.22
377.93	561.73
378.13	601.52
378.33	554.71
378.52	617.90
378.72	720.88
378.91	631.94
379.11	578.11
379.31	627.26
379.50	610.88
379.70	739.61
379.89	660.03
380.09	667.05
380.28	706.84
380.48	685.78
380.68	627.26
380.87	671.73
381.07	709.18
381.26	650.67
381.46	599.18
381.65	631.94
381.85	638.97
382.04	763.01
382.24	763.01
382.43	690.46
382.63	713.86
382.83	748.97
383.02	737.27
383.22	706.84
383.41	730.25
383.61	723.23
383.80	781.74
384.00	767.70
384.19	777.06
384.39	744.29
384.58	730.25
384.78	741.95
384.97	748.97
385.17	777.06
385.36	805.14
385.56	847.27
385.75	777.06
385.95	807.48
386.14	772.38
386.34	816.85
386.53	753.65
386.72	816.85
386.92	819.19
387.11	828.55
387.31	821.53
387.50	891.74
387.70	767.70
387.89	875.36
388.09	788.76
388.28	858.98
388.48	786.42
388.67	929.19
388.86	861.32
389.06	837.91
389.25	908.13
389.45	875.36
389.64	781.74
389.84	985.37
390.03	931.53
390.22	954.94
390.42	882.38
390.61	926.85
390.81	968.98
391.00	1039.20
391.19	1053.24
391.39	1043.88
391.58	1109.41
391.78	1046.22
391.97	968.98
392.16	1013.45
392.36	1083.67
392.55	1015.79
392.75	933.87
392.94	861.32
393.13	997.07
393.33	971.32
393.52	971.32
393.71	1048.56
393.91	1067.28
394.10	971.32
394.29	1142.18
394.49	1060.26
394.68	1107.07
394.88	1081.33
395.07	1041.54
395.26	1071.97
395.46	1067.28
395.65	1167.93
395.84	1125.80
396.04	1160.91
396.23	1172.61
396.42	1100.05
396.62	1151.54
396.81	1226.44
397.00	1235.80
397.19	1249.85
397.39	1341.13
397.58	1320.06
397.77	1242.82
397.97	1280.27
398.16	1327.08
398.35	1291.98
398.55	1275.59
398.74	1383.26
398.93	1345.81
399.12	1369.21
399.32	1296.66
399.51	1350.49
399.70	1371.55
399.90	1493.26
400.09	1397.30
400.28	1441.77
400.47	1458.15
400.67	1476.88
400.86	1486.24
401.05	1481.56
401.24	1497.94
401.44	1572.84
401.63	1570.50
401.82	1476.88
402.01	1577.52
402.21	1589.22
402.40	1664.12
402.59	1507.30
402.78	1589.22
402.97	1671.14
403.17	1577.52
403.36	1549.43
403.55	1610.29
403.74	1746.04
403.93	1664.12
404.13	1624.33
404.32	1720.29
404.51	1654.76
404.70	1659.44
404.89	1741.36
405.09	1748.38
405.28	1755.40
405.47	1755.40
405.66	1753.06
405.85	1706.25
406.05	1717.95
406.24	1811.57
406.43	1732.00
406.62	1776.47
406.81	1930.94
407.00	1926.26
407.20	1703.91
407.39	1895.83
407.58	1914.56
407.77	2047.97
407.96	1881.79
408.15	2057.33
408.34	1944.99
408.54	2040.95
408.73	1947.33
408.92	2064.35
409.11	2040.95
409.30	2036.27
409.49	2106.48
409.68	2050.31
409.87	2019.88
410.07	2108.82
410.26	2099.46
410.45	2101.80
410.64	2150.95
410.83	2242.23
411.02	2230.53
411.21	2305.43
411.40	2324.15
411.59	2401.39
411.78	2293.72
411.98	2251.60
412.17	2310.11
412.36	2394.37
412.55	2478.63
412.74	2471.61
412.93	2424.80
413.12	2518.42
413.31	2504.37
413.50	2415.43
413.69	2464.58
413.88	2588.63
414.07	2647.15
414.26	2698.64
414.45	2703.32
414.64	2672.89
414.83	2719.70
415.02	2782.90
415.22	2675.23
415.41	2925.67
415.60	2722.04
415.79	2820.35
415.98	2913.97
416.17	2850.77
416.36	2967.80
416.55	3033.33
416.74	2977.16
416.93	2949.08
417.12	3061.42
417.31	3183.13
417.50	3035.67
417.69	2974.82
417.88	3169.09
418.07	3133.98
418.26	3087.17
418.45	3061.42
418.64	3272.07
418.83	3295.47
419.02	3222.92
419.21	3215.90
419.39	3183.13
419.58	3117.59
419.77	3239.30
419.96	3325.90
420.15	3445.27
420.34	3279.09
420.53	3393.78
420.72	3417.18
420.91	3325.90
421.10	3428.88
421.29	3522.51
421.48	3571.66
421.67	3421.86
421.86	3574.00
422.05	3520.17
422.24	3534.21
422.43	3492.08
422.61	3562.30
422.80	3524.85
422.99	3503.78
423.18	3660.60
423.37	3761.24
423.56	3620.81
423.75	3548.25
423.94	3583.36
424.13	3370.37
424.32	3417.18
424.50	3557.61
424.69	3714.43
424.88	3705.07
425.07	3606.77
425.26	3571.66
425.45	3625.49
425.64	3590.38
425.83	3662.94
426.01	3735.50
426.20	3747.20
426.39	3826.78
426.58	3634.85
426.77	3613.79
426.96	3620.81
427.15	3616.13
427.33	3637.19
427.52	3719.11
427.71	3845.50
427.90	3843.16
428.09	3817.41
428.28	3700.39
428.46	3742.52
428.65	3906.35
428.84	3976.57
429.03	3960.19
429.22	3754.22
429.40	3723.79
429.59	3894.65
429.78	3707.41
429.97	3882.95
430.16	3791.67
430.34	3927.42
430.53	3927.42
430.72	3950.82
430.91	3864.22
431.10	4016.36
431.28	4098.28
431.47	4215.30
431.66	4278.50
431.85	4126.36
432.03	4205.94
432.22	4278.50
432.41	4198.92
432.60	4369.78
432.79	4470.42
432.97	4266.80
433.16	4294.88
433.35	4243.39
433.54	4362.76
433.72	4292.54
433.91	4273.82
434.10	4262.12
434.28	4409.57
434.47	4430.63
434.66	4498.51
434.85	4617.88
435.03	4500.85
435.22	4512.55
435.41	4685.75
435.59	4610.86
435.78	4571.07
435.97	4706.82
436.16	4739.58
436.34	4690.43
436.53	4798.10
436.72	4936.19
436.90	4781.71
437.09	4802.78
437.28	4613.20
437.46	4842.57
437.65	4877.68
437.84	4844.91
438.02	4725.54
438.21	4631.92
438.40	4678.73
438.58	5032.15
438.77	5018.11
438.96	4894.06
439.14	5034.49
439.33	4980.66
439.52	5205.35
439.70	5146.84
439.89	5224.08
440.08	5151.52
440.26	5156.20
440.45	5067.26
440.63	5416.00
440.82	5521.32
441.01	5289.61
441.19	5423.02
441.38	5493.24
441.57	5542.39
441.75	5591.54
441.94	5760.06
442.12	5591.54
442.31	5884.11
442.50	5891.13
442.68	5722.61
442.87	5724.95
443.05	5769.42
443.24	5898.15
443.43	5825.59
443.61	5959.00
443.80	6111.14
443.98	5846.66
444.17	5720.27
444.35	5853.68
444.54	6026.88
444.73	6033.90
444.91	5792.83
445.10	5966.03
445.28	5804.53
445.47	5853.68
445.65	5750.70
445.84	6001.13
446.02	6087.73
446.21	6064.33
446.39	6043.26
446.58	6078.37
446.77	6033.90
446.95	6078.37
447.14	5884.11
447.32	6207.10
447.51	6141.57
447.69	6097.10
447.88	6094.76
448.06	6085.39
448.25	6101.78
448.43	6253.91
448.62	6230.51
448.80	6073.69
448.99	6097.10
449.17	6221.14
449.36	6001.13
449.54	6286.68
449.73	6520.73
449.91	6516.05
450.10	6513.71
450.28	6633.08
450.46	6593.29
450.65	6401.37
450.83	6466.90
451.02	6410.73
451.20	6464.56
451.39	6441.15
451.57	6604.99
451.76	6623.72
451.94	6773.51
452.13	6548.82
452.31	6670.53
452.49	6565.20
452.68	6532.44
452.86	6579.25
453.05	6862.45
453.23	6703.29
453.42	6712.66
453.60	6715.00
453.78	6738.40
453.97	6621.38
454.15	6911.60
454.34	6780.53
454.52	6885.86
454.70	6930.33
454.89	6803.94
455.07	6813.30
455.26	6867.13
455.44	7084.80
455.62	6965.43
455.81	7131.61
455.99	7096.50
456.17	7162.04
456.36	7178.42
456.54	7164.38
456.73	7297.79
456.91	7234.60
457.09	7510.78
457.28	7571.63
457.46	7225.23
457.64	7440.56
457.83	7372.69
458.01	7377.37
458.19	7616.10
458.38	7482.69
458.56	7676.96
458.74	7503.76
458.93	7501.42
459.11	7555.25
459.29	7681.64
459.48	7641.85
459.66	7775.26
459.84	7646.53
460.03	7864.20
460.21	7786.96
460.39	7576.31
460.57	8016.33
460.76	7817.39
460.94	7829.09
461.12	7948.46
461.31	7925.05
461.49	7892.29
461.67	7985.91
461.85	8023.36
462.04	7873.56
462.22	8645.94
462.40	8177.83
462.59	8283.16
462.77	8257.41
462.95	8292.52
463.13	8065.49
463.32	8496.14
463.50	8353.37
463.68	8208.26
463.86	8259.75
464.05	8161.45
464.23	8278.47
464.41	8290.18
464.59	8180.17
464.78	8358.05
464.96	8212.94
465.14	8386.14
465.32	8510.19
465.50	8531.25
465.69	8510.19
465.87	8451.67
466.05	8489.12
466.23	8559.34
466.41	8395.50
466.60	8561.68
466.78	8449.33
466.96	8404.86
467.14	8636.58
467.32	8823.82
467.51	8725.52
467.69	8470.40
467.87	8704.45
468.05	8795.73
468.23	8648.28
468.41	8767.65
468.60	8702.11
468.78	8858.93
468.96	8725.52
469.14	8931.48
469.32	8854.25
469.50	8580.40
469.69	8950.21
469.87	9163.20
470.05	9090.64
470.23	9142.13
470.41	9217.03
470.59	8975.95
470.77	8990.00
470.95	9146.81
471.14	9118.73
471.32	9015.74
471.50	9490.87
471.68	9418.32
471.86	9525.98
472.04	9600.88
472.22	9797.48
472.40	9413.63
472.58	9476.83
472.77	9757.69
472.95	9811.53
473.13	10207.08
473.31	9692.16
473.49	9891.10
473.67	9743.65
473.85	10085.37
474.03	10090.05
474.21	10125.16
474.39	10092.39
474.57	10328.78
474.75	10291.34
474.93	10228.14
475.12	10195.37
475.30	10597.95
475.48	10289.00
475.66	10466.88
475.84	10520.71
476.02	10619.01
476.20	10415.38
476.38	10864.77
476.56	10862.43
476.74	10881.15
476.92	11033.29
477.10	10934.98
477.28	11241.59
477.46	11049.67
477.64	11131.59
477.82	11307.13
478.00	11613.74
478.18	11356.28
478.36	11634.80
478.54	11672.25
478.72	11702.68
478.90	11712.04
479.08	12044.40
479.26	11955.46
479.44	12210.57
479.62	12292.49
479.80	12301.86
479.98	12484.42
480.16	12547.61
480.34	12327.60
480.52	12573.36
480.70	12580.38
480.88	12538.25
481.06	12826.14
481.24	13034.44
481.41	13015.72
481.59	13135.09
481.77	13451.06
481.95	13458.08
482.13	13467.44
482.31	13280.20
482.49	13790.44
482.67	13764.69
482.85	13947.25
483.03	13687.45
483.21	14005.77
483.39	14064.28
483.57	14129.81
483.74	14373.23
483.92	14560.47
484.10	14403.66
484.28	14429.40
484.46	14902.19
484.64	15213.48
484.82	14820.27
485.00	15007.52
485.18	15307.10
485.35	15337.53
485.53	15681.59
485.71	15164.33
485.89	15452.22
486.07	15351.57
486.25	15604.35
486.43	15524.77
486.61	16175.44
486.78	16414.18
486.96	15981.18
487.14	16856.54
487.32	16631.85
487.50	16959.52
487.68	17029.74
487.85	17137.40
488.03	17209.96
488.21	16929.09
488.39	17408.90
488.57	17455.72
488.75	17408.90
488.92	17804.46
489.10	18075.96
489.28	17933.18
489.46	18118.09
489.64	17916.80
489.81	18843.65
489.99	18518.32
490.17	18684.50
490.35	18913.87
490.53	18948.98
490.70	18878.76
490.88	19098.77
491.06	19300.06
491.24	19316.44
491.41	19562.20
491.59	19517.73
491.77	19377.30
491.95	19557.52
492.13	19924.98
492.30	20126.27
492.48	20297.13
492.66	20439.90
492.84	20231.59
493.01	20585.01
493.19	20390.75
493.37	20809.70
493.54	21015.67
493.72	20826.09
493.90	21605.49
494.08	21542.29
494.25	21371.43
494.43	21249.72
494.61	21689.74
494.79	21584.42
494.96	21867.63
495.14	21979.97
495.32	21930.82
495.49	21862.94
495.67	22054.87
495.85	22157.85
496.02	22569.79
496.20	22874.06
496.38	23035.55
496.55	22719.58
496.73	23562.17
496.91	23183.01
497.09	23166.62
497.26	23482.59
497.44	23496.64
497.62	23718.99
497.79	23576.22
497.97	23175.98
498.14	23990.49
498.32	23850.06
498.50	23824.31
498.67	24250.29
498.85	24224.54
499.03	24264.33
499.20	24189.44
499.38	24339.23
499.56	24613.07
499.73	24915.00
499.91	24486.68
500.08	24924.36
500.26	24685.63
500.44	25032.03
500.61	25167.78
500.79	24833.08
500.97	25355.02
501.14	25797.38
501.32	25544.61
501.49	25525.88
501.67	25289.49
501.84	25413.54
502.02	26232.72
502.20	25848.88
502.37	25757.60
502.55	26307.62
502.72	26225.70
502.90	26260.81
503.07	25993.99
503.25	26115.70
503.43	26204.64
503.60	26452.73
503.78	26670.40
503.95	26455.08
504.13	26562.74
504.30	26911.48
504.48	26803.82
504.65	27082.34
504.83	27503.64
505.01	27314.05
505.18	26890.41
505.36	27417.04
505.53	27655.77
505.71	27211.07
505.88	27761.09
506.06	27573.85
506.23	27985.79
506.41	27922.59
506.58	28161.33
506.76	27946.00
506.93	28264.31
507.11	28067.70
507.28	28130.90
507.46	28409.42
507.63	28051.32
507.81	28584.96
507.98	28222.18
508.16	28549.85
508.33	28599.01
508.50	28814.34
508.68	29209.89
508.85	29771.61
509.03	29399.47
509.20	28779.23
509.38	29479.05
509.55	29247.33
509.73	29778.64
509.90	29699.06
510.08	29371.38
510.25	29507.13
510.42	29919.07
510.60	30380.15
510.77	29706.08
510.95	30333.34
511.12	29900.34
511.30	30410.58
511.47	30148.44
511.64	30279.51
511.82	30370.79
511.99	30546.33
512.17	30391.86
512.34	30319.30
512.51	30864.64
512.69	30759.32
512.86	30756.98
513.04	31019.12
513.21	30888.05
513.38	31133.81
513.56	30843.58
513.73	31110.40
513.90	31068.27
514.08	30913.80
514.25	31735.32
514.43	31058.91
514.60	31314.03
514.77	31693.19
514.95	31943.63
515.12	31470.84
515.29	32137.90
515.47	32095.77
515.64	32304.07
515.81	31819.58
515.99	32177.68
516.16	32034.91
516.33	31702.56
516.51	31934.27
516.68	32027.89
516.85	31651.06
517.03	32325.14
517.20	32184.71
517.37	32236.20
517.54	32545.15
517.72	32811.97
517.89	32400.04
518.06	32161.30
518.24	32608.34
518.41	32130.87
518.58	32725.37
518.75	32547.49
518.93	33139.65
519.10	33163.05
519.27	32723.03
519.45	33083.47
519.62	32968.79
519.79	33219.22
519.96	33647.54
520.14	33647.54
520.31	33158.37
520.48	33486.04
520.65	33589.03
520.83	34293.53
521.00	34029.05
521.17	34122.67
521.34	34274.80
521.52	34298.21
521.69	34122.67
521.86	34611.84
522.03	34335.66
522.20	34607.16
522.38	34618.86
522.55	34869.30
522.72	34689.08
522.89	34490.13
523.07	34651.63
523.24	34693.76
523.41	35086.97
523.58	35021.44
523.75	35302.30
523.92	35208.68
524.10	35370.18
524.27	35253.15
524.44	35564.44
524.61	35416.99
524.78	35519.97
524.96	35491.88
525.13	35737.64
525.30	35821.90
525.47	35658.06
525.64	35737.64
525.81	35569.12
525.98	35775.09
526.16	35672.10
526.33	35459.12
526.50	36367.24
526.67	35225.06
526.84	35496.56
527.01	35651.04
527.18	35922.54
527.36	36367.24
527.53	36194.04
527.70	36636.41
527.87	36622.36
528.04	36425.76
528.21	36605.98
528.38	36512.36
528.55	36641.09
528.72	37041.32
528.89	36928.97
529.07	37270.69
529.24	36563.85
529.41	36994.51
529.58	36657.47
529.75	37092.81
529.92	37212.18
530.09	36903.23
530.26	37275.37
530.43	37376.01
530.60	37118.56
530.77	37209.84
530.94	37354.95
531.11	37263.67
531.28	37277.71
531.46	37713.05
531.63	37659.22
531.80	37619.43
531.97	37881.57
532.14	37801.99
532.31	37270.69
532.48	38206.90
532.65	38202.22
532.82	38017.32
532.99	38164.78
533.16	38096.90
533.33	37914.34
533.50	38705.44
533.67	38068.81
533.84	38092.22
534.01	38529.90
534.18	38113.28
534.35	38644.59
534.52	38054.77
534.69	38405.85
534.86	38143.71
535.03	38572.03
535.20	38628.20
535.37	38909.07
535.54	38787.36
535.71	38822.47
535.88	38719.48
536.05	38824.81
536.22	38700.76
536.38	38621.18
536.55	38902.04
536.72	39152.48
536.89	38462.02
537.06	38885.66
537.23	39260.15
537.40	38651.61
537.57	39091.63
537.74	39470.79
537.91	39831.24
538.08	39592.50
538.25	39395.90
538.42	39164.18
538.59	39583.14
538.75	38969.92
538.92	39700.17
539.09	40093.38
539.26	39789.11
539.43	39339.72
539.60	39899.11
539.77	39821.87
539.94	39704.85
540.11	39517.60
540.28	39847.62
540.44	39704.85
540.61	39913.16
540.78	39854.64
540.95	39826.56
541.12	40116.78
541.29	39529.31
541.46	40531.06
541.62	40240.83
541.79	40547.44
541.96	39913.16
542.13	40243.17
542.30	40367.22
542.47	40470.20
542.63	40465.52
542.80	40252.53
542.97	41193.43
543.14	41392.37
543.31	40811.92
543.48	40840.01
543.64	41294.07
543.81	40931.29
543.98	40964.06
544.15	40858.73
544.32	41172.36
544.48	41436.84
544.65	41331.52
544.82	41289.39
544.99	40507.65
545.16	41172.36
545.32	40996.82
545.49	41656.85
545.66	41329.18
545.83	41102.15
546.00	41553.87
546.16	41560.89
546.33	41357.27
546.50	41120.87
546.67	41315.14
546.83	41244.92
547.00	41514.08
547.17	41818.35
547.34	41500.04
547.50	41724.73
547.67	42110.92
547.84	41954.10
548.00	42101.56
548.17	42380.08
548.34	41378.33
548.51	42036.02
548.67	42628.18
548.84	42738.18
549.01	41745.80
549.18	41928.36
549.34	41890.91
549.51	42347.31
549.68	42405.83
549.84	42260.71
550.01	42433.91
550.18	42092.19
550.34	42328.59
550.51	42389.44
550.68	42401.14
550.84	42295.82
551.01	42298.16
551.18	42387.10
551.34	42232.63
551.51	42649.24
551.68	42574.34
551.84	42946.49
552.01	42323.91
552.18	42335.61
552.34	42616.47
552.51	42810.74
552.68	42799.04
552.84	42855.21
553.01	43105.65
553.18	42820.10
553.34	42689.03
553.51	42511.15
553.67	43035.43
553.84	42864.57
554.01	43173.52
554.17	43225.01
554.34	43217.99
554.51	43157.14
554.67	43175.86
554.84	43100.97
555.00	43217.99
555.17	42934.79
555.33	43269.48
555.50	42848.19
555.67	42827.12
555.83	43012.02
556.00	43627.59
556.16	43929.51
556.33	43533.96
556.50	43072.88
556.66	43217.99
556.83	43143.09
556.99	43566.73
557.16	43625.25
557.32	43370.13
557.49	43711.84
557.65	43009.68
557.82	43407.58
557.98	43473.11
558.15	43234.38
558.32	43433.32
558.48	43552.69
558.65	43669.72
558.81	43496.52
558.98	44210.38
559.14	43796.10
559.31	43842.92
559.47	43938.88
559.64	43901.43
559.80	44156.55
559.97	43899.09
560.13	43742.27
560.30	43833.55
560.46	43999.73
560.63	43873.34
560.79	43732.91
560.96	43927.17
561.12	44215.06
561.29	44055.90
561.45	44100.37
561.61	43927.17
561.78	43779.72
561.94	43924.83
562.11	44327.41
562.27	43749.29
562.44	44369.54
562.60	44442.09
562.77	44278.25
562.93	44168.25
563.10	44285.28
563.26	44231.44
563.42	44320.38
563.59	44023.14
563.75	44662.10
563.92	44425.71
564.08	44252.51
564.24	44758.06
564.41	44385.92
564.57	44479.54
564.74	44402.30
564.90	44259.53
565.07	44353.15
565.23	44250.17
565.39	44610.61
565.56	44495.92
565.72	43899.09
565.88	44243.15
566.05	44182.29
566.21	44790.83
566.38	44388.26
566.54	44505.29
566.70	44802.53
566.87	44699.55
567.03	44502.95
567.19	44683.17
567.36	44264.21
567.52	44144.84
567.68	44854.03
567.85	44968.71
568.01	44147.18
568.17	44374.22
568.34	44776.79
568.50	44631.68
568.66	44385.92
568.83	44460.82
568.99	44629.34
569.15	44680.83
569.32	44575.50
569.48	44802.53
569.64	44739.34
569.81	44619.97
569.97	44350.81
570.13	44575.50
570.30	44278.25
570.46	44570.82
570.62	44748.70
570.78	44346.13
570.95	44762.75
571.11	45109.14
571.27	44744.02
571.43	45027.23
571.60	44753.38
571.76	44566.14
571.92	44402.30
572.09	44481.88
572.25	44566.14
572.41	44907.86
572.57	44516.99
572.74	45483.63
572.90	44872.75
573.06	44949.99
573.22	44666.78
573.38	45048.29
573.55	44570.82
573.71	44959.35
573.87	44856.37
574.03	44657.42
574.20	44825.94
574.36	44563.80
574.52	44814.24
574.68	44809.56
574.84	44816.58
575.01	44989.78
575.17	44931.26
575.33	44725.30
575.49	44788.49
575.65	45034.25
575.82	45181.70
575.98	44622.31
576.14	44849.35
576.30	45029.57
576.46	45088.08
576.62	44615.29
576.79	44495.92
576.95	44327.41
577.11	44893.82
577.27	44971.05
577.43	45184.04
577.59	45031.91
577.75	44844.66
577.92	44568.48
578.08	44669.12
578.24	44814.24
578.40	45120.85
578.56	44825.94
578.72	44687.85
578.88	45104.46
579.04	45188.72
579.21	44664.44
579.37	45020.20
579.53	45289.37
579.69	44875.09
579.85	44949.99
580.01	45038.93
580.17	45228.51
580.33	45312.77
580.49	44935.95
580.65	45024.89
580.82	45160.64
580.98	44741.68
581.14	45233.19
581.30	45551.51
581.46	44933.60
581.62	45123.19
581.78	44973.39
581.94	45404.05
582.10	45240.21
582.26	44905.52
582.42	45132.55
582.58	45270.64
582.74	45125.53
582.90	44229.10
583.06	45059.99
583.22	45109.14
583.38	45085.74
583.54	45029.57
583.70	44657.42
583.86	44708.91
584.02	44692.53
584.18	45090.42
584.34	45043.61
584.50	45172.34
584.66	45074.04
584.82	45165.32
584.98	45067.02
585.14	45230.85
585.30	44940.63
585.46	45132.55
585.62	44985.10
585.78	44636.36
585.94	44685.51
586.10	44926.58
586.26	44430.39
586.42	45177.02
586.58	45062.33
586.74	45116.17
586.90	44708.91
587.06	44823.60
587.22	45015.52
587.38	45315.11
587.54	45167.66
587.70	45319.79
587.86	45258.94
588.02	45139.57
588.18	45886.20
588.34	45125.53
588.49	44685.51
588.65	44737.00
588.81	44907.86
588.97	44814.24
589.13	44870.41
589.29	45045.95
589.45	45130.21
589.61	45404.05
589.77	45390.01
589.93	45097.44
590.08	45418.10
590.24	45507.04
590.40	45401.71
590.56	45333.84
590.72	45668.53
590.88	45158.30
591.04	45326.81
591.20	45979.82
591.35	45368.94
591.51	45797.26
591.67	45083.40
591.83	45322.13
591.99	44994.46
592.15	45397.03
592.31	45776.20
592.46	45078.72
592.62	44821.26
592.78	45059.99
592.94	45078.72
593.10	45200.43
593.26	45186.38
593.41	45310.43
593.57	45347.88
593.73	45216.81
593.89	45228.51
594.05	45528.10
594.20	45226.17
594.36	45221.49
594.52	45483.63
594.68	45179.36
594.84	45518.74
594.99	45928.33
595.15	45301.07
595.31	45492.99
595.47	45680.24
595.62	45549.17
595.78	45645.13
595.94	45563.21
596.10	45766.84
596.25	45539.80
596.41	45820.67
596.57	45530.44
596.73	45659.17
596.88	45413.41
597.04	45427.46
597.20	45399.37
597.36	45794.92
597.51	45909.61
597.67	45560.87
597.83	45823.01
597.99	45794.92
598.14	45347.88
598.30	45485.97
598.46	45731.73
598.61	45315.11
598.77	45184.04
598.93	45481.29
599.09	45298.73
599.24	45930.67
599.40	45720.02
599.56	45654.49
599.71	45542.14
599.87	45666.19
600.03	45588.95
600.18	45111.49
600.34	45242.56
600.50	45865.14
600.65	45631.08
600.81	45258.94
600.97	45598.32
601.12	45509.38
601.28	45216.81
601.44	45202.77
601.59	45563.21
601.75	45413.41
601.91	45368.94
602.06	44933.60
602.22	45762.15
602.37	45350.22
602.53	45408.73
602.69	45614.70
602.84	45652.15
603.00	45385.33
603.16	45436.82
603.31	45450.86
603.47	45471.93
603.62	44760.40
603.78	45888.54
603.94	45380.65
604.09	45485.97
604.25	45642.79
604.40	45731.73
604.56	45390.01
604.71	45200.43
604.87	45497.67
605.03	45343.20
605.18	45595.98
605.34	45272.98
605.49	45069.36
605.65	45120.85
605.80	45429.80
605.96	45453.20
606.12	45633.42
606.27	45148.93
606.43	45340.86
606.58	45600.66
606.74	45319.79
606.89	45666.19
607.05	45743.43
607.20	45537.46
607.36	45305.75
607.51	45780.88
607.67	45200.43
607.82	45155.96
607.98	45090.42
608.13	45120.85
608.29	44938.29
608.44	44645.72
608.60	44924.24
608.75	44882.11
608.91	45256.60
609.06	44713.59
609.22	45076.38
609.37	45034.25
609.53	45097.44
609.68	45254.26
609.84	44952.33
609.99	44994.46
610.15	44704.23
610.30	44898.50
610.46	44697.21
610.61	44542.74
610.76	44795.51
610.92	45249.58
611.07	44472.52
611.23	45038.93
611.38	45008.50
611.54	44692.53
611.69	44697.21
611.84	44491.24
612.00	44886.79
612.15	44884.45
612.31	44900.84
612.46	44704.23
612.62	44634.02
612.77	44875.09
612.92	44732.32
613.08	44945.31
613.23	44910.20
613.39	44467.84
613.54	44411.67
613.69	44570.82
613.85	44313.36
614.00	44608.27
614.15	45045.95
614.31	44626.99
614.46	44914.88
614.62	44872.75
614.77	44762.75
614.92	44301.66
615.08	44254.85
615.23	44521.67
615.38	44587.21
615.54	43990.37
615.69	44322.72
615.84	43990.37
616.00	44107.40
616.15	44388.26
616.30	44285.28
616.46	44072.29
616.61	44044.20
616.76	43658.01
616.92	44088.67
617.07	43548.01
617.22	44505.29
617.37	43973.98
617.53	44383.58
617.68	43716.53
617.83	44355.49
617.99	44399.96
618.14	44034.84
618.29	43812.49
618.45	43681.42
618.60	43782.06
618.75	44376.56
618.90	43796.10
619.06	44069.95
619.21	43700.14
619.36	43732.91
619.51	43606.52
619.67	43625.25
619.82	43543.33
619.97	44163.57
620.12	43510.56
620.28	43285.87
620.43	43150.12
620.58	43325.66
620.73	43452.05
620.89	43374.81
621.04	43765.68
621.19	43751.63
621.34	43353.74
621.49	43302.25
621.65	43063.52
621.80	43482.47
621.95	43096.28
622.10	43416.94
622.25	43423.96
622.41	43398.21
622.56	42857.55
622.71	43423.96
622.86	43384.17
623.01	43225.01
623.16	43145.44
623.32	42976.92
623.47	43253.10
623.62	43215.65
623.77	42960.53
623.92	42876.27
624.07	42803.72
624.23	43370.13
624.38	42841.17
624.53	42763.93
624.68	42426.89
624.83	43065.86
624.98	42850.53
625.13	42466.68
625.29	42550.94
625.44	42969.90
625.59	42513.49
625.74	42232.63
625.89	42494.77
626.04	42300.50
626.19	42745.20
626.34	42817.76
626.49	42597.75
626.65	42532.22
626.80	42667.97
626.95	42801.38
627.10	42328.59
627.25	42033.68
627.40	42581.37
627.55	42129.64
627.70	42045.38
627.85	42036.02
628.00	42220.92
628.15	42557.96
628.30	42464.34
628.45	42251.35
628.60	42096.88
628.76	42602.43
628.91	42181.13
629.06	42300.50
629.21	42197.52
629.36	41876.86
629.51	42078.15
629.66	42218.58
629.81	41956.44
629.96	42190.50
630.11	42237.31
630.26	42167.09
630.41	41839.42
630.56	41783.24
630.71	41617.07
630.86	42003.25
631.01	41354.93
631.16	41799.63
631.31	41530.47
631.46	41521.10
631.61	41603.02
631.76	41493.02
631.91	41495.36
632.06	41694.30
632.21	41865.16
632.36	41780.90
632.51	41310.46
632.66	41345.56
632.81	40961.72
632.96	41310.46
633.10	41237.90
633.25	41228.54
633.40	41193.43
633.55	41713.03
633.70	41043.63
633.85	41027.25
634.00	40982.78
634.15	41181.73
634.30	41347.90
634.45	40989.80
634.60	41055.34
634.75	41565.57
634.90	41254.28
635.05	40886.82
635.19	41193.43
635.34	40858.73
635.49	41116.19
635.64	40795.54
635.79	40563.82
635.94	40821.28
636.09	41146.62
636.24	40935.97
636.39	40535.74
636.53	40163.59
636.68	40737.02
636.83	41045.97
636.98	40999.16
637.13	40074.65
637.28	40830.65
637.43	41010.87
637.57	40531.06
637.72	40664.47
637.87	40715.96
638.02	40591.91
638.17	40825.96
638.32	40231.47
638.46	40177.64
638.61	40540.42
638.76	40144.87
638.91	40807.24
639.06	40362.54
639.20	40327.43
639.35	40666.81
639.50	40460.84
639.65	40933.63
639.80	40161.25
639.94	39782.09
640.09	39983.37
640.24	40058.27
640.39	40187.00
640.54	40170.61
640.68	40215.08
640.83	39952.94
640.98	39821.87
641.13	40095.72
641.27	40559.14
641.42	39826.56
641.57	40081.67
641.72	39737.62
641.86	39615.91
642.01	39941.24
642.16	39686.12
642.31	39632.29
642.45	39913.16
642.60	39550.37
642.75	39569.10
642.90	39210.99
643.04	39751.66
643.19	39707.19
643.34	39473.13
643.48	39557.39
643.63	39824.22
643.78	39643.99
643.93	39278.87
644.07	39339.72
644.22	39203.97
644.37	39435.69
644.51	39005.03
644.66	39208.65
644.81	39096.31
644.95	39613.57
645.10	39454.41
645.25	39599.52
645.39	39793.79
645.54	39129.08
645.69	39173.55
645.83	39112.69
645.98	39189.93
646.13	38820.13
646.27	39077.58
646.42	39168.87
646.57	39388.88
646.71	39178.23
646.86	39026.09
647.00	39332.70
647.15	39187.59
647.30	39225.04
647.44	39089.29
647.59	38787.36
647.74	39033.11
647.88	38993.32
648.03	38677.35
648.17	39412.28
648.32	38506.49
648.47	38579.05
648.61	38782.68
648.76	39075.24
648.90	38960.56
649.05	38888.00
649.20	38890.34
649.34	38686.71
649.49	38909.07
649.63	38693.74
649.78	38384.79
649.92	38206.90
650.07	38862.26
650.21	38373.08
650.36	38462.02
650.51	38293.50
650.65	39002.69
650.80	39051.84
650.94	38436.28
651.09	38426.92
651.23	38375.42
651.38	38223.29
651.52	38368.40
651.67	38096.90
651.81	38232.65
651.96	38064.13
652.10	38089.88
652.25	37827.74
652.39	37872.21
652.54	38117.96
652.68	38291.16
652.83	38059.45
652.97	38401.17
653.12	38272.44
653.26	38232.65
653.41	38476.07
653.55	38022.00
653.70	37565.60
653.84	38178.82
653.99	37771.57
654.13	38059.45
654.27	37495.38
654.42	37928.38
654.56	38295.85
654.71	37968.17
654.85	37741.14
655.00	37687.31
655.14	37359.63
655.29	37148.98
655.43	37251.97
655.57	36938.33
655.72	37773.91
655.86	37062.38
656.01	37347.93
656.15	37144.30
656.30	37598.37
656.44	36886.84
656.58	37237.92
656.73	36952.38
656.87	36629.38
657.01	36877.48
657.16	36687.90
657.30	36865.78
657.45	36687.90
657.59	36746.41
657.73	36856.42
657.88	37095.15
658.02	36935.99
658.16	36865.78
658.31	36905.57
658.45	36886.84
658.60	36404.69
658.74	36868.12
658.88	36737.05
659.03	36713.64
659.17	36701.94
659.31	36208.09
659.46	36385.97
659.60	36900.89
659.74	36505.34
659.89	36580.23
660.03	36524.06
660.17	36608.32
660.32	36126.17
660.46	36481.93
660.60	36959.40
660.74	36357.88
660.89	36233.83
661.03	36137.87
661.17	35835.94
661.32	35754.02
661.46	35931.90
661.60	35688.49
661.74	36226.81
661.89	35555.08
662.03	36039.57
662.17	35747.00
662.31	35665.08
662.46	35901.48
662.60	35559.76
662.74	35599.55
662.88	35449.75
663.03	35653.38
663.17	35653.38
663.31	35360.81
663.45	35426.35
663.60	35431.03
663.74	35044.84
663.88	35049.52
664.02	34998.03
664.17	35342.09
664.31	35236.77
664.45	34586.10
664.59	35021.44
664.73	35255.49
664.88	34969.94
665.02	34742.91
665.16	34780.36
665.30	34455.03
665.44	34623.54
665.59	34483.11
665.73	34677.38
665.87	33947.13
666.01	34497.16
666.15	34242.04
666.29	34436.30
666.44	34256.08
666.58	34546.31
666.72	34043.09
666.86	34431.62
667.00	34927.81
667.14	34263.10
667.28	34103.95
667.43	33722.44
667.57	34080.54
667.71	33914.36
667.85	34178.84
667.99	33727.12
668.13	33692.01
668.27	33841.81
668.41	33670.95
668.56	33467.32
668.70	33628.82
668.84	33343.27
668.98	33371.36
669.12	33493.07
669.26	33221.56
669.40	33116.24
669.54	33027.30
669.68	33071.77
669.82	33198.16
669.96	33308.16
670.10	32636.43
670.25	33308.16
670.39	33036.66
670.53	32716.01
670.67	32601.32
670.81	32706.65
670.95	32957.08
671.09	32753.46
671.23	32914.95
671.37	33027.30
671.51	32840.06
671.65	32554.51
671.79	32182.37
671.93	31857.03
672.07	32561.53
672.21	32254.92
672.35	32046.62
672.49	31889.80
672.63	31882.78
672.77	32243.22
672.91	32034.91
673.05	31559.78
673.19	31651.06
673.33	31517.65
673.47	31534.04
673.61	31255.51
673.75	31407.65
673.89	30918.48
674.03	31370.20
674.17	31122.10
674.31	31051.89
674.45	30911.46
674.59	31108.06
674.73	30932.52
674.87	30899.75
675.01	31161.89
675.15	31021.46
675.29	31065.93
675.43	30682.08
675.56	30639.95
675.70	30438.67
675.84	30422.28
675.98	29247.33
676.12	30277.17
676.26	29663.95
676.40	30092.27
676.54	30195.25
676.68	29575.01
676.82	29350.32
676.96	29823.11
677.10	29612.46
677.23	29530.54
677.37	29778.64
677.51	29394.79
677.65	29214.57
677.79	28926.68
677.93	29425.22
678.07	29149.03
678.21	29024.98
678.34	28753.48
678.48	28561.56
678.62	28577.94
678.76	28910.30
678.90	28446.87
679.04	28512.41
679.18	28386.02
679.31	28245.58
679.45	27875.78
679.59	28180.05
679.73	27791.52
679.87	27990.47
680.00	27896.85
680.14	27463.85
680.28	27447.46
680.42	27257.88
680.56	27414.69
680.70	27307.03
680.83	27669.81
680.97	27178.30
681.11	26993.40
681.25	27201.71
681.39	27190.00
681.52	26953.61
681.66	27190.00
681.80	27094.04
681.94	26731.26
682.07	26466.78
682.21	26167.19
682.35	26525.29
682.49	26256.13
682.62	26506.57
682.76	25991.65
682.90	26094.63
683.04	26031.44
683.17	26183.57
683.31	26167.19
683.45	26045.48
683.59	25839.51
683.72	25207.57
683.86	25338.64
684.00	25308.21
684.13	25745.89
684.27	25312.89
684.41	25228.63
684.55	25111.61
684.68	24879.89
684.82	24889.26
684.96	24802.66
685.09	25160.76
685.23	24596.69
685.37	24418.81
685.50	24496.05
685.64	24622.44
685.78	24240.93
685.91	24563.92
686.05	24018.58
686.19	24116.88
686.32	23754.10
686.46	23803.25
686.60	23681.54
686.73	23688.56
686.87	23489.62
687.01	23396.00
687.14	23281.31
687.28	23295.35
687.42	23405.36
687.55	23014.49
687.69	23089.38
687.82	23021.51
687.96	22864.69
688.10	22939.59
688.23	22572.13
688.37	22616.60
688.50	22487.87
688.64	22600.21
688.78	22450.42
688.91	22574.47
689.05	22286.58
689.18	21998.70
689.32	21495.48
689.46	21816.13
689.59	22319.35
689.73	22080.61
689.86	21830.18
690.00	21774.00
690.13	21937.84
690.27	21411.22
690.41	21610.17
690.54	21247.38
690.68	21191.21
690.81	21411.22
690.95	21128.02
691.08	21074.18
691.22	20922.05
691.35	20816.72
691.49	21036.74
691.62	20922.05
691.76	21041.42
691.89	20772.25
692.03	20615.44
692.16	20355.64
692.30	20357.98
692.43	20318.19
692.57	20512.46
692.70	20144.99
692.84	20226.91
692.97	19932.00
693.11	19690.93
693.24	20128.61
693.38	19655.82
693.51	19833.70
693.65	19639.44
693.78	19489.64
693.92	19234.52
694.05	19304.74
694.19	19407.72
694.32	19557.52
694.45	19405.38
694.59	18963.02
694.72	18899.83
694.86	18934.93
694.99	18958.34
695.13	18735.99
695.26	18300.65
695.39	18293.63
695.53	18139.15
695.66	18595.56
695.80	18354.48
695.93	18274.90
696.07	18157.88
696.20	18286.61
696.33	17958.93
696.47	17671.04
696.60	17867.65
696.73	17816.16
696.87	17689.77
697.00	17851.27
697.14	17767.01
697.27	17664.02
697.40	17799.77
697.54	17617.21
697.67	17076.55
697.80	17284.86
697.94	17181.87
698.07	17263.79
698.21	17025.06
698.34	17025.06
698.47	16936.12
698.61	16606.10
698.74	16828.45
698.87	16762.92
699.01	16503.12
699.14	16327.58
699.27	16556.95
699.40	16325.24
699.54	16271.40
699.67	16009.26
699.80	16203.53
699.94	16400.13
700.07	16032.67
700.20	16009.26
700.34	16112.25
700.47	15747.12
700.60	15609.03
700.73	15704.99
700.87	15372.64
701.00	15386.68
701.13	15372.64
701.26	15524.77
701.40	15339.87
701.53	15229.87
701.66	15480.30
701.79	15133.90
701.93	15019.22
702.06	14904.53
702.19	15145.61
702.32	14773.46
702.46	14883.47
702.59	14700.90
702.72	14789.85
702.85	14757.08
702.99	14593.24
703.12	14689.20
703.25	14724.31
703.38	14551.11
703.51	14171.94
703.65	14537.07
703.78	14293.65
703.91	14120.45
704.04	13987.04
704.17	14038.53
704.31	14190.67
704.44	13650.00
704.57	13575.11
704.70	13551.70
704.83	13717.88
704.96	13886.40
705.10	13841.93
705.23	13722.56
>>>>>End Processed Spectral Data<<<<<
