SpectraSuite Data File
++++++++++++++++++++++++++++++++++++
Date: Fri Oct 25 10:43:50 EDT 2013
User: price-jones
Dark Spectrum Present: No
Reference Spectrum Present: No
Number of Sampled Component Spectra: 1
Spectrometers: USB2+H05261
Integration Time (usec): 100000 (USB2+H05261)
Spectra Averaged: 1 (USB2+H05261)
Boxcar Smoothing: 0 (USB2+H05261)
Correct for Electrical Dark: No (USB2+H05261)
Strobe/Lamp Enabled: No (USB2+H05261)
Correct for Detector Non-linearity: No (USB2+H05261)
Correct for Stray Light: No (USB2+H05261)
Number of Pixels in Processed Spectrum: 2048
>>>>>Begin Processed Spectral Data<<<<<
365.73	81.92
365.92	81.92
366.12	81.92
366.32	42.13
366.52	58.51
366.72	0.00
366.91	21.06
367.11	0.00
367.31	0.00
367.51	110.01
367.70	7.02
367.90	72.56
368.10	9.36
368.30	37.45
368.49	0.00
368.69	39.79
368.89	65.54
369.09	14.04
369.28	32.77
369.48	63.19
369.68	39.79
369.87	88.94
370.07	126.39
370.27	105.32
370.47	142.77
370.66	318.31
370.86	416.62
371.06	423.64
371.25	498.53
371.45	463.43
371.65	550.03
371.84	402.57
372.04	468.11
372.24	451.72
372.44	447.04
372.63	575.77
372.83	500.87
373.03	458.74
373.22	521.94
373.42	468.11
373.62	491.51
373.81	599.18
374.01	589.82
374.21	503.22
374.40	535.98
374.60	538.32
374.79	552.37
374.99	552.37
375.19	580.45
375.38	653.01
375.58	716.20
375.78	608.54
375.97	559.39
376.17	650.67
376.37	582.79
376.56	613.22
376.76	582.79
376.95	519.60
377.15	624.92
377.35	662.37
377.54	620.24
377.74	634.29
377.93	671.73
378.13	706.84
378.33	622.58
378.52	571.09
378.72	578.11
378.91	702.16
379.11	702.16
379.31	603.86
379.50	643.65
379.70	727.91
379.89	774.72
380.09	667.05
380.28	638.97
380.48	695.14
380.68	690.46
380.87	683.44
381.07	678.76
381.26	734.93
381.46	669.39
381.65	751.31
381.85	711.52
382.04	711.52
382.24	718.54
382.43	751.31
382.63	667.05
382.83	748.97
383.02	695.14
383.22	737.27
383.41	697.48
383.61	760.67
383.80	767.70
384.00	739.61
384.19	814.51
384.39	830.89
384.58	807.48
384.78	802.80
384.97	858.98
385.17	816.85
385.36	739.61
385.56	758.33
385.75	802.80
385.95	781.74
386.14	763.01
386.34	858.98
386.53	870.68
386.72	821.53
386.92	784.08
387.11	851.96
387.31	835.57
387.50	833.23
387.70	830.89
387.89	891.74
388.09	858.98
388.28	884.72
388.48	884.72
388.67	793.44
388.86	903.45
389.06	985.37
389.25	936.21
389.45	968.98
389.64	1043.88
389.84	1025.15
390.03	992.39
390.22	1036.86
390.42	919.83
390.61	1004.09
390.81	1029.84
391.00	1130.48
391.19	1055.58
391.39	1027.50
391.58	1207.72
391.78	1039.20
391.97	1048.56
392.16	1060.26
392.36	1036.86
392.55	1123.46
392.75	1050.90
392.94	945.58
393.13	936.21
393.33	999.41
393.52	1015.79
393.71	1062.60
393.91	1069.62
394.10	1144.52
394.29	1118.78
394.49	1196.01
394.68	1221.76
394.88	1177.29
395.07	1280.27
395.26	1259.21
395.46	1212.40
395.65	1245.16
395.84	1191.33
396.04	1270.91
396.23	1132.82
396.42	1174.95
396.62	1146.86
396.81	1144.52
397.00	1170.27
397.19	1275.59
397.39	1256.87
397.58	1334.11
397.77	1387.94
397.97	1420.71
398.16	1401.98
398.35	1497.94
398.55	1446.45
398.74	1355.17
398.93	1528.37
399.12	1432.41
399.32	1514.33
399.51	1460.49
399.70	1537.73
399.90	1544.75
400.09	1614.97
400.28	1586.88
400.47	1589.22
400.67	1748.38
400.86	1614.97
401.05	1612.63
401.24	1675.82
401.44	1734.34
401.63	1664.12
401.82	1678.16
402.01	1575.18
402.21	1650.08
402.40	1806.89
402.59	1504.96
402.78	1743.70
402.97	1867.75
403.17	1760.08
403.36	1776.47
403.55	1851.36
403.74	1921.58
403.93	1799.87
404.13	1863.07
404.32	1802.21
404.51	1947.33
404.70	1984.77
404.89	1891.15
405.09	2057.33
405.28	1970.73
405.47	1961.37
405.66	1930.94
405.85	1994.14
406.05	1928.60
406.24	1987.11
406.43	2017.54
406.62	2167.34
406.81	2040.95
407.00	1961.37
407.20	2080.74
407.39	2139.25
407.58	2165.00
407.77	2209.47
407.96	2272.66
408.15	2136.91
408.34	2223.51
408.54	2272.66
408.73	2230.53
408.92	2263.30
409.11	2284.36
409.30	2368.62
409.49	2335.85
409.68	2244.57
409.87	2207.13
410.07	2368.62
410.26	2314.79
410.45	2260.96
410.64	2408.41
410.83	2455.22
411.02	2513.74
411.21	2555.86
411.40	2530.12
411.59	2551.18
411.78	2597.99
411.98	2663.53
412.17	2712.68
412.36	2686.94
412.55	2757.15
412.74	2782.90
412.93	2717.36
413.12	2672.89
413.31	2892.90
413.50	2932.69
413.69	2874.18
413.88	2932.69
414.07	2853.11
414.26	2930.35
414.45	2965.46
414.64	2930.35
414.83	3108.23
415.02	3066.10
415.22	3000.57
415.41	3105.89
415.60	3199.51
415.79	3201.85
415.98	3272.07
416.17	3148.02
416.36	3143.34
416.55	3309.52
416.74	3290.79
416.93	3215.90
417.12	3213.56
417.31	3353.99
417.50	3332.92
417.69	3368.03
417.88	3461.65
418.07	3414.84
418.26	3529.53
418.45	3550.59
418.64	3644.21
418.83	3606.77
419.02	3609.11
419.21	3531.87
419.39	3660.60
419.58	3630.17
419.77	3632.51
419.96	3639.53
420.15	3585.70
420.34	3630.17
420.53	3618.47
420.72	3733.15
420.91	3667.62
421.10	3929.76
421.29	3974.23
421.48	3758.90
421.67	3885.29
421.86	3751.88
422.05	3896.99
422.24	3864.22
422.43	3740.18
422.61	3777.62
422.80	3824.44
422.99	3946.14
423.18	3955.51
423.37	4053.81
423.56	3850.18
423.75	3925.08
423.94	3908.69
424.13	3651.24
424.32	3751.88
424.50	3885.29
424.69	4009.34
424.88	4007.00
425.07	3882.95
425.26	3815.07
425.45	3927.42
425.64	3960.19
425.83	4030.40
426.01	4117.00
426.20	3899.33
426.39	4023.38
426.58	3981.25
426.77	3983.59
426.96	3976.57
427.15	4046.79
427.33	4222.33
427.52	4187.22
427.71	4175.52
427.90	4128.70
428.09	4135.73
428.28	4084.23
428.46	4138.07
428.65	4147.43
428.84	4346.37
429.03	4152.11
429.22	3992.95
429.40	4205.94
429.59	4180.20
429.78	3985.93
429.97	3936.78
430.16	4042.11
430.34	4126.36
430.53	4177.86
430.72	4234.03
430.91	4231.69
431.10	4348.72
431.28	4540.64
431.47	4519.57
431.66	4667.03
431.85	4517.23
432.03	4643.62
432.22	4645.96
432.41	4608.51
432.60	4692.77
432.79	4741.93
432.97	4865.97
433.16	4809.80
433.35	4669.37
433.54	4671.71
433.72	4517.23
433.91	4711.50
434.10	4826.18
434.28	4713.84
434.47	4861.29
434.66	4826.18
434.85	4823.84
435.03	4896.40
435.22	4994.70
435.41	5041.51
435.59	5114.07
435.78	5125.77
435.97	5104.71
436.16	5001.72
436.34	5158.54
436.53	5132.79
436.72	5221.74
436.90	5039.17
437.09	5142.16
437.28	5083.64
437.46	5104.71
437.65	5006.41
437.84	5137.48
438.02	5130.45
438.21	5294.29
438.40	5083.64
438.58	5502.60
438.77	5547.07
438.96	5406.64
439.14	5586.86
439.33	5432.38
439.52	5593.88
439.70	5771.76
439.89	5736.65
440.08	5762.40
440.26	5748.36
440.45	5621.97
440.63	5736.65
440.82	5947.30
441.01	5797.51
441.19	5895.81
441.38	6132.20
441.57	6024.54
441.75	6225.82
441.94	6054.97
442.12	6195.40
442.31	6363.92
442.50	6274.98
442.68	6195.40
442.87	6228.17
443.05	6345.19
443.24	6410.73
443.43	6506.69
443.61	6553.50
443.80	6525.41
443.98	6373.28
444.17	6132.20
444.35	6382.64
444.54	6457.54
444.73	6452.86
444.91	6637.76
445.10	6455.20
445.28	6499.67
445.47	6450.52
445.65	6342.85
445.84	6485.62
446.02	6576.91
446.21	6511.37
446.39	6726.70
446.58	6597.97
446.77	6700.95
446.95	6413.07
447.14	6670.53
447.32	6787.55
447.51	6499.67
447.69	6569.88
447.88	6604.99
448.06	6888.20
448.25	6644.78
448.43	6693.93
448.62	6635.42
448.80	6637.76
448.99	6782.87
449.17	6827.34
449.36	6647.12
449.54	7005.22
449.73	7016.93
449.91	7157.36
450.10	6993.52
450.28	7122.25
450.46	7054.37
450.65	7061.40
450.83	7115.23
451.02	7140.97
451.20	7171.40
451.39	7309.49
451.57	7288.43
451.76	7236.94
451.94	7215.87
452.13	7089.48
452.31	7300.13
452.49	7227.57
452.68	7098.84
452.86	7159.70
453.05	7105.87
453.23	7236.94
453.42	7316.51
453.60	7314.17
453.78	7344.60
453.97	7325.88
454.15	7403.11
454.34	7194.81
454.52	7510.78
454.70	7405.46
454.89	7681.64
455.07	7531.84
455.26	7613.76
455.44	7658.23
455.62	7637.17
455.81	7868.88
455.99	7719.09
456.17	7819.73
456.36	7971.86
456.54	7850.16
456.73	7960.16
456.91	8072.51
457.09	8166.13
457.28	8241.03
457.46	8114.64
457.64	8065.49
457.83	8107.62
458.01	8046.76
458.19	8383.80
458.38	8175.49
458.56	8133.36
458.74	8252.73
458.93	8280.82
459.11	8339.33
459.29	8257.41
459.48	8294.86
459.66	8439.97
459.84	8241.03
460.03	8500.83
460.21	8444.65
460.39	8395.50
460.57	8500.83
460.76	8465.72
460.94	8706.79
461.12	8477.42
461.31	8746.58
461.49	8573.38
461.67	8767.65
461.85	8894.04
462.04	8674.03
462.22	8933.82
462.40	8957.23
462.59	8774.67
462.77	8903.40
462.95	8938.51
463.13	8809.78
463.32	8842.54
463.50	8837.86
463.68	8961.91
463.86	8854.25
464.05	8889.35
464.23	8999.36
464.41	8973.61
464.59	8884.67
464.78	9385.55
464.96	9188.94
465.14	8936.17
465.32	9275.54
465.50	9163.20
465.69	9277.88
465.87	9273.20
466.05	9210.01
466.23	9039.15
466.41	9352.78
466.60	9425.34
466.78	9298.95
466.96	9345.76
467.14	9301.29
467.32	9249.80
467.51	9603.22
467.69	9322.35
467.87	9235.75
468.05	9448.74
468.23	9263.84
468.41	9430.02
468.60	9411.29
468.78	9666.41
468.96	9327.03
469.14	9650.03
469.32	9666.41
469.50	9488.53
469.69	9575.13
469.87	9874.72
470.05	9846.63
470.23	9851.31
470.41	9951.96
470.59	9977.70
470.77	9968.34
470.95	9755.35
471.14	10054.94
471.32	9930.89
471.50	10181.33
471.68	10380.28
471.86	10270.27
472.04	10267.93
472.22	10714.97
472.40	10211.76
472.58	10391.98
472.77	10345.17
472.95	10518.37
473.13	10927.96
473.31	10387.30
473.49	10586.24
473.67	10619.01
473.85	10637.73
474.03	10944.34
474.21	10981.79
474.39	10895.19
474.57	11112.86
474.75	10965.41
474.93	10963.07
475.12	11194.78
475.30	11267.34
475.48	11197.12
475.66	11545.86
475.84	11316.49
476.02	11304.79
476.20	11470.97
476.38	11808.00
476.56	11538.84
476.74	11700.34
476.92	11864.18
477.10	11819.71
477.28	12067.80
477.46	11936.73
477.64	11997.59
477.82	12379.09
478.00	12603.78
478.18	12173.13
478.36	12393.14
478.54	12795.71
478.72	12769.96
478.90	13011.04
479.08	13198.28
479.26	13341.05
479.44	12931.46
479.62	13458.08
479.80	13214.66
479.98	13364.46
480.16	13685.11
480.34	13493.19
480.52	13715.54
480.70	13813.84
480.88	13565.74
481.06	13914.48
481.24	13855.97
481.41	14342.80
481.59	14244.50
481.77	14429.40
481.95	14523.02
482.13	14588.56
482.31	14560.47
482.49	14728.99
482.67	14878.79
482.85	15197.10
483.03	15300.08
483.21	15300.08
483.39	15576.27
483.57	15264.97
483.74	15318.81
483.92	15419.45
484.10	15597.33
484.28	16098.20
484.46	15861.81
484.64	16058.42
484.82	16121.61
485.00	16236.30
485.18	16704.40
485.35	16308.85
485.53	15976.50
485.71	16322.90
485.89	16458.65
486.07	16582.70
486.25	16781.64
486.43	17081.23
486.61	17144.42
486.78	17233.36
486.96	17315.28
487.14	17961.27
487.32	17919.14
487.50	17937.87
487.68	18080.64
487.85	17902.76
488.03	18380.23
488.21	18670.45
488.39	18403.63
488.57	18546.40
488.75	18698.54
488.92	19000.47
489.10	19232.18
489.28	19744.76
489.46	19805.61
489.64	19658.16
489.81	20189.46
489.99	19990.52
490.17	20133.29
490.35	20039.67
490.53	20746.51
490.70	20432.88
490.88	20123.93
491.06	20723.10
491.24	20889.28
491.41	20713.74
491.59	20613.10
491.77	20594.37
491.95	20999.29
492.13	21420.58
492.30	21638.25
492.48	21696.77
492.66	21888.69
492.84	21497.82
493.01	21675.70
493.19	22237.43
493.37	21781.03
493.54	22298.28
493.72	22944.27
493.90	23056.62
494.08	22766.39
494.25	22974.70
494.43	23494.30
494.61	22920.87
494.79	23372.59
494.96	23285.99
495.14	23274.29
495.32	23482.59
495.49	23655.79
495.67	23733.03
495.85	24191.78
496.02	24121.56
496.20	24414.13
496.38	24137.94
496.55	24486.68
496.73	25020.33
496.91	24966.49
497.09	24694.99
497.26	24833.08
497.44	24807.34
497.62	25027.35
497.79	25277.79
497.97	25282.47
498.14	25511.84
498.32	25673.34
498.50	25624.18
498.67	25738.87
498.85	25633.55
499.03	26415.29
499.20	26017.40
499.38	26426.99
499.56	26363.79
499.73	26574.44
499.91	26345.07
500.08	26448.05
500.26	26272.51
500.44	26419.97
500.61	27035.53
500.79	26843.60
500.97	26623.59
501.14	27402.99
501.32	27119.79
501.49	26937.23
501.67	27101.06
501.84	27253.20
502.02	27686.20
502.20	27850.03
502.37	27662.79
502.55	27630.02
502.72	27770.46
502.90	28252.61
503.07	27924.93
503.25	28102.81
503.43	28004.51
503.60	27943.66
503.78	28098.13
503.95	28070.04
504.13	28528.79
504.30	28470.28
504.48	28570.92
504.65	28613.05
504.83	29324.57
505.01	29099.88
505.18	28910.30
505.36	29256.70
505.53	29317.55
505.71	29668.63
505.88	29362.02
506.06	29202.86
506.23	29963.54
506.41	29788.00
506.58	29797.36
506.76	29886.30
506.93	30134.40
507.11	30047.80
507.28	29905.02
507.46	29811.40
507.63	29647.57
507.81	30466.75
507.98	30230.36
508.16	30335.68
508.33	30347.39
508.50	30431.65
508.68	30979.33
508.85	31124.44
509.03	30979.33
509.20	30703.15
509.38	31271.90
509.55	31103.38
509.73	31447.44
509.90	31269.56
510.08	30904.43
510.25	31592.55
510.42	31754.05
510.60	31943.63
510.77	32030.23
510.95	32137.90
511.12	31665.11
511.30	31796.18
511.47	32430.46
511.64	32751.12
511.82	32273.65
511.99	31885.12
512.17	32711.33
512.34	32620.05
512.51	32348.54
512.69	32802.61
512.86	32470.25
513.04	32968.79
513.21	33113.90
513.38	32842.40
513.56	32762.82
513.73	32425.78
513.90	32978.15
514.08	33017.94
514.25	33198.16
514.43	33024.96
514.60	32959.42
514.77	33399.44
514.95	33591.37
515.12	33357.32
515.29	33694.35
515.47	33837.12
515.64	34007.98
515.81	33518.81
515.99	33900.32
516.16	33745.84
516.33	34129.69
516.51	33516.47
516.68	33387.74
516.85	33347.95
517.03	33436.89
517.20	33905.00
517.37	33778.61
517.54	34546.31
517.72	34129.69
517.89	33876.91
518.06	33855.85
518.24	33949.47
518.41	34249.06
518.58	34625.89
518.75	34370.77
518.93	34710.14
519.10	34546.31
519.27	34466.73
519.45	34916.11
519.62	35187.61
519.79	35325.71
519.96	35414.65
520.14	35627.63
520.31	34822.49
520.48	35515.29
520.65	35529.33
520.83	35807.86
521.00	35924.88
521.17	35573.80
521.34	35526.99
521.52	36453.84
521.69	35983.40
521.86	36210.43
522.03	36119.15
522.20	36084.04
522.38	36006.80
522.55	36322.77
522.72	36191.70
522.89	36392.99
523.07	36423.42
523.24	36706.62
523.41	36746.41
523.58	36788.54
523.75	37055.36
523.92	37350.27
524.10	37413.46
524.27	37024.93
524.44	37127.92
524.61	37745.82
524.78	37694.33
524.96	37097.49
525.13	37415.80
525.30	37607.73
525.47	37546.87
525.64	38059.45
525.81	37511.77
525.98	37647.52
526.16	37209.84
526.33	36659.81
526.50	37610.07
526.67	37226.22
526.84	37383.04
527.01	37158.34
527.18	37591.34
527.36	37727.10
527.53	37993.92
527.70	38377.76
527.87	38307.55
528.04	38307.55
528.21	38279.46
528.38	38473.73
528.55	38878.64
528.72	38639.90
528.89	39178.23
529.07	38878.64
529.24	38298.19
529.41	38361.38
529.58	38295.85
529.75	38883.32
529.92	38705.44
530.09	39042.48
530.26	38820.13
530.43	39047.16
530.60	39168.87
530.77	39110.35
530.94	39821.87
531.11	39229.72
531.28	39395.90
531.46	39510.58
531.63	40095.72
531.80	39372.49
531.97	39569.10
532.14	39702.51
532.31	39145.46
532.48	39697.83
532.65	39571.44
532.82	39126.74
532.99	39938.90
533.16	39501.22
533.33	40144.87
533.50	40009.12
533.67	39702.51
533.84	39349.09
534.01	40062.95
534.18	39873.37
534.35	40493.61
534.52	39934.22
534.69	40025.50
534.86	40849.37
535.03	40669.15
535.20	40882.14
535.37	40704.26
535.54	40507.65
535.71	40325.09
535.88	40760.43
536.05	40776.81
536.22	40804.90
536.38	40669.15
536.55	40919.59
536.72	40458.50
536.89	40563.82
537.06	40711.28
537.23	41116.19
537.40	40739.36
537.57	41247.26
537.74	41106.83
537.91	41165.34
538.08	41228.54
538.25	40451.48
538.42	41153.64
538.59	41680.26
538.75	40898.52
538.92	40940.65
539.09	41598.34
539.26	41069.38
539.43	41600.68
539.60	41553.87
539.77	41303.43
539.94	41404.08
540.11	41411.10
540.28	41757.50
540.44	41434.50
540.61	41893.25
540.78	41448.55
540.95	41127.89
541.12	41315.14
541.29	41825.37
541.46	41766.86
541.62	41947.08
541.79	42089.85
541.96	41474.29
542.13	42131.98
542.30	41680.26
542.47	42349.65
542.63	41677.92
542.80	42068.79
542.97	42384.76
543.14	42845.85
543.31	42543.92
543.48	42499.45
543.64	43325.66
543.81	42932.45
543.98	42958.19
544.15	42670.31
544.32	42682.01
544.48	43313.95
544.65	43016.71
544.82	43028.41
544.99	42667.97
545.16	42988.62
545.32	42508.81
545.49	43351.40
545.66	43309.27
545.83	43220.33
546.00	43449.70
546.16	43159.48
546.33	43171.18
546.50	42784.99
546.67	43082.24
546.83	42960.53
547.00	43295.23
547.17	43608.86
547.34	43115.01
547.50	43023.73
547.67	43555.03
547.84	43126.71
548.00	43255.44
548.17	43548.01
548.34	43428.64
548.51	43711.84
548.67	43590.14
548.84	43508.22
549.01	43662.69
549.18	43807.81
549.34	43381.83
549.51	44194.00
549.68	43997.39
549.84	43863.98
550.01	44030.16
550.18	44137.82
550.34	43786.74
550.51	43732.91
550.68	44058.24
550.84	43339.70
551.01	43604.18
551.18	44020.80
551.34	43854.62
551.51	44137.82
551.68	44222.08
551.84	44165.91
552.01	44226.76
552.18	44151.87
552.34	43548.01
552.51	44458.48
552.68	44210.38
552.84	44739.34
553.01	44318.04
553.18	44406.98
553.34	44165.91
553.51	44341.45
553.67	44643.38
553.84	45008.50
554.01	44793.17
554.17	44648.06
554.34	44615.29
554.51	44905.52
554.67	44898.50
554.84	44786.15
555.00	44519.33
555.17	44449.11
555.33	44411.67
555.50	44701.89
555.67	44659.76
555.83	44765.09
556.00	44839.98
556.16	45013.18
556.33	45038.93
556.50	44793.17
556.66	44465.50
556.83	44622.31
556.99	44629.34
557.16	44912.54
557.32	45324.47
557.49	44914.88
557.65	45214.47
557.82	45057.65
557.98	45195.74
558.15	44919.56
558.32	44982.76
558.48	44580.18
558.65	44769.77
558.81	45017.86
558.98	44655.08
559.14	44912.54
559.31	44765.09
559.47	45586.61
559.64	45469.59
559.80	45069.36
559.97	45184.04
560.13	45228.51
560.30	45212.13
560.46	45116.17
560.63	45045.95
560.79	45804.28
560.96	45827.69
561.12	45422.78
561.29	45453.20
561.45	45305.75
561.61	45209.79
561.78	45277.66
561.94	45172.34
562.11	45158.30
562.27	45422.78
562.44	45640.45
562.60	45713.00
562.77	45862.80
562.93	45368.94
563.10	46031.32
563.26	45357.24
563.42	45612.36
563.59	45516.40
563.75	45425.12
563.92	45532.78
564.08	46003.23
564.24	45668.53
564.41	45748.11
564.57	45743.43
564.74	45387.67
564.90	45488.31
565.07	45776.20
565.23	45949.40
565.39	45741.09
565.56	45661.51
565.72	44896.16
565.88	45794.92
566.05	45312.77
566.21	45518.74
566.38	45792.58
566.54	46047.70
566.70	45759.81
566.87	46064.08
567.03	45818.33
567.19	46511.13
567.36	46354.31
567.52	45511.72
567.68	45792.58
567.85	45586.61
568.01	46202.18
568.17	45581.93
568.34	45773.86
568.50	45677.90
568.66	45958.76
568.83	45886.20
568.99	45436.82
569.15	45701.30
569.32	45701.30
569.48	45523.42
569.64	45790.24
569.81	45979.82
569.97	45677.90
570.13	45804.28
570.30	45226.17
570.46	45509.38
570.62	45326.81
570.78	45797.26
570.95	45052.97
571.11	45855.78
571.27	45560.87
571.43	45523.42
571.60	45991.53
571.76	46337.93
571.92	45867.48
572.09	45970.46
572.25	45794.92
572.41	45937.69
572.57	46227.92
572.74	46068.76
572.90	46307.50
573.06	45834.71
573.22	45876.84
573.38	46094.51
573.55	45570.23
573.71	46052.38
573.87	46167.07
574.03	46036.00
574.20	46057.06
574.36	46014.93
574.52	46146.00
574.68	46131.96
574.84	46117.92
575.01	46108.55
575.17	45916.63
575.33	45727.05
575.49	45937.69
575.65	46162.39
575.82	46155.36
575.98	45516.40
576.14	46218.56
576.30	46604.75
576.46	46241.96
576.62	45961.10
576.79	45837.05
576.95	45565.55
577.11	45900.25
577.27	46422.19
577.43	45565.55
577.59	46110.89
577.75	45893.22
577.92	45935.35
578.08	46059.40
578.24	45593.64
578.40	45713.00
578.56	46401.12
578.72	46000.89
578.88	46146.00
579.04	46291.12
579.21	45846.41
579.37	45944.72
579.53	46188.13
579.69	46026.63
579.85	45928.33
580.01	46326.22
580.17	46401.12
580.33	46115.58
580.49	45883.86
580.65	45925.99
580.82	46232.60
580.98	46227.92
581.14	45764.49
581.30	46241.96
581.46	46068.76
581.62	46127.28
581.78	45729.39
581.94	46408.14
582.10	46227.92
582.26	46241.96
582.42	45975.14
582.58	46202.18
582.74	46043.02
582.90	46288.77
583.06	46410.48
583.22	46646.88
583.38	46389.42
583.54	46710.07
583.70	46099.19
583.86	46354.31
584.02	46082.81
584.18	46810.71
584.34	45663.85
584.50	46106.21
584.66	46047.70
584.82	46124.94
584.98	46007.91
585.14	46553.26
585.30	46342.61
585.46	46148.34
585.62	45823.01
585.78	45801.94
585.94	45792.58
586.10	46057.06
586.26	45846.41
586.42	46330.90
586.58	46656.24
586.74	46164.73
586.90	45841.73
587.06	45682.58
587.22	46103.87
587.38	46085.15
587.54	45951.74
587.70	46143.66
587.86	46021.95
588.02	46146.00
588.18	46248.99
588.34	45993.87
588.49	45659.17
588.65	45645.13
588.81	45982.16
588.97	45790.24
589.13	45766.84
589.29	45970.46
589.45	46117.92
589.61	46031.32
589.77	46057.06
589.93	46171.75
590.08	46307.50
590.24	46293.46
590.40	46403.46
590.56	46679.64
590.72	46440.91
590.88	46387.08
591.04	46164.73
591.20	46457.29
591.35	46588.36
591.51	46616.45
591.67	46129.62
591.83	46246.65
591.99	46206.86
592.15	46138.98
592.31	46590.70
592.46	45855.78
592.62	46454.95
592.78	46583.68
592.94	46146.00
593.10	46298.14
593.26	46803.69
593.41	46237.28
593.57	46131.96
593.73	46043.02
593.89	46312.18
594.05	46204.52
594.20	46078.13
594.36	46356.65
594.52	46050.04
594.68	46141.32
594.84	46141.32
594.99	46382.40
595.15	46234.94
595.31	46616.45
595.47	46256.01
595.62	46518.15
595.78	46431.55
595.94	46127.28
596.10	46583.68
596.25	46377.72
596.41	46136.64
596.57	46033.66
596.73	46501.76
596.88	45738.75
597.04	46108.55
597.20	46323.88
597.36	46209.20
597.51	46440.91
597.67	46188.13
597.83	46192.81
597.99	46422.19
598.14	46422.19
598.30	46326.22
598.46	46230.26
598.61	46534.53
598.77	46087.49
598.93	46295.80
599.09	46366.01
599.24	46721.77
599.40	46773.27
599.56	46492.40
599.71	46178.77
599.87	46464.32
600.03	46099.19
600.18	46532.19
600.34	45893.22
600.50	46270.05
600.65	46218.56
600.81	46263.03
600.97	46319.20
601.12	46543.89
601.28	46461.97
601.44	46230.26
601.59	46251.33
601.75	45965.78
601.91	45806.62
602.06	46433.89
602.22	46536.87
602.37	46131.96
602.53	46316.86
602.69	46696.03
602.84	45825.35
603.00	46410.48
603.16	46248.99
603.31	46036.00
603.47	46174.09
603.62	46148.34
603.78	46412.82
603.94	46291.12
604.09	46426.87
604.25	46543.89
604.40	46443.25
604.56	45783.22
604.71	46571.98
604.87	46302.82
605.03	46684.33
605.18	46174.09
605.34	46522.83
605.49	46188.13
605.65	46171.75
605.80	45900.25
605.96	46206.86
606.12	46047.70
606.27	46295.80
606.43	45853.44
606.58	46267.71
606.74	45918.97
606.89	46127.28
607.05	46028.98
607.20	46007.91
607.36	45713.00
607.51	46380.06
607.67	45956.42
607.82	45998.55
607.98	46031.32
608.13	45759.81
608.29	45771.52
608.44	45640.45
608.60	45670.87
608.75	45925.99
608.91	46096.85
609.06	45759.81
609.22	45930.67
609.37	46040.68
609.53	46239.62
609.68	45766.84
609.84	45872.16
609.99	45324.47
610.15	45914.29
610.30	45467.25
610.46	45205.11
610.61	45610.02
610.76	46174.09
610.92	45963.44
611.07	45710.66
611.23	45544.48
611.38	45577.25
611.54	45595.98
611.69	45301.07
611.84	45397.03
612.00	45008.50
612.15	45551.51
612.31	45689.60
612.46	45879.18
612.62	45642.79
612.77	45705.98
612.92	45392.35
613.08	45322.13
613.23	45052.97
613.39	45345.54
613.54	44830.62
613.69	45553.85
613.85	45202.77
614.00	45586.61
614.15	45551.51
614.31	45083.40
614.46	44837.64
614.62	45478.95
614.77	45017.86
614.92	45057.65
615.08	45244.90
615.23	44830.62
615.38	44903.18
615.54	44854.03
615.69	44755.72
615.84	45031.91
616.00	45329.16
616.15	45041.27
616.30	44971.05
616.46	44584.86
616.61	45031.91
616.76	45057.65
616.92	44378.90
617.07	44549.76
617.22	44325.07
617.37	44746.36
617.53	44966.37
617.68	45006.16
617.83	44882.11
617.99	44744.02
618.14	44758.06
618.29	44781.47
618.45	44524.01
618.60	44425.71
618.75	43990.37
618.90	44107.40
619.06	44605.93
619.21	44369.54
619.36	44753.38
619.51	44273.57
619.67	44259.53
619.82	44378.90
619.97	44229.10
620.12	44126.12
620.28	44109.74
620.43	44425.71
620.58	44154.21
620.73	44376.56
620.89	44502.95
621.04	44151.87
621.19	44287.62
621.34	44610.61
621.49	44346.13
621.65	43695.46
621.80	44399.96
621.95	44201.02
622.10	43885.04
622.25	43690.78
622.41	43997.39
622.56	43810.15
622.71	44013.77
622.86	44088.67
623.01	44074.63
623.16	43894.41
623.32	43611.20
623.47	43587.80
623.62	43737.59
623.77	43620.56
623.92	43955.26
624.07	43660.35
624.23	42934.79
624.38	43318.64
624.53	43360.76
624.68	43882.70
624.83	43182.88
624.98	43978.67
625.13	43421.62
625.29	43189.91
625.44	43243.74
625.59	43407.58
625.74	43070.54
625.89	42763.93
626.04	43124.37
626.19	42869.25
626.34	42749.88
626.49	42831.80
626.65	43363.11
626.80	42749.88
626.95	42630.52
627.10	42969.90
627.25	43248.42
627.40	42806.06
627.55	42457.32
627.70	42691.37
627.85	42782.65
628.00	42621.16
628.15	43358.42
628.30	42801.38
628.45	43232.04
628.60	42429.23
628.76	42754.57
628.91	42450.30
629.06	42387.10
629.21	42234.97
629.36	42504.13
629.51	42295.82
629.66	42637.54
629.81	42218.58
629.96	42361.36
630.11	42101.56
630.26	42534.56
630.41	43115.01
630.56	42635.20
630.71	42667.97
630.86	42190.50
631.01	42010.28
631.16	42122.62
631.31	41715.37
631.46	41649.83
631.61	42286.46
631.76	42017.30
631.91	41720.05
632.06	41977.51
632.21	42127.30
632.36	42541.58
632.51	41301.09
632.66	42291.14
632.81	41977.51
632.96	41963.46
633.10	41900.27
633.25	42064.11
633.40	42417.53
633.55	41928.36
633.70	41333.86
633.85	41486.00
634.00	41759.84
634.15	41982.19
634.30	41289.39
634.45	41659.20
634.60	41486.00
634.75	41471.95
634.90	41528.13
635.05	41755.16
635.19	41198.11
635.34	41621.75
635.49	41579.62
635.64	41865.16
635.79	41256.62
635.94	41137.26
636.09	41368.97
636.24	41076.40
636.39	41001.50
636.53	41387.69
636.68	41034.27
636.83	41291.73
636.98	41214.49
637.13	41280.03
637.28	41099.81
637.43	41603.02
637.57	41497.70
637.72	41069.38
637.87	41315.14
638.02	40809.58
638.17	40889.16
638.32	41001.50
638.46	41163.00
638.61	40776.81
638.76	41013.21
638.91	41043.63
639.06	40673.83
639.20	40917.25
639.35	40809.58
639.50	40786.18
639.65	40851.71
639.80	41020.23
639.94	41029.59
640.09	40605.95
640.24	40570.85
640.39	40493.61
640.54	40758.09
640.68	40264.24
640.83	40109.76
640.98	39910.82
641.13	40280.62
641.27	40502.97
641.42	40100.40
641.57	40390.62
641.72	40591.91
641.86	40327.43
642.01	40065.29
642.16	40105.08
642.31	40067.63
642.45	40037.20
642.60	39999.76
642.75	40133.17
642.90	40044.23
643.04	40306.37
643.19	40418.71
643.34	40147.21
643.48	40182.32
643.63	39927.20
643.78	40121.46
643.93	40051.25
644.07	40088.70
644.22	40009.12
644.37	39503.56
644.51	39608.89
644.66	39791.45
644.81	39735.27
644.95	39821.87
645.10	39775.06
645.25	39693.15
645.39	39697.83
645.54	39388.88
645.69	39325.68
645.83	39864.00
645.98	39735.27
646.13	39452.07
646.27	39522.29
646.42	39398.24
646.57	39688.46
646.71	39845.28
646.86	39522.29
647.00	39423.98
647.15	39709.53
647.30	39363.13
647.44	39435.69
647.59	39105.67
647.74	39049.50
647.88	38890.34
648.03	39391.22
648.17	39281.21
648.32	38644.59
648.47	38998.01
648.61	38906.73
648.76	39409.94
648.90	39225.04
649.05	39028.43
649.20	38848.21
649.34	39171.21
649.49	38508.83
649.63	38899.70
649.78	39115.03
649.92	38848.21
650.07	39063.54
650.21	39152.48
650.36	38855.23
650.51	39019.07
650.65	39225.04
650.80	39395.90
650.94	39007.37
651.09	38501.81
651.23	38576.71
651.38	38773.31
651.52	38424.57
651.67	38279.46
651.81	38263.08
651.96	38492.45
652.10	38759.27
652.25	38370.74
652.39	38506.49
652.54	39000.35
652.68	38452.66
652.83	38270.10
652.97	38754.59
653.12	38738.21
653.26	38211.59
653.41	37912.00
653.55	37752.84
653.70	38553.30
653.84	37940.08
653.99	37825.40
654.13	37848.80
654.27	37818.38
654.42	37577.30
654.56	37687.31
654.71	38132.01
654.85	37619.43
655.00	38377.76
655.14	38003.28
655.29	37408.78
655.43	37949.45
655.57	37759.86
655.72	37233.24
655.86	37525.81
656.01	37212.18
656.15	36877.48
656.30	37067.06
656.44	37111.53
656.58	37488.36
656.73	37312.82
656.87	36835.35
657.01	36833.01
657.16	37392.40
657.30	37179.41
657.45	37361.97
657.59	36994.51
657.73	37198.13
657.88	37432.19
658.02	37289.42
658.16	37504.74
658.31	37486.02
658.45	37591.34
658.60	37319.84
658.74	37228.56
658.88	37242.60
659.03	36933.65
659.17	36680.88
659.31	36723.01
659.46	36601.30
659.60	36896.20
659.74	36950.04
659.89	36510.02
660.03	36903.23
660.17	36842.37
660.32	36896.20
660.46	37008.55
660.60	36671.51
660.74	36556.83
660.89	36477.25
661.03	35707.21
661.17	36318.09
661.32	36224.47
661.46	36383.63
661.60	35934.24
661.74	36084.04
661.89	36444.48
662.03	36596.62
662.17	36180.00
662.31	36180.00
662.46	36388.31
662.60	36147.23
662.74	35461.46
662.88	35938.93
663.03	35700.19
663.17	35957.65
663.31	35459.12
663.45	35777.43
663.60	35775.09
663.74	35606.57
663.88	35442.73
664.02	35599.55
664.17	35714.23
664.31	34724.19
664.45	34616.52
664.59	35424.01
664.73	35428.69
664.88	35421.67
665.02	35021.44
665.16	35063.57
665.30	34609.50
665.44	34941.86
665.59	34686.74
665.73	35042.50
665.87	34623.54
666.01	34763.98
666.15	34469.07
666.29	34696.10
666.44	34607.16
666.58	34733.55
666.72	34651.63
666.86	34583.76
667.00	34494.82
667.14	34113.31
667.28	34129.69
667.43	34242.04
667.57	34218.63
667.71	34440.98
667.85	34469.07
667.99	33996.28
668.13	34527.58
668.27	34174.16
668.41	34445.66
668.56	33780.95
668.70	34052.45
668.84	33331.57
668.98	33565.62
669.12	33855.85
669.26	33706.05
669.40	33214.54
669.54	33464.98
669.68	33039.00
669.82	32877.51
669.96	32919.63
670.10	32921.98
670.25	32978.15
670.39	32865.80
670.53	32814.31
670.67	33076.45
670.81	33123.26
670.95	32617.71
671.09	32739.41
671.23	32620.05
671.37	32685.58
671.51	32325.14
671.65	32554.51
671.79	32341.52
671.93	32158.96
672.07	32505.36
672.21	32156.62
672.35	32058.32
672.49	32631.75
672.63	32245.56
672.77	32362.59
672.91	32053.64
673.05	31805.54
673.19	31971.72
673.33	31723.62
673.47	31707.24
673.61	31400.63
673.75	31463.82
673.89	31419.35
674.03	31473.18
674.17	31222.75
674.31	31129.12
674.45	31285.94
674.59	31374.88
674.73	31147.85
674.87	31154.87
675.01	30827.20
675.15	30785.07
675.29	30810.81
675.43	30852.94
675.56	31037.84
675.70	30686.76
675.84	30405.90
675.98	29996.31
676.12	30583.78
676.26	30419.94
676.40	30593.14
676.54	30408.24
676.68	30356.75
676.82	29993.97
676.96	30045.46
677.10	29668.63
677.23	29958.86
677.37	29680.33
677.51	29989.28
677.65	29369.04
677.79	29090.52
677.93	29130.31
678.07	29015.62
678.21	28615.39
678.34	28847.10
678.48	28751.14
678.62	28706.67
678.76	29048.39
678.90	28364.95
679.04	28393.04
679.18	28533.47
679.31	28212.82
679.45	28133.24
679.59	28046.64
679.73	27943.66
679.87	27889.82
680.00	27971.74
680.14	27784.50
680.28	27992.81
680.42	27847.69
680.56	27388.95
680.70	27424.06
680.83	27667.47
680.97	27763.43
681.11	27325.75
681.25	27185.32
681.39	27386.61
681.52	27370.22
681.66	27124.47
681.80	26834.24
681.94	26902.12
682.07	26780.41
682.21	26604.87
682.35	26265.49
682.49	26740.62
682.62	26415.29
682.76	26349.75
682.90	26558.06
683.04	26295.92
683.17	26174.21
683.31	26106.34
683.45	25673.34
683.59	25610.14
683.72	25542.27
683.86	25895.69
684.00	25806.75
684.13	25324.60
684.27	25563.33
684.41	24690.31
684.55	25083.52
684.68	25195.87
684.82	25205.23
684.96	24840.11
685.09	24805.00
685.23	24940.75
685.37	24814.36
685.50	24978.20
685.64	24673.93
685.78	24238.59
685.91	24269.01
686.05	24226.89
686.19	24102.84
686.32	24063.05
686.46	23513.02
686.60	23623.03
686.73	23316.42
686.87	22974.70
687.01	23250.88
687.14	22967.68
687.28	23124.49
687.42	22838.95
687.55	23077.68
687.69	22920.87
687.82	23033.21
687.96	22991.08
688.10	22897.46
688.23	22600.21
688.37	22548.72
688.50	22787.46
688.64	22714.90
688.78	22654.05
688.91	22286.58
689.05	22338.07
689.18	22118.06
689.32	21607.83
689.46	22181.26
689.59	22277.22
689.73	21951.88
689.86	21820.81
690.00	21645.27
690.13	21846.56
690.27	21392.50
690.41	21397.18
690.54	21593.78
690.68	21069.50
690.81	21458.03
690.95	21408.88
691.08	20767.57
691.22	21275.47
691.35	21193.55
691.49	20893.96
691.62	21195.89
691.76	21142.06
691.89	21055.46
692.03	20732.47
692.16	20556.93
692.30	20194.14
692.43	20285.42
692.57	20152.01
692.70	19948.39
692.84	20095.84
692.97	19690.93
693.11	19747.10
693.24	19545.81
693.38	19529.43
693.51	19550.49
693.65	19775.19
693.78	19412.40
693.92	19417.08
694.05	19145.58
694.19	19337.51
694.32	19517.73
694.45	18960.68
694.59	19131.54
694.72	19168.99
694.86	19035.58
694.99	18576.83
695.13	18792.16
695.26	18979.40
695.39	18640.03
695.53	18738.33
695.66	18771.10
695.80	18633.00
695.93	18478.53
696.07	17987.02
696.20	18633.00
696.33	18478.53
696.47	18082.98
696.60	17696.79
696.73	17949.57
696.87	17759.98
697.00	17692.11
697.14	17488.48
697.27	17539.97
697.40	17216.98
697.54	17355.07
697.67	17404.22
697.80	17685.09
697.94	17163.15
698.07	17043.78
698.21	16683.34
698.34	16746.53
698.47	17046.12
698.61	16678.66
698.74	16879.94
698.87	16931.44
699.01	16341.62
699.14	16325.24
699.27	16423.54
699.40	16182.46
699.54	16116.93
699.67	16147.36
699.80	16088.84
699.94	16116.93
700.07	15939.05
700.20	15920.32
700.34	15885.22
700.47	15772.87
700.60	15894.58
700.73	15712.02
700.87	15758.83
701.00	15693.29
701.13	15293.06
701.26	15503.71
701.40	15283.70
701.53	15370.30
701.66	15178.37
701.79	15166.67
701.93	15056.67
702.06	14970.07
702.19	14672.82
702.32	14728.99
702.46	14736.01
702.59	14871.76
702.72	14794.53
702.85	14640.05
702.99	14822.61
703.12	14628.35
703.25	14295.99
703.38	14342.80
703.51	14300.67
703.65	14300.67
703.78	14504.30
703.91	13853.63
704.04	14108.75
704.17	14054.92
704.31	13752.99
704.44	14019.81
704.57	13792.78
704.70	13624.26
704.83	13549.36
704.96	13575.11
705.10	13940.23
705.23	13664.05
>>>>>End Processed Spectral Data<<<<<
