SpectraSuite Data File
++++++++++++++++++++++++++++++++++++
Date: Fri Oct 25 10:48:00 EDT 2013
User: price-jones
Dark Spectrum Present: No
Reference Spectrum Present: No
Number of Sampled Component Spectra: 1
Spectrometers: USB2+H05261
Integration Time (usec): 100000 (USB2+H05261)
Spectra Averaged: 1 (USB2+H05261)
Boxcar Smoothing: 0 (USB2+H05261)
Correct for Electrical Dark: No (USB2+H05261)
Strobe/Lamp Enabled: No (USB2+H05261)
Correct for Detector Non-linearity: No (USB2+H05261)
Correct for Stray Light: No (USB2+H05261)
Number of Pixels in Processed Spectrum: 2048
>>>>>Begin Processed Spectral Data<<<<<
365.73	163.84
365.92	163.84
366.12	163.84
366.32	79.58
366.52	65.54
366.72	21.06
366.91	23.41
367.11	0.00
367.31	28.09
367.51	9.36
367.70	9.36
367.90	35.11
368.10	0.00
368.30	4.68
368.49	107.66
368.69	93.62
368.89	30.43
369.09	46.81
369.28	84.26
369.48	65.54
369.68	81.92
369.87	46.81
370.07	100.64
370.27	133.41
370.47	166.18
370.66	320.65
370.86	332.36
371.06	449.38
371.25	456.40
371.45	388.53
371.65	423.64
371.84	451.72
372.04	416.62
372.24	470.45
372.44	437.68
372.63	430.66
372.83	568.75
373.03	475.13
373.22	428.32
373.42	521.94
373.62	526.62
373.81	617.90
374.01	603.86
374.21	606.20
374.40	568.75
374.60	531.30
374.79	503.22
374.99	657.69
375.19	547.69
375.38	587.47
375.58	535.98
375.78	477.47
375.97	603.86
376.17	578.11
376.37	505.56
376.56	606.20
376.76	587.47
376.95	552.37
377.15	620.24
377.35	596.84
377.54	596.84
377.74	594.50
377.93	645.99
378.13	582.79
378.33	587.47
378.52	629.60
378.72	641.31
378.91	594.50
379.11	667.05
379.31	657.69
379.50	690.46
379.70	653.01
379.89	645.99
380.09	648.33
380.28	657.69
380.48	683.44
380.68	610.88
380.87	603.86
381.07	669.39
381.26	613.22
381.46	610.88
381.65	678.76
381.85	587.47
382.04	657.69
382.24	650.67
382.43	688.12
382.63	629.60
382.83	697.48
383.02	624.92
383.22	800.46
383.41	606.20
383.61	763.01
383.80	697.48
384.00	688.12
384.19	674.07
384.39	739.61
384.58	734.93
384.78	779.40
384.97	779.40
385.17	737.27
385.36	760.67
385.56	720.88
385.75	732.59
385.95	830.89
386.14	842.59
386.34	770.04
386.53	767.70
386.72	889.40
386.92	849.61
387.11	793.44
387.31	833.23
387.50	875.36
387.70	837.91
387.89	880.04
388.09	763.01
388.28	807.48
388.48	861.32
388.67	866.00
388.86	840.25
389.06	830.89
389.25	889.40
389.45	840.25
389.64	880.04
389.84	894.08
390.03	961.96
390.22	964.30
390.42	959.62
390.61	926.85
390.81	898.77
391.00	940.90
391.19	973.66
391.39	882.38
391.58	980.68
391.78	917.49
391.97	980.68
392.16	901.11
392.36	964.30
392.55	1048.56
392.75	985.37
392.94	990.05
393.13	910.47
393.33	933.87
393.52	1027.50
393.71	1004.09
393.91	1022.81
394.10	947.92
394.29	1071.97
394.49	1118.78
394.68	1160.91
394.88	1032.18
395.07	1144.52
395.26	1177.29
395.46	1114.10
395.65	1144.52
395.84	1114.10
396.04	1221.76
396.23	1156.22
396.42	1071.97
396.62	1032.18
396.81	1064.94
397.00	1043.88
397.19	1146.86
397.39	1200.69
397.58	1193.67
397.77	1228.78
397.97	1226.44
398.16	1245.16
398.35	1324.74
398.55	1291.98
398.74	1355.17
398.93	1327.08
399.12	1296.66
399.32	1266.23
399.51	1331.76
399.70	1291.98
399.90	1336.45
400.09	1362.19
400.28	1397.30
400.47	1383.26
400.67	1504.96
400.86	1420.71
401.05	1444.11
401.24	1516.67
401.44	1455.81
401.63	1451.13
401.82	1479.22
402.01	1526.03
402.21	1540.07
402.40	1554.12
402.59	1530.71
402.78	1502.62
402.97	1537.73
403.17	1544.75
403.36	1612.63
403.55	1596.25
403.74	1617.31
403.93	1633.69
404.13	1661.78
404.32	1687.53
404.51	1678.16
404.70	1732.00
404.89	1680.50
405.09	1771.79
405.28	1605.61
405.47	1804.55
405.66	1760.08
405.85	1668.80
406.05	1776.47
406.24	1783.49
406.43	1795.19
406.62	1837.32
406.81	1788.17
407.00	1736.68
407.20	1823.28
407.39	1713.27
407.58	1907.54
407.77	1919.24
407.96	1928.60
408.15	1987.11
408.34	1944.99
408.54	1980.09
408.73	2022.22
408.92	1975.41
409.11	2078.40
409.30	2040.95
409.49	2010.52
409.68	2026.90
409.87	1987.11
410.07	2033.93
410.26	2094.78
410.45	2001.16
410.64	2040.95
410.83	2209.47
411.02	2134.57
411.21	2244.57
411.40	2190.74
411.59	2305.43
411.78	2324.15
411.98	2111.16
412.17	2312.45
412.36	2267.98
412.55	2420.11
412.74	2394.37
412.93	2457.56
413.12	2448.20
413.31	2459.90
413.50	2443.52
413.69	2546.50
413.88	2605.02
414.07	2431.82
414.26	2457.56
414.45	2647.15
414.64	2635.44
414.83	2654.17
415.02	2600.34
415.22	2747.79
415.41	2726.72
415.60	2722.04
415.79	2698.64
415.98	2740.77
416.17	2750.13
416.36	2768.85
416.55	2832.05
416.74	2733.75
416.93	2888.22
417.12	2930.35
417.31	2923.33
417.50	2916.31
417.69	2972.48
417.88	2942.05
418.07	2967.80
418.26	3021.63
418.45	3136.32
418.64	3190.15
418.83	3201.85
419.02	3080.14
419.21	3328.24
419.39	3075.46
419.58	3141.00
419.77	3059.08
419.96	3178.45
420.15	3215.90
420.34	3208.87
420.53	3185.47
420.72	3274.41
420.91	3342.28
421.10	3318.88
421.29	3414.84
421.48	3253.34
421.67	3452.29
421.86	3471.01
422.05	3339.94
422.24	3358.67
422.43	3365.69
422.61	3391.44
422.80	3508.46
422.99	3433.57
423.18	3478.04
423.37	3510.80
423.56	3524.85
423.75	3487.40
423.94	3421.86
424.13	3213.56
424.32	3321.22
424.50	3417.18
424.69	3527.19
424.88	3489.74
425.07	3475.70
425.26	3447.61
425.45	3445.27
425.64	3618.47
425.83	3487.40
426.01	3578.68
426.20	3613.79
426.39	3562.30
426.58	3543.57
426.77	3602.08
426.96	3588.04
427.15	3538.89
427.33	3698.05
427.52	3676.98
427.71	3667.62
427.90	3751.88
428.09	3740.18
428.28	3747.20
428.46	3702.73
428.65	3634.85
428.84	3824.44
429.03	3859.54
429.22	3702.73
429.40	3826.78
429.59	3737.84
429.78	3667.62
429.97	3620.81
430.16	3691.02
430.34	3779.97
430.53	3756.56
430.72	3908.69
430.91	3845.50
431.10	3939.12
431.28	4007.00
431.47	4161.47
431.66	4091.26
431.85	3932.10
432.03	4084.23
432.22	4102.96
432.41	4128.70
432.60	4121.68
432.79	4039.76
432.97	4236.37
433.16	4301.90
433.35	4124.02
433.54	4102.96
433.72	4301.90
433.91	4255.09
434.10	4262.12
434.28	4264.46
434.47	4236.37
434.66	4463.40
434.85	4397.87
435.03	4369.78
435.22	4416.59
435.41	4510.21
435.59	4505.53
435.78	4524.26
435.97	4374.46
436.16	4615.54
436.34	4479.79
436.53	4676.39
436.72	4634.26
436.90	4575.75
437.09	4643.62
437.28	4568.73
437.46	4550.00
437.65	4709.16
437.84	4657.67
438.02	4636.60
438.21	4760.65
438.40	4573.41
438.58	4873.00
438.77	4734.90
438.96	4826.18
439.14	4922.15
439.33	4744.27
439.52	5057.90
439.70	5100.03
439.89	5151.52
440.08	5109.39
440.26	5174.92
440.45	5060.24
440.63	5280.25
440.82	5345.78
441.01	5085.98
441.19	5245.14
441.38	5313.02
441.57	5387.91
441.75	5476.85
441.94	5687.50
442.12	5551.75
442.31	5598.56
442.50	5467.49
442.68	5570.48
442.87	5689.84
443.05	5657.07
443.24	5603.24
443.43	5666.44
443.61	5727.29
443.80	5844.32
443.98	5692.18
444.17	5596.22
444.35	5844.32
444.54	5912.19
444.73	5846.66
444.91	5701.54
445.10	5710.91
445.28	5706.23
445.47	5675.80
445.65	5921.56
445.84	5844.32
446.02	5783.46
446.21	5849.00
446.39	5926.24
446.58	5944.96
446.77	5771.76
446.95	5872.40
447.14	5849.00
447.32	5900.49
447.51	5893.47
447.69	5949.64
447.88	5788.14
448.06	5954.32
448.25	5949.64
448.43	5963.68
448.62	6045.60
448.80	5977.73
448.99	6066.67
449.17	5966.03
449.36	6001.13
449.54	6054.97
449.73	6136.88
449.91	6122.84
450.10	6141.57
450.28	6340.51
450.46	6235.19
450.65	6328.81
450.83	6169.65
451.02	6401.37
451.20	6284.34
451.39	6373.28
451.57	6274.98
451.76	6214.12
451.94	6403.71
452.13	6565.20
452.31	6267.95
452.49	6298.38
452.68	6539.46
452.86	6441.15
453.05	6436.47
453.23	6406.05
453.42	6506.69
453.60	6445.84
453.78	6551.16
453.97	6602.65
454.15	6567.54
454.34	6544.14
454.52	6715.00
454.70	6644.78
454.89	6808.62
455.07	6799.26
455.26	6787.55
455.44	6827.34
455.62	6956.07
455.81	6670.53
455.99	7040.33
456.17	6993.52
456.36	6881.18
456.54	7059.06
456.73	7225.23
456.91	7255.66
457.09	7272.04
457.28	7288.43
457.46	7129.27
457.64	7199.49
457.83	7290.77
458.01	7119.91
458.19	7391.41
458.38	7279.07
458.56	7470.99
458.74	7590.36
458.93	7356.30
459.11	7325.88
459.29	7356.30
459.48	7293.11
459.66	7344.60
459.84	7534.18
460.03	7445.24
460.21	7403.11
460.39	7578.65
460.57	7562.27
460.76	7683.98
460.94	7770.58
461.12	7459.29
461.31	7637.17
461.49	7775.26
461.67	7728.45
461.85	7801.01
462.04	7698.02
462.22	8222.30
462.40	7906.33
462.59	8035.06
462.77	8016.33
462.95	8095.91
463.13	7894.63
463.32	7791.64
463.50	7932.08
463.68	8063.15
463.86	7985.91
464.05	7913.35
464.23	7885.26
464.41	8187.19
464.59	8184.85
464.78	8255.07
464.96	7913.35
465.14	8154.43
465.32	8360.39
465.50	8182.51
465.69	8128.68
465.87	8292.52
466.05	8383.80
466.23	8269.11
466.41	8182.51
466.60	8582.74
466.78	8105.28
466.96	8084.21
467.14	8222.30
467.32	8367.42
467.51	8439.97
467.69	8292.52
467.87	8510.19
468.05	8540.61
468.23	8339.33
468.41	8372.10
468.60	8454.02
468.78	8491.46
468.96	8533.59
469.14	8802.75
469.32	8720.84
469.50	8470.40
469.69	8648.28
469.87	8500.83
470.05	8800.41
470.23	8772.33
470.41	8877.65
470.59	8952.55
470.77	8966.59
470.95	9013.40
471.14	9181.92
471.32	8802.75
471.50	9233.41
471.68	9312.99
471.86	9025.11
472.04	9247.46
472.22	9504.92
472.40	9104.68
472.58	9448.74
472.77	9563.43
472.95	9408.95
473.13	9914.51
473.31	9411.29
473.49	9427.68
473.67	9413.63
473.85	9666.41
474.03	9846.63
474.21	9930.89
474.39	10024.51
474.57	9949.62
474.75	10113.45
474.93	10038.56
475.12	9898.13
475.30	10223.46
475.48	9937.91
475.66	10263.25
475.84	10106.43
476.02	10422.41
476.20	10300.70
476.38	10338.15
476.56	10721.99
476.74	10483.26
476.92	10663.48
477.10	10853.06
477.28	10792.21
477.46	10621.35
477.64	10937.32
477.82	11052.01
478.00	11487.35
478.18	11047.33
478.36	11290.74
478.54	11475.65
478.72	11370.32
478.90	11297.77
479.08	11679.27
479.26	11517.78
479.44	11665.23
479.62	11742.47
479.80	12280.79
479.98	11964.82
480.16	12053.76
480.34	11976.52
480.52	12500.80
480.70	12397.82
480.88	12182.49
481.06	12390.80
481.24	12564.00
481.41	12666.98
481.59	12767.62
481.77	12961.89
481.95	12915.08
482.13	13102.32
482.31	12985.29
482.49	13303.60
482.67	13413.61
482.85	13568.09
483.03	13650.00
483.21	13736.60
483.39	13657.03
483.57	13673.41
483.74	13965.98
483.92	14038.53
484.10	14026.83
484.28	14099.39
484.46	14630.69
484.64	14736.01
484.82	14368.55
485.00	14541.75
485.18	14773.46
485.35	15089.43
485.53	14956.02
485.71	14991.13
485.89	15119.86
486.07	15089.43
486.25	15307.10
486.43	15349.23
486.61	15555.20
486.78	15892.24
486.96	15758.83
487.14	16086.50
487.32	16458.65
487.50	16374.39
487.68	16463.33
487.85	16709.08
488.03	16926.75
488.21	16842.50
488.39	16940.80
488.57	16851.86
488.75	17179.53
488.92	17198.26
489.10	17532.95
489.28	17451.03
489.46	17345.71
489.64	17947.23
489.81	18277.24
489.99	18132.13
490.17	18302.99
490.35	18602.58
490.53	18625.98
490.70	18405.97
490.88	18471.51
491.06	19000.47
491.24	18897.49
491.41	18970.04
491.59	19007.49
491.77	19007.49
491.95	19206.44
492.13	19381.98
492.30	19424.11
492.48	19772.85
492.66	19772.85
492.84	19763.48
493.01	20212.87
493.19	19969.45
493.37	20091.16
493.54	20545.22
493.72	20477.35
493.90	20435.22
494.08	20772.25
494.25	20975.88
494.43	21130.36
494.61	21219.30
494.79	21385.47
494.96	21085.89
495.14	21081.21
495.32	21359.73
495.49	21411.22
495.67	21820.81
495.85	22094.66
496.02	22246.79
496.20	21937.84
496.38	22473.82
496.55	22263.18
496.73	23012.15
496.91	22253.81
497.09	22415.31
497.26	22831.93
497.44	22602.55
497.62	23227.48
497.79	23491.96
497.97	23131.51
498.14	22829.59
498.32	23555.15
498.50	23431.10
498.67	23836.02
498.85	23803.25
499.03	23871.12
499.20	24037.30
499.38	23948.36
499.56	24194.12
499.73	24547.54
499.91	24159.01
500.08	24430.51
500.26	24343.91
500.44	24346.25
500.61	24287.74
500.79	24531.15
500.97	24830.74
501.14	25029.69
501.32	25355.02
501.49	24917.34
501.67	25109.27
501.84	25268.42
502.02	25198.21
502.20	25392.47
502.37	25652.27
502.55	25596.10
502.72	25582.06
502.90	25678.02
503.07	25724.83
503.25	26064.21
503.43	25584.40
503.60	25804.41
503.78	26361.45
503.95	26008.03
504.13	26031.44
504.30	26328.69
504.48	26305.28
504.65	26600.19
504.83	26242.09
505.01	27000.42
505.18	26689.13
505.36	27089.36
505.53	26953.61
505.71	26834.24
505.88	26871.69
506.06	26941.91
506.23	26920.84
506.41	27278.94
506.58	27431.08
506.76	27641.73
506.93	27449.80
507.11	27723.65
507.28	27498.95
507.46	27597.26
507.63	27611.30
507.81	27978.76
507.98	27573.85
508.16	28067.70
508.33	28203.46
508.50	28367.29
508.68	28294.74
508.85	28435.17
509.03	28685.61
509.20	28425.81
509.38	29006.26
509.55	28964.13
509.73	28924.34
509.90	28680.92
510.08	28758.16
510.25	28903.28
510.42	29024.98
510.60	29277.76
510.77	29446.28
510.95	29493.09
511.12	29378.40
511.30	29862.90
511.47	29790.34
511.64	29668.63
511.82	29673.31
511.99	29532.88
512.17	29792.68
512.34	29661.61
512.51	30108.65
512.69	30391.86
512.86	30396.54
513.04	30712.51
513.21	30515.90
513.38	30532.29
513.56	30438.67
513.73	30295.89
513.90	30771.02
514.08	30368.45
514.25	30665.70
514.43	30885.71
514.60	30862.30
514.77	30590.80
514.95	30881.03
515.12	30677.40
515.29	31339.77
515.47	31564.46
515.64	31779.79
515.81	31005.08
515.99	31417.01
516.16	31110.40
516.33	31491.91
516.51	31564.46
516.68	31009.76
516.85	31452.12
517.03	31681.49
517.20	31377.22
517.37	31601.91
517.54	32142.58
517.72	32023.21
517.89	32034.91
518.06	32222.16
518.24	31709.58
518.41	31466.16
518.58	32294.71
518.75	32198.75
518.93	32669.20
519.10	32549.83
519.27	32573.24
519.45	32444.51
519.62	33010.92
519.79	32861.12
519.96	32943.04
520.14	33394.76
520.31	32896.23
520.48	33497.75
520.65	33034.32
520.83	33626.48
521.00	33502.43
521.17	33071.77
521.34	33804.36
521.52	33490.73
521.69	33806.70
521.86	33326.89
522.03	33841.81
522.20	33504.77
522.38	33787.97
522.55	34068.84
522.72	34033.73
522.89	34169.48
523.07	33916.70
523.24	33872.23
523.41	34029.05
523.58	34218.63
523.75	34581.42
523.92	34586.10
524.10	34576.73
524.27	34529.92
524.44	34543.97
524.61	34525.24
524.78	35150.17
524.96	34799.08
525.13	34745.25
525.30	35576.14
525.47	35093.99
525.64	35285.92
525.81	35358.47
525.98	34965.26
526.16	34925.47
526.33	35136.12
526.50	35257.83
526.67	35178.25
526.84	35236.77
527.01	34988.67
527.18	35295.28
527.36	35309.32
527.53	35861.69
527.70	36233.83
527.87	36077.02
528.04	35679.13
528.21	35988.08
528.38	35908.50
528.55	36062.97
528.72	35835.94
528.89	36397.67
529.07	36219.79
529.24	35924.88
529.41	35838.28
529.58	36084.04
529.75	36257.24
529.92	36531.08
530.09	36460.87
530.26	36655.13
530.43	36664.49
530.60	36645.77
530.77	36657.47
530.94	36648.11
531.11	36896.20
531.28	37158.34
531.46	36933.65
531.63	37116.22
531.80	37146.64
531.97	37301.12
532.14	36952.38
532.31	37153.66
532.48	37038.98
532.65	37666.24
532.82	37397.08
532.99	37514.11
533.16	36912.59
533.33	37469.64
533.50	37553.90
533.67	37469.64
533.84	37411.12
534.01	37928.38
534.18	37874.55
534.35	38211.59
534.52	37722.41
534.69	37965.83
534.86	38160.09
535.03	38124.99
535.20	38206.90
535.37	38431.60
535.54	38359.04
535.71	37998.60
535.88	38398.83
536.05	37940.08
536.22	38436.28
536.38	38185.84
536.55	38436.28
536.72	38370.74
536.89	38185.84
537.06	38309.89
537.23	38590.75
537.40	38656.29
537.57	38796.72
537.74	38529.90
537.91	38621.18
538.08	38948.85
538.25	38710.12
538.42	38871.62
538.59	39412.28
538.75	38787.36
538.92	38850.55
539.09	39166.52
539.26	38586.07
539.43	38944.17
539.60	39234.40
539.77	39009.71
539.94	39225.04
540.11	39047.16
540.28	39309.30
540.44	39313.98
540.61	39152.48
540.78	38841.19
540.95	38986.30
541.12	39285.89
541.29	39365.47
541.46	39330.36
541.62	39608.89
541.79	39667.40
541.96	39061.20
542.13	39346.75
542.30	39824.22
542.47	39594.84
542.63	39835.92
542.80	40128.48
542.97	40416.37
543.14	40287.64
543.31	40304.02
543.48	40088.70
543.64	40491.27
543.81	40343.81
543.98	40648.08
544.15	40236.15
544.32	40399.99
544.48	40629.36
544.65	40605.95
544.82	40715.96
544.99	40362.54
545.16	40664.47
545.32	40652.76
545.49	40978.10
545.66	41219.17
545.83	40687.87
546.00	40875.12
546.16	40566.16
546.33	40692.55
546.50	40643.40
546.67	40870.43
546.83	40629.36
547.00	41102.15
547.17	41247.26
547.34	41055.34
547.50	41558.55
547.67	41368.97
547.84	41471.95
548.00	41137.26
548.17	41734.09
548.34	41258.96
548.51	41799.63
548.67	41347.90
548.84	41736.43
549.01	41467.27
549.18	41535.15
549.34	41792.61
549.51	41855.80
549.68	41752.82
549.84	41801.97
550.01	41982.19
550.18	41785.58
550.34	41687.28
550.51	41624.09
550.68	41418.12
550.84	41518.76
551.01	41935.38
551.18	41544.51
551.34	41858.14
551.51	41741.11
551.68	42059.43
551.84	42234.97
552.01	42064.11
552.18	42141.35
552.34	41928.36
552.51	42223.26
552.68	42323.91
552.84	42239.65
553.01	42576.69
553.18	42120.28
553.34	42157.73
553.51	41858.14
553.67	42515.83
553.84	42375.40
554.01	42628.18
554.17	42391.78
554.34	42845.85
554.51	42794.36
554.67	42672.65
554.84	42639.88
555.00	42511.15
555.17	42616.47
555.33	42806.06
555.50	42738.18
555.67	42869.25
555.83	42700.73
556.00	42937.13
556.16	43496.52
556.33	42677.33
556.50	42850.53
556.66	42885.64
556.83	42569.66
556.99	42555.62
557.16	43000.32
557.32	42827.12
557.49	42873.93
557.65	42852.87
557.82	42726.48
557.98	43096.28
558.15	43009.68
558.32	43363.11
558.48	42909.04
558.65	43056.50
558.81	42808.40
558.98	42838.83
559.14	42862.23
559.31	43159.48
559.47	43468.43
559.64	43599.50
559.80	43416.94
559.97	43335.02
560.13	43288.21
560.30	43292.89
560.46	43349.06
560.63	43150.12
560.79	43409.92
560.96	43681.42
561.12	43147.78
561.29	43402.89
561.45	43433.32
561.61	43491.83
561.78	43636.95
561.94	43178.20
562.11	43543.33
562.27	43203.95
562.44	43526.94
562.60	43866.32
562.77	43807.81
562.93	43555.03
563.10	43508.22
563.26	43103.31
563.42	43494.18
563.59	43543.33
563.75	43489.49
563.92	44091.01
564.08	43503.54
564.24	43796.10
564.41	43524.60
564.57	43910.79
564.74	43742.27
564.90	44215.06
565.07	43770.36
565.23	43665.03
565.39	43861.64
565.56	43866.32
565.72	43714.19
565.88	43625.25
566.05	43737.59
566.21	43845.26
566.38	43751.63
566.54	43782.06
566.70	44177.61
566.87	44776.79
567.03	44194.00
567.19	44137.82
567.36	43871.00
567.52	43861.64
567.68	44336.77
567.85	43969.30
568.01	43728.23
568.17	43232.04
568.34	44453.79
568.50	43952.92
568.66	44011.43
568.83	44079.31
568.99	43995.05
569.15	43920.15
569.32	43721.21
569.48	43761.00
569.64	44039.52
569.81	44294.64
569.97	44229.10
570.13	44203.36
570.30	43763.34
570.46	44044.20
570.62	44259.53
570.78	44289.96
570.95	43779.72
571.11	43878.02
571.27	43871.00
571.43	44009.09
571.60	44280.60
571.76	44140.16
571.92	43803.13
572.09	44065.27
572.25	44067.61
572.41	43957.60
572.57	44704.23
572.74	44835.30
572.90	44289.96
573.06	44594.23
573.22	44289.96
573.38	44383.58
573.55	44121.44
573.71	44154.21
573.87	44126.12
574.03	44107.40
574.20	44332.09
574.36	44327.41
574.52	44360.17
574.68	44350.81
574.84	44549.76
575.01	44509.97
575.17	44404.64
575.33	44161.23
575.49	44360.17
575.65	44648.06
575.82	44760.40
575.98	44322.72
576.14	44648.06
576.30	44196.34
576.46	44261.87
576.62	44109.74
576.79	44346.13
576.95	43927.17
577.11	44273.57
577.27	44369.54
577.43	44219.74
577.59	44030.16
577.75	44580.18
577.92	44048.88
578.08	44151.87
578.24	43826.53
578.40	44388.26
578.56	44479.54
578.72	44563.80
578.88	44437.41
579.04	44446.77
579.21	44128.46
579.37	44423.37
579.53	44507.63
579.69	44142.50
579.85	44339.11
580.01	44444.43
580.17	44559.12
580.33	44559.12
580.49	44409.32
580.65	44610.61
580.82	44603.59
580.98	44460.82
581.14	44456.14
581.30	44587.21
581.46	44399.96
581.62	44729.98
581.78	44212.72
581.94	44959.35
582.10	44732.32
582.26	44879.77
582.42	44566.14
582.58	44596.57
582.74	44673.81
582.90	44760.40
583.06	44961.69
583.22	44470.18
583.38	45102.12
583.54	44516.99
583.70	44308.68
583.86	44168.25
584.02	44294.64
584.18	44554.44
584.34	44519.33
584.50	44336.77
584.66	44334.43
584.82	44734.66
584.98	45038.93
585.14	44559.12
585.30	44222.08
585.46	44402.30
585.62	44863.39
585.78	43849.94
585.94	44418.69
586.10	44329.75
586.26	44123.78
586.42	44919.56
586.58	44678.49
586.74	44587.21
586.90	44706.57
587.06	44414.01
587.22	44854.03
587.38	44051.22
587.54	44722.96
587.70	44484.22
587.86	44755.72
588.02	44624.65
588.18	44814.24
588.34	44767.43
588.49	44444.43
588.65	44353.15
588.81	44259.53
588.97	44432.73
589.13	44456.14
589.29	44617.63
589.45	44919.56
589.61	44669.12
589.77	45212.13
589.93	44751.04
590.08	45116.17
590.24	44697.21
590.40	44861.05
590.56	44645.72
590.72	44509.97
590.88	44563.80
591.04	44559.12
591.20	45111.49
591.35	44711.25
591.51	45036.59
591.67	44940.63
591.83	44603.59
591.99	44514.65
592.15	45130.21
592.31	44935.95
592.46	44889.13
592.62	45062.33
592.78	44783.81
592.94	44966.37
593.10	44868.07
593.26	44603.59
593.41	45191.06
593.57	45228.51
593.73	45059.99
593.89	44678.49
594.05	44619.97
594.20	44891.48
594.36	45123.19
594.52	45296.39
594.68	45366.60
594.84	45179.36
594.99	45291.71
595.15	45003.82
595.31	45268.30
595.47	45151.27
595.62	44856.37
595.78	45219.15
595.94	45158.30
596.10	45198.09
596.25	45647.47
596.41	45284.68
596.57	44528.69
596.73	45055.31
596.88	44926.58
597.04	44692.53
597.20	44954.67
597.36	45188.72
597.51	45088.08
597.67	45088.08
597.83	44697.21
597.99	45022.54
598.14	45132.55
598.30	45097.44
598.46	45059.99
598.61	44687.85
598.77	44636.36
598.93	45081.06
599.09	45265.96
599.24	45638.11
599.40	45113.83
599.56	45137.23
599.71	45317.45
599.87	45319.79
600.03	44898.50
600.18	44683.17
600.34	44800.19
600.50	45069.36
600.65	45153.62
600.81	44952.33
600.97	45280.00
601.12	45441.50
601.28	45544.48
601.44	45530.44
601.59	45099.78
601.75	45195.74
601.91	45209.79
602.06	44821.26
602.22	45059.99
602.37	45062.33
602.53	45174.68
602.69	45139.57
602.84	45076.38
603.00	45088.08
603.16	44961.69
603.31	45092.76
603.47	44933.60
603.62	45160.64
603.78	45038.93
603.94	45172.34
604.09	45247.24
604.25	44830.62
604.40	45001.48
604.56	44823.60
604.71	44893.82
604.87	45118.51
605.03	45177.02
605.18	44737.00
605.34	44680.83
605.49	44292.30
605.65	44844.66
605.80	44814.24
605.96	45116.17
606.12	45020.20
606.27	45324.47
606.43	44994.46
606.58	44938.29
606.74	44332.09
606.89	44704.23
607.05	44481.88
607.20	44802.53
607.36	44636.36
607.51	45127.87
607.67	44741.68
607.82	44580.18
607.98	44889.13
608.13	45006.16
608.29	44636.36
608.44	44619.97
608.60	44442.09
608.75	44119.10
608.91	44430.39
609.06	44521.67
609.22	44690.19
609.37	44631.68
609.53	44765.09
609.68	44884.45
609.84	44767.43
609.99	44634.02
610.15	44765.09
610.30	44435.07
610.46	44484.22
610.61	44191.65
610.76	44341.45
610.92	44105.06
611.07	44304.00
611.23	44282.94
611.38	44753.38
611.54	44528.69
611.69	44542.74
611.84	44531.03
612.00	43962.28
612.15	44006.75
612.31	43903.77
612.46	44552.10
612.62	44652.74
612.77	44191.65
612.92	44055.90
613.08	44175.27
613.23	44069.95
613.39	43821.85
613.54	44098.03
613.69	44226.76
613.85	44175.27
614.00	44280.60
614.15	44397.62
614.31	44203.36
614.46	44568.48
614.62	44093.35
614.77	43810.15
614.92	43924.83
615.08	44151.87
615.23	43964.62
615.38	43966.96
615.54	43583.12
615.69	43971.64
615.84	43580.78
616.00	43920.15
616.15	43739.93
616.30	44032.50
616.46	43817.17
616.61	43688.44
616.76	43885.04
616.92	44039.52
617.07	43807.81
617.22	43400.55
617.37	43447.36
617.53	43913.13
617.68	43997.39
617.83	44060.58
617.99	43629.93
618.14	43253.10
618.29	43498.86
618.45	43168.84
618.60	42972.24
618.75	43552.69
618.90	43379.49
619.06	43697.80
619.21	43194.59
619.36	43702.48
619.51	43339.70
619.67	43674.40
619.82	43650.99
619.97	43470.77
620.12	42871.59
620.28	43030.75
620.43	43187.56
620.58	43239.06
620.73	43540.99
620.89	43283.53
621.04	42918.40
621.19	43540.99
621.34	43035.43
621.49	42810.74
621.65	42829.46
621.80	42958.19
621.95	43210.97
622.10	42944.15
622.25	42880.95
622.41	42644.56
622.56	42670.31
622.71	43309.27
622.86	43098.62
623.01	42763.93
623.16	42543.92
623.32	43138.41
623.47	43086.92
623.62	42983.94
623.77	42579.03
623.92	43047.13
624.07	42829.46
624.23	42913.72
624.38	42682.01
624.53	42417.53
624.68	42721.80
624.83	42328.59
624.98	42855.21
625.13	42513.49
625.29	42382.42
625.44	42845.85
625.59	41883.89
625.74	42012.62
625.89	41928.36
626.04	41991.55
626.19	42204.54
626.34	42370.72
626.49	42218.58
626.65	42349.65
626.80	42251.35
626.95	42127.30
627.10	41876.86
627.25	42337.95
627.40	41743.45
627.55	41937.72
627.70	41605.36
627.85	41385.35
628.00	41689.62
628.15	42328.59
628.30	42026.66
628.45	41539.83
628.60	42202.20
628.76	41750.48
628.91	41968.15
629.06	41801.97
629.21	41851.12
629.36	41628.77
629.51	41118.53
629.66	41305.77
629.81	41542.17
629.96	41626.43
630.11	41427.48
630.26	41858.14
630.41	42054.75
630.56	41420.46
630.71	41649.83
630.86	41338.54
631.01	40978.10
631.16	41188.75
631.31	41001.50
631.46	40849.37
631.61	41324.50
631.76	41228.54
631.91	41268.33
632.06	41574.94
632.21	41425.14
632.36	41731.75
632.51	41090.44
632.66	41397.06
632.81	40947.67
632.96	40737.02
633.10	40758.09
633.25	41256.62
633.40	40982.78
633.55	41132.57
633.70	40996.82
633.85	40935.97
634.00	41095.13
634.15	41340.88
634.30	40961.72
634.45	41027.25
634.60	40444.46
634.75	40739.36
634.90	40779.15
635.05	41265.99
635.19	40568.51
635.34	41111.51
635.49	40961.72
635.64	40140.19
635.79	40481.91
635.94	40369.56
636.09	40762.77
636.24	40542.76
636.39	40638.72
636.53	40144.87
636.68	40252.53
636.83	40814.26
636.98	40573.19
637.13	40481.91
637.28	40231.47
637.43	40638.72
637.57	40430.41
637.72	40217.43
637.87	40900.86
638.02	40369.56
638.17	40018.48
638.32	39854.64
638.46	40023.16
638.61	39597.18
638.76	39826.56
638.91	39894.43
639.06	40098.06
639.20	39992.73
639.35	40364.88
639.50	40121.46
639.65	40435.10
639.80	40313.39
639.94	39908.47
640.09	39746.98
640.24	39646.33
640.39	39416.96
640.54	40079.33
640.68	39676.76
640.83	39578.46
640.98	39875.71
641.13	39632.29
641.27	40135.51
641.42	39370.15
641.57	39709.53
641.72	39796.13
641.86	39086.95
642.01	38967.58
642.16	39318.66
642.31	38909.07
642.45	40002.10
642.60	39321.00
642.75	38981.62
642.90	39447.39
643.04	39220.36
643.19	39372.49
643.34	39260.15
643.48	39292.91
643.63	39005.03
643.78	39262.49
643.93	39187.59
644.07	38759.27
644.22	39168.87
644.37	39129.08
644.51	38480.75
644.66	39147.80
644.81	38831.83
644.95	38642.24
645.10	39206.31
645.25	38890.34
645.39	39456.75
645.54	38717.14
645.69	39129.08
645.83	38871.62
645.98	38911.41
646.13	39035.45
646.27	38827.15
646.42	38920.77
646.57	38696.08
646.71	38824.81
646.86	38522.88
647.00	38611.82
647.15	38998.01
647.30	38855.23
647.44	39072.90
647.59	39037.80
647.74	38373.08
647.88	38391.81
648.03	37876.89
648.17	38527.56
648.32	37986.89
648.47	38270.10
648.61	38330.95
648.76	38710.12
648.90	38412.87
649.05	38440.96
649.20	38529.90
649.34	38768.63
649.49	38581.39
649.63	38499.47
649.78	38513.52
649.92	38143.71
650.07	38527.56
650.21	38075.84
650.36	38110.94
650.51	38190.52
650.65	38316.91
650.80	38452.66
650.94	38515.86
651.09	37937.74
651.23	38206.90
651.38	38239.67
651.52	37965.83
651.67	38237.33
651.81	37832.42
651.96	37954.13
652.10	37642.84
652.25	37806.67
652.39	37603.05
652.54	37656.88
652.68	38073.49
652.83	37904.98
652.97	37975.19
653.12	37731.78
653.26	37624.11
653.41	37844.12
653.55	37436.87
653.70	37413.46
653.84	37694.33
653.99	37294.10
654.13	37874.55
654.27	37401.76
654.42	37598.37
654.56	37567.94
654.71	37600.71
654.85	37418.14
655.00	37490.70
655.14	37280.05
655.29	37050.68
655.43	37233.24
655.57	37062.38
655.72	37254.31
655.86	37013.23
656.01	37221.54
656.15	36776.84
656.30	37085.79
656.44	37148.98
656.58	36463.21
656.73	36662.15
656.87	37219.20
657.01	36673.85
657.16	36863.44
657.30	36414.05
657.45	36559.17
657.59	36851.73
657.73	36636.41
657.88	36900.89
658.02	36744.07
658.16	36685.56
658.31	36732.37
658.45	36957.06
658.60	36287.67
658.74	36561.51
658.88	37266.01
659.03	36367.24
659.17	36400.01
659.31	36201.07
659.46	36334.48
659.60	36416.40
659.74	36224.47
659.89	35880.41
660.03	36348.52
660.17	36030.21
660.32	36030.21
660.46	35917.86
660.60	36458.52
660.74	36423.42
660.89	36381.29
661.03	35842.96
661.17	36020.84
661.32	35613.59
661.46	35945.95
661.60	35534.01
661.74	35988.08
661.89	35622.95
662.03	35632.32
662.17	35449.75
662.31	35512.95
662.46	35737.64
662.60	35798.49
662.74	35262.51
662.88	34909.09
663.03	35524.65
663.17	35330.39
663.31	35232.08
663.45	35196.98
663.60	35358.47
663.74	34689.08
663.88	34663.33
664.02	34845.90
664.17	34864.62
664.31	34403.53
664.45	34628.23
664.59	35070.59
664.73	34792.06
664.88	34462.05
665.02	34614.18
665.16	34810.79
665.30	34806.11
665.44	34607.16
665.59	34213.95
665.73	34440.98
665.87	34382.47
666.01	34017.35
666.15	33696.69
666.29	34382.47
666.44	34302.89
666.58	34181.18
666.72	34347.36
666.86	34199.91
667.00	33715.42
667.14	33493.07
667.28	33546.90
667.43	33708.40
667.57	33369.02
667.71	33628.82
667.85	33584.35
667.99	33256.67
668.13	33633.50
668.27	33579.67
668.41	33359.66
668.56	33102.20
668.70	33284.76
668.84	33118.58
668.98	32975.81
669.12	33259.01
669.26	33139.65
669.40	33092.83
669.54	32872.82
669.68	32978.15
669.82	32760.48
669.96	32727.71
670.10	32428.12
670.25	32683.24
670.39	32563.87
670.53	32786.22
670.67	32409.40
670.81	32528.77
670.95	32730.05
671.09	32980.49
671.23	32580.26
671.37	32556.85
671.51	32180.03
671.65	32315.78
671.79	31992.78
671.93	31784.48
672.07	32030.23
672.21	31810.22
672.35	31730.64
672.49	31740.00
672.63	31672.13
672.77	31775.11
672.91	31763.41
673.05	31730.64
673.19	31569.15
673.33	31527.02
673.47	31318.71
673.61	31264.88
673.75	31318.71
673.89	31065.93
674.03	30859.96
674.17	30752.30
674.31	30897.41
674.45	30543.99
674.59	31019.12
674.73	30913.80
674.87	31007.42
675.01	30902.09
675.15	30703.15
675.29	30855.28
675.43	30572.08
675.56	30583.78
675.70	30412.92
675.84	30110.99
675.98	29130.31
676.12	30548.67
676.26	30188.23
676.40	29778.64
676.54	29567.99
676.68	29954.18
676.82	29331.59
676.96	29532.88
677.10	29577.35
677.23	29193.50
677.37	29291.80
677.51	29357.34
677.65	29411.17
677.79	29006.26
677.93	29130.31
678.07	29085.84
678.21	28144.94
678.34	28449.21
678.48	28601.35
678.62	28589.64
678.76	28463.25
678.90	28116.86
679.04	28224.52
679.18	28166.01
679.31	28156.64
679.45	28013.87
679.59	27754.07
679.73	27957.70
679.87	27924.93
680.00	28041.96
680.14	27828.97
680.28	27407.67
680.42	27297.67
680.56	27227.45
680.70	27253.20
680.83	27405.33
680.97	26836.58
681.11	26775.73
681.25	27084.68
681.39	27061.27
681.52	26939.57
681.66	26843.60
681.80	26490.18
681.94	26485.50
682.07	26712.53
682.21	26719.56
682.35	26316.98
682.49	26293.58
682.62	26412.95
682.76	26265.49
682.90	25645.25
683.04	25820.79
683.17	25937.82
683.31	25893.35
683.45	25841.85
683.59	25446.30
683.72	25212.25
683.86	25132.67
684.00	24851.81
684.13	25284.81
684.27	25408.86
684.41	24837.76
684.55	24952.45
684.68	25006.28
684.82	24884.58
684.96	24617.75
685.09	24741.80
685.23	24772.23
685.37	24690.31
685.50	24437.53
685.64	24364.98
685.78	24449.24
685.91	24360.30
686.05	24049.00
686.19	23737.71
686.32	23695.58
686.46	23922.62
686.60	23388.97
686.73	23548.13
686.87	23211.09
687.01	23143.22
687.14	23131.51
687.28	23047.26
687.42	23058.96
687.55	22920.87
687.69	22974.70
687.82	22682.13
687.96	22703.20
688.10	22539.36
688.23	22483.19
688.37	22370.84
688.50	22417.65
688.64	22309.99
688.78	22410.63
688.91	22008.06
689.05	21979.97
689.18	21874.65
689.32	21411.22
689.46	22118.06
689.59	22455.10
689.73	21645.27
689.86	21607.83
690.00	21530.59
690.13	21898.05
690.27	21687.40
690.41	21582.08
690.54	21411.22
690.68	21041.42
690.81	21022.69
690.95	20805.02
691.08	20987.58
691.22	20872.90
691.35	20802.68
691.49	20865.88
691.62	20669.27
691.76	20858.85
691.89	21015.67
692.03	20229.25
692.16	20360.32
692.30	20388.41
692.43	20442.24
692.57	20023.28
692.70	20196.48
692.84	20163.72
692.97	19770.51
693.11	19716.67
693.24	19655.82
693.38	19365.59
693.51	19264.95
693.65	19667.52
693.78	19522.41
693.92	19627.73
694.05	19335.17
694.19	19206.44
694.32	19222.82
694.45	18871.74
694.59	19070.68
694.72	18963.02
694.86	18614.28
694.99	18675.13
695.13	18750.03
695.26	18218.73
695.39	18324.05
695.53	18258.52
695.66	18754.71
695.80	18139.15
695.93	18190.64
696.07	18139.15
696.20	18101.70
696.33	18347.46
696.47	17947.23
696.60	17937.87
696.73	17804.46
696.87	17600.83
697.00	17617.21
697.14	17664.02
697.27	17525.93
697.40	17518.91
697.54	17305.92
697.67	17418.27
697.80	17436.99
697.94	17291.88
698.07	16779.30
698.21	16915.05
698.34	17027.40
698.47	16915.05
698.61	16545.25
698.74	16613.12
698.87	16685.68
699.01	16327.58
699.14	16451.63
699.27	16322.90
699.40	16294.81
699.54	15983.52
699.67	16145.02
699.80	16348.64
699.94	16051.39
700.07	15995.22
700.20	15948.41
700.34	15613.71
700.47	15812.66
700.60	16049.05
700.73	15932.03
700.87	15723.72
701.00	15527.11
701.13	15276.68
701.26	15384.34
701.40	15382.00
701.53	15201.78
701.66	15234.55
701.79	14803.89
701.93	15042.62
702.06	14836.66
702.19	15012.20
702.32	15105.82
702.46	14684.52
702.59	14773.46
702.72	14855.38
702.85	14579.20
702.99	14705.59
703.12	14789.85
703.25	14574.52
703.38	14279.61
703.51	14450.47
703.65	14429.40
703.78	14434.08
703.91	14197.69
704.04	14092.37
704.17	13781.07
704.31	13947.25
704.44	13401.91
704.57	13614.90
704.70	13661.71
704.83	13642.98
704.96	13635.96
705.10	13605.53
705.23	13568.09
>>>>>End Processed Spectral Data<<<<<
