SpectraSuite Data File
++++++++++++++++++++++++++++++++++++
Date: Fri Oct 25 11:34:37 EDT 2013
User: price-jones
Dark Spectrum Present: No
Reference Spectrum Present: No
Number of Sampled Component Spectra: 1
Spectrometers: USB2+H05261
Integration Time (usec): 100000 (USB2+H05261)
Spectra Averaged: 1 (USB2+H05261)
Boxcar Smoothing: 0 (USB2+H05261)
Correct for Electrical Dark: No (USB2+H05261)
Strobe/Lamp Enabled: No (USB2+H05261)
Correct for Detector Non-linearity: No (USB2+H05261)
Correct for Stray Light: No (USB2+H05261)
Number of Pixels in Processed Spectrum: 2048
>>>>>Begin Processed Spectral Data<<<<<
365.73	252.78
365.92	252.78
366.12	252.78
366.32	194.26
366.52	229.37
366.72	140.43
366.91	184.90
367.11	145.11
367.31	133.41
367.51	145.11
367.70	131.07
367.90	191.92
368.10	124.05
368.30	159.16
368.49	191.92
368.69	224.69
368.89	238.73
369.09	145.11
369.28	238.73
369.48	177.88
369.68	201.29
369.87	304.27
370.07	271.50
370.27	196.60
370.47	339.38
370.66	505.56
370.86	500.87
371.06	592.16
371.25	568.75
371.45	484.49
371.65	573.43
371.84	519.60
372.04	449.38
372.24	575.77
372.44	573.43
372.63	594.50
372.83	564.07
373.03	601.52
373.22	559.39
373.42	582.79
373.62	603.86
373.81	613.22
374.01	638.97
374.21	641.31
374.40	596.84
374.60	692.80
374.79	674.07
374.99	580.45
375.19	699.82
375.38	697.48
375.58	655.35
375.78	634.29
375.97	662.37
376.17	669.39
376.37	711.52
376.56	678.76
376.76	657.69
376.95	638.97
377.15	746.63
377.35	662.37
377.54	706.84
377.74	634.29
377.93	650.67
378.13	779.40
378.33	702.16
378.52	702.16
378.72	671.73
378.91	711.52
379.11	683.44
379.31	706.84
379.50	627.26
379.70	695.14
379.89	699.82
380.09	674.07
380.28	723.23
380.48	716.20
380.68	662.37
380.87	758.33
381.07	732.59
381.26	774.72
381.46	723.23
381.65	713.86
381.85	746.63
382.04	676.41
382.24	779.40
382.43	753.65
382.63	793.44
382.83	758.33
383.02	737.27
383.22	812.17
383.41	786.42
383.61	779.40
383.80	758.33
384.00	765.36
384.19	798.12
384.39	763.01
384.58	781.74
384.78	805.14
384.97	770.04
385.17	798.12
385.36	793.44
385.56	772.38
385.75	922.17
385.95	823.87
386.14	936.21
386.34	903.45
386.53	936.21
386.72	866.00
386.92	866.00
387.11	875.36
387.31	891.74
387.50	828.55
387.70	851.96
387.89	793.44
388.09	898.77
388.28	835.57
388.48	821.53
388.67	856.64
388.86	823.87
389.06	833.23
389.25	854.30
389.45	917.49
389.64	889.40
389.84	973.66
390.03	966.64
390.22	938.55
390.42	924.51
390.61	971.32
390.81	901.11
391.00	933.87
391.19	1032.18
391.39	1011.11
391.58	954.94
391.78	912.81
391.97	985.37
392.16	931.53
392.36	990.05
392.55	1055.58
392.75	990.05
392.94	1036.86
393.13	980.68
393.33	1083.67
393.52	985.37
393.71	1029.84
393.91	1104.73
394.10	1067.28
394.29	1057.92
394.49	1006.43
394.68	997.07
394.88	1109.41
395.07	1118.78
395.26	1102.39
395.46	1050.90
395.65	1048.56
395.84	1130.48
396.04	1186.65
396.23	1086.01
396.42	1128.14
396.62	1132.82
396.81	1186.65
397.00	1151.54
397.19	1116.44
397.39	1196.01
397.58	1289.64
397.77	1203.04
397.97	1210.06
398.16	1291.98
398.35	1247.51
398.55	1266.23
398.74	1294.32
398.93	1301.34
399.12	1334.11
399.32	1291.98
399.51	1444.11
399.70	1240.48
399.90	1315.38
400.09	1308.36
400.28	1397.30
400.47	1259.21
400.67	1434.75
400.86	1343.47
401.05	1350.49
401.24	1366.87
401.44	1416.02
401.63	1406.66
401.82	1427.73
402.01	1343.47
402.21	1474.54
402.40	1411.34
402.59	1511.99
402.78	1378.58
402.97	1472.20
403.17	1486.24
403.36	1472.20
403.55	1556.46
403.74	1479.22
403.93	1486.24
404.13	1481.56
404.32	1523.69
404.51	1519.01
404.70	1636.03
404.89	1497.94
405.09	1605.61
405.28	1624.33
405.47	1596.25
405.66	1661.78
405.85	1701.57
406.05	1645.40
406.24	1631.35
406.43	1727.32
406.62	1706.25
406.81	1717.95
407.00	1668.80
407.20	1650.08
407.39	1629.01
407.58	1652.42
407.77	1799.87
407.96	1720.29
408.15	1816.26
408.34	1830.30
408.54	1792.85
408.73	1792.85
408.92	1867.75
409.11	1846.68
409.30	1884.13
409.49	1935.62
409.68	1839.66
409.87	1905.20
410.07	1984.77
410.26	1907.54
410.45	1975.41
410.64	2076.06
410.83	1956.69
411.02	2008.18
411.21	2057.33
411.40	2153.29
411.59	2085.42
411.78	2069.03
411.98	2129.89
412.17	2129.89
412.36	2150.95
412.55	2141.59
412.74	2242.23
412.93	2216.49
413.12	2174.36
413.31	2263.30
413.50	2258.62
413.69	2303.09
413.88	2385.01
414.07	2340.54
414.26	2424.80
414.45	2452.88
414.64	2321.81
414.83	2478.63
415.02	2445.86
415.22	2544.16
415.41	2441.18
415.60	2527.78
415.79	2527.78
415.98	2637.78
416.17	2605.02
416.36	2612.04
416.55	2546.50
416.74	2710.34
416.93	2635.44
417.12	2696.30
417.31	2677.57
417.50	2792.26
417.69	2761.83
417.88	2808.64
418.07	2820.35
418.26	2808.64
418.45	2878.86
418.64	2836.73
418.83	2848.43
419.02	2888.22
419.21	2911.63
419.39	2855.45
419.58	2998.23
419.77	2892.90
419.96	3073.12
420.15	3007.59
420.34	3021.63
420.53	3056.74
420.72	3110.57
420.91	3087.17
421.10	2984.18
421.29	3112.91
421.48	3110.57
421.67	3066.10
421.86	3096.53
422.05	3129.30
422.24	3059.08
422.43	3052.06
422.61	3206.53
422.80	3187.81
422.99	3164.40
423.18	3346.97
423.37	3370.37
423.56	3229.94
423.75	3300.16
423.94	3197.17
424.13	3108.23
424.32	3103.55
424.50	3262.71
424.69	3435.91
424.88	3384.41
425.07	3279.09
425.26	3208.87
425.45	3206.53
425.64	3297.81
425.83	3368.03
426.01	3311.86
426.20	3185.47
426.39	3419.52
426.58	3363.35
426.77	3342.28
426.96	3255.69
427.15	3365.69
427.33	3475.70
427.52	3262.71
427.71	3391.44
427.90	3428.88
428.09	3485.06
428.28	3515.48
428.46	3482.72
428.65	3482.72
428.84	3630.17
429.03	3527.19
429.22	3459.31
429.40	3513.14
429.59	3674.64
429.78	3471.01
429.97	3515.48
430.16	3557.61
430.34	3676.98
430.53	3674.64
430.72	3712.09
430.91	3620.81
431.10	3669.96
431.28	3702.73
431.47	3679.32
431.66	3826.78
431.85	3772.94
432.03	3904.01
432.22	3981.25
432.41	3946.14
432.60	3779.97
432.79	3892.31
432.97	3889.97
433.16	3934.44
433.35	3983.59
433.54	3967.21
433.72	3957.85
433.91	4056.15
434.10	4002.32
434.28	3939.12
434.47	4079.55
434.66	4079.55
434.85	4074.87
435.03	4142.75
435.22	4063.17
435.41	4142.75
435.59	3978.91
435.78	4238.71
435.97	4112.32
436.16	4177.86
436.34	4304.25
436.53	4163.81
436.72	4348.72
436.90	4248.07
437.09	4271.48
437.28	4208.28
437.46	4374.46
437.65	4332.33
437.84	4238.71
438.02	4442.34
438.21	4440.00
438.40	4290.20
438.58	4622.56
438.77	4482.13
438.96	4510.21
439.14	4655.33
439.33	4610.86
439.52	4699.80
439.70	4739.58
439.89	4617.88
440.08	4835.55
440.26	4704.48
440.45	4889.38
440.63	4767.67
440.82	4802.78
441.01	4903.42
441.19	4924.49
441.38	4994.70
441.57	5093.01
441.75	5041.51
441.94	5100.03
442.12	5029.81
442.31	5116.41
442.50	5188.97
442.68	5139.82
442.87	5071.94
443.05	5245.14
443.24	5238.12
443.43	5067.26
443.61	5301.31
443.80	5263.86
443.98	5090.67
444.17	5146.84
444.35	5224.08
444.54	5376.21
444.73	5385.57
444.91	5369.19
445.10	5432.38
445.28	5322.38
445.47	5240.46
445.65	5411.32
445.84	5385.57
446.02	5390.25
446.21	5479.19
446.39	5500.26
446.58	5420.68
446.77	5495.58
446.95	5383.23
447.14	5453.45
447.32	5500.26
447.51	5526.00
447.69	5294.29
447.88	5469.83
448.06	5549.41
448.25	5486.22
448.43	5394.93
448.62	5535.37
448.80	5523.66
448.99	5659.42
449.17	5584.52
449.36	5493.24
449.54	5640.69
449.73	5722.61
449.91	5701.54
450.10	5804.53
450.28	5849.00
450.46	5748.36
450.65	6008.16
450.83	5874.74
451.02	5851.34
451.20	5909.85
451.39	5860.70
451.57	5853.68
451.76	5748.36
451.94	5858.36
452.13	5916.87
452.31	5919.21
452.49	5942.62
452.68	6047.94
452.86	5926.24
453.05	6047.94
453.23	6015.18
453.42	6122.84
453.60	6022.20
453.78	6153.27
453.97	6043.26
454.15	5907.51
454.34	6059.65
454.52	6230.51
454.70	6253.91
454.89	6239.87
455.07	6071.35
455.26	6200.08
455.44	6125.18
455.62	6382.64
455.81	6450.52
455.99	6562.86
456.17	6392.00
456.36	6527.75
456.54	6429.45
456.73	6541.80
456.91	6565.20
457.09	6724.36
457.28	6628.40
457.46	6532.44
457.64	6724.36
457.83	6647.12
458.01	6612.01
458.19	6843.73
458.38	6707.98
458.56	6764.15
458.74	6869.47
458.93	6820.32
459.11	6766.49
459.29	6796.92
459.48	6757.13
459.66	6909.26
459.84	6965.43
460.03	7030.97
460.21	7077.78
460.39	6970.12
460.57	6939.69
460.76	6932.67
460.94	7068.42
461.12	7070.76
461.31	7218.21
461.49	7087.14
461.67	6963.09
461.85	7279.07
462.04	7169.06
462.22	7630.15
462.40	7452.27
462.59	7229.91
462.77	7386.73
462.95	7506.10
463.13	7342.26
463.32	7433.54
463.50	7335.24
463.68	7606.74
463.86	7545.89
464.05	7311.83
464.23	7360.98
464.41	7672.28
464.59	7447.58
464.78	7618.44
464.96	7662.91
465.14	7302.47
465.32	7485.03
465.50	7562.27
465.69	7637.17
465.87	7630.15
466.05	7674.62
466.23	7620.78
466.41	7705.04
466.60	7873.56
466.78	7576.31
466.96	7815.05
467.14	7674.62
467.32	7831.43
467.51	8112.30
467.69	7709.72
467.87	7955.48
468.05	7871.22
468.23	7906.33
468.41	7829.09
468.60	7971.86
468.78	8002.29
468.96	8067.83
469.14	8226.98
469.32	7941.44
469.50	7985.91
469.69	8060.80
469.87	8248.05
470.05	8351.03
470.23	8379.12
470.41	8264.43
470.59	8386.14
470.77	8266.77
470.95	8334.65
471.14	8709.13
471.32	8397.84
471.50	8496.14
471.68	8486.78
471.86	8657.64
472.04	8650.62
472.22	8830.84
472.40	8512.53
472.58	8842.54
472.77	8671.68
472.95	9027.45
473.13	9280.22
473.31	8980.64
473.49	8898.72
473.67	9156.18
473.85	9025.11
474.03	9104.68
474.21	9135.11
474.39	9378.53
474.57	9324.69
474.75	9404.27
474.93	9348.10
475.12	9408.95
475.30	9376.19
475.48	9305.97
475.66	9582.15
475.84	9603.22
476.02	9554.07
476.20	9458.10
476.38	9701.52
476.56	10017.49
476.74	10038.56
476.92	10001.11
477.10	10094.73
477.28	10008.13
477.46	10022.17
477.64	10052.60
477.82	10349.85
478.00	10553.48
478.18	10485.60
478.36	10422.41
478.54	10534.75
478.72	10775.83
478.90	10827.32
479.08	11037.97
479.26	11124.57
479.44	11243.93
479.62	11023.92
479.80	11220.53
479.98	11318.83
480.16	11510.75
480.34	11330.53
480.52	11775.24
480.70	11637.14
480.88	11758.85
481.06	11627.78
481.24	11768.21
481.41	12175.47
481.59	11957.80
481.77	11922.69
481.95	12074.82
482.13	12343.99
482.31	12294.83
482.49	12734.85
482.67	12641.23
482.85	12528.89
483.03	12940.82
483.21	12884.65
483.39	13184.24
483.57	13048.49
483.74	13188.92
483.92	13249.77
484.10	13294.24
484.28	13507.23
484.46	13537.66
484.64	14111.09
484.82	13701.50
485.00	13834.91
485.18	14120.45
485.35	14342.80
485.53	14113.43
485.71	14270.25
485.89	14698.56
486.07	14754.74
486.25	14548.77
486.43	14757.08
486.61	15002.83
486.78	15098.80
486.96	15117.52
487.14	15098.80
487.32	15492.01
487.50	15213.48
487.68	15482.64
487.85	15564.56
488.03	15594.99
488.21	16266.72
488.39	15903.94
488.57	16053.73
488.75	16311.19
488.92	16369.71
489.10	16606.10
489.28	16599.08
489.46	16727.81
489.64	16652.91
489.81	17020.38
489.99	17114.00
490.17	17191.23
490.35	17151.45
490.53	17523.59
490.70	17586.79
490.88	17539.97
491.06	17504.87
491.24	17987.02
491.41	17675.73
491.59	18223.41
491.77	18075.96
491.95	18129.79
492.13	18436.40
492.30	18567.47
492.48	18464.49
492.66	18464.49
492.84	19000.47
493.01	18735.99
493.19	18906.85
493.37	19337.51
493.54	19154.94
493.72	19501.34
493.90	19585.60
494.08	19552.84
494.25	19316.44
494.43	19491.98
494.61	19845.40
494.79	19988.18
494.96	20194.14
495.14	20067.75
495.32	20140.31
495.49	20568.63
495.67	20430.54
495.85	20896.30
496.02	20709.06
496.20	21095.25
496.38	21146.74
496.55	21263.77
496.73	21645.27
496.91	21422.92
497.09	21647.61
497.26	21584.42
497.44	21642.93
497.62	21771.66
497.79	22089.98
497.97	21851.24
498.14	22508.93
498.32	22242.11
498.50	22476.16
498.67	22434.03
498.85	22354.46
499.03	22628.30
499.20	22895.12
499.38	23185.35
499.56	23175.98
499.73	23218.11
499.91	23363.23
500.08	23367.91
500.26	23026.19
500.44	23206.41
500.61	23466.21
500.79	23388.97
500.97	23321.10
501.14	23901.55
501.32	23658.14
501.49	23828.99
501.67	24144.97
501.84	23770.48
502.02	24128.58
502.20	24477.32
502.37	24217.52
502.55	24517.11
502.72	24472.64
502.90	24526.47
503.07	24477.32
503.25	24421.15
503.43	24435.19
503.60	24854.15
503.78	24924.36
503.95	24716.06
504.13	25064.80
504.30	25198.21
504.48	25202.89
504.65	25518.86
504.83	25792.70
505.01	25867.60
505.18	25610.14
505.36	25949.52
505.53	25736.53
505.71	25720.15
505.88	26003.35
506.06	26141.44
506.23	26445.71
506.41	26153.15
506.58	26183.57
506.76	26111.02
506.93	26319.32
507.11	26319.32
507.28	26644.66
507.46	26553.38
507.63	26700.83
507.81	26771.05
507.98	26986.38
508.16	26754.66
508.33	26967.65
508.50	27283.62
508.68	27395.97
508.85	27292.99
509.03	27260.22
509.20	27412.35
509.38	27498.95
509.55	27878.12
509.73	27873.44
509.90	27857.06
510.08	27566.83
510.25	27714.28
510.42	27861.74
510.60	28147.28
510.77	28233.88
510.95	27899.19
511.12	28198.77
511.30	28393.04
511.47	28613.05
511.64	28500.70
511.82	28898.59
511.99	28503.04
512.17	28657.52
512.34	28772.21
512.51	28863.49
512.69	28779.23
512.86	29696.72
513.04	29378.40
513.21	29085.84
513.38	29305.85
513.56	29537.56
513.73	29436.92
513.90	29287.12
514.08	29429.90
514.25	29263.72
514.43	29942.47
514.60	30029.07
514.77	30050.14
514.95	29982.26
515.12	29986.94
515.29	30071.20
515.47	30209.29
515.64	30352.07
515.81	30022.05
515.99	30235.04
516.16	30396.54
516.33	30127.38
516.51	30569.74
516.68	30464.41
516.85	30679.74
517.03	30747.62
517.20	30899.75
517.37	30883.37
517.54	30946.56
517.72	30773.36
517.89	31154.87
518.06	31311.69
518.24	31391.26
518.41	30934.86
518.58	31264.88
518.75	31622.98
518.93	31271.90
519.10	31213.38
519.27	31494.25
519.45	31761.07
519.62	32030.23
519.79	31971.72
519.96	31613.62
520.14	31957.67
520.31	31945.97
520.48	32264.28
520.65	32156.62
520.83	32416.42
521.00	32371.95
521.17	32442.17
521.34	32636.43
521.52	32519.40
521.69	32570.90
521.86	32828.35
522.03	32830.69
522.20	33134.96
522.38	33008.58
522.55	33343.27
522.72	33244.97
522.89	32954.74
523.07	33708.40
523.24	33144.33
523.41	33521.15
523.58	32851.76
523.75	33736.48
523.92	33338.59
524.10	33404.13
524.27	33684.99
524.44	33649.88
524.61	33682.65
524.78	33844.15
524.96	33881.60
525.13	33921.38
525.30	33890.96
525.47	34522.90
525.64	33961.17
525.81	34302.89
525.98	34448.00
526.16	34139.05
526.33	34134.37
526.50	34897.39
526.67	34328.64
526.84	34602.48
527.01	34710.14
527.18	34864.62
527.36	34822.49
527.53	34745.25
527.70	35075.27
527.87	34895.05
528.04	34958.24
528.21	34726.53
528.38	34843.56
528.55	35433.37
528.72	34930.16
528.89	35468.48
529.07	35428.69
529.24	35035.48
529.41	35356.13
529.58	35290.60
529.75	35082.29
529.92	35637.00
530.09	35475.50
530.26	35952.97
530.43	35632.32
530.60	35101.01
530.77	35878.07
530.94	36107.44
531.11	35779.77
531.28	35742.32
531.46	35859.35
531.63	36334.48
531.80	35833.60
531.97	35826.58
532.14	36320.43
532.31	35784.45
532.48	36467.89
532.65	36423.42
532.82	36100.42
532.99	36315.75
533.16	36119.15
533.33	36713.64
533.50	36512.36
533.67	36367.24
533.84	36442.14
534.01	37001.53
534.18	36456.18
534.35	36999.19
534.52	36912.59
534.69	36921.95
534.86	36982.80
535.03	36802.58
535.20	37146.64
535.37	37202.82
535.54	37221.54
535.71	37200.47
535.88	37284.73
536.05	37200.47
536.22	37427.51
536.38	37673.26
536.55	37205.16
536.72	37106.85
536.89	37092.81
537.06	37333.89
537.23	37738.80
537.40	37640.50
537.57	37778.59
537.74	37844.12
537.91	37745.82
538.08	38043.07
538.25	38024.34
538.42	38085.20
538.59	38223.29
538.75	38040.73
538.92	38064.13
539.09	38459.68
539.26	38288.82
539.43	38717.14
539.60	38345.00
539.77	37942.42
539.94	38543.94
540.11	38780.34
540.28	38852.89
540.44	38976.94
540.61	38930.13
540.78	38480.75
540.95	38813.10
541.12	38656.29
541.29	38672.67
541.46	38672.67
541.62	38677.35
541.79	39342.06
541.96	38455.00
542.13	38705.44
542.30	38960.56
542.47	38761.61
542.63	39213.34
542.80	39185.25
542.97	39171.21
543.14	39849.96
543.31	39292.91
543.48	39374.83
543.64	40112.10
543.81	39842.94
543.98	39505.90
544.15	39852.30
544.32	40147.21
544.48	39885.07
544.65	39604.20
544.82	39882.73
544.99	39641.65
545.16	40004.44
545.32	40093.38
545.49	40402.33
545.66	40322.75
545.83	40060.61
546.00	40708.94
546.16	40301.68
546.33	40318.07
546.50	40156.57
546.67	40210.40
546.83	39849.96
547.00	40058.27
547.17	40280.62
547.34	40100.40
547.50	40650.42
547.67	40680.85
547.84	40524.04
548.00	40898.52
548.17	41329.18
548.34	40573.19
548.51	40964.06
548.67	40926.61
548.84	40811.92
549.01	41010.87
549.18	40973.42
549.34	40891.50
549.51	41090.44
549.68	41233.22
549.84	40685.53
550.01	41656.85
550.18	40842.35
550.34	41326.84
550.51	41167.68
550.68	40982.78
550.84	40797.88
551.01	41551.53
551.18	41006.19
551.34	41483.66
551.51	41542.17
551.68	41570.25
551.84	41401.74
552.01	41144.28
552.18	41291.73
552.34	41429.82
552.51	41762.18
552.68	41132.57
552.84	41972.83
553.01	41645.15
553.18	42321.57
553.34	41661.54
553.51	41581.96
553.67	41996.23
553.84	41776.22
554.01	42155.39
554.17	42014.96
554.34	42429.23
554.51	42223.26
554.67	42450.30
554.84	42024.32
555.00	42082.83
555.17	41876.86
555.33	42197.52
555.50	42316.89
555.67	41963.46
555.83	42445.62
556.00	42693.71
556.16	42658.60
556.33	42267.73
556.50	42277.10
556.66	42424.55
556.83	42597.75
556.99	42831.80
557.16	43112.67
557.32	43023.73
557.49	43227.35
557.65	42574.34
557.82	42387.10
557.98	42836.48
558.15	42590.73
558.32	42359.02
558.48	42550.94
558.65	42799.04
558.81	42852.87
558.98	43016.71
559.14	42845.85
559.31	42674.99
559.47	42845.85
559.64	43157.14
559.80	43110.33
559.97	43283.53
560.13	43007.34
560.30	42981.60
560.46	42890.32
560.63	43042.45
560.79	43005.00
560.96	43255.44
561.12	42918.40
561.29	43611.20
561.45	43379.49
561.61	43716.53
561.78	43222.67
561.94	42953.51
562.11	43061.18
562.27	43222.67
562.44	43030.75
562.60	43409.92
562.77	43873.34
562.93	44107.40
563.10	43849.94
563.26	43271.82
563.42	43487.15
563.59	43030.75
563.75	43433.32
563.92	43320.98
564.08	43700.14
564.24	43653.33
564.41	43365.45
564.57	43318.64
564.74	43828.87
564.90	43700.14
565.07	43555.03
565.23	43459.07
565.39	43756.32
565.56	43906.11
565.72	44002.07
565.88	43929.51
566.05	43573.75
566.21	43646.31
566.38	43723.55
566.54	43704.82
566.70	43983.35
566.87	43840.57
567.03	43459.07
567.19	43728.23
567.36	43803.13
567.52	43934.20
567.68	44233.78
567.85	43910.79
568.01	44240.81
568.17	44069.95
568.34	44271.23
568.50	44240.81
568.66	43358.42
568.83	43622.90
568.99	43681.42
569.15	43730.57
569.32	43868.66
569.48	43976.33
569.64	44332.09
569.81	44498.26
569.97	44257.19
570.13	44156.55
570.30	44016.11
570.46	44280.60
570.62	44304.00
570.78	44641.04
570.95	43952.92
571.11	44437.41
571.27	44271.23
571.43	44437.41
571.60	44638.70
571.76	43810.15
571.92	44215.06
572.09	43999.73
572.25	44362.51
572.41	43782.06
572.57	43927.17
572.74	44477.20
572.90	44451.45
573.06	44406.98
573.22	44135.48
573.38	44435.07
573.55	44395.28
573.71	44818.92
573.87	44729.98
574.03	44198.68
574.20	44701.89
574.36	44369.54
574.52	44334.43
574.68	44868.07
574.84	44818.92
575.01	44861.05
575.17	44406.98
575.33	44839.98
575.49	44346.13
575.65	44577.84
575.82	44629.34
575.98	44844.66
576.14	44587.21
576.30	44947.65
576.46	44526.35
576.62	44973.39
576.79	44425.71
576.95	44088.67
577.11	44493.58
577.27	44645.72
577.43	44273.57
577.59	44830.62
577.75	44582.52
577.92	44437.41
578.08	44987.44
578.24	44463.16
578.40	44809.56
578.56	44673.81
578.72	44732.32
578.88	44994.46
579.04	44531.03
579.21	44528.69
579.37	44758.06
579.53	44748.70
579.69	44147.18
579.85	44715.93
580.01	44715.93
580.17	44584.86
580.33	45062.33
580.49	45013.18
580.65	44886.79
580.82	44790.83
580.98	44402.30
581.14	44601.25
581.30	44594.23
581.46	44760.40
581.62	44767.43
581.78	44257.19
581.94	44737.00
582.10	44577.84
582.26	44811.90
582.42	44760.40
582.58	44811.90
582.74	45010.84
582.90	44905.52
583.06	45038.93
583.22	44737.00
583.38	44549.76
583.54	44821.26
583.70	44722.96
583.86	45390.01
584.02	44729.98
584.18	45411.07
584.34	45240.21
584.50	45139.57
584.66	45338.52
584.82	44722.96
584.98	45317.45
585.14	45305.75
585.30	44816.58
585.46	44732.32
585.62	44725.30
585.78	45092.76
585.94	44406.98
586.10	44802.53
586.26	44570.82
586.42	44865.73
586.58	45006.16
586.74	44594.23
586.90	44975.73
587.06	44580.18
587.22	45104.46
587.38	44893.82
587.54	44919.56
587.70	45170.00
587.86	45404.05
588.02	44870.41
588.18	44863.39
588.34	44737.00
588.49	44917.22
588.65	44561.46
588.81	45111.49
588.97	45291.71
589.13	45125.53
589.29	44870.41
589.45	45394.69
589.61	45319.79
589.77	45586.61
589.93	44912.54
590.08	45572.57
590.24	45628.74
590.40	45776.20
590.56	45958.76
590.72	45549.17
590.88	45242.56
591.04	45539.80
591.20	45387.67
591.35	45867.48
591.51	45787.90
591.67	45528.10
591.83	45808.96
591.99	45336.18
592.15	44802.53
592.31	45333.84
592.46	45507.04
592.62	45481.29
592.78	45455.54
592.94	45612.36
593.10	45544.48
593.26	45315.11
593.41	45551.51
593.57	45787.90
593.73	45680.24
593.89	45727.05
594.05	45942.38
594.20	45507.04
594.36	45933.01
594.52	45720.02
594.68	45130.21
594.84	45488.31
594.99	46272.39
595.15	45790.24
595.31	45422.78
595.47	45916.63
595.62	45591.30
595.78	45869.82
595.94	45366.60
596.10	45340.86
596.25	45710.66
596.41	45670.87
596.57	45462.57
596.73	45801.94
596.88	45504.70
597.04	45581.93
597.20	46085.15
597.36	46120.26
597.51	45970.46
597.67	45492.99
597.83	45298.73
597.99	45783.22
598.14	45668.53
598.30	45696.62
598.46	45741.09
598.61	46330.90
598.77	45631.08
598.93	45935.35
599.09	45792.58
599.24	45968.12
599.40	46248.99
599.56	46038.34
599.71	46248.99
599.87	46431.55
600.03	45790.24
600.18	46054.72
600.34	45815.99
600.50	45837.05
600.65	45549.17
600.81	46099.19
600.97	46298.14
601.12	45839.39
601.28	46136.64
601.44	45865.14
601.59	45713.00
601.75	45666.19
601.91	46494.74
602.06	45865.14
602.22	45668.53
602.37	45872.16
602.53	45942.38
602.69	45867.48
602.84	45710.66
603.00	45722.37
603.16	46216.22
603.31	45666.19
603.47	45701.30
603.62	45944.72
603.78	45698.96
603.94	46260.69
604.09	46373.03
604.25	45469.59
604.40	45511.72
604.56	45886.20
604.71	46026.63
604.87	45837.05
605.03	45607.68
605.18	45815.99
605.34	46080.47
605.49	46033.66
605.65	46300.48
605.80	45509.38
605.96	45682.58
606.12	45682.58
606.27	46148.34
606.43	45799.60
606.58	45827.69
606.74	45205.11
606.89	45696.62
607.05	45909.61
607.20	45727.05
607.36	46241.96
607.51	45638.11
607.67	45907.27
607.82	45741.09
607.98	45881.52
608.13	45722.37
608.29	45560.87
608.44	45525.76
608.60	45162.98
608.75	45439.16
608.91	45631.08
609.06	45530.44
609.22	45521.08
609.37	45530.44
609.53	45628.74
609.68	45895.56
609.84	45500.01
609.99	45467.25
610.15	45460.23
610.30	45301.07
610.46	45413.41
610.61	45357.24
610.76	45385.33
610.92	45113.83
611.07	45226.17
611.23	45113.83
611.38	45116.17
611.54	45511.72
611.69	45820.67
611.84	45713.00
612.00	45251.92
612.15	44989.78
612.31	45642.79
612.46	45235.53
612.62	45207.45
612.77	45347.88
612.92	45338.52
613.08	45186.38
613.23	45148.93
613.39	45366.60
613.54	45020.20
613.69	45649.81
613.85	45031.91
614.00	44903.18
614.15	45673.21
614.31	44722.96
614.46	45275.32
614.62	44769.77
614.77	44816.58
614.92	44942.97
615.08	44772.11
615.23	45247.24
615.38	45095.10
615.54	44914.88
615.69	45240.21
615.84	44900.84
616.00	45336.18
616.15	45240.21
616.30	45141.91
616.46	45148.93
616.61	45071.70
616.76	45069.36
616.92	44727.64
617.07	45085.74
617.22	44694.87
617.37	44240.81
617.53	44893.82
617.68	44975.73
617.83	44858.71
617.99	45153.62
618.14	45357.24
618.29	44718.28
618.45	44811.90
618.60	44292.30
618.75	44540.39
618.90	44648.06
619.06	44722.96
619.21	44521.67
619.36	44973.39
619.51	44392.94
619.67	44460.82
619.82	44608.27
619.97	44872.75
620.12	44528.69
620.28	44240.81
620.43	44889.13
620.58	44580.18
620.73	44973.39
620.89	44385.92
621.04	44631.68
621.19	44292.30
621.34	44350.81
621.49	44210.38
621.65	44453.79
621.80	44727.64
621.95	43934.20
622.10	44257.19
622.25	44215.06
622.41	44114.42
622.56	44041.86
622.71	44526.35
622.86	44378.90
623.01	44718.28
623.16	44301.66
623.32	43936.54
623.47	43910.79
623.62	43983.35
623.77	44044.20
623.92	44360.17
624.07	43585.46
624.23	43901.43
624.38	44210.38
624.53	43674.40
624.68	43938.88
624.83	43524.60
624.98	44346.13
625.13	43704.82
625.29	43480.13
625.44	43510.56
625.59	43880.36
625.74	43304.59
625.89	43356.08
626.04	43697.80
626.19	44074.63
626.34	43442.68
626.49	43786.74
626.65	43028.41
626.80	43559.71
626.95	43227.35
627.10	43126.71
627.25	43313.95
627.40	43342.04
627.55	43475.45
627.70	43590.14
627.85	43669.72
628.00	43501.20
628.15	43402.89
628.30	43423.96
628.45	42962.87
628.60	42862.23
628.76	43047.13
628.91	43468.43
629.06	42937.13
629.21	42789.67
629.36	42974.58
629.51	42869.25
629.66	42986.28
629.81	43215.65
629.96	43316.29
630.11	43065.86
630.26	42522.85
630.41	42686.69
630.56	43103.31
630.71	42731.16
630.86	43084.58
631.01	42543.92
631.16	42632.86
631.31	42356.67
631.46	42686.69
631.61	43220.33
631.76	43056.50
631.91	42796.70
632.06	43239.06
632.21	43304.59
632.36	43129.05
632.51	42169.43
632.66	42962.87
632.81	42618.81
632.96	42588.39
633.10	42550.94
633.25	42801.38
633.40	42253.69
633.55	42398.80
633.70	42799.04
633.85	42241.99
634.00	42047.72
634.15	41975.17
634.30	42153.05
634.45	42092.19
634.60	42487.74
634.75	42438.59
634.90	42464.34
635.05	42232.63
635.19	42054.75
635.34	42363.70
635.49	41996.23
635.64	42440.93
635.79	42225.60
635.94	42419.87
636.09	42323.91
636.24	41951.76
636.39	42256.03
636.53	42017.30
636.68	41923.68
636.83	41633.45
636.98	41799.63
637.13	41918.99
637.28	41759.84
637.43	41593.66
637.57	41806.65
637.72	41659.20
637.87	41661.54
638.02	41698.98
638.17	41420.46
638.32	41209.81
638.46	41535.15
638.61	41790.27
638.76	41415.78
638.91	41284.71
639.06	41076.40
639.20	41081.08
639.35	41322.16
639.50	41816.01
639.65	41368.97
639.80	41591.32
639.94	41631.11
640.09	41680.26
640.24	41532.81
640.39	41146.62
640.54	40781.49
640.68	41303.43
640.83	41628.77
640.98	41219.17
641.13	41308.11
641.27	41720.05
641.42	41343.22
641.57	40786.18
641.72	41116.19
641.86	41111.51
642.01	40444.46
642.16	40776.81
642.31	40746.39
642.45	41375.99
642.60	40519.35
642.75	40641.06
642.90	41212.15
643.04	40917.25
643.19	40788.52
643.34	40549.78
643.48	40582.55
643.63	40669.15
643.78	40758.09
643.93	40992.14
644.07	40713.62
644.22	40847.03
644.37	41024.91
644.51	40919.59
644.66	40362.54
644.81	40533.40
644.95	40928.95
645.10	40226.79
645.25	40378.92
645.39	40519.35
645.54	40683.19
645.69	40027.84
645.83	39943.58
645.98	39824.22
646.13	40315.73
646.27	40226.79
646.42	39952.94
646.57	40135.51
646.71	40399.99
646.86	40390.62
647.00	40477.22
647.15	40069.97
647.30	40222.11
647.44	40376.58
647.59	40098.06
647.74	40072.31
647.88	40236.15
648.03	40414.03
648.17	40425.73
648.32	40128.48
648.47	40149.55
648.61	39746.98
648.76	39880.39
648.90	39744.64
649.05	39894.43
649.20	40102.74
649.34	39880.39
649.49	39807.83
649.63	40318.07
649.78	40268.92
649.92	39842.94
650.07	40320.41
650.21	40304.02
650.36	39821.87
650.51	39522.29
650.65	40121.46
650.80	40004.44
650.94	39934.22
651.09	39875.71
651.23	39941.24
651.38	39428.66
651.52	39503.56
651.67	39700.17
651.81	39398.24
651.96	39634.63
652.10	39028.43
652.25	39021.41
652.39	39569.10
652.54	39269.51
652.68	39159.50
652.83	39260.15
652.97	39721.23
653.12	39365.47
653.26	38824.81
653.41	39126.74
653.55	39365.47
653.70	39386.54
653.84	39428.66
653.99	39239.08
654.13	39494.20
654.27	39447.39
654.42	39206.31
654.56	39164.18
654.71	39440.37
654.85	39445.05
655.00	39274.19
655.14	38714.80
655.29	39159.50
655.43	39227.38
655.57	38707.78
655.72	38763.95
655.86	38810.76
656.01	38499.47
656.15	38529.90
656.30	38677.35
656.44	39086.95
656.58	38766.29
656.73	38504.15
656.87	38560.33
657.01	38305.21
657.16	38705.44
657.30	38770.97
657.45	38876.30
657.59	38576.71
657.73	38160.09
657.88	38478.41
658.02	38773.31
658.16	38412.87
658.31	38438.62
658.45	38464.36
658.60	38188.18
658.74	38621.18
658.88	38426.92
659.03	38323.93
659.17	37827.74
659.31	37919.02
659.46	37818.38
659.60	38384.79
659.74	37935.40
659.89	37610.07
660.03	37736.46
660.17	38087.54
660.32	37495.38
660.46	37848.80
660.60	37413.46
660.74	37764.54
660.89	37523.47
661.03	37701.35
661.17	37378.36
661.32	36989.83
661.46	37495.38
661.60	37392.40
661.74	36954.72
661.89	37177.07
662.03	37195.79
662.17	37345.59
662.31	36924.29
662.46	37347.93
662.60	36973.44
662.74	36435.12
662.88	36730.03
663.03	36416.40
663.17	36926.63
663.31	36488.95
663.45	37095.15
663.60	36687.90
663.74	36514.70
663.88	36926.63
664.02	36369.58
664.17	36439.80
664.31	36652.79
664.45	36084.04
664.59	36058.29
664.73	36271.28
664.88	36189.36
665.02	36016.16
665.16	36205.75
665.30	36400.01
665.44	35969.35
665.59	35421.67
665.73	35775.09
665.87	35470.82
666.01	36119.15
666.15	35728.28
666.29	35454.44
666.44	35721.26
666.58	36053.61
666.72	35363.15
666.86	35402.94
667.00	35374.86
667.14	35786.79
667.28	35426.35
667.43	35278.89
667.57	35885.09
667.71	35573.80
667.85	35662.74
667.99	35164.21
668.13	35037.82
668.27	34855.26
668.41	34703.12
668.56	34176.50
668.70	34724.19
668.84	34323.96
668.98	34478.43
669.12	34845.90
669.26	34705.46
669.40	34520.56
669.54	34548.65
669.68	34595.46
669.82	34380.13
669.96	34211.61
670.10	34176.50
670.25	33888.62
670.39	33816.06
670.53	33738.82
670.67	34073.52
670.81	34209.27
670.95	33855.85
671.09	33659.24
671.23	33593.71
671.37	33752.87
671.51	33720.10
671.65	33397.10
671.79	33273.06
671.93	33518.81
672.07	33668.61
672.21	33184.12
672.35	33413.49
672.49	33383.06
672.63	33422.85
672.77	32849.42
672.91	33249.65
673.05	33125.60
673.19	32779.20
673.33	32804.95
673.47	32662.18
673.61	32100.45
673.75	32397.70
673.89	32203.43
674.03	31976.40
674.17	31978.74
674.31	31812.56
674.45	32196.41
674.59	32091.09
674.73	31948.31
674.87	31866.39
675.01	31779.79
675.15	31924.91
675.29	31103.38
675.43	31503.61
675.56	31482.55
675.70	31496.59
675.84	31047.21
675.98	30099.29
676.12	31538.72
676.26	31225.09
676.40	30941.88
676.54	30778.04
676.68	30597.82
676.82	30302.92
676.96	31250.83
677.10	30707.83
677.23	30288.87
677.37	30551.01
677.51	30618.89
677.65	30356.75
677.79	30162.48
677.93	30328.66
678.07	29991.62
678.21	29542.24
678.34	29502.45
678.48	29202.86
678.62	29493.09
678.76	29350.32
678.90	29237.97
679.04	29425.22
679.18	29413.51
679.31	28936.04
679.45	28804.97
679.59	28676.24
679.73	29032.00
679.87	28884.55
680.00	28804.97
680.14	28900.94
680.28	28463.25
680.42	28404.74
680.56	28430.49
680.70	28182.39
680.83	27967.06
680.97	27999.83
681.11	28077.07
681.25	27686.20
681.39	27754.07
681.52	27871.10
681.66	27381.93
681.80	26871.69
681.94	27285.97
682.07	27115.11
682.21	27096.38
682.35	26955.95
682.49	26569.76
682.62	26911.48
682.76	27026.17
682.90	26497.20
683.04	26738.28
683.17	26572.10
683.31	26541.68
683.45	26307.62
683.59	26150.81
683.72	25797.38
683.86	26047.82
684.00	25837.17
684.13	25956.54
684.27	25773.98
684.41	25806.75
684.55	25490.77
684.68	25727.17
684.82	25303.53
684.96	25242.68
685.09	25343.32
685.23	25113.95
685.37	25305.87
685.50	25404.17
685.64	25453.33
685.78	25022.67
685.91	24889.26
686.05	24437.53
686.19	24084.11
686.32	24236.25
686.46	24088.79
686.60	24119.22
686.73	23803.25
686.87	23990.49
687.01	23878.15
687.14	23733.03
687.28	23620.69
687.42	23751.76
687.55	23623.03
687.69	23269.61
687.82	23484.94
687.96	23480.25
688.10	23477.91
688.23	23248.54
688.37	23433.44
688.50	23250.88
688.64	23140.88
688.78	22745.33
688.91	22958.31
689.05	22824.90
689.18	22682.13
689.32	22277.22
689.46	22019.76
689.59	22190.62
689.73	22466.80
689.86	22108.70
690.00	22122.74
690.13	22239.77
690.27	21874.65
690.41	21970.61
690.54	21860.60
690.68	21907.41
690.81	21439.31
690.95	21399.52
691.08	21448.67
691.22	21195.89
691.35	21270.79
691.49	21331.64
691.62	21256.75
691.76	20861.19
691.89	20659.91
692.03	20535.86
692.16	20582.67
692.30	20615.44
692.43	20585.01
692.57	20166.06
692.70	20308.83
692.84	19908.60
692.97	19892.21
693.11	19992.86
693.24	19571.56
693.38	19922.64
693.51	19910.94
693.65	19672.20
693.78	19459.21
693.92	19262.61
694.05	19159.63
694.19	19389.00
694.32	19379.64
694.45	19573.90
694.59	19372.61
694.72	19356.23
694.86	19154.94
694.99	18974.72
695.13	18452.78
695.26	18574.49
695.39	18462.15
695.53	18618.96
695.66	18843.65
695.80	18235.11
695.93	18342.78
696.07	18150.85
696.20	18125.11
696.33	17635.94
696.47	17638.28
696.60	17783.39
696.73	17926.16
696.87	17713.17
697.00	17830.20
697.14	17563.38
697.27	17451.03
697.40	17584.44
697.54	17502.53
697.67	17338.69
697.80	17397.20
697.94	17315.28
698.07	17202.94
698.21	16828.45
698.34	16861.22
698.47	16599.08
698.61	16489.07
698.74	16439.92
698.87	16252.68
699.01	16273.74
699.14	16702.06
699.27	16367.37
699.40	16187.14
699.54	15983.52
699.67	16081.82
699.80	16189.49
699.94	15800.96
700.07	15845.43
700.20	15683.93
700.34	15679.25
700.47	15840.75
700.60	15936.71
700.73	15719.04
700.87	15335.19
701.00	15353.91
701.13	15440.51
701.26	14916.23
701.40	15002.83
701.53	15133.90
701.66	15176.03
701.79	14871.76
701.93	14743.03
702.06	14600.26
702.19	14724.31
702.32	14817.93
702.46	14806.23
702.59	14562.81
702.72	14747.72
702.85	14356.85
702.99	14370.89
703.12	14230.46
703.25	14071.30
703.38	14200.03
703.51	14078.32
703.65	13855.97
703.78	13970.66
703.91	13509.57
704.04	13844.27
704.17	13455.74
704.31	13572.77
704.44	13404.25
704.57	13415.95
704.70	13617.24
704.83	13394.89
704.96	13116.36
705.10	13099.98
705.23	13170.19
>>>>>End Processed Spectral Data<<<<<
