SpectraSuite Data File
++++++++++++++++++++++++++++++++++++
Date: Fri Oct 25 11:34:33 EDT 2013
User: price-jones
Dark Spectrum Present: No
Reference Spectrum Present: No
Number of Sampled Component Spectra: 1
Spectrometers: USB2+H05261
Integration Time (usec): 100000 (USB2+H05261)
Spectra Averaged: 1 (USB2+H05261)
Boxcar Smoothing: 0 (USB2+H05261)
Correct for Electrical Dark: No (USB2+H05261)
Strobe/Lamp Enabled: No (USB2+H05261)
Correct for Detector Non-linearity: No (USB2+H05261)
Correct for Stray Light: No (USB2+H05261)
Number of Pixels in Processed Spectrum: 2048
>>>>>Begin Processed Spectral Data<<<<<
365.73	276.18
365.92	276.18
366.12	276.18
366.32	238.73
366.52	203.63
366.72	191.92
366.91	170.86
367.11	234.05
367.31	140.43
367.51	273.84
367.70	175.54
367.90	229.37
368.10	140.43
368.30	212.99
368.49	126.39
368.69	212.99
368.89	163.84
369.09	217.67
369.28	161.50
369.48	187.24
369.68	180.22
369.87	241.08
370.07	259.80
370.27	327.68
370.47	395.55
370.66	533.64
370.86	496.19
371.06	505.56
371.25	543.00
371.45	528.96
371.65	552.37
371.84	484.49
372.04	540.66
372.24	512.58
372.44	561.73
372.63	561.73
372.83	622.58
373.03	608.54
373.22	648.33
373.42	589.82
373.62	608.54
373.81	610.88
374.01	622.58
374.21	716.20
374.40	592.16
374.60	643.65
374.79	603.86
374.99	599.18
375.19	617.90
375.38	678.76
375.58	629.60
375.78	732.59
375.97	643.65
376.17	671.73
376.37	624.92
376.56	641.31
376.76	674.07
376.95	648.33
377.15	704.50
377.35	594.50
377.54	732.59
377.74	603.86
377.93	657.69
378.13	650.67
378.33	681.10
378.52	692.80
378.72	713.86
378.91	713.86
379.11	711.52
379.31	730.25
379.50	674.07
379.70	662.37
379.89	713.86
380.09	706.84
380.28	840.25
380.48	744.29
380.68	723.23
380.87	688.12
381.07	809.83
381.26	791.10
381.46	737.27
381.65	758.33
381.85	760.67
382.04	753.65
382.24	753.65
382.43	711.52
382.63	809.83
382.83	725.57
383.02	823.87
383.22	758.33
383.41	744.29
383.61	770.04
383.80	830.89
384.00	833.23
384.19	791.10
384.39	779.40
384.58	924.51
384.78	819.19
384.97	851.96
385.17	816.85
385.36	795.78
385.56	851.96
385.75	805.14
385.95	910.47
386.14	765.36
386.34	807.48
386.53	802.80
386.72	767.70
386.92	788.76
387.11	861.32
387.31	835.57
387.50	891.74
387.70	884.72
387.89	875.36
388.09	849.61
388.28	837.91
388.48	905.79
388.67	800.46
388.86	898.77
389.06	922.17
389.25	863.66
389.45	908.13
389.64	873.02
389.84	891.74
390.03	917.49
390.22	926.85
390.42	854.30
390.61	950.26
390.81	919.83
391.00	952.60
391.19	983.02
391.39	980.68
391.58	936.21
391.78	978.34
391.97	1001.75
392.16	1039.20
392.36	987.71
392.55	1011.11
392.75	926.85
392.94	1008.77
393.13	997.07
393.33	1013.45
393.52	994.73
393.71	1057.92
393.91	1062.60
394.10	1022.81
394.29	1022.81
394.49	936.21
394.68	1057.92
394.88	1083.67
395.07	1165.59
395.26	1088.35
395.46	1078.99
395.65	1062.60
395.84	1118.78
396.04	1221.76
396.23	1139.84
396.42	1179.63
396.62	1167.93
396.81	1181.97
397.00	1153.88
397.19	1156.22
397.39	1142.18
397.58	1193.67
397.77	1158.57
397.97	1200.69
398.16	1249.85
398.35	1291.98
398.55	1214.74
398.74	1235.80
398.93	1287.29
399.12	1296.66
399.32	1291.98
399.51	1231.12
399.70	1331.76
399.90	1322.40
400.09	1439.43
400.28	1338.79
400.47	1268.57
400.67	1334.11
400.86	1345.81
401.05	1376.24
401.24	1392.62
401.44	1334.11
401.63	1357.51
401.82	1509.65
402.01	1385.60
402.21	1416.02
402.40	1385.60
402.59	1448.79
402.78	1392.62
402.97	1448.79
403.17	1451.13
403.36	1507.30
403.55	1547.09
403.74	1537.73
403.93	1444.11
404.13	1577.52
404.32	1584.54
404.51	1490.92
404.70	1570.50
404.89	1593.90
405.09	1643.06
405.28	1607.95
405.47	1680.50
405.66	1689.87
405.85	1671.14
406.05	1504.96
406.24	1671.14
406.43	1591.56
406.62	1783.49
406.81	1827.96
407.00	1668.80
407.20	1715.61
407.39	1776.47
407.58	1879.45
407.77	1959.03
407.96	1912.22
408.15	1837.32
408.34	1851.36
408.54	1846.68
408.73	1865.41
408.92	1886.47
409.11	1907.54
409.30	1881.79
409.49	1998.82
409.68	1959.03
409.87	1895.83
410.07	2122.87
410.26	1944.99
410.45	1952.01
410.64	2012.86
410.83	2047.97
411.02	1998.82
411.21	2186.06
411.40	2132.23
411.59	2045.63
411.78	2108.82
411.98	2054.99
412.17	2167.34
412.36	2188.40
412.55	2303.09
412.74	2214.15
412.93	2237.55
413.12	2190.74
413.31	2270.32
413.50	2237.55
413.69	2324.15
413.88	2431.82
414.07	2298.41
414.26	2394.37
414.45	2544.16
414.64	2370.96
414.83	2555.86
415.02	2520.76
415.22	2581.61
415.41	2462.24
415.60	2626.08
415.79	2567.57
415.98	2656.51
416.17	2717.36
416.36	2689.28
416.55	2621.40
416.74	2785.24
416.93	2700.98
417.12	2764.17
417.31	2747.79
417.50	2717.36
417.69	2876.52
417.88	2810.98
418.07	2935.03
418.26	2736.09
418.45	2813.32
418.64	2902.26
418.83	2827.37
419.02	2949.08
419.21	3038.02
419.39	2874.18
419.58	2890.56
419.77	2768.85
419.96	3042.70
420.15	3023.97
420.34	2991.20
420.53	3122.27
420.72	3126.96
420.91	3143.34
421.10	3122.27
421.29	3213.56
421.48	3042.70
421.67	2993.55
421.86	3141.00
422.05	3239.30
422.24	3248.66
422.43	3243.98
422.61	3143.34
422.80	3318.88
422.99	3222.92
423.18	3166.74
423.37	3239.30
423.56	3197.17
423.75	3295.47
423.94	3361.01
424.13	3000.57
424.32	3241.64
424.50	3386.76
424.69	3309.52
424.88	3389.10
425.07	3440.59
425.26	3274.41
425.45	3295.47
425.64	3248.66
425.83	3225.26
426.01	3351.65
426.20	3316.54
426.39	3421.86
426.58	3356.33
426.77	3332.92
426.96	3353.99
427.15	3419.52
427.33	3372.71
427.52	3426.54
427.71	3379.73
427.90	3384.41
428.09	3452.29
428.28	3508.46
428.46	3412.50
428.65	3468.67
428.84	3723.79
429.03	3618.47
429.22	3583.36
429.40	3531.87
429.59	3782.31
429.78	3485.06
429.97	3471.01
430.16	3705.07
430.34	3655.92
430.53	3730.81
430.72	3815.07
430.91	3707.41
431.10	3695.71
431.28	3810.39
431.47	3808.05
431.66	3808.05
431.85	3815.07
432.03	3796.35
432.22	3868.91
432.41	3929.76
432.60	3815.07
432.79	3829.12
432.97	3908.69
433.16	4037.42
433.35	3822.09
433.54	3894.65
433.72	4037.42
433.91	4042.11
434.10	4112.32
434.28	4117.00
434.47	4007.00
434.66	4217.65
434.85	4166.15
435.03	4208.28
435.22	4042.11
435.41	4257.43
435.59	4329.99
435.78	4187.22
435.97	4107.64
436.16	4243.39
436.34	4175.52
436.53	4238.71
436.72	4285.52
436.90	4329.99
437.09	4447.02
437.28	4128.70
437.46	4353.40
437.65	4301.90
437.84	4409.57
438.02	4362.76
438.21	4344.03
438.40	4311.27
438.58	4458.72
438.77	4526.60
438.96	4585.11
439.14	4542.98
439.33	4723.20
439.52	4676.39
439.70	4678.73
439.89	4772.35
440.08	4828.53
440.26	4861.29
440.45	4826.18
440.63	4767.67
440.82	4884.70
441.01	4858.95
441.19	4964.28
441.38	4966.62
441.57	5020.45
441.75	5060.24
441.94	5266.21
442.12	5191.31
442.31	5163.22
442.50	5245.14
442.68	5130.45
442.87	5167.90
443.05	5268.55
443.24	5387.91
443.43	5095.35
443.61	5383.23
443.80	5479.19
443.98	5282.59
444.17	5097.69
444.35	5359.83
444.54	5497.92
444.73	5259.18
444.91	5352.81
445.10	5390.25
445.28	5399.62
445.47	5371.53
445.65	5327.06
445.84	5439.40
446.02	5479.19
446.21	5521.32
446.39	5432.38
446.58	5528.35
446.77	5523.66
446.95	5259.18
447.14	5387.91
447.32	5392.59
447.51	5401.96
447.69	5420.68
447.88	5451.11
448.06	5528.35
448.25	5387.91
448.43	5493.24
448.62	5593.88
448.80	5544.73
448.99	5717.93
449.17	5846.66
449.36	5598.56
449.54	5867.72
449.73	5961.34
449.91	5703.89
450.10	5811.55
450.28	5823.25
450.46	5975.39
450.65	5849.00
450.83	5891.13
451.02	5687.50
451.20	5893.47
451.39	6015.18
451.57	5853.68
451.76	5846.66
451.94	6064.33
452.13	6059.65
452.31	6012.84
452.49	5980.07
452.68	6033.90
452.86	5888.79
453.05	6113.48
453.23	6010.50
453.42	6038.58
453.60	5881.77
453.78	6094.76
453.97	6136.88
454.15	6010.50
454.34	6214.12
454.52	6274.98
454.70	6218.80
454.89	6321.79
455.07	6155.61
455.26	6392.00
455.44	6307.74
455.62	6382.64
455.81	6408.39
455.99	6349.87
456.17	6436.47
456.36	6590.95
456.54	6583.93
456.73	6654.14
456.91	6759.47
457.09	6679.89
457.28	6834.36
457.46	6637.76
457.64	6635.42
457.83	6839.05
458.01	6548.82
458.19	6750.10
458.38	6773.51
458.56	6801.60
458.74	6944.37
458.93	6871.81
459.11	7007.56
459.29	6876.49
459.48	7016.93
459.66	6764.15
459.84	6939.69
460.03	7307.15
460.21	7124.59
460.39	7052.03
460.57	7197.15
460.76	7178.42
460.94	7166.72
461.12	7075.44
461.31	7159.70
461.49	7096.50
461.67	7145.66
461.85	7239.28
462.04	7344.60
462.22	7693.34
462.40	7370.35
462.59	7412.48
462.77	7288.43
462.95	7445.24
463.13	7447.58
463.32	7377.37
463.50	7529.50
463.68	7590.36
463.86	7648.87
464.05	7485.03
464.23	7501.42
464.41	7719.09
464.59	7485.03
464.78	7651.21
464.96	7733.13
465.14	7499.08
465.32	7662.91
465.50	7683.98
465.69	7892.29
465.87	7744.83
466.05	7700.36
466.23	7775.26
466.41	7845.48
466.60	7899.31
466.78	7812.71
466.96	8021.02
467.14	7817.39
467.32	7679.30
467.51	8002.29
467.69	7716.75
467.87	7918.03
468.05	7971.86
468.23	7943.78
468.41	8037.40
468.60	8088.89
468.78	8124.00
468.96	8074.85
469.14	8168.47
469.32	8208.26
469.50	8121.66
469.69	8304.22
469.87	8219.96
470.05	8297.20
470.23	8266.77
470.41	8145.06
470.59	8458.70
470.77	8493.80
470.95	8505.51
471.14	8894.04
471.32	8397.84
471.50	8559.34
471.68	8638.92
471.86	8777.01
472.04	8667.00
472.22	8821.48
472.40	8784.03
472.58	8758.28
472.77	9004.04
472.95	9125.75
473.13	9142.13
473.31	8844.88
473.49	9006.38
473.67	8814.46
473.85	8961.91
474.03	9343.42
474.21	9294.27
474.39	9263.84
474.57	9153.84
474.75	9530.66
474.93	9479.17
475.12	9563.43
475.30	9329.38
475.48	9535.34
475.66	9661.73
475.84	9481.51
476.02	9811.53
476.20	9558.75
476.38	9685.14
476.56	10085.37
476.74	10164.95
476.92	10078.35
477.10	10061.96
477.28	10143.88
477.46	10148.56
477.64	10265.59
477.82	10441.13
478.00	10862.43
478.18	10511.35
478.36	10740.72
478.54	10611.99
478.72	10841.36
478.90	10932.64
479.08	11243.93
479.26	11136.27
479.44	11211.17
479.62	11241.59
479.80	11403.09
479.98	11501.39
480.16	11648.85
480.34	11702.68
480.52	11892.26
480.70	11606.72
480.88	11630.12
481.06	11798.64
481.24	11857.15
481.41	11948.43
481.59	12290.15
481.77	12231.64
481.95	12512.50
482.13	12468.03
482.31	12351.01
482.49	12734.85
482.67	12549.95
482.85	12774.64
483.03	13097.64
483.21	12795.71
483.39	13160.83
483.57	12978.27
483.74	13511.91
483.92	13532.98
484.10	13315.31
484.28	13647.66
484.46	13577.45
484.64	14118.11
484.82	13687.45
485.00	14209.39
485.18	14160.24
485.35	14473.87
485.53	14511.32
485.71	14441.11
485.89	14672.82
486.07	14766.44
486.25	14558.13
486.43	14782.82
486.61	14949.00
486.78	14995.81
486.96	14871.76
487.14	15494.35
487.32	15389.02
487.50	15559.88
487.68	15744.78
487.85	15885.22
488.03	15714.36
488.21	15983.52
488.39	16100.55
488.57	16252.68
488.75	16414.18
488.92	16547.59
489.10	16486.73
489.28	16713.77
489.46	16933.78
489.64	16926.75
489.81	17242.73
489.99	17294.22
490.17	17289.54
490.35	17331.67
490.53	17799.77
490.70	17729.56
490.88	17535.29
491.06	17905.10
491.24	17914.46
491.41	18785.14
491.59	18380.23
491.77	18253.84
491.95	18878.76
492.13	18534.70
492.30	18923.23
492.48	18707.90
492.66	19063.66
492.84	19026.21
493.01	19103.45
493.19	19068.34
493.37	19335.17
493.54	19398.36
493.72	19580.92
493.90	19726.04
494.08	19758.80
494.25	20109.88
494.43	19833.70
494.61	20056.05
494.79	20524.16
494.96	20163.72
495.14	20027.96
495.32	20706.72
495.49	20758.21
495.67	20732.47
495.85	21109.29
496.02	21113.97
496.20	21343.35
496.38	21509.52
496.55	21223.98
496.73	22127.42
496.91	21645.27
497.09	21802.09
497.26	21638.25
497.44	21710.81
497.62	22169.55
497.79	22508.93
497.97	22256.15
498.14	22469.14
498.32	22443.40
498.50	22965.34
498.67	22663.41
498.85	22581.49
499.03	22803.84
499.20	22815.54
499.38	23063.64
499.56	22965.34
499.73	23566.85
499.91	23431.10
500.08	23709.63
500.26	23339.82
500.44	23686.22
500.61	23559.83
500.79	23548.13
500.97	23836.02
501.14	24187.10
501.32	23887.51
501.49	23978.79
501.67	24346.25
501.84	24332.21
502.02	24463.28
502.20	24498.39
502.37	24655.20
502.55	24690.31
502.72	24339.23
502.90	24510.09
503.07	24350.93
503.25	24938.41
503.43	24744.14
503.60	25081.18
503.78	25490.77
503.95	25149.06
504.13	25277.79
504.30	25207.57
504.48	25340.98
504.65	25685.04
504.83	25717.81
505.01	26080.59
505.18	25776.32
505.36	25979.95
505.53	25919.09
505.71	26078.25
505.88	25832.49
506.06	26087.61
506.23	26017.40
506.41	26396.56
506.58	26368.48
506.76	26415.29
506.93	26859.99
507.11	26658.70
507.28	26789.77
507.46	26595.51
507.63	26937.23
507.81	26995.74
507.98	27082.34
508.16	27271.92
508.33	27058.93
508.50	27328.10
508.68	27281.28
508.85	27454.48
509.03	27583.21
509.20	27880.46
509.38	27843.01
509.55	27974.08
509.73	27723.65
509.90	28112.17
510.08	27913.23
510.25	28053.66
510.42	27852.38
510.60	28156.64
510.77	28416.44
510.95	28374.31
511.12	28465.60
511.30	28449.21
511.47	28489.00
511.64	28673.90
511.82	28669.22
511.99	28950.09
512.17	29106.90
512.34	29039.03
512.51	29364.36
512.69	28926.68
512.86	29511.81
513.04	29099.88
513.21	29277.76
513.38	29633.52
513.56	29743.53
513.73	29539.90
513.90	29677.99
514.08	29530.54
514.25	29752.89
514.43	30204.61
514.60	30162.48
514.77	30089.93
514.95	30321.64
515.12	30068.86
515.29	30335.68
515.47	30139.08
515.64	30443.35
515.81	30359.09
515.99	30588.46
516.16	30890.39
516.33	30782.73
516.51	30724.21
516.68	30771.02
516.85	30759.32
517.03	30813.15
517.20	31372.54
517.37	31026.14
517.54	31215.72
517.72	31253.17
517.89	31211.04
518.06	31323.39
518.24	31512.97
518.41	31185.30
518.58	31227.43
518.75	31597.23
518.93	32191.73
519.10	31557.44
519.27	31847.67
519.45	32142.58
519.62	32013.85
519.79	32285.35
519.96	32105.13
520.14	32336.84
520.31	31772.77
520.48	32414.08
520.65	32051.30
520.83	32762.82
521.00	32584.94
521.17	32545.15
521.34	32858.78
521.52	32886.87
521.69	32769.84
521.86	33380.72
522.03	33034.32
522.20	32950.06
522.38	33448.60
522.55	33556.26
522.72	33270.72
522.89	33446.26
523.07	33916.70
523.24	33354.97
523.41	33799.68
523.58	33759.89
523.75	33614.77
523.92	33404.13
524.10	33734.14
524.27	34293.53
524.44	34237.36
524.61	34029.05
524.78	34047.77
524.96	34274.80
525.13	34305.23
525.30	34644.61
525.47	34555.67
525.64	34167.14
525.81	35030.80
525.98	34782.70
526.16	34967.60
526.33	34555.67
526.50	35246.13
526.67	34359.06
526.84	34869.30
527.01	34834.19
527.18	34995.69
527.36	34717.17
527.53	35086.97
527.70	35201.66
527.87	35625.29
528.04	35119.74
528.21	35222.72
528.38	35447.41
528.55	35475.50
528.72	35515.29
528.89	35606.57
529.07	35475.50
529.24	35370.18
529.41	35447.41
529.58	35732.96
529.75	35592.53
529.92	36034.89
530.09	35981.06
530.26	35901.48
530.43	36187.02
530.60	35749.34
530.77	35800.83
530.94	35798.49
531.11	35915.52
531.28	36203.41
531.46	36261.92
531.63	36128.51
531.80	36343.84
531.97	36453.84
532.14	36587.25
532.31	36407.03
532.48	36381.29
532.65	37191.11
532.82	36844.71
532.99	36605.98
533.16	36772.16
533.33	36442.14
533.50	36921.95
533.67	36535.76
533.84	36840.03
534.01	37163.03
534.18	36889.18
534.35	37565.60
534.52	37614.75
534.69	37638.15
534.86	37352.61
535.03	37542.19
535.20	37593.68
535.37	37912.00
535.54	37628.79
535.71	37322.18
535.88	37546.87
536.05	37694.33
536.22	37909.66
536.38	38162.43
536.55	37574.96
536.72	37446.23
536.89	37724.75
537.06	38040.73
537.23	38356.70
537.40	38150.73
537.57	37787.95
537.74	37848.80
537.91	38307.55
538.08	38181.16
538.25	38139.03
538.42	38354.36
538.59	38312.23
538.75	38335.63
538.92	38850.55
539.09	38466.70
539.26	38459.68
539.43	38597.77
539.60	38380.10
539.77	38396.49
539.94	38534.58
540.11	39299.94
540.28	38742.89
540.44	38951.20
540.61	38649.27
540.78	38988.64
540.95	38773.31
541.12	39023.75
541.29	38925.45
541.46	39009.71
541.62	39005.03
541.79	39283.55
541.96	39112.69
542.13	39292.91
542.30	39026.09
542.47	39192.27
542.63	39330.36
542.80	39620.59
542.97	39835.92
543.14	39756.34
543.31	39508.24
543.48	40030.18
543.64	40009.12
543.81	39892.09
543.98	40137.85
544.15	40280.62
544.32	40121.46
544.48	40842.35
544.65	39974.01
544.82	40275.94
544.99	39775.06
545.16	39856.98
545.32	40156.57
545.49	40364.88
545.66	40797.88
545.83	40772.13
546.00	40720.64
546.16	40971.08
546.33	40444.46
546.50	40381.26
546.67	41289.39
546.83	40278.28
547.00	40781.49
547.17	40622.34
547.34	40753.41
547.50	40645.74
547.67	41144.28
547.84	40659.79
548.00	40521.69
548.17	41483.66
548.34	41226.20
548.51	41577.28
548.67	40818.94
548.84	41193.43
549.01	41483.66
549.18	41434.50
549.34	41298.75
549.51	41696.64
549.68	41371.31
549.84	41291.73
550.01	41130.23
550.18	41123.21
550.34	41591.32
550.51	41457.91
550.68	41909.63
550.84	41174.70
551.01	42038.36
551.18	41706.01
551.34	41621.75
551.51	41706.01
551.68	41539.83
551.84	41902.61
552.01	41614.72
552.18	41588.98
552.34	41799.63
552.51	42181.13
552.68	41516.42
552.84	41708.35
553.01	42267.73
553.18	42211.56
553.34	42188.16
553.51	41689.62
553.67	41975.17
553.84	42429.23
554.01	42124.96
554.17	42197.52
554.34	42843.51
554.51	42562.64
554.67	42466.68
554.84	42230.29
555.00	42607.11
555.17	42270.08
555.33	42520.51
555.50	43044.79
555.67	42719.46
555.83	42564.98
556.00	42707.76
556.16	43662.69
556.33	43030.75
556.50	42429.23
556.66	42815.42
556.83	42815.42
556.99	43026.07
557.16	42981.60
557.32	43196.93
557.49	42866.91
557.65	42782.65
557.82	42916.06
557.98	42714.78
558.15	43445.02
558.32	42979.26
558.48	43232.04
558.65	43171.18
558.81	43707.16
558.98	42988.62
559.14	43302.25
559.31	43346.72
559.47	43217.99
559.64	43075.22
559.80	43328.00
559.97	43243.74
560.13	43012.02
560.30	43175.86
560.46	43384.17
560.63	43590.14
560.79	43772.70
560.96	43718.87
561.12	43342.04
561.29	43634.61
561.45	43803.13
561.61	43225.01
561.78	43374.81
561.94	43466.09
562.11	43674.40
562.27	43901.43
562.44	43454.39
562.60	43744.61
562.77	43831.21
562.93	43714.19
563.10	43922.49
563.26	43517.58
563.42	44514.65
563.59	43604.18
563.75	43636.95
563.92	43976.33
564.08	43452.05
564.24	43856.96
564.41	44257.19
564.57	43791.42
564.74	43641.63
564.90	43756.32
565.07	43943.56
565.23	44072.29
565.39	43819.51
565.56	44388.26
565.72	43831.21
565.88	43718.87
566.05	44243.15
566.21	43988.03
566.38	43777.38
566.54	44662.10
566.70	44488.90
566.87	44516.99
567.03	44081.65
567.19	44278.25
567.36	43761.00
567.52	44233.78
567.68	44226.76
567.85	44296.98
568.01	44570.82
568.17	43957.60
568.34	44505.29
568.50	43681.42
568.66	44296.98
568.83	44112.08
568.99	44013.77
569.15	44474.86
569.32	44374.22
569.48	44236.12
569.64	44631.68
569.81	44327.41
569.97	44493.58
570.13	44463.16
570.30	44465.50
570.46	44463.16
570.62	44659.76
570.78	44306.34
570.95	44336.77
571.11	44746.36
571.27	44446.77
571.43	44519.33
571.60	44371.88
571.76	44374.22
571.92	44722.96
572.09	44697.21
572.25	44776.79
572.41	44091.01
572.57	44502.95
572.74	45406.39
572.90	44821.26
573.06	44587.21
573.22	44676.15
573.38	45315.11
573.55	44861.05
573.71	45071.70
573.87	44898.50
574.03	44729.98
574.20	44959.35
574.36	44650.40
574.52	44488.90
574.68	44935.95
574.84	45038.93
575.01	45099.78
575.17	45052.97
575.33	45017.86
575.49	44701.89
575.65	45284.68
575.82	44985.10
575.98	44828.28
576.14	45038.93
576.30	44865.73
576.46	44619.97
576.62	44968.71
576.79	44987.44
576.95	44472.52
577.11	44898.50
577.27	44800.19
577.43	44903.18
577.59	44594.23
577.75	44685.51
577.92	44645.72
578.08	44851.69
578.24	44861.05
578.40	45130.21
578.56	45202.77
578.72	45172.34
578.88	45160.64
579.04	44968.71
579.21	44854.03
579.37	44804.88
579.53	45219.15
579.69	44776.79
579.85	45251.92
580.01	45212.13
580.17	45116.17
580.33	45272.98
580.49	45244.90
580.65	45008.50
580.82	44624.65
580.98	44975.73
581.14	44559.12
581.30	45457.88
581.46	45226.17
581.62	45282.34
581.78	44933.60
581.94	45296.39
582.10	45242.56
582.26	45202.77
582.42	45177.02
582.58	45158.30
582.74	45179.36
582.90	45338.52
583.06	45071.70
583.22	44687.85
583.38	45338.52
583.54	45394.69
583.70	45291.71
583.86	45219.15
584.02	44863.39
584.18	45404.05
584.34	45167.66
584.50	45385.33
584.66	45308.09
584.82	45329.16
584.98	45399.37
585.14	45364.26
585.30	45074.04
585.46	44790.83
585.62	45043.61
585.78	45120.85
585.94	45013.18
586.10	45322.13
586.26	44816.58
586.42	45205.11
586.58	45734.07
586.74	45532.78
586.90	45104.46
587.06	45102.12
587.22	45574.91
587.38	44825.94
587.54	45301.07
587.70	45539.80
587.86	45193.40
588.02	45347.88
588.18	45354.90
588.34	45113.83
588.49	45436.82
588.65	45380.65
588.81	45492.99
588.97	45081.06
589.13	45478.95
589.29	45408.73
589.45	45752.79
589.61	45310.43
589.77	45291.71
589.93	45720.02
590.08	45502.35
590.24	45832.37
590.40	46230.26
590.56	46021.95
590.72	45563.21
590.88	45429.80
591.04	45464.91
591.20	45701.30
591.35	45886.20
591.51	46321.54
591.67	45668.53
591.83	46164.73
591.99	46188.13
592.15	45961.10
592.31	45830.03
592.46	45944.72
592.62	45652.15
592.78	45759.81
592.94	45958.76
593.10	46190.47
593.26	46277.07
593.41	46087.49
593.57	45855.78
593.73	46010.25
593.89	46309.84
594.05	45738.75
594.20	45830.03
594.36	46405.80
594.52	46230.26
594.68	46237.28
594.84	45972.80
594.99	45883.86
595.15	45975.14
595.31	46014.93
595.47	45603.00
595.62	46113.23
595.78	45614.70
595.94	46188.13
596.10	45937.69
596.25	46082.81
596.41	46579.00
596.57	46033.66
596.73	45869.82
596.88	46036.00
597.04	45808.96
597.20	46597.73
597.36	46197.49
597.51	46344.95
597.67	45710.66
597.83	46071.10
597.99	45904.93
598.14	45656.83
598.30	46059.40
598.46	45949.40
598.61	46508.79
598.77	46036.00
598.93	46440.91
599.09	46157.70
599.24	46403.46
599.40	46141.32
599.56	46705.39
599.71	46576.66
599.87	46988.60
600.03	46366.01
600.18	45853.44
600.34	46293.46
600.50	46295.80
600.65	46157.70
600.81	46323.88
600.97	46501.76
601.12	46333.24
601.28	46195.15
601.44	46169.41
601.59	46036.00
601.75	45972.80
601.91	45958.76
602.06	46356.65
602.22	46337.93
602.37	46270.05
602.53	46419.84
602.69	46129.62
602.84	46419.84
603.00	46183.45
603.16	45923.65
603.31	46298.14
603.47	46412.82
603.62	46426.87
603.78	46305.16
603.94	45993.87
604.09	46230.26
604.25	46181.11
604.40	46174.09
604.56	46082.81
604.71	46384.74
604.87	46232.60
605.03	46199.83
605.18	46059.40
605.34	46183.45
605.49	45830.03
605.65	46337.93
605.80	46162.39
605.96	45900.25
606.12	46099.19
606.27	46232.60
606.43	46007.91
606.58	46602.41
606.74	46005.57
606.89	45846.41
607.05	46190.47
607.20	46021.95
607.36	45579.59
607.51	46155.36
607.67	46005.57
607.82	45834.71
607.98	46181.11
608.13	45659.17
608.29	45965.78
608.44	45907.27
608.60	45757.47
608.75	46321.54
608.91	45867.48
609.06	45612.36
609.22	45830.03
609.37	45792.58
609.53	46057.06
609.68	46026.63
609.84	45830.03
609.99	45940.04
610.15	45883.86
610.30	45991.53
610.46	45539.80
610.61	46092.17
610.76	46040.68
610.92	45450.86
611.07	45956.42
611.23	45287.03
611.38	45874.50
611.54	45954.08
611.69	45839.39
611.84	45607.68
612.00	45415.76
612.15	45343.20
612.31	45998.55
612.46	45382.99
612.62	45411.07
612.77	45392.35
612.92	45865.14
613.08	45294.05
613.23	45682.58
613.39	45635.77
613.54	45469.59
613.69	45659.17
613.85	45595.98
614.00	45539.80
614.15	45825.35
614.31	45324.47
614.46	45406.39
614.62	45034.25
614.77	45518.74
614.92	45511.72
615.08	45970.46
615.23	45453.20
615.38	45305.75
615.54	45443.84
615.69	45422.78
615.84	45319.79
616.00	45492.99
616.15	45347.88
616.30	45467.25
616.46	45064.67
616.61	45350.22
616.76	45392.35
616.92	45099.78
617.07	45146.59
617.22	45890.88
617.37	44949.99
617.53	45209.79
617.68	45048.29
617.83	44964.03
617.99	45130.21
618.14	45668.53
618.29	44650.40
618.45	44954.67
618.60	44535.71
618.75	44788.49
618.90	44851.69
619.06	45076.38
619.21	45188.72
619.36	45139.57
619.51	45074.04
619.67	44605.93
619.82	44900.84
619.97	44966.37
620.12	45052.97
620.28	44479.54
620.43	45268.30
620.58	45186.38
620.73	45001.48
620.89	45207.45
621.04	44509.97
621.19	44797.85
621.34	44648.06
621.49	44481.88
621.65	44940.63
621.80	45008.50
621.95	44624.65
622.10	44753.38
622.25	44437.41
622.41	44797.85
622.56	44254.85
622.71	44662.10
622.86	44299.32
623.01	44514.65
623.16	44479.54
623.32	44346.13
623.47	44687.85
623.62	44849.35
623.77	44231.44
623.92	44226.76
624.07	44575.50
624.23	44411.67
624.38	44666.78
624.53	44240.81
624.68	43861.64
624.83	44002.07
624.98	43976.33
625.13	43548.01
625.29	44051.22
625.44	44238.47
625.59	43945.90
625.74	43936.54
625.89	43992.71
626.04	43938.88
626.19	44079.31
626.34	43995.05
626.49	43468.43
626.65	43723.55
626.80	43716.53
626.95	43531.62
627.10	43686.10
627.25	44100.37
627.40	43896.75
627.55	43711.84
627.70	43552.69
627.85	43943.56
628.00	43346.72
628.15	43981.01
628.30	43543.33
628.45	43580.78
628.60	42960.53
628.76	43454.39
628.91	43243.74
629.06	43089.26
629.21	43498.86
629.36	43540.99
629.51	43365.45
629.66	43798.44
629.81	43398.21
629.96	43192.25
630.11	43372.47
630.26	43351.40
630.41	43540.99
630.56	43512.90
630.71	43470.77
630.86	43253.10
631.01	42691.37
631.16	43100.97
631.31	43393.53
631.46	43037.77
631.61	43278.85
631.76	43227.35
631.91	43070.54
632.06	43583.12
632.21	43093.94
632.36	43276.51
632.51	42499.45
632.66	43400.55
632.81	42504.13
632.96	43222.67
633.10	42916.06
633.25	42918.40
633.40	42829.46
633.55	42810.74
633.70	42663.28
633.85	42789.67
634.00	42784.99
634.15	42471.36
634.30	42562.64
634.45	42850.53
634.60	42286.46
634.75	42731.16
634.90	42497.11
635.05	42822.44
635.19	42672.65
635.34	42857.55
635.49	42457.32
635.64	42892.66
635.79	42452.64
635.94	42799.04
636.09	42658.60
636.24	42831.80
636.39	42218.58
636.53	42120.28
636.68	41965.81
636.83	41904.95
636.98	41689.62
637.13	41659.20
637.28	41991.55
637.43	42064.11
637.57	42347.31
637.72	41516.42
637.87	42019.64
638.02	42026.66
638.17	41921.34
638.32	41930.70
638.46	41958.78
638.61	41832.39
638.76	41855.80
638.91	41551.53
639.06	41607.70
639.20	41560.89
639.35	41792.61
639.50	41635.79
639.65	41691.96
639.80	41972.83
639.94	41935.38
640.09	41703.67
640.24	41785.58
640.39	41596.00
640.54	41277.69
640.68	41415.78
640.83	41446.21
640.98	41511.74
641.13	41074.06
641.27	41874.52
641.42	41509.40
641.57	41588.98
641.72	41436.84
641.86	41579.62
642.01	41205.13
642.16	41095.13
642.31	40865.75
642.45	41282.37
642.60	40954.69
642.75	41368.97
642.90	41223.86
643.04	41057.68
643.19	40760.43
643.34	41022.57
643.48	40793.20
643.63	40849.37
643.78	41308.11
643.93	41507.06
644.07	41085.76
644.22	41340.88
644.37	41228.54
644.51	40814.26
644.66	40898.52
644.81	41006.19
644.95	40627.02
645.10	40816.60
645.25	40650.42
645.39	40409.35
645.54	40589.57
645.69	40329.77
645.83	40275.94
645.98	40624.68
646.13	40514.67
646.27	40669.15
646.42	40360.20
646.57	40666.81
646.71	40460.84
646.86	40926.61
647.00	40765.11
647.15	40411.69
647.30	40517.01
647.44	40378.92
647.59	40114.44
647.74	40133.17
647.88	40357.86
648.03	40634.04
648.17	40772.13
648.32	40631.70
648.47	40730.00
648.61	40339.13
648.76	40378.92
648.90	40133.17
649.05	40095.72
649.20	40311.05
649.34	40582.55
649.49	40325.09
649.63	40165.93
649.78	40397.65
649.92	40250.19
650.07	40830.65
650.21	40559.14
650.36	40739.36
650.51	39744.64
650.65	39985.71
650.80	40109.76
650.94	40046.57
651.09	40004.44
651.23	39864.00
651.38	39966.99
651.52	39721.23
651.67	39573.78
651.81	40107.42
651.96	39828.90
652.10	39646.33
652.25	39501.22
652.39	39716.55
652.54	39770.38
652.68	39819.53
652.83	39236.74
652.97	39957.63
653.12	39489.52
653.26	39562.08
653.41	39473.13
653.55	39201.63
653.70	39700.17
653.84	40102.74
653.99	39899.11
654.13	39901.45
654.27	39407.60
654.42	39592.50
654.56	39470.79
654.71	39143.12
654.85	39522.29
655.00	39398.24
655.14	39475.48
655.29	39564.42
655.43	39789.11
655.57	39110.35
655.72	39393.56
655.86	39271.85
656.01	39023.75
656.15	39229.72
656.30	39447.39
656.44	38937.15
656.58	39054.18
656.73	39194.61
656.87	38710.12
657.01	38583.73
657.16	38810.76
657.30	38948.85
657.45	38885.66
657.59	38611.82
657.73	38529.90
657.88	38897.36
658.02	39213.34
658.16	38852.89
658.31	38129.67
658.45	38569.69
658.60	38277.12
658.74	38508.83
658.88	38553.30
659.03	38827.15
659.17	38660.97
659.31	38443.30
659.46	38192.86
659.60	38195.20
659.74	38249.03
659.89	37745.82
660.03	37689.65
660.17	38288.82
660.32	37785.61
660.46	37631.13
660.60	37242.60
660.74	37926.04
660.89	38562.67
661.03	37699.01
661.17	37717.73
661.32	37647.52
661.46	37345.59
661.60	37420.48
661.74	37322.18
661.89	37825.40
662.03	37633.47
662.17	37675.60
662.31	37617.09
662.46	37516.45
662.60	37251.97
662.74	36893.86
662.88	37235.58
663.03	36840.03
663.17	37024.93
663.31	36849.39
663.45	37034.30
663.60	37291.76
663.74	37113.87
663.88	36652.79
664.02	36591.94
664.17	37106.85
664.31	36547.47
664.45	36481.93
664.59	36655.13
664.73	36561.51
664.88	36313.41
665.02	36081.70
665.16	36704.28
665.30	36245.54
665.44	36587.25
665.59	36070.00
665.73	36217.45
665.87	35660.40
666.01	36271.28
666.15	36470.23
666.29	35812.54
666.44	36416.40
666.58	36058.29
666.72	35634.66
666.86	36025.53
667.00	35817.22
667.14	35407.62
667.28	35543.38
667.43	35601.89
667.57	35798.49
667.71	35555.08
667.85	35873.39
667.99	35337.41
668.13	35112.72
668.27	35068.25
668.41	35070.59
668.56	34642.27
668.70	34721.85
668.84	34871.64
668.98	34714.83
669.12	35051.86
669.26	34665.67
669.40	34455.03
669.54	34710.14
669.68	34883.34
669.82	34370.77
669.96	34335.66
670.10	34272.46
670.25	34412.90
670.39	34267.78
670.53	34293.53
670.67	34286.51
670.81	34398.85
670.95	34277.15
671.09	34183.52
671.23	34061.82
671.37	33666.27
671.51	33694.35
671.65	33692.01
671.79	33511.79
671.93	33982.24
672.07	33502.43
672.21	33954.15
672.35	33378.38
672.49	33546.90
672.63	33624.14
672.77	33420.51
672.91	33296.46
673.05	32905.59
673.19	32910.27
673.33	32854.10
673.47	32921.98
673.61	32830.69
673.75	32088.74
673.89	32535.79
674.03	32292.37
674.17	32264.28
674.31	32184.71
674.45	32378.97
674.59	32339.18
674.73	32395.35
674.87	32170.66
675.01	32283.01
675.15	31807.88
675.29	31658.09
675.43	31707.24
675.56	31683.83
675.70	31873.42
675.84	31428.71
675.98	30576.76
676.12	31463.82
676.26	31302.32
676.40	31234.45
676.54	31213.38
676.68	30937.20
676.82	30859.96
676.96	30810.81
677.10	30567.40
677.23	30543.99
677.37	30698.47
677.51	30506.54
677.65	30417.60
677.79	30389.52
677.93	30635.27
678.07	29991.62
678.21	30099.29
678.34	29689.70
678.48	29729.48
678.62	29935.45
678.76	29504.79
678.90	29670.97
679.04	29376.06
679.18	29731.83
679.31	29303.51
679.45	29106.90
679.59	28865.83
679.73	29364.36
679.87	28683.27
680.00	29027.32
680.14	28699.65
680.28	28929.02
680.42	28765.18
680.56	28421.13
680.70	28376.66
680.83	28215.16
680.97	28180.05
681.11	28196.43
681.25	27800.88
681.39	27812.59
681.52	27676.83
681.66	27117.45
681.80	27365.54
681.94	27243.84
682.07	27283.62
682.21	27262.56
682.35	27072.98
682.49	27417.04
682.62	27152.55
682.76	27080.00
682.90	26892.76
683.04	26948.93
683.17	26836.58
683.31	26452.73
683.45	26312.30
683.59	26455.08
683.72	26015.05
683.86	26087.61
684.00	25909.73
684.13	25951.86
684.27	26061.87
684.41	25895.69
684.55	25986.97
684.68	25862.92
684.82	25294.17
684.96	25736.53
685.09	25458.01
685.23	25422.90
685.37	25378.43
685.50	25371.41
685.64	25427.58
685.78	25223.95
685.91	24929.05
686.05	24554.56
686.19	24219.86
686.32	24673.93
686.46	24266.67
686.60	24184.76
686.73	24222.20
686.87	24360.30
687.01	24376.68
687.14	24613.07
687.28	24388.38
687.42	24023.26
687.55	23740.05
687.69	23697.92
687.82	23765.80
687.96	23445.15
688.10	23866.44
688.23	23520.04
688.37	23690.90
688.50	23377.27
688.64	23339.82
688.78	22909.16
688.91	23094.07
689.05	23304.71
689.18	22913.84
689.32	22572.13
689.46	22579.15
689.59	22656.39
689.73	22733.62
689.86	22544.04
690.00	22494.89
690.13	22417.65
690.27	21977.63
690.41	22321.69
690.54	21886.35
690.68	21886.35
690.81	21844.22
690.95	22057.21
691.08	21525.91
691.22	21509.52
691.35	21315.26
691.49	21736.56
691.62	21532.93
691.76	20992.26
691.89	20655.23
692.03	20795.66
692.16	20840.13
692.30	20386.07
692.43	20549.90
692.57	20601.40
692.70	20348.62
692.84	20484.37
692.97	20030.30
693.11	20339.26
693.24	19985.83
693.38	19943.70
693.51	19992.86
693.65	19798.59
693.78	19658.16
693.92	19569.22
694.05	19442.83
694.19	19328.14
694.32	19236.86
694.45	20023.28
694.59	19545.81
694.72	19669.86
694.86	19246.23
694.99	18991.11
695.13	19098.77
695.26	18979.40
695.39	18768.76
695.53	18656.41
695.66	18869.40
695.80	18555.77
695.93	18721.95
696.07	18146.17
696.20	18230.43
696.33	17865.31
696.47	17975.31
696.60	17675.73
696.73	17855.95
696.87	18310.01
697.00	17867.65
697.14	17738.92
697.27	17369.12
697.40	17226.34
697.54	17537.63
697.67	17462.74
697.80	17724.88
697.94	17362.09
698.07	17266.13
698.21	17064.85
698.34	17118.68
698.47	17034.42
698.61	16325.24
698.74	16601.42
698.87	16645.89
699.01	16369.71
699.14	16325.24
699.27	16531.20
699.40	16332.26
699.54	16475.03
699.67	16159.06
699.80	16177.78
699.94	16348.64
700.07	16175.44
700.20	15985.86
700.34	15646.48
700.47	15793.94
700.60	16030.33
700.73	15740.10
700.87	15805.64
701.00	15337.53
701.13	15321.15
701.26	15229.87
701.40	15503.71
701.53	14984.11
701.66	15178.37
701.79	15056.67
701.93	14967.73
702.06	14705.59
702.19	14469.19
702.32	14810.91
702.46	14824.95
702.59	14747.72
702.72	14939.64
702.85	14611.96
702.99	14626.01
703.12	14314.72
703.25	14216.41
703.38	14104.07
703.51	14169.60
703.65	14085.34
703.78	13942.57
703.91	13642.98
704.04	13734.26
704.17	13755.33
704.31	13738.94
704.44	13586.81
704.57	13591.49
704.70	13439.36
704.83	13205.30
704.96	13465.10
705.10	13221.69
705.23	13406.59
>>>>>End Processed Spectral Data<<<<<
