SpectraSuite Data File
++++++++++++++++++++++++++++++++++++
Date: Fri Oct 25 11:34:41 EDT 2013
User: price-jones
Dark Spectrum Present: No
Reference Spectrum Present: No
Number of Sampled Component Spectra: 1
Spectrometers: USB2+H05261
Integration Time (usec): 100000 (USB2+H05261)
Spectra Averaged: 1 (USB2+H05261)
Boxcar Smoothing: 0 (USB2+H05261)
Correct for Electrical Dark: No (USB2+H05261)
Strobe/Lamp Enabled: No (USB2+H05261)
Correct for Detector Non-linearity: No (USB2+H05261)
Correct for Stray Light: No (USB2+H05261)
Number of Pixels in Processed Spectrum: 2048
>>>>>Begin Processed Spectral Data<<<<<
365.73	322.99
365.92	322.99
366.12	322.99
366.32	194.26
366.52	159.16
366.72	245.76
366.91	140.43
367.11	159.16
367.31	187.24
367.51	170.86
367.70	203.63
367.90	180.22
368.10	212.99
368.30	170.86
368.49	163.84
368.69	259.80
368.89	196.60
369.09	224.69
369.28	222.35
369.48	180.22
369.68	280.86
369.87	269.16
370.07	227.03
370.27	346.40
370.47	306.61
370.66	418.96
370.86	505.56
371.06	458.74
371.25	543.00
371.45	514.92
371.65	533.64
371.84	533.64
372.04	514.92
372.24	603.86
372.44	540.66
372.63	561.73
372.83	571.09
373.03	594.50
373.22	617.90
373.42	545.34
373.62	592.16
373.81	622.58
374.01	645.99
374.21	599.18
374.40	664.71
374.60	596.84
374.79	645.99
374.99	690.46
375.19	699.82
375.38	671.73
375.58	620.24
375.78	627.26
375.97	678.76
376.17	709.18
376.37	634.29
376.56	620.24
376.76	671.73
376.95	631.94
377.15	727.91
377.35	580.45
377.54	674.07
377.74	706.84
377.93	706.84
378.13	713.86
378.33	781.74
378.52	730.25
378.72	622.58
378.91	751.31
379.11	697.48
379.31	660.03
379.50	737.27
379.70	777.06
379.89	716.20
380.09	720.88
380.28	674.07
380.48	690.46
380.68	727.91
380.87	716.20
381.07	795.78
381.26	767.70
381.46	854.30
381.65	791.10
381.85	711.52
382.04	730.25
382.24	730.25
382.43	753.65
382.63	709.18
382.83	744.29
383.02	779.40
383.22	760.67
383.41	681.10
383.61	812.17
383.80	751.31
384.00	809.83
384.19	814.51
384.39	814.51
384.58	784.08
384.78	739.61
384.97	812.17
385.17	791.10
385.36	842.59
385.56	795.78
385.75	828.55
385.95	821.53
386.14	800.46
386.34	823.87
386.53	805.14
386.72	863.66
386.92	835.57
387.11	877.70
387.31	856.64
387.50	849.61
387.70	891.74
387.89	877.70
388.09	868.34
388.28	805.14
388.48	833.23
388.67	933.87
388.86	894.08
389.06	905.79
389.25	840.25
389.45	835.57
389.64	959.62
389.84	903.45
390.03	889.40
390.22	905.79
390.42	992.39
390.61	866.00
390.81	1053.24
391.00	1018.13
391.19	978.34
391.39	1004.09
391.58	1064.94
391.78	1015.79
391.97	1081.33
392.16	1018.13
392.36	1018.13
392.55	1029.84
392.75	1071.97
392.94	1029.84
393.13	1062.60
393.33	1018.13
393.52	1039.20
393.71	943.24
393.91	954.94
394.10	1078.99
394.29	1036.86
394.49	1027.50
394.68	1067.28
394.88	1060.26
395.07	1093.03
395.26	1184.31
395.46	1123.46
395.65	1156.22
395.84	1135.16
396.04	1165.59
396.23	1172.61
396.42	1172.61
396.62	1252.19
396.81	1090.69
397.00	1196.01
397.19	1137.50
397.39	1177.29
397.58	1149.20
397.77	1139.84
397.97	1186.65
398.16	1142.18
398.35	1198.35
398.55	1242.82
398.74	1226.44
398.93	1240.48
399.12	1355.17
399.32	1362.19
399.51	1249.85
399.70	1324.74
399.90	1231.12
400.09	1315.38
400.28	1334.11
400.47	1378.58
400.67	1313.04
400.86	1263.89
401.05	1324.74
401.24	1371.55
401.44	1364.53
401.63	1315.38
401.82	1404.32
402.01	1380.92
402.21	1385.60
402.40	1486.24
402.59	1380.92
402.78	1458.15
402.97	1504.96
403.17	1437.09
403.36	1425.39
403.55	1547.09
403.74	1495.60
403.93	1556.46
404.13	1577.52
404.32	1458.15
404.51	1577.52
404.70	1502.62
404.89	1607.95
405.09	1619.65
405.28	1563.48
405.47	1561.14
405.66	1689.87
405.85	1666.46
406.05	1643.06
406.24	1631.35
406.43	1687.53
406.62	1629.01
406.81	1743.70
407.00	1699.23
407.20	1661.78
407.39	1701.57
407.58	1741.36
407.77	1739.02
407.96	1860.73
408.15	1891.15
408.34	1827.96
408.54	1823.28
408.73	1851.36
408.92	1874.77
409.11	1937.96
409.30	1823.28
409.49	1916.90
409.68	1858.39
409.87	1865.41
410.07	1970.73
410.26	1994.14
410.45	1792.85
410.64	1849.02
410.83	2003.50
411.02	2057.33
411.21	2019.88
411.40	2090.10
411.59	2223.51
411.78	2029.24
411.98	2153.29
412.17	2069.03
412.36	2200.10
412.55	2083.08
412.74	2160.31
412.93	2228.19
413.12	2230.53
413.31	2356.92
413.50	2326.49
413.69	2267.98
413.88	2375.64
414.07	2445.86
414.26	2387.35
414.45	2363.94
414.64	2417.77
414.83	2408.41
415.02	2530.12
415.22	2485.65
415.41	2553.52
415.60	2497.35
415.79	2562.89
415.98	2661.19
416.17	2502.03
416.36	2609.70
416.55	2626.08
416.74	2724.38
416.93	2567.57
417.12	2651.83
417.31	2839.07
417.50	2708.00
417.69	2700.98
417.88	2794.60
418.07	2820.35
418.26	2759.49
418.45	2808.64
418.64	2855.45
418.83	2960.78
419.02	2853.11
419.21	2965.46
419.39	2953.76
419.58	2995.89
419.77	2909.29
419.96	3166.74
420.15	2923.33
420.34	3075.46
420.53	3108.23
420.72	3063.76
420.91	3019.29
421.10	3169.09
421.29	3075.46
421.48	3169.09
421.67	3169.09
421.86	3056.74
422.05	3096.53
422.24	3002.91
422.43	3108.23
422.61	3215.90
422.80	3204.19
422.99	3239.30
423.18	3190.15
423.37	3236.96
423.56	3197.17
423.75	3246.32
423.94	3215.90
424.13	2958.44
424.32	3148.02
424.50	3218.24
424.69	3286.11
424.88	3358.67
425.07	3173.77
425.26	3236.96
425.45	3307.18
425.64	3246.32
425.83	3267.39
426.01	3328.24
426.20	3272.07
426.39	3316.54
426.58	3286.11
426.77	3239.30
426.96	3318.88
427.15	3251.00
427.33	3358.67
427.52	3475.70
427.71	3316.54
427.90	3461.65
428.09	3480.38
428.28	3545.91
428.46	3405.48
428.65	3566.98
428.84	3719.11
429.03	3576.34
429.22	3440.59
429.40	3583.36
429.59	3527.19
429.78	3637.19
429.97	3426.54
430.16	3681.66
430.34	3524.85
430.53	3716.77
430.72	3611.45
430.91	3705.07
431.10	3684.00
431.28	3707.41
431.47	3815.07
431.66	3873.59
431.85	3651.24
432.03	3873.59
432.22	3878.27
432.41	3817.41
432.60	3995.29
432.79	3955.51
432.97	3969.55
433.16	3822.09
433.35	3824.44
433.54	3880.61
433.72	3946.14
433.91	3964.87
434.10	3920.40
434.28	3920.40
434.47	4023.38
434.66	4042.11
434.85	3999.98
435.03	4035.08
435.22	4109.98
435.41	4189.56
435.59	4147.43
435.78	4201.26
435.97	4208.28
436.16	4149.77
436.34	4138.07
436.53	4311.27
436.72	4325.31
436.90	4098.28
437.09	4341.69
437.28	4259.78
437.46	4217.65
437.65	4198.92
437.84	4273.82
438.02	4390.84
438.21	4397.87
438.40	4273.82
438.58	4468.08
438.77	4475.10
438.96	4514.89
439.14	4645.96
439.33	4624.90
439.52	4645.96
439.70	4683.41
439.89	4802.78
440.08	4873.00
440.26	4952.57
440.45	4692.77
440.63	4847.25
440.82	4795.76
441.01	4856.61
441.19	4856.61
441.38	4765.33
441.57	4945.55
441.75	4990.02
441.94	5123.43
442.12	5076.62
442.31	5195.99
442.50	5172.58
442.68	5153.86
442.87	5083.64
443.05	5191.31
443.24	5348.12
443.43	5144.50
443.61	5261.52
443.80	5432.38
443.98	5128.11
444.17	5034.49
444.35	5139.82
444.54	5320.04
444.73	5397.28
444.91	5308.34
445.10	5343.44
445.28	5310.68
445.47	5320.04
445.65	5397.28
445.84	5472.17
446.02	5301.31
446.21	5343.44
446.39	5238.12
446.58	5633.67
446.77	5472.17
446.95	5270.89
447.14	5345.78
447.32	5453.45
447.51	5198.33
447.69	5355.15
447.88	5348.12
448.06	5465.15
448.25	5453.45
448.43	5486.22
448.62	5533.03
448.80	5416.00
448.99	5680.48
449.17	5586.86
449.36	5734.31
449.54	5659.42
449.73	5708.57
449.91	5645.37
450.10	5921.56
450.28	5708.57
450.46	5767.08
450.65	5813.89
450.83	5795.17
451.02	5816.23
451.20	5916.87
451.39	5923.90
451.57	5944.96
451.76	5792.83
451.94	5799.85
452.13	5839.64
452.31	6026.88
452.49	5966.03
452.68	5928.58
452.86	5867.72
453.05	6043.26
453.23	5860.70
453.42	6022.20
453.60	5977.73
453.78	6010.50
453.97	6076.03
454.15	5959.00
454.34	5996.45
454.52	6167.31
454.70	6171.99
454.89	6265.61
455.07	6298.38
455.26	6319.45
455.44	6462.22
455.62	6328.81
455.81	6193.06
455.99	6352.21
456.17	6422.43
456.36	6534.78
456.54	6492.65
456.73	6471.58
456.91	6555.84
457.09	6478.60
457.28	6696.27
457.46	6511.37
457.64	6668.19
457.83	6799.26
458.01	6663.51
458.19	6825.00
458.38	6609.67
458.56	6827.34
458.74	6801.60
458.93	6817.98
459.11	6925.65
459.29	6712.66
459.48	6771.17
459.66	6930.33
459.84	6766.49
460.03	6895.22
460.21	6986.50
460.39	7014.59
460.57	6965.43
460.76	7138.63
460.94	7070.76
461.12	6991.18
461.31	7007.56
461.49	7082.46
461.67	7178.42
461.85	7503.76
462.04	7096.50
462.22	7545.89
462.40	7375.03
462.59	7449.93
462.77	7234.60
462.95	7365.67
463.13	7356.30
463.32	7297.79
463.50	7428.86
463.68	7449.93
463.86	7482.69
464.05	7459.29
464.23	7552.91
464.41	7581.00
464.59	7452.27
464.78	7871.22
464.96	7555.25
465.14	7564.61
465.32	7691.00
465.50	7653.55
465.69	7915.69
465.87	7646.53
466.05	7672.28
466.23	7630.15
466.41	7627.81
466.60	7845.48
466.78	7557.59
466.96	7854.84
467.14	7707.38
467.32	7798.66
467.51	7822.07
467.69	7740.15
467.87	8021.02
468.05	8006.97
468.23	7688.66
468.41	7784.62
468.60	7784.62
468.78	7985.91
468.96	8114.64
469.14	7920.37
469.32	8187.19
469.50	8105.28
469.69	8152.09
469.87	8322.94
470.05	8458.70
470.23	8294.86
470.41	8379.12
470.59	8444.65
470.77	8404.86
470.95	8297.20
471.14	8507.85
471.32	8264.43
471.50	8594.45
471.68	8409.54
471.86	8599.13
472.04	8645.94
472.22	8837.86
472.40	8737.22
472.58	8652.96
472.77	8854.25
472.95	8760.63
473.13	9200.65
473.31	8961.91
473.49	8971.27
473.67	8870.63
473.85	9004.04
474.03	9301.29
474.21	9095.32
474.39	9167.88
474.57	9177.24
474.75	9303.63
474.93	9462.79
475.12	9401.93
475.30	9430.02
475.48	9348.10
475.66	9221.71
475.84	9453.42
476.02	9652.37
476.20	9624.28
476.38	9851.31
476.56	9809.19
476.74	9755.35
476.92	9954.30
477.10	9977.70
477.28	10239.84
477.46	10256.23
477.64	10331.12
477.82	10628.37
478.00	10630.71
478.18	10501.98
478.36	10487.94
478.54	10619.01
478.72	10703.27
478.90	10822.64
479.08	10953.71
479.26	11075.42
479.44	11108.18
479.62	11080.10
479.80	11173.72
479.98	11545.86
480.16	11513.10
480.34	11564.59
480.52	11342.24
480.70	11669.91
480.88	11412.45
481.06	11646.51
481.24	11744.81
481.41	11847.79
481.59	12102.91
481.77	12290.15
481.95	12276.11
482.13	12219.94
482.31	12264.41
482.49	12449.31
482.67	12449.31
482.85	12709.11
483.03	12912.74
483.21	12945.50
483.39	13078.91
483.57	12973.59
483.74	12968.91
483.92	13408.93
484.10	13158.49
484.28	13427.65
484.46	13771.71
484.64	13827.88
484.82	13460.42
485.00	13816.18
485.18	14075.98
485.35	14253.86
485.53	14391.95
485.71	14321.74
485.89	14560.47
486.07	14389.61
486.25	14375.57
486.43	14668.14
486.61	14789.85
486.78	14963.04
486.96	14991.13
487.14	15283.70
487.32	15342.21
487.50	15508.39
487.68	15311.78
487.85	15477.96
488.03	15880.53
488.21	16079.48
488.39	16116.93
488.57	16217.57
488.75	16341.62
488.92	16554.61
489.10	16788.66
489.28	16524.18
489.46	16905.69
489.64	16685.68
489.81	16919.73
489.99	17074.21
490.17	17329.33
490.35	17298.90
490.53	17371.46
490.70	17439.33
490.88	17584.44
491.06	17841.90
491.24	17591.47
491.41	18090.00
491.59	18019.78
491.77	17862.97
491.95	18504.28
492.13	18520.66
492.30	18656.41
492.48	18291.29
492.66	18572.15
492.84	18628.32
493.01	18974.72
493.19	18925.57
493.37	19145.58
493.54	19426.45
493.72	19403.04
493.90	19442.83
494.08	19417.08
494.25	19679.22
494.43	19709.65
494.61	20058.39
494.79	20233.93
494.96	19917.96
495.14	20091.16
495.32	20634.16
495.49	20552.24
495.67	20334.57
495.85	20608.42
496.02	21001.63
496.20	21008.65
496.38	21034.39
496.55	21092.91
496.73	21708.47
496.91	21443.99
497.09	21291.85
497.26	21638.25
497.44	21476.76
497.62	21895.71
497.79	22174.24
497.97	21977.63
498.14	21998.70
498.32	22101.68
498.50	22235.09
498.67	22459.78
498.85	22319.35
499.03	22710.22
499.20	22597.87
499.38	22869.37
499.56	22850.65
499.73	23150.24
499.91	22960.66
500.08	23311.74
500.26	23328.12
500.44	23349.18
500.61	23370.25
500.79	23332.80
500.97	23440.47
501.14	24166.03
501.32	23885.17
501.49	23885.17
501.67	24032.62
501.84	24072.41
502.02	24166.03
502.20	24187.10
502.37	24161.35
502.55	24189.44
502.72	24446.90
502.90	24535.84
503.07	24425.83
503.25	24629.46
503.43	24559.24
503.60	25032.03
503.78	24842.45
503.95	24652.86
504.13	24947.77
504.30	25193.53
504.48	25074.16
504.65	25008.62
504.83	25474.39
505.01	25654.61
505.18	25558.65
505.36	25738.87
505.53	25324.60
505.71	25539.93
505.88	25619.50
506.06	25862.92
506.23	26445.71
506.41	25972.92
506.58	26045.48
506.76	26092.29
506.93	26649.34
507.11	26384.86
507.28	26604.87
507.46	26654.02
507.63	26766.37
507.81	26878.71
507.98	26377.84
508.16	26485.50
508.33	26906.80
508.50	27239.15
508.68	27033.19
508.85	27496.61
509.03	27147.87
509.20	27058.93
509.38	27541.08
509.55	27527.04
509.73	27637.05
509.90	27840.67
510.08	27915.57
510.25	27662.79
510.42	28084.09
510.60	28229.20
510.77	28381.34
510.95	28362.61
511.12	28137.92
511.30	28121.54
511.47	28416.44
511.64	28301.76
511.82	28582.62
511.99	28545.17
512.17	28905.62
512.34	28819.02
512.51	29106.90
512.69	29076.48
512.86	29071.79
513.04	29123.29
513.21	29050.73
513.38	29298.83
513.56	29567.99
513.73	29666.29
513.90	29369.04
514.08	29118.60
514.25	29591.39
514.43	29322.23
514.60	29762.25
514.77	29912.05
514.95	29867.58
515.12	29926.09
515.29	30089.93
515.47	30277.17
515.64	30368.45
515.81	30216.32
515.99	30649.32
516.16	30689.10
516.33	30345.05
516.51	30469.09
516.68	30661.02
516.85	30728.89
517.03	30845.92
517.20	30848.26
517.37	30934.86
517.54	30855.28
517.72	31000.40
517.89	31063.59
518.06	31101.04
518.24	31594.89
518.41	30967.63
518.58	31421.69
518.75	31431.05
518.93	31686.17
519.10	31360.84
519.27	31824.26
519.45	31335.09
519.62	31819.58
519.79	31562.12
519.96	31545.74
520.14	31999.80
520.31	31660.43
520.48	31910.86
520.65	32109.81
520.83	32336.84
521.00	32058.32
521.17	31969.38
521.34	32432.80
521.52	32355.57
521.69	32503.02
521.86	32708.99
522.03	33010.92
522.20	32807.29
522.38	33174.75
522.55	32985.17
522.72	32575.58
522.89	32570.90
523.07	33654.56
523.24	33041.34
523.41	33184.12
523.58	33181.77
523.75	33869.89
523.92	33701.37
524.10	33408.81
524.27	33656.90
524.44	33565.62
524.61	33902.66
524.78	33647.54
524.96	34029.05
525.13	33778.61
525.30	34019.69
525.47	33895.64
525.64	33923.72
525.81	34270.12
525.98	34003.30
526.16	34047.77
526.33	34431.62
526.50	34768.66
526.67	34735.89
526.84	34719.51
527.01	34319.28
527.18	34504.18
527.36	34899.73
527.53	34909.09
527.70	34993.35
527.87	34799.08
528.04	34920.79
528.21	34983.99
528.38	35150.17
528.55	35002.71
528.72	35007.39
528.89	35255.49
529.07	34651.63
529.24	34934.84
529.41	35517.63
529.58	34958.24
529.75	35456.78
529.92	35143.14
530.09	35702.53
530.26	35772.75
530.43	35508.27
530.60	35023.78
530.77	35864.03
530.94	35421.67
531.11	35693.17
531.28	35828.92
531.46	36142.55
531.63	36198.73
531.80	35789.13
531.97	36259.58
532.14	36245.54
532.31	35969.35
532.48	36109.78
532.65	36287.67
532.82	36676.19
532.99	36025.53
533.16	36158.94
533.33	36627.04
533.50	36512.36
533.67	36409.37
533.84	36741.73
534.01	36746.41
534.18	36563.85
534.35	36708.96
534.52	36926.63
534.69	37097.49
534.86	36730.03
535.03	36737.05
535.20	36734.71
535.37	37214.52
535.54	37600.71
535.71	36861.10
535.88	37181.75
536.05	37106.85
536.22	37273.03
536.38	37289.42
536.55	37179.41
536.72	37266.01
536.89	37174.73
537.06	37633.47
537.23	37633.47
537.40	37661.56
537.57	37563.26
537.74	37436.87
537.91	37659.22
538.08	37933.06
538.25	37532.83
538.42	37937.74
538.59	38005.62
538.75	37855.82
538.92	38038.39
539.09	38677.35
539.26	38330.95
539.43	38260.74
539.60	38319.25
539.77	38485.43
539.94	38628.20
540.11	38349.68
540.28	38445.64
540.44	38251.38
540.61	38714.80
540.78	38469.04
540.95	38555.64
541.12	39140.78
541.29	38354.36
541.46	38953.54
541.62	39005.03
541.79	39009.71
541.96	38625.86
542.13	38352.02
542.30	38717.14
542.47	39075.24
542.63	39283.55
542.80	39346.75
542.97	39629.95
543.14	39749.32
543.31	39454.41
543.48	39414.62
543.64	39634.63
543.81	39608.89
543.98	39203.97
544.15	39049.50
544.32	39997.41
544.48	40318.07
544.65	39882.73
544.82	40170.61
544.99	39864.00
545.16	40341.47
545.32	39791.45
545.49	40041.88
545.66	40306.37
545.83	40123.80
546.00	40378.92
546.16	40240.83
546.33	40062.95
546.50	40250.19
546.67	40715.96
546.83	39700.17
547.00	40322.75
547.17	40362.54
547.34	40311.05
547.50	40634.04
547.67	40882.14
547.84	40428.07
548.00	40898.52
548.17	40928.95
548.34	40816.60
548.51	40706.60
548.67	40739.36
548.84	41055.34
549.01	41020.23
549.18	40722.98
549.34	41102.15
549.51	41298.75
549.68	41298.75
549.84	40856.39
550.01	41186.41
550.18	41013.21
550.34	40973.42
550.51	40942.99
550.68	41312.80
550.84	41158.32
551.01	41209.81
551.18	41172.36
551.34	41354.93
551.51	41399.40
551.68	41209.81
551.84	41413.44
552.01	41593.66
552.18	41736.43
552.34	41179.39
552.51	41366.63
552.68	41422.80
552.84	41420.46
553.01	41907.29
553.18	41666.22
553.34	41926.02
553.51	41673.24
553.67	41750.48
553.84	41663.88
554.01	41972.83
554.17	41748.14
554.34	42279.44
554.51	42181.13
554.67	42653.92
554.84	42160.07
555.00	42075.81
555.17	42026.66
555.33	42094.53
555.50	41982.19
555.67	41963.46
555.83	42309.86
556.00	42298.16
556.16	42337.95
556.33	42679.67
556.50	42600.09
556.66	42351.99
556.83	42075.81
556.99	42808.40
557.16	42429.23
557.32	42288.80
557.49	42660.94
557.65	42403.49
557.82	42403.49
557.98	42705.41
558.15	42253.69
558.32	42679.67
558.48	42576.69
558.65	42983.94
558.81	42663.28
558.98	42490.09
559.14	42927.77
559.31	42717.12
559.47	42997.98
559.64	42700.73
559.80	43129.05
559.97	43318.64
560.13	42946.49
560.30	43255.44
560.46	43100.97
560.63	43187.56
560.79	43229.69
560.96	43665.03
561.12	43173.52
561.29	42983.94
561.45	43475.45
561.61	43236.72
561.78	43440.34
561.94	43248.42
562.11	43423.96
562.27	43269.48
562.44	43381.83
562.60	43285.87
562.77	43295.23
562.93	43042.45
563.10	43412.26
563.26	43461.41
563.42	43875.68
563.59	43023.73
563.75	43461.41
563.92	43613.54
564.08	43297.57
564.24	43725.89
564.41	43405.23
564.57	43718.87
564.74	43711.84
564.90	43515.24
565.07	43531.62
565.23	43817.17
565.39	43290.55
565.56	43536.30
565.72	43402.89
565.88	43412.26
566.05	43920.15
566.21	43856.96
566.38	43639.29
566.54	44086.33
566.70	43578.43
566.87	43449.70
567.03	43990.37
567.19	44252.51
567.36	44116.76
567.52	43768.02
567.68	43763.34
567.85	44304.00
568.01	43964.62
568.17	43723.55
568.34	44201.02
568.50	43751.63
568.66	43391.19
568.83	43697.80
568.99	43791.42
569.15	43828.87
569.32	44177.61
569.48	43753.97
569.64	44137.82
569.81	44098.03
569.97	43922.49
570.13	43988.03
570.30	44086.33
570.46	43798.44
570.62	44229.10
570.78	44121.44
570.95	44329.75
571.11	44161.23
571.27	44156.55
571.43	44030.16
571.60	44006.75
571.76	44184.63
571.92	43700.14
572.09	44479.54
572.25	44222.08
572.41	44561.46
572.57	44093.35
572.74	44772.11
572.90	44409.32
573.06	44346.13
573.22	44477.20
573.38	44161.23
573.55	44657.42
573.71	44556.78
573.87	44545.08
574.03	43817.17
574.20	44811.90
574.36	44832.96
574.52	44381.24
574.68	44453.79
574.84	44575.50
575.01	44744.02
575.17	44336.77
575.33	44446.77
575.49	44268.89
575.65	44416.35
575.82	44348.47
575.98	44301.66
576.14	44605.93
576.30	45116.17
576.46	44626.99
576.62	44208.04
576.79	44685.51
576.95	44341.45
577.11	44432.73
577.27	44367.20
577.43	44306.34
577.59	44626.99
577.75	44460.82
577.92	44259.53
578.08	44369.54
578.24	44465.50
578.40	44641.04
578.56	44605.93
578.72	44718.28
578.88	44863.39
579.04	44348.47
579.21	44414.01
579.37	44409.32
579.53	45251.92
579.69	44514.65
579.85	44666.78
580.01	44697.21
580.17	44334.43
580.33	44818.92
580.49	44533.37
580.65	44816.58
580.82	44516.99
580.98	44512.31
581.14	44325.07
581.30	44685.51
581.46	45031.91
581.62	44561.46
581.78	44706.57
581.94	44781.47
582.10	44727.64
582.26	45137.23
582.42	44348.47
582.58	44664.44
582.74	44486.56
582.90	44624.65
583.06	44680.83
583.22	44781.47
583.38	44870.41
583.54	44449.11
583.70	44657.42
583.86	44669.12
584.02	44818.92
584.18	45137.23
584.34	45162.98
584.50	44781.47
584.66	44959.35
584.82	44818.92
584.98	44842.32
585.14	45272.98
585.30	44636.36
585.46	44765.09
585.62	44641.04
585.78	45031.91
585.94	44182.29
586.10	44446.77
586.26	44758.06
586.42	44737.00
586.58	45067.02
586.74	44772.11
586.90	45202.77
587.06	44837.64
587.22	45130.21
587.38	44776.79
587.54	44910.20
587.70	44940.63
587.86	45095.10
588.02	44865.73
588.18	44971.05
588.34	44657.42
588.49	44732.32
588.65	44982.76
588.81	44912.54
588.97	45338.52
589.13	44889.13
589.29	45104.46
589.45	45109.14
589.61	45338.52
589.77	45354.90
589.93	44980.42
590.08	45006.16
590.24	45214.47
590.40	45336.18
590.56	45572.57
590.72	45485.97
590.88	45132.55
591.04	45223.83
591.20	45319.79
591.35	45132.55
591.51	45626.40
591.67	45371.28
591.83	45673.21
591.99	45191.06
592.15	45123.19
592.31	45436.82
592.46	45251.92
592.62	45378.31
592.78	45090.42
592.94	45652.15
593.10	45483.63
593.26	46036.00
593.41	45439.16
593.57	45565.55
593.73	45432.14
593.89	45921.31
594.05	45628.74
594.20	45649.81
594.36	45837.05
594.52	45869.82
594.68	45619.38
594.84	45429.80
594.99	45588.95
595.15	45322.13
595.31	45867.48
595.47	45509.38
595.62	45387.67
595.78	45249.58
595.94	45656.83
596.10	45237.87
596.25	45790.24
596.41	45638.11
596.57	45352.56
596.73	45893.22
596.88	45804.28
597.04	45617.04
597.20	45677.90
597.36	45808.96
597.51	45832.37
597.67	45769.18
597.83	45624.06
597.99	45757.47
598.14	45588.95
598.30	45598.32
598.46	45626.40
598.61	45961.10
598.77	45336.18
598.93	45811.31
599.09	45450.86
599.24	45797.26
599.40	46028.98
599.56	45567.89
599.71	46321.54
599.87	46323.88
600.03	46024.29
600.18	46155.36
600.34	45698.96
600.50	45897.91
600.65	45539.80
600.81	46078.13
600.97	46050.04
601.12	45736.41
601.28	45429.80
601.44	45677.90
601.59	45659.17
601.75	45769.18
601.91	45961.10
602.06	45408.73
602.22	45633.42
602.37	45530.44
602.53	45799.60
602.69	46258.35
602.84	45708.32
603.00	45617.04
603.16	45738.75
603.31	45769.18
603.47	45762.15
603.62	45738.75
603.78	45930.67
603.94	46007.91
604.09	45944.72
604.25	45497.67
604.40	45846.41
604.56	45631.08
604.71	46241.96
604.87	46167.07
605.03	45406.39
605.18	46038.34
605.34	45776.20
605.49	45464.91
605.65	45741.09
605.80	45600.66
605.96	45869.82
606.12	46019.61
606.27	46227.92
606.43	45525.76
606.58	45584.27
606.74	45546.82
606.89	46007.91
607.05	45539.80
607.20	45542.14
607.36	45558.53
607.51	45734.07
607.67	45324.47
607.82	45181.70
607.98	45471.93
608.13	45453.20
608.29	45598.32
608.44	45687.26
608.60	45495.33
608.75	45467.25
608.91	45364.26
609.06	45364.26
609.22	45862.80
609.37	45457.88
609.53	45492.99
609.68	45612.36
609.84	45439.16
609.99	45525.76
610.15	45298.73
610.30	45551.51
610.46	45254.26
610.61	45380.65
610.76	45542.14
610.92	45296.39
611.07	45214.47
611.23	44835.30
611.38	45439.16
611.54	45436.82
611.69	45237.87
611.84	45525.76
612.00	45017.86
612.15	45195.74
612.31	45862.80
612.46	44793.17
612.62	45031.91
612.77	45104.46
612.92	45385.33
613.08	45130.21
613.23	44935.95
613.39	45191.06
613.54	45319.79
613.69	45537.46
613.85	45116.17
614.00	44566.14
614.15	45132.55
614.31	44699.55
614.46	44708.91
614.62	44996.80
614.77	45088.08
614.92	45088.08
615.08	45303.41
615.23	44896.16
615.38	45158.30
615.54	44856.37
615.69	44612.95
615.84	45146.59
616.00	44893.82
616.15	45357.24
616.30	45364.26
616.46	44666.78
616.61	44828.28
616.76	44802.53
616.92	44325.07
617.07	44811.90
617.22	44509.97
617.37	44776.79
617.53	44816.58
617.68	44383.58
617.83	44856.37
617.99	44767.43
618.14	44568.48
618.29	44432.73
618.45	44488.90
618.60	44779.13
618.75	44119.10
618.90	44797.85
619.06	44638.70
619.21	44285.28
619.36	44779.13
619.51	43966.96
619.67	44009.09
619.82	44318.04
619.97	44849.35
620.12	44149.53
620.28	44271.23
620.43	44549.76
620.58	44271.23
620.73	44282.94
620.89	44856.37
621.04	44760.40
621.19	44027.82
621.34	44404.64
621.49	44388.26
621.65	44428.05
621.80	44423.37
621.95	44472.52
622.10	44137.82
622.25	43971.64
622.41	44273.57
622.56	43913.13
622.71	44336.77
622.86	43817.17
623.01	44144.84
623.16	43999.73
623.32	44161.23
623.47	44339.11
623.62	44147.18
623.77	44119.10
623.92	44002.07
624.07	43969.30
624.23	44123.78
624.38	44079.31
624.53	43997.39
624.68	43751.63
624.83	44013.77
624.98	43964.62
625.13	43962.28
625.29	43711.84
625.44	43519.92
625.59	43580.78
625.74	43868.66
625.89	43267.14
626.04	43466.09
626.19	43089.26
626.34	43770.36
626.49	43264.80
626.65	43789.08
626.80	43243.74
626.95	43304.59
627.10	43072.88
627.25	43430.98
627.40	42948.83
627.55	43658.01
627.70	42887.98
627.85	43433.32
628.00	43250.76
628.15	43400.55
628.30	42806.06
628.45	42937.13
628.60	42836.48
628.76	43217.99
628.91	42745.20
629.06	42913.72
629.21	43042.45
629.36	42897.34
629.51	43154.80
629.66	42918.40
629.81	42904.36
629.96	43262.46
630.11	42494.77
630.26	42614.13
630.41	43040.11
630.56	43061.18
630.71	42799.04
630.86	42665.63
631.01	42426.89
631.16	42693.71
631.31	42314.55
631.46	42445.62
631.61	42721.80
631.76	43040.11
631.91	42815.42
632.06	43234.38
632.21	42777.97
632.36	42738.18
632.51	42415.19
632.66	42813.08
632.81	42483.06
632.96	42796.70
633.10	42209.22
633.25	42291.14
633.40	42110.92
633.55	42623.50
633.70	41937.72
633.85	42213.90
634.00	42120.28
634.15	42059.43
634.30	42450.30
634.45	42284.12
634.60	41918.99
634.75	42497.11
634.90	42328.59
635.05	42267.73
635.19	42148.37
635.34	42050.06
635.49	42574.34
635.64	42021.98
635.79	42293.48
635.94	42211.56
636.09	42005.59
636.24	42211.56
636.39	42047.72
636.53	41883.89
636.68	41846.44
636.83	41600.68
636.98	41546.85
637.13	41310.46
637.28	41603.02
637.43	41890.91
637.57	41596.00
637.72	41848.78
637.87	41626.43
638.02	41780.90
638.17	41315.14
638.32	41390.03
638.46	41296.41
638.61	40950.01
638.76	41251.94
638.91	41446.21
639.06	41240.24
639.20	41219.17
639.35	41347.90
639.50	41067.04
639.65	41638.13
639.80	41354.93
639.94	41406.42
640.09	41471.95
640.24	41713.03
640.39	41097.47
640.54	40624.68
640.68	41254.28
640.83	41558.55
640.98	41404.08
641.13	41207.47
641.27	41336.20
641.42	41170.02
641.57	40807.24
641.72	40835.33
641.86	41235.56
642.01	41083.42
642.16	40645.74
642.31	40706.60
642.45	41102.15
642.60	41020.23
642.75	40849.37
642.90	40942.99
643.04	40980.44
643.19	40605.95
643.34	40966.40
643.48	40376.58
643.63	40851.71
643.78	40343.81
643.93	40840.01
644.07	40947.67
644.22	40744.05
644.37	40498.29
644.51	40664.47
644.66	40947.67
644.81	40346.15
644.95	40549.78
645.10	40367.22
645.25	40095.72
645.39	40360.20
645.54	40554.46
645.69	40044.23
645.83	40261.90
645.98	39957.63
646.13	40407.01
646.27	39988.05
646.42	39824.22
646.57	40292.32
646.71	40428.07
646.86	40444.46
647.00	40205.72
647.15	40254.87
647.30	40669.15
647.44	40435.10
647.59	40006.78
647.74	40041.88
647.88	39732.93
648.03	40353.18
648.17	40538.08
648.32	40191.68
648.47	40407.01
648.61	39761.02
648.76	39744.64
648.90	40100.40
649.05	39924.86
649.20	39864.00
649.34	39920.18
649.49	39847.62
649.63	40184.66
649.78	39611.23
649.92	39906.13
650.07	40128.48
650.21	40315.73
650.36	39976.35
650.51	39400.58
650.65	40093.38
650.80	39959.97
650.94	39559.73
651.09	39751.66
651.23	39454.41
651.38	39419.30
651.52	39192.27
651.67	39033.11
651.81	39620.59
651.96	39407.60
652.10	39278.87
652.25	39253.12
652.39	39243.76
652.54	39278.87
652.68	39466.11
652.83	39576.12
652.97	38836.51
653.12	39164.18
653.26	39068.22
653.41	39105.67
653.55	39494.20
653.70	39342.06
653.84	38909.07
653.99	39269.51
654.13	39086.95
654.27	39178.23
654.42	39009.71
654.56	39021.41
654.71	39112.69
654.85	38885.66
655.00	39529.31
655.14	39030.77
655.29	39145.46
655.43	39503.56
655.57	38806.08
655.72	38527.56
655.86	38930.13
656.01	38932.47
656.15	38639.90
656.30	38918.43
656.44	38897.36
656.58	38962.90
656.73	38590.75
656.87	38326.27
657.01	38225.63
657.16	38541.60
657.30	38656.29
657.45	38572.03
657.59	38242.01
657.73	37991.58
657.88	38333.29
658.02	38419.89
658.16	38906.73
658.31	38880.98
658.45	38139.03
658.60	38246.69
658.74	37979.87
658.88	38307.55
659.03	38019.66
659.17	38036.05
659.31	37471.98
659.46	37776.25
659.60	38012.64
659.74	37972.85
659.89	37546.87
660.03	37242.60
660.17	37832.42
660.32	37680.28
660.46	37551.56
660.60	37453.25
660.74	37748.16
660.89	37376.01
661.03	36811.95
661.17	37394.74
661.32	37420.48
661.46	37457.93
661.60	37359.63
661.74	37450.91
661.89	37383.04
662.03	37118.56
662.17	36802.58
662.31	36615.34
662.46	36945.36
662.60	37223.88
662.74	36119.15
662.88	36388.31
663.03	36685.56
663.17	36636.41
663.31	36165.96
663.45	36982.80
663.60	36800.24
663.74	37076.43
663.88	36980.46
664.02	36503.00
664.17	36804.92
664.31	36268.94
664.45	36184.68
664.59	36594.28
664.73	35983.40
664.88	36172.98
665.02	36196.38
665.16	35927.22
665.30	36074.68
665.44	35871.05
665.59	35943.61
665.73	36020.84
665.87	35379.54
666.01	35854.67
666.15	35978.72
666.29	35220.38
666.44	35819.56
666.58	35519.97
666.72	35365.49
666.86	35302.30
667.00	35424.01
667.14	35475.50
667.28	35344.43
667.43	34962.92
667.57	35402.94
667.71	35056.54
667.85	35754.02
667.99	35161.87
668.13	35412.31
668.27	34583.76
668.41	34637.59
668.56	34597.80
668.70	34452.69
668.84	34251.40
668.98	34408.22
669.12	34562.69
669.26	34361.40
669.40	34309.91
669.54	34417.58
669.68	34293.53
669.82	34249.06
669.96	33907.34
670.10	34108.63
670.25	34127.35
670.39	34225.65
670.53	34099.26
670.67	33766.91
670.81	34125.01
670.95	34141.39
671.09	33371.36
671.23	33149.01
671.37	33539.88
671.51	33092.83
671.65	33137.30
671.79	33502.43
671.93	33469.66
672.07	33462.64
672.21	33481.36
672.35	33160.71
672.49	33017.94
672.63	33266.03
672.77	32987.51
672.91	32917.29
673.05	32800.27
673.19	32533.45
673.33	32364.93
673.47	32198.75
673.61	32238.54
673.75	32671.54
673.89	32212.79
674.03	32383.65
674.17	32018.53
674.31	31789.16
674.45	31515.31
674.59	31964.70
674.73	32034.91
674.87	31688.51
675.01	31908.52
675.15	31129.12
675.29	31768.09
675.43	31494.25
675.56	31424.03
675.70	31484.89
675.84	31491.91
675.98	30148.44
676.12	31133.81
676.26	31122.10
676.40	31012.10
676.54	30712.51
676.68	30623.57
676.82	30108.65
676.96	30703.15
677.10	30986.35
677.23	30408.24
677.37	30342.70
677.51	30005.67
677.65	30176.53
677.79	30448.03
677.93	29886.30
678.07	29848.85
678.21	29539.90
678.34	29605.44
678.48	29467.34
678.62	29610.12
678.76	29228.61
678.90	29034.35
679.04	29408.83
679.18	29422.87
679.31	28947.75
679.45	29221.59
679.59	28924.34
679.73	28687.95
679.87	28772.21
680.00	28716.03
680.14	28994.56
680.28	28517.09
680.42	28465.60
680.56	28364.95
680.70	28154.30
680.83	27779.82
680.97	27924.93
681.11	27999.83
681.25	27587.89
681.39	27473.21
681.52	27442.78
681.66	27571.51
681.80	26960.63
681.94	26768.71
682.07	27007.44
682.21	26962.97
682.35	27119.79
682.49	26614.23
682.62	27075.32
682.76	27110.43
682.90	26834.24
683.04	26604.87
683.17	26639.98
683.31	26171.87
683.45	26239.75
683.59	26199.96
683.72	25680.36
683.86	25811.43
684.00	25886.32
684.13	25839.51
684.27	25748.23
684.41	25523.54
684.55	25912.07
684.68	25359.70
684.82	25029.69
684.96	25249.70
685.09	25184.16
685.23	25247.36
685.37	25542.27
685.50	25331.62
685.64	25083.52
685.78	24767.55
685.91	24669.25
686.05	24339.23
686.19	24070.07
686.32	24051.34
686.46	23978.79
686.60	23962.40
686.73	24011.56
686.87	24009.22
687.01	23924.96
687.14	24025.60
687.28	24009.22
687.42	23655.79
687.55	23454.51
687.69	23819.63
687.82	23360.89
687.96	23466.21
688.10	23576.22
688.23	23250.88
688.37	23410.04
688.50	23388.97
688.64	22642.34
688.78	22953.63
688.91	22754.69
689.05	22927.89
689.18	22611.92
689.32	22190.62
689.46	22359.14
689.59	22155.51
689.73	22579.15
689.86	22394.25
690.00	22171.89
690.13	21933.16
690.27	22071.25
690.41	22457.44
690.54	21586.76
690.68	21549.31
690.81	21420.58
690.95	21268.45
691.08	21266.11
691.22	21352.71
691.35	20978.22
691.49	21022.69
691.62	21008.65
691.76	20802.68
691.89	20629.48
692.03	20683.31
692.16	20154.35
692.30	20453.94
692.43	20610.76
692.57	20166.06
692.70	20194.14
692.84	20346.28
692.97	20046.69
693.11	20194.14
693.24	20105.20
693.38	20016.26
693.51	19616.03
693.65	19290.70
693.78	19580.92
693.92	19447.51
694.05	19208.78
694.19	19281.33
694.32	19325.80
694.45	19562.20
694.59	19473.26
694.72	19232.18
694.86	18836.63
694.99	19356.23
695.13	18857.70
695.26	18698.54
695.39	18429.38
695.53	18771.10
695.66	18679.82
695.80	18001.06
695.93	18427.04
696.07	18200.01
696.20	17951.91
696.33	17851.27
696.47	17748.28
696.60	17537.63
696.73	17823.18
696.87	17776.37
697.00	17893.40
697.14	17500.19
697.27	17579.76
697.40	17326.99
697.54	17149.11
697.67	17177.19
697.80	17523.59
697.94	17163.15
698.07	17254.43
698.21	16919.73
698.34	16940.80
698.47	16732.49
698.61	16318.22
698.74	16627.17
698.87	16533.54
699.01	16369.71
699.14	16507.80
699.27	16266.72
699.40	16170.76
699.54	16128.63
699.67	16100.55
699.80	16154.38
699.94	15831.38
700.07	15749.46
700.20	15831.38
700.34	15590.31
700.47	15447.54
700.60	15688.61
700.73	15690.95
700.87	15412.43
701.00	15227.53
701.13	15262.63
701.26	15204.12
701.40	15164.33
701.53	15023.90
701.66	15084.75
701.79	14850.70
701.93	14782.82
702.06	14600.26
702.19	14607.28
702.32	14614.30
702.46	14576.86
702.59	14497.28
702.72	14597.92
702.85	14572.18
702.99	14487.92
703.12	14242.16
703.25	14015.13
703.38	14230.46
703.51	14022.15
703.65	13984.70
703.78	13752.99
703.91	13895.76
704.04	13600.85
704.17	13694.47
704.31	13247.43
704.44	13486.17
704.57	13406.59
704.70	13350.42
704.83	13125.72
704.96	13144.45
705.10	12861.24
705.23	13130.41
>>>>>End Processed Spectral Data<<<<<
