SpectraSuite Data File
++++++++++++++++++++++++++++++++++++
Date: Fri Oct 25 11:34:20 EDT 2013
User: price-jones
Dark Spectrum Present: No
Reference Spectrum Present: No
Number of Sampled Component Spectra: 1
Spectrometers: USB2+H05261
Integration Time (usec): 100000 (USB2+H05261)
Spectra Averaged: 1 (USB2+H05261)
Boxcar Smoothing: 0 (USB2+H05261)
Correct for Electrical Dark: No (USB2+H05261)
Strobe/Lamp Enabled: No (USB2+H05261)
Correct for Detector Non-linearity: No (USB2+H05261)
Correct for Stray Light: No (USB2+H05261)
Number of Pixels in Processed Spectrum: 2048
>>>>>Begin Processed Spectral Data<<<<<
365.73	259.80
365.92	259.80
366.12	259.80
366.32	215.33
366.52	145.11
366.72	285.55
366.91	102.98
367.11	159.16
367.31	168.52
367.51	196.60
367.70	161.50
367.90	259.80
368.10	145.11
368.30	138.09
368.49	126.39
368.69	177.88
368.89	187.24
369.09	154.48
369.28	269.16
369.48	245.76
369.68	252.78
369.87	222.35
370.07	234.05
370.27	285.55
370.47	376.83
370.66	430.66
370.86	552.37
371.06	554.71
371.25	503.22
371.45	458.74
371.65	582.79
371.84	500.87
372.04	528.96
372.24	589.82
372.44	578.11
372.63	615.56
372.83	657.69
373.03	582.79
373.22	552.37
373.42	622.58
373.62	676.41
373.81	653.01
374.01	676.41
374.21	695.14
374.40	643.65
374.60	585.13
374.79	671.73
374.99	629.60
375.19	660.03
375.38	645.99
375.58	592.16
375.78	695.14
375.97	641.31
376.17	669.39
376.37	688.12
376.56	564.07
376.76	770.04
376.95	702.16
377.15	699.82
377.35	734.93
377.54	746.63
377.74	695.14
377.93	573.43
378.13	791.10
378.33	727.91
378.52	709.18
378.72	674.07
378.91	662.37
379.11	676.41
379.31	704.50
379.50	741.95
379.70	725.57
379.89	720.88
380.09	755.99
380.28	716.20
380.48	702.16
380.68	737.27
380.87	739.61
381.07	772.38
381.26	795.78
381.46	739.61
381.65	770.04
381.85	786.42
382.04	807.48
382.24	748.97
382.43	751.31
382.63	739.61
382.83	770.04
383.02	844.93
383.22	758.33
383.41	704.50
383.61	732.59
383.80	800.46
384.00	704.50
384.19	751.31
384.39	802.80
384.58	849.61
384.78	748.97
384.97	739.61
385.17	805.14
385.36	800.46
385.56	868.34
385.75	805.14
385.95	844.93
386.14	866.00
386.34	851.96
386.53	866.00
386.72	861.32
386.92	905.79
387.11	840.25
387.31	915.15
387.50	863.66
387.70	821.53
387.89	915.15
388.09	861.32
388.28	896.43
388.48	884.72
388.67	901.11
388.86	966.64
389.06	851.96
389.25	875.36
389.45	887.06
389.64	896.43
389.84	905.79
390.03	926.85
390.22	940.90
390.42	945.58
390.61	947.92
390.81	901.11
391.00	954.94
391.19	915.15
391.39	924.51
391.58	1074.31
391.78	933.87
391.97	1062.60
392.16	863.66
392.36	1022.81
392.55	959.62
392.75	1153.88
392.94	1025.15
393.13	987.71
393.33	1048.56
393.52	1095.37
393.71	1100.05
393.91	1100.05
394.10	1001.75
394.29	1057.92
394.49	1100.05
394.68	1109.41
394.88	1109.41
395.07	1032.18
395.26	1135.16
395.46	1196.01
395.65	1153.88
395.84	1144.52
396.04	1231.12
396.23	1249.85
396.42	1132.82
396.62	1128.14
396.81	1217.08
397.00	1203.04
397.19	1123.46
397.39	1158.57
397.58	1235.80
397.77	1291.98
397.97	1146.86
398.16	1247.51
398.35	1238.14
398.55	1139.84
398.74	1284.95
398.93	1301.34
399.12	1287.29
399.32	1299.00
399.51	1203.04
399.70	1296.66
399.90	1364.53
400.09	1303.68
400.28	1352.83
400.47	1313.04
400.67	1385.60
400.86	1259.21
401.05	1404.32
401.24	1369.21
401.44	1406.66
401.63	1345.81
401.82	1434.75
402.01	1416.02
402.21	1380.92
402.40	1460.49
402.59	1430.07
402.78	1385.60
402.97	1465.18
403.17	1509.65
403.36	1652.42
403.55	1526.03
403.74	1591.56
403.93	1526.03
404.13	1476.88
404.32	1556.46
404.51	1577.52
404.70	1558.80
404.89	1577.52
405.09	1732.00
405.28	1624.33
405.47	1561.14
405.66	1675.82
405.85	1750.72
406.05	1715.61
406.24	1661.78
406.43	1706.25
406.62	1802.21
406.81	1743.70
407.00	1762.42
407.20	1692.21
407.39	1748.38
407.58	1739.02
407.77	1842.00
407.96	1748.38
408.15	1856.04
408.34	1811.57
408.54	1872.43
408.73	1909.88
408.92	1856.04
409.11	1907.54
409.30	1919.24
409.49	1947.33
409.68	1959.03
409.87	1900.52
410.07	1996.48
410.26	1984.77
410.45	2090.10
410.64	2036.27
410.83	2015.20
411.02	2129.89
411.21	2228.19
411.40	2029.24
411.59	2211.81
411.78	2214.15
411.98	2146.27
412.17	2127.55
412.36	2218.83
412.55	2193.08
412.74	2319.47
412.93	2303.09
413.12	2176.70
413.31	2377.98
413.50	2324.15
413.69	2251.60
413.88	2370.96
414.07	2361.60
414.26	2450.54
414.45	2380.32
414.64	2389.69
414.83	2483.31
415.02	2450.54
415.22	2558.21
415.41	2612.04
415.60	2637.78
415.79	2579.27
415.98	2682.25
416.17	2696.30
416.36	2628.42
416.55	2640.12
416.74	2700.98
416.93	2752.47
417.12	2850.77
417.31	2911.63
417.50	2740.77
417.69	2726.72
417.88	2885.88
418.07	2895.24
418.26	2825.03
418.45	2970.14
418.64	2878.86
418.83	2979.50
419.02	2836.73
419.21	2967.80
419.39	3054.40
419.58	3021.63
419.77	3005.25
419.96	3136.32
420.15	3082.49
420.34	3103.55
420.53	3052.06
420.72	3094.19
420.91	3321.22
421.10	3307.18
421.29	3290.79
421.48	3089.51
421.67	3028.65
421.86	3187.81
422.05	3227.60
422.24	3129.30
422.43	3187.81
422.61	3265.05
422.80	3197.17
422.99	3377.39
423.18	3248.66
423.37	3361.01
423.56	3276.75
423.75	3304.84
423.94	3213.56
424.13	3159.72
424.32	3246.32
424.50	3187.81
424.69	3344.63
424.88	3417.18
425.07	3274.41
425.26	3302.50
425.45	3459.31
425.64	3321.22
425.83	3368.03
426.01	3353.99
426.20	3485.06
426.39	3396.12
426.58	3428.88
426.77	3499.10
426.96	3440.59
427.15	3414.84
427.33	3471.01
427.52	3466.33
427.71	3557.61
427.90	3538.89
428.09	3602.08
428.28	3590.38
428.46	3651.24
428.65	3674.64
428.84	3819.75
429.03	3630.17
429.22	3499.10
429.40	3667.62
429.59	3737.84
429.78	3590.38
429.97	3543.57
430.16	3583.36
430.34	3613.79
430.53	3747.20
430.72	3726.13
430.91	3735.50
431.10	3740.18
431.28	3838.48
431.47	3915.72
431.66	3857.20
431.85	3801.03
432.03	3852.52
432.22	4074.87
432.41	3985.93
432.60	3922.74
432.79	3988.27
432.97	4058.49
433.16	3962.53
433.35	3911.04
433.54	4049.13
433.72	4198.92
433.91	4011.68
434.10	4102.96
434.28	3922.74
434.47	4091.26
434.66	4210.62
434.85	4351.06
435.03	4177.86
435.22	4187.22
435.41	4285.52
435.59	4142.75
435.78	4346.37
435.97	4372.12
436.16	4322.97
436.34	4278.50
436.53	4280.84
436.72	4294.88
436.90	4348.72
437.09	4414.25
437.28	4325.31
437.46	4381.48
437.65	4582.77
437.84	4449.36
438.02	4414.25
438.21	4306.59
438.40	4416.59
438.58	4620.22
438.77	4655.33
438.96	4655.33
439.14	4695.11
439.33	4791.08
439.52	4634.26
439.70	4739.58
439.89	4898.74
440.08	4828.53
440.26	4894.06
440.45	4875.34
440.63	5001.72
440.82	4950.23
441.01	5022.79
441.19	5013.43
441.38	5071.94
441.57	5273.23
441.75	5104.71
441.94	5313.02
442.12	5233.44
442.31	5348.12
442.50	5390.25
442.68	5200.67
442.87	5317.70
443.05	5357.49
443.24	5537.71
443.43	5418.34
443.61	5390.25
443.80	5664.10
443.98	5256.84
444.17	5280.25
444.35	5526.00
444.54	5570.48
444.73	5465.15
444.91	5518.98
445.10	5568.13
445.28	5563.45
445.47	5490.90
445.65	5467.49
445.84	5699.20
446.02	5781.12
446.21	5617.29
446.39	5554.09
446.58	5544.73
446.77	5701.54
446.95	5394.93
447.14	5603.24
447.32	5664.10
447.51	5523.66
447.69	5444.09
447.88	5675.80
448.06	5692.18
448.25	5504.94
448.43	5783.46
448.62	5453.45
448.80	5547.07
448.99	5767.08
449.17	5633.67
449.36	5708.57
449.54	5748.36
449.73	5715.59
449.91	5874.74
450.10	5792.83
450.28	5994.11
450.46	5951.98
450.65	5982.41
450.83	6015.18
451.02	5891.13
451.20	6066.67
451.39	5909.85
451.57	5982.41
451.76	5926.24
451.94	5919.21
452.13	6104.12
452.31	6064.33
452.49	5909.85
452.68	6111.14
452.86	6303.06
453.05	6317.11
453.23	6263.27
453.42	6057.31
453.60	6143.91
453.78	6125.18
453.97	6282.00
454.15	6244.55
454.34	6129.86
454.52	6282.00
454.70	6298.38
454.89	6310.08
455.07	6401.37
455.26	6408.39
455.44	6401.37
455.62	6544.14
455.81	6586.27
455.99	6574.56
456.17	6504.35
456.36	6635.42
456.54	6722.02
456.73	6752.45
456.91	6974.80
457.09	6820.32
457.28	6923.30
457.46	6663.51
457.64	6700.95
457.83	7000.54
458.01	6766.49
458.19	6892.88
458.38	6794.58
458.56	6878.83
458.74	7002.88
458.93	6949.05
459.11	7225.23
459.29	6986.50
459.48	6986.50
459.66	6979.48
459.84	7180.76
460.03	7126.93
460.21	7108.21
460.39	6878.83
460.57	7215.87
460.76	7442.90
460.94	7206.51
461.12	7131.61
461.31	7133.95
461.49	7276.73
461.67	7222.89
461.85	7459.29
462.04	7269.70
462.22	7817.39
462.40	7543.55
462.59	7431.20
462.77	7503.76
462.95	7688.66
463.13	7503.76
463.32	7391.41
463.50	7798.66
463.68	7679.30
463.86	7782.28
464.05	7496.74
464.23	7822.07
464.41	7709.72
464.59	7611.42
464.78	7922.71
464.96	7836.11
465.14	7470.99
465.32	7751.85
465.50	7735.47
465.69	7911.01
465.87	7920.37
466.05	7896.97
466.23	7705.04
466.41	7971.86
466.60	8030.38
466.78	7915.69
466.96	7894.63
467.14	8079.53
467.32	7997.61
467.51	8154.43
467.69	7854.84
467.87	8084.21
468.05	8051.44
468.23	8168.47
468.41	8032.72
468.60	8063.15
468.78	8297.20
468.96	7999.95
469.14	8250.39
469.32	8376.78
469.50	8351.03
469.69	8332.31
469.87	8500.83
470.05	8545.30
470.23	8608.49
470.41	8409.54
470.59	8746.58
470.77	8681.05
470.95	8683.39
471.14	8578.06
471.32	8601.47
471.50	8711.47
471.68	8718.50
471.86	8704.45
472.04	8713.81
472.22	9228.73
472.40	8697.43
472.58	8793.39
472.77	9076.60
472.95	9062.55
473.13	9430.02
473.31	8966.59
473.49	9245.12
473.67	9090.64
473.85	9233.41
474.03	9408.95
474.21	9378.53
474.39	9357.46
474.57	9460.45
474.75	9685.14
474.93	9757.69
475.12	9465.13
475.30	9427.68
475.48	9507.26
475.66	9701.52
475.84	9741.31
476.02	9666.41
476.20	9919.19
476.38	9996.43
476.56	10195.37
476.74	10279.63
476.92	10211.76
477.10	10005.79
477.28	10359.21
477.46	10380.28
477.64	10384.96
477.82	10644.76
478.00	10864.77
478.18	10846.04
478.36	10757.10
478.54	10796.89
478.72	11115.20
478.90	11061.37
479.08	11293.08
479.26	11236.91
479.44	11171.38
479.62	11435.86
479.80	11648.85
479.98	11667.57
480.16	11964.82
480.34	11412.45
480.52	11889.92
480.70	11796.30
480.88	11569.27
481.06	12051.42
481.24	11978.86
481.41	12280.79
481.59	12489.10
481.77	12365.05
481.95	12402.50
482.13	12245.68
482.31	12549.95
482.49	13001.68
482.67	13020.40
482.85	12999.34
483.03	13088.28
483.21	13289.56
483.39	13453.40
483.57	13476.80
483.74	13451.06
483.92	13563.40
484.10	13558.72
484.28	13607.87
484.46	14104.07
484.64	14129.81
484.82	13923.85
485.00	14066.62
485.18	14312.38
485.35	15005.17
485.53	14633.03
485.71	14691.54
485.89	15197.10
486.07	14815.59
486.25	15169.01
486.43	14789.85
486.61	15002.83
486.78	15400.72
486.96	15426.47
487.14	15807.98
487.32	15602.01
487.50	15779.89
487.68	15695.63
487.85	15995.22
488.03	16276.09
488.21	16465.67
488.39	16482.05
488.57	16601.42
488.75	16643.55
488.92	16702.06
489.10	17085.91
489.28	16903.35
489.46	17163.15
489.64	17408.90
489.81	17493.16
489.99	17736.58
490.17	17813.82
490.35	17933.18
490.53	18064.25
490.70	18031.49
490.88	17790.41
491.06	18284.26
491.24	18246.82
491.41	18333.42
491.59	18572.15
491.77	18429.38
491.95	18883.44
492.13	18792.16
492.30	19042.60
492.48	19028.56
492.66	19089.41
492.84	19288.35
493.01	19728.38
493.19	19192.39
493.37	19555.18
493.54	19786.89
493.72	19840.72
493.90	20067.75
494.08	19791.57
494.25	20210.53
494.43	20198.82
494.61	20226.91
494.79	20477.35
494.96	20680.97
495.14	20610.76
495.32	20938.43
495.49	21046.10
495.67	21092.91
495.85	21312.92
496.02	21425.26
496.20	21535.27
496.38	21397.18
496.55	21762.30
496.73	21968.27
496.91	22199.98
497.09	21970.61
497.26	21898.05
497.44	22132.11
497.62	22359.14
497.79	22735.96
497.97	22560.42
498.14	22754.69
498.32	22808.52
498.50	22899.80
498.67	23498.98
498.85	23026.19
499.03	23157.26
499.20	23241.52
499.38	23672.18
499.56	23480.25
499.73	23728.35
499.91	23772.82
500.08	23981.13
500.26	23885.17
500.44	23999.85
500.61	24081.77
500.79	23917.93
500.97	24163.69
501.14	24643.50
501.32	24491.37
501.49	24264.33
501.67	24786.27
501.84	24821.38
502.02	24797.98
502.20	24662.22
502.37	24877.55
502.55	24950.11
502.72	25207.57
502.90	25116.29
503.07	24875.21
503.25	25172.46
503.43	25216.93
503.60	25453.33
503.78	25626.53
503.95	25329.28
504.13	25603.12
504.30	25872.28
504.48	25830.15
504.65	25783.34
504.83	26129.74
505.01	26267.83
505.18	26211.66
505.36	26431.67
505.53	26342.73
505.71	26244.43
505.88	27094.04
506.06	26150.81
506.23	26515.93
506.41	26445.71
506.58	26562.74
506.76	27005.10
506.93	26855.31
507.11	27197.02
507.28	27225.11
507.46	27227.45
507.63	27559.81
507.81	27278.94
507.98	27442.78
508.16	27164.26
508.33	27854.72
508.50	27566.83
508.68	27929.61
508.85	28339.21
509.03	27924.93
509.20	28191.75
509.38	28215.16
509.55	28254.95
509.73	28540.49
509.90	28411.76
510.08	28437.51
510.25	28493.68
510.42	28489.00
510.60	28570.92
510.77	28760.50
510.95	28980.51
511.12	29123.29
511.30	29027.32
511.47	28992.22
511.64	29083.50
511.82	29460.32
511.99	29479.05
512.17	29628.84
512.34	29413.51
512.51	29930.77
512.69	29598.41
512.86	29757.57
513.04	30169.51
513.21	29722.46
513.38	29654.59
513.56	30099.29
513.73	30239.72
513.90	30242.06
514.08	30331.00
514.25	30340.36
514.43	30239.72
514.60	30492.50
514.77	30904.43
514.95	31023.80
515.12	30670.38
515.29	30766.34
515.47	31297.64
515.64	31007.42
515.81	30558.03
515.99	31370.20
516.16	31178.28
516.33	31349.14
516.51	31449.78
516.68	30866.98
516.85	31152.53
517.03	31421.69
517.20	31578.51
517.37	31536.38
517.54	31789.16
517.72	31480.21
517.89	31842.99
518.06	32187.05
518.24	31906.18
518.41	31793.84
518.58	31871.07
518.75	32105.13
518.93	32531.11
519.10	32107.47
519.27	31978.74
519.45	32130.87
519.62	32498.34
519.79	32627.07
519.96	32652.81
520.14	33067.09
520.31	32641.11
520.48	32737.07
520.65	32776.86
520.83	33134.96
521.00	33364.34
521.17	33247.31
521.34	33549.24
521.52	33490.73
521.69	33621.80
521.86	33610.09
522.03	33472.00
522.20	33750.52
522.38	34204.59
522.55	33926.07
522.72	33706.05
522.89	33839.47
523.07	33841.81
523.24	34073.52
523.41	33965.85
523.58	34000.96
523.75	34548.65
523.92	34440.98
524.10	34433.96
524.27	34637.59
524.44	34593.12
524.61	34382.47
524.78	34586.10
524.96	34749.93
525.13	35012.07
525.30	34763.98
525.47	35033.14
525.64	35005.05
525.81	34972.28
525.98	35260.17
526.16	35131.44
526.33	34831.85
526.50	35349.11
526.67	35365.49
526.84	35180.59
527.01	34976.97
527.18	35356.13
527.36	35681.47
527.53	35346.77
527.70	35826.58
527.87	36142.55
528.04	35931.90
528.21	36020.84
528.38	36327.45
528.55	36006.80
528.72	35798.49
528.89	36535.76
529.07	35728.28
529.24	35728.28
529.41	36067.66
529.58	36058.29
529.75	36294.69
529.92	36421.08
530.09	36425.76
530.26	36088.72
530.43	36533.42
530.60	35917.86
530.77	36481.93
530.94	36690.24
531.11	36374.27
531.28	36828.33
531.46	36652.79
531.63	36842.37
531.80	36760.45
531.97	37401.76
532.14	36641.09
532.31	37289.42
532.48	37450.91
532.65	37467.30
532.82	37106.85
532.99	37296.44
533.16	37148.98
533.33	37668.58
533.50	37736.46
533.67	37619.43
533.84	37258.99
534.01	37799.65
534.18	37507.08
534.35	38115.62
534.52	37633.47
534.69	38539.26
534.86	37858.17
535.03	38029.02
535.20	37921.36
535.37	37858.17
535.54	38401.17
535.71	38071.15
535.88	37834.76
536.05	38143.71
536.22	38595.43
536.38	38057.11
536.55	38714.80
536.72	38639.90
536.89	38281.80
537.06	38579.05
537.23	38660.97
537.40	38483.09
537.57	38410.53
537.74	38136.69
537.91	38827.15
538.08	38417.55
538.25	38855.23
538.42	38913.75
538.59	38946.51
538.75	38955.88
538.92	39129.08
539.09	39304.62
539.26	39229.72
539.43	39089.29
539.60	39433.35
539.77	39498.88
539.94	39187.59
540.11	39278.87
540.28	39295.25
540.44	39615.91
540.61	39732.93
540.78	39292.91
540.95	39477.82
541.12	39508.24
541.29	39667.40
541.46	39805.49
541.62	39966.99
541.79	39569.10
541.96	39466.11
542.13	39480.16
542.30	39276.53
542.47	39882.73
542.63	40355.52
542.80	40023.16
542.97	40793.20
543.14	40472.54
543.31	40409.35
543.48	40444.46
543.64	41221.52
543.81	40432.75
543.98	40875.12
544.15	40683.19
544.32	40734.68
544.48	41099.81
544.65	41202.79
544.82	41277.69
544.99	40699.58
545.16	40964.06
545.32	40954.69
545.49	41287.05
545.66	41532.81
545.83	41055.34
546.00	41045.97
546.16	41249.60
546.33	40603.61
546.50	41038.95
546.67	40844.69
546.83	41148.96
547.00	41373.65
547.17	41081.08
547.34	41596.00
547.50	41762.18
547.67	41581.96
547.84	41581.96
548.00	41343.22
548.17	41748.14
548.34	41904.95
548.51	41853.46
548.67	41670.90
548.84	41603.02
549.01	42075.81
549.18	41752.82
549.34	42146.03
549.51	42087.51
549.68	42204.54
549.84	42047.72
550.01	42197.52
550.18	42089.85
550.34	41549.19
550.51	41954.10
550.68	42225.60
550.84	41703.67
551.01	42340.29
551.18	42218.58
551.34	42539.24
551.51	42321.57
551.68	42604.77
551.84	42370.72
552.01	42312.20
552.18	42609.45
552.34	42473.70
552.51	42855.21
552.68	42300.50
552.84	42424.55
553.01	43033.09
553.18	42979.26
553.34	42635.20
553.51	42391.78
553.67	42770.95
553.84	42808.40
554.01	43136.07
554.17	42817.76
554.34	42843.51
554.51	42639.88
554.67	42763.93
554.84	43166.50
555.00	42911.38
555.17	42939.47
555.33	42909.04
555.50	43082.24
555.67	43337.36
555.83	43107.99
556.00	43353.74
556.16	43667.37
556.33	43559.71
556.50	43342.04
556.66	43416.94
556.83	43330.34
556.99	43505.88
557.16	43761.00
557.32	43512.90
557.49	44179.95
557.65	43571.41
557.82	43655.67
557.98	44154.21
558.15	43466.09
558.32	43459.07
558.48	43739.93
558.65	43711.84
558.81	43793.76
558.98	43445.02
559.14	43756.32
559.31	43690.78
559.47	43704.82
559.64	43662.69
559.80	43681.42
559.97	43768.02
560.13	43346.72
560.30	43969.30
560.46	44095.69
560.63	44233.78
560.79	43938.88
560.96	44603.59
561.12	44093.35
561.29	44278.25
561.45	43959.94
561.61	44109.74
561.78	43969.30
561.94	43590.14
562.11	44168.25
562.27	44343.79
562.44	44474.86
562.60	44086.33
562.77	44268.89
562.93	44631.68
563.10	44547.42
563.26	44327.41
563.42	44673.81
563.59	44664.44
563.75	44238.47
563.92	44348.47
564.08	44395.28
564.24	44886.79
564.41	44055.90
564.57	44278.25
564.74	44357.83
564.90	44519.33
565.07	44495.92
565.23	44493.58
565.39	44851.69
565.56	44671.46
565.72	44793.17
565.88	44954.67
566.05	44357.83
566.21	44711.25
566.38	44549.76
566.54	44779.13
566.70	44652.74
566.87	44861.05
567.03	44641.04
567.19	45120.85
567.36	45041.27
567.52	44720.62
567.68	45022.54
567.85	45315.11
568.01	44966.37
568.17	44779.13
568.34	45022.54
568.50	45160.64
568.66	44575.50
568.83	44952.33
568.99	45099.78
569.15	44753.38
569.32	45076.38
569.48	44877.43
569.64	45818.33
569.81	45265.96
569.97	45242.56
570.13	45373.63
570.30	44671.46
570.46	45219.15
570.62	45404.05
570.78	44734.66
570.95	45099.78
571.11	45301.07
571.27	44559.12
571.43	45191.06
571.60	45071.70
571.76	44926.58
571.92	45282.34
572.09	45249.58
572.25	45097.44
572.41	44996.80
572.57	45148.93
572.74	45598.32
572.90	45319.79
573.06	45605.34
573.22	45422.78
573.38	45698.96
573.55	45544.48
573.71	45364.26
573.87	45425.12
574.03	45359.58
574.20	45801.94
574.36	45567.89
574.52	45432.14
574.68	45570.23
574.84	45556.19
575.01	45610.02
575.17	45565.55
575.33	45778.54
575.49	45757.47
575.65	45694.28
575.82	45790.24
575.98	45680.24
576.14	45399.37
576.30	46220.90
576.46	45455.54
576.62	45333.84
576.79	45474.27
576.95	45141.91
577.11	45289.37
577.27	45207.45
577.43	45703.64
577.59	45827.69
577.75	45420.44
577.92	45514.06
578.08	45549.17
578.24	45687.26
578.40	45928.33
578.56	45530.44
578.72	45434.48
578.88	45925.99
579.04	45483.63
579.21	45947.06
579.37	45659.17
579.53	45813.65
579.69	45565.55
579.85	45996.21
580.01	45591.30
580.17	45455.54
580.33	45677.90
580.49	45729.39
580.65	45640.45
580.82	45806.62
580.98	45457.88
581.14	45172.34
581.30	45586.61
581.46	45708.32
581.62	45940.04
581.78	45289.37
581.94	45720.02
582.10	45460.23
582.26	45729.39
582.42	45930.67
582.58	45546.82
582.74	46045.36
582.90	45621.72
583.06	45581.93
583.22	45914.29
583.38	45745.77
583.54	46443.25
583.70	45940.04
583.86	46080.47
584.02	45467.25
584.18	46305.16
584.34	46192.81
584.50	45808.96
584.66	46078.13
584.82	46033.66
584.98	45977.48
585.14	45893.22
585.30	45872.16
585.46	45876.84
585.62	46031.32
585.78	45944.72
585.94	45656.83
586.10	45717.68
586.26	45968.12
586.42	45661.51
586.58	45989.19
586.74	45584.27
586.90	45752.79
587.06	46003.23
587.22	45998.55
587.38	45705.98
587.54	46106.21
587.70	45956.42
587.86	46087.49
588.02	46309.84
588.18	45811.31
588.34	46117.92
588.49	46113.23
588.65	45729.39
588.81	46148.34
588.97	46014.93
589.13	46113.23
589.29	46164.73
589.45	46101.53
589.61	46260.69
589.77	46291.12
589.93	46237.28
590.08	45996.21
590.24	46471.34
590.40	46539.21
590.56	46321.54
590.72	46366.01
590.88	46452.61
591.04	46213.88
591.20	46373.03
591.35	46536.87
591.51	47075.19
591.67	46431.55
591.83	46398.78
591.99	45937.69
592.15	46529.85
592.31	46164.73
592.46	45986.85
592.62	46693.69
592.78	46452.61
592.94	46822.42
593.10	46499.42
593.26	46777.95
593.41	46735.82
593.57	46616.45
593.73	46621.13
593.89	47019.02
594.05	46902.00
594.20	46878.59
594.36	46581.34
594.52	46511.13
594.68	46703.05
594.84	46623.47
594.99	46724.11
595.15	46609.43
595.31	46677.30
595.47	46335.59
595.62	46916.04
595.78	46731.14
595.94	46738.16
596.10	46759.22
596.25	46597.73
596.41	46923.06
596.57	46410.48
596.73	46871.57
596.88	46824.76
597.04	46660.92
597.20	47229.67
597.36	46700.71
597.51	46529.85
597.67	46597.73
597.83	46625.81
597.99	46649.22
598.14	46728.80
598.30	46562.62
598.46	46185.79
598.61	46871.57
598.77	46916.04
598.93	46756.88
599.09	46635.17
599.24	47168.82
599.40	46691.35
599.56	46756.88
599.71	47152.43
599.87	47480.11
600.03	47381.80
600.18	46899.65
600.34	46834.12
600.50	47028.38
600.65	46810.71
600.81	46981.57
600.97	47002.64
601.12	46597.73
601.28	46511.13
601.44	46726.46
601.59	46698.37
601.75	46684.33
601.91	47468.40
602.06	46698.37
602.22	47194.56
602.37	46960.51
602.53	47077.54
602.69	47065.83
602.84	46541.55
603.00	46651.56
603.16	46852.84
603.31	46614.11
603.47	47208.61
603.62	47098.60
603.78	46777.95
603.94	46906.68
604.09	46878.59
604.25	46742.84
604.40	47112.64
604.56	46843.48
604.71	47215.63
604.87	46562.62
605.03	46696.03
605.18	46995.62
605.34	46894.97
605.49	46848.16
605.65	46997.96
605.80	46782.63
605.96	46541.55
606.12	46803.69
606.27	46951.15
606.43	46885.61
606.58	46773.27
606.74	47037.75
606.89	46667.94
607.05	47356.06
607.20	47192.22
607.36	46735.82
607.51	46906.68
607.67	46454.95
607.82	46745.18
607.98	46962.85
608.13	46679.64
608.29	46609.43
608.44	46850.50
608.60	47014.34
608.75	46691.35
608.91	46499.42
609.06	46110.89
609.22	46564.96
609.37	46749.86
609.53	46639.86
609.68	46564.96
609.84	46775.61
609.99	46581.34
610.15	46298.14
610.30	46735.82
610.46	46445.59
610.61	46579.00
610.76	46672.62
610.92	46335.59
611.07	46197.49
611.23	46454.95
611.38	46408.14
611.54	46909.02
611.69	46354.31
611.84	46541.55
612.00	46188.13
612.15	46279.41
612.31	46227.92
612.46	45897.91
612.62	46017.27
612.77	46103.87
612.92	46831.78
613.08	46045.36
613.23	46461.97
613.39	46136.64
613.54	45982.16
613.69	46354.31
613.85	46478.36
614.00	45972.80
614.15	45907.27
614.31	45965.78
614.46	45876.84
614.62	46043.02
614.77	45918.97
614.92	46358.99
615.08	46176.43
615.23	46504.10
615.38	46342.61
615.54	45804.28
615.69	45937.69
615.84	46024.29
616.00	46396.44
616.15	45701.30
616.30	46211.54
616.46	45680.24
616.61	45949.40
616.76	46047.70
616.92	45759.81
617.07	46351.97
617.22	45455.54
617.37	45687.26
617.53	46141.32
617.68	45689.60
617.83	45610.02
617.99	45790.24
618.14	46150.68
618.29	45797.26
618.45	45415.76
618.60	45635.77
618.75	45345.54
618.90	44999.14
619.06	45553.85
619.21	45579.59
619.36	45780.88
619.51	45848.75
619.67	45467.25
619.82	45876.84
619.97	45897.91
620.12	45443.84
620.28	45521.08
620.43	45694.28
620.58	45453.20
620.73	45900.25
620.89	45263.62
621.04	45354.90
621.19	45450.86
621.34	45287.03
621.49	45254.26
621.65	45303.41
621.80	45343.20
621.95	45464.91
622.10	45518.74
622.25	44959.35
622.41	44933.60
622.56	45193.40
622.71	45179.36
622.86	45289.37
623.01	44992.12
623.16	44961.69
623.32	45537.46
623.47	44729.98
623.62	44952.33
623.77	45188.72
623.92	45221.49
624.07	45308.09
624.23	44898.50
624.38	44556.78
624.53	44847.00
624.68	44690.19
624.83	45090.42
624.98	44882.11
625.13	44568.48
625.29	44610.61
625.44	44687.85
625.59	44449.11
625.74	44788.49
625.89	44786.15
626.04	44428.05
626.19	44720.62
626.34	44552.10
626.49	44208.04
626.65	44406.98
626.80	44177.61
626.95	44470.18
627.10	44641.04
627.25	44332.09
627.40	44271.23
627.55	44615.29
627.70	44289.96
627.85	44659.76
628.00	44615.29
628.15	44226.76
628.30	43674.40
628.45	44027.82
628.60	43831.21
628.76	44051.22
628.91	44374.22
629.06	43344.38
629.21	43962.28
629.36	43601.84
629.51	43913.13
629.66	43927.17
629.81	43976.33
629.96	44294.64
630.11	44013.77
630.26	43824.19
630.41	43875.68
630.56	43590.14
630.71	43475.45
630.86	43496.52
631.01	43416.94
631.16	43669.72
631.31	43728.23
631.46	44165.91
631.61	44306.34
631.76	43981.01
631.91	43782.06
632.06	43943.56
632.21	44126.12
632.36	43983.35
632.51	43576.09
632.66	43821.85
632.81	43239.06
632.96	43470.77
633.10	43374.81
633.25	43845.26
633.40	43454.39
633.55	43576.09
633.70	43739.93
633.85	43571.41
634.00	43084.58
634.15	43243.74
634.30	43426.30
634.45	42965.21
634.60	43412.26
634.75	43325.66
634.90	43241.40
635.05	43192.25
635.19	43594.82
635.34	43154.80
635.49	42768.61
635.64	42974.58
635.79	43374.81
635.94	43023.73
636.09	43435.66
636.24	43091.60
636.39	42909.04
636.53	43332.68
636.68	42869.25
636.83	42639.88
636.98	42508.81
637.13	42438.59
637.28	42756.91
637.43	42852.87
637.57	42700.73
637.72	42230.29
637.87	42714.78
638.02	42698.39
638.17	42618.81
638.32	42169.43
638.46	42141.35
638.61	41975.17
638.76	42160.07
638.91	42206.88
639.06	42291.14
639.20	42415.19
639.35	42384.76
639.50	41982.19
639.65	42539.24
639.80	42614.13
639.94	42291.14
640.09	42391.78
640.24	42190.50
640.39	42036.02
640.54	41785.58
640.68	42440.93
640.83	42759.25
640.98	41986.87
641.13	41783.24
641.27	42595.41
641.42	42110.92
641.57	42014.96
641.72	42021.98
641.86	42054.75
642.01	42026.66
642.16	41698.98
642.31	41769.20
642.45	42054.75
642.60	41521.10
642.75	41684.94
642.90	42150.71
643.04	41663.88
643.19	41497.70
643.34	42024.32
643.48	41839.42
643.63	41375.99
643.78	41530.47
643.93	41982.19
644.07	41422.80
644.22	41797.29
644.37	41167.68
644.51	41675.58
644.66	41631.11
644.81	41565.57
644.95	41373.65
645.10	41488.34
645.25	41085.76
645.39	41476.63
645.54	41504.72
645.69	41188.75
645.83	41008.53
645.98	41254.28
646.13	41273.01
646.27	41146.62
646.42	41237.90
646.57	40711.28
646.71	41298.75
646.86	41200.45
647.00	41074.06
647.15	41392.37
647.30	41223.86
647.44	41184.07
647.59	41001.50
647.74	40612.98
647.88	41158.32
648.03	41111.51
648.17	40762.77
648.32	41053.00
648.47	41448.55
648.61	41296.41
648.76	40886.82
648.90	40917.25
649.05	40837.67
649.20	41036.61
649.34	41008.53
649.49	40872.78
649.63	41001.50
649.78	41308.11
649.92	40734.68
650.07	41397.06
650.21	41209.81
650.36	40858.73
650.51	40992.14
650.65	41003.85
650.80	40891.50
650.94	40547.44
651.09	40823.62
651.23	40222.11
651.38	40343.81
651.52	40123.80
651.67	40444.46
651.81	40556.80
651.96	40252.53
652.10	40334.45
652.25	40517.01
652.39	40306.37
652.54	40280.62
652.68	40053.59
652.83	40217.43
652.97	40484.25
653.12	40385.94
653.26	40006.78
653.41	40245.51
653.55	40144.87
653.70	40252.53
653.84	40491.27
653.99	40634.04
654.13	40219.77
654.27	39793.79
654.42	40423.39
654.56	39695.49
654.71	40088.70
654.85	40432.75
655.00	40037.20
655.14	39653.36
655.29	39770.38
655.43	40339.13
655.57	39730.59
655.72	39770.38
655.86	39487.18
656.01	39370.15
656.15	39744.64
656.30	39419.30
656.44	39660.38
656.58	39817.19
656.73	39566.76
656.87	39438.03
657.01	39262.49
657.16	39667.40
657.30	39557.39
657.45	39732.93
657.59	39136.10
657.73	39508.24
657.88	39358.45
658.02	39667.40
658.16	39615.91
658.31	38897.36
658.45	39440.37
658.60	39505.90
658.74	39487.18
658.88	39421.64
659.03	38827.15
659.17	39269.51
659.31	38909.07
659.46	38852.89
659.60	38824.81
659.74	38871.62
659.89	38632.88
660.03	38373.08
660.17	38527.56
660.32	38829.49
660.46	38838.85
660.60	38089.88
660.74	38565.01
660.89	38391.81
661.03	38326.27
661.17	38253.72
661.32	37897.95
661.46	38670.33
661.60	38499.47
661.74	38197.54
661.89	38192.86
662.03	38071.15
662.17	37984.55
662.31	37780.93
662.46	38536.92
662.60	37902.64
662.74	37869.87
662.88	37724.75
663.03	37392.40
663.17	37036.64
663.31	37352.61
663.45	37610.07
663.60	38036.05
663.74	37689.65
663.88	37523.47
664.02	37668.58
664.17	37874.55
664.31	37605.39
664.45	36989.83
664.59	37586.66
664.73	37184.09
664.88	36837.69
665.02	36931.31
665.16	36706.62
665.30	36959.40
665.44	36954.72
665.59	36568.53
665.73	37006.21
665.87	36011.48
666.01	36718.32
666.15	36507.68
666.29	36584.91
666.44	36542.78
666.58	36795.56
666.72	36411.71
666.86	36411.71
667.00	36201.07
667.14	36353.20
667.28	36774.50
667.43	35747.00
667.57	36137.87
667.71	36182.34
667.85	36439.80
667.99	36208.09
668.13	36271.28
668.27	35524.65
668.41	35697.85
668.56	35316.34
668.70	35526.99
668.84	35407.62
668.98	35667.42
669.12	35456.78
669.26	35461.46
669.40	35164.21
669.54	35150.17
669.68	35084.63
669.82	35674.45
669.96	34953.56
670.10	34352.04
670.25	34639.93
670.39	34759.30
670.53	34960.58
670.67	34927.81
670.81	34871.64
670.95	34810.79
671.09	34691.42
671.23	34778.02
671.37	34616.52
671.51	34326.30
671.65	34705.46
671.79	34424.60
671.93	34338.00
672.07	34375.45
672.21	34457.37
672.35	33703.71
672.49	33928.41
672.63	33759.89
672.77	33778.61
672.91	33993.94
673.05	33722.44
673.19	33483.70
673.33	33689.67
673.47	33336.25
673.61	33270.72
673.75	33092.83
673.89	33621.80
674.03	32718.35
674.17	32891.55
674.31	32732.39
674.45	32666.86
674.59	32847.08
674.73	32741.75
674.87	32545.15
675.01	32297.05
675.15	32030.23
675.29	31751.71
675.43	31688.51
675.56	32194.07
675.70	32505.36
675.84	32084.06
675.98	31178.28
676.12	32116.83
676.26	31864.05
676.40	31655.75
676.54	31534.04
676.68	31360.84
676.82	31040.18
676.96	31414.67
677.10	31562.12
677.23	31264.88
677.37	31351.48
677.51	31253.17
677.65	30817.83
677.79	30848.26
677.93	30756.98
678.07	31117.42
678.21	30452.71
678.34	30368.45
678.48	29898.00
678.62	29984.60
678.76	30106.31
678.90	30150.78
679.04	30284.19
679.18	30466.75
679.31	29511.81
679.45	29727.14
679.59	29350.32
679.73	29373.72
679.87	29371.38
680.00	29170.10
680.14	29109.24
680.28	29397.13
680.42	29106.90
680.56	29233.29
680.70	29008.60
680.83	28720.71
680.97	28542.83
681.11	28889.23
681.25	28343.89
681.39	28570.92
681.52	28498.36
681.66	27899.19
681.80	27896.85
681.94	27555.13
682.07	27513.00
682.21	27929.61
682.35	27903.87
682.49	27859.40
682.62	27676.83
682.76	27461.51
682.90	27747.05
683.04	27381.93
683.17	27639.39
683.31	26979.36
683.45	27070.64
683.59	26607.21
683.72	26829.56
683.86	26691.47
684.00	26600.19
684.13	26635.30
684.27	26242.09
684.41	26366.13
684.55	26129.74
684.68	26218.68
684.82	25912.07
684.96	25596.10
685.09	25975.27
685.23	25891.01
685.37	26195.28
685.50	26078.25
685.64	25741.21
685.78	25722.49
685.91	25310.55
686.05	25247.36
686.19	24659.88
686.32	24889.26
686.46	24643.50
686.60	24327.53
686.73	24648.18
686.87	24746.48
687.01	24910.32
687.14	24751.17
687.28	24467.96
687.42	24320.51
687.55	24720.74
687.69	23990.49
687.82	23894.53
687.96	24418.81
688.10	23728.35
688.23	23506.00
688.37	24074.75
688.50	23927.30
688.64	23697.92
688.78	23468.55
688.91	23466.21
689.05	23328.12
689.18	23070.66
689.32	22787.46
689.46	22794.48
689.59	22810.86
689.73	23028.53
689.86	23037.89
690.00	22766.39
690.13	22972.36
690.27	22710.22
690.41	22464.46
690.54	22153.17
690.68	22134.45
690.81	22288.92
690.95	22050.19
691.08	21785.71
691.22	21593.78
691.35	21490.80
691.49	21881.67
691.62	21979.97
691.76	21378.45
691.89	21317.60
692.03	21106.95
692.16	21238.02
692.30	20877.58
692.43	20751.19
692.57	20863.54
692.70	20615.44
692.84	20772.25
692.97	20542.88
693.11	20503.09
693.24	20416.49
693.38	20262.02
693.51	20297.13
693.65	20109.88
693.78	20229.25
693.92	20034.99
694.05	19964.77
694.19	19669.86
694.32	19740.08
694.45	20238.61
694.59	19707.31
694.72	20095.84
694.86	19681.56
694.99	19398.36
695.13	19316.44
695.26	19164.31
695.39	18820.25
695.53	18988.77
695.66	18867.06
695.80	18946.64
695.93	18841.31
696.07	18726.63
696.20	18242.14
696.33	18246.82
696.47	18658.75
696.60	18459.81
696.73	18448.10
696.87	18640.03
697.00	18281.92
697.14	17895.74
697.27	18061.91
697.40	17848.93
697.54	18005.74
697.67	17687.43
697.80	17455.72
697.94	17439.33
698.07	17776.37
698.21	17228.68
698.34	17350.39
698.47	17207.62
698.61	16842.50
698.74	16837.81
698.87	17132.72
699.01	16671.64
699.14	16837.81
699.27	16659.93
699.40	16816.75
699.54	16402.47
699.67	16531.20
699.80	16250.34
699.94	16411.84
700.07	16180.12
700.20	16273.74
700.34	16159.06
700.47	16044.37
700.60	16116.93
700.73	16011.60
700.87	15910.96
701.00	15887.56
701.13	15482.64
701.26	15435.83
701.40	15316.47
701.53	15302.42
701.66	15267.31
701.79	15300.08
701.93	15105.82
702.06	15061.35
702.19	14796.87
702.32	15033.26
702.46	14902.19
702.59	14848.36
702.72	14991.13
702.85	14944.32
702.99	14850.70
703.12	14532.39
703.25	14630.69
703.38	14457.49
703.51	14469.19
703.65	14410.68
703.78	14005.77
703.91	13961.30
704.04	13785.76
704.17	14176.62
704.31	13886.40
704.44	13769.37
704.57	13626.60
704.70	13748.31
704.83	13652.34
704.96	13411.27
705.10	13364.46
705.23	13530.64
>>>>>End Processed Spectral Data<<<<<
