SpectraSuite Data File
++++++++++++++++++++++++++++++++++++
Date: Fri Oct 25 10:47:01 EDT 2013
User: price-jones
Dark Spectrum Present: No
Reference Spectrum Present: No
Number of Sampled Component Spectra: 1
Spectrometers: USB2+H05261
Integration Time (usec): 100000 (USB2+H05261)
Spectra Averaged: 1 (USB2+H05261)
Boxcar Smoothing: 0 (USB2+H05261)
Correct for Electrical Dark: No (USB2+H05261)
Strobe/Lamp Enabled: No (USB2+H05261)
Correct for Detector Non-linearity: No (USB2+H05261)
Correct for Stray Light: No (USB2+H05261)
Number of Pixels in Processed Spectrum: 2048
>>>>>Begin Processed Spectral Data<<<<<
365.73	168.52
365.92	168.52
366.12	168.52
366.32	93.62
366.52	91.28
366.72	53.83
366.91	93.62
367.11	0.00
367.31	44.47
367.51	77.24
367.70	39.79
367.90	86.60
368.10	16.38
368.30	67.88
368.49	56.17
368.69	58.51
368.89	67.88
369.09	67.88
369.28	21.06
369.48	53.83
369.68	156.82
369.87	147.45
370.07	107.66
370.27	138.09
370.47	166.18
370.66	470.45
370.86	425.98
371.06	477.47
371.25	496.19
371.45	437.68
371.65	374.49
371.84	428.32
372.04	496.19
372.24	526.62
372.44	472.79
372.63	470.45
372.83	557.05
373.03	484.49
373.22	430.66
373.42	585.13
373.62	486.83
373.81	596.84
374.01	580.45
374.21	585.13
374.40	528.96
374.60	596.84
374.79	596.84
374.99	552.37
375.19	613.22
375.38	580.45
375.58	599.18
375.78	622.58
375.97	617.90
376.17	575.77
376.37	634.29
376.56	653.01
376.76	603.86
376.95	608.54
377.15	587.47
377.35	631.94
377.54	617.90
377.74	557.05
377.93	601.52
378.13	557.05
378.33	566.41
378.52	559.39
378.72	622.58
378.91	678.76
379.11	624.92
379.31	660.03
379.50	617.90
379.70	748.97
379.89	695.14
380.09	753.65
380.28	599.18
380.48	690.46
380.68	667.05
380.87	613.22
381.07	622.58
381.26	674.07
381.46	678.76
381.65	702.16
381.85	662.37
382.04	645.99
382.24	748.97
382.43	678.76
382.63	643.65
382.83	690.46
383.02	751.31
383.22	723.23
383.41	727.91
383.61	655.35
383.80	795.78
384.00	748.97
384.19	751.31
384.39	837.91
384.58	737.27
384.78	795.78
384.97	823.87
385.17	819.19
385.36	800.46
385.56	805.14
385.75	702.16
385.95	774.72
386.14	821.53
386.34	793.44
386.53	833.23
386.72	725.57
386.92	840.25
387.11	807.48
387.31	891.74
387.50	800.46
387.70	898.77
387.89	835.57
388.09	905.79
388.28	821.53
388.48	870.68
388.67	910.47
388.86	870.68
389.06	938.55
389.25	847.27
389.45	915.15
389.64	968.98
389.84	997.07
390.03	971.32
390.22	866.00
390.42	964.30
390.61	922.17
390.81	915.15
391.00	978.34
391.19	1062.60
391.39	992.39
391.58	1018.13
391.78	1053.24
391.97	961.96
392.16	1057.92
392.36	1076.65
392.55	1090.69
392.75	971.32
392.94	999.41
393.13	1055.58
393.33	947.92
393.52	943.24
393.71	1090.69
393.91	978.34
394.10	1081.33
394.29	1055.58
394.49	1090.69
394.68	1116.44
394.88	1116.44
395.07	1200.69
395.26	1151.54
395.46	1121.12
395.65	1121.12
395.84	1186.65
396.04	1273.25
396.23	1114.10
396.42	1050.90
396.62	1207.72
396.81	1123.46
397.00	1181.97
397.19	1188.99
397.39	1242.82
397.58	1291.98
397.77	1287.29
397.97	1287.29
398.16	1380.92
398.35	1334.11
398.55	1303.68
398.74	1357.51
398.93	1385.60
399.12	1331.76
399.32	1394.96
399.51	1420.71
399.70	1511.99
399.90	1385.60
400.09	1519.01
400.28	1444.11
400.47	1507.30
400.67	1565.82
400.86	1439.43
401.05	1586.88
401.24	1598.59
401.44	1640.72
401.63	1561.14
401.82	1561.14
402.01	1547.09
402.21	1507.30
402.40	1549.43
402.59	1572.84
402.78	1607.95
402.97	1671.14
403.17	1598.59
403.36	1713.27
403.55	1619.65
403.74	1689.87
403.93	1638.38
404.13	1816.26
404.32	1827.96
404.51	1762.42
404.70	1832.64
404.89	1727.32
405.09	1898.17
405.28	1813.92
405.47	1795.19
405.66	1891.15
405.85	1874.77
406.05	1870.09
406.24	1844.34
406.43	1865.41
406.62	1937.96
406.81	1919.24
407.00	2005.84
407.20	1872.43
407.39	1916.90
407.58	1933.28
407.77	2008.18
407.96	2003.50
408.15	1996.48
408.34	1949.67
408.54	2057.33
408.73	2090.10
408.92	2087.76
409.11	2054.99
409.30	2129.89
409.49	2129.89
409.68	2202.44
409.87	2097.12
410.07	2083.08
410.26	2132.23
410.45	2214.15
410.64	2228.19
410.83	2214.15
411.02	2354.58
411.21	2319.47
411.40	2291.38
411.59	2349.90
411.78	2399.05
411.98	2319.47
412.17	2436.50
412.36	2464.58
412.55	2466.92
412.74	2567.57
412.93	2520.76
413.12	2466.92
413.31	2644.81
413.50	2593.31
413.69	2670.55
413.88	2700.98
414.07	2766.51
414.26	2717.36
414.45	2663.53
414.64	2874.18
414.83	2825.03
415.02	2827.37
415.22	2944.39
415.41	2782.90
415.60	2928.01
415.79	2928.01
415.98	3070.78
416.17	2984.18
416.36	2923.33
416.55	2977.16
416.74	3119.93
416.93	3012.27
417.12	3087.17
417.31	3119.93
417.50	3112.91
417.69	3466.33
417.88	3208.87
418.07	3133.98
418.26	3269.73
418.45	3339.94
418.64	3370.37
418.83	3487.40
419.02	3255.69
419.21	3279.09
419.39	3330.58
419.58	3290.79
419.77	3316.54
419.96	3335.26
420.15	3414.84
420.34	3407.82
420.53	3337.60
420.72	3482.72
420.91	3459.31
421.10	3555.27
421.29	3578.68
421.48	3461.65
421.67	3674.64
421.86	3627.83
422.05	3618.47
422.24	3463.99
422.43	3564.64
422.61	3555.27
422.80	3552.93
422.99	3632.51
423.18	3723.79
423.37	3758.90
423.56	3698.05
423.75	3632.51
423.94	3641.87
424.13	3262.71
424.32	3566.98
424.50	3719.11
424.69	3756.56
424.88	3702.73
425.07	3721.45
425.26	3620.81
425.45	3730.81
425.64	3749.54
425.83	3674.64
426.01	3756.56
426.20	3801.03
426.39	3742.52
426.58	3616.13
426.77	3796.35
426.96	3896.99
427.15	3803.37
427.33	3810.39
427.52	3875.93
427.71	3899.33
427.90	3812.73
428.09	3967.21
428.28	3946.14
428.46	3920.40
428.65	3936.78
428.84	3934.44
429.03	3974.23
429.22	3779.97
429.40	3936.78
429.59	3911.04
429.78	3812.73
429.97	3719.11
430.16	3880.61
430.34	3953.16
430.53	3960.19
430.72	4021.04
430.91	3948.48
431.10	3969.55
431.28	4311.27
431.47	4212.96
431.66	4236.37
431.85	4208.28
432.03	4266.80
432.22	4404.89
432.41	4337.01
432.60	4386.16
432.79	4477.44
432.97	4463.40
433.16	4423.61
433.35	4374.46
433.54	4421.27
433.72	4315.95
433.91	4367.44
434.10	4510.21
434.28	4524.26
434.47	4505.53
434.66	4713.84
434.85	4638.94
435.03	4643.62
435.22	4615.54
435.41	4770.01
435.59	4744.27
435.78	4777.03
435.97	4652.98
436.16	4835.55
436.34	4894.06
436.53	4760.65
436.72	4990.02
436.90	4816.82
437.09	4793.42
437.28	4718.52
437.46	4929.17
437.65	4910.44
437.84	4812.14
438.02	4774.69
438.21	4882.36
438.40	4875.34
438.58	5146.84
438.77	5200.67
438.96	5039.17
439.14	5163.22
439.33	5348.12
439.52	5355.15
439.70	5135.14
439.89	5334.08
440.08	5359.83
440.26	5413.66
440.45	5430.04
440.63	5488.56
440.82	5425.36
441.01	5523.66
441.19	5638.35
441.38	5706.23
441.57	5741.33
441.75	5841.98
441.94	5809.21
442.12	5809.21
442.31	5951.98
442.50	5682.82
442.68	5799.85
442.87	6003.47
443.05	5872.40
443.24	5951.98
443.43	6087.73
443.61	6087.73
443.80	6094.76
443.98	5935.60
444.17	5675.80
444.35	6108.80
444.54	6052.63
444.73	6136.88
444.91	6059.65
445.10	5944.96
445.28	6085.39
445.47	6171.99
445.65	5940.28
445.84	6155.61
446.02	6289.02
446.21	6120.50
446.39	6197.74
446.58	6324.13
446.77	6164.97
446.95	6167.31
447.14	6300.72
447.32	6251.57
447.51	6200.08
447.69	6230.51
447.88	6377.96
448.06	6153.27
448.25	6307.74
448.43	6260.93
448.62	6347.53
448.80	6267.95
448.99	6356.90
449.17	6530.09
449.36	6319.45
449.54	6532.44
449.73	6633.08
449.91	6532.44
450.10	6670.53
450.28	6703.29
450.46	6766.49
450.65	6733.72
450.83	6506.69
451.02	6516.05
451.20	6663.51
451.39	6848.41
451.57	6635.42
451.76	6799.26
451.94	6658.82
452.13	6745.42
452.31	6712.66
452.49	6757.13
452.68	6656.48
452.86	6691.59
453.05	6813.30
453.23	6799.26
453.42	6729.04
453.60	6761.81
453.78	6939.69
453.97	6916.28
454.15	6885.86
454.34	6995.86
454.52	7091.82
454.70	7122.25
454.89	7143.32
455.07	7204.17
455.26	7140.97
455.44	7211.19
455.62	7122.25
455.81	7225.23
455.99	7431.20
456.17	7323.54
456.36	7337.58
456.54	7442.90
456.73	7480.35
456.91	7534.18
457.09	7583.34
457.28	7922.71
457.46	7449.93
457.64	7485.03
457.83	7630.15
458.01	7431.20
458.19	7674.62
458.38	7468.65
458.56	7599.72
458.74	7686.32
458.93	7859.52
459.11	7775.26
459.29	7833.77
459.48	7730.79
459.66	7520.14
459.84	7655.89
460.03	7953.14
460.21	8159.11
460.39	8093.57
460.57	8006.97
460.76	7824.41
460.94	7976.55
461.12	8114.64
461.31	8063.15
461.49	8006.97
461.67	7981.23
461.85	8311.24
462.04	8145.06
462.22	8753.60
462.40	8259.75
462.59	8318.26
462.77	8374.44
462.95	8521.89
463.13	8463.38
463.32	8353.37
463.50	8449.33
463.68	8493.80
463.86	8276.13
464.05	8423.59
464.23	8386.14
464.41	8657.64
464.59	8292.52
464.78	8807.44
464.96	8718.50
465.14	8393.16
465.32	8517.21
465.50	8671.68
465.69	8730.20
465.87	8903.40
466.05	8603.81
466.23	8571.04
466.41	8753.60
466.60	8844.88
466.78	8580.40
466.96	8655.30
467.14	8802.75
467.32	8882.33
467.51	8898.72
467.69	8617.85
467.87	8748.92
468.05	8938.51
468.23	8779.35
468.41	8861.27
468.60	9034.47
468.78	9245.12
468.96	8954.89
469.14	9100.00
469.32	9067.24
469.50	8992.34
469.69	9193.62
469.87	9228.73
470.05	9369.16
470.23	9088.30
470.41	9266.18
470.59	9453.42
470.77	9376.19
470.95	9331.72
471.14	9678.12
471.32	9322.35
471.50	9671.09
471.68	9530.66
471.86	9558.75
472.04	9628.96
472.22	9919.19
472.40	9614.92
472.58	10033.88
472.77	9823.23
472.95	9863.02
473.13	10214.10
473.31	9998.77
473.49	9760.03
473.67	10188.35
473.85	10143.88
474.03	10148.56
474.21	10391.98
474.39	10317.08
474.57	10321.76
474.75	10448.15
474.93	10462.19
475.12	10431.77
475.30	10654.12
475.48	10359.21
475.66	10626.03
475.84	10771.15
476.02	10853.06
476.20	10803.91
476.38	10902.22
476.56	11227.55
476.74	11281.38
476.92	10899.87
477.10	11157.33
477.28	11421.81
477.46	11265.00
477.64	11506.07
477.82	11548.20
478.00	11885.24
478.18	11716.72
478.36	11885.24
478.54	12114.61
478.72	11892.26
478.90	12262.07
479.08	12248.02
479.26	12327.60
479.44	12461.01
479.62	12545.27
479.80	12596.76
479.98	12580.38
480.16	12947.84
480.34	12678.68
480.52	12842.52
480.70	13104.66
480.88	12931.46
481.06	12952.52
481.24	13062.53
481.41	13486.17
481.59	13493.19
481.77	13453.40
481.95	13650.00
482.13	13661.71
482.31	13338.71
482.49	13930.87
482.67	14127.47
482.85	14195.35
483.03	14260.88
483.21	14431.74
483.39	14642.39
483.57	14377.91
483.74	14864.74
483.92	14941.98
484.10	14750.06
484.28	14780.48
484.46	15344.55
484.64	15161.99
484.82	14972.41
485.00	15220.50
485.18	15573.92
485.35	15714.36
485.53	15475.62
485.71	15459.24
485.89	15822.02
486.07	15449.88
486.25	15999.90
486.43	16093.52
486.61	16301.83
486.78	16556.95
486.96	16257.36
487.14	16739.51
487.32	16683.34
487.50	17128.04
487.68	17060.16
487.85	17231.02
488.03	17376.14
488.21	17631.26
488.39	17563.38
488.57	17565.72
488.75	17668.70
488.92	18183.62
489.10	18225.75
489.28	18401.29
489.46	18876.42
489.64	18801.52
489.81	18829.61
489.99	18913.87
490.17	19176.01
490.35	19225.16
490.53	19110.47
490.70	19583.26
490.88	19447.51
491.06	19728.38
491.24	19793.91
491.41	19566.88
491.59	19658.16
491.77	19800.93
491.95	20020.94
492.13	20327.55
492.30	20336.91
492.48	20287.76
492.66	20800.34
492.84	20786.30
493.01	21216.96
493.19	20805.02
493.37	21254.40
493.54	21177.17
493.72	21488.46
493.90	21336.32
494.08	21788.05
494.25	21884.01
494.43	21886.35
494.61	22288.92
494.79	22171.89
494.96	22216.36
495.14	21994.01
495.32	22576.81
495.49	22443.40
495.67	22649.36
495.85	22597.87
496.02	22993.42
496.20	22944.27
496.38	23009.81
496.55	23264.92
496.73	24086.45
496.91	23517.70
497.09	23756.44
497.26	24023.26
497.44	23758.78
497.62	23913.25
497.79	23960.06
497.97	23857.08
498.14	24498.39
498.32	24278.38
498.50	24570.94
498.67	24577.97
498.85	24816.70
499.03	24786.27
499.20	25193.53
499.38	25163.10
499.56	24922.02
499.73	25153.74
499.91	25553.97
500.08	25277.79
500.26	25113.95
500.44	25504.82
500.61	25542.27
500.79	25441.62
500.97	25799.73
501.14	25982.29
501.32	25933.14
501.49	26218.68
501.67	25883.98
501.84	26192.94
502.02	26150.81
502.20	26539.33
502.37	26768.71
502.55	26649.34
502.72	26679.77
502.90	26838.92
503.07	26499.55
503.25	27002.76
503.43	26691.47
503.60	27239.15
503.78	26993.40
503.95	26937.23
504.13	27337.46
504.30	27122.13
504.48	27115.11
504.65	27300.01
504.83	27531.72
505.01	27924.93
505.18	27555.13
505.36	28060.68
505.53	27847.69
505.71	28299.42
505.88	28432.83
506.06	28133.24
506.23	28166.01
506.41	28056.00
506.58	27964.72
506.76	28814.34
506.93	28645.82
507.11	28332.18
507.28	28739.44
507.46	28709.01
507.63	28809.65
507.81	28678.58
507.98	28631.77
508.16	29083.50
508.33	29362.02
508.50	29448.62
508.68	29373.72
508.85	29965.88
509.03	29504.79
509.20	29465.00
509.38	30115.67
509.55	30054.82
509.73	29783.32
509.90	29773.95
510.08	30242.06
510.25	29996.31
510.42	30501.86
510.60	30176.53
510.77	30448.03
510.95	30714.85
511.12	30370.79
511.30	30806.13
511.47	31122.10
511.64	30834.22
511.82	31250.83
511.99	30654.00
512.17	31173.60
512.34	30948.90
512.51	31094.02
512.69	31618.30
512.86	31461.48
513.04	31791.50
513.21	31618.30
513.38	31477.86
513.56	31634.68
513.73	31550.42
513.90	32004.49
514.08	31276.58
514.25	31545.74
514.43	31737.66
514.60	31578.51
514.77	32023.21
514.95	32161.30
515.12	32573.24
515.29	32006.83
515.47	32524.08
515.64	33050.70
515.81	32540.47
515.99	32444.51
516.16	32720.69
516.33	32046.62
516.51	32411.74
516.68	32343.86
516.85	32278.33
517.03	32776.86
517.20	32720.69
517.37	32931.34
517.54	33369.02
517.72	33111.56
517.89	33071.77
518.06	32737.07
518.24	33104.54
518.41	33139.65
518.58	33266.03
518.75	33216.88
518.93	33748.18
519.10	33607.75
519.27	34103.95
519.45	33881.60
519.62	34134.37
519.79	34153.10
519.96	34125.01
520.14	34459.71
520.31	34089.90
520.48	34033.73
520.65	33970.54
520.83	34646.95
521.00	34316.93
521.17	34572.05
521.34	34366.09
521.52	35117.40
521.69	35033.14
521.86	34888.03
522.03	34574.39
522.20	34873.98
522.38	35110.38
522.55	35220.38
522.72	34953.56
522.89	34836.53
523.07	35562.10
523.24	34941.86
523.41	35583.16
523.58	35257.83
523.75	35857.01
523.92	35866.37
524.10	35885.09
524.27	36044.25
524.44	35655.72
524.61	36067.66
524.78	35976.37
524.96	36212.77
525.13	36484.27
525.30	36388.31
525.47	36355.54
525.64	36486.61
525.81	36327.45
525.98	36528.74
526.16	36060.63
526.33	36215.11
526.50	36765.14
526.67	36495.97
526.84	36191.70
527.01	36339.16
527.18	36856.42
527.36	36748.75
527.53	36701.94
527.70	37371.33
527.87	36889.18
528.04	37415.80
528.21	36940.68
528.38	36882.16
528.55	37371.33
528.72	37539.85
528.89	37787.95
529.07	37378.36
529.24	37251.97
529.41	37647.52
529.58	37371.33
529.75	37483.68
529.92	37572.62
530.09	37949.45
530.26	37581.98
530.43	38108.60
530.60	37715.39
530.77	38120.31
530.94	37689.65
531.11	37813.70
531.28	38293.50
531.46	38054.77
531.63	38501.81
531.80	37937.74
531.97	37750.50
532.14	38230.31
532.31	38089.88
532.48	37991.58
532.65	38696.08
532.82	38263.08
532.99	38447.98
533.16	38815.44
533.33	38684.37
533.50	38981.62
533.67	38635.22
533.84	38714.80
534.01	38831.83
534.18	39239.08
534.35	39346.75
534.52	38974.60
534.69	39232.06
534.86	39201.63
535.03	38859.91
535.20	39398.24
535.37	39243.76
535.54	40013.80
535.71	39185.25
535.88	39517.60
536.05	39463.77
536.22	39498.88
536.38	39587.82
536.55	39449.73
536.72	39592.50
536.89	39477.82
537.06	39482.50
537.23	40144.87
537.40	39761.02
537.57	39929.54
537.74	39906.13
537.91	39847.62
538.08	39896.77
538.25	39763.36
538.42	39840.60
538.59	40154.23
538.75	39643.99
538.92	39903.79
539.09	40109.76
539.26	40280.62
539.43	40189.34
539.60	40126.14
539.77	40062.95
539.94	40435.10
540.11	40074.65
540.28	40156.57
540.44	40465.52
540.61	39920.18
540.78	40245.51
540.95	39966.99
541.12	40399.99
541.29	40432.75
541.46	40500.63
541.62	40538.08
541.79	40900.86
541.96	40364.88
542.13	40334.45
542.30	41038.95
542.47	41099.81
542.63	40594.25
542.80	40926.61
542.97	41743.45
543.14	41497.70
543.31	41530.47
543.48	41631.11
543.64	41851.12
543.81	41911.97
543.98	41853.46
544.15	41783.24
544.32	41397.06
544.48	41507.06
544.65	41904.95
544.82	41820.69
544.99	41141.94
545.16	41659.20
545.32	41855.80
545.49	41900.27
545.66	41951.76
545.83	41776.22
546.00	42087.51
546.16	42036.02
546.33	41900.27
546.50	41783.24
546.67	42136.66
546.83	41462.59
547.00	42143.69
547.17	41694.30
547.34	42059.43
547.50	41998.57
547.67	42387.10
547.84	42410.51
548.00	42483.06
548.17	42672.65
548.34	42806.06
548.51	42810.74
548.67	42326.25
548.84	42518.17
549.01	42471.36
549.18	42433.91
549.34	42740.52
549.51	43037.77
549.68	43164.16
549.84	42731.16
550.01	42782.65
550.18	42972.24
550.34	42787.33
550.51	42595.41
550.68	42527.53
550.84	42337.95
551.01	42876.27
551.18	43079.90
551.34	43201.61
551.51	42754.57
551.68	43232.04
551.84	43173.52
552.01	43047.13
552.18	43260.12
552.34	42885.64
552.51	43519.92
552.68	43199.27
552.84	43187.56
553.01	43679.08
553.18	43576.09
553.34	43646.31
553.51	43180.54
553.67	43379.49
553.84	43676.74
554.01	43658.01
554.17	43908.45
554.34	43672.06
554.51	43854.62
554.67	43952.92
554.84	43856.96
555.00	43576.09
555.17	43379.49
555.33	43856.96
555.50	43761.00
555.67	43819.51
555.83	44011.43
556.00	43487.15
556.16	43957.60
556.33	44128.46
556.50	44467.84
556.66	44229.10
556.83	43810.15
556.99	43751.63
557.16	44086.33
557.32	44030.16
557.49	44076.97
557.65	43934.20
557.82	44219.74
557.98	44156.55
558.15	43920.15
558.32	44074.63
558.48	44156.55
558.65	44467.84
558.81	44027.82
558.98	44414.01
559.14	43936.54
559.31	44280.60
559.47	44449.11
559.64	43948.24
559.80	44456.14
559.97	44348.47
560.13	44095.69
560.30	44271.23
560.46	44278.25
560.63	44119.10
560.79	44605.93
560.96	44701.89
561.12	44746.36
561.29	44318.04
561.45	44430.39
561.61	44311.02
561.78	44285.28
561.94	44421.03
562.11	44533.37
562.27	44488.90
562.44	44376.56
562.60	44650.40
562.77	44781.47
562.93	44350.81
563.10	45092.76
563.26	44423.37
563.42	44793.17
563.59	44804.88
563.75	44737.00
563.92	44882.11
564.08	44767.43
564.24	44980.42
564.41	44699.55
564.57	44882.11
564.74	44531.03
564.90	44788.49
565.07	44818.92
565.23	44994.46
565.39	44802.53
565.56	44636.36
565.72	44619.97
565.88	44566.14
566.05	44928.92
566.21	44844.66
566.38	44669.12
566.54	44708.91
566.70	45277.66
566.87	45027.23
567.03	44896.16
567.19	45640.45
567.36	45338.52
567.52	44278.25
567.68	45209.79
567.85	45298.73
568.01	44999.14
568.17	44612.95
568.34	45050.63
568.50	45144.25
568.66	44905.52
568.83	45001.48
568.99	44533.37
569.15	44727.64
569.32	45172.34
569.48	44795.51
569.64	45116.17
569.81	45118.51
569.97	45045.95
570.13	45324.47
570.30	44856.37
570.46	44737.00
570.62	44928.92
570.78	45104.46
570.95	44891.48
571.11	44938.29
571.27	44924.24
571.43	45074.04
571.60	45401.71
571.76	45411.07
571.92	45167.66
572.09	44481.88
572.25	45104.46
572.41	45027.23
572.57	45280.00
572.74	45858.12
572.90	45469.59
573.06	45280.00
573.22	45116.17
573.38	45345.54
573.55	44823.60
573.71	44910.20
573.87	45212.13
574.03	45064.67
574.20	45067.02
574.36	45614.70
574.52	45425.12
574.68	45146.59
574.84	45324.47
575.01	45048.29
575.17	45420.44
575.33	45134.89
575.49	44842.32
575.65	45610.02
575.82	45752.79
575.98	45141.91
576.14	45605.34
576.30	45184.04
576.46	44631.68
576.62	45282.34
576.79	45411.07
576.95	45116.17
577.11	45518.74
577.27	45390.01
577.43	45450.86
577.59	45404.05
577.75	45247.24
577.92	44828.28
578.08	45492.99
578.24	44797.85
578.40	45371.28
578.56	45485.97
578.72	45375.97
578.88	45904.93
579.04	45705.98
579.21	45418.10
579.37	45364.26
579.53	45240.21
579.69	44886.79
579.85	45205.11
580.01	45558.53
580.17	45724.71
580.33	45134.89
580.49	45593.64
580.65	45338.52
580.82	45762.15
580.98	45467.25
581.14	45521.08
581.30	45469.59
581.46	45263.62
581.62	45474.27
581.78	45577.25
581.94	45429.80
582.10	45359.58
582.26	45586.61
582.42	45387.67
582.58	45052.97
582.74	45425.12
582.90	45497.67
583.06	45649.81
583.22	45574.91
583.38	45411.07
583.54	45738.75
583.70	44926.58
583.86	45193.40
584.02	45322.13
584.18	45682.58
584.34	45876.84
584.50	45518.74
584.66	45411.07
584.82	45191.06
584.98	45537.46
585.14	45649.81
585.30	45207.45
585.46	45289.37
585.62	45434.48
585.78	45226.17
585.94	44636.36
586.10	45198.09
586.26	45207.45
586.42	45900.25
586.58	45230.85
586.74	45219.15
586.90	45471.93
587.06	45132.55
587.22	45687.26
587.38	45272.98
587.54	45546.82
587.70	45741.09
587.86	45769.18
588.02	45518.74
588.18	45570.23
588.34	45509.38
588.49	44924.24
588.65	45106.80
588.81	45336.18
588.97	45216.81
589.13	45413.41
589.29	45617.04
589.45	45621.72
589.61	45401.71
589.77	45738.75
589.93	45530.44
590.08	45757.47
590.24	45778.54
590.40	45846.41
590.56	45638.11
590.72	45780.88
590.88	45780.88
591.04	45462.57
591.20	45617.04
591.35	45703.64
591.51	46401.12
591.67	45944.72
591.83	45336.18
591.99	45542.14
592.15	45603.00
592.31	45804.28
592.46	45705.98
592.62	45663.85
592.78	45921.31
592.94	46089.83
593.10	45881.52
593.26	46059.40
593.41	45834.71
593.57	45535.12
593.73	45249.58
593.89	45713.00
594.05	45303.41
594.20	45378.31
594.36	46096.85
594.52	45949.40
594.68	45755.13
594.84	45584.27
594.99	45972.80
595.15	45865.14
595.31	45815.99
595.47	45748.11
595.62	45544.48
595.78	45848.75
595.94	46036.00
596.10	46099.19
596.25	45769.18
596.41	45893.22
596.57	45488.31
596.73	46272.39
596.88	45581.93
597.04	45390.01
597.20	45897.91
597.36	45860.46
597.51	46146.00
597.67	45776.20
597.83	45914.29
597.99	46218.56
598.14	46068.76
598.30	46092.17
598.46	46057.06
598.61	45921.31
598.77	45385.33
598.93	45722.37
599.09	46082.81
599.24	45975.14
599.40	46595.38
599.56	45888.54
599.71	46080.47
599.87	45900.25
600.03	45785.56
600.18	45717.68
600.34	45900.25
600.50	45940.04
600.65	45963.44
600.81	45970.46
600.97	46036.00
601.12	46541.55
601.28	46513.47
601.44	46028.98
601.59	45764.49
601.75	45893.22
601.91	45617.04
602.06	45928.33
602.22	45907.27
602.37	45851.09
602.53	45886.20
602.69	46272.39
602.84	46021.95
603.00	45537.46
603.16	45549.17
603.31	45516.40
603.47	45792.58
603.62	45584.27
603.78	45642.79
603.94	45930.67
604.09	45844.07
604.25	45727.05
604.40	46028.98
604.56	45975.14
604.71	45780.88
604.87	45612.36
605.03	45649.81
605.18	45738.75
605.34	45633.42
605.49	45277.66
605.65	45652.15
605.80	45577.25
605.96	45610.02
606.12	45921.31
606.27	45752.79
606.43	45474.27
606.58	46087.49
606.74	45492.99
606.89	45340.86
607.05	45413.41
607.20	45663.85
607.36	45654.49
607.51	45834.71
607.67	45567.89
607.82	45490.65
607.98	45574.91
608.13	45364.26
608.29	45137.23
608.44	45029.57
608.60	45448.52
608.75	45347.88
608.91	45537.46
609.06	45296.39
609.22	45420.44
609.37	45017.86
609.53	45759.81
609.68	45387.67
609.84	45560.87
609.99	45326.81
610.15	45598.32
610.30	45144.25
610.46	44858.71
610.61	45116.17
610.76	44980.42
610.92	45542.14
611.07	44957.01
611.23	45118.51
611.38	45209.79
611.54	45504.70
611.69	44807.22
611.84	45027.23
612.00	45401.71
612.15	44699.55
612.31	45310.43
612.46	45148.93
612.62	45312.77
612.77	45095.10
612.92	45118.51
613.08	45013.18
613.23	45350.22
613.39	44905.52
613.54	44460.82
613.69	44891.48
613.85	44631.68
614.00	45102.12
614.15	45879.18
614.31	44851.69
614.46	45170.00
614.62	44898.50
614.77	45013.18
614.92	44886.79
615.08	45034.25
615.23	44559.12
615.38	44563.80
615.54	44009.09
615.69	44435.07
615.84	44587.21
616.00	44711.25
616.15	44678.49
616.30	44758.06
616.46	43997.39
616.61	43981.01
616.76	44137.82
616.92	44315.70
617.07	44519.33
617.22	44236.12
617.37	44243.15
617.53	44629.34
617.68	44626.99
617.83	44006.75
617.99	44722.96
618.14	44336.77
618.29	44163.57
618.45	43936.54
618.60	44289.96
618.75	44135.48
618.90	44133.14
619.06	43892.07
619.21	44154.21
619.36	44261.87
619.51	43863.98
619.67	43775.04
619.82	44144.84
619.97	44126.12
620.12	43515.24
620.28	43505.88
620.43	43473.11
620.58	43999.73
620.73	44177.61
620.89	43842.92
621.04	43859.30
621.19	43814.83
621.34	43449.70
621.49	43599.50
621.65	43475.45
621.80	43629.93
621.95	43557.37
622.10	43688.44
622.25	43683.76
622.41	43398.21
622.56	43522.26
622.71	43791.42
622.86	43356.08
623.01	43571.41
623.16	43409.92
623.32	43325.66
623.47	43576.09
623.62	43732.91
623.77	43143.09
623.92	43131.39
624.07	43234.38
624.23	43351.40
624.38	42511.15
624.53	42873.93
624.68	43021.39
624.83	43442.68
624.98	43264.80
625.13	43409.92
625.29	43484.81
625.44	43246.08
625.59	42873.93
625.74	42543.92
625.89	42752.23
626.04	42328.59
626.19	42934.79
626.34	43281.19
626.49	42890.32
626.65	43056.50
626.80	42930.11
626.95	42955.85
627.10	42401.14
627.25	42763.93
627.40	42747.54
627.55	42321.57
627.70	42188.16
627.85	42146.03
628.00	42410.51
628.15	42993.30
628.30	42373.06
628.45	42827.12
628.60	42265.39
628.76	42586.05
628.91	42536.90
629.06	42972.24
629.21	42541.58
629.36	42363.70
629.51	42010.28
629.66	42122.62
629.81	41895.59
629.96	42190.50
630.11	42096.88
630.26	42150.71
630.41	42286.46
630.56	41785.58
630.71	42120.28
630.86	41914.31
631.01	42127.30
631.16	42005.59
631.31	41776.22
631.46	41713.03
631.61	42117.94
631.76	42139.00
631.91	41804.31
632.06	41710.69
632.21	42176.45
632.36	41989.21
632.51	41677.92
632.66	41954.10
632.81	41244.92
632.96	41888.57
633.10	41137.26
633.25	40945.33
633.40	41500.04
633.55	41811.33
633.70	41556.21
633.85	41759.84
634.00	41846.44
634.15	41429.82
634.30	41352.58
634.45	41235.56
634.60	41546.85
634.75	41532.81
634.90	41537.49
635.05	41696.64
635.19	41467.27
635.34	41860.48
635.49	41104.49
635.64	41347.90
635.79	41174.70
635.94	40772.13
636.09	41104.49
636.24	41401.74
636.39	40692.55
636.53	40568.51
636.68	41160.66
636.83	40856.39
636.98	41415.78
637.13	40566.16
637.28	41177.04
637.43	41085.76
637.57	41170.02
637.72	41378.33
637.87	41041.29
638.02	41020.23
638.17	40390.62
638.32	40755.75
638.46	40360.20
638.61	40753.41
638.76	40708.94
638.91	40872.78
639.06	40666.81
639.20	41076.40
639.35	40264.24
639.50	40809.58
639.65	40926.61
639.80	40755.75
639.94	40215.08
640.09	40250.19
640.24	40381.26
640.39	40669.15
640.54	40297.00
640.68	40226.79
640.83	40222.11
640.98	40058.27
641.13	40098.06
641.27	40685.53
641.42	40191.68
641.57	40636.38
641.72	40519.35
641.86	40449.14
642.01	39676.76
642.16	39997.41
642.31	39775.06
642.45	40069.97
642.60	39723.57
642.75	39838.26
642.90	40187.00
643.04	39952.94
643.19	39779.74
643.34	39845.28
643.48	39789.11
643.63	39613.57
643.78	39585.48
643.93	39302.28
644.07	39243.76
644.22	39531.65
644.37	39306.96
644.51	39716.55
644.66	39416.96
644.81	39758.68
644.95	39784.43
645.10	39988.05
645.25	39735.27
645.39	39761.02
645.54	39866.34
645.69	39440.37
645.83	39283.55
645.98	39487.18
646.13	39800.81
646.27	39819.53
646.42	39297.59
646.57	39339.72
646.71	39480.16
646.86	39309.30
647.00	39533.99
647.15	39232.06
647.30	39477.82
647.44	39014.39
647.59	39012.05
647.74	38733.53
647.88	38885.66
648.03	39346.75
648.17	39079.92
648.32	38356.70
648.47	39175.89
648.61	38906.73
648.76	39091.63
648.90	39122.05
649.05	38960.56
649.20	39262.49
649.34	39021.41
649.49	38941.83
649.63	38600.12
649.78	38707.78
649.92	38740.55
650.07	39112.69
650.21	38656.29
650.36	38876.30
650.51	38504.15
650.65	38597.77
650.80	38801.40
650.94	38658.63
651.09	38813.10
651.23	38766.29
651.38	38438.62
651.52	38251.38
651.67	38548.62
651.81	38593.09
651.96	38192.86
652.10	38103.92
652.25	37780.93
652.39	38333.29
652.54	38029.02
652.68	38272.44
652.83	39019.07
652.97	38607.14
653.12	38087.54
653.26	38251.38
653.41	38541.60
653.55	37979.87
653.70	38281.80
653.84	38132.01
653.99	38307.55
654.13	38113.28
654.27	38244.35
654.42	38244.35
654.56	38223.29
654.71	37979.87
654.85	37780.93
655.00	38225.63
655.14	37797.31
655.29	37371.33
655.43	37251.97
655.57	37556.24
655.72	37556.24
655.86	37364.31
656.01	37242.60
656.15	37219.20
656.30	37610.07
656.44	37399.42
656.58	37268.35
656.73	37167.71
656.87	37294.10
657.01	37043.66
657.16	37628.79
657.30	37174.73
657.45	36886.84
657.59	37408.78
657.73	37034.30
657.88	37425.17
658.02	37200.47
658.16	37120.90
658.31	37439.21
658.45	37610.07
658.60	37394.74
658.74	36882.16
658.88	37258.99
659.03	36975.78
659.17	36996.85
659.31	36837.69
659.46	36547.47
659.60	36825.99
659.74	37034.30
659.89	36598.96
660.03	36704.28
660.17	37120.90
660.32	36620.02
660.46	36779.18
660.60	36659.81
660.74	36662.15
660.89	36577.89
661.03	36507.68
661.17	36299.37
661.32	35990.42
661.46	36065.31
661.60	36177.66
661.74	36325.11
661.89	36348.52
662.03	36364.90
662.17	35990.42
662.31	35714.23
662.46	35997.44
662.60	35995.10
662.74	35950.63
662.88	36067.66
663.03	35763.39
663.17	35721.26
663.31	35604.23
663.45	35150.17
663.60	35414.65
663.74	35084.63
663.88	35934.24
664.02	35594.87
664.17	35229.74
664.31	35101.01
664.45	34873.98
664.59	35157.19
664.73	35349.11
664.88	35236.77
665.02	34967.60
665.16	34967.60
665.30	34841.21
665.44	34679.72
665.59	34742.91
665.73	34398.85
665.87	34391.83
666.01	34850.58
666.15	34705.46
666.29	34623.54
666.44	34593.12
666.58	34623.54
666.72	34347.36
666.86	34810.79
667.00	34597.80
667.14	34312.25
667.28	34471.41
667.43	33750.52
667.57	33858.19
667.71	34188.21
667.85	34094.58
667.99	33905.00
668.13	34110.97
668.27	34167.14
668.41	33947.13
668.56	33600.73
668.70	33837.12
668.84	33586.69
668.98	33874.57
669.12	33338.59
669.26	33553.92
669.40	33635.84
669.54	33603.07
669.68	33251.99
669.82	33441.57
669.96	33322.21
670.10	33006.23
670.25	33406.47
670.39	33291.78
670.53	33277.74
670.67	33104.54
670.81	33273.06
670.95	32493.66
671.09	32907.93
671.23	33053.05
671.37	32875.16
671.51	32755.80
671.65	32638.77
671.79	32477.27
671.93	32463.23
672.07	32821.33
672.21	32914.95
672.35	32517.06
672.49	32264.28
672.63	32371.95
672.77	31955.33
672.91	31948.31
673.05	31847.67
673.19	31592.55
673.33	31548.08
673.47	31470.84
673.61	31400.63
673.75	32006.83
673.89	31236.79
674.03	31199.34
674.17	31346.79
674.31	31938.95
674.45	31571.49
674.59	31285.94
674.73	31611.28
674.87	31154.87
675.01	31133.81
675.15	31089.34
675.29	30995.71
675.43	31131.47
675.56	30801.45
675.70	30841.24
675.84	30698.47
675.98	29757.57
676.12	30438.67
676.26	30321.64
676.40	30389.52
676.54	30228.02
676.68	30054.82
676.82	29736.51
676.96	29858.21
677.10	29832.47
677.23	29605.44
677.37	30160.14
677.51	29860.55
677.65	29516.50
677.79	29432.24
677.93	29139.67
678.07	29514.16
678.21	29022.64
678.34	29207.55
678.48	29032.00
678.62	28498.36
678.76	28664.54
678.90	29198.18
679.04	28533.47
679.18	28898.59
679.31	28212.82
679.45	28402.40
679.59	27702.58
679.73	27702.58
679.87	27866.42
680.00	28048.98
680.14	27943.66
680.28	27545.76
680.42	27569.17
680.56	27681.52
680.70	27592.58
680.83	27782.16
680.97	27288.31
681.11	27199.37
681.25	26993.40
681.39	27276.60
681.52	27084.68
681.66	26897.44
681.80	27143.19
681.94	26817.86
682.07	27154.90
682.21	26845.94
682.35	26412.95
682.49	26649.34
682.62	26487.84
682.76	26111.02
682.90	26141.44
683.04	26340.39
683.17	26274.85
683.31	25963.56
683.45	26441.03
683.59	25717.81
683.72	25811.43
683.86	25696.74
684.00	25296.51
684.13	25453.33
684.27	25373.75
684.41	25523.54
684.55	24882.24
684.68	24959.47
684.82	25003.94
684.96	25055.43
685.09	25036.71
685.23	24772.23
685.37	24788.61
685.50	24929.05
685.64	24802.66
685.78	24519.45
685.91	24353.27
686.05	24596.69
686.19	23971.77
686.32	24283.06
686.46	24079.43
686.60	23468.55
686.73	23894.53
686.87	23840.70
687.01	23442.81
687.14	23302.37
687.28	23096.41
687.42	23569.19
687.55	23206.41
687.69	23042.57
687.82	23122.15
687.96	23138.54
688.10	23248.54
688.23	23178.33
688.37	22862.35
688.50	22661.07
688.64	22370.84
688.78	22691.49
688.91	22520.63
689.05	22572.13
689.18	22735.96
689.32	21717.83
689.46	21783.37
689.59	22295.94
689.73	22546.38
689.86	22061.89
690.00	21752.94
690.13	21809.11
690.27	21745.92
690.41	21575.06
690.54	21556.33
690.68	21348.03
690.81	21104.61
690.95	21228.66
691.08	21001.63
691.22	21050.78
691.35	21020.35
691.49	21018.01
691.62	21170.15
691.76	21139.72
691.89	20959.50
692.03	20414.15
692.16	20325.21
692.30	20283.08
692.43	20446.92
692.57	19943.70
692.70	20133.29
692.84	19992.86
692.97	19836.04
693.11	20006.90
693.24	19728.38
693.38	19906.26
693.51	19634.75
693.65	19840.72
693.78	19730.72
693.92	19777.53
694.05	19576.24
694.19	19580.92
694.32	19222.82
694.45	19208.78
694.59	19138.56
694.72	18993.45
694.86	18918.55
694.99	18867.06
695.13	18862.38
695.26	18731.31
695.39	18640.03
695.53	18464.49
695.66	18604.92
695.80	18590.88
695.93	18167.24
696.07	18082.98
696.20	18780.46
696.33	18132.13
696.47	18181.28
696.60	17809.14
696.73	17802.11
696.87	17877.01
697.00	17951.91
697.14	17914.46
697.27	17975.31
697.40	17708.49
697.54	17748.28
697.67	17216.98
697.80	17453.37
697.94	17343.37
698.07	17245.07
698.21	17013.35
698.34	17144.42
698.47	17090.59
698.61	16903.35
698.74	17025.06
698.87	16774.62
699.01	16709.08
699.14	16673.98
699.27	16468.01
699.40	16486.73
699.54	16058.42
699.67	16020.97
699.80	16098.20
699.94	16093.52
700.07	15901.60
700.20	16053.73
700.34	15800.96
700.47	15927.35
700.60	16142.67
700.73	16205.87
700.87	15967.13
701.00	15559.88
701.13	15716.70
701.26	15667.55
701.40	15382.00
701.53	15234.55
701.66	15494.35
701.79	15279.02
701.93	15138.58
702.06	15028.58
702.19	15218.16
702.32	14843.68
702.46	14806.23
702.59	14796.87
702.72	14841.34
702.85	14626.01
702.99	14981.77
703.12	14829.63
703.25	14703.25
703.38	14490.26
703.51	14225.78
703.65	14410.68
703.78	14244.50
703.91	13881.72
704.04	14391.95
704.17	14394.29
704.31	14132.15
704.44	14073.64
704.57	14003.43
704.70	13778.73
704.83	13369.14
704.96	13795.12
705.10	13891.08
705.23	13687.45
>>>>>End Processed Spectral Data<<<<<
