SpectraSuite Data File
++++++++++++++++++++++++++++++++++++
Date: Fri Oct 25 11:34:00 EDT 2013
User: price-jones
Dark Spectrum Present: No
Reference Spectrum Present: No
Number of Sampled Component Spectra: 1
Spectrometers: USB2+H05261
Integration Time (usec): 100000 (USB2+H05261)
Spectra Averaged: 1 (USB2+H05261)
Boxcar Smoothing: 0 (USB2+H05261)
Correct for Electrical Dark: No (USB2+H05261)
Strobe/Lamp Enabled: No (USB2+H05261)
Correct for Detector Non-linearity: No (USB2+H05261)
Correct for Stray Light: No (USB2+H05261)
Number of Pixels in Processed Spectrum: 2048
>>>>>Begin Processed Spectral Data<<<<<
365.73	269.16
365.92	269.16
366.12	269.16
366.32	194.26
366.52	138.09
366.72	227.03
366.91	182.56
367.11	191.92
367.31	215.33
367.51	170.86
367.70	119.37
367.90	161.50
368.10	201.29
368.30	229.37
368.49	222.35
368.69	133.41
368.89	168.52
369.09	147.45
369.28	208.31
369.48	255.12
369.68	194.26
369.87	184.90
370.07	238.73
370.27	266.82
370.47	325.33
370.66	489.17
370.86	472.79
371.06	491.51
371.25	510.24
371.45	552.37
371.65	575.77
371.84	496.19
372.04	517.26
372.24	582.79
372.44	557.05
372.63	587.47
372.83	685.78
373.03	615.56
373.22	627.26
373.42	589.82
373.62	554.71
373.81	589.82
374.01	653.01
374.21	671.73
374.40	594.50
374.60	690.46
374.79	664.71
374.99	620.24
375.19	699.82
375.38	748.97
375.58	671.73
375.78	613.22
375.97	648.33
376.17	650.67
376.37	683.44
376.56	645.99
376.76	690.46
376.95	650.67
377.15	786.42
377.35	643.65
377.54	711.52
377.74	566.41
377.93	681.10
378.13	699.82
378.33	774.72
378.52	671.73
378.72	653.01
378.91	755.99
379.11	727.91
379.31	695.14
379.50	669.39
379.70	741.95
379.89	800.46
380.09	664.71
380.28	702.16
380.48	685.78
380.68	798.12
380.87	760.67
381.07	760.67
381.26	786.42
381.46	784.08
381.65	802.80
381.85	755.99
382.04	753.65
382.24	816.85
382.43	844.93
382.63	812.17
382.83	814.51
383.02	784.08
383.22	830.89
383.41	805.14
383.61	772.38
383.80	819.19
384.00	772.38
384.19	753.65
384.39	767.70
384.58	795.78
384.78	777.06
384.97	765.36
385.17	826.21
385.36	814.51
385.56	755.99
385.75	784.08
385.95	863.66
386.14	863.66
386.34	940.90
386.53	858.98
386.72	912.81
386.92	922.17
387.11	849.61
387.31	917.49
387.50	774.72
387.70	910.47
387.89	954.94
388.09	924.51
388.28	910.47
388.48	849.61
388.67	908.13
388.86	809.83
389.06	901.11
389.25	952.60
389.45	915.15
389.64	966.64
389.84	987.71
390.03	943.24
390.22	964.30
390.42	905.79
390.61	905.79
390.81	931.53
391.00	973.66
391.19	1107.07
391.39	1034.52
391.58	908.13
391.78	994.73
391.97	1055.58
392.16	957.28
392.36	1050.90
392.55	1071.97
392.75	1069.62
392.94	1100.05
393.13	997.07
393.33	1107.07
393.52	938.55
393.71	1074.31
393.91	1048.56
394.10	1081.33
394.29	1097.71
394.49	1095.37
394.68	1149.20
394.88	1224.10
395.07	1158.57
395.26	1043.88
395.46	1086.01
395.65	1144.52
395.84	1177.29
396.04	1193.67
396.23	1165.59
396.42	1226.44
396.62	1224.10
396.81	1198.35
397.00	1249.85
397.19	1179.63
397.39	1198.35
397.58	1224.10
397.77	1233.46
397.97	1228.78
398.16	1167.93
398.35	1334.11
398.55	1294.32
398.74	1315.38
398.93	1310.70
399.12	1275.59
399.32	1100.05
399.51	1280.27
399.70	1380.92
399.90	1324.74
400.09	1306.02
400.28	1434.75
400.47	1341.13
400.67	1409.00
400.86	1308.36
401.05	1315.38
401.24	1458.15
401.44	1476.88
401.63	1483.90
401.82	1334.11
402.01	1364.53
402.21	1554.12
402.40	1437.09
402.59	1401.98
402.78	1439.43
402.97	1420.71
403.17	1479.22
403.36	1474.54
403.55	1526.03
403.74	1577.52
403.93	1603.27
404.13	1582.20
404.32	1540.07
404.51	1558.80
404.70	1619.65
404.89	1629.01
405.09	1612.63
405.28	1645.40
405.47	1624.33
405.66	1715.61
405.85	1778.81
406.05	1760.08
406.24	1727.32
406.43	1776.47
406.62	1834.98
406.81	1881.79
407.00	1739.02
407.20	1626.67
407.39	1813.92
407.58	1846.68
407.77	1816.26
407.96	1982.43
408.15	1860.73
408.34	1865.41
408.54	1888.81
408.73	1860.73
408.92	1884.13
409.11	2076.06
409.30	1898.17
409.49	1909.88
409.68	1959.03
409.87	2031.58
410.07	2078.40
410.26	2015.20
410.45	1935.62
410.64	2085.42
410.83	2054.99
411.02	2059.67
411.21	2169.68
411.40	2134.57
411.59	2129.89
411.78	2118.18
411.98	2298.41
412.17	2298.41
412.36	2284.36
412.55	2228.19
412.74	2270.32
412.93	2431.82
413.12	2293.72
413.31	2511.39
413.50	2326.49
413.69	2354.58
413.88	2443.52
414.07	2511.39
414.26	2401.39
414.45	2429.48
414.64	2492.67
414.83	2537.14
415.02	2576.93
415.22	2438.84
415.41	2572.25
415.60	2600.34
415.79	2665.87
415.98	2710.34
416.17	2609.70
416.36	2677.57
416.55	2712.68
416.74	2764.17
416.93	2829.71
417.12	2719.70
417.31	2778.22
417.50	2850.77
417.69	2902.26
417.88	2853.11
418.07	2853.11
418.26	2937.37
418.45	2923.33
418.64	3056.74
418.83	3073.12
419.02	3124.62
419.21	3084.83
419.39	2958.44
419.58	3009.93
419.77	2942.05
419.96	3052.06
420.15	3112.91
420.34	3169.09
420.53	3162.06
420.72	3321.22
420.91	3190.15
421.10	3321.22
421.29	3344.63
421.48	3218.24
421.67	3346.97
421.86	3279.09
422.05	3346.97
422.24	3176.11
422.43	3386.76
422.61	3382.07
422.80	3368.03
422.99	3419.52
423.18	3389.10
423.37	3543.57
423.56	3311.86
423.75	3339.94
423.94	3304.84
424.13	3155.04
424.32	3293.13
424.50	3473.36
424.69	3344.63
424.88	3576.34
425.07	3358.67
425.26	3311.86
425.45	3318.88
425.64	3461.65
425.83	3227.60
426.01	3454.63
426.20	3403.14
426.39	3396.12
426.58	3449.95
426.77	3473.36
426.96	3581.02
427.15	3494.42
427.33	3557.61
427.52	3616.13
427.71	3559.95
427.90	3583.36
428.09	3735.50
428.28	3651.24
428.46	3496.76
428.65	3611.45
428.84	3705.07
429.03	3733.15
429.22	3597.40
429.40	3623.15
429.59	3768.26
429.78	3702.73
429.97	3531.87
430.16	3595.06
430.34	3808.05
430.53	3817.41
430.72	3854.86
430.91	3915.72
431.10	3857.20
431.28	3939.12
431.47	3859.54
431.66	3908.69
431.85	3901.67
432.03	3969.55
432.22	3906.35
432.41	3992.95
432.60	4018.70
432.79	4002.32
432.97	4114.66
433.16	4119.34
433.35	3983.59
433.54	4149.77
433.72	4112.32
433.91	4009.34
434.10	4035.08
434.28	4236.37
434.47	4280.84
434.66	4205.94
434.85	4252.75
435.03	4276.16
435.22	4339.35
435.41	4482.13
435.59	4255.09
435.78	4344.03
435.97	4259.78
436.16	4294.88
436.34	4339.35
436.53	4304.25
436.72	4390.84
436.90	4315.95
437.09	4425.95
437.28	4421.27
437.46	4461.06
437.65	4660.01
437.84	4667.03
438.02	4521.92
438.21	4444.68
438.40	4538.30
438.58	4732.56
438.77	4652.98
438.96	4713.84
439.14	4652.98
439.33	4777.03
439.52	4931.51
439.70	4894.06
439.89	5116.41
440.08	5025.13
440.26	4924.49
440.45	4884.70
440.63	5013.43
440.82	5177.26
441.01	5015.77
441.19	5104.71
441.38	5170.24
441.57	5125.77
441.75	5186.63
441.94	5146.84
442.12	5294.29
442.31	5252.16
442.50	5387.91
442.68	5474.51
442.87	5441.75
443.05	5458.13
443.24	5526.00
443.43	5547.07
443.61	5317.70
443.80	5631.33
443.98	5408.98
444.17	5179.61
444.35	5383.23
444.54	5579.84
444.73	5509.62
444.91	5570.48
445.10	5516.64
445.28	5626.65
445.47	5537.71
445.65	5579.84
445.84	5685.16
446.02	5682.82
446.21	5561.11
446.39	5430.04
446.58	5703.89
446.77	5710.91
446.95	5579.84
447.14	5722.61
447.32	5760.06
447.51	5621.97
447.69	5614.95
447.88	5804.53
448.06	5671.12
448.25	5668.78
448.43	5748.36
448.62	5720.27
448.80	5776.44
448.99	5771.76
449.17	5879.43
449.36	5811.55
449.54	5888.79
449.73	5959.00
449.91	5959.00
450.10	6024.54
450.28	6202.42
450.46	6040.92
450.65	6026.88
450.83	5963.68
451.02	6040.92
451.20	6050.28
451.39	6059.65
451.57	6190.72
451.76	6047.94
451.94	6092.41
452.13	6183.70
452.31	6157.95
452.49	6054.97
452.68	6174.33
452.86	6155.61
453.05	6134.54
453.23	6300.72
453.42	6282.00
453.60	6279.66
453.78	6380.30
453.97	6349.87
454.15	6375.62
454.34	6010.50
454.52	6258.59
454.70	6455.20
454.89	6335.83
455.07	6464.56
455.26	6576.91
455.44	6649.46
455.62	6534.78
455.81	6635.42
455.99	6518.39
456.17	6649.46
456.36	6614.35
456.54	7096.50
456.73	6927.99
456.91	7063.74
457.09	6937.35
457.28	7063.74
457.46	6750.10
457.64	7009.90
457.83	7063.74
458.01	7002.88
458.19	7183.10
458.38	6850.75
458.56	7084.80
458.74	7089.48
458.93	7122.25
459.11	7045.01
459.29	6972.46
459.48	7077.78
459.66	7260.34
459.84	7368.01
460.03	7386.73
460.21	7185.44
460.39	7316.51
460.57	7204.17
460.76	7435.88
460.94	7529.50
461.12	7360.98
461.31	7501.42
461.49	7463.97
461.67	7557.59
461.85	7559.93
462.04	7403.11
462.22	7885.26
462.40	7672.28
462.59	7817.39
462.77	7550.57
462.95	7691.00
463.13	7676.96
463.32	7791.64
463.50	7651.21
463.68	7698.02
463.86	7871.22
464.05	7861.86
464.23	7709.72
464.41	7878.24
464.59	7740.15
464.78	7999.95
464.96	7927.39
465.14	7772.92
465.32	8006.97
465.50	8091.23
465.69	8208.26
465.87	7990.59
466.05	7967.18
466.23	7929.74
466.41	8102.93
466.60	8290.18
466.78	7847.82
466.96	8154.43
467.14	8072.51
467.32	8168.47
467.51	8116.98
467.69	8126.34
467.87	8128.68
468.05	8315.92
468.23	8021.02
468.41	8278.47
468.60	8201.24
468.78	8503.17
468.96	8367.42
469.14	8589.77
469.32	8744.24
469.50	8362.73
469.69	8463.38
469.87	8458.70
470.05	8634.24
470.23	8706.79
470.41	8573.38
470.59	8678.71
470.77	8791.05
470.95	8667.00
471.14	8844.88
471.32	8702.11
471.50	8933.82
471.68	8856.59
471.86	9048.51
472.04	8931.48
472.22	9132.77
472.40	9060.21
472.58	9172.56
472.77	9160.86
472.95	9373.85
473.13	9415.98
473.31	9341.08
473.49	9270.86
473.67	9446.40
473.85	9465.13
474.03	9530.66
474.21	9666.41
474.39	9748.33
474.57	9565.77
474.75	9762.37
474.93	9687.48
475.12	9919.19
475.30	9966.00
475.48	9881.74
475.66	9888.76
475.84	9827.91
476.02	10015.15
476.20	10202.40
476.38	10272.61
476.56	10509.01
476.74	10389.64
476.92	10518.37
477.10	10415.38
477.28	10445.81
477.46	10370.91
477.64	10705.61
477.82	10672.84
478.00	10993.50
478.18	10953.71
478.36	11007.54
478.54	11290.74
478.72	11314.15
478.90	11140.95
479.08	11534.16
479.26	11353.94
479.44	11552.88
479.62	11485.01
479.80	11737.79
479.98	11716.72
480.16	11892.26
480.34	12077.16
480.52	11941.41
480.70	12105.25
480.88	11915.67
481.06	12102.91
481.24	12287.81
481.41	12589.74
481.59	12540.59
481.77	12769.96
481.95	12744.22
482.13	12999.34
482.31	12966.57
482.49	13018.06
482.67	13121.04
482.85	13165.51
483.03	13472.12
483.21	13369.14
483.39	13699.16
483.57	13558.72
483.74	13479.15
483.92	13774.05
484.10	13497.87
484.28	13729.58
484.46	14270.25
484.64	14483.24
484.82	14436.42
485.00	14305.35
485.18	14757.08
485.35	14995.81
485.53	14862.40
485.71	14855.38
485.89	15225.18
486.07	14974.75
486.25	15307.10
486.43	15253.27
486.61	15501.37
486.78	15571.58
486.96	15597.33
487.14	15939.05
487.32	16046.71
487.50	16084.16
487.68	16308.85
487.85	16556.95
488.03	16468.01
488.21	16666.95
488.39	16526.52
488.57	17032.08
488.75	16748.87
488.92	17036.76
489.10	17408.90
489.28	17291.88
489.46	17352.73
489.64	17593.81
489.81	18078.30
489.99	18015.10
490.17	18015.10
490.35	18515.98
490.53	18312.35
490.70	18450.44
490.88	18244.48
491.06	18633.00
491.24	18459.81
491.41	18944.30
491.59	18965.36
491.77	18670.45
491.95	19173.67
492.13	19435.81
492.30	19609.01
492.48	19351.55
492.66	19222.82
492.84	19440.49
493.01	20070.09
493.19	19510.71
493.37	19882.85
493.54	20231.59
493.72	19997.54
493.90	20456.28
494.08	20276.06
494.25	20573.31
494.43	20655.23
494.61	20898.64
494.79	21287.17
494.96	20922.05
495.14	21137.38
495.32	21387.82
495.49	21436.97
495.67	21797.41
495.85	21502.50
496.02	21799.75
496.20	21963.59
496.38	21759.96
496.55	22143.81
496.73	22480.85
496.91	22324.03
497.09	22349.78
497.26	22558.08
497.44	22494.89
497.62	22773.41
497.79	23300.03
497.97	22986.40
498.14	23126.83
498.32	23175.98
498.50	23269.61
498.67	23681.54
498.85	23625.37
499.03	23452.17
499.20	23821.97
499.38	23957.72
499.56	23873.46
499.73	23679.20
499.91	24084.11
500.08	24121.56
500.26	24044.32
500.44	24484.34
500.61	24156.67
500.79	24259.65
500.97	24489.03
501.14	24879.89
501.32	25078.84
501.49	24767.55
501.67	25149.06
501.84	25118.63
502.02	25266.08
502.20	24989.90
502.37	25170.12
502.55	25376.09
502.72	25645.25
502.90	25422.90
503.07	25682.70
503.25	25881.64
503.43	25701.42
503.60	26096.97
503.78	25577.37
503.95	25970.58
504.13	25979.95
504.30	26352.09
504.48	26157.83
504.65	26705.51
504.83	26679.77
505.01	26520.61
505.18	26632.96
505.36	27159.58
505.53	27051.91
505.71	27152.55
505.88	27124.47
506.06	26991.06
506.23	27337.46
506.41	27166.60
506.58	27218.09
506.76	27241.50
506.93	27637.05
507.11	27339.80
507.28	27716.62
507.46	27796.20
507.63	28041.96
507.81	27927.27
507.98	27517.68
508.16	28102.81
508.33	28187.07
508.50	28168.35
508.68	28453.89
508.85	28641.14
509.03	28449.21
509.20	28369.63
509.38	28856.46
509.55	29020.30
509.73	28697.31
509.90	28706.67
510.08	29081.16
510.25	29188.82
510.42	28830.72
510.60	29223.93
510.77	29050.73
510.95	29752.89
511.12	29455.64
511.30	29869.92
511.47	29376.06
511.64	29830.13
511.82	29729.48
511.99	29846.51
512.17	29893.32
512.34	29799.70
512.51	30162.48
512.69	30511.22
512.86	30221.00
513.04	30455.05
513.21	30569.74
513.38	30293.55
513.56	30972.31
513.73	30630.59
513.90	30490.16
514.08	30897.41
514.25	31246.15
514.43	30937.20
514.60	31274.24
514.77	31428.71
514.95	31192.32
515.12	31021.46
515.29	31339.77
515.47	31297.64
515.64	31681.49
515.81	31356.16
515.99	31424.03
516.16	31850.01
516.33	32369.61
516.51	31896.82
516.68	31955.33
516.85	31850.01
517.03	32072.36
517.20	32198.75
517.37	32273.65
517.54	32067.68
517.72	32369.61
517.89	32549.83
518.06	32474.93
518.24	32591.96
518.41	32355.57
518.58	32720.69
518.75	32655.15
518.93	33088.15
519.10	32723.03
519.27	32786.22
519.45	32900.91
519.62	32847.08
519.79	32975.81
519.96	33397.10
520.14	33200.50
520.31	33296.46
520.48	33291.78
520.65	33572.64
520.83	33888.62
521.00	33804.36
521.17	33663.93
521.34	34251.40
521.52	34139.05
521.69	33954.15
521.86	33926.07
522.03	34122.67
522.20	34403.53
522.38	34618.86
522.55	34817.81
522.72	34773.34
522.89	34352.04
523.07	34953.56
523.24	34529.92
523.41	35147.82
523.58	34993.35
523.75	35229.74
523.92	34632.91
524.10	34965.26
524.27	35304.64
524.44	34927.81
524.61	34876.32
524.78	35028.46
524.96	35461.46
525.13	35194.64
525.30	35892.12
525.47	35339.75
525.64	35592.53
525.81	36004.46
525.98	36091.06
526.16	35438.05
526.33	35438.05
526.50	36172.98
526.67	35789.13
526.84	35854.67
527.01	36072.34
527.18	36364.90
527.36	36762.79
527.53	36013.82
527.70	36339.16
527.87	36987.49
528.04	36282.98
528.21	36933.65
528.38	36512.36
528.55	36519.38
528.72	36634.06
528.89	36833.01
529.07	36814.29
529.24	36629.38
529.41	37001.53
529.58	36748.75
529.75	36746.41
529.92	37289.42
530.09	36671.51
530.26	37013.23
530.43	37186.43
530.60	36655.13
530.77	37263.67
530.94	37188.77
531.11	37275.37
531.28	37383.04
531.46	38040.73
531.63	37699.01
531.80	37387.72
531.97	38003.28
532.14	37790.29
532.31	37589.00
532.48	37972.85
532.65	38244.35
532.82	37780.93
532.99	38017.32
533.16	37956.47
533.33	38469.04
533.50	38534.58
533.67	37804.33
533.84	38370.74
534.01	37818.38
534.18	38366.06
534.35	38820.13
534.52	38590.75
534.69	38745.23
534.86	38646.93
535.03	38543.94
535.20	39199.29
535.37	38859.91
535.54	39075.24
535.71	39012.05
535.88	39079.92
536.05	39173.55
536.22	39161.84
536.38	38862.26
536.55	39306.96
536.72	39459.09
536.89	39110.35
537.06	39276.53
537.23	39332.70
537.40	39629.95
537.57	39309.30
537.74	39416.96
537.91	39548.03
538.08	39723.57
538.25	39248.44
538.42	39552.71
538.59	39908.47
538.75	39634.63
538.92	39819.53
539.09	40175.30
539.26	39929.54
539.43	39800.81
539.60	39859.32
539.77	40048.91
539.94	40350.84
540.11	40013.80
540.28	40327.43
540.44	40308.71
540.61	40524.04
540.78	40163.59
540.95	40091.04
541.12	39936.56
541.29	40435.10
541.46	40388.28
541.62	40444.46
541.79	40634.04
541.96	40320.41
542.13	40748.73
542.30	40318.07
542.47	40741.71
542.63	40580.21
542.80	40865.75
542.97	41060.02
543.14	41469.61
543.31	41329.18
543.48	41076.40
543.64	41493.02
543.81	41111.51
543.98	41315.14
544.15	41102.15
544.32	41839.42
544.48	41811.33
544.65	41607.70
544.82	41855.80
544.99	41607.70
545.16	41579.62
545.32	41392.37
545.49	41624.09
545.66	42120.28
545.83	41926.02
546.00	41900.27
546.16	41914.31
546.33	41893.25
546.50	41422.80
546.67	42101.56
546.83	41460.25
547.00	41722.39
547.17	41949.42
547.34	42433.91
547.50	42476.04
547.67	42447.96
547.84	42579.03
548.00	42267.73
548.17	42635.20
548.34	42609.45
548.51	42394.12
548.67	42792.01
548.84	42684.35
549.01	42527.53
549.18	42436.25
549.34	43105.65
549.51	43023.73
549.68	43117.35
549.84	42696.05
550.01	42593.07
550.18	42724.14
550.34	42820.10
550.51	43229.69
550.68	43386.51
550.84	43192.25
551.01	43189.91
551.18	42796.70
551.34	42941.81
551.51	43386.51
551.68	43079.90
551.84	43597.16
552.01	42642.22
552.18	43260.12
552.34	43292.89
552.51	43522.26
552.68	43260.12
552.84	43973.98
553.01	43622.90
553.18	43372.47
553.34	43573.75
553.51	43728.23
553.67	43770.36
553.84	43899.09
554.01	43962.28
554.17	43700.14
554.34	43711.84
554.51	44067.61
554.67	44186.97
554.84	44247.83
555.00	43924.83
555.17	43772.70
555.33	43903.77
555.50	43885.04
555.67	43992.71
555.83	43847.60
556.00	44439.75
556.16	44626.99
556.33	44086.33
556.50	44596.57
556.66	44030.16
556.83	44100.37
556.99	44355.49
557.16	44552.10
557.32	44636.36
557.49	44114.42
557.65	44542.74
557.82	44327.41
557.98	43885.04
558.15	44861.05
558.32	44762.75
558.48	44233.78
558.65	44648.06
558.81	44821.26
558.98	44535.71
559.14	44484.22
559.31	44811.90
559.47	44641.04
559.64	45106.80
559.80	44699.55
559.97	44568.48
560.13	44781.47
560.30	44699.55
560.46	44917.22
560.63	45130.21
560.79	45193.40
560.96	45478.95
561.12	45195.74
561.29	44928.92
561.45	45097.44
561.61	45057.65
561.78	44809.56
561.94	45081.06
562.11	44968.71
562.27	44481.88
562.44	44959.35
562.60	45865.14
562.77	45478.95
562.93	45041.27
563.10	45464.91
563.26	45027.23
563.42	45488.31
563.59	45317.45
563.75	45153.62
563.92	45118.51
564.08	45249.58
564.24	45621.72
564.41	45258.94
564.57	44856.37
564.74	45464.91
564.90	45069.36
565.07	45368.94
565.23	45439.16
565.39	45177.02
565.56	45485.97
565.72	45441.50
565.88	45261.28
566.05	45418.10
566.21	45556.19
566.38	45518.74
566.54	45530.44
566.70	45642.79
566.87	45923.65
567.03	45172.34
567.19	45830.03
567.36	45151.27
567.52	45586.61
567.68	46038.34
567.85	45492.99
568.01	46316.86
568.17	45942.38
568.34	45933.01
568.50	45390.01
568.66	45729.39
568.83	45748.11
568.99	45954.08
569.15	45488.31
569.32	45617.04
569.48	45624.06
569.64	46150.68
569.81	46094.51
569.97	45797.26
570.13	45766.84
570.30	45860.46
570.46	45984.51
570.62	46398.78
570.78	46007.91
570.95	45947.06
571.11	46660.92
571.27	46021.95
571.43	46019.61
571.60	45979.82
571.76	45773.86
571.92	46291.12
572.09	46054.72
572.25	46054.72
572.41	46071.10
572.57	46181.11
572.74	46323.88
572.90	46375.37
573.06	46717.09
573.22	46164.73
573.38	46174.09
573.55	45895.56
573.71	46574.32
573.87	46618.79
574.03	46223.24
574.20	46808.37
574.36	46216.22
574.52	46328.56
574.68	46085.15
574.84	46717.09
575.01	46391.76
575.17	46298.14
575.33	46452.61
575.49	46279.41
575.65	46492.40
575.82	46445.59
575.98	45970.46
576.14	46176.43
576.30	46813.05
576.46	46499.42
576.62	46326.22
576.79	45783.22
576.95	46183.45
577.11	46356.65
577.27	46230.26
577.43	46248.99
577.59	46389.42
577.75	46150.68
577.92	45720.02
578.08	46335.59
578.24	46185.79
578.40	46756.88
578.56	46368.35
578.72	46380.06
578.88	46597.73
579.04	46567.30
579.21	46227.92
579.37	46628.15
579.53	46171.75
579.69	46302.82
579.85	46726.46
580.01	46960.51
580.17	46520.49
580.33	46593.04
580.49	46513.47
580.65	46457.29
580.82	46763.90
580.98	46256.01
581.14	46483.04
581.30	46440.91
581.46	46270.05
581.62	46227.92
581.78	46527.51
581.94	46920.72
582.10	46270.05
582.26	46834.12
582.42	46756.88
582.58	46714.75
582.74	47040.09
582.90	46335.59
583.06	46813.05
583.22	46604.75
583.38	46483.04
583.54	46656.24
583.70	46806.03
583.86	46344.95
584.02	46834.12
584.18	46749.86
584.34	46639.86
584.50	46955.83
584.66	46756.88
584.82	46677.30
584.98	46930.08
585.14	47021.36
585.30	46504.10
585.46	46972.21
585.62	46431.55
585.78	46714.75
585.94	46412.82
586.10	46773.27
586.26	46646.88
586.42	46876.25
586.58	46813.05
586.74	46511.13
586.90	46770.93
587.06	46506.44
587.22	47274.14
587.38	46176.43
587.54	46775.61
587.70	47037.75
587.86	47037.75
588.02	46710.07
588.18	46377.72
588.34	46824.76
588.49	47070.51
588.65	46667.94
588.81	46780.29
588.97	46965.19
589.13	46941.78
589.29	46754.54
589.45	47241.37
589.61	46883.27
589.77	47086.90
589.93	46550.91
590.08	47264.78
590.24	47381.80
590.40	46969.87
590.56	47304.57
590.72	47220.31
590.88	47449.68
591.04	47154.77
591.20	47229.67
591.35	46990.94
591.51	47524.58
591.67	47524.58
591.83	47250.74
591.99	47306.91
592.15	46899.65
592.31	47030.72
592.46	47227.33
592.62	46995.62
592.78	47445.00
592.94	48009.07
593.10	47580.75
593.26	47536.28
593.41	47660.33
593.57	47555.00
593.73	47309.25
593.89	47562.03
594.05	47358.40
594.20	47187.54
594.36	47704.80
594.52	47749.27
594.68	47536.28
594.84	47402.87
594.99	47810.12
595.15	47161.79
595.31	47601.82
595.47	47297.55
595.62	47641.60
595.78	47288.18
595.94	47435.64
596.10	47229.67
596.25	47330.31
596.41	47522.24
596.57	47704.80
596.73	47730.54
596.88	47716.50
597.04	47566.71
597.20	47929.49
597.36	47650.97
597.51	47718.84
597.67	47042.43
597.83	47365.42
597.99	47400.53
598.14	47388.83
598.30	47529.26
598.46	47524.58
598.61	47491.81
598.77	47608.84
598.93	47665.01
599.09	47428.62
599.24	47803.10
599.40	47437.98
599.56	48039.50
599.71	47952.90
599.87	48161.20
600.03	48004.39
600.18	47849.91
600.34	47433.30
600.50	47585.43
600.65	47515.22
600.81	48168.22
600.97	48189.29
601.12	47863.96
601.28	47704.80
601.44	47580.75
601.59	47437.98
601.75	47585.43
601.91	47899.06
602.06	47323.29
602.22	47873.32
602.37	47583.09
602.53	47770.33
602.69	48051.20
602.84	47473.09
603.00	47662.67
603.16	47564.37
603.31	47533.94
603.47	47852.25
603.62	47704.80
603.78	47615.86
603.94	47999.71
604.09	47929.49
604.25	47594.79
604.40	47913.11
604.56	47634.58
604.71	47674.37
604.87	47632.24
605.03	47590.11
605.18	47765.65
605.34	47482.45
605.49	47732.89
605.65	47835.87
605.80	47580.75
605.96	47583.09
606.12	47566.71
606.27	47615.86
606.43	47143.07
606.58	47622.88
606.74	47632.24
606.89	47667.35
607.05	47562.03
607.20	47648.63
607.36	47735.23
607.51	47264.78
607.67	47707.14
607.82	47398.19
607.98	47580.75
608.13	47482.45
608.29	47545.64
608.44	47681.39
608.60	47440.32
608.75	47646.29
608.91	47166.48
609.06	46806.03
609.22	47573.73
609.37	47416.91
609.53	47524.58
609.68	47178.18
609.84	47576.07
609.99	47653.31
610.15	47657.99
610.30	47353.72
610.46	46988.60
610.61	47065.83
610.76	47227.33
610.92	47213.29
611.07	46869.23
611.23	47129.03
611.38	47112.64
611.54	47337.33
611.69	47763.31
611.84	47260.10
612.00	47229.67
612.15	47107.96
612.31	46979.23
612.46	47203.92
612.62	46976.89
612.77	47065.83
612.92	47171.16
613.08	46674.96
613.23	47173.50
613.39	47412.23
613.54	46962.85
613.69	47047.11
613.85	46934.76
614.00	47257.76
614.15	47084.56
614.31	47325.63
614.46	46990.94
614.62	47122.01
614.77	46733.48
614.92	47171.16
615.08	47091.58
615.23	46955.83
615.38	47070.51
615.54	46731.14
615.69	47199.24
615.84	46756.88
616.00	47096.26
616.15	46834.12
616.30	46733.48
616.46	46831.78
616.61	46721.77
616.76	46808.37
616.92	46745.18
617.07	46794.33
617.22	46918.38
617.37	46721.77
617.53	46979.23
617.68	46913.70
617.83	46705.39
617.99	46728.80
618.14	46799.01
618.29	46698.37
618.45	46127.28
618.60	46234.94
618.75	46078.13
618.90	46272.39
619.06	46494.74
619.21	46749.86
619.36	46677.30
619.51	46483.04
619.67	46164.73
619.82	46387.08
619.97	46401.12
620.12	46422.19
620.28	46527.51
620.43	46546.23
620.58	46115.58
620.73	46302.82
620.89	46541.55
621.04	46660.92
621.19	46281.75
621.34	46064.08
621.49	45902.59
621.65	46342.61
621.80	46405.80
621.95	46167.07
622.10	45895.56
622.25	45787.90
622.41	46174.09
622.56	45766.84
622.71	46190.47
622.86	45738.75
623.01	46085.15
623.16	46005.57
623.32	46031.32
623.47	46096.85
623.62	45797.26
623.77	45736.41
623.92	45909.61
624.07	46071.10
624.23	46019.61
624.38	46050.04
624.53	45595.98
624.68	45411.07
624.83	45652.15
624.98	45406.39
625.13	45357.24
625.29	45787.90
625.44	45673.21
625.59	45787.90
625.74	45617.04
625.89	45605.34
626.04	45544.48
626.19	45331.50
626.34	45268.30
626.49	45329.16
626.65	45617.04
626.80	45694.28
626.95	44959.35
627.10	45324.47
627.25	45200.43
627.40	45390.01
627.55	45563.21
627.70	45113.83
627.85	45067.02
628.00	45455.54
628.15	45305.75
628.30	44559.12
628.45	44741.68
628.60	44608.27
628.76	45151.27
628.91	44910.20
629.06	44940.63
629.21	44683.17
629.36	44938.29
629.51	44545.08
629.66	45298.73
629.81	44800.19
629.96	45284.68
630.11	44732.32
630.26	44737.00
630.41	44746.36
630.56	44758.06
630.71	44739.34
630.86	44598.91
631.01	44814.24
631.16	44758.06
631.31	44528.69
631.46	44484.22
631.61	44671.46
631.76	44767.43
631.91	44781.47
632.06	45031.91
632.21	44837.64
632.36	44767.43
632.51	44573.16
632.66	44451.45
632.81	44301.66
632.96	44444.43
633.10	44612.95
633.25	44320.38
633.40	44495.92
633.55	44687.85
633.70	44526.35
633.85	43966.96
634.00	44128.46
634.15	44245.49
634.30	43714.19
634.45	43931.86
634.60	44655.08
634.75	44268.89
634.90	44013.77
635.05	44254.85
635.19	44229.10
635.34	44313.36
635.49	44023.14
635.64	44189.31
635.79	44121.44
635.94	44126.12
636.09	44116.76
636.24	43859.30
636.39	44238.47
636.53	44217.40
636.68	43739.93
636.83	43548.01
636.98	43592.48
637.13	43700.14
637.28	43398.21
637.43	43824.19
637.57	43800.79
637.72	43606.52
637.87	43304.59
638.02	43632.27
638.17	43459.07
638.32	43688.44
638.46	43075.22
638.61	43381.83
638.76	43253.10
638.91	43318.64
639.06	43044.79
639.20	43316.29
639.35	43007.34
639.50	43005.00
639.65	43107.99
639.80	43765.68
639.94	43438.00
640.09	43475.45
640.24	43435.66
640.39	42679.67
640.54	42721.80
640.68	43166.50
640.83	43269.48
640.98	42941.81
641.13	42969.90
641.27	43175.86
641.42	42876.27
641.57	42770.95
641.72	43222.67
641.86	43145.44
642.01	42719.46
642.16	42953.51
642.31	42454.98
642.45	42738.18
642.60	42394.12
642.75	42632.86
642.90	42595.41
643.04	42934.79
643.19	42630.52
643.34	42534.56
643.48	42225.60
643.63	42703.07
643.78	42398.80
643.93	42574.34
644.07	42827.12
644.22	42483.06
644.37	42405.83
644.51	42892.66
644.66	42838.83
644.81	42724.14
644.95	42557.96
645.10	42162.41
645.25	41743.45
645.39	42387.10
645.54	42220.92
645.69	41907.29
645.83	42206.88
645.98	42005.59
646.13	42033.68
646.27	42017.30
646.42	41816.01
646.57	41933.04
646.71	42143.69
646.86	42220.92
647.00	42436.25
647.15	42279.44
647.30	42014.96
647.44	42356.67
647.59	42148.37
647.74	42162.41
647.88	42305.18
648.03	42220.92
648.17	42438.59
648.32	42007.94
648.47	42316.89
648.61	41659.20
648.76	41968.15
648.90	42167.09
649.05	41628.77
649.20	41656.85
649.34	41481.31
649.49	42080.49
649.63	41965.81
649.78	41750.48
649.92	41537.49
650.07	42204.54
650.21	41848.78
650.36	41890.91
650.51	41696.64
650.65	41722.39
650.80	41923.68
650.94	41624.09
651.09	41322.16
651.23	40870.43
651.38	41596.00
651.52	41181.73
651.67	41455.57
651.81	41614.72
651.96	41439.18
652.10	40891.50
652.25	40776.81
652.39	41493.02
652.54	41696.64
652.68	40896.18
652.83	41277.69
652.97	41593.66
653.12	41125.55
653.26	40816.60
653.41	41322.16
653.55	41193.43
653.70	41429.82
653.84	41263.64
653.99	40989.80
654.13	41170.02
654.27	41085.76
654.42	41296.41
654.56	40980.44
654.71	40914.90
654.85	40596.59
655.00	41179.39
655.14	41083.42
655.29	40905.54
655.43	40996.82
655.57	40912.56
655.72	40584.89
655.86	40360.20
656.01	40320.41
656.15	40128.48
656.30	40509.99
656.44	40580.21
656.58	40627.02
656.73	40404.67
656.87	40645.74
657.01	40217.43
657.16	40460.84
657.30	40762.77
657.45	40271.26
657.59	40147.21
657.73	39613.57
657.88	40081.67
658.02	40563.82
658.16	40217.43
658.31	40399.99
658.45	40191.68
658.60	39765.70
658.74	40301.68
658.88	40154.23
659.03	39777.40
659.17	39754.00
659.31	39969.33
659.46	39636.97
659.60	39819.53
659.74	39459.09
659.89	39325.68
660.03	39484.84
660.17	39634.63
660.32	39723.57
660.46	39585.48
660.60	39033.11
660.74	39646.33
660.89	39342.06
661.03	39091.63
661.17	38541.60
661.32	39325.68
661.46	39026.09
661.60	39119.71
661.74	39093.97
661.89	38880.98
662.03	39061.20
662.17	38614.16
662.31	38909.07
662.46	38848.21
662.60	38576.71
662.74	38410.53
662.88	38494.79
663.03	38452.66
663.17	38337.98
663.31	38178.82
663.45	38740.55
663.60	38345.00
663.74	38316.91
663.88	38113.28
664.02	37785.61
664.17	38672.67
664.31	37972.85
664.45	38054.77
664.59	38389.47
664.73	38176.48
664.88	37759.86
665.02	37773.91
665.16	37727.10
665.30	38029.02
665.44	37750.50
665.59	37495.38
665.73	37596.03
665.87	37013.23
666.01	37656.88
666.15	37474.32
666.29	37495.38
666.44	37521.13
666.58	37088.13
666.72	37141.96
666.86	37088.13
667.00	37064.72
667.14	37378.36
667.28	36643.43
667.43	36811.95
667.57	37015.57
667.71	36685.56
667.85	37074.09
667.99	36725.35
668.13	36671.51
668.27	36533.42
668.41	36694.92
668.56	35910.84
668.70	36570.87
668.84	35875.73
668.98	35992.76
669.12	36172.98
669.26	36062.97
669.40	36107.44
669.54	36020.84
669.68	36280.64
669.82	36041.91
669.96	35826.58
670.10	35480.18
670.25	35751.68
670.39	35337.41
670.53	35821.90
670.67	35709.55
670.81	35910.84
670.95	35637.00
671.09	35541.03
671.23	35101.01
671.37	35068.25
671.51	35416.99
671.65	35215.70
671.79	35414.65
671.93	34979.31
672.07	34983.99
672.21	35152.51
672.35	34660.99
672.49	34670.36
672.63	34892.71
672.77	34749.93
672.91	34597.80
673.05	34384.81
673.19	34059.48
673.33	33977.56
673.47	34162.46
673.61	33654.56
673.75	33766.91
673.89	33858.19
674.03	33928.41
674.17	33680.31
674.31	33539.88
674.45	33427.53
674.59	33757.55
674.73	33434.55
674.87	32898.57
675.01	33544.56
675.15	32907.93
675.29	32676.22
675.43	33237.95
675.56	32891.55
675.70	32919.63
675.84	33158.37
675.98	31704.90
676.12	32556.85
676.26	32811.97
676.40	32086.40
676.54	32442.17
676.68	32170.66
676.82	31805.54
676.96	32341.52
677.10	32182.37
677.23	31936.61
677.37	31744.69
677.51	31651.06
677.65	31737.66
677.79	31400.63
677.93	31356.16
678.07	31445.10
678.21	31346.79
678.34	31129.12
678.48	30778.04
678.62	30815.49
678.76	30845.92
678.90	30607.19
679.04	31033.16
679.18	30831.88
679.31	30525.27
679.45	30696.13
679.59	30085.25
679.73	30551.01
679.87	30061.84
680.00	30024.39
680.14	30183.55
680.28	29544.58
680.42	29802.04
680.56	29975.24
680.70	29827.79
680.83	29537.56
680.97	29270.74
681.11	29535.22
681.25	29242.65
681.39	28826.04
681.52	28833.06
681.66	28947.75
681.80	28224.52
681.94	28446.87
682.07	28180.05
682.21	28868.17
682.35	28460.91
682.49	28130.90
682.62	28311.12
682.76	28496.02
682.90	28048.98
683.04	27852.38
683.17	27957.70
683.31	27440.44
683.45	27637.05
683.59	27468.53
683.72	27428.74
683.86	27328.10
684.00	27105.74
684.13	27197.02
684.27	27005.10
684.41	26724.24
684.55	27159.58
684.68	26867.01
684.82	26794.45
684.96	26799.13
685.09	26684.45
685.23	26426.99
685.37	26560.40
685.50	26551.04
685.64	26417.63
685.78	26096.97
685.91	25858.24
686.05	25331.62
686.19	25455.67
686.32	25514.18
686.46	25556.31
686.60	25434.60
686.73	25502.48
686.87	25373.75
687.01	25116.29
687.14	25020.33
687.28	24971.18
687.42	25006.28
687.55	24549.88
687.69	24891.60
687.82	24519.45
687.96	24584.99
688.10	24437.53
688.23	24367.32
688.37	24512.43
688.50	24547.54
688.64	24011.56
688.78	24446.90
688.91	23927.30
689.05	24287.74
689.18	23683.88
689.32	23356.21
689.46	23510.68
689.59	23232.16
689.73	23491.96
689.86	23613.66
690.00	23396.00
690.13	23314.08
690.27	22810.86
690.41	23094.07
690.54	22649.36
690.68	22728.94
690.81	22988.74
690.95	22595.53
691.08	22256.15
691.22	22494.89
691.35	22373.18
691.49	22342.75
691.62	22455.10
691.76	22134.45
691.89	21640.59
692.03	21666.34
692.16	21661.66
692.30	21418.24
692.43	21586.76
692.57	21090.57
692.70	21399.52
692.84	21137.38
692.97	21074.18
693.11	20889.28
693.24	20695.02
693.38	20807.36
693.51	20720.76
693.65	20533.52
693.78	20631.82
693.92	20437.56
694.05	20493.73
694.19	20372.02
694.32	20156.69
694.45	20519.48
694.59	20409.47
694.72	20587.35
694.86	19854.76
694.99	19824.34
695.13	19716.67
695.26	19604.33
695.39	19304.74
695.53	19868.81
695.66	19562.20
695.80	19269.63
695.93	19379.64
696.07	19073.03
696.20	18902.17
696.33	18743.01
696.47	18724.29
696.60	18434.06
696.73	18773.44
696.87	18597.90
697.00	18614.28
697.14	18501.93
697.27	18174.26
697.40	18422.36
697.54	18200.01
697.67	18022.12
697.80	18052.55
697.94	17783.39
698.07	17841.90
698.21	17759.98
698.34	17893.40
698.47	17411.25
698.61	17214.64
698.74	17289.54
698.87	17221.66
699.01	17172.51
699.14	17235.70
699.27	17071.87
699.40	17097.61
699.54	16788.66
699.67	16795.68
699.80	16877.60
699.94	16531.20
700.07	16739.51
700.20	16573.33
700.34	16655.25
700.47	16482.05
700.60	16589.72
700.73	16421.20
700.87	16294.81
701.00	16013.95
701.13	15852.45
701.26	15978.84
701.40	15847.77
701.53	15702.65
701.66	15786.91
701.79	15887.56
701.93	15559.88
702.06	15302.42
702.19	15379.66
702.32	15424.13
702.46	15431.15
702.59	15295.40
702.72	15222.84
702.85	15393.70
702.99	15066.03
703.12	15220.50
703.25	14750.06
703.38	14827.29
703.51	14649.41
703.65	14530.05
703.78	14356.85
703.91	14291.31
704.04	14281.95
704.17	14391.95
704.31	14249.18
704.44	14270.25
704.57	14139.18
704.70	14260.88
704.83	13898.10
704.96	13598.51
705.10	13678.09
705.23	13806.82
>>>>>End Processed Spectral Data<<<<<
