SpectraSuite Data File
++++++++++++++++++++++++++++++++++++
Date: Fri Oct 25 10:44:29 EDT 2013
User: price-jones
Dark Spectrum Present: No
Reference Spectrum Present: No
Number of Sampled Component Spectra: 1
Spectrometers: USB2+H05261
Integration Time (usec): 100000 (USB2+H05261)
Spectra Averaged: 1 (USB2+H05261)
Boxcar Smoothing: 0 (USB2+H05261)
Correct for Electrical Dark: No (USB2+H05261)
Strobe/Lamp Enabled: No (USB2+H05261)
Correct for Detector Non-linearity: No (USB2+H05261)
Correct for Stray Light: No (USB2+H05261)
Number of Pixels in Processed Spectrum: 2048
>>>>>Begin Processed Spectral Data<<<<<
365.73	70.22
365.92	70.22
366.12	70.22
366.32	53.83
366.52	0.00
366.72	60.85
366.91	39.79
367.11	51.49
367.31	35.11
367.51	16.38
367.70	0.00
367.90	0.00
368.10	30.43
368.30	0.00
368.49	0.00
368.69	44.47
368.89	11.70
369.09	140.43
369.28	91.28
369.48	110.01
369.68	91.28
369.87	56.17
370.07	58.51
370.27	163.84
370.47	198.95
370.66	367.46
370.86	423.64
371.06	428.32
371.25	573.43
371.45	543.00
371.65	425.98
371.84	468.11
372.04	444.70
372.24	507.90
372.44	475.13
372.63	456.40
372.83	540.66
373.03	561.73
373.22	524.28
373.42	463.43
373.62	533.64
373.81	573.43
374.01	550.03
374.21	554.71
374.40	634.29
374.60	575.77
374.79	580.45
374.99	580.45
375.19	554.71
375.38	688.12
375.58	566.41
375.78	653.01
375.97	655.35
376.17	561.73
376.37	578.11
376.56	543.00
376.76	582.79
376.95	608.54
377.15	603.86
377.35	624.92
377.54	613.22
377.74	594.50
377.93	655.35
378.13	730.25
378.33	648.33
378.52	587.47
378.72	624.92
378.91	641.31
379.11	676.41
379.31	645.99
379.50	589.82
379.70	681.10
379.89	662.37
380.09	650.67
380.28	697.48
380.48	695.14
380.68	662.37
380.87	643.65
381.07	697.48
381.26	770.04
381.46	697.48
381.65	706.84
381.85	657.69
382.04	667.05
382.24	671.73
382.43	617.90
382.63	720.88
382.83	753.65
383.02	802.80
383.22	800.46
383.41	727.91
383.61	748.97
383.80	751.31
384.00	765.36
384.19	751.31
384.39	816.85
384.58	833.23
384.78	791.10
384.97	812.17
385.17	795.78
385.36	828.55
385.56	915.15
385.75	873.02
385.95	760.67
386.14	842.59
386.34	908.13
386.53	807.48
386.72	814.51
386.92	880.04
387.11	863.66
387.31	805.14
387.50	866.00
387.70	765.36
387.89	940.90
388.09	877.70
388.28	880.04
388.48	891.74
388.67	938.55
388.86	898.77
389.06	940.90
389.25	947.92
389.45	901.11
389.64	903.45
389.84	959.62
390.03	933.87
390.22	1078.99
390.42	973.66
390.61	1022.81
390.81	954.94
391.00	1015.79
391.19	1004.09
391.39	1043.88
391.58	1088.35
391.78	980.68
391.97	1015.79
392.16	1022.81
392.36	961.96
392.55	990.05
392.75	973.66
392.94	1013.45
393.13	1048.56
393.33	968.98
393.52	1027.50
393.71	1078.99
393.91	1156.22
394.10	1060.26
394.29	1144.52
394.49	1107.07
394.68	1303.68
394.88	1238.14
395.07	1224.10
395.26	1163.25
395.46	1193.67
395.65	1284.95
395.84	1210.06
396.04	1219.42
396.23	1217.08
396.42	1240.48
396.62	1156.22
396.81	1139.84
397.00	1219.42
397.19	1359.85
397.39	1331.76
397.58	1313.04
397.77	1376.24
397.97	1371.55
398.16	1411.34
398.35	1380.92
398.55	1462.83
398.74	1434.75
398.93	1425.39
399.12	1490.92
399.32	1406.66
399.51	1511.99
399.70	1481.56
399.90	1446.45
400.09	1598.59
400.28	1495.60
400.47	1568.16
400.67	1643.06
400.86	1556.46
401.05	1509.65
401.24	1598.59
401.44	1598.59
401.63	1774.13
401.82	1671.14
402.01	1736.68
402.21	1755.40
402.40	1720.29
402.59	1687.53
402.78	1764.76
402.97	1724.97
403.17	1790.51
403.36	1816.26
403.55	1774.13
403.74	1774.13
403.93	1853.70
404.13	1806.89
404.32	1834.98
404.51	1870.09
404.70	1926.26
404.89	1820.94
405.09	1877.11
405.28	1973.07
405.47	2026.90
405.66	1891.15
405.85	1989.46
406.05	2003.50
406.24	1947.33
406.43	1921.58
406.62	2069.03
406.81	2134.57
407.00	1912.22
407.20	1973.07
407.39	2029.24
407.58	2062.01
407.77	2167.34
407.96	2122.87
408.15	2134.57
408.34	2179.04
408.54	2176.70
408.73	2211.81
408.92	2260.96
409.11	2275.00
409.30	2153.29
409.49	2207.13
409.68	2267.98
409.87	2223.51
410.07	2218.83
410.26	2275.00
410.45	2256.28
410.64	2230.53
410.83	2441.18
411.02	2410.75
411.21	2490.33
411.40	2478.63
411.59	2712.68
411.78	2583.95
411.98	2590.97
412.17	2593.31
412.36	2689.28
412.55	2614.38
412.74	2600.34
412.93	2726.72
413.12	2745.45
413.31	2834.39
413.50	2670.55
413.69	2878.86
413.88	2855.45
414.07	2846.09
414.26	2897.58
414.45	2832.05
414.64	2867.16
414.83	2925.67
415.02	2946.73
415.22	3028.65
415.41	3141.00
415.60	2953.76
415.79	3103.55
415.98	3269.73
416.17	3129.30
416.36	2995.89
416.55	3269.73
416.74	3178.45
416.93	3372.71
417.12	3314.20
417.31	3281.43
417.50	3297.81
417.69	3473.36
417.88	3407.82
418.07	3321.22
418.26	3428.88
418.45	3370.37
418.64	3527.19
418.83	3442.93
419.02	3417.18
419.21	3426.54
419.39	3543.57
419.58	3410.16
419.77	3431.23
419.96	3611.45
420.15	3613.79
420.34	3562.30
420.53	3585.70
420.72	3667.62
420.91	3726.13
421.10	3709.75
421.29	3712.09
421.48	3658.26
421.67	3754.22
421.86	3779.97
422.05	3686.34
422.24	3676.98
422.43	3712.09
422.61	3796.35
422.80	3798.69
422.99	3882.95
423.18	3901.67
423.37	3983.59
423.56	3866.56
423.75	3906.35
423.94	3796.35
424.13	3606.77
424.32	3698.05
424.50	3875.93
424.69	3857.20
424.88	3847.84
425.07	3887.63
425.26	3859.54
425.45	3878.27
425.64	3908.69
425.83	3985.93
426.01	3840.82
426.20	3889.97
426.39	3974.23
426.58	3859.54
426.77	3875.93
426.96	3920.40
427.15	3880.61
427.33	4004.66
427.52	3957.85
427.71	3936.78
427.90	4093.60
428.09	4009.34
428.28	4016.36
428.46	4189.56
428.65	3978.91
428.84	4119.34
429.03	4224.67
429.22	4011.68
429.40	4102.96
429.59	4072.53
429.78	3836.14
429.97	3948.48
430.16	3969.55
430.34	3962.53
430.53	4140.41
430.72	4182.54
430.91	4060.83
431.10	4243.39
431.28	4372.12
431.47	4578.09
431.66	4545.32
431.85	4411.91
432.03	4547.66
432.22	4430.63
432.41	4606.17
432.60	4585.11
432.79	4435.32
432.97	4589.79
433.16	4671.71
433.35	4477.44
433.54	4524.26
433.72	4793.42
433.91	4610.86
434.10	4624.90
434.28	4744.27
434.47	4664.69
434.66	4781.71
434.85	4861.29
435.03	4851.93
435.22	4840.23
435.41	4915.12
435.59	4952.57
435.78	4978.32
435.97	4802.78
436.16	5034.49
436.34	4983.00
436.53	5128.11
436.72	4992.36
436.90	4975.98
437.09	5188.97
437.28	4858.95
437.46	5013.43
437.65	5172.58
437.84	5083.64
438.02	4983.00
438.21	5088.32
438.40	4985.34
438.58	5282.59
438.77	5322.38
438.96	5390.25
439.14	5472.17
439.33	5521.32
439.52	5476.85
439.70	5605.58
439.89	5757.72
440.08	5572.82
440.26	5605.58
440.45	5614.95
440.63	5832.62
440.82	5877.09
441.01	5741.33
441.19	5923.90
441.38	5912.19
441.57	5921.56
441.75	5942.62
441.94	6174.33
442.12	6127.52
442.31	6277.32
442.50	6017.52
442.68	6139.23
442.87	6150.93
443.05	6319.45
443.24	6326.47
443.43	6272.64
443.61	6359.24
443.80	6443.49
443.98	6150.93
444.17	6078.37
444.35	6377.96
444.54	6403.71
444.73	6497.33
444.91	6317.11
445.10	6382.64
445.28	6258.59
445.47	6422.43
445.65	6094.76
445.84	6368.60
446.02	6312.42
446.21	6342.85
446.39	6277.32
446.58	6663.51
446.77	6478.60
446.95	6333.49
447.14	6593.29
447.32	6583.93
447.51	6497.33
447.69	6494.99
447.88	6597.97
448.06	6518.39
448.25	6724.36
448.43	6450.52
448.62	6483.28
448.80	6565.20
448.99	6670.53
449.17	6705.63
449.36	6635.42
449.54	6841.39
449.73	6923.30
449.91	7009.90
450.10	6995.86
450.28	7005.22
450.46	6911.60
450.65	6942.03
450.83	7066.08
451.02	7007.56
451.20	7122.25
451.39	7002.88
451.57	7016.93
451.76	6935.01
451.94	7007.56
452.13	7208.85
452.31	7082.46
452.49	6913.94
452.68	7040.33
452.86	7026.29
453.05	7162.04
453.23	7082.46
453.42	7215.87
453.60	7077.78
453.78	7379.71
453.97	7229.91
454.15	7307.15
454.34	7213.53
454.52	7424.18
454.70	7470.99
454.89	7372.69
455.07	7384.39
455.26	7510.78
455.44	7527.16
455.62	7597.38
455.81	7723.77
455.99	7749.51
456.17	7819.73
456.36	7644.19
456.54	7506.10
456.73	7681.64
456.91	7875.90
457.09	7817.39
457.28	8149.75
457.46	7981.23
457.64	8060.80
457.83	8002.29
458.01	7941.44
458.19	7936.76
458.38	7967.18
458.56	8131.02
458.74	8042.08
458.93	7950.80
459.11	8142.72
459.29	8049.10
459.48	8173.15
459.66	8046.76
459.84	8210.60
460.03	8264.43
460.21	8442.31
460.39	8374.44
460.57	8184.85
460.76	8507.85
460.94	8430.61
461.12	8571.04
461.31	8372.10
461.49	8381.46
461.67	8278.47
461.85	8615.51
462.04	8540.61
462.22	8706.79
462.40	8830.84
462.59	8594.45
462.77	8669.34
462.95	8638.92
463.13	8842.54
463.32	8706.79
463.50	8800.41
463.68	8830.84
463.86	8912.76
464.05	8589.77
464.23	8594.45
464.41	8805.10
464.59	8650.62
464.78	8875.31
464.96	8936.17
465.14	8896.38
465.32	8901.06
465.50	9158.52
465.69	9172.56
465.87	9069.58
466.05	8982.98
466.23	8959.57
466.41	9043.83
466.60	9177.24
466.78	8816.80
466.96	8936.17
467.14	9228.73
467.32	9172.56
467.51	9521.30
467.69	9015.74
467.87	9060.21
468.05	9263.84
468.23	9256.82
468.41	9427.68
468.60	9214.69
468.78	9427.68
468.96	9441.72
469.14	9371.50
469.32	9673.43
469.50	9336.40
469.69	9511.94
469.87	9652.37
470.05	9654.71
470.23	9708.54
470.41	9650.03
470.59	9713.22
470.77	9650.03
470.95	9963.66
471.14	9813.87
471.32	9750.67
471.50	9926.21
471.68	10097.07
471.86	10052.60
472.04	10146.22
472.22	10289.00
472.40	10164.95
472.58	10122.82
472.77	10167.29
472.95	10303.04
473.13	10672.84
473.31	10237.50
473.49	10476.24
473.67	10328.78
473.85	10455.17
474.03	10740.72
474.21	10693.91
474.39	10965.41
474.57	10820.30
474.75	10963.07
474.93	10946.69
475.12	10839.02
475.30	10761.78
475.48	10843.70
475.66	10965.41
475.84	11096.48
476.02	11164.36
476.20	11162.01
476.38	11323.51
476.56	11709.70
476.74	11552.88
476.92	11660.55
477.10	11580.97
477.28	11728.42
477.46	11723.74
477.64	11957.80
477.82	11953.12
478.00	12325.26
478.18	12135.68
478.36	12339.30
478.54	12231.64
478.72	12613.15
478.90	12615.49
479.08	12510.16
479.26	12664.64
479.44	13060.19
479.62	12870.61
479.80	13018.06
479.98	13366.80
480.16	13495.53
480.34	13329.35
480.52	13303.60
480.70	13474.46
480.88	13219.35
481.06	13832.57
481.24	13642.98
481.41	13858.31
481.59	14157.90
481.77	14293.65
481.95	14122.79
482.13	14410.68
482.31	14223.44
482.49	14719.63
482.67	14586.22
482.85	14710.27
483.03	14736.01
483.21	15056.67
483.39	15159.65
483.57	15183.06
483.74	15101.14
483.92	15379.66
484.10	15328.17
484.28	15679.25
484.46	16086.50
484.64	15810.32
484.82	15531.80
485.00	15819.68
485.18	16142.67
485.35	16313.53
485.53	15861.81
485.71	15854.79
485.89	16297.15
486.07	16119.27
486.25	16519.50
486.43	16681.00
486.61	16814.41
486.78	16919.73
486.96	17158.47
487.14	17334.01
487.32	17570.40
487.50	17511.89
487.68	18139.15
487.85	17984.68
488.03	18003.40
488.21	18061.91
488.39	18298.31
488.57	18373.21
488.75	18555.77
488.92	18740.67
489.10	19073.03
489.28	18831.95
489.46	19112.81
489.64	19463.90
489.81	19683.91
489.99	19517.73
490.17	19969.45
490.35	20339.26
490.53	19955.41
490.70	20350.96
490.88	20533.52
491.06	20493.73
491.24	20315.85
491.41	20460.96
491.59	20446.92
491.77	20713.74
491.95	20982.90
492.13	21132.70
492.30	21240.36
492.48	21305.90
492.66	21392.50
492.84	21413.56
493.01	21713.15
493.19	21785.71
493.37	21965.93
493.54	21858.26
493.72	22291.26
493.90	22314.67
494.08	22511.27
494.25	22689.15
494.43	22775.75
494.61	22881.08
494.79	22843.63
494.96	23300.03
495.14	23136.20
495.32	23192.37
495.49	23587.92
495.67	23562.17
495.85	23461.53
496.02	24184.76
496.20	24030.28
496.38	24130.92
496.55	24292.42
496.73	24713.72
496.91	24547.54
497.09	24584.99
497.26	24713.72
497.44	24648.18
497.62	24882.24
497.79	25057.78
497.97	24720.74
498.14	24847.13
498.32	25322.26
498.50	25067.14
498.67	25560.99
498.85	25481.41
499.03	25771.64
499.20	26008.03
499.38	26033.78
499.56	25729.51
499.73	26080.59
499.91	25961.22
500.08	26094.63
500.26	26012.71
500.44	26146.12
500.61	26272.51
500.79	26221.02
500.97	26352.09
501.14	26455.08
501.32	26799.13
501.49	26649.34
501.67	26789.77
501.84	26937.23
502.02	26969.99
502.20	27477.89
502.37	27548.11
502.55	27597.26
502.72	27658.11
502.90	27833.65
503.07	27470.87
503.25	27718.96
503.43	27744.71
503.60	27791.52
503.78	27550.45
503.95	27854.72
504.13	28149.62
504.30	27838.33
504.48	27838.33
504.65	28481.98
504.83	28673.90
505.01	28467.94
505.18	28545.17
505.36	29020.30
505.53	29078.82
505.71	29212.23
505.88	29280.10
506.06	28872.85
506.23	29139.67
506.41	29240.31
506.58	29270.74
506.76	29310.53
506.93	29736.51
507.11	29446.28
507.28	29214.57
507.46	29677.99
507.63	29617.14
507.81	29734.17
507.98	29481.39
508.16	30066.52
508.33	30246.74
508.50	30377.81
508.68	30408.24
508.85	30450.37
509.03	30508.88
509.20	30576.76
509.38	30749.96
509.55	30429.30
509.73	30670.38
509.90	31000.40
510.08	30831.88
510.25	31105.72
510.42	31255.51
510.60	31250.83
510.77	31227.43
510.95	31641.70
511.12	31297.64
511.30	31257.85
511.47	32208.11
511.64	32023.21
511.82	32257.26
511.99	31637.02
512.17	31964.70
512.34	31910.86
512.51	32488.98
512.69	32463.23
512.86	32362.59
513.04	32498.34
513.21	32723.03
513.38	32570.90
513.56	32734.73
513.73	32107.47
513.90	32718.35
514.08	32727.71
514.25	32570.90
514.43	32907.93
514.60	32486.64
514.77	32531.11
514.95	33610.09
515.12	33256.67
515.29	33024.96
515.47	33846.49
515.64	33869.89
515.81	33078.79
515.99	33514.13
516.16	32907.93
516.33	33455.62
516.51	33235.61
516.68	32971.13
516.85	33259.01
517.03	33109.22
517.20	33244.97
517.37	33500.09
517.54	33560.94
517.72	34005.64
517.89	33605.41
518.06	33537.54
518.24	33362.00
518.41	33942.45
518.58	33942.45
518.75	34136.71
518.93	34462.05
519.10	34300.55
519.27	34628.23
519.45	34850.58
519.62	34890.37
519.79	34855.26
519.96	34576.73
520.14	35028.46
520.31	34410.56
520.48	34810.79
520.65	35171.23
520.83	35611.25
521.00	35292.94
521.17	35747.00
521.34	35271.87
521.52	35707.21
521.69	35573.80
521.86	35620.61
522.03	36208.09
522.20	35864.03
522.38	35854.67
522.55	36201.07
522.72	36259.58
522.89	35896.80
523.07	36074.68
523.24	36407.03
523.41	36547.47
523.58	35988.08
523.75	36650.45
523.92	36608.32
524.10	36540.44
524.27	36519.38
524.44	37312.82
524.61	36737.05
524.78	37198.13
524.96	37006.21
525.13	37443.89
525.30	37022.59
525.47	37483.68
525.64	37408.78
525.81	37221.54
525.98	37078.77
526.16	37036.64
526.33	37357.29
526.50	37195.79
526.67	36615.34
526.84	36825.99
527.01	37289.42
527.18	37535.17
527.36	37790.29
527.53	37663.90
527.70	38494.79
527.87	38007.96
528.04	37759.86
528.21	38696.08
528.38	38279.46
528.55	38253.72
528.72	38075.84
528.89	38497.13
529.07	38513.52
529.24	38401.17
529.41	38766.29
529.58	38667.99
529.75	38267.76
529.92	38628.20
530.09	38927.79
530.26	38778.00
530.43	38447.98
530.60	38443.30
530.77	38611.82
530.94	38925.45
531.11	38539.26
531.28	38927.79
531.46	39316.32
531.63	39159.50
531.80	39063.54
531.97	39108.01
532.14	39100.99
532.31	38983.96
532.48	39201.63
532.65	39557.39
532.82	39358.45
532.99	39508.24
533.16	39426.32
533.33	39482.50
533.50	39707.19
533.67	39686.12
533.84	38932.47
534.01	39192.27
534.18	39728.25
534.35	40053.59
534.52	39840.60
534.69	40062.95
534.86	40334.45
535.03	39873.37
535.20	40250.19
535.37	40030.18
535.54	40643.40
535.71	40575.53
535.88	40240.83
536.05	40484.25
536.22	40528.72
536.38	40636.38
536.55	40297.00
536.72	40069.97
536.89	40332.11
537.06	40652.76
537.23	40411.69
537.40	40870.43
537.57	40648.08
537.74	40620.00
537.91	41186.41
538.08	40753.41
538.25	40559.14
538.42	40964.06
538.59	41137.26
538.75	40531.06
538.92	41048.32
539.09	41343.22
539.26	41172.36
539.43	40786.18
539.60	41155.98
539.77	40577.87
539.94	40971.08
540.11	41127.89
540.28	40959.38
540.44	41230.88
540.61	41116.19
540.78	41153.64
540.95	41076.40
541.12	41205.13
541.29	41167.68
541.46	41574.94
541.62	41724.73
541.79	41640.47
541.96	41390.03
542.13	41450.89
542.30	41698.98
542.47	41792.61
542.63	41549.19
542.80	41860.48
542.97	42272.42
543.14	42431.57
543.31	42375.40
543.48	42487.74
543.64	42843.51
543.81	42742.86
543.98	42344.97
544.15	42583.71
544.32	42305.18
544.48	42979.26
544.65	42761.59
544.82	42419.87
544.99	42487.74
545.16	42525.19
545.32	42473.70
545.49	42906.70
545.66	42799.04
545.83	43274.16
546.00	43217.99
546.16	43126.71
546.33	42548.60
546.50	42373.06
546.67	42997.98
546.83	42300.50
547.00	43210.97
547.17	42913.72
547.34	42845.85
547.50	43058.84
547.67	43143.09
547.84	43517.58
548.00	43414.60
548.17	43606.52
548.34	43423.96
548.51	43711.84
548.67	43459.07
548.84	43543.33
549.01	43543.33
549.18	43234.38
549.34	43665.03
549.51	43374.81
549.68	43606.52
549.84	42784.99
550.01	43662.69
550.18	43920.15
550.34	43962.28
550.51	43304.59
550.68	43271.82
550.84	43494.18
551.01	43985.69
551.18	43789.08
551.34	43817.17
551.51	44107.40
551.68	44147.18
551.84	43772.70
552.01	43742.27
552.18	44205.70
552.34	43746.95
552.51	44051.22
552.68	43924.83
552.84	44264.21
553.01	44055.90
553.18	43955.26
553.34	44126.12
553.51	43826.53
553.67	44322.72
553.84	44093.35
554.01	44596.57
554.17	44825.94
554.34	44172.93
554.51	44453.79
554.67	45034.25
554.84	43831.21
555.00	44254.85
555.17	44313.36
555.33	44240.81
555.50	44289.96
555.67	44538.05
555.83	44311.02
556.00	44182.29
556.16	44699.55
556.33	44161.23
556.50	44378.90
556.66	44947.65
556.83	44538.05
556.99	44493.58
557.16	44751.04
557.32	44526.35
557.49	44505.29
557.65	44701.89
557.82	44509.97
557.98	45006.16
558.15	45057.65
558.32	44842.32
558.48	44701.89
558.65	45118.51
558.81	44786.15
558.98	44411.67
559.14	44484.22
559.31	44961.69
559.47	44753.38
559.64	44971.05
559.80	45280.00
559.97	44971.05
560.13	44973.39
560.30	44802.53
560.46	45116.17
560.63	45308.09
560.79	45427.46
560.96	45502.35
561.12	45041.27
561.29	45181.70
561.45	44879.77
561.61	45329.16
561.78	45097.44
561.94	44999.14
562.11	45485.97
562.27	45219.15
562.44	45361.92
562.60	45970.46
562.77	45542.14
562.93	45567.89
563.10	45200.43
563.26	45174.68
563.42	45177.02
563.59	44765.09
563.75	45427.46
563.92	45551.51
564.08	45390.01
564.24	45350.22
564.41	45368.94
564.57	45228.51
564.74	45532.78
564.90	45673.21
565.07	45574.91
565.23	45595.98
565.39	45296.39
565.56	45235.53
565.72	45352.56
565.88	45673.21
566.05	45298.73
566.21	45193.40
566.38	45502.35
566.54	45537.46
566.70	45727.05
566.87	45963.44
567.03	45303.41
567.19	46078.13
567.36	45516.40
567.52	45773.86
567.68	45925.99
567.85	45769.18
568.01	45923.65
568.17	45495.33
568.34	45574.91
568.50	45586.61
568.66	45698.96
568.83	45869.82
568.99	45083.40
569.15	45521.08
569.32	45387.67
569.48	45689.60
569.64	45481.29
569.81	45698.96
569.97	45818.33
570.13	45872.16
570.30	45347.88
570.46	45556.19
570.62	45514.06
570.78	45427.46
570.95	45455.54
571.11	45708.32
571.27	45661.51
571.43	45752.79
571.60	45528.10
571.76	45354.90
571.92	45633.42
572.09	45572.57
572.25	45652.15
572.41	45591.30
572.57	46251.33
572.74	45963.44
572.90	45918.97
573.06	45682.58
573.22	45539.80
573.38	45680.24
573.55	45368.94
573.71	46089.83
573.87	45670.87
574.03	45680.24
574.20	45895.56
574.36	45560.87
574.52	45930.67
574.68	45979.82
574.84	45467.25
575.01	45432.14
575.17	46005.57
575.33	45364.26
575.49	45635.77
575.65	45766.84
575.82	46103.87
575.98	45769.18
576.14	46122.60
576.30	45797.26
576.46	45738.75
576.62	45588.95
576.79	46014.93
576.95	45418.10
577.11	45963.44
577.27	46188.13
577.43	45815.99
577.59	45713.00
577.75	46270.05
577.92	45315.11
578.08	45507.04
578.24	46024.29
578.40	45469.59
578.56	45954.08
578.72	45741.09
578.88	46679.64
579.04	45916.63
579.21	45804.28
579.37	45933.01
579.53	45872.16
579.69	45757.47
579.85	46246.65
580.01	45717.68
580.17	45998.55
580.33	46248.99
580.49	45879.18
580.65	45961.10
580.82	46019.61
580.98	46019.61
581.14	46160.05
581.30	46398.78
581.46	45909.61
581.62	45823.01
581.78	45951.74
581.94	46569.64
582.10	45811.31
582.26	45799.60
582.42	45684.92
582.58	45652.15
582.74	45918.97
582.90	46171.75
583.06	46096.85
583.22	46094.51
583.38	46045.36
583.54	46258.35
583.70	45734.07
583.86	45993.87
584.02	46174.09
584.18	45872.16
584.34	45722.37
584.50	45701.30
584.66	45624.06
584.82	45918.97
584.98	46141.32
585.14	46010.25
585.30	45640.45
585.46	45869.82
585.62	45745.77
585.78	45998.55
585.94	45345.54
586.10	45918.97
586.26	46068.76
586.42	45982.16
586.58	46073.45
586.74	46026.63
586.90	45883.86
587.06	45654.49
587.22	46096.85
587.38	46157.70
587.54	45989.19
587.70	46157.70
587.86	46050.04
588.02	46068.76
588.18	46162.39
588.34	45626.40
588.49	45806.62
588.65	45200.43
588.81	45333.84
588.97	45734.07
589.13	45553.85
589.29	45780.88
589.45	45666.19
589.61	45783.22
589.77	46040.68
589.93	46248.99
590.08	46405.80
590.24	46344.95
590.40	46300.48
590.56	46260.69
590.72	46157.70
590.88	45764.49
591.04	46148.34
591.20	46075.79
591.35	46323.88
591.51	46625.81
591.67	46239.62
591.83	46305.16
591.99	45975.14
592.15	46241.96
592.31	46401.12
592.46	46223.24
592.62	46204.52
592.78	46494.74
592.94	46511.13
593.10	46293.46
593.26	46436.23
593.41	46117.92
593.57	46019.61
593.73	46239.62
593.89	46305.16
594.05	46124.94
594.20	46342.61
594.36	46506.44
594.52	46209.20
594.68	45968.12
594.84	46248.99
594.99	46445.59
595.15	46286.43
595.31	46417.50
595.47	46024.29
595.62	46333.24
595.78	46054.72
595.94	46335.59
596.10	46684.33
596.25	46323.88
596.41	46396.44
596.57	46045.36
596.73	46396.44
596.88	45963.44
597.04	46415.16
597.20	46082.81
597.36	46195.15
597.51	46768.58
597.67	46277.07
597.83	46391.76
597.99	46712.41
598.14	46553.26
598.30	46209.20
598.46	46375.37
598.61	46265.37
598.77	46131.96
598.93	46124.94
599.09	46054.72
599.24	46698.37
599.40	46525.17
599.56	46358.99
599.71	46155.36
599.87	46834.12
600.03	46321.54
600.18	46286.43
600.34	46384.74
600.50	46480.70
600.65	46092.17
600.81	45895.56
600.97	46958.17
601.12	46681.98
601.28	46476.02
601.44	46288.77
601.59	46038.34
601.75	46108.55
601.91	46017.27
602.06	45989.19
602.22	46115.58
602.37	46330.90
602.53	46223.24
602.69	46635.17
602.84	46174.09
603.00	46087.49
603.16	46138.98
603.31	46616.45
603.47	46206.86
603.62	46218.56
603.78	46300.48
603.94	46410.48
604.09	46150.68
604.25	46557.94
604.40	46103.87
604.56	46422.19
604.71	46213.88
604.87	45935.35
605.03	45993.87
605.18	45755.13
605.34	45916.63
605.49	45727.05
605.65	46471.34
605.80	46129.62
605.96	46337.93
606.12	46082.81
606.27	46586.02
606.43	45759.81
606.58	46405.80
606.74	45844.07
606.89	46110.89
607.05	45930.67
607.20	45869.82
607.36	46007.91
607.51	45752.79
607.67	45982.16
607.82	46192.81
607.98	45921.31
608.13	45731.73
608.29	45581.93
608.44	45963.44
608.60	45544.48
608.75	45544.48
608.91	45331.50
609.06	45591.30
609.22	45998.55
609.37	45769.18
609.53	45549.17
609.68	45909.61
609.84	45633.42
609.99	45478.95
610.15	45488.31
610.30	45708.32
610.46	45111.49
610.61	45909.61
610.76	45624.06
610.92	45762.15
611.07	46068.76
611.23	45853.44
611.38	45890.88
611.54	45694.28
611.69	45617.04
611.84	45184.04
612.00	45312.77
612.15	45502.35
612.31	45549.17
612.46	45350.22
612.62	45954.08
612.77	45647.47
612.92	45530.44
613.08	45401.71
613.23	45333.84
613.39	45551.51
613.54	45118.51
613.69	44898.50
613.85	45537.46
614.00	45448.52
614.15	45713.00
614.31	45106.80
614.46	45113.83
614.62	45492.99
614.77	45153.62
614.92	45298.73
615.08	44755.72
615.23	44987.44
615.38	45097.44
615.54	44704.23
615.69	44797.85
615.84	44755.72
616.00	44795.51
616.15	45006.16
616.30	44938.29
616.46	44414.01
616.61	44638.70
616.76	44952.33
616.92	44486.56
617.07	44140.16
617.22	44470.18
617.37	44509.97
617.53	45258.94
617.68	44680.83
617.83	44411.67
617.99	44587.21
618.14	44825.94
618.29	44715.93
618.45	44048.88
618.60	44212.72
618.75	44121.44
618.90	44535.71
619.06	44685.51
619.21	44573.16
619.36	44783.81
619.51	44428.05
619.67	44362.51
619.82	44624.65
619.97	44350.81
620.12	44638.70
620.28	44114.42
620.43	43749.29
620.58	44067.61
620.73	44140.16
620.89	44170.59
621.04	44547.42
621.19	44252.51
621.34	44615.29
621.49	43803.13
621.65	43922.49
621.80	44149.53
621.95	43943.56
622.10	44020.80
622.25	43812.49
622.41	43856.96
622.56	43840.57
622.71	43807.81
622.86	43964.62
623.01	44018.46
623.16	43817.17
623.32	43363.11
623.47	43908.45
623.62	43552.69
623.77	43491.83
623.92	43943.56
624.07	43367.79
624.23	43934.20
624.38	43220.33
624.53	43491.83
624.68	43576.09
624.83	43753.97
624.98	43466.09
625.13	43412.26
625.29	43241.40
625.44	43409.92
625.59	43384.17
625.74	42890.32
625.89	42745.20
626.04	42887.98
626.19	43033.09
626.34	43222.67
626.49	43714.19
626.65	42878.61
626.80	43473.11
626.95	43318.64
627.10	42644.56
627.25	42597.75
627.40	43103.31
627.55	42501.79
627.70	42431.57
627.85	42609.45
628.00	42724.14
628.15	42796.70
628.30	42527.53
628.45	42784.99
628.60	42794.36
628.76	43028.41
628.91	42543.92
629.06	42911.38
629.21	42574.34
629.36	42256.03
629.51	42431.57
629.66	42113.26
629.81	42216.24
629.96	42740.52
630.11	42707.76
630.26	42623.50
630.41	42600.09
630.56	42038.36
630.71	42356.67
630.86	42225.60
631.01	42127.30
631.16	42321.57
631.31	41834.74
631.46	41598.34
631.61	42181.13
631.76	41790.27
631.91	42110.92
632.06	42436.25
632.21	42096.88
632.36	42302.84
632.51	41935.38
632.66	41801.97
632.81	41603.02
632.96	41586.64
633.10	41577.28
633.25	41670.90
633.40	42263.05
633.55	42087.51
633.70	41626.43
633.85	42024.32
634.00	41682.60
634.15	41724.73
634.30	41785.58
634.45	41944.74
634.60	41471.95
634.75	41610.04
634.90	41521.10
635.05	41759.84
635.19	41130.23
635.34	41624.09
635.49	41565.57
635.64	41743.45
635.79	41432.16
635.94	41415.78
636.09	41319.82
636.24	41214.49
636.39	41055.34
636.53	41228.54
636.68	41078.74
636.83	41045.97
636.98	41265.99
637.13	40964.06
637.28	41408.76
637.43	41181.73
637.57	41155.98
637.72	41137.26
637.87	41113.85
638.02	41188.75
638.17	40622.34
638.32	40786.18
638.46	41123.21
638.61	40844.69
638.76	40699.58
638.91	41127.89
639.06	41411.10
639.20	40886.82
639.35	40821.28
639.50	40935.97
639.65	40622.34
639.80	41083.42
639.94	40961.72
640.09	40741.71
640.24	40727.66
640.39	39894.43
640.54	40484.25
640.68	40285.30
640.83	40519.35
640.98	40133.17
641.13	40142.53
641.27	40282.96
641.42	40531.06
641.57	39969.33
641.72	40509.99
641.86	39803.15
642.01	39393.56
642.16	40343.81
642.31	40034.86
642.45	39959.97
642.60	39948.26
642.75	40091.04
642.90	40062.95
643.04	40112.10
643.19	39997.41
643.34	40135.51
643.48	40065.29
643.63	39945.92
643.78	39571.44
643.93	39639.31
644.07	39955.29
644.22	39543.35
644.37	39702.51
644.51	39885.07
644.66	39887.41
644.81	40243.17
644.95	40285.30
645.10	40259.55
645.25	39838.26
645.39	39723.57
645.54	39962.31
645.69	39627.61
645.83	39704.85
645.98	39625.27
646.13	39552.71
646.27	39398.24
646.42	39405.26
646.57	39445.05
646.71	39585.48
646.86	39234.40
647.00	39536.33
647.15	39824.22
647.30	39541.01
647.44	39445.05
647.59	39370.15
647.74	39267.17
647.88	39033.11
648.03	39428.66
648.17	39070.56
648.32	39086.95
648.47	39159.50
648.61	39419.30
648.76	39381.85
648.90	39236.74
649.05	39100.99
649.20	38916.09
649.34	38995.67
649.49	39014.39
649.63	39019.07
649.78	38738.21
649.92	38930.13
650.07	38850.55
650.21	38494.79
650.36	38733.53
650.51	39168.87
650.65	39754.00
650.80	39189.93
650.94	38803.74
651.09	39016.73
651.23	38883.32
651.38	38689.06
651.52	38710.12
651.67	39023.75
651.81	38366.06
651.96	38162.43
652.10	38658.63
652.25	38314.57
652.39	38574.37
652.54	38733.53
652.68	38623.52
652.83	38876.30
652.97	38684.37
653.12	38742.89
653.26	38185.84
653.41	38429.26
653.55	37984.55
653.70	38031.36
653.84	38518.20
653.99	38204.56
654.13	38251.38
654.27	38281.80
654.42	38045.41
654.56	38064.13
654.71	38012.64
654.85	38103.92
655.00	38291.16
655.14	37619.43
655.29	37853.48
655.43	37944.76
655.57	37399.42
655.72	37661.56
655.86	37329.20
656.01	37305.80
656.15	37184.09
656.30	37408.78
656.44	37502.40
656.58	37553.90
656.73	37940.08
656.87	37757.52
657.01	37530.49
657.16	37347.93
657.30	37029.62
657.45	37289.42
657.59	37198.13
657.73	36961.74
657.88	37631.13
658.02	37596.03
658.16	37535.17
658.31	37851.14
658.45	37046.00
658.60	36966.42
658.74	36875.14
658.88	37415.80
659.03	37305.80
659.17	37062.38
659.31	37085.79
659.46	37097.49
659.60	36676.19
659.74	36781.52
659.89	36467.89
660.03	36865.78
660.17	36634.06
660.32	36833.01
660.46	37001.53
660.60	36720.66
660.74	36741.73
660.89	36737.05
661.03	36287.67
661.17	36175.32
661.32	36107.44
661.46	36058.29
661.60	36189.36
661.74	36545.12
661.89	36526.40
662.03	36212.77
662.17	36051.27
662.31	36243.20
662.46	36423.42
662.60	35934.24
662.74	35784.45
662.88	35920.20
663.03	35534.01
663.17	35739.98
663.31	35304.64
663.45	35594.87
663.60	35763.39
663.74	35660.40
663.88	35206.34
664.02	35082.29
664.17	35473.16
664.31	35250.81
664.45	35402.94
664.59	35608.91
664.73	35236.77
664.88	35302.30
665.02	34953.56
665.16	35234.42
665.30	35218.04
665.44	35131.44
665.59	34841.21
665.73	34756.96
665.87	34696.10
666.01	34873.98
666.15	34939.52
666.29	34635.25
666.44	34719.51
666.58	35009.73
666.72	34469.07
666.86	34576.73
667.00	34644.61
667.14	34387.15
667.28	34321.62
667.43	34417.58
667.57	34448.00
667.71	34663.33
667.85	34216.29
667.99	34003.30
668.13	33846.49
668.27	34007.98
668.41	33855.85
668.56	33668.61
668.70	34024.37
668.84	33713.08
668.98	33472.00
669.12	33542.22
669.26	33600.73
669.40	32940.70
669.54	33549.24
669.68	33411.15
669.82	33387.74
669.96	33261.35
670.10	32809.63
670.25	33579.67
670.39	33008.58
670.53	33291.78
670.67	32833.04
670.81	33324.55
670.95	33111.56
671.09	32449.19
671.23	32929.00
671.37	33085.81
671.51	32744.09
671.65	32615.37
671.79	31990.44
671.93	32224.50
672.07	32535.79
672.21	32629.41
672.35	32170.66
672.49	32378.97
672.63	32423.44
672.77	32292.37
672.91	32257.26
673.05	32161.30
673.19	31999.80
673.33	31630.00
673.47	31552.76
673.61	31910.86
673.75	31882.78
673.89	31101.04
674.03	31449.78
674.17	31365.52
674.31	31108.06
674.45	31075.29
674.59	31007.42
674.73	31374.88
674.87	31365.52
675.01	31094.02
675.15	31136.15
675.29	30972.31
675.43	31026.14
675.56	30932.52
675.70	30654.00
675.84	30572.08
675.98	29649.91
676.12	30288.87
676.26	30543.99
676.40	30366.11
676.54	30532.29
676.68	30511.22
676.82	29556.28
676.96	30190.57
677.10	30260.79
677.23	30368.45
677.37	29628.84
677.51	29324.57
677.65	29448.62
677.79	29036.69
677.93	29542.24
678.07	29312.87
678.21	29130.31
678.34	29027.32
678.48	28844.76
678.62	28648.16
678.76	28680.92
678.90	28421.13
679.04	28575.60
679.18	28615.39
679.31	28189.41
679.45	28116.86
679.59	28208.14
679.73	27978.76
679.87	27915.57
680.00	27737.69
680.14	28004.51
680.28	27730.67
680.42	27838.33
680.56	27899.19
680.70	27786.84
680.83	27580.87
680.97	27695.56
681.11	27894.50
681.25	26965.31
681.39	27241.50
681.52	27119.79
681.66	27342.14
681.80	27091.70
681.94	27173.62
682.07	27070.64
682.21	26742.96
682.35	26469.12
682.49	26888.07
682.62	26532.31
682.76	26483.16
682.90	26522.95
683.04	26384.86
683.17	26075.91
683.31	25982.29
683.45	25694.40
683.59	25766.96
683.72	25811.43
683.86	25427.58
684.00	25511.84
684.13	25731.85
684.27	25472.05
684.41	25759.94
684.55	25324.60
684.68	25296.51
684.82	25209.91
684.96	24982.88
685.09	24793.29
685.23	25137.35
685.37	24538.18
685.50	24975.86
685.64	24751.17
685.78	24212.84
685.91	24512.43
686.05	24437.53
686.19	24196.46
686.32	24252.63
686.46	23772.82
686.60	23775.16
686.73	23580.90
686.87	23360.89
687.01	23009.81
687.14	23569.19
687.28	23098.75
687.42	23190.03
687.55	23063.64
687.69	23452.17
687.82	23136.20
687.96	23129.17
688.10	22902.14
688.23	23068.32
688.37	22675.11
688.50	22324.03
688.64	22604.89
688.78	22466.80
688.91	22710.22
689.05	22604.89
689.18	22583.83
689.32	22155.51
689.46	22338.07
689.59	22625.96
689.73	21996.35
689.86	22129.77
690.00	21991.67
690.13	21858.26
690.27	21397.18
690.41	21476.76
690.54	21291.85
690.68	21069.50
690.81	21074.18
690.95	21280.15
691.08	21425.26
691.22	21025.03
691.35	21149.08
691.49	21242.70
691.62	21188.87
691.76	20762.89
691.89	20741.83
692.03	20535.86
692.16	20439.90
692.30	20390.75
692.43	20273.72
692.57	20355.64
692.70	20353.30
692.84	20262.02
692.97	20313.51
693.11	19662.84
693.24	19915.62
693.38	19674.54
693.51	20016.26
693.65	19943.70
693.78	19887.53
693.92	19728.38
694.05	19669.86
694.19	19477.94
694.32	19501.34
694.45	19246.23
694.59	19030.90
694.72	18923.23
694.86	18958.34
694.99	18892.80
695.13	18918.55
695.26	18956.00
695.39	18335.76
695.53	18581.51
695.66	18654.07
695.80	18630.66
695.93	18558.11
696.07	18391.93
696.20	18171.92
696.33	18352.14
696.47	17987.02
696.60	18174.26
696.73	18115.75
696.87	17912.12
697.00	18029.15
697.14	18047.87
697.27	17774.03
697.40	17539.97
697.54	17621.89
697.67	17376.14
697.80	17504.87
697.94	17228.68
698.07	16910.37
698.21	17039.10
698.34	17011.01
698.47	16893.99
698.61	16650.57
698.74	16755.90
698.87	16718.45
699.01	16470.35
699.14	16559.29
699.27	16329.92
699.40	16318.22
699.54	16290.13
699.67	16161.40
699.80	16500.78
699.94	16137.99
700.07	16114.59
700.20	15978.84
700.34	15583.29
700.47	16156.72
700.60	16070.12
700.73	15939.05
700.87	15847.77
701.00	15555.20
701.13	15779.89
701.26	15728.40
701.40	15473.28
701.53	15344.55
701.66	15543.50
701.79	15044.96
701.93	15059.01
702.06	15014.54
702.19	14937.30
702.32	14841.34
702.46	14827.29
702.59	14820.27
702.72	14728.99
702.85	14789.85
702.99	14766.44
703.12	14626.01
703.25	14347.48
703.38	14441.11
703.51	14293.65
703.65	14085.34
703.78	14602.60
703.91	14288.97
704.04	14314.72
704.17	14169.60
704.31	14155.56
704.44	13958.96
704.57	14127.47
704.70	13858.31
704.83	13958.96
704.96	13961.30
705.10	14143.86
705.23	13682.77
>>>>>End Processed Spectral Data<<<<<
