SpectraSuite Data File
++++++++++++++++++++++++++++++++++++
Date: Fri Oct 25 10:47:37 EDT 2013
User: price-jones
Dark Spectrum Present: No
Reference Spectrum Present: No
Number of Sampled Component Spectra: 1
Spectrometers: USB2+H05261
Integration Time (usec): 100000 (USB2+H05261)
Spectra Averaged: 1 (USB2+H05261)
Boxcar Smoothing: 0 (USB2+H05261)
Correct for Electrical Dark: No (USB2+H05261)
Strobe/Lamp Enabled: No (USB2+H05261)
Correct for Detector Non-linearity: No (USB2+H05261)
Correct for Stray Light: No (USB2+H05261)
Number of Pixels in Processed Spectrum: 2048
>>>>>Begin Processed Spectral Data<<<<<
365.73	159.16
365.92	159.16
366.12	159.16
366.32	25.75
366.52	60.85
366.72	16.38
366.91	42.13
367.11	60.85
367.31	53.83
367.51	23.41
367.70	51.49
367.90	9.36
368.10	0.00
368.30	0.00
368.49	42.13
368.69	58.51
368.89	159.16
369.09	39.79
369.28	105.32
369.48	53.83
369.68	145.11
369.87	133.41
370.07	105.32
370.27	166.18
370.47	234.05
370.66	390.87
370.86	416.62
371.06	433.00
371.25	496.19
371.45	435.34
371.65	507.90
371.84	397.89
372.04	461.09
372.24	484.49
372.44	552.37
372.63	538.32
372.83	472.79
373.03	456.40
373.22	540.66
373.42	454.06
373.62	528.96
373.81	538.32
374.01	552.37
374.21	596.84
374.40	571.09
374.60	599.18
374.79	540.66
374.99	615.56
375.19	599.18
375.38	622.58
375.58	575.77
375.78	568.75
375.97	559.39
376.17	638.97
376.37	638.97
376.56	615.56
376.76	573.43
376.95	603.86
377.15	676.41
377.35	610.88
377.54	678.76
377.74	587.47
377.93	615.56
378.13	610.88
378.33	636.63
378.52	664.71
378.72	636.63
378.91	650.67
379.11	592.16
379.31	650.67
379.50	620.24
379.70	622.58
379.89	631.94
380.09	669.39
380.28	648.33
380.48	741.95
380.68	622.58
380.87	629.60
381.07	653.01
381.26	763.01
381.46	676.41
381.65	805.14
381.85	720.88
382.04	674.07
382.24	748.97
382.43	695.14
382.63	746.63
382.83	702.16
383.02	704.50
383.22	660.03
383.41	681.10
383.61	725.57
383.80	727.91
384.00	704.50
384.19	699.82
384.39	784.08
384.58	706.84
384.78	732.59
384.97	758.33
385.17	723.23
385.36	723.23
385.56	793.44
385.75	765.36
385.95	683.44
386.14	837.91
386.34	837.91
386.53	748.97
386.72	765.36
386.92	858.98
387.11	765.36
387.31	809.83
387.50	868.34
387.70	826.21
387.89	809.83
388.09	826.21
388.28	840.25
388.48	856.64
388.67	863.66
388.86	945.58
389.06	835.57
389.25	983.02
389.45	882.38
389.64	898.77
389.84	840.25
390.03	961.96
390.22	1060.26
390.42	1006.43
390.61	929.19
390.81	919.83
391.00	959.62
391.19	992.39
391.39	1020.47
391.58	1029.84
391.78	950.26
391.97	999.41
392.16	922.17
392.36	1022.81
392.55	1015.79
392.75	898.77
392.94	987.71
393.13	947.92
393.33	929.19
393.52	983.02
393.71	987.71
393.91	1109.41
394.10	1057.92
394.29	1041.54
394.49	1055.58
394.68	1128.14
394.88	1144.52
395.07	1165.59
395.26	1081.33
395.46	1165.59
395.65	1203.04
395.84	1153.88
396.04	1172.61
396.23	1067.28
396.42	1036.86
396.62	1170.27
396.81	1137.50
397.00	1193.67
397.19	1221.76
397.39	1174.95
397.58	1247.51
397.77	1242.82
397.97	1357.51
398.16	1359.85
398.35	1299.00
398.55	1177.29
398.74	1299.00
398.93	1418.36
399.12	1453.47
399.32	1259.21
399.51	1329.42
399.70	1364.53
399.90	1369.21
400.09	1399.64
400.28	1504.96
400.47	1425.39
400.67	1481.56
400.86	1570.50
401.05	1516.67
401.24	1551.78
401.44	1551.78
401.63	1521.35
401.82	1554.12
402.01	1523.69
402.21	1521.35
402.40	1638.38
402.59	1643.06
402.78	1563.48
402.97	1661.78
403.17	1528.37
403.36	1610.29
403.55	1767.10
403.74	1701.57
403.93	1797.53
404.13	1720.29
404.32	1715.61
404.51	1727.32
404.70	1792.85
404.89	1732.00
405.09	1771.79
405.28	1710.93
405.47	1797.53
405.66	1746.04
405.85	1790.51
406.05	1764.76
406.24	1872.43
406.43	1926.26
406.62	1827.96
406.81	2005.84
407.00	1916.90
407.20	1816.26
407.39	1827.96
407.58	1919.24
407.77	1881.79
407.96	2010.52
408.15	2012.86
408.34	1947.33
408.54	2059.67
408.73	2083.08
408.92	2043.29
409.11	2078.40
409.30	2092.44
409.49	2153.29
409.68	2010.52
409.87	2092.44
410.07	2148.61
410.26	2106.48
410.45	2062.01
410.64	2174.36
410.83	2202.44
411.02	2258.62
411.21	2328.83
411.40	2270.32
411.59	2237.55
411.78	2406.07
411.98	2345.22
412.17	2377.98
412.36	2399.05
412.55	2464.58
412.74	2457.56
412.93	2420.11
413.12	2410.75
413.31	2654.17
413.50	2663.53
413.69	2607.36
413.88	2583.95
414.07	2665.87
414.26	2663.53
414.45	2675.23
414.64	2586.29
414.83	2726.72
415.02	2813.32
415.22	2731.41
415.41	2796.94
415.60	2892.90
415.79	2834.39
415.98	2953.76
416.17	2993.55
416.36	2984.18
416.55	2963.12
416.74	2895.24
416.93	3035.67
417.12	2995.89
417.31	3082.49
417.50	3056.74
417.69	3220.58
417.88	3241.64
418.07	3103.55
418.26	3173.77
418.45	3197.17
418.64	3143.34
418.83	3241.64
419.02	3211.22
419.21	3295.47
419.39	3372.71
419.58	3157.38
419.77	3103.55
419.96	3370.37
420.15	3431.23
420.34	3370.37
420.53	3368.03
420.72	3475.70
420.91	3496.76
421.10	3447.61
421.29	3454.63
421.48	3342.28
421.67	3510.80
421.86	3370.37
422.05	3428.88
422.24	3478.04
422.43	3447.61
422.61	3531.87
422.80	3641.87
422.99	3569.32
423.18	3548.25
423.37	3698.05
423.56	3471.01
423.75	3574.00
423.94	3489.74
424.13	3332.92
424.32	3531.87
424.50	3506.12
424.69	3751.88
424.88	3576.34
425.07	3555.27
425.26	3569.32
425.45	3632.51
425.64	3557.61
425.83	3599.74
426.01	3749.54
426.20	3684.00
426.39	3684.00
426.58	3700.39
426.77	3510.80
426.96	3648.90
427.15	3733.15
427.33	3805.71
427.52	3510.80
427.71	3702.73
427.90	3796.35
428.09	3896.99
428.28	3824.44
428.46	3843.16
428.65	3801.03
428.84	3852.52
429.03	3978.91
429.22	3852.52
429.40	3932.10
429.59	3868.91
429.78	3798.69
429.97	3742.52
430.16	3786.99
430.34	3974.23
430.53	3934.44
430.72	3833.80
430.91	4124.02
431.10	3946.14
431.28	4086.58
431.47	4184.88
431.66	4168.49
431.85	4217.65
432.03	4292.54
432.22	4264.46
432.41	4351.06
432.60	4224.67
432.79	4119.34
432.97	4414.25
433.16	4234.03
433.35	4259.78
433.54	4264.46
433.72	4334.67
433.91	4362.76
434.10	4484.47
434.28	4299.56
434.47	4470.42
434.66	4528.94
434.85	4498.51
435.03	4568.73
435.22	4437.66
435.41	4737.24
435.59	4613.20
435.78	4634.26
435.97	4629.58
436.16	4765.33
436.34	4699.80
436.53	4678.73
436.72	4842.57
436.90	4685.75
437.09	4568.73
437.28	4585.11
437.46	4823.84
437.65	4720.86
437.84	4690.43
438.02	4812.14
438.21	4891.72
438.40	4582.77
438.58	4807.46
438.77	4947.89
438.96	4940.87
439.14	5048.54
439.33	5041.51
439.52	5139.82
439.70	5172.58
439.89	5151.52
440.08	5233.44
440.26	5280.25
440.45	5207.69
440.63	5411.32
440.82	5533.03
441.01	5509.62
441.19	5458.13
441.38	5633.67
441.57	5558.77
441.75	5577.50
441.94	5799.85
442.12	5778.78
442.31	5757.72
442.50	5823.25
442.68	5647.71
442.87	5736.65
443.05	5591.54
443.24	5895.81
443.43	5949.64
443.61	5785.80
443.80	5963.68
443.98	5764.74
444.17	5650.05
444.35	6008.16
444.54	6017.52
444.73	5919.21
444.91	5991.77
445.10	5949.64
445.28	5886.45
445.47	5933.26
445.65	5893.47
445.84	6066.67
446.02	5872.40
446.21	6129.86
446.39	6043.26
446.58	6080.71
446.77	5987.09
446.95	5942.62
447.14	6125.18
447.32	6171.99
447.51	6045.60
447.69	6080.71
447.88	6054.97
448.06	6157.95
448.25	6157.95
448.43	6314.77
448.62	6115.82
448.80	6076.03
448.99	6171.99
449.17	6338.17
449.36	6237.53
449.54	6272.64
449.73	6541.80
449.91	6366.26
450.10	6541.80
450.28	6518.39
450.46	6558.18
450.65	6595.63
450.83	6497.33
451.02	6574.56
451.20	6642.44
451.39	6438.81
451.57	6586.27
451.76	6445.84
451.94	6700.95
452.13	6576.91
452.31	6574.56
452.49	6710.32
452.68	6623.72
452.86	6541.80
453.05	6387.32
453.23	6668.19
453.42	6626.06
453.60	6600.31
453.78	6815.64
453.97	6794.58
454.15	6806.28
454.34	6747.76
454.52	6705.63
454.70	6906.92
454.89	6874.15
455.07	6810.96
455.26	6801.60
455.44	6946.71
455.62	7133.95
455.81	6911.60
455.99	7122.25
456.17	7108.21
456.36	7171.40
456.54	7286.09
456.73	7314.17
456.91	7524.82
457.09	7377.37
457.28	7641.85
457.46	7267.36
457.64	7377.37
457.83	7335.24
458.01	7339.92
458.19	7499.08
458.38	7405.46
458.56	7625.47
458.74	7494.40
458.93	7412.48
459.11	7627.81
459.29	7564.61
459.48	7506.10
459.66	7613.76
459.84	7573.97
460.03	7573.97
460.21	7686.32
460.39	7803.35
460.57	7808.03
460.76	7791.64
460.94	7896.97
461.12	7779.94
461.31	7630.15
461.49	7822.07
461.67	7889.95
461.85	8049.10
462.04	8006.97
462.22	8491.46
462.40	8002.29
462.59	8058.46
462.77	8138.04
462.95	8365.07
463.13	8016.33
463.32	8287.84
463.50	8203.58
463.68	8229.32
463.86	8234.00
464.05	8016.33
464.23	8285.50
464.41	8475.08
464.59	8222.30
464.78	8306.56
464.96	8376.78
465.14	8334.65
465.32	8463.38
465.50	8498.49
465.69	8416.57
465.87	8486.78
466.05	8746.58
466.23	8475.08
466.41	8514.87
466.60	8697.43
466.78	8486.78
466.96	8468.06
467.14	8620.19
467.32	8531.25
467.51	8718.50
467.69	8547.64
467.87	8465.72
468.05	8697.43
468.23	8659.98
468.41	8826.16
468.60	8800.41
468.78	8851.91
468.96	8704.45
469.14	8912.76
469.32	9064.89
469.50	8730.20
469.69	8912.76
469.87	9125.75
470.05	9097.66
470.23	9013.40
470.41	9027.45
470.59	9130.43
470.77	9195.96
470.95	9034.47
471.14	9291.93
471.32	9202.99
471.50	9542.36
471.68	9205.33
471.86	9462.79
472.04	9518.96
472.22	9687.48
472.40	9205.33
472.58	9638.33
472.77	9582.15
472.95	9727.27
473.13	9902.81
473.31	9865.36
473.49	9668.75
473.67	9806.84
473.85	9844.29
474.03	10127.50
474.21	9856.00
474.39	10153.24
474.57	10064.30
474.75	10171.97
474.93	10532.41
475.12	10260.91
475.30	10391.98
475.48	10450.49
475.66	10450.49
475.84	10525.39
476.02	10457.51
476.20	10436.45
476.38	10658.80
476.56	10733.70
476.74	11033.29
476.92	10640.08
477.10	11094.14
477.28	11126.91
477.46	11159.67
477.64	11194.78
477.82	11218.19
478.00	11587.99
478.18	11527.14
478.36	11683.95
478.54	11454.58
478.72	11630.12
478.90	11939.07
479.08	12006.95
479.26	12341.64
479.44	12142.70
479.62	12332.28
479.80	12358.03
479.98	12395.48
480.16	12491.44
480.34	12582.72
480.52	12615.49
480.70	12622.51
480.88	12479.74
481.06	12894.01
481.24	12966.57
481.41	13060.19
481.59	13177.22
481.77	13474.46
481.95	13429.99
482.13	13348.08
482.31	13591.49
482.49	13603.19
482.67	13860.65
482.85	13788.10
483.03	13752.99
483.21	14071.30
483.39	14288.97
483.57	14129.81
483.74	14338.12
483.92	14483.24
484.10	14558.13
484.28	14738.35
484.46	15066.03
484.64	15199.44
484.82	14780.48
485.00	15206.46
485.18	15154.97
485.35	15550.52
485.53	15124.54
485.71	15367.96
485.89	15646.48
486.07	15424.13
486.25	15466.26
486.43	15611.37
486.61	15903.94
486.78	16053.73
486.96	16067.78
487.14	16379.07
487.32	16238.64
487.50	16891.65
487.68	16877.60
487.85	17266.13
488.03	17095.27
488.21	17224.00
488.39	17537.63
488.57	17565.72
488.75	17600.83
488.92	17888.71
489.10	17928.50
489.28	17916.80
489.46	18438.74
489.64	18270.22
489.81	18569.81
489.99	18785.14
490.17	18684.50
490.35	19103.45
490.53	18649.39
490.70	18958.34
490.88	19080.05
491.06	19456.87
491.24	19098.77
491.41	19330.48
491.59	19304.74
491.77	19384.32
491.95	19864.13
492.13	19831.36
492.30	20098.18
492.48	20130.95
492.66	20294.79
492.84	20278.40
493.01	20673.95
493.19	20582.67
493.37	20795.66
493.54	20905.66
493.72	20996.95
493.90	20807.36
494.08	21624.21
494.25	21385.47
494.43	21607.83
494.61	21722.51
494.79	21785.71
494.96	21596.12
495.14	21678.04
495.32	22265.52
495.49	22272.54
495.67	22183.60
495.85	22279.56
496.02	22843.63
496.20	22670.43
496.38	22876.40
496.55	22932.57
496.73	23288.33
496.91	23190.03
497.09	23138.54
497.26	23271.95
497.44	23335.14
497.62	23461.53
497.79	23627.71
497.97	23433.44
498.14	23597.28
498.32	23826.65
498.50	24084.11
498.67	23920.28
498.85	24074.75
499.03	24128.58
499.20	24311.14
499.38	24222.20
499.56	24629.46
499.73	24587.33
499.91	25036.71
500.08	25057.78
500.26	24634.14
500.44	24938.41
500.61	25301.19
500.79	25034.37
500.97	25238.00
501.14	25467.37
501.32	25469.71
501.49	25680.36
501.67	25404.17
501.84	25675.68
502.02	25593.76
502.20	26036.12
502.37	26092.29
502.55	26235.06
502.72	26623.59
502.90	26623.59
503.07	26096.97
503.25	26647.00
503.43	26300.60
503.60	26485.50
503.78	26822.54
503.95	26539.33
504.13	26717.22
504.30	26876.37
504.48	26459.76
504.65	26906.80
504.83	27253.20
505.01	27154.90
505.18	27276.60
505.36	27604.28
505.53	27452.14
505.71	27992.81
505.88	28123.88
506.06	27623.00
506.23	27583.21
506.41	27793.86
506.58	27850.03
506.76	28166.01
506.93	27824.29
507.11	28128.56
507.28	28268.99
507.46	28194.09
507.63	28376.66
507.81	28393.04
507.98	28449.21
508.16	28662.20
508.33	28393.04
508.50	28587.30
508.68	28992.22
508.85	29483.73
509.03	29179.46
509.20	29240.31
509.38	29638.20
509.55	29249.67
509.73	29387.77
509.90	29397.13
510.08	29593.73
510.25	29427.56
510.42	29481.39
510.60	29514.16
510.77	30190.57
510.95	30096.95
511.12	30223.34
511.30	29919.07
511.47	30522.93
511.64	30244.40
511.82	30457.39
511.99	30160.14
512.17	30129.72
512.34	30352.07
512.51	30937.20
512.69	30724.21
512.86	30857.62
513.04	31030.82
513.21	31065.93
513.38	30794.43
513.56	31096.36
513.73	30771.02
513.90	30960.61
514.08	30899.75
514.25	31220.41
514.43	31615.96
514.60	31262.54
514.77	31524.68
514.95	31693.19
515.12	31995.12
515.29	32119.17
515.47	32219.81
515.64	32154.28
515.81	31969.38
515.99	31784.48
516.16	32016.19
516.33	32299.39
516.51	32409.40
516.68	31709.58
516.85	32018.53
517.03	31850.01
517.20	32046.62
517.37	32388.33
517.54	32863.46
517.72	32648.13
517.89	32488.98
518.06	32591.96
518.24	32322.80
518.41	32280.67
518.58	32833.04
518.75	32877.51
518.93	32879.85
519.10	33137.30
519.27	33212.20
519.45	33024.96
519.62	33404.13
519.79	33542.22
519.96	33881.60
520.14	34075.86
520.31	33455.62
520.48	33635.84
520.65	33455.62
520.83	33909.68
521.00	33993.94
521.17	34082.88
521.34	33874.57
521.52	34284.17
521.69	34167.14
521.86	34778.02
522.03	34459.71
522.20	34775.68
522.38	34628.23
522.55	34944.20
522.72	34717.17
522.89	34457.37
523.07	34560.35
523.24	34855.26
523.41	34794.40
523.58	34808.45
523.75	35304.64
523.92	35550.40
524.10	35044.84
524.27	35372.52
524.44	35395.92
524.61	35290.60
524.78	35754.02
524.96	35632.32
525.13	35798.49
525.30	36250.22
525.47	35892.12
525.64	35915.52
525.81	35807.86
525.98	35709.55
526.16	35171.23
526.33	35728.28
526.50	35672.10
526.67	35580.82
526.84	35730.62
527.01	36151.91
527.18	36308.73
527.36	36109.78
527.53	36046.59
527.70	36636.41
527.87	36620.02
528.04	36364.90
528.21	36727.69
528.38	36734.71
528.55	36992.17
528.72	36797.90
528.89	36762.79
529.07	37170.05
529.24	36683.22
529.41	36968.76
529.58	36952.38
529.75	37083.45
529.92	37134.94
530.09	36844.71
530.26	37191.11
530.43	37558.58
530.60	37408.78
530.77	36921.95
530.94	37748.16
531.11	37144.30
531.28	37591.34
531.46	37418.14
531.63	37626.45
531.80	37495.38
531.97	37722.41
532.14	37680.28
532.31	37258.99
532.48	38059.45
532.65	37834.76
532.82	38038.39
532.99	38017.32
533.16	37731.78
533.33	38150.73
533.50	38195.20
533.67	38267.76
533.84	37928.38
534.01	38279.46
534.18	38450.32
534.35	38932.47
534.52	38455.00
534.69	38543.94
534.86	38506.49
535.03	38380.10
535.20	38450.32
535.37	39040.14
535.54	38696.08
535.71	39033.11
535.88	38560.33
536.05	38721.82
536.22	39044.82
536.38	38677.35
536.55	39112.69
536.72	38871.62
536.89	38646.93
537.06	39093.97
537.23	39416.96
537.40	38855.23
537.57	39044.82
537.74	39388.88
537.91	39192.27
538.08	39227.38
538.25	39285.89
538.42	39201.63
538.59	39791.45
538.75	39559.73
538.92	39335.04
539.09	39831.24
539.26	39393.56
539.43	39969.33
539.60	39770.38
539.77	39990.39
539.94	39803.15
540.11	39651.02
540.28	39604.20
540.44	39828.90
540.61	39934.22
540.78	39831.24
540.95	39754.00
541.12	39861.66
541.29	39828.90
541.46	39842.94
541.62	40191.68
541.79	40767.45
541.96	39854.64
542.13	40292.32
542.30	40418.71
542.47	40304.02
542.63	39990.39
542.80	40456.16
542.97	40730.00
543.14	41045.97
543.31	40608.29
543.48	40786.18
543.64	41434.50
543.81	40809.58
543.98	40837.67
544.15	40641.06
544.32	40882.14
544.48	40989.80
544.65	41055.34
544.82	41015.55
544.99	40486.59
545.16	41074.06
545.32	41366.63
545.49	41794.95
545.66	41336.20
545.83	41448.55
546.00	41720.05
546.16	41631.11
546.33	41631.11
546.50	41034.27
546.67	41294.07
546.83	40828.30
547.00	41486.00
547.17	41610.04
547.34	41603.02
547.50	41670.90
547.67	41668.56
547.84	41933.04
548.00	42110.92
548.17	42012.62
548.34	41455.57
548.51	42101.56
548.67	42443.27
548.84	42043.04
549.01	41944.74
549.18	42021.98
549.34	42192.84
549.51	42389.44
549.68	42487.74
549.84	42061.77
550.01	42380.08
550.18	42050.06
550.34	42230.29
550.51	42155.39
550.68	42267.73
550.84	41776.22
551.01	42604.77
551.18	42487.74
551.34	42363.70
551.51	42777.97
551.68	42424.55
551.84	42876.27
552.01	42335.61
552.18	42445.62
552.34	42192.84
552.51	42616.47
552.68	42672.65
552.84	42600.09
553.01	42763.93
553.18	42749.88
553.34	42557.96
553.51	42349.65
553.67	42827.12
553.84	43063.52
554.01	43276.51
554.17	43503.54
554.34	43133.73
554.51	43564.39
554.67	43056.50
554.84	42887.98
555.00	43117.35
555.17	43054.15
555.33	42740.52
555.50	42979.26
555.67	43395.87
555.83	43091.60
556.00	43084.58
556.16	43948.24
556.33	43262.46
556.50	43557.37
556.66	43510.56
556.83	43225.01
556.99	43414.60
557.16	43599.50
557.32	43608.86
557.49	43772.70
557.65	42939.47
557.82	42906.70
557.98	43585.46
558.15	43379.49
558.32	43295.23
558.48	43416.94
558.65	43344.38
558.81	43299.91
558.98	43526.94
559.14	43658.01
559.31	43824.19
559.47	43758.66
559.64	44037.18
559.80	44182.29
559.97	43800.79
560.13	44114.42
560.30	43896.75
560.46	43566.73
560.63	43906.11
560.79	44053.56
560.96	44222.08
561.12	43812.49
561.29	44215.06
561.45	44006.75
561.61	43587.80
561.78	43765.68
561.94	43889.73
562.11	43997.39
562.27	44156.55
562.44	43999.73
562.60	44636.36
562.77	44439.75
562.93	44205.70
563.10	44292.30
563.26	43934.20
563.42	44201.02
563.59	44172.93
563.75	44039.52
563.92	44570.82
564.08	44027.82
564.24	44460.82
564.41	44451.45
564.57	44088.67
564.74	44048.88
564.90	44521.67
565.07	44414.01
565.23	44287.62
565.39	43945.90
565.56	43981.01
565.72	44074.63
565.88	43688.44
566.05	44453.79
566.21	44442.09
566.38	44158.89
566.54	44016.11
566.70	44484.22
566.87	44786.15
567.03	44528.69
567.19	44839.98
567.36	44685.51
567.52	44273.57
567.68	45029.57
567.85	44348.47
568.01	44690.19
568.17	44292.30
568.34	44437.41
568.50	44694.87
568.66	44676.15
568.83	44538.05
568.99	44669.12
569.15	44788.49
569.32	44538.05
569.48	43880.36
569.64	44694.87
569.81	44573.16
569.97	44219.74
570.13	44062.93
570.30	44453.79
570.46	44201.02
570.62	44486.56
570.78	44058.24
570.95	44554.44
571.11	44795.51
571.27	44432.73
571.43	44467.84
571.60	44804.88
571.76	44619.97
571.92	44266.55
572.09	45027.23
572.25	44837.64
572.41	44327.41
572.57	45010.84
572.74	45200.43
572.90	44816.58
573.06	44748.70
573.22	44371.88
573.38	44622.31
573.55	44617.63
573.71	44697.21
573.87	44741.68
574.03	44741.68
574.20	44514.65
574.36	44399.96
574.52	45029.57
574.68	44605.93
574.84	44336.77
575.01	44531.03
575.17	44538.05
575.33	44451.45
575.49	44624.65
575.65	45219.15
575.82	45244.90
575.98	44877.43
576.14	45228.51
576.30	45277.66
576.46	44818.92
576.62	44893.82
576.79	44512.31
576.95	44282.94
577.11	44725.30
577.27	44842.32
577.43	44765.09
577.59	44903.18
577.75	45013.18
577.92	44135.48
578.08	44428.05
578.24	44634.02
578.40	44835.30
578.56	44889.13
578.72	44957.01
578.88	45008.50
579.04	45151.27
579.21	44699.55
579.37	44739.34
579.53	44547.42
579.69	44753.38
579.85	44982.76
580.01	44584.86
580.17	44912.54
580.33	45287.03
580.49	44964.03
580.65	44535.71
580.82	45167.66
580.98	44793.17
581.14	44807.22
581.30	45221.49
581.46	44875.09
581.62	45160.64
581.78	44980.42
581.94	44816.58
582.10	44964.03
582.26	45132.55
582.42	45237.87
582.58	44732.32
582.74	44741.68
582.90	45277.66
583.06	44706.57
583.22	45242.56
583.38	45036.59
583.54	45134.89
583.70	44685.51
583.86	44884.45
584.02	44818.92
584.18	45170.00
584.34	45085.74
584.50	44762.75
584.66	45132.55
584.82	44540.39
584.98	45291.71
585.14	44818.92
585.30	44634.02
585.46	44793.17
585.62	44465.50
585.78	45062.33
585.94	45013.18
586.10	45179.36
586.26	44673.81
586.42	45008.50
586.58	45415.76
586.74	45008.50
586.90	44821.26
587.06	44694.87
587.22	45146.59
587.38	44439.75
587.54	44795.51
587.70	45242.56
587.86	45202.77
588.02	45350.22
588.18	45408.73
588.34	45340.86
588.49	44989.78
588.65	44898.50
588.81	44837.64
588.97	44488.90
589.13	44615.29
589.29	44779.13
589.45	44905.52
589.61	45146.59
589.77	45090.42
589.93	44842.32
590.08	45209.79
590.24	45202.77
590.40	45357.24
590.56	45088.08
590.72	45312.77
590.88	44942.97
591.04	45216.81
591.20	45490.65
591.35	45701.30
591.51	45776.20
591.67	45247.24
591.83	45310.43
591.99	44961.69
592.15	44875.09
592.31	45219.15
592.46	45272.98
592.62	45200.43
592.78	45003.82
592.94	45441.50
593.10	44959.35
593.26	45104.46
593.41	45301.07
593.57	45324.47
593.73	45184.04
593.89	44978.07
594.05	45359.58
594.20	45378.31
594.36	45305.75
594.52	45610.02
594.68	45235.53
594.84	45256.60
594.99	45270.64
595.15	45116.17
595.31	45490.65
595.47	45492.99
595.62	45078.72
595.78	45535.12
595.94	45565.55
596.10	45668.53
596.25	45682.58
596.41	45778.54
596.57	45085.74
596.73	45666.19
596.88	44900.84
597.04	45265.96
597.20	45408.73
597.36	45408.73
597.51	45242.56
597.67	45542.14
597.83	45448.52
597.99	45801.94
598.14	45521.08
598.30	45813.65
598.46	45586.61
598.61	45640.45
598.77	45144.25
598.93	45834.71
599.09	45448.52
599.24	45909.61
599.40	45799.60
599.56	45476.61
599.71	45727.05
599.87	45532.78
600.03	45291.71
600.18	45434.48
600.34	45263.62
600.50	45631.08
600.65	45301.07
600.81	45717.68
600.97	45567.89
601.12	46244.30
601.28	45380.65
601.44	45422.78
601.59	45780.88
601.75	44935.95
601.91	45521.08
602.06	45485.97
602.22	45558.53
602.37	45626.40
602.53	45151.27
602.69	45888.54
602.84	45694.28
603.00	45521.08
603.16	45310.43
603.31	45172.34
603.47	45237.87
603.62	45034.25
603.78	45319.79
603.94	45130.21
604.09	45488.31
604.25	45291.71
604.40	45731.73
604.56	45373.63
604.71	45572.57
604.87	45179.36
605.03	45270.64
605.18	45078.72
605.34	45258.94
605.49	45448.52
605.65	45287.03
605.80	45385.33
605.96	45579.59
606.12	45137.23
606.27	45223.83
606.43	45415.76
606.58	45312.77
606.74	45354.90
606.89	45574.91
607.05	45532.78
607.20	45179.36
607.36	45441.50
607.51	45734.07
607.67	45436.82
607.82	45429.80
607.98	45209.79
608.13	44828.28
608.29	44961.69
608.44	45031.91
608.60	44844.66
608.75	44528.69
608.91	44865.73
609.06	44788.49
609.22	45198.09
609.37	45137.23
609.53	44933.60
609.68	45013.18
609.84	44861.05
609.99	45076.38
610.15	44978.07
610.30	44425.71
610.46	44514.65
610.61	44949.99
610.76	44755.72
610.92	44832.96
611.07	44835.30
611.23	44580.18
611.38	45097.44
611.54	45202.77
611.69	44910.20
611.84	44617.63
612.00	44746.36
612.15	44460.82
612.31	44912.54
612.46	44411.67
612.62	45017.86
612.77	44886.79
612.92	44741.68
613.08	44451.45
613.23	44388.26
613.39	44549.76
613.54	44357.83
613.69	44114.42
613.85	44107.40
614.00	44568.48
614.15	44942.97
614.31	44697.21
614.46	44926.58
614.62	44488.90
614.77	44605.93
614.92	44339.11
615.08	44245.49
615.23	44409.32
615.38	44273.57
615.54	43765.68
615.69	44046.54
615.84	43721.21
616.00	44378.90
616.15	44116.76
616.30	44371.88
616.46	44320.38
616.61	43732.91
616.76	43849.94
616.92	43885.04
617.07	43899.09
617.22	43793.76
617.37	44128.46
617.53	44081.65
617.68	43690.78
617.83	44182.29
617.99	43894.41
618.14	44126.12
618.29	44472.52
618.45	43725.89
618.60	44240.81
618.75	43882.70
618.90	43669.72
619.06	43697.80
619.21	43318.64
619.36	44289.96
619.51	43814.83
619.67	43484.81
619.82	44156.55
619.97	43763.34
620.12	43641.63
620.28	43166.50
620.43	43398.21
620.58	43742.27
620.73	43339.70
620.89	43269.48
621.04	43983.35
621.19	43524.60
621.34	43402.89
621.49	43093.94
621.65	43220.33
621.80	43356.08
621.95	43171.18
622.10	43477.79
622.25	43054.15
622.41	43311.61
622.56	43257.78
622.71	43159.48
622.86	43363.11
623.01	43395.87
623.16	42806.06
623.32	43304.59
623.47	43405.23
623.62	43253.10
623.77	43133.73
623.92	43239.06
624.07	42642.22
624.23	42562.64
624.38	42859.89
624.53	42674.99
624.68	42850.53
624.83	42983.94
624.98	42775.63
625.13	42899.68
625.29	43271.82
625.44	42815.42
625.59	42504.13
625.74	42738.18
625.89	42227.95
626.04	41591.32
626.19	42433.91
626.34	42909.04
626.49	42696.05
626.65	42155.39
626.80	42532.22
626.95	42375.40
627.10	42707.76
627.25	42265.39
627.40	42330.93
627.55	41975.17
627.70	42153.05
627.85	42096.88
628.00	42000.91
628.15	42195.18
628.30	42260.71
628.45	42129.64
628.60	42635.20
628.76	42206.88
628.91	41888.57
629.06	42373.06
629.21	42232.63
629.36	42054.75
629.51	41839.42
629.66	41879.21
629.81	41790.27
629.96	42258.37
630.11	41916.65
630.26	41926.02
630.41	42029.00
630.56	42216.24
630.71	41441.53
630.86	41846.44
631.01	41820.69
631.16	42029.00
631.31	41228.54
631.46	41289.39
631.61	41371.31
631.76	41385.35
631.91	41977.51
632.06	41951.76
632.21	41308.11
632.36	41511.74
632.51	41366.63
632.66	41596.00
632.81	41275.35
632.96	41090.44
633.10	41310.46
633.25	41177.04
633.40	40940.65
633.55	41537.49
633.70	41521.10
633.85	40669.15
634.00	41336.20
634.15	40921.93
634.30	41263.64
634.45	41076.40
634.60	40868.09
634.75	41146.62
634.90	40760.43
635.05	41106.83
635.19	40809.58
635.34	41425.14
635.49	41282.37
635.64	40753.41
635.79	40545.10
635.94	40680.85
636.09	40505.31
636.24	40739.36
636.39	40481.91
636.53	40371.90
636.68	40708.94
636.83	40334.45
636.98	40968.74
637.13	40165.93
637.28	39990.39
637.43	40582.55
637.57	40825.96
637.72	40580.21
637.87	40566.16
638.02	40325.09
638.17	40666.81
638.32	40376.58
638.46	40491.27
638.61	40285.30
638.76	40215.08
638.91	39810.17
639.06	40376.58
639.20	40463.18
639.35	40512.33
639.50	40495.95
639.65	40470.20
639.80	40187.00
639.94	40072.31
640.09	40289.98
640.24	40055.93
640.39	39779.74
640.54	40006.78
640.68	39709.53
640.83	39974.01
640.98	39864.00
641.13	40079.33
641.27	40187.00
641.42	39679.10
641.57	39995.07
641.72	39817.19
641.86	39452.07
642.01	39452.07
642.16	39571.44
642.31	39557.39
642.45	40030.18
642.60	39548.03
642.75	39042.48
642.90	39639.31
643.04	39367.81
643.19	40219.77
643.34	39594.84
643.48	39236.74
643.63	39285.89
643.78	39407.60
643.93	39051.84
644.07	39391.22
644.22	39386.54
644.37	39234.40
644.51	39063.54
644.66	39445.05
644.81	39536.33
644.95	39449.73
645.10	39611.23
645.25	39847.62
645.39	39323.34
645.54	39222.70
645.69	39100.99
645.83	38890.34
645.98	39313.98
646.13	39328.02
646.27	39468.45
646.42	38789.70
646.57	39110.35
646.71	39435.69
646.86	39143.12
647.00	38927.79
647.15	39030.77
647.30	39222.70
647.44	38909.07
647.59	38909.07
647.74	38740.55
647.88	38824.81
648.03	38733.53
648.17	38457.34
648.32	38763.95
648.47	38473.73
648.61	38555.64
648.76	38738.21
648.90	38880.98
649.05	38686.71
649.20	38663.31
649.34	39086.95
649.49	38405.85
649.63	38377.76
649.78	38569.69
649.92	38497.13
650.07	38604.80
650.21	38401.17
650.36	38534.58
650.51	38635.22
650.65	38415.21
650.80	39002.69
650.94	38445.64
651.09	38363.72
651.23	38337.98
651.38	38440.96
651.52	38022.00
651.67	37787.95
651.81	38141.37
651.96	38223.29
652.10	38309.89
652.25	37689.65
652.39	37979.87
652.54	38242.01
652.68	38022.00
652.83	38256.06
652.97	38307.55
653.12	38000.94
653.26	38239.67
653.41	38342.66
653.55	37923.70
653.70	37923.70
653.84	38312.23
653.99	37801.99
654.13	37968.17
654.27	37556.24
654.42	37600.71
654.56	37481.34
654.71	37970.51
654.85	37757.52
655.00	37570.28
655.14	37132.60
655.29	37214.52
655.43	37008.55
655.57	37092.81
655.72	37205.16
655.86	37357.29
656.01	36800.24
656.15	37209.84
656.30	37170.05
656.44	37509.43
656.58	36999.19
656.73	37240.26
656.87	37242.60
657.01	37258.99
657.16	36741.73
657.30	36795.56
657.45	36570.87
657.59	36767.48
657.73	36823.65
657.88	37127.92
658.02	36395.33
658.16	36627.04
658.31	37038.98
658.45	37095.15
658.60	36957.06
658.74	36926.63
658.88	36706.62
659.03	36287.67
659.17	36423.42
659.31	36985.15
659.46	36280.64
659.60	36285.33
659.74	36552.15
659.89	36187.02
660.03	36779.18
660.17	36437.46
660.32	36095.74
660.46	36215.11
660.60	36767.48
660.74	36458.52
660.89	36107.44
661.03	36332.14
661.17	35924.88
661.32	35754.02
661.46	35955.31
661.60	36093.40
661.74	35779.77
661.89	35611.25
662.03	35910.84
662.17	35952.97
662.31	35651.04
662.46	36034.89
662.60	35681.47
662.74	35655.72
662.88	35936.59
663.03	35342.09
663.17	35835.94
663.31	35789.13
663.45	35470.82
663.60	35255.49
663.74	35316.34
663.88	35321.02
664.02	35164.21
664.17	34991.01
664.31	34780.36
664.45	35281.24
664.59	34735.89
664.73	35215.70
664.88	34983.99
665.02	34785.04
665.16	34391.83
665.30	34534.60
665.44	34927.81
665.59	34450.35
665.73	34483.11
665.87	34199.91
666.01	34581.42
666.15	34139.05
666.29	34061.82
666.44	34480.77
666.58	34349.70
666.72	34256.08
666.86	34614.18
667.00	34220.97
667.14	33930.75
667.28	33729.46
667.43	33521.15
667.57	34190.55
667.71	33659.24
667.85	33872.23
667.99	33872.23
668.13	33832.44
668.27	33806.70
668.41	33762.23
668.56	33111.56
668.70	33656.90
668.84	32931.34
668.98	33273.06
669.12	33647.54
669.26	33006.23
669.40	33326.89
669.54	33165.39
669.68	33055.39
669.82	33223.90
669.96	32762.82
670.10	32863.46
670.25	33233.27
670.39	32701.96
670.53	33006.23
670.67	32402.38
670.81	32959.42
670.95	32374.29
671.09	32800.27
671.23	32751.12
671.37	32952.40
671.51	32570.90
671.65	32320.46
671.79	32385.99
671.93	32175.34
672.07	32650.47
672.21	32158.96
672.35	32053.64
672.49	32203.43
672.63	32254.92
672.77	31730.64
672.91	32091.09
673.05	31763.41
673.19	31702.56
673.33	31969.38
673.47	31168.91
673.61	31704.90
673.75	31524.68
673.89	31288.28
674.03	31243.81
674.17	31070.61
674.31	30862.30
674.45	31250.83
674.59	31044.87
674.73	31175.94
674.87	31250.83
675.01	30979.33
675.15	31215.72
675.29	30923.16
675.43	30604.84
675.56	30691.44
675.70	30569.74
675.84	30101.63
675.98	29151.37
676.12	30061.84
676.26	30071.20
676.40	29687.36
676.54	29890.98
676.68	29944.81
676.82	29710.76
676.96	29598.41
677.10	29619.48
677.23	29385.43
677.37	29575.01
677.51	29385.43
677.65	29226.27
677.79	28744.12
677.93	29221.59
678.07	28914.98
678.21	28758.16
678.34	28603.69
678.48	28549.85
678.62	28891.57
678.76	28584.96
678.90	28350.91
679.04	28538.15
679.18	28622.41
679.31	28191.75
679.45	28013.87
679.59	28100.47
679.73	27653.43
679.87	27887.48
680.00	28126.22
680.14	27714.28
680.28	27873.44
680.42	27440.44
680.56	27426.40
680.70	27482.57
680.83	27197.02
680.97	27105.74
681.11	27164.26
681.25	27276.60
681.39	27243.84
681.52	27080.00
681.66	26986.38
681.80	26874.03
681.94	26785.09
682.07	26733.60
682.21	26555.72
682.35	26574.44
682.49	26366.13
682.62	26431.67
682.76	26380.18
682.90	26129.74
683.04	25979.95
683.17	26347.41
683.31	25825.47
683.45	25823.13
683.59	25914.41
683.72	25247.36
683.86	25310.55
684.00	25235.66
684.13	25523.54
684.27	25687.38
684.41	25401.83
684.55	24938.41
684.68	24999.26
684.82	24774.57
684.96	24800.32
685.09	25027.35
685.23	24587.33
685.37	24559.24
685.50	24173.05
685.64	24343.91
685.78	24154.33
685.91	24219.86
686.05	23988.15
686.19	23990.49
686.32	24222.20
686.46	23576.22
686.60	23545.79
686.73	23648.77
686.87	23489.62
687.01	23110.45
687.14	23255.56
687.28	23239.18
687.42	23213.43
687.55	22974.70
687.69	22963.00
687.82	23073.00
687.96	23119.81
688.10	22785.12
688.23	22848.31
688.37	22576.81
688.50	22525.32
688.64	22429.35
688.78	22153.17
688.91	22199.98
689.05	22108.70
689.18	22375.52
689.32	22260.84
689.46	22012.74
689.59	22312.33
689.73	22207.00
689.86	22125.08
690.00	21795.07
690.13	22050.19
690.27	21738.90
690.41	21713.15
690.54	21249.72
690.68	21333.98
690.81	21273.13
690.95	20973.54
691.08	21048.44
691.22	21055.46
691.35	20933.75
691.49	20870.56
691.62	21085.89
691.76	20573.31
691.89	20840.13
692.03	20231.59
692.16	20442.24
692.30	20542.88
692.43	20280.74
692.57	20201.16
692.70	20365.00
692.84	20166.06
692.97	19878.17
693.11	19819.66
693.24	19559.86
693.38	19955.41
693.51	19616.03
693.65	19339.85
693.78	19637.09
693.92	19737.74
694.05	19562.20
694.19	19190.05
694.32	19206.44
694.45	19147.92
694.59	18979.40
694.72	18951.32
694.86	18757.05
694.99	18757.05
695.13	18635.35
695.26	18260.86
695.39	18501.93
695.53	18338.10
695.66	18541.72
695.80	18321.71
695.93	18506.62
696.07	17994.04
696.20	18403.63
696.33	17998.72
696.47	18050.21
696.60	17809.14
696.73	17771.69
696.87	18054.89
697.00	17675.73
697.14	17774.03
697.27	17610.19
697.40	17769.35
697.54	17343.37
697.67	17078.89
697.80	17287.20
697.94	17266.13
698.07	17132.72
698.21	16863.56
698.34	17034.42
698.47	17106.98
698.61	16704.40
698.74	16547.59
698.87	16652.91
699.01	16603.76
699.14	16411.84
699.27	16283.11
699.40	16374.39
699.54	16318.22
699.67	16112.25
699.80	16084.16
699.94	16056.08
700.07	15971.82
700.20	16196.51
700.34	15903.94
700.47	15702.65
700.60	16023.31
700.73	15999.90
700.87	15431.15
701.00	15749.46
701.13	15396.04
701.26	15658.18
701.40	15564.56
701.53	15323.49
701.66	15379.66
701.79	15012.20
701.93	15082.41
702.06	14820.27
702.19	14883.47
702.32	15250.93
702.46	14831.97
702.59	14738.35
702.72	14649.41
702.85	14649.41
702.99	14801.55
703.12	14595.58
703.25	14611.96
703.38	14703.25
703.51	14270.25
703.65	14703.25
703.78	14293.65
703.91	14068.96
704.04	14370.89
704.17	14052.58
704.31	14169.60
704.44	13434.68
704.57	13497.87
704.70	13642.98
704.83	13752.99
704.96	13809.16
705.10	13954.27
705.23	13820.86
>>>>>End Processed Spectral Data<<<<<
