SpectraSuite Data File
++++++++++++++++++++++++++++++++++++
Date: Fri Oct 25 10:48:34 EDT 2013
User: price-jones
Dark Spectrum Present: No
Reference Spectrum Present: No
Number of Sampled Component Spectra: 1
Spectrometers: USB2+H05261
Integration Time (usec): 100000 (USB2+H05261)
Spectra Averaged: 1 (USB2+H05261)
Boxcar Smoothing: 0 (USB2+H05261)
Correct for Electrical Dark: No (USB2+H05261)
Strobe/Lamp Enabled: No (USB2+H05261)
Correct for Detector Non-linearity: No (USB2+H05261)
Correct for Stray Light: No (USB2+H05261)
Number of Pixels in Processed Spectrum: 2048
>>>>>Begin Processed Spectral Data<<<<<
365.73	159.16
365.92	159.16
366.12	159.16
366.32	42.13
366.52	11.70
366.72	95.96
366.91	72.56
367.11	14.04
367.31	25.75
367.51	37.45
367.70	0.00
367.90	81.92
368.10	56.17
368.30	39.79
368.49	53.83
368.69	72.56
368.89	93.62
369.09	79.58
369.28	46.81
369.48	23.41
369.68	16.38
369.87	105.32
370.07	149.79
370.27	152.13
370.47	217.67
370.66	407.25
370.86	421.30
371.06	524.28
371.25	500.87
371.45	435.34
371.65	477.47
371.84	465.77
372.04	533.64
372.24	552.37
372.44	557.05
372.63	526.62
372.83	512.58
373.03	578.11
373.22	489.17
373.42	575.77
373.62	585.13
373.81	557.05
374.01	690.46
374.21	596.84
374.40	543.00
374.60	636.63
374.79	631.94
374.99	662.37
375.19	713.86
375.38	643.65
375.58	589.82
375.78	613.22
375.97	615.56
376.17	709.18
376.37	688.12
376.56	699.82
376.76	692.80
376.95	718.54
377.15	753.65
377.35	671.73
377.54	674.07
377.74	746.63
377.93	758.33
378.13	601.52
378.33	746.63
378.52	748.97
378.72	758.33
378.91	711.52
379.11	650.67
379.31	741.95
379.50	730.25
379.70	695.14
379.89	765.36
380.09	732.59
380.28	685.78
380.48	709.18
380.68	636.63
380.87	781.74
381.07	781.74
381.26	753.65
381.46	676.41
381.65	765.36
381.85	755.99
382.04	720.88
382.24	704.50
382.43	748.97
382.63	697.48
382.83	739.61
383.02	805.14
383.22	823.87
383.41	678.76
383.61	798.12
383.80	823.87
384.00	835.57
384.19	858.98
384.39	891.74
384.58	805.14
384.78	873.02
384.97	800.46
385.17	823.87
385.36	880.04
385.56	875.36
385.75	826.21
385.95	894.08
386.14	866.00
386.34	875.36
386.53	866.00
386.72	854.30
386.92	978.34
387.11	908.13
387.31	936.21
387.50	812.17
387.70	983.02
387.89	973.66
388.09	959.62
388.28	959.62
388.48	868.34
388.67	940.90
388.86	938.55
389.06	1011.11
389.25	950.26
389.45	1006.43
389.64	1036.86
389.84	1055.58
390.03	1069.62
390.22	957.28
390.42	1097.71
390.61	1102.39
390.81	1174.95
391.00	1097.71
391.19	1074.31
391.39	1118.78
391.58	1109.41
391.78	1067.28
391.97	1104.73
392.16	1249.85
392.36	1114.10
392.55	1128.14
392.75	1034.52
392.94	976.00
393.13	1011.11
393.33	1032.18
393.52	1081.33
393.71	1107.07
393.91	1118.78
394.10	1181.97
394.29	1226.44
394.49	1273.25
394.68	1366.87
394.88	1282.61
395.07	1308.36
395.26	1263.89
395.46	1343.47
395.65	1331.76
395.84	1315.38
396.04	1301.34
396.23	1217.08
396.42	1165.59
396.62	1174.95
396.81	1242.82
397.00	1259.21
397.19	1324.74
397.39	1352.83
397.58	1451.13
397.77	1390.28
397.97	1500.28
398.16	1453.47
398.35	1411.34
398.55	1507.30
398.74	1511.99
398.93	1598.59
399.12	1572.84
399.32	1643.06
399.51	1617.31
399.70	1673.48
399.90	1511.99
400.09	1565.82
400.28	1764.76
400.47	1687.53
400.67	1659.44
400.86	1647.74
401.05	1785.83
401.24	1837.32
401.44	1865.41
401.63	1907.54
401.82	1743.70
402.01	1809.23
402.21	1818.60
402.40	1849.02
402.59	1888.81
402.78	1804.55
402.97	1881.79
403.17	1872.43
403.36	1902.86
403.55	1944.99
403.74	1940.30
403.93	1947.33
404.13	1968.39
404.32	1907.54
404.51	1867.75
404.70	1940.30
404.89	1989.46
405.09	1996.48
405.28	1966.05
405.47	2052.65
405.66	2019.88
405.85	2092.44
406.05	2134.57
406.24	2045.63
406.43	2160.31
406.62	2190.74
406.81	2197.76
407.00	2204.78
407.20	2181.38
407.39	2160.31
407.58	2256.28
407.77	2235.21
407.96	2328.83
408.15	2284.36
408.34	2363.94
408.54	2387.35
408.73	2408.41
408.92	2408.41
409.11	2530.12
409.30	2459.90
409.49	2272.66
409.68	2476.29
409.87	2345.22
410.07	2436.50
410.26	2487.99
410.45	2422.45
410.64	2609.70
410.83	2527.78
411.02	2715.02
411.21	2663.53
411.40	2658.85
411.59	2752.47
411.78	2668.21
411.98	2654.17
412.17	2825.03
412.36	2834.39
412.55	2825.03
412.74	2867.16
412.93	2841.41
413.12	2860.13
413.31	2977.16
413.50	3038.02
413.69	3016.95
413.88	3059.08
414.07	2923.33
414.26	3026.31
414.45	3052.06
414.64	3133.98
414.83	3241.64
415.02	3208.87
415.22	3204.19
415.41	3330.58
415.60	3180.79
415.79	3260.37
415.98	3461.65
416.17	3426.54
416.36	3295.47
416.55	3368.03
416.74	3510.80
416.93	3290.79
417.12	3386.76
417.31	3417.18
417.50	3466.33
417.69	3438.25
417.88	3775.28
418.07	3536.55
418.26	3555.27
418.45	3583.36
418.64	3749.54
418.83	3735.50
419.02	3627.83
419.21	3576.34
419.39	3794.01
419.58	3676.98
419.77	3719.11
419.96	3700.39
420.15	3962.53
420.34	3857.20
420.53	3974.23
420.72	3967.21
420.91	3925.08
421.10	3960.19
421.29	4091.26
421.48	3899.33
421.67	4065.51
421.86	4016.36
422.05	3983.59
422.24	3871.25
422.43	3936.78
422.61	3974.23
422.80	4128.70
422.99	4156.79
423.18	4210.62
423.37	4030.40
423.56	3950.82
423.75	4203.60
423.94	4021.04
424.13	3904.01
424.32	3992.95
424.50	4128.70
424.69	4187.22
424.88	4393.19
425.07	4028.06
425.26	4081.89
425.45	4028.06
425.64	4100.62
425.83	4231.69
426.01	4180.20
426.20	4264.46
426.39	4114.66
426.58	4117.00
426.77	4227.01
426.96	4147.43
427.15	4039.76
427.33	4318.29
427.52	4234.03
427.71	4217.65
427.90	4404.89
428.09	4201.26
428.28	4304.25
428.46	4355.74
428.65	4156.79
428.84	4332.33
429.03	4550.00
429.22	4327.65
429.40	4327.65
429.59	4252.75
429.78	4011.68
429.97	4105.30
430.16	4301.90
430.34	4163.81
430.53	4257.43
430.72	4367.44
430.91	4411.91
431.10	4444.68
431.28	4720.86
431.47	4849.59
431.66	4847.25
431.85	4634.26
432.03	4702.14
432.22	4912.78
432.41	4784.06
432.60	4840.23
432.79	4922.15
432.97	5085.98
433.16	4865.97
433.35	4828.53
433.54	4947.89
433.72	4868.31
433.91	4894.06
434.10	5008.75
434.28	5027.47
434.47	4952.57
434.66	4994.70
434.85	5198.33
435.03	5191.31
435.22	5193.65
435.41	5301.31
435.59	5238.12
435.78	5341.10
435.97	5186.63
436.16	5390.25
436.34	5383.23
436.53	5261.52
436.72	5371.53
436.90	5275.57
437.09	5401.96
437.28	5298.97
437.46	5275.57
437.65	5425.36
437.84	5401.96
438.02	5390.25
438.21	5378.55
438.40	5254.50
438.58	5614.95
438.77	5827.93
438.96	5551.75
439.14	5778.78
439.33	5680.48
439.52	5977.73
439.70	6010.50
439.89	5898.15
440.08	5963.68
440.26	5989.43
440.45	6029.22
440.63	6136.88
440.82	6298.38
441.01	6134.54
441.19	6228.17
441.38	6303.06
441.57	6403.71
441.75	6392.00
441.94	6490.31
442.12	6555.84
442.31	6614.35
442.50	6534.78
442.68	6502.01
442.87	6457.54
443.05	6487.96
443.24	6595.63
443.43	6785.21
443.61	6619.04
443.80	6956.07
443.98	6614.35
444.17	6555.84
444.35	6766.49
444.54	6759.47
444.73	6722.02
444.91	6817.98
445.10	6693.93
445.28	6628.40
445.47	6539.46
445.65	6649.46
445.84	6651.80
446.02	6642.44
446.21	6796.92
446.39	6855.43
446.58	7005.22
446.77	6925.65
446.95	6848.41
447.14	7005.22
447.32	6993.52
447.51	7016.93
447.69	6991.18
447.88	6993.52
448.06	7054.37
448.25	6972.46
448.43	6974.80
448.62	7087.14
448.80	6899.90
448.99	6944.37
449.17	7187.79
449.36	7183.10
449.54	7297.79
449.73	7368.01
449.91	7148.00
450.10	7353.96
450.28	7508.44
450.46	7632.49
450.65	7527.16
450.83	7379.71
451.02	7536.52
451.20	7517.80
451.39	7620.78
451.57	7641.85
451.76	7501.42
451.94	7489.71
452.13	7641.85
452.31	7375.03
452.49	7204.17
452.68	7473.33
452.86	7566.95
453.05	7318.86
453.23	7698.02
453.42	7641.85
453.60	7609.08
453.78	7880.58
453.97	7597.38
454.15	7768.24
454.34	7655.89
454.52	7754.19
454.70	7925.05
454.89	7801.01
455.07	7894.63
455.26	7941.44
455.44	8116.98
455.62	7999.95
455.81	8116.98
455.99	8124.00
456.17	7992.93
456.36	8257.41
456.54	8308.90
456.73	8196.56
456.91	8435.29
457.09	8407.20
457.28	8615.51
457.46	8355.71
457.64	8383.80
457.83	8224.64
458.01	8404.86
458.19	8741.90
458.38	8505.51
458.56	8727.86
458.74	8704.45
458.93	8606.15
459.11	8664.66
459.29	8582.74
459.48	8669.34
459.66	8596.79
459.84	8877.65
460.03	8985.32
460.21	8819.14
460.39	8814.46
460.57	8739.56
460.76	8903.40
460.94	9011.06
461.12	8821.48
461.31	9067.24
461.49	8999.36
461.67	9057.87
461.85	9282.56
462.04	9160.86
462.22	9497.89
462.40	9467.47
462.59	9341.08
462.77	9128.09
462.95	9331.72
463.13	9298.95
463.32	9437.04
463.50	9277.88
463.68	9458.10
463.86	9233.41
464.05	9420.66
464.23	9102.34
464.41	9523.64
464.59	9228.73
464.78	9448.74
464.96	9432.36
465.14	9273.20
465.32	9579.81
465.50	9802.16
465.69	9696.84
465.87	9507.26
466.05	9523.64
466.23	9465.13
466.41	9596.20
466.60	9872.38
466.78	9568.11
466.96	9490.87
467.14	9680.46
467.32	9734.29
467.51	9984.73
467.69	9687.48
467.87	9991.75
468.05	9881.74
468.23	9731.95
468.41	9813.87
468.60	9895.78
468.78	9942.60
468.96	9905.15
469.14	9916.85
469.32	10026.86
469.50	9980.04
469.69	10249.21
469.87	10141.54
470.05	10113.45
470.23	10239.84
470.41	10202.40
470.59	10176.65
470.77	10204.74
470.95	10300.70
471.14	10501.98
471.32	10286.65
471.50	10757.10
471.68	10586.24
471.86	10768.80
472.04	10846.04
472.22	11070.73
472.40	10700.93
472.58	10874.13
472.77	10565.18
472.95	11016.90
473.13	11297.77
473.31	10834.34
473.49	10883.49
473.67	10909.24
473.85	11194.78
474.03	11356.28
474.21	11417.13
474.39	11496.71
474.57	11667.57
474.75	11655.87
474.93	11496.71
475.12	11499.05
475.30	11702.68
475.48	11555.22
475.66	11882.90
475.84	11913.33
476.02	11864.18
476.20	11627.78
476.38	11901.62
476.56	12418.88
476.74	12418.88
476.92	12142.70
477.10	12276.11
477.28	12610.81
477.46	12814.43
477.64	12699.75
477.82	12760.60
478.00	13200.62
478.18	13022.74
478.36	12989.97
478.54	13303.60
478.72	13287.22
478.90	13376.16
479.08	13537.66
479.26	13738.94
479.44	13420.63
479.62	13722.56
479.80	13771.71
479.98	13862.99
480.16	14310.04
480.34	14061.94
480.52	14415.36
480.70	14174.28
480.88	14441.11
481.06	14265.57
481.24	14431.74
481.41	14539.41
481.59	15206.46
481.77	14836.66
481.95	14913.89
482.13	15154.97
482.31	15180.71
482.49	15410.09
482.67	15740.10
482.85	15548.18
483.03	15740.10
483.21	15861.81
483.39	15798.62
483.57	15845.43
483.74	16053.73
483.92	16280.77
484.10	16154.38
484.28	16299.49
484.46	16678.66
484.64	17240.39
484.82	16861.22
485.00	16774.62
485.18	17057.82
485.35	16863.56
485.53	16655.25
485.71	16943.14
485.89	17003.99
486.07	16987.61
486.25	16940.80
486.43	17254.43
486.61	17568.06
486.78	18043.19
486.96	17972.97
487.14	18321.71
487.32	18476.19
487.50	18338.10
487.68	18850.67
487.85	19089.41
488.03	19117.50
488.21	19147.92
488.39	19063.66
488.57	19405.38
488.75	19501.34
488.92	19707.31
489.10	20004.56
489.28	20336.91
489.46	20013.92
489.64	20503.09
489.81	21018.01
489.99	21020.35
490.17	21057.80
490.35	21322.28
490.53	20851.83
490.70	21200.57
490.88	21359.73
491.06	21671.02
491.24	21291.85
491.41	21446.33
491.59	21907.41
491.77	21689.74
491.95	21792.73
492.13	22085.30
492.30	22455.10
492.48	22602.55
492.66	22829.59
492.84	22576.81
493.01	23080.02
493.19	23080.02
493.37	23164.28
493.54	22967.68
493.72	23452.17
493.90	23346.84
494.08	23459.19
494.25	23803.25
494.43	24226.89
494.61	24486.68
494.79	24133.26
494.96	24154.33
495.14	24390.72
495.32	24208.16
495.49	24720.74
495.67	24858.83
495.85	25055.43
496.02	24856.49
496.20	25432.26
496.38	25331.62
496.55	25544.61
496.73	25982.29
496.91	25860.58
497.09	25764.62
497.26	26106.34
497.44	26038.46
497.62	26263.15
497.79	26195.28
497.97	25837.17
498.14	26328.69
498.32	26459.76
498.50	26228.04
498.67	26817.86
498.85	26916.16
499.03	27197.02
499.20	27302.35
499.38	27267.24
499.56	27351.50
499.73	27583.21
499.91	27611.30
500.08	27906.21
500.26	27164.26
500.44	27707.26
500.61	27953.02
500.79	27625.34
500.97	27793.86
501.14	28100.47
501.32	28091.11
501.49	28243.24
501.67	28247.93
501.84	28278.35
502.02	28348.57
502.20	28446.87
502.37	28641.14
502.55	28835.40
502.72	28683.27
502.90	29181.80
503.07	29146.69
503.25	29095.20
503.43	28709.01
503.60	29039.03
503.78	29289.46
503.95	29191.16
504.13	29628.84
504.30	29682.67
504.48	30174.19
504.65	30148.44
504.83	30417.60
505.01	30185.89
505.18	30314.62
505.36	30424.62
505.53	30197.59
505.71	30551.01
505.88	30569.74
506.06	30202.27
506.23	30445.69
506.41	30536.97
506.58	30881.03
506.76	30852.94
506.93	31480.21
507.11	31573.83
507.28	31197.00
507.46	30986.35
507.63	30852.94
507.81	31374.88
507.98	31098.70
508.16	31576.17
508.33	31424.03
508.50	31693.19
508.68	31449.78
508.85	32491.32
509.03	32236.20
509.20	32393.01
509.38	32116.83
509.55	32500.68
509.73	32493.66
509.90	32528.77
510.08	32704.31
510.25	32629.41
510.42	32650.47
510.60	32868.14
510.77	33078.79
510.95	32931.34
511.12	33191.14
511.30	32968.79
511.47	33546.90
511.64	33385.40
511.82	33778.61
511.99	33298.80
512.17	33706.05
512.34	33401.79
512.51	33429.87
512.69	33727.12
512.86	33670.95
513.04	33841.81
513.21	33853.51
513.38	33717.76
513.56	34178.84
513.73	33991.60
513.90	33902.66
514.08	33923.72
514.25	34794.40
514.43	34565.03
514.60	34649.29
514.77	34323.96
514.95	35056.54
515.12	34506.52
515.29	34689.08
515.47	34731.21
515.64	34951.22
515.81	34705.46
515.99	34590.78
516.16	35021.44
516.33	34834.19
516.51	34979.31
516.68	34525.24
516.85	34169.48
517.03	34548.65
517.20	34934.84
517.37	35398.26
517.54	35557.42
517.72	35566.78
517.89	34958.24
518.06	35012.07
518.24	35192.30
518.41	35491.88
518.58	35700.19
518.75	35604.23
518.93	36077.02
519.10	36229.15
519.27	36121.49
519.45	36465.55
519.62	36421.08
519.79	36463.21
519.96	36713.64
520.14	36692.58
520.31	36297.03
520.48	36690.24
520.65	36828.33
520.83	37118.56
521.00	37165.37
521.17	37104.51
521.34	37301.12
521.52	37453.25
521.69	37188.77
521.86	37626.45
522.03	37755.18
522.20	37668.58
522.38	37890.93
522.55	37684.97
522.72	37535.17
522.89	37481.34
523.07	38225.63
523.24	37574.96
523.41	38164.78
523.58	38043.07
523.75	38560.33
523.92	38307.55
524.10	38597.77
524.27	38866.94
524.44	38459.68
524.61	38270.10
524.78	38263.08
524.96	38703.10
525.13	39049.50
525.30	39007.37
525.47	39082.27
525.64	39119.71
525.81	38796.72
525.98	38721.82
526.16	38412.87
526.33	38171.80
526.50	38792.04
526.67	38581.39
526.84	38628.20
527.01	38555.64
527.18	38775.66
527.36	39133.76
527.53	39433.35
527.70	39468.45
527.87	39718.89
528.04	39395.90
528.21	39913.16
528.38	39756.34
528.55	40133.17
528.72	40065.29
528.89	40147.21
529.07	40191.68
529.24	39821.87
529.41	40020.82
529.58	39697.83
529.75	40147.21
529.92	40397.65
530.09	40297.00
530.26	40746.39
530.43	40662.13
530.60	40357.86
530.77	40411.69
530.94	40975.76
531.11	40608.29
531.28	40524.04
531.46	40453.82
531.63	40680.85
531.80	40802.56
531.97	40519.35
532.14	40598.93
532.31	40407.01
532.48	40641.06
532.65	41338.54
532.82	41310.46
532.99	41163.00
533.16	41167.68
533.33	41467.27
533.50	41502.38
533.67	41600.68
533.84	41390.03
534.01	41067.04
534.18	41469.61
534.35	41752.82
534.52	41626.43
534.69	41619.41
534.86	41996.23
535.03	41579.62
535.20	42440.93
535.37	42359.02
535.54	42579.03
535.71	41813.67
535.88	42216.24
536.05	41986.87
536.22	41642.81
536.38	42522.85
536.55	42213.90
536.72	41956.44
536.89	41691.96
537.06	42066.45
537.23	42120.28
537.40	42300.50
537.57	42848.19
537.74	42712.44
537.91	43033.09
538.08	42499.45
538.25	42319.23
538.42	42801.38
538.59	42738.18
538.75	41839.42
538.92	42646.90
539.09	42731.16
539.26	42997.98
539.43	42660.94
539.60	42588.39
539.77	42574.34
539.94	42948.83
540.11	42492.43
540.28	43098.62
540.44	42965.21
540.61	42845.85
540.78	42799.04
540.95	42834.14
541.12	42618.81
541.29	43283.53
541.46	43100.97
541.62	43255.44
541.79	43643.97
541.96	43192.25
542.13	43145.44
542.30	43353.74
542.47	43014.37
542.63	43257.78
542.80	43330.34
542.97	43821.85
543.14	43833.55
543.31	43758.66
543.48	43810.15
543.64	44322.72
543.81	44435.07
543.98	44083.99
544.15	43697.80
544.32	44556.78
544.48	44615.29
544.65	44325.07
544.82	43981.01
544.99	43590.14
545.16	43679.08
545.32	44053.56
545.49	44652.74
545.66	44722.96
545.83	44502.95
546.00	44182.29
546.16	44704.23
546.33	44648.06
546.50	44341.45
546.67	44680.83
546.83	44289.96
547.00	44392.94
547.17	44399.96
547.34	44758.06
547.50	44882.11
547.67	44910.20
547.84	44767.43
548.00	44949.99
548.17	44882.11
548.34	44760.40
548.51	45251.92
548.67	44947.65
548.84	45099.78
549.01	44570.82
549.18	44938.29
549.34	44982.76
549.51	45291.71
549.68	44921.90
549.84	45404.05
550.01	45514.06
550.18	45006.16
550.34	45137.23
550.51	45691.94
550.68	45303.41
550.84	45333.84
551.01	45268.30
551.18	44975.73
551.34	45633.42
551.51	45500.01
551.68	45741.09
551.84	45532.78
552.01	45404.05
552.18	45860.46
552.34	45422.78
552.51	45731.73
552.68	45619.38
552.84	46052.38
553.01	46169.41
553.18	45820.67
553.34	45521.08
553.51	45467.25
553.67	45832.37
553.84	46253.67
554.01	46248.99
554.17	46541.55
554.34	46380.06
554.51	45956.42
554.67	46501.76
554.84	46256.01
555.00	45797.26
555.17	46043.02
555.33	46244.30
555.50	46099.19
555.67	45808.96
555.83	46344.95
556.00	45869.82
556.16	46801.35
556.33	46174.09
556.50	46080.47
556.66	45970.46
556.83	45965.78
556.99	46389.42
557.16	46560.28
557.32	46403.46
557.49	46120.26
557.65	45439.16
557.82	46260.69
557.98	46490.06
558.15	46110.89
558.32	46326.22
558.48	46424.53
558.65	46419.84
558.81	46396.44
558.98	46656.24
559.14	46267.71
559.31	46600.07
559.47	46614.11
559.64	46396.44
559.80	46440.91
559.97	46536.87
560.13	46403.46
560.30	46328.56
560.46	46389.42
560.63	47161.79
560.79	46890.29
560.96	47112.64
561.12	46611.77
561.29	46864.55
561.45	47007.32
561.61	46904.34
561.78	46873.91
561.94	46815.40
562.11	46857.52
562.27	47042.43
562.44	46656.24
562.60	46937.10
562.77	47276.48
562.93	46721.77
563.10	47077.54
563.26	46721.77
563.42	46944.12
563.59	47199.24
563.75	46623.47
563.92	47096.26
564.08	46876.25
564.24	47063.49
564.41	46768.58
564.57	46958.17
564.74	46965.19
564.90	47503.51
565.07	47107.96
565.23	46852.84
565.39	46972.21
565.56	47194.56
565.72	46979.23
565.88	46995.62
566.05	47068.17
566.21	47044.77
566.38	46974.55
566.54	47161.79
566.70	47379.46
566.87	47250.74
567.03	47117.32
567.19	47547.98
567.36	47641.60
567.52	46902.00
567.68	47952.90
567.85	47166.48
568.01	47519.90
568.17	46887.95
568.34	47058.81
568.50	46801.35
568.66	46902.00
568.83	47587.77
568.99	47051.79
569.15	47227.33
569.32	47505.85
569.48	47304.57
569.64	47189.88
569.81	47313.93
569.97	47009.66
570.13	47150.09
570.30	46976.89
570.46	46927.74
570.62	46960.51
570.78	46363.67
570.95	46536.87
571.11	47435.64
571.27	47255.42
571.43	47222.65
571.60	46862.21
571.76	47173.50
571.92	47042.43
572.09	47384.15
572.25	47152.43
572.41	47271.80
572.57	46948.81
572.74	47831.19
572.90	47178.18
573.06	47608.84
573.22	46920.72
573.38	47351.38
573.55	46972.21
573.71	47405.21
573.87	47274.14
574.03	47026.04
574.20	47304.57
574.36	47206.26
574.52	47229.67
574.68	47555.00
574.84	47269.46
575.01	47426.28
575.17	47030.72
575.33	47117.32
575.49	47084.56
575.65	47531.60
575.82	47529.26
575.98	47206.26
576.14	47786.72
576.30	47643.94
576.46	47290.52
576.62	47105.62
576.79	46979.23
576.95	47236.69
577.11	47536.28
577.27	47569.05
577.43	47538.62
577.59	47236.69
577.75	47426.28
577.92	47007.32
578.08	46850.50
578.24	47009.66
578.40	47290.52
578.56	47381.80
578.72	46953.49
578.88	47587.77
579.04	47241.37
579.21	47014.34
579.37	47473.09
579.53	47077.54
579.69	46925.40
579.85	47297.55
580.01	47342.02
580.17	47150.09
580.33	47274.14
580.49	47236.69
580.65	47531.60
580.82	47129.03
580.98	46960.51
581.14	47316.27
581.30	47246.05
581.46	47255.42
581.62	47239.03
581.78	47379.46
581.94	48020.77
582.10	47676.71
582.26	47931.83
582.42	47468.40
582.58	47863.96
582.74	47316.27
582.90	47463.72
583.06	47831.19
583.22	47402.87
583.38	48051.20
583.54	47709.48
583.70	47498.83
583.86	47665.01
584.02	47150.09
584.18	47592.45
584.34	47526.92
584.50	47765.65
584.66	47232.01
584.82	47473.09
584.98	47358.40
585.14	47381.80
585.30	47185.20
585.46	47351.38
585.62	47206.26
585.78	47501.17
585.94	47232.01
586.10	47234.35
586.26	47122.01
586.42	47419.25
586.58	47601.82
586.74	47564.37
586.90	47608.84
587.06	47636.92
587.22	47515.22
587.38	47077.54
587.54	47725.86
587.70	47833.53
587.86	47625.22
588.02	47159.45
588.18	47435.64
588.34	47463.72
588.49	47114.98
588.65	46827.10
588.81	46918.38
588.97	46995.62
589.13	46780.29
589.29	47070.51
589.45	47505.85
589.61	47337.33
589.77	47356.06
589.93	47576.07
590.08	47896.72
590.24	47545.64
590.40	47564.37
590.56	47632.24
590.72	47423.93
590.88	47402.87
591.04	47590.11
591.20	47594.79
591.35	47583.09
591.51	47927.15
591.67	47824.17
591.83	47515.22
591.99	47105.62
592.15	47243.71
592.31	47459.04
592.46	47735.23
592.62	47365.42
592.78	47358.40
592.94	47381.80
593.10	47501.17
593.26	47470.75
593.41	47672.03
593.57	47470.75
593.73	47459.04
593.89	47573.73
594.05	47606.50
594.20	47810.12
594.36	47856.93
594.52	47042.43
594.68	47543.30
594.84	47562.03
594.99	47379.46
595.15	47379.46
595.31	47793.74
595.47	47529.26
595.62	47917.79
595.78	47819.49
595.94	48039.50
596.10	47995.03
596.25	47756.29
596.41	47473.09
596.57	47924.81
596.73	47908.43
596.88	48034.81
597.04	47803.10
597.20	47793.74
597.36	47510.53
597.51	47952.90
597.67	47377.12
597.83	47723.52
597.99	47950.56
598.14	47330.31
598.30	47714.16
598.46	47590.11
598.61	47784.38
598.77	47372.44
598.93	47484.79
599.09	47707.14
599.24	48165.88
599.40	48013.75
599.56	47901.40
599.71	47873.32
599.87	48030.13
600.03	47660.33
600.18	47255.42
600.34	47426.28
600.50	47917.79
600.65	47683.73
600.81	47599.47
600.97	48186.95
601.12	47854.59
601.28	47805.44
601.44	47765.65
601.59	47796.08
601.75	47569.05
601.91	47473.09
602.06	47306.91
602.22	47847.57
602.37	47533.94
602.53	48055.88
602.69	48048.86
602.84	47765.65
603.00	47395.85
603.16	47721.18
603.31	47849.91
603.47	47988.00
603.62	47381.80
603.78	47716.50
603.94	47168.82
604.09	47957.58
604.25	47929.49
604.40	47934.17
604.56	47791.40
604.71	47440.32
604.87	47414.57
605.03	46927.74
605.18	47377.12
605.34	47332.65
605.49	47215.63
605.65	47323.29
605.80	47384.15
605.96	47573.73
606.12	47753.95
606.27	47641.60
606.43	47100.94
606.58	47510.53
606.74	47283.50
606.89	47346.70
607.05	47604.16
607.20	47672.03
607.36	47779.70
607.51	47653.31
607.67	47578.41
607.82	47484.79
607.98	47370.10
608.13	47442.66
608.29	47557.35
608.44	47241.37
608.60	46625.81
608.75	46738.16
608.91	46913.70
609.06	47091.58
609.22	47114.98
609.37	47194.56
609.53	46836.46
609.68	47653.31
609.84	47168.82
609.99	47126.69
610.15	47526.92
610.30	46871.57
610.46	46747.52
610.61	47145.41
610.76	47192.22
610.92	47021.36
611.07	46990.94
611.23	46803.69
611.38	47143.07
611.54	46298.14
611.69	46927.74
611.84	46588.36
612.00	46663.26
612.15	46653.90
612.31	46887.95
612.46	46569.64
612.62	46504.10
612.77	47002.64
612.92	46838.80
613.08	46623.47
613.23	46513.47
613.39	46476.02
613.54	46543.89
613.69	46532.19
613.85	46602.41
614.00	46887.95
614.15	46681.98
614.31	46651.56
614.46	46815.40
614.62	46656.24
614.77	46405.80
614.92	46387.08
615.08	46291.12
615.23	46401.12
615.38	46368.35
615.54	46274.73
615.69	46021.95
615.84	46096.85
616.00	45909.61
616.15	46356.65
616.30	46277.07
616.46	46033.66
616.61	45923.65
616.76	46300.48
616.92	46153.02
617.07	46099.19
617.22	45399.37
617.37	45633.42
617.53	46232.60
617.68	46335.59
617.83	46024.29
617.99	46220.90
618.14	46270.05
618.29	46403.46
618.45	45958.76
618.60	45935.35
618.75	46033.66
618.90	45572.57
619.06	45689.60
619.21	45804.28
619.36	45984.51
619.51	45563.21
619.67	45422.78
619.82	45944.72
619.97	45897.91
620.12	45530.44
620.28	45464.91
620.43	45549.17
620.58	45263.62
620.73	45666.19
620.89	45797.26
621.04	45425.12
621.19	45574.91
621.34	44949.99
621.49	45331.50
621.65	45558.53
621.80	45925.99
621.95	45181.70
622.10	45429.80
622.25	45593.64
622.41	45111.49
622.56	44802.53
622.71	45024.89
622.86	45326.81
623.01	45102.12
623.16	45418.10
623.32	45317.45
623.47	45593.64
623.62	45427.46
623.77	45055.31
623.92	44837.64
624.07	44945.31
624.23	44744.02
624.38	44676.15
624.53	44343.79
624.68	45181.70
624.83	44954.67
624.98	44795.51
625.13	44608.27
625.29	44996.80
625.44	44533.37
625.59	44219.74
625.74	44285.28
625.89	44531.03
626.04	44306.34
626.19	44526.35
626.34	44472.52
626.49	44360.17
626.65	44542.74
626.80	44793.17
626.95	44135.48
627.10	44467.84
627.25	44409.32
627.40	44083.99
627.55	43608.86
627.70	43260.12
627.85	44231.44
628.00	43859.30
628.15	43725.89
628.30	44332.09
628.45	44238.47
628.60	43704.82
628.76	43969.30
628.91	44102.71
629.06	44313.36
629.21	43868.66
629.36	43988.03
629.51	43639.29
629.66	43702.48
629.81	43784.40
629.96	43833.55
630.11	43817.17
630.26	43761.00
630.41	43842.92
630.56	43803.13
630.71	43882.70
630.86	43943.56
631.01	43227.35
631.16	43323.32
631.31	43180.54
631.46	42972.24
631.61	43304.59
631.76	43555.03
631.91	43749.29
632.06	43814.83
632.21	43320.98
632.36	43379.49
632.51	43225.01
632.66	43407.58
632.81	42930.11
632.96	43267.14
633.10	43449.70
633.25	43129.05
633.40	42876.27
633.55	42916.06
633.70	43491.83
633.85	43257.78
634.00	42782.65
634.15	42927.77
634.30	42836.48
634.45	42780.31
634.60	43079.90
634.75	43000.32
634.90	42955.85
635.05	42916.06
635.19	42625.84
635.34	42801.38
635.49	42747.54
635.64	43068.20
635.79	42689.03
635.94	42480.72
636.09	42745.20
636.24	42721.80
636.39	42366.04
636.53	42417.53
636.68	42141.35
636.83	42153.05
636.98	42541.58
637.13	42326.25
637.28	42831.80
637.43	42731.16
637.57	42806.06
637.72	42686.69
637.87	42286.46
638.02	42698.39
638.17	42206.88
638.32	42349.65
638.46	42052.41
638.61	42120.28
638.76	42298.16
638.91	42232.63
639.06	42293.48
639.20	42066.45
639.35	42398.80
639.50	42176.45
639.65	42349.65
639.80	42319.23
639.94	42293.48
640.09	42150.71
640.24	41853.46
640.39	41881.55
640.54	41701.32
640.68	41785.58
640.83	42017.30
640.98	41696.64
641.13	41301.09
641.27	42623.50
641.42	41495.36
641.57	41574.94
641.72	41766.86
641.86	41474.29
642.01	41467.27
642.16	41617.07
642.31	40744.05
642.45	41434.50
642.60	41120.87
642.75	41525.78
642.90	41680.26
643.04	41392.37
643.19	41408.76
643.34	41422.80
643.48	41097.47
643.63	41439.18
643.78	41048.32
643.93	41031.93
644.07	40762.77
644.22	40666.81
644.37	41144.28
644.51	41071.72
644.66	41013.21
644.81	41167.68
644.95	40968.74
645.10	40790.86
645.25	40980.44
645.39	41139.60
645.54	40928.95
645.69	41062.36
645.83	40851.71
645.98	40779.15
646.13	40947.67
646.27	40900.86
646.42	40484.25
646.57	40409.35
646.71	41062.36
646.86	40566.16
647.00	40645.74
647.15	41008.53
647.30	40500.63
647.44	40341.47
647.59	40835.33
647.74	40313.39
647.88	40502.97
648.03	40425.73
648.17	40762.77
648.32	40175.30
648.47	40062.95
648.61	40325.09
648.76	40287.64
648.90	40172.96
649.05	40224.45
649.20	40301.68
649.34	40421.05
649.49	39714.21
649.63	40205.72
649.78	40034.86
649.92	40037.20
650.07	40465.52
650.21	40112.10
650.36	40144.87
650.51	39669.74
650.65	40444.46
650.80	40556.80
650.94	40449.14
651.09	40027.84
651.23	40025.50
651.38	40233.81
651.52	39203.97
651.67	39943.58
651.81	39592.50
651.96	39866.34
652.10	39611.23
652.25	39093.97
652.39	39531.65
652.54	39548.03
652.68	39566.76
652.83	39894.43
652.97	39519.95
653.12	39283.55
653.26	39189.93
653.41	39510.58
653.55	39606.55
653.70	39309.30
653.84	39728.25
653.99	39641.65
654.13	39489.52
654.27	39416.96
654.42	39562.08
654.56	39129.08
654.71	39157.16
654.85	39447.39
655.00	39512.92
655.14	39005.03
655.29	38632.88
655.43	38899.70
655.57	38721.82
655.72	38724.16
655.86	38539.26
656.01	38597.77
656.15	38078.18
656.30	38534.58
656.44	38447.98
656.58	38635.22
656.73	38345.00
656.87	38274.78
657.01	38321.59
657.16	38375.42
657.30	38513.52
657.45	38328.61
657.59	38405.85
657.73	38359.04
657.88	38160.09
658.02	38024.34
658.16	38497.13
658.31	38557.99
658.45	38628.20
658.60	38122.65
658.74	38494.79
658.88	38813.10
659.03	38337.98
659.17	38092.22
659.31	38029.02
659.46	38153.07
659.60	37963.49
659.74	37965.83
659.89	37855.82
660.03	37600.71
660.17	37872.21
660.32	38024.34
660.46	37998.60
660.60	37804.33
660.74	37827.74
660.89	37738.80
661.03	37127.92
661.17	37324.52
661.32	37233.24
661.46	37474.32
661.60	37638.15
661.74	37441.55
661.89	36980.46
662.03	37174.73
662.17	37457.93
662.31	37008.55
662.46	37483.68
662.60	37270.69
662.74	37195.79
662.88	37212.18
663.03	36760.45
663.17	37207.50
663.31	36678.54
663.45	36734.71
663.60	36814.29
663.74	36598.96
663.88	36631.72
664.02	36306.39
664.17	36671.51
664.31	36128.51
664.45	36481.93
664.59	36510.02
664.73	36425.76
664.88	36371.92
665.02	36062.97
665.16	36669.17
665.30	35978.72
665.44	36212.77
665.59	35915.52
665.73	35711.89
665.87	35842.96
666.01	35662.74
666.15	35810.20
666.29	35637.00
666.44	35529.33
666.58	35548.06
666.72	35700.19
666.86	35536.35
667.00	35534.01
667.14	35658.06
667.28	35864.03
667.43	35124.42
667.57	35555.08
667.71	34953.56
667.85	35035.48
667.99	34923.13
668.13	35166.55
668.27	34691.42
668.41	35218.04
668.56	35070.59
668.70	35297.62
668.84	35058.88
668.98	34686.74
669.12	34541.63
669.26	34511.20
669.40	34794.40
669.54	34754.61
669.68	34480.77
669.82	34623.54
669.96	34700.78
670.10	34326.30
670.25	34487.79
670.39	34305.23
670.53	34052.45
670.67	33977.56
670.81	34087.56
670.95	33720.10
671.09	34410.56
671.23	33963.51
671.37	34384.81
671.51	33619.46
671.65	33869.89
671.79	33759.89
671.93	33015.60
672.07	33584.35
672.21	33263.69
672.35	33109.22
672.49	33336.25
672.63	33280.08
672.77	33076.45
672.91	33235.61
673.05	33394.76
673.19	33088.15
673.33	33296.46
673.47	33043.68
673.61	32613.02
673.75	32545.15
673.89	32598.98
674.03	32348.54
674.17	32273.65
674.31	32708.99
674.45	32261.94
674.59	32058.32
674.73	32299.39
674.87	32278.33
675.01	32151.94
675.15	31910.86
675.29	32046.62
675.43	31983.42
675.56	32025.55
675.70	31508.29
675.84	31672.13
675.98	30469.09
676.12	31473.18
676.26	31257.85
676.40	30897.41
676.54	31047.21
676.68	31063.59
676.82	30504.20
676.96	30597.82
677.10	30658.68
677.23	30670.38
677.37	30595.48
677.51	30197.59
677.65	30415.26
677.79	30211.64
677.93	30204.61
678.07	30281.85
678.21	29902.68
678.34	29663.95
678.48	29977.58
678.62	29713.10
678.76	29427.56
678.90	29668.63
679.04	29542.24
679.18	29670.97
679.31	29067.11
679.45	29113.92
679.59	29130.31
679.73	29340.96
679.87	29390.11
680.00	29116.26
680.14	28723.05
680.28	28900.94
680.42	28577.94
680.56	28381.34
680.70	28243.24
680.83	28233.88
680.97	28266.65
681.11	28423.47
681.25	27938.97
681.39	27695.56
681.52	28212.82
681.66	28063.02
681.80	27854.72
681.94	27679.18
682.07	27913.23
682.21	27384.27
682.35	27660.45
682.49	27674.49
682.62	27470.87
682.76	27386.61
682.90	27173.62
683.04	27068.30
683.17	27250.86
683.31	26707.85
683.45	26761.69
683.59	26745.30
683.72	26464.44
683.86	26249.11
684.00	25914.41
684.13	26490.18
684.27	26298.26
684.41	26045.48
684.55	25963.56
684.68	25832.49
684.82	25731.85
684.96	25565.67
685.09	25673.34
685.23	25364.39
685.37	25582.06
685.50	25558.65
685.64	25343.32
685.78	25317.57
685.91	25408.86
686.05	24968.84
686.19	24648.18
686.32	24840.11
686.46	24458.60
686.60	24161.35
686.73	24041.98
686.87	23997.51
687.01	23896.87
687.14	23917.93
687.28	23960.06
687.42	23339.82
687.55	23819.63
687.69	23800.91
687.82	23721.33
687.96	23578.56
688.10	23791.55
688.23	23676.86
688.37	23145.56
688.50	23115.13
688.64	22981.72
688.78	23187.69
688.91	22817.88
689.05	23185.35
689.18	22970.02
689.32	22382.54
689.46	22677.45
689.59	22803.84
689.73	22951.29
689.86	22820.22
690.00	22750.01
690.13	22342.75
690.27	22115.72
690.41	22143.81
690.54	22382.54
690.68	21935.50
690.81	21729.53
690.95	22022.10
691.08	21582.08
691.22	21809.11
691.35	21708.47
691.49	21570.38
691.62	22015.08
691.76	21692.08
691.89	21706.13
692.03	21071.84
692.16	21167.80
692.30	21266.11
692.43	21338.66
692.57	20765.23
692.70	20900.98
692.84	20608.42
692.97	20671.61
693.11	20788.64
693.24	20067.75
693.38	20130.95
693.51	20418.83
693.65	20329.89
693.78	20175.42
693.92	20397.77
694.05	20152.01
694.19	19939.02
694.32	20229.25
694.45	19957.75
694.59	19957.75
694.72	19761.14
694.86	19419.42
694.99	19309.42
695.13	19323.46
695.26	19248.57
695.39	18984.09
695.53	19470.92
695.66	19061.32
695.80	19054.30
695.93	18958.34
696.07	18878.76
696.20	18689.18
696.33	18644.71
696.47	18558.11
696.60	18663.43
696.73	18710.24
696.87	18377.89
697.00	18513.64
697.14	18342.78
697.27	18492.57
697.40	18178.94
697.54	17980.00
697.67	17781.05
697.80	17713.17
697.94	17891.06
698.07	17614.87
698.21	17392.52
698.34	17825.52
698.47	17710.83
698.61	17451.03
698.74	17282.52
698.87	17270.81
699.01	17128.04
699.14	17130.38
699.27	17174.85
699.40	16844.84
699.54	16781.64
699.67	16776.96
699.80	16741.85
699.94	16540.57
700.07	16828.45
700.20	16552.27
700.34	16624.83
700.47	16416.52
700.60	16428.22
700.73	16339.28
700.87	16079.48
701.00	16051.39
701.13	16163.74
701.26	16051.39
701.40	15925.00
701.53	15833.72
701.66	15688.61
701.79	15843.09
701.93	15735.42
702.06	15405.41
702.19	15880.53
702.32	15360.94
702.46	15403.07
702.59	15276.68
702.72	15171.35
702.85	15283.70
702.99	15061.35
703.12	15227.53
703.25	15136.24
703.38	14883.47
703.51	14972.41
703.65	14764.10
703.78	14684.52
703.91	14724.31
704.04	14523.02
704.17	14345.14
704.31	14377.91
704.44	14335.78
704.57	13963.64
704.70	14005.77
704.83	14291.31
704.96	14171.94
705.10	14523.02
705.23	14436.42
>>>>>End Processed Spectral Data<<<<<
