SpectraSuite Data File
++++++++++++++++++++++++++++++++++++
Date: Fri Oct 25 11:34:20 EDT 2013
User: price-jones
Dark Spectrum Present: No
Reference Spectrum Present: No
Number of Sampled Component Spectra: 1
Spectrometers: USB2+H05261
Integration Time (usec): 100000 (USB2+H05261)
Spectra Averaged: 1 (USB2+H05261)
Boxcar Smoothing: 0 (USB2+H05261)
Correct for Electrical Dark: No (USB2+H05261)
Strobe/Lamp Enabled: No (USB2+H05261)
Correct for Detector Non-linearity: No (USB2+H05261)
Correct for Stray Light: No (USB2+H05261)
Number of Pixels in Processed Spectrum: 2048
>>>>>Begin Processed Spectral Data<<<<<
365.73	236.39
365.92	236.39
366.12	236.39
366.32	194.26
366.52	222.35
366.72	210.65
366.91	189.58
367.11	189.58
367.31	234.05
367.51	138.09
367.70	196.60
367.90	117.03
368.10	222.35
368.30	166.18
368.49	154.48
368.69	224.69
368.89	208.31
369.09	117.03
369.28	255.12
369.48	191.92
369.68	191.92
369.87	189.58
370.07	241.08
370.27	287.89
370.47	353.42
370.66	578.11
370.86	454.06
371.06	547.69
371.25	564.07
371.45	512.58
371.65	526.62
371.84	503.22
372.04	538.32
372.24	559.39
372.44	643.65
372.63	603.86
372.83	613.22
373.03	561.73
373.22	580.45
373.42	617.90
373.62	617.90
373.81	622.58
374.01	669.39
374.21	613.22
374.40	596.84
374.60	695.14
374.79	624.92
374.99	643.65
375.19	690.46
375.38	671.73
375.58	650.67
375.78	727.91
375.97	655.35
376.17	676.41
376.37	594.50
376.56	636.63
376.76	685.78
376.95	671.73
377.15	631.94
377.35	629.60
377.54	706.84
377.74	669.39
377.93	592.16
378.13	634.29
378.33	645.99
378.52	723.23
378.72	711.52
378.91	727.91
379.11	702.16
379.31	763.01
379.50	704.50
379.70	718.54
379.89	713.86
380.09	669.39
380.28	737.27
380.48	706.84
380.68	695.14
380.87	692.80
381.07	725.57
381.26	713.86
381.46	767.70
381.65	777.06
381.85	723.23
382.04	734.93
382.24	748.97
382.43	727.91
382.63	823.87
382.83	753.65
383.02	858.98
383.22	823.87
383.41	823.87
383.61	795.78
383.80	863.66
384.00	744.29
384.19	814.51
384.39	744.29
384.58	802.80
384.78	819.19
384.97	870.68
385.17	819.19
385.36	809.83
385.56	833.23
385.75	856.64
385.95	858.98
386.14	833.23
386.34	873.02
386.53	875.36
386.72	828.55
386.92	898.77
387.11	873.02
387.31	863.66
387.50	840.25
387.70	926.85
387.89	884.72
388.09	903.45
388.28	837.91
388.48	915.15
388.67	940.90
388.86	858.98
389.06	905.79
389.25	1004.09
389.45	990.05
389.64	933.87
389.84	943.24
390.03	943.24
390.22	917.49
390.42	898.77
390.61	938.55
390.81	910.47
391.00	861.32
391.19	1020.47
391.39	950.26
391.58	1022.81
391.78	985.37
391.97	954.94
392.16	971.32
392.36	1069.62
392.55	1041.54
392.75	1039.20
392.94	1022.81
393.13	1008.77
393.33	1004.09
393.52	978.34
393.71	1057.92
393.91	1053.24
394.10	1043.88
394.29	1074.31
394.49	1076.65
394.68	1083.67
394.88	1050.90
395.07	1062.60
395.26	959.62
395.46	1102.39
395.65	1188.99
395.84	1181.97
396.04	1184.31
396.23	1256.87
396.42	1174.95
396.62	1191.33
396.81	1254.53
397.00	1163.25
397.19	1158.57
397.39	1219.42
397.58	1224.10
397.77	1135.16
397.97	1261.55
398.16	1273.25
398.35	1280.27
398.55	1231.12
398.74	1233.46
398.93	1174.95
399.12	1294.32
399.32	1196.01
399.51	1334.11
399.70	1329.42
399.90	1362.19
400.09	1310.70
400.28	1366.87
400.47	1394.96
400.67	1336.45
400.86	1376.24
401.05	1345.81
401.24	1369.21
401.44	1411.34
401.63	1472.20
401.82	1399.64
402.01	1373.89
402.21	1355.17
402.40	1460.49
402.59	1474.54
402.78	1444.11
402.97	1448.79
403.17	1483.90
403.36	1563.48
403.55	1467.52
403.74	1561.14
403.93	1582.20
404.13	1624.33
404.32	1586.88
404.51	1516.67
404.70	1563.48
404.89	1612.63
405.09	1568.16
405.28	1729.66
405.47	1619.65
405.66	1636.03
405.85	1647.74
406.05	1636.03
406.24	1753.06
406.43	1678.16
406.62	1734.34
406.81	1797.53
407.00	1680.50
407.20	1678.16
407.39	1757.74
407.58	1891.15
407.77	1788.17
407.96	1837.32
408.15	1856.04
408.34	1736.68
408.54	1874.77
408.73	1867.75
408.92	1872.43
409.11	1977.75
409.30	1900.52
409.49	1928.60
409.68	1975.41
409.87	1937.96
410.07	1947.33
410.26	1935.62
410.45	1961.37
410.64	2008.18
410.83	2045.63
411.02	2050.31
411.21	2118.18
411.40	2003.50
411.59	2172.02
411.78	2087.76
411.98	2172.02
412.17	2190.74
412.36	2225.85
412.55	2218.83
412.74	2317.13
412.93	2267.98
413.12	2256.28
413.31	2450.54
413.50	2452.88
413.69	2413.09
413.88	2396.71
414.07	2455.22
414.26	2331.17
414.45	2450.54
414.64	2480.97
414.83	2504.37
415.02	2583.95
415.22	2569.91
415.41	2691.62
415.60	2656.51
415.79	2722.04
415.98	2576.93
416.17	2703.32
416.36	2691.62
416.55	2703.32
416.74	2698.64
416.93	2813.32
417.12	2801.62
417.31	2731.41
417.50	2841.41
417.69	2930.35
417.88	2885.88
418.07	2738.43
418.26	2848.43
418.45	2928.01
418.64	3054.40
418.83	2946.73
419.02	2881.20
419.21	2984.18
419.39	3087.17
419.58	2972.48
419.77	2848.43
419.96	3101.21
420.15	2991.20
420.34	3112.91
420.53	3077.80
420.72	3108.23
420.91	3173.77
421.10	3187.81
421.29	3330.58
421.48	3122.27
421.67	3190.15
421.86	3103.55
422.05	3201.85
422.24	3159.72
422.43	3227.60
422.61	3293.13
422.80	3342.28
422.99	3215.90
423.18	3370.37
423.37	3442.93
423.56	3248.66
423.75	3363.35
423.94	3262.71
424.13	3096.53
424.32	3169.09
424.50	3417.18
424.69	3489.74
424.88	3328.24
425.07	3311.86
425.26	3302.50
425.45	3351.65
425.64	3335.26
425.83	3323.56
426.01	3351.65
426.20	3382.07
426.39	3356.33
426.58	3389.10
426.77	3403.14
426.96	3562.30
427.15	3494.42
427.33	3445.27
427.52	3618.47
427.71	3524.85
427.90	3349.31
428.09	3492.08
428.28	3552.93
428.46	3630.17
428.65	3538.89
428.84	3742.52
429.03	3679.32
429.22	3522.51
429.40	3719.11
429.59	3672.30
429.78	3590.38
429.97	3529.53
430.16	3686.34
430.34	3705.07
430.53	3836.14
430.72	3693.37
430.91	3740.18
431.10	3801.03
431.28	3866.56
431.47	3962.53
431.66	3829.12
431.85	3880.61
432.03	3936.78
432.22	3995.29
432.41	3960.19
432.60	3939.12
432.79	4063.17
432.97	4030.40
433.16	4105.30
433.35	3953.16
433.54	4037.42
433.72	4128.70
433.91	4109.98
434.10	4002.32
434.28	3969.55
434.47	4145.09
434.66	4095.94
434.85	4121.68
435.03	4117.00
435.22	4308.93
435.41	4201.26
435.59	4234.03
435.78	4205.94
435.97	4322.97
436.16	4234.03
436.34	4271.48
436.53	4386.16
436.72	4386.16
436.90	4308.93
437.09	4447.02
437.28	4280.84
437.46	4341.69
437.65	4283.18
437.84	4456.38
438.02	4552.34
438.21	4449.36
438.40	4482.13
438.58	4582.77
438.77	4627.24
438.96	4512.55
439.14	4702.14
439.33	4901.08
439.52	4624.90
439.70	4901.08
439.89	4793.42
440.08	4795.76
440.26	4760.65
440.45	4760.65
440.63	4917.47
440.82	5067.26
441.01	4858.95
441.19	5046.20
441.38	5097.69
441.57	5217.05
441.75	5165.56
441.94	5261.52
442.12	5334.08
442.31	5362.17
442.50	5469.83
442.68	5210.03
442.87	5348.12
443.05	5476.85
443.24	5390.25
443.43	5284.93
443.61	5331.74
443.80	5610.26
443.98	5357.49
444.17	5174.92
444.35	5401.96
444.54	5359.83
444.73	5420.68
444.91	5451.11
445.10	5561.11
445.28	5493.24
445.47	5500.26
445.65	5474.51
445.84	5448.77
446.02	5675.80
446.21	5666.44
446.39	5556.43
446.58	5666.44
446.77	5659.42
446.95	5446.43
447.14	5455.79
447.32	5565.79
447.51	5636.01
447.69	5575.16
447.88	5659.42
448.06	5703.89
448.25	5657.07
448.43	5710.91
448.62	5689.84
448.80	5671.12
448.99	5804.53
449.17	5717.93
449.36	5678.14
449.54	5788.14
449.73	6040.92
449.91	5764.74
450.10	5905.17
450.28	5951.98
450.46	5982.41
450.65	5977.73
450.83	6050.28
451.02	6106.46
451.20	5947.30
451.39	5980.07
451.57	6024.54
451.76	5792.83
451.94	6108.80
452.13	6127.52
452.31	6078.37
452.49	6008.16
452.68	6157.95
452.86	6043.26
453.05	6321.79
453.23	6274.98
453.42	6052.63
453.60	6115.82
453.78	6244.55
453.97	6139.23
454.15	6228.17
454.34	6174.33
454.52	6354.55
454.70	6324.13
454.89	6541.80
455.07	6274.98
455.26	6373.28
455.44	6511.37
455.62	6520.73
455.81	6497.33
455.99	6665.85
456.17	6691.59
456.36	6803.94
456.54	6719.68
456.73	6576.91
456.91	6970.12
457.09	6892.88
457.28	6991.18
457.46	6621.38
457.64	6918.62
457.83	7007.56
458.01	6759.47
458.19	7098.84
458.38	6846.07
458.56	6937.35
458.74	7108.21
458.93	6963.09
459.11	7108.21
459.29	7005.22
459.48	7098.84
459.66	7049.69
459.84	7108.21
460.03	7190.13
460.21	7197.15
460.39	7164.38
460.57	7353.96
460.76	7302.47
460.94	7337.58
461.12	7229.91
461.31	7421.84
461.49	7304.81
461.67	7234.60
461.85	7543.55
462.04	7272.04
462.22	7735.47
462.40	7414.82
462.59	7421.84
462.77	7571.63
462.95	7618.44
463.13	7707.38
463.32	7515.46
463.50	7597.38
463.68	7786.96
463.86	7770.58
464.05	7508.44
464.23	7660.57
464.41	7854.84
464.59	7552.91
464.78	7948.46
464.96	7784.62
465.14	7747.17
465.32	7693.34
465.50	7925.05
465.69	7819.73
465.87	7737.81
466.05	7854.84
466.23	7681.64
466.41	7822.07
466.60	8065.49
466.78	7843.14
466.96	7899.31
467.14	7833.77
467.32	8025.70
467.51	8128.68
467.69	8081.87
467.87	8236.35
468.05	8107.62
468.23	8084.21
468.41	8006.97
468.60	8301.88
468.78	8418.91
468.96	8383.80
469.14	8418.91
469.32	8498.49
469.50	7957.82
469.69	8409.54
469.87	8564.02
470.05	8519.55
470.23	8442.31
470.41	8372.10
470.59	8683.39
470.77	8505.51
470.95	8439.97
471.14	8924.46
471.32	8521.89
471.50	8840.20
471.68	8638.92
471.86	8837.86
472.04	8854.25
472.22	9191.28
472.40	8889.35
472.58	8992.34
472.77	8924.46
472.95	9039.15
473.13	9359.80
473.31	9184.26
473.49	8994.68
473.67	9008.72
473.85	9350.44
474.03	9242.78
474.21	9418.32
474.39	9465.13
474.57	9430.02
474.75	9724.93
474.93	9657.05
475.12	9523.64
475.30	9542.36
475.48	9614.92
475.66	9762.37
475.84	9823.23
476.02	9816.21
476.20	9984.73
476.38	10008.13
476.56	10352.19
476.74	10286.65
476.92	10232.82
477.10	10188.35
477.28	10471.56
477.46	10345.17
477.64	10319.42
477.82	10595.61
478.00	10846.04
478.18	10640.08
478.36	10850.72
478.54	11117.54
478.72	10839.02
478.90	11232.23
479.08	11335.21
479.26	11257.98
479.44	11433.52
479.62	11295.43
479.80	11318.83
479.98	11461.60
480.16	11672.25
480.34	11662.89
480.52	11719.06
480.70	11997.59
480.88	11836.09
481.06	11936.73
481.24	12028.01
481.41	12018.65
481.59	12351.01
481.77	12409.52
481.95	12566.34
482.13	12521.87
482.31	12833.16
482.49	12791.03
482.67	13078.91
482.85	13032.10
483.03	13036.78
483.21	13282.54
483.39	13305.95
483.57	13394.89
483.74	13411.27
483.92	13701.50
484.10	13621.92
484.28	13912.14
484.46	14064.28
484.64	14118.11
484.82	13991.72
485.00	14024.49
485.18	14415.36
485.35	14647.07
485.53	14532.39
485.71	14740.69
485.89	14848.36
486.07	15051.99
486.25	14953.68
486.43	15133.90
486.61	15300.08
486.78	15487.32
486.96	15578.61
487.14	15552.86
487.32	15749.46
487.50	15747.12
487.68	15941.39
487.85	16353.32
488.03	16365.03
488.21	16563.97
488.39	16549.93
488.57	16645.89
488.75	16582.70
488.92	16648.23
489.10	16996.97
489.28	17099.95
489.46	17350.39
489.64	17085.91
489.81	17525.93
489.99	17341.03
490.17	17610.19
490.35	17961.27
490.53	18153.20
490.70	17998.72
490.88	18216.39
491.06	18246.82
491.24	18455.12
491.41	18443.42
491.59	18572.15
491.77	18869.40
491.95	18824.93
492.13	18813.23
492.30	18843.65
492.48	19360.91
492.66	19213.46
492.84	19356.23
493.01	19330.48
493.19	19407.72
493.37	19349.21
493.54	19442.83
493.72	20037.33
493.90	20056.05
494.08	20142.65
494.25	20390.75
494.43	20451.60
494.61	20449.26
494.79	20664.59
494.96	20648.21
495.14	20683.31
495.32	20884.60
495.49	21268.45
495.67	21181.85
495.85	21296.53
496.02	21362.07
496.20	21731.87
496.38	21841.88
496.55	21488.46
496.73	22319.35
496.91	22068.91
497.09	22120.40
497.26	21930.82
497.44	22061.89
497.62	22125.08
497.79	22684.47
497.97	22586.17
498.14	22824.90
498.32	22965.34
498.50	23105.77
498.67	23087.04
498.85	23012.15
499.03	23126.83
499.20	23461.53
499.38	23278.97
499.56	23494.30
499.73	23536.43
499.91	23892.19
500.08	23817.29
500.26	23599.62
500.44	23934.32
500.61	23934.32
500.79	24154.33
500.97	24280.72
501.14	24615.41
501.32	24329.87
501.49	24477.32
501.67	24505.41
501.84	24659.88
502.02	24912.66
502.20	25013.31
502.37	25172.46
502.55	24905.64
502.72	25029.69
502.90	24912.66
503.07	24858.83
503.25	25467.37
503.43	25366.73
503.60	25638.23
503.78	25352.68
503.95	25661.63
504.13	25743.55
504.30	25771.64
504.48	25881.64
504.65	25961.22
504.83	26377.84
505.01	26401.24
505.18	26101.65
505.36	26417.63
505.53	26211.66
505.71	26499.55
505.88	26562.74
506.06	26466.78
506.23	27040.21
506.41	26899.78
506.58	26913.82
506.76	26981.70
506.93	27178.30
507.11	27124.47
507.28	27147.87
507.46	27491.93
507.63	27573.85
507.81	27487.25
507.98	27634.71
508.16	27571.51
508.33	27770.46
508.50	27917.91
508.68	28081.75
508.85	28212.82
509.03	27960.04
509.20	28135.58
509.38	28601.35
509.55	28107.49
509.73	28290.06
509.90	28453.89
510.08	28650.50
510.25	28367.29
510.42	28584.96
510.60	28758.16
510.77	28900.94
510.95	29198.18
511.12	29170.10
511.30	29088.18
511.47	29095.20
511.64	29181.80
511.82	29593.73
511.99	29401.81
512.17	29521.18
512.34	29663.95
512.51	29961.20
512.69	30064.18
512.86	30003.33
513.04	29743.53
513.21	29687.36
513.38	30143.76
513.56	30101.63
513.73	30148.44
513.90	30572.08
514.08	30167.16
514.25	30714.85
514.43	30375.47
514.60	30562.72
514.77	30719.53
514.95	30314.62
515.12	30962.95
515.29	30918.48
515.47	30918.48
515.64	31431.05
515.81	30778.04
515.99	31206.36
516.16	31496.59
516.33	31426.37
516.51	31604.25
516.68	31250.83
516.85	31660.43
517.03	31630.00
517.20	31896.82
517.37	32006.83
517.54	32217.47
517.72	31786.82
517.89	31789.16
518.06	32252.58
518.24	31821.92
518.41	31978.74
518.58	32189.39
518.75	32102.79
518.93	31924.91
519.10	32243.22
519.27	32154.28
519.45	32362.59
519.62	32697.28
519.79	32849.42
519.96	32390.67
520.14	32952.40
520.31	32833.04
520.48	32849.42
520.65	32929.00
520.83	33020.28
521.00	33256.67
521.17	33338.59
521.34	33240.29
521.52	33296.46
521.69	33017.94
521.86	33659.24
522.03	33584.35
522.20	33570.30
522.38	33970.54
522.55	33982.24
522.72	33872.23
522.89	33947.13
523.07	34464.39
523.24	34103.95
523.41	34305.23
523.58	33912.02
523.75	34637.59
523.92	34242.04
524.10	34185.86
524.27	34476.09
524.44	34735.89
524.61	34581.42
524.78	34766.32
524.96	34890.37
525.13	35005.05
525.30	34995.69
525.47	35229.74
525.64	34965.26
525.81	34955.90
525.98	35166.55
526.16	35393.58
526.33	34836.53
526.50	35381.88
526.67	34981.65
526.84	35379.54
527.01	35480.18
527.18	35065.91
527.36	35962.33
527.53	35239.11
527.70	35786.79
527.87	35789.13
528.04	35601.89
528.21	35945.95
528.38	35707.21
528.55	36109.78
528.72	36116.81
528.89	36395.33
529.07	36236.17
529.24	35903.82
529.41	36308.73
529.58	36556.83
529.75	36416.40
529.92	36203.41
530.09	36732.37
530.26	36421.08
530.43	36666.83
530.60	36472.57
530.77	36264.26
530.94	36804.92
531.11	36306.39
531.28	36685.56
531.46	36669.17
531.63	36900.89
531.80	36737.05
531.97	37048.34
532.14	37624.11
532.31	37364.31
532.48	36978.12
532.65	37357.29
532.82	37268.35
532.99	37497.72
533.16	37024.93
533.33	37589.00
533.50	37111.53
533.67	37378.36
533.84	37420.48
534.01	37923.70
534.18	37778.59
534.35	38075.84
534.52	38419.89
534.69	38267.76
534.86	38293.50
535.03	38436.28
535.20	38389.47
535.37	38033.71
535.54	38506.49
535.71	38286.48
535.88	38726.50
536.05	38574.37
536.22	38635.22
536.38	38822.47
536.55	38536.92
536.72	38382.45
536.89	38363.72
537.06	38433.94
537.23	39007.37
537.40	38424.57
537.57	38920.77
537.74	38719.48
537.91	38909.07
538.08	38792.04
538.25	38834.17
538.42	38888.00
538.59	39608.89
538.75	39210.99
538.92	39419.30
539.09	39627.61
539.26	39313.98
539.43	39299.94
539.60	39070.56
539.77	39566.76
539.94	39405.26
540.11	39463.77
540.28	39318.66
540.44	39512.92
540.61	39402.92
540.78	39543.35
540.95	39636.97
541.12	39742.30
541.29	39826.56
541.46	39901.45
541.62	39686.12
541.79	40149.55
541.96	39491.86
542.13	39838.26
542.30	39519.95
542.47	39908.47
542.63	40268.92
542.80	40385.94
542.97	40299.34
543.14	40879.80
543.31	40421.05
543.48	40208.06
543.64	40591.91
543.81	40898.52
543.98	40559.14
544.15	40320.41
544.32	40793.20
544.48	41186.41
544.65	40559.14
544.82	41008.53
544.99	40704.26
545.16	40971.08
545.32	40842.35
545.49	40851.71
545.66	41848.78
545.83	41312.80
546.00	41455.57
546.16	41055.34
546.33	41188.75
546.50	41031.93
546.67	41394.71
546.83	40992.14
547.00	41179.39
547.17	41439.18
547.34	41469.61
547.50	41771.54
547.67	42101.56
547.84	41858.14
548.00	41979.85
548.17	41755.16
548.34	41792.61
548.51	41921.34
548.67	42239.65
548.84	41764.52
549.01	41507.06
549.18	42153.05
549.34	42569.66
549.51	42113.26
549.68	42351.99
549.84	41860.48
550.01	41893.25
550.18	42117.94
550.34	42234.97
550.51	42115.60
550.68	42714.78
550.84	41911.97
551.01	42330.93
551.18	42398.80
551.34	42176.45
551.51	42534.56
551.68	42747.54
551.84	42796.70
552.01	42213.90
552.18	42749.88
552.34	42335.61
552.51	42871.59
552.68	42813.08
552.84	42714.78
553.01	42387.10
553.18	42735.84
553.34	42536.90
553.51	42672.65
553.67	42857.55
553.84	42986.28
554.01	43131.39
554.17	43187.56
554.34	43168.84
554.51	42644.56
554.67	43578.43
554.84	43332.68
555.00	43072.88
555.17	43227.35
555.33	43072.88
555.50	43267.14
555.67	43377.15
555.83	43269.48
556.00	43440.34
556.16	43915.47
556.33	43316.29
556.50	43763.34
556.66	43545.67
556.83	43552.69
556.99	43569.07
557.16	43969.30
557.32	43999.73
557.49	44067.61
557.65	43548.01
557.82	43805.47
557.98	43161.82
558.15	43990.37
558.32	43601.84
558.48	43597.16
558.65	44076.97
558.81	43786.74
558.98	43536.30
559.14	43571.41
559.31	43718.87
559.47	43634.61
559.64	43906.11
559.80	44067.61
559.97	44011.43
560.13	43770.36
560.30	44304.00
560.46	44645.72
560.63	44252.51
560.79	43995.05
560.96	44524.01
561.12	44198.68
561.29	44442.09
561.45	44147.18
561.61	44245.49
561.78	44238.47
561.94	44299.32
562.11	44514.65
562.27	44355.49
562.44	43913.13
562.60	44201.02
562.77	44395.28
562.93	44123.78
563.10	44704.23
563.26	44617.63
563.42	44823.60
563.59	44612.95
563.75	44404.64
563.92	44772.11
564.08	44505.29
564.24	44879.77
564.41	44619.97
564.57	44273.57
564.74	44596.57
564.90	44514.65
565.07	44666.78
565.23	44952.33
565.39	44758.06
565.56	44889.13
565.72	44664.44
565.88	45109.14
566.05	44535.71
566.21	44957.01
566.38	44814.24
566.54	44947.65
566.70	45155.96
566.87	44966.37
567.03	44596.57
567.19	45216.81
567.36	45209.79
567.52	44631.68
567.68	45319.79
567.85	45041.27
568.01	45326.81
568.17	44872.75
568.34	45228.51
568.50	44694.87
568.66	44765.09
568.83	45113.83
568.99	44954.67
569.15	44758.06
569.32	44601.25
569.48	45385.33
569.64	45244.90
569.81	45235.53
569.97	45207.45
570.13	45298.73
570.30	44968.71
570.46	45528.10
570.62	45120.85
570.78	45340.86
570.95	45448.52
571.11	45244.90
571.27	45324.47
571.43	45289.37
571.60	45364.26
571.76	45411.07
571.92	45593.64
572.09	45397.03
572.25	44945.31
572.41	45394.69
572.57	45565.55
572.74	45216.81
572.90	45394.69
573.06	45165.32
573.22	45991.53
573.38	45371.28
573.55	45275.32
573.71	45930.67
573.87	45764.49
574.03	45385.33
574.20	45373.63
574.36	45525.76
574.52	45588.95
574.68	45820.67
574.84	45427.46
575.01	45600.66
575.17	45799.60
575.33	45771.52
575.49	45755.13
575.65	45792.58
575.82	45612.36
575.98	45532.78
576.14	45979.82
576.30	46291.12
576.46	45495.33
576.62	45624.06
576.79	45904.93
576.95	45088.08
577.11	45663.85
577.27	45748.11
577.43	45385.33
577.59	45649.81
577.75	45191.06
577.92	45797.26
578.08	45144.25
578.24	46110.89
578.40	45769.18
578.56	46071.10
578.72	46028.98
578.88	45989.19
579.04	45949.40
579.21	45607.68
579.37	45996.21
579.53	46092.17
579.69	45684.92
579.85	45666.19
580.01	45897.91
580.17	45855.78
580.33	46024.29
580.49	45834.71
580.65	46295.80
580.82	45720.02
580.98	45759.81
581.14	45853.44
581.30	45855.78
581.46	45848.75
581.62	45626.40
581.78	45570.23
581.94	45865.14
582.10	45748.11
582.26	45895.56
582.42	45633.42
582.58	46017.27
582.74	45935.35
582.90	45773.86
583.06	45750.45
583.22	45656.83
583.38	45736.41
583.54	46075.79
583.70	46103.87
583.86	46108.55
584.02	45717.68
584.18	46141.32
584.34	46298.14
584.50	46256.01
584.66	46122.60
584.82	46017.27
584.98	46103.87
585.14	46164.73
585.30	46160.05
585.46	46234.94
585.62	45691.94
585.78	46085.15
585.94	45401.71
586.10	45888.54
586.26	45972.80
586.42	45401.71
586.58	45918.97
586.74	46024.29
586.90	45610.02
587.06	45907.27
587.22	46204.52
587.38	45687.26
587.54	46127.28
587.70	46672.62
587.86	46286.43
588.02	45972.80
588.18	46300.48
588.34	45750.45
588.49	45900.25
588.65	45661.51
588.81	46314.52
588.97	46452.61
589.13	46206.86
589.29	46164.73
589.45	46190.47
589.61	45996.21
589.77	46302.82
589.93	45956.42
590.08	46291.12
590.24	46454.95
590.40	46637.51
590.56	46562.62
590.72	46590.70
590.88	46436.23
591.04	45900.25
591.20	46480.70
591.35	46674.96
591.51	46595.38
591.67	46754.54
591.83	46564.96
591.99	46466.66
592.15	46536.87
592.31	46197.49
592.46	45947.06
592.62	46312.18
592.78	46672.62
592.94	46990.94
593.10	46604.75
593.26	46773.27
593.41	46707.73
593.57	46597.73
593.73	46550.91
593.89	47019.02
594.05	47138.39
594.20	46539.21
594.36	47196.90
594.52	46660.92
594.68	46700.71
594.84	46670.28
594.99	46934.76
595.15	46674.96
595.31	46817.74
595.47	46932.42
595.62	46845.82
595.78	46745.18
595.94	46490.06
596.10	46649.22
596.25	46801.35
596.41	47122.01
596.57	46625.81
596.73	46855.18
596.88	46799.01
597.04	47054.13
597.20	46733.48
597.36	46733.48
597.51	46808.37
597.67	46656.24
597.83	46871.57
597.99	46932.42
598.14	46499.42
598.30	46843.48
598.46	46932.42
598.61	47349.04
598.77	46820.08
598.93	46663.26
599.09	46614.11
599.24	47288.18
599.40	46852.84
599.56	47161.79
599.71	47325.63
599.87	47292.86
600.03	47028.38
600.18	47021.36
600.34	46892.63
600.50	46813.05
600.65	46834.12
600.81	46930.08
600.97	46848.16
601.12	46939.44
601.28	47302.23
601.44	46710.07
601.59	46941.78
601.75	46773.27
601.91	46742.84
602.06	47147.75
602.22	46913.70
602.37	46759.22
602.53	46588.36
602.69	46995.62
602.84	46850.50
603.00	46740.50
603.16	46817.74
603.31	46939.44
603.47	46904.34
603.62	47114.98
603.78	46621.13
603.94	47136.05
604.09	47194.56
604.25	46981.57
604.40	46824.76
604.56	46862.21
604.71	47618.20
604.87	47019.02
605.03	47016.68
605.18	46824.76
605.34	47105.62
605.49	46885.61
605.65	46946.47
605.80	46747.52
605.96	46897.31
606.12	46672.62
606.27	46756.88
606.43	46731.14
606.58	47019.02
606.74	46579.00
606.89	46787.31
607.05	47124.35
607.20	46777.95
607.36	46192.81
607.51	46576.66
607.67	46756.88
607.82	46522.83
607.98	47000.30
608.13	46733.48
608.29	46263.03
608.44	46607.09
608.60	46452.61
608.75	46852.84
608.91	46284.09
609.06	46548.57
609.22	46644.54
609.37	46483.04
609.53	46829.44
609.68	46869.23
609.84	46813.05
609.99	46801.35
610.15	46256.01
610.30	46843.48
610.46	46415.16
610.61	46958.17
610.76	46593.04
610.92	46211.54
611.07	46384.74
611.23	46562.62
611.38	46438.57
611.54	46712.41
611.69	46494.74
611.84	46485.38
612.00	46487.72
612.15	46117.92
612.31	46368.35
612.46	46195.15
612.62	46410.48
612.77	46775.61
612.92	46225.58
613.08	46387.08
613.23	46241.96
613.39	46726.46
613.54	46007.91
613.69	46672.62
613.85	46246.65
614.00	46335.59
614.15	46494.74
614.31	46141.32
614.46	46094.51
614.62	45666.19
614.77	46330.90
614.92	46368.35
615.08	46436.23
615.23	46326.22
615.38	45834.71
615.54	46614.11
615.69	45968.12
615.84	46424.53
616.00	46211.54
616.15	46218.56
616.30	46085.15
616.46	46225.58
616.61	45659.17
616.76	46068.76
616.92	46040.68
617.07	45485.97
617.22	45375.97
617.37	45736.41
617.53	45996.21
617.68	45748.11
617.83	45556.19
617.99	46202.18
618.14	46078.13
618.29	45851.09
618.45	45698.96
618.60	45474.27
618.75	45280.00
618.90	45689.60
619.06	45703.64
619.21	45858.12
619.36	45509.38
619.51	45474.27
619.67	45200.43
619.82	45474.27
619.97	46040.68
620.12	45661.51
620.28	45525.76
620.43	45397.03
620.58	45677.90
620.73	45591.30
620.89	45530.44
621.04	45518.74
621.19	45532.78
621.34	45485.97
621.49	45172.34
621.65	45572.57
621.80	45745.77
621.95	45848.75
622.10	44935.95
622.25	45237.87
622.41	45074.04
622.56	45532.78
622.71	45591.30
622.86	45134.89
623.01	45375.97
623.16	45188.72
623.32	45109.14
623.47	45317.45
623.62	45249.58
623.77	45172.34
623.92	45134.89
624.07	44973.39
624.23	45055.31
624.38	45390.01
624.53	45324.47
624.68	44903.18
624.83	44968.71
624.98	44732.32
625.13	44561.46
625.29	44676.15
625.44	44711.25
625.59	45015.52
625.74	45034.25
625.89	44570.82
626.04	44910.20
626.19	45052.97
626.34	44463.16
626.49	44353.15
626.65	44259.53
626.80	44589.55
626.95	44198.68
627.10	44336.77
627.25	44744.02
627.40	44383.58
627.55	44582.52
627.70	44318.04
627.85	44552.10
628.00	44514.65
628.15	44568.48
628.30	44121.44
628.45	44236.12
628.60	43931.86
628.76	43931.86
628.91	44069.95
629.06	43770.36
629.21	44018.46
629.36	44114.42
629.51	43814.83
629.66	44271.23
629.81	43849.94
629.96	44612.95
630.11	43969.30
630.26	43686.10
630.41	44107.40
630.56	44119.10
630.71	44053.56
630.86	43569.07
631.01	44062.93
631.16	43948.24
631.31	44074.63
631.46	43971.64
631.61	44247.83
631.76	43828.87
631.91	43945.90
632.06	44301.66
632.21	43643.97
632.36	44072.29
632.51	43381.83
632.66	43903.77
632.81	43730.57
632.96	43571.41
633.10	43667.37
633.25	43508.22
633.40	43508.22
633.55	43658.01
633.70	43786.74
633.85	43283.53
634.00	43288.21
634.15	43409.92
634.30	43330.34
634.45	43117.35
634.60	43370.13
634.75	43159.48
634.90	43086.92
635.05	44037.18
635.19	43346.72
635.34	43725.89
635.49	43040.11
635.64	43201.61
635.79	43599.50
635.94	43299.91
636.09	43306.93
636.24	42782.65
636.39	42852.87
636.53	43107.99
636.68	43115.01
636.83	42548.60
636.98	43068.20
637.13	42848.19
637.28	43007.34
637.43	42923.08
637.57	42869.25
637.72	42911.38
637.87	42674.99
638.02	42848.19
638.17	42904.36
638.32	42990.96
638.46	42192.84
638.61	42679.67
638.76	42146.03
638.91	42663.28
639.06	42298.16
639.20	41949.42
639.35	42438.59
639.50	41827.71
639.65	42815.42
639.80	42314.55
639.94	42724.14
640.09	42831.80
640.24	42686.69
640.39	42139.00
640.54	42263.05
640.68	42029.00
640.83	42501.79
640.98	41783.24
641.13	42227.95
641.27	42462.00
641.42	42040.70
641.57	42122.62
641.72	42192.84
641.86	42106.24
642.01	41486.00
642.16	41378.33
642.31	41783.24
642.45	42073.47
642.60	41663.88
642.75	42005.59
642.90	42225.60
643.04	42344.97
643.19	41776.22
643.34	41947.08
643.48	41448.55
643.63	41546.85
643.78	42225.60
643.93	42096.88
644.07	41986.87
644.22	41883.89
644.37	41567.91
644.51	42087.51
644.66	41572.60
644.81	41841.76
644.95	42019.64
645.10	41773.88
645.25	41261.30
645.39	41478.97
645.54	41656.85
645.69	41050.66
645.83	40933.63
645.98	41085.76
646.13	41455.57
646.27	41397.06
646.42	41081.08
646.57	41565.57
646.71	41006.19
646.86	41249.60
647.00	41621.75
647.15	41284.71
647.30	41656.85
647.44	41151.30
647.59	41415.78
647.74	41053.00
647.88	41041.29
648.03	41411.10
648.17	41230.88
648.32	40975.76
648.47	41113.85
648.61	40783.83
648.76	41181.73
648.90	41057.68
649.05	41146.62
649.20	40807.24
649.34	40886.82
649.49	40811.92
649.63	41001.50
649.78	41055.34
649.92	41343.22
650.07	41380.67
650.21	41099.81
650.36	41022.57
650.51	40828.30
650.65	41163.00
650.80	41179.39
650.94	40786.18
651.09	40893.84
651.23	40215.08
651.38	40587.23
651.52	40156.57
651.67	39894.43
651.81	40566.16
651.96	40547.44
652.10	39896.77
652.25	39985.71
652.39	40294.66
652.54	40477.22
652.68	40313.39
652.83	40385.94
652.97	40439.78
653.12	39746.98
653.26	40538.08
653.41	40374.24
653.55	39913.16
653.70	40624.68
653.84	40430.41
653.99	40402.33
654.13	40245.51
654.27	39997.41
654.42	40421.05
654.56	39835.92
654.71	40098.06
654.85	40264.24
655.00	40163.59
655.14	40495.95
655.29	40289.98
655.43	40561.48
655.57	39510.58
655.72	39735.27
655.86	39576.12
656.01	39782.09
656.15	39503.56
656.30	39304.62
656.44	39931.88
656.58	39679.10
656.73	39459.09
656.87	39461.43
657.01	39154.82
657.16	39442.71
657.30	39812.51
657.45	39655.70
657.59	39480.16
657.73	39529.31
657.88	39473.13
658.02	39524.63
658.16	39491.86
658.31	39578.46
658.45	39761.02
658.60	38918.43
658.74	39524.63
658.88	39239.08
659.03	38930.13
659.17	38525.22
659.31	38646.93
659.46	38993.32
659.60	39154.82
659.74	38782.68
659.89	38595.43
660.03	38328.61
660.17	39098.65
660.32	38794.38
660.46	38778.00
660.60	38569.69
660.74	38649.27
660.89	38569.69
661.03	38284.14
661.17	38464.36
661.32	37853.48
661.46	38712.46
661.60	38246.69
661.74	38314.57
661.89	38204.56
662.03	38249.03
662.17	37937.74
662.31	38148.39
662.46	38234.99
662.60	37706.03
662.74	37390.06
662.88	37982.21
663.03	37986.89
663.17	37523.47
663.31	37354.95
663.45	37886.25
663.60	37811.35
663.74	38019.66
663.88	37888.59
664.02	37092.81
664.17	38014.98
664.31	37048.34
664.45	37298.78
664.59	37308.14
664.73	37036.64
664.88	37322.18
665.02	36570.87
665.16	37125.58
665.30	37216.86
665.44	36999.19
665.59	36954.72
665.73	36950.04
665.87	36247.88
666.01	37027.28
666.15	36884.50
666.29	36498.31
666.44	36680.88
666.58	36500.65
666.72	36404.69
666.86	36613.00
667.00	36287.67
667.14	36030.21
667.28	35770.41
667.43	36446.82
667.57	36376.61
667.71	36158.94
667.85	36278.30
667.99	36006.80
668.13	35878.07
668.27	35786.79
668.41	35562.10
668.56	35416.99
668.70	35101.01
668.84	35140.80
668.98	35215.70
669.12	35515.29
669.26	35435.71
669.40	35566.78
669.54	35583.16
669.68	35101.01
669.82	35182.93
669.96	35014.41
670.10	34698.44
670.25	35229.74
670.39	34726.53
670.53	35063.57
670.67	34888.03
670.81	35093.99
670.95	35051.86
671.09	34747.59
671.23	34735.89
671.37	34572.05
671.51	34487.79
671.65	34373.11
671.79	34618.86
671.93	34206.93
672.07	34391.83
672.21	34155.44
672.35	33809.04
672.49	34199.91
672.63	34209.27
672.77	33902.66
672.91	33846.49
673.05	33837.12
673.19	33439.23
673.33	33682.65
673.47	33125.60
673.61	33546.90
673.75	32931.34
673.89	32760.48
674.03	32797.93
674.17	32868.14
674.31	32879.85
674.45	32851.76
674.59	32816.65
674.73	32547.49
674.87	32257.26
675.01	32554.51
675.15	32491.32
675.29	32198.75
675.43	32320.46
675.56	31978.74
675.70	32112.15
675.84	32339.18
675.98	31054.23
676.12	32168.32
676.26	32264.28
676.40	31920.23
676.54	31775.11
676.68	31496.59
676.82	31512.97
676.96	31527.02
677.10	31587.87
677.23	30792.09
677.37	31545.74
677.51	31281.26
677.65	31047.21
677.79	30885.71
677.93	30932.52
678.07	30541.65
678.21	30356.75
678.34	30375.47
678.48	30047.80
678.62	30401.22
678.76	30061.84
678.90	30181.21
679.04	29855.87
679.18	30218.66
679.31	29727.14
679.45	29823.11
679.59	29670.97
679.73	29752.89
679.87	29694.38
680.00	29659.27
680.14	29401.81
680.28	29118.60
680.42	29462.66
680.56	28746.46
680.70	29050.73
680.83	28734.76
680.97	28814.34
681.11	28872.85
681.25	28414.10
681.39	28657.52
681.52	28388.36
681.66	28095.79
681.80	27630.02
681.94	27789.18
682.07	27578.53
682.21	27735.35
682.35	27775.14
682.49	27564.49
682.62	27709.60
682.76	27768.12
682.90	27838.33
683.04	27384.27
683.17	27452.14
683.31	27395.97
683.45	26918.50
683.59	27056.59
683.72	26595.51
683.86	26551.04
684.00	26707.85
684.13	26675.09
684.27	26389.54
684.41	26274.85
684.55	26293.58
684.68	26141.44
684.82	25802.07
684.96	25748.23
685.09	25560.99
685.23	25986.97
685.37	26045.48
685.50	26595.51
685.64	25860.58
685.78	25345.66
685.91	25481.41
686.05	25039.05
686.19	24690.31
686.32	24767.55
686.46	24479.66
686.60	24676.27
686.73	25090.54
686.87	24868.19
687.01	24980.54
687.14	24673.93
687.28	24479.66
687.42	24528.81
687.55	24350.93
687.69	24072.41
687.82	23674.52
687.96	23939.00
688.10	23887.51
688.23	23967.09
688.37	23714.31
688.50	23924.96
688.64	23828.99
688.78	23302.37
688.91	23583.24
689.05	23360.89
689.18	23091.73
689.32	22885.76
689.46	23087.04
689.59	23103.43
689.73	23290.67
689.86	22941.93
690.00	22761.71
690.13	22813.20
690.27	22499.57
690.41	22838.95
690.54	22230.41
690.68	22403.61
690.81	22132.11
690.95	22010.40
691.08	21715.49
691.22	22047.85
691.35	21420.58
691.49	21715.49
691.62	21963.59
691.76	21446.33
691.89	21139.72
692.03	21078.86
692.16	21252.06
692.30	21310.58
692.43	20968.86
692.57	20706.72
692.70	20725.44
692.84	20823.75
692.97	20734.81
693.11	20212.87
693.24	20540.54
693.38	20264.36
693.51	20329.89
693.65	20374.36
693.78	20346.28
693.92	20011.58
694.05	19770.51
694.19	19723.69
694.32	19566.88
694.45	20247.97
694.59	20226.91
694.72	19749.44
694.86	19590.28
694.99	19400.70
695.13	19218.14
695.26	19166.65
695.39	18932.59
695.53	18916.21
695.66	19248.57
695.80	18883.44
695.93	18853.02
696.07	18782.80
696.20	18298.31
696.33	18647.05
696.47	18368.52
696.60	18272.56
696.73	18539.38
696.87	18239.79
697.00	18457.46
697.14	18104.04
697.27	17905.10
697.40	17781.05
697.54	17895.74
697.67	17858.29
697.80	18127.45
697.94	17689.77
698.07	17675.73
698.21	17334.01
698.34	17135.06
698.47	16746.53
698.61	16856.54
698.74	16870.58
698.87	17177.19
699.01	16678.66
699.14	16538.23
699.27	16713.77
699.40	16798.02
699.54	16802.71
699.67	16760.58
699.80	16645.89
699.94	16418.86
700.07	16517.16
700.20	16381.41
700.34	16575.67
700.47	16053.73
700.60	16404.81
700.73	16301.83
700.87	15894.58
701.00	15929.69
701.13	15487.32
701.26	15744.78
701.40	15421.79
701.53	15662.86
701.66	15578.61
701.79	15337.53
701.93	15138.58
702.06	15051.99
702.19	15204.12
702.32	15044.96
702.46	15009.86
702.59	15183.06
702.72	14855.38
702.85	14939.64
702.99	14946.66
703.12	14558.13
703.25	14305.35
703.38	14457.49
703.51	14265.57
703.65	14185.99
703.78	14270.25
703.91	13893.42
704.04	13998.74
704.17	13914.48
704.31	14094.71
704.44	14012.79
704.57	14033.85
704.70	14015.13
704.83	13640.64
704.96	13790.44
705.10	13479.15
705.23	13160.83
>>>>>End Processed Spectral Data<<<<<
