SpectraSuite Data File
++++++++++++++++++++++++++++++++++++
Date: Fri Oct 25 10:47:52 EDT 2013
User: price-jones
Dark Spectrum Present: No
Reference Spectrum Present: No
Number of Sampled Component Spectra: 1
Spectrometers: USB2+H05261
Integration Time (usec): 100000 (USB2+H05261)
Spectra Averaged: 1 (USB2+H05261)
Boxcar Smoothing: 0 (USB2+H05261)
Correct for Electrical Dark: No (USB2+H05261)
Strobe/Lamp Enabled: No (USB2+H05261)
Correct for Detector Non-linearity: No (USB2+H05261)
Correct for Stray Light: No (USB2+H05261)
Number of Pixels in Processed Spectrum: 2048
>>>>>Begin Processed Spectral Data<<<<<
365.73	156.82
365.92	156.82
366.12	156.82
366.32	39.79
366.52	74.90
366.72	81.92
366.91	93.62
367.11	4.68
367.31	70.22
367.51	18.72
367.70	46.81
367.90	11.70
368.10	58.51
368.30	0.00
368.49	2.34
368.69	56.17
368.89	98.30
369.09	93.62
369.28	65.54
369.48	30.43
369.68	60.85
369.87	93.62
370.07	63.19
370.27	105.32
370.47	156.82
370.66	367.46
370.86	376.83
371.06	456.40
371.25	486.83
371.45	433.00
371.65	514.92
371.84	465.77
372.04	440.02
372.24	454.06
372.44	505.56
372.63	533.64
372.83	603.86
373.03	550.03
373.22	451.72
373.42	561.73
373.62	489.17
373.81	533.64
374.01	540.66
374.21	526.62
374.40	589.82
374.60	648.33
374.79	580.45
374.99	589.82
375.19	622.58
375.38	615.56
375.58	589.82
375.78	636.63
375.97	559.39
376.17	599.18
376.37	638.97
376.56	589.82
376.76	599.18
376.95	601.52
377.15	613.22
377.35	599.18
377.54	589.82
377.74	645.99
377.93	566.41
378.13	587.47
378.33	664.71
378.52	622.58
378.72	704.50
378.91	713.86
379.11	692.80
379.31	631.94
379.50	688.12
379.70	620.24
379.89	730.25
380.09	641.31
380.28	636.63
380.48	660.03
380.68	615.56
380.87	638.97
381.07	610.88
381.26	669.39
381.46	676.41
381.65	674.07
381.85	641.31
382.04	685.78
382.24	678.76
382.43	753.65
382.63	662.37
382.83	723.23
383.02	699.82
383.22	678.76
383.41	671.73
383.61	653.01
383.80	730.25
384.00	655.35
384.19	711.52
384.39	812.17
384.58	746.63
384.78	793.44
384.97	767.70
385.17	763.01
385.36	770.04
385.56	725.57
385.75	791.10
385.95	664.71
386.14	772.38
386.34	814.51
386.53	777.06
386.72	802.80
386.92	861.32
387.11	891.74
387.31	788.76
387.50	802.80
387.70	807.48
387.89	800.46
388.09	866.00
388.28	828.55
388.48	765.36
388.67	833.23
388.86	807.48
389.06	938.55
389.25	896.43
389.45	873.02
389.64	823.87
389.84	877.70
390.03	898.77
390.22	863.66
390.42	947.92
390.61	903.45
390.81	1015.79
391.00	908.13
391.19	997.07
391.39	947.92
391.58	1034.52
391.78	1013.45
391.97	976.00
392.16	983.02
392.36	901.11
392.55	964.30
392.75	997.07
392.94	924.51
393.13	983.02
393.33	933.87
393.52	938.55
393.71	990.05
393.91	1027.50
394.10	1013.45
394.29	1034.52
394.49	1013.45
394.68	1165.59
394.88	1041.54
395.07	1109.41
395.26	1109.41
395.46	1144.52
395.65	1170.27
395.84	1109.41
396.04	1210.06
396.23	1067.28
396.42	1135.16
396.62	1032.18
396.81	1177.29
397.00	1200.69
397.19	1249.85
397.39	1149.20
397.58	1287.29
397.77	1184.31
397.97	1245.16
398.16	1228.78
398.35	1214.74
398.55	1231.12
398.74	1439.43
398.93	1355.17
399.12	1287.29
399.32	1322.40
399.51	1306.02
399.70	1350.49
399.90	1495.60
400.09	1446.45
400.28	1334.11
400.47	1355.17
400.67	1441.77
400.86	1357.51
401.05	1495.60
401.24	1460.49
401.44	1495.60
401.63	1511.99
401.82	1462.83
402.01	1497.94
402.21	1533.05
402.40	1516.67
402.59	1624.33
402.78	1521.35
402.97	1544.75
403.17	1591.56
403.36	1514.33
403.55	1596.25
403.74	1584.54
403.93	1563.48
404.13	1605.61
404.32	1664.12
404.51	1612.63
404.70	1675.82
404.89	1741.36
405.09	1771.79
405.28	1764.76
405.47	1593.90
405.66	1736.68
405.85	1750.72
406.05	1799.87
406.24	1818.60
406.43	1668.80
406.62	1818.60
406.81	1816.26
407.00	1811.57
407.20	1888.81
407.39	1832.64
407.58	1834.98
407.77	1827.96
407.96	1909.88
408.15	1935.62
408.34	1944.99
408.54	2031.58
408.73	2106.48
408.92	1996.48
409.11	2071.37
409.30	1970.73
409.49	1998.82
409.68	2078.40
409.87	1987.11
410.07	2059.67
410.26	2050.31
410.45	2211.81
410.64	2108.82
410.83	2150.95
411.02	2160.31
411.21	2289.04
411.40	2333.51
411.59	2305.43
411.78	2258.62
411.98	2366.28
412.17	2438.84
412.36	2382.67
412.55	2326.49
412.74	2368.62
412.93	2555.86
413.12	2424.80
413.31	2560.55
413.50	2457.56
413.69	2544.16
413.88	2637.78
414.07	2544.16
414.26	2684.59
414.45	2616.72
414.64	2675.23
414.83	2651.83
415.02	2588.63
415.22	2841.41
415.41	2689.28
415.60	2862.48
415.79	2928.01
415.98	2808.64
416.17	2787.58
416.36	2822.69
416.55	2841.41
416.74	2956.10
416.93	2839.07
417.12	2956.10
417.31	2909.29
417.50	3023.97
417.69	3124.62
417.88	3033.33
418.07	2970.14
418.26	3014.61
418.45	3084.83
418.64	3164.40
418.83	3171.43
419.02	3197.17
419.21	3232.28
419.39	3281.43
419.58	3183.13
419.77	3225.26
419.96	3171.43
420.15	3307.18
420.34	3234.62
420.53	3187.81
420.72	3344.63
420.91	3344.63
421.10	3318.88
421.29	3461.65
421.48	3375.05
421.67	3398.46
421.86	3398.46
422.05	3344.63
422.24	3445.27
422.43	3419.52
422.61	3391.44
422.80	3550.59
422.99	3536.55
423.18	3637.19
423.37	3698.05
423.56	3599.74
423.75	3508.46
423.94	3391.44
424.13	3342.28
424.32	3471.01
424.50	3550.59
424.69	3667.62
424.88	3618.47
425.07	3653.58
425.26	3463.99
425.45	3522.51
425.64	3487.40
425.83	3466.33
426.01	3606.77
426.20	3510.80
426.39	3538.89
426.58	3613.79
426.77	3510.80
426.96	3576.34
427.15	3616.13
427.33	3625.49
427.52	3651.24
427.71	3602.08
427.90	3595.06
428.09	3599.74
428.28	3707.41
428.46	3700.39
428.65	3679.32
428.84	3878.27
429.03	3920.40
429.22	3733.15
429.40	3808.05
429.59	3770.60
429.78	3555.27
429.97	3655.92
430.16	3705.07
430.34	3784.65
430.53	3953.16
430.72	3878.27
430.91	3908.69
431.10	3934.44
431.28	4135.73
431.47	4124.02
431.66	4243.39
431.85	4084.23
432.03	4093.60
432.22	4234.03
432.41	4084.23
432.60	4109.98
432.79	4112.32
432.97	4327.65
433.16	4311.27
433.35	4280.84
433.54	4161.47
433.72	4245.73
433.91	4159.13
434.10	4170.83
434.28	4360.42
434.47	4351.06
434.66	4430.63
434.85	4393.19
435.03	4561.70
435.22	4348.72
435.41	4617.88
435.59	4493.83
435.78	4440.00
435.97	4421.27
436.16	4704.48
436.34	4470.42
436.53	4610.86
436.72	4760.65
436.90	4561.70
437.09	4781.71
437.28	4535.96
437.46	4770.01
437.65	4622.56
437.84	4737.24
438.02	4589.79
438.21	4664.69
438.40	4709.16
438.58	4774.69
438.77	4926.83
438.96	4873.00
439.14	4975.98
439.33	5177.26
439.52	5083.64
439.70	5008.75
439.89	5167.90
440.08	5191.31
440.26	5287.27
440.45	5022.79
440.63	5273.23
440.82	5341.10
441.01	5158.54
441.19	5448.77
441.38	5460.47
441.57	5259.18
441.75	5432.38
441.94	5549.41
442.12	5638.35
442.31	5636.01
442.50	5724.95
442.68	5598.56
442.87	5706.23
443.05	5809.21
443.24	5769.42
443.43	5689.84
443.61	5727.29
443.80	6003.47
443.98	5643.03
444.17	5689.84
444.35	5748.36
444.54	5956.66
444.73	5820.91
444.91	5832.62
445.10	5804.53
445.28	5811.55
445.47	5738.99
445.65	5839.64
445.84	5980.07
446.02	5884.11
446.21	5692.18
446.39	5898.15
446.58	5853.68
446.77	5966.03
446.95	5907.51
447.14	5949.64
447.32	6019.86
447.51	6104.12
447.69	6017.52
447.88	6057.31
448.06	5994.11
448.25	5909.85
448.43	5799.85
448.62	6108.80
448.80	6010.50
448.99	6052.63
449.17	6150.93
449.36	5994.11
449.54	6171.99
449.73	6284.34
449.91	6279.66
450.10	6581.59
450.28	6600.31
450.46	6399.02
450.65	6380.30
450.83	6445.84
451.02	6214.12
451.20	6441.15
451.39	6394.34
451.57	6352.21
451.76	6286.68
451.94	6338.17
452.13	6588.61
452.31	6651.80
452.49	6333.49
452.68	6504.35
452.86	6600.31
453.05	6443.49
453.23	6623.72
453.42	6490.31
453.60	6427.11
453.78	6553.50
453.97	6670.53
454.15	6745.42
454.34	6588.61
454.52	6965.43
454.70	6700.95
454.89	6778.19
455.07	6717.34
455.26	6871.81
455.44	6850.75
455.62	6916.28
455.81	6916.28
455.99	6974.80
456.17	7124.59
456.36	7129.27
456.54	7176.08
456.73	7267.36
456.91	7295.45
457.09	7293.11
457.28	7494.40
457.46	7346.94
457.64	7232.26
457.83	7229.91
458.01	7300.13
458.19	7487.37
458.38	7309.49
458.56	7571.63
458.74	7396.09
458.93	7442.90
459.11	7662.91
459.29	7400.77
459.48	7595.04
459.66	7602.06
459.84	7485.03
460.03	7761.22
460.21	7728.45
460.39	7513.12
460.57	7644.19
460.76	7772.92
460.94	7578.65
461.12	7875.90
461.31	7637.17
461.49	7880.58
461.67	7765.90
461.85	7906.33
462.04	7978.89
462.22	8299.54
462.40	7992.93
462.59	8053.78
462.77	8072.51
462.95	8177.83
463.13	8049.10
463.32	8013.99
463.50	8112.30
463.68	8126.34
463.86	8135.70
464.05	7960.16
464.23	8149.75
464.41	8313.58
464.59	8030.38
464.78	8285.50
464.96	8290.18
465.14	8084.21
465.32	8280.82
465.50	8510.19
465.69	8273.79
465.87	8306.56
466.05	8372.10
466.23	8276.13
466.41	8552.32
466.60	8423.59
466.78	8236.35
466.96	8336.99
467.14	8498.49
467.32	8411.89
467.51	8690.41
467.69	8446.99
467.87	8243.37
468.05	8585.08
468.23	8454.02
468.41	8585.08
468.60	8545.30
468.78	8489.12
468.96	8674.03
469.14	8840.20
469.32	8819.14
469.50	8549.98
469.69	8816.80
469.87	8837.86
470.05	8875.31
470.23	9027.45
470.41	9109.36
470.59	8924.46
470.77	8978.30
470.95	8959.57
471.14	9132.77
471.32	8786.37
471.50	9378.53
471.68	9207.67
471.86	9259.16
472.04	9418.32
472.22	9415.98
472.40	9451.08
472.58	9334.06
472.77	9504.92
472.95	9607.90
473.13	9858.34
473.31	9633.64
473.49	9521.30
473.67	9404.27
473.85	9802.16
474.03	9937.91
474.21	9912.17
474.39	9966.00
474.57	10200.05
474.75	9933.23
474.93	10153.24
475.12	10017.49
475.30	10249.21
475.48	10256.23
475.66	9987.07
475.84	10141.54
476.02	10373.25
476.20	10485.60
476.38	10562.84
476.56	10778.17
476.74	10832.00
476.92	10700.93
477.10	10513.69
477.28	10827.32
477.46	10794.55
477.64	11082.44
477.82	11080.10
478.00	11396.07
478.18	11356.28
478.36	11419.47
478.54	11414.79
478.72	11662.89
478.90	11620.76
479.08	11808.00
479.26	12051.42
479.44	11791.62
479.62	11995.25
479.80	12301.86
479.98	12201.21
480.16	12287.81
480.34	12098.23
480.52	12538.25
480.70	12446.97
480.88	12489.10
481.06	12531.23
481.24	12692.73
481.41	12833.16
481.59	12865.92
481.77	13205.30
481.95	13153.81
482.13	13259.13
482.31	13008.70
482.49	13488.51
482.67	13324.67
482.85	13500.21
483.03	13664.05
483.21	13975.34
483.39	14200.03
483.57	14083.00
483.74	13973.00
483.92	14305.35
484.10	14101.73
484.28	14459.83
484.46	14644.73
484.64	15009.86
484.82	14307.69
485.00	14897.51
485.18	14918.57
485.35	15344.55
485.53	14824.95
485.71	15300.08
485.89	15330.51
486.07	15080.07
486.25	15311.78
486.43	15524.77
486.61	15815.00
486.78	15768.19
486.96	15915.64
487.14	16201.19
487.32	16128.63
487.50	16245.66
487.68	16585.04
487.85	16840.15
488.03	16926.75
488.21	17254.43
488.39	17165.49
488.57	17153.79
488.75	17399.54
488.92	17649.98
489.10	17460.40
489.28	17675.73
489.46	17977.65
489.64	18202.35
489.81	18480.87
489.99	18523.00
490.17	18394.27
490.35	18778.12
490.53	18539.38
490.70	18775.78
490.88	18754.71
491.06	19110.47
491.24	18860.04
491.41	18995.79
491.59	18993.45
491.77	19157.28
491.95	19407.72
492.13	19520.07
492.30	19878.17
492.48	20091.16
492.66	19861.79
492.84	20215.21
493.01	20051.37
493.19	20266.70
493.37	20594.37
493.54	20570.97
493.72	20725.44
493.90	20718.42
494.08	20975.88
494.25	21118.65
494.43	21116.31
494.61	21280.15
494.79	21451.01
494.96	21441.65
495.14	21305.90
495.32	21888.69
495.49	21680.38
495.67	21972.95
495.85	22483.19
496.02	22064.23
496.20	22258.49
496.38	22422.33
496.55	22773.41
496.73	22895.12
496.91	22799.16
497.09	22733.62
497.26	22895.12
497.44	23061.30
497.62	23075.34
497.79	23489.62
497.97	23278.97
498.14	23637.07
498.32	23433.44
498.50	23646.43
498.67	23910.91
498.85	23967.09
499.03	24439.87
499.20	23967.09
499.38	23847.72
499.56	24156.67
499.73	24556.90
499.91	24666.91
500.08	24992.24
500.26	24393.06
500.44	24641.16
500.61	24926.71
500.79	24903.30
500.97	25090.54
501.14	25383.11
501.32	25050.75
501.49	25266.08
501.67	25301.19
501.84	25254.38
502.02	25420.56
502.20	25799.73
502.37	25675.68
502.55	25762.28
502.72	25902.71
502.90	26066.55
503.07	25872.28
503.25	25804.41
503.43	25745.89
503.60	26263.15
503.78	26125.06
503.95	26038.46
504.13	26047.82
504.30	26597.85
504.48	26565.08
504.65	26768.71
504.83	26569.76
505.01	27197.02
505.18	26595.51
505.36	27080.00
505.53	27180.64
505.71	27271.92
505.88	27314.05
506.06	27234.47
506.23	27187.66
506.41	27576.19
506.58	27569.17
506.76	27414.69
506.93	27936.63
507.11	27658.11
507.28	27660.45
507.46	28051.32
507.63	28400.06
507.81	28442.19
507.98	28177.71
508.16	28273.67
508.33	28432.83
508.50	28451.55
508.68	28507.72
508.85	28690.29
509.03	28751.14
509.20	28924.34
509.38	28861.15
509.55	28889.23
509.73	29322.23
509.90	29104.56
510.08	28980.51
510.25	29436.92
510.42	29490.75
510.60	29624.16
510.77	29252.02
510.95	29441.60
511.12	29722.46
511.30	29853.53
511.47	30260.79
511.64	29874.60
511.82	30464.41
511.99	30284.19
512.17	30029.07
512.34	29867.58
512.51	29806.72
512.69	30602.50
512.86	30871.67
513.04	30756.98
513.21	30829.54
513.38	30483.14
513.56	30717.19
513.73	30752.30
513.90	30824.86
514.08	30909.11
514.25	31246.15
514.43	31030.82
514.60	31222.75
514.77	31171.25
514.95	31271.90
515.12	31030.82
515.29	31360.84
515.47	31838.31
515.64	31751.71
515.81	31512.97
515.99	32135.56
516.16	31686.17
516.33	31454.46
516.51	31669.79
516.68	31388.92
516.85	31847.67
517.03	31737.66
517.20	32086.40
517.37	31962.36
517.54	32184.71
517.72	32304.07
517.89	32500.68
518.06	32072.36
518.24	32067.68
518.41	32140.24
518.58	32748.78
518.75	32390.67
518.93	32790.91
519.10	32624.73
519.27	32847.08
519.45	32929.00
519.62	32999.21
519.79	32971.13
519.96	33113.90
520.14	33291.78
520.31	33207.52
520.48	33380.72
520.65	33593.71
520.83	33703.71
521.00	33792.65
521.17	33797.34
521.34	33879.25
521.52	33883.94
521.69	33666.27
521.86	34101.61
522.03	34424.60
522.20	33837.12
522.38	34227.99
522.55	34244.38
522.72	34101.61
522.89	34129.69
523.07	34466.73
523.24	34293.53
523.41	34553.33
523.58	34300.55
523.75	34852.92
523.92	34366.09
524.10	34768.66
524.27	34862.28
524.44	35379.54
524.61	34939.52
524.78	35079.95
524.96	35849.99
525.13	35241.45
525.30	35651.04
525.47	35599.55
525.64	35253.15
525.81	35501.25
525.98	35285.92
526.16	35187.61
526.33	35505.93
526.50	35768.07
526.67	35377.20
526.84	35381.88
527.01	35459.12
527.18	35885.09
527.36	35875.73
527.53	36041.91
527.70	36355.54
527.87	36659.81
528.04	35765.73
528.21	36353.20
528.38	35810.20
528.55	36727.69
528.72	36741.73
528.89	36561.51
529.07	36467.89
529.24	36659.81
529.41	36467.89
529.58	36519.38
529.75	36907.91
529.92	36411.71
530.09	36797.90
530.26	37109.19
530.43	37085.79
530.60	36744.07
530.77	36657.47
530.94	36971.10
531.11	36821.31
531.28	37132.60
531.46	37134.94
531.63	36987.49
531.80	37291.76
531.97	36961.74
532.14	37574.96
532.31	37099.83
532.48	37106.85
532.65	37762.20
532.82	37338.57
532.99	38132.01
533.16	37811.35
533.33	37778.59
533.50	37998.60
533.67	38019.66
533.84	37619.43
534.01	37752.84
534.18	38075.84
534.35	38085.20
534.52	37886.25
534.69	38122.65
534.86	38433.94
535.03	37647.52
535.20	38698.42
535.37	38621.18
535.54	38719.48
535.71	38272.44
535.88	38754.59
536.05	38258.40
536.22	38462.02
536.38	38733.53
536.55	38726.50
536.72	38337.98
536.89	38354.36
537.06	38534.58
537.23	39082.27
537.40	38443.30
537.57	38494.79
537.74	38930.13
537.91	39110.35
538.08	39285.89
538.25	38499.47
538.42	38794.38
538.59	39199.29
538.75	38880.98
538.92	39232.06
539.09	39103.33
539.26	39445.05
539.43	39227.38
539.60	39299.94
539.77	38948.85
539.94	39599.52
540.11	39667.40
540.28	39201.63
540.44	39681.44
540.61	39503.56
540.78	39374.83
540.95	39625.27
541.12	39688.46
541.29	39339.72
541.46	39414.62
541.62	40098.06
541.79	40081.67
541.96	39683.78
542.13	39646.33
542.30	39597.18
542.47	39569.10
542.63	39924.86
542.80	40053.59
542.97	40634.04
543.14	40690.21
543.31	40381.26
543.48	40638.72
543.64	40987.46
543.81	40678.51
543.98	41008.53
544.15	40341.47
544.32	40975.76
544.48	41071.72
544.65	40725.32
544.82	40587.23
544.99	40428.07
545.16	41006.19
545.32	40624.68
545.49	40715.96
545.66	40980.44
545.83	40989.80
546.00	41151.30
546.16	41298.75
546.33	41254.28
546.50	40938.31
546.67	40758.09
546.83	40921.93
547.00	41195.77
547.17	40774.47
547.34	41408.76
547.50	41539.83
547.67	41771.54
547.84	41118.53
548.00	41495.36
548.17	41659.20
548.34	41507.06
548.51	41624.09
548.67	42085.17
548.84	41698.98
549.01	41621.75
549.18	41610.04
549.34	41799.63
549.51	42398.80
549.68	41893.25
549.84	42061.77
550.01	41830.05
550.18	41937.72
550.34	42040.70
550.51	42337.95
550.68	41984.53
550.84	41907.29
551.01	42183.48
551.18	41647.49
551.34	42328.59
551.51	42319.23
551.68	42553.28
551.84	42344.97
552.01	42096.88
552.18	42286.46
552.34	42082.83
552.51	42567.32
552.68	42553.28
552.84	42363.70
553.01	42902.02
553.18	42665.63
553.34	42581.37
553.51	42302.84
553.67	42206.88
553.84	42883.30
554.01	42438.59
554.17	43012.02
554.34	42925.42
554.51	43210.97
554.67	42852.87
554.84	43208.63
555.00	43061.18
555.17	42700.73
555.33	42906.70
555.50	42792.01
555.67	42726.48
555.83	43016.71
556.00	43063.52
556.16	43491.83
556.33	43103.31
556.50	43084.58
556.66	43072.88
556.83	42880.95
556.99	43246.08
557.16	43007.34
557.32	42995.64
557.49	43335.02
557.65	42887.98
557.82	42911.38
557.98	42955.85
558.15	42742.86
558.32	43328.00
558.48	43356.08
558.65	43323.32
558.81	43215.65
558.98	43344.38
559.14	43477.79
559.31	43147.78
559.47	43283.53
559.64	43339.70
559.80	43852.28
559.97	43880.36
560.13	43508.22
560.30	43435.66
560.46	43402.89
560.63	43784.40
560.79	43739.93
560.96	43770.36
561.12	43360.76
561.29	43152.46
561.45	43777.38
561.61	43569.07
561.78	43533.96
561.94	43704.82
562.11	43531.62
562.27	43498.86
562.44	43592.48
562.60	43903.77
562.77	43934.20
562.93	44009.09
563.10	44095.69
563.26	43459.07
563.42	43952.92
563.59	43927.17
563.75	43800.79
563.92	43922.49
564.08	44222.08
564.24	43819.51
564.41	43728.23
564.57	44083.99
564.74	43871.00
564.90	43945.90
565.07	43817.17
565.23	43964.62
565.39	43548.01
565.56	44093.35
565.72	44140.16
565.88	43924.83
566.05	44163.57
566.21	43753.97
566.38	44048.88
566.54	44217.40
566.70	44697.21
566.87	44608.27
567.03	44194.00
567.19	44748.70
567.36	44067.61
567.52	44020.80
567.68	44083.99
567.85	44133.14
568.01	44072.29
568.17	43887.39
568.34	44346.13
568.50	44339.11
568.66	44046.54
568.83	44414.01
568.99	43903.77
569.15	44130.80
569.32	44343.79
569.48	43742.27
569.64	44507.63
569.81	44409.32
569.97	44334.43
570.13	44229.10
570.30	43997.39
570.46	44088.67
570.62	44105.06
570.78	44194.00
570.95	44626.99
571.11	44631.68
571.27	44091.01
571.43	44456.14
571.60	44299.32
571.76	44617.63
571.92	44512.31
572.09	44100.37
572.25	44322.72
572.41	44390.60
572.57	44467.84
572.74	44713.59
572.90	44671.46
573.06	44397.62
573.22	44411.67
573.38	44722.96
573.55	44233.78
573.71	44769.77
573.87	44067.61
574.03	44273.57
574.20	44170.59
574.36	44390.60
574.52	44755.72
574.68	44500.61
574.84	44643.38
575.01	44783.81
575.17	44341.45
575.33	44430.39
575.49	44439.75
575.65	44795.51
575.82	44669.12
575.98	44648.06
576.14	44463.16
576.30	44605.93
576.46	44470.18
576.62	44357.83
576.79	44500.61
576.95	44271.23
577.11	44062.93
577.27	44767.43
577.43	44811.90
577.59	44907.86
577.75	44624.65
577.92	44289.96
578.08	44133.14
578.24	44236.12
578.40	44381.24
578.56	45214.47
578.72	44376.56
578.88	44865.73
579.04	44603.59
579.21	44662.10
579.37	44598.91
579.53	44296.98
579.69	44023.14
579.85	44381.24
580.01	44875.09
580.17	44486.56
580.33	45017.86
580.49	44584.86
580.65	45015.52
580.82	44879.77
580.98	44828.28
581.14	44533.37
581.30	44753.38
581.46	44456.14
581.62	44655.08
581.78	44961.69
581.94	44940.63
582.10	44793.17
582.26	44886.79
582.42	44727.64
582.58	44617.63
582.74	44734.66
582.90	44762.75
583.06	44559.12
583.22	44858.71
583.38	44900.84
583.54	44706.57
583.70	44327.41
583.86	44470.18
584.02	44570.82
584.18	45254.26
584.34	44699.55
584.50	44662.10
584.66	44795.51
584.82	44854.03
584.98	44769.77
585.14	44809.56
585.30	44715.93
585.46	44673.81
585.62	44584.86
585.78	44318.04
585.94	44357.83
586.10	44425.71
586.26	44643.38
586.42	44966.37
586.58	44898.50
586.74	45027.23
586.90	44837.64
587.06	44718.28
587.22	44952.33
587.38	44603.59
587.54	45202.77
587.70	44999.14
587.86	45006.16
588.02	44655.08
588.18	44701.89
588.34	44870.41
588.49	44306.34
588.65	44360.17
588.81	44678.49
588.97	44477.20
589.13	44514.65
589.29	44772.11
589.45	45134.89
589.61	44582.52
589.77	45148.93
589.93	45041.27
590.08	44882.11
590.24	45102.12
590.40	44910.20
590.56	45722.37
590.72	44992.12
590.88	44673.81
591.04	44828.28
591.20	45074.04
591.35	44844.66
591.51	45556.19
591.67	44957.01
591.83	45146.59
591.99	44643.38
592.15	44673.81
592.31	44872.75
592.46	44680.83
592.62	44839.98
592.78	44954.67
592.94	45095.10
593.10	44849.35
593.26	45705.98
593.41	44903.18
593.57	45130.21
593.73	45043.61
593.89	45542.14
594.05	44800.19
594.20	44858.71
594.36	44971.05
594.52	45148.93
594.68	45343.20
594.84	44924.24
594.99	45083.40
595.15	45282.34
595.31	45233.19
595.47	45041.27
595.62	45347.88
595.78	44910.20
595.94	45509.38
596.10	45354.90
596.25	45422.78
596.41	45523.42
596.57	45123.19
596.73	45382.99
596.88	44835.30
597.04	44500.61
597.20	45303.41
597.36	44910.20
597.51	45233.19
597.67	45345.54
597.83	45361.92
597.99	45570.23
598.14	45001.48
598.30	44713.59
598.46	44994.46
598.61	44898.50
598.77	45097.44
598.93	45303.41
599.09	44959.35
599.24	45495.33
599.40	45120.85
599.56	45390.01
599.71	45233.19
599.87	45551.51
600.03	45088.08
600.18	45382.99
600.34	45104.46
600.50	45111.49
600.65	45144.25
600.81	45347.88
600.97	45858.12
601.12	45607.68
601.28	45415.76
601.44	45235.53
601.59	45408.73
601.75	45022.54
601.91	45532.78
602.06	45144.25
602.22	45415.76
602.37	45174.68
602.53	45284.68
602.69	45469.59
602.84	45179.36
603.00	45097.44
603.16	44910.20
603.31	44786.15
603.47	44938.29
603.62	44828.28
603.78	45301.07
603.94	44659.76
604.09	45415.76
604.25	45275.32
604.40	45195.74
604.56	45020.20
604.71	45029.57
604.87	45069.36
605.03	45457.88
605.18	44992.12
605.34	45085.74
605.49	44650.40
605.65	45443.84
605.80	44985.10
605.96	45521.08
606.12	45118.51
606.27	45748.11
606.43	44779.13
606.58	45055.31
606.74	44811.90
606.89	45216.81
607.05	44802.53
607.20	45413.41
607.36	45125.53
607.51	45263.62
607.67	45251.92
607.82	44884.45
607.98	44924.24
608.13	45064.67
608.29	44877.43
608.44	44514.65
608.60	44325.07
608.75	44662.10
608.91	44622.31
609.06	44844.66
609.22	44987.44
609.37	44884.45
609.53	44676.15
609.68	44786.15
609.84	45181.70
609.99	45130.21
610.15	44425.71
610.30	44107.40
610.46	44432.73
610.61	44650.40
610.76	44619.97
610.92	44524.01
611.07	44367.20
611.23	44636.36
611.38	44563.80
611.54	44327.41
611.69	44776.79
611.84	44334.43
612.00	44582.52
612.15	44009.09
612.31	44285.28
612.46	44264.21
612.62	44596.57
612.77	44608.27
612.92	44343.79
613.08	44465.50
613.23	44538.05
613.39	44175.27
613.54	44009.09
613.69	44250.17
613.85	44547.42
614.00	44053.56
614.15	44577.84
614.31	43791.42
614.46	44516.99
614.62	44388.26
614.77	44205.70
614.92	44114.42
615.08	44470.18
615.23	44559.12
615.38	44023.14
615.54	43786.74
615.69	44016.11
615.84	44107.40
616.00	43761.00
616.15	44006.75
616.30	44102.71
616.46	43978.67
616.61	43791.42
616.76	43981.01
616.92	43973.98
617.07	43620.56
617.22	43498.86
617.37	43920.15
617.53	43777.38
617.68	44186.97
617.83	43770.36
617.99	43849.94
618.14	43782.06
618.29	43576.09
618.45	43564.39
618.60	43374.81
618.75	44074.63
618.90	43962.28
619.06	43543.33
619.21	43433.32
619.36	43831.21
619.51	43922.49
619.67	43732.91
619.82	43576.09
619.97	43737.59
620.12	43269.48
620.28	43351.40
620.43	43325.66
620.58	43564.39
620.73	43119.69
620.89	43585.46
621.04	43201.61
621.19	43136.07
621.34	43438.00
621.49	42916.06
621.65	43208.63
621.80	42829.46
621.95	43026.07
622.10	43276.51
622.25	42976.92
622.41	43023.73
622.56	42672.65
622.71	43578.43
622.86	42866.91
623.01	43206.29
623.16	43131.39
623.32	42845.85
623.47	43353.74
623.62	43000.32
623.77	42424.55
623.92	42696.05
624.07	42794.36
624.23	42646.90
624.38	42258.37
624.53	42817.76
624.68	42993.30
624.83	42520.51
624.98	42836.48
625.13	42342.63
625.29	42567.32
625.44	42548.60
625.59	42806.06
625.74	42501.79
625.89	42192.84
626.04	42241.99
626.19	42146.03
626.34	42433.91
626.49	42674.99
626.65	42251.35
626.80	42777.97
626.95	41893.25
627.10	42124.96
627.25	42543.92
627.40	41904.95
627.55	41748.14
627.70	41790.27
627.85	41972.83
628.00	41972.83
628.15	42160.07
628.30	42171.77
628.45	41867.50
628.60	41663.88
628.76	42026.66
628.91	42052.41
629.06	41900.27
629.21	41720.05
629.36	42108.58
629.51	41521.10
629.66	41998.57
629.81	41792.61
629.96	41923.68
630.11	41722.39
630.26	42045.38
630.41	41736.43
630.56	41572.60
630.71	41766.86
630.86	41481.31
631.01	41467.27
631.16	41500.04
631.31	41429.82
631.46	40961.72
631.61	41165.34
631.76	41413.44
631.91	41701.32
632.06	41745.80
632.21	41724.73
632.36	41783.24
632.51	41354.93
632.66	41745.80
632.81	41291.73
632.96	41226.20
633.10	40793.20
633.25	41237.90
633.40	41223.86
633.55	41584.30
633.70	41390.03
633.85	40734.68
634.00	41364.29
634.15	41308.11
634.30	40917.25
634.45	41287.05
634.60	41237.90
634.75	40980.44
634.90	40732.34
635.05	41139.60
635.19	40629.36
635.34	41017.89
635.49	41113.85
635.64	40191.68
635.79	40587.23
635.94	40533.40
636.09	40652.76
636.24	40364.88
636.39	40919.59
636.53	40240.83
636.68	40315.73
636.83	40140.19
636.98	41109.17
637.13	40257.21
637.28	40287.64
637.43	40343.81
637.57	41146.62
637.72	40357.86
637.87	40245.51
638.02	40215.08
638.17	40374.24
638.32	39913.16
638.46	40411.69
638.61	39985.71
638.76	39988.05
638.91	40362.54
639.06	40481.91
639.20	40437.44
639.35	40374.24
639.50	40245.51
639.65	40240.83
639.80	40397.65
639.94	40388.28
640.09	40018.48
640.24	39791.45
640.39	39543.35
640.54	39632.29
640.68	39524.63
640.83	39814.85
640.98	39416.96
641.13	39651.02
641.27	40069.97
641.42	39599.52
641.57	40147.21
641.72	39992.73
641.86	39779.74
642.01	39651.02
642.16	39243.76
642.31	39180.57
642.45	39431.01
642.60	39077.58
642.75	38792.04
642.90	39543.35
643.04	39196.95
643.19	39100.99
643.34	39756.34
643.48	39407.60
643.63	39248.44
643.78	38831.83
643.93	38909.07
644.07	39086.95
644.22	39309.30
644.37	39349.09
644.51	39529.31
644.66	39138.44
644.81	39372.49
644.95	39381.85
645.10	39117.37
645.25	39210.99
645.39	39136.10
645.54	39627.61
645.69	39005.03
645.83	38415.21
645.98	39012.05
646.13	38880.98
646.27	39093.97
646.42	38892.68
646.57	38717.14
646.71	38845.87
646.86	39105.67
647.00	39353.77
647.15	39248.44
647.30	39213.34
647.44	39150.14
647.59	38885.66
647.74	39012.05
647.88	38822.47
648.03	38817.78
648.17	39030.77
648.32	38412.87
648.47	38653.95
648.61	38792.04
648.76	38799.06
648.90	38686.71
649.05	38609.48
649.20	38391.81
649.34	38609.48
649.49	38120.31
649.63	38457.34
649.78	38728.84
649.92	38525.22
650.07	38803.74
650.21	37780.93
650.36	38309.89
650.51	38277.12
650.65	38883.32
650.80	38778.00
650.94	38342.66
651.09	38267.76
651.23	38550.96
651.38	38389.47
651.52	38288.82
651.67	38356.70
651.81	37951.79
651.96	37979.87
652.10	38117.96
652.25	37846.46
652.39	38122.65
652.54	38305.21
652.68	38197.54
652.83	37947.11
652.97	38132.01
653.12	38003.28
653.26	37862.85
653.41	38110.94
653.55	37708.37
653.70	37366.65
653.84	37783.27
653.99	37731.78
654.13	37998.60
654.27	37890.93
654.42	37514.11
654.56	37436.87
654.71	37624.11
654.85	37359.63
655.00	37120.90
655.14	37516.45
655.29	37296.44
655.43	37298.78
655.57	37078.77
655.72	37385.38
655.86	37352.61
656.01	37053.02
656.15	37153.66
656.30	37186.43
656.44	37343.25
656.58	37251.97
656.73	37069.40
656.87	36816.63
657.01	36622.36
657.16	36910.25
657.30	36767.48
657.45	36442.14
657.59	36985.15
657.73	36517.04
657.88	37130.26
658.02	36891.52
658.16	36807.26
658.31	36928.97
658.45	36987.49
658.60	36500.65
658.74	36641.09
658.88	36788.54
659.03	36315.75
659.17	36180.00
659.31	36711.30
659.46	36629.38
659.60	36643.43
659.74	36332.14
659.89	36411.71
660.03	36392.99
660.17	36439.80
660.32	36058.29
660.46	36535.76
660.60	36507.68
660.74	36297.03
660.89	36233.83
661.03	35896.80
661.17	35901.48
661.32	35494.22
661.46	35747.00
661.60	35849.99
661.74	35842.96
661.89	35431.03
662.03	35847.64
662.17	35686.15
662.31	35356.13
662.46	35833.60
662.60	35967.01
662.74	35449.75
662.88	35594.87
663.03	35473.16
663.17	35424.01
663.31	35452.09
663.45	35414.65
663.60	34869.30
663.74	35154.85
663.88	35009.73
664.02	34871.64
664.17	34913.77
664.31	35016.75
664.45	34761.64
664.59	35044.84
664.73	35145.48
664.88	34749.93
665.02	34288.85
665.16	34691.42
665.30	34822.49
665.44	34387.15
665.59	34225.65
665.73	34338.00
665.87	33991.60
666.01	34167.14
666.15	34267.78
666.29	34342.68
666.44	34473.75
666.58	33905.00
666.72	33977.56
666.86	34370.77
667.00	34101.61
667.14	34019.69
667.28	33766.91
667.43	33364.34
667.57	34045.43
667.71	33670.95
667.85	33500.09
667.99	34192.89
668.13	33528.17
668.27	33369.02
668.41	33776.27
668.56	33230.93
668.70	33626.48
668.84	33223.90
668.98	33167.73
669.12	32989.85
669.26	33399.44
669.40	33104.54
669.54	33167.73
669.68	33249.65
669.82	33064.75
669.96	33137.30
670.10	32559.19
670.25	33022.62
670.39	32898.57
670.53	32519.40
670.67	32444.51
670.81	32723.03
670.95	32465.57
671.09	32765.16
671.23	32762.82
671.37	32699.62
671.51	32488.98
671.65	32378.97
671.79	31861.71
671.93	31735.32
672.07	32589.62
672.21	32198.75
672.35	32168.32
672.49	32067.68
672.63	32231.52
672.77	32046.62
672.91	31978.74
673.05	31707.24
673.19	31484.89
673.33	31576.17
673.47	31449.78
673.61	31302.32
673.75	31456.80
673.89	30972.31
674.03	30909.11
674.17	30749.96
674.31	31166.57
674.45	30792.09
674.59	31222.75
674.73	31101.04
674.87	30787.41
675.01	30756.98
675.15	31040.18
675.29	30771.02
675.43	30794.43
675.56	30597.82
675.70	29998.65
675.84	30288.87
675.98	29399.47
676.12	30251.42
676.26	30052.48
676.40	29940.13
676.54	29692.04
676.68	29708.42
676.82	29560.97
676.96	29762.25
677.10	29235.63
677.23	29823.11
677.37	29219.25
677.51	29146.69
677.65	29284.78
677.79	29188.82
677.93	29085.84
678.07	29039.03
678.21	28898.59
678.34	28421.13
678.48	28631.77
678.62	28833.06
678.76	28210.48
678.90	28528.79
679.04	28294.74
679.18	28437.51
679.31	27938.97
679.45	28077.07
679.59	27765.78
679.73	27646.41
679.87	28025.57
680.00	28095.79
680.14	27725.99
680.28	27534.06
680.42	27501.29
680.56	27290.65
680.70	27524.70
680.83	27384.27
680.97	27021.48
681.11	26848.29
681.25	26637.64
681.39	26984.04
681.52	27119.79
681.66	26780.41
681.80	26773.39
681.94	26597.85
682.07	26628.27
682.21	26284.22
682.35	26604.87
682.49	26363.79
682.62	26497.20
682.76	26178.89
682.90	25912.07
683.04	25823.13
683.17	25940.16
683.31	26120.38
683.45	25996.33
683.59	25621.84
683.72	25209.91
683.86	25336.30
684.00	25249.70
684.13	24931.39
684.27	25504.82
684.41	25270.76
684.55	25027.35
684.68	24900.96
684.82	24966.49
684.96	24919.68
685.09	24779.25
685.23	24767.55
685.37	24584.99
685.50	24238.59
685.64	24477.32
685.78	24184.76
685.91	24243.27
686.05	24011.56
686.19	23880.49
686.32	24023.26
686.46	23604.30
686.60	23431.10
686.73	23641.75
686.87	23559.83
687.01	23328.12
687.14	23140.88
687.28	23082.36
687.42	23267.27
687.55	22948.95
687.69	22871.72
687.82	22773.41
687.96	22874.06
688.10	22675.11
688.23	22710.22
688.37	22258.49
688.50	22462.12
688.64	22368.50
688.78	22534.68
688.91	22223.39
689.05	22022.10
689.18	21912.10
689.32	21893.37
689.46	21942.52
689.59	22024.44
689.73	22389.56
689.86	21678.04
690.00	21862.94
690.13	21926.14
690.27	21656.98
690.41	21266.11
690.54	21336.32
690.68	21186.53
690.81	21245.04
690.95	21135.04
691.08	21048.44
691.22	20975.88
691.35	21018.01
691.49	20737.15
691.62	20774.60
691.76	20695.02
691.89	20594.37
692.03	20596.71
692.16	20388.41
692.30	20608.42
692.43	20430.54
692.57	20182.44
692.70	20269.04
692.84	20079.46
692.97	19899.23
693.11	19786.89
693.24	19667.52
693.38	19346.87
693.51	19454.53
693.65	19562.20
693.78	19587.94
693.92	19363.25
694.05	19459.21
694.19	19290.70
694.32	19295.38
694.45	19199.41
694.59	19220.48
694.72	19028.56
694.86	19040.26
694.99	18235.11
695.13	18551.09
695.26	18354.48
695.39	18424.70
695.53	18143.83
695.66	18476.19
695.80	18670.45
695.93	18305.33
696.07	18190.64
696.20	18190.64
696.33	18214.05
696.47	17872.33
696.60	17827.86
696.73	18218.73
696.87	17862.97
697.00	17675.73
697.14	17467.42
697.27	17495.50
697.40	17727.22
697.54	17022.72
697.67	17247.41
697.80	17263.79
697.94	16886.97
698.07	17099.95
698.21	16929.09
698.34	16910.37
698.47	16783.98
698.61	16617.80
698.74	16659.93
698.87	16800.37
699.01	16493.76
699.14	16292.47
699.27	16521.84
699.40	16451.63
699.54	16240.98
699.67	16250.34
699.80	15964.79
699.94	15950.75
700.07	16283.11
700.20	16156.72
700.34	15833.72
700.47	15824.36
700.60	15889.90
700.73	15791.59
700.87	15555.20
701.00	15580.95
701.13	15428.81
701.26	15405.41
701.40	15477.96
701.53	15330.51
701.66	15161.99
701.79	14984.11
701.93	15105.82
702.06	15016.88
702.19	15197.10
702.32	14977.09
702.46	14766.44
702.59	15033.26
702.72	14752.40
702.85	14537.07
702.99	14630.69
703.12	14714.95
703.25	14621.33
703.38	14513.66
703.51	14157.90
703.65	14148.54
703.78	14270.25
703.91	14307.69
704.04	14188.33
704.17	14059.60
704.31	13893.42
704.44	13652.34
704.57	13563.40
704.70	13488.51
704.83	13664.05
704.96	13926.19
705.10	13785.76
705.23	13743.63
>>>>>End Processed Spectral Data<<<<<
