SpectraSuite Data File
++++++++++++++++++++++++++++++++++++
Date: Fri Oct 25 10:48:09 EDT 2013
User: price-jones
Dark Spectrum Present: No
Reference Spectrum Present: No
Number of Sampled Component Spectra: 1
Spectrometers: USB2+H05261
Integration Time (usec): 100000 (USB2+H05261)
Spectra Averaged: 1 (USB2+H05261)
Boxcar Smoothing: 0 (USB2+H05261)
Correct for Electrical Dark: No (USB2+H05261)
Strobe/Lamp Enabled: No (USB2+H05261)
Correct for Detector Non-linearity: No (USB2+H05261)
Correct for Stray Light: No (USB2+H05261)
Number of Pixels in Processed Spectrum: 2048
>>>>>Begin Processed Spectral Data<<<<<
365.73	187.24
365.92	187.24
366.12	187.24
366.32	67.88
366.52	42.13
366.72	93.62
366.91	84.26
367.11	51.49
367.31	65.54
367.51	42.13
367.70	81.92
367.90	86.60
368.10	44.47
368.30	126.39
368.49	49.15
368.69	98.30
368.89	35.11
369.09	46.81
369.28	72.56
369.48	60.85
369.68	154.48
369.87	14.04
370.07	56.17
370.27	154.48
370.47	273.84
370.66	351.08
370.86	468.11
371.06	407.25
371.25	444.70
371.45	449.38
371.65	472.79
371.84	472.79
372.04	416.62
372.24	528.96
372.44	489.17
372.63	538.32
372.83	435.34
373.03	491.51
373.22	451.72
373.42	468.11
373.62	482.15
373.81	552.37
374.01	540.66
374.21	566.41
374.40	475.13
374.60	526.62
374.79	620.24
374.99	524.28
375.19	514.92
375.38	594.50
375.58	498.53
375.78	627.26
375.97	592.16
376.17	596.84
376.37	592.16
376.56	573.43
376.76	660.03
376.95	622.58
377.15	580.45
377.35	662.37
377.54	559.39
377.74	524.28
377.93	629.60
378.13	608.54
378.33	629.60
378.52	655.35
378.72	613.22
378.91	683.44
379.11	613.22
379.31	601.52
379.50	620.24
379.70	692.80
379.89	678.76
380.09	692.80
380.28	674.07
380.48	631.94
380.68	631.94
380.87	592.16
381.07	720.88
381.26	746.63
381.46	674.07
381.65	746.63
381.85	697.48
382.04	716.20
382.24	723.23
382.43	746.63
382.63	624.92
382.83	683.44
383.02	744.29
383.22	706.84
383.41	692.80
383.61	692.80
383.80	765.36
384.00	667.05
384.19	664.71
384.39	800.46
384.58	697.48
384.78	732.59
384.97	800.46
385.17	763.01
385.36	777.06
385.56	725.57
385.75	765.36
385.95	765.36
386.14	814.51
386.34	763.01
386.53	744.29
386.72	849.61
386.92	798.12
387.11	821.53
387.31	833.23
387.50	779.40
387.70	807.48
387.89	816.85
388.09	772.38
388.28	840.25
388.48	952.60
388.67	894.08
388.86	854.30
389.06	849.61
389.25	882.38
389.45	875.36
389.64	875.36
389.84	952.60
390.03	966.64
390.22	847.27
390.42	812.17
390.61	919.83
390.81	908.13
391.00	896.43
391.19	1018.13
391.39	968.98
391.58	1013.45
391.78	1015.79
391.97	861.32
392.16	931.53
392.36	973.66
392.55	980.68
392.75	973.66
392.94	856.64
393.13	931.53
393.33	943.24
393.52	999.41
393.71	954.94
393.91	1032.18
394.10	959.62
394.29	1078.99
394.49	994.73
394.68	1097.71
394.88	1041.54
395.07	1198.35
395.26	1097.71
395.46	1128.14
395.65	1076.65
395.84	1001.75
396.04	1158.57
396.23	1123.46
396.42	999.41
396.62	1135.16
396.81	1186.65
397.00	1210.06
397.19	1165.59
397.39	1212.40
397.58	1153.88
397.77	1263.89
397.97	1345.81
398.16	1210.06
398.35	1317.72
398.55	1277.93
398.74	1301.34
398.93	1277.93
399.12	1327.08
399.32	1261.55
399.51	1252.19
399.70	1397.30
399.90	1301.34
400.09	1397.30
400.28	1451.13
400.47	1306.02
400.67	1490.92
400.86	1399.64
401.05	1434.75
401.24	1423.05
401.44	1472.20
401.63	1460.49
401.82	1420.71
402.01	1397.30
402.21	1523.69
402.40	1511.99
402.59	1568.16
402.78	1406.66
402.97	1507.30
403.17	1476.88
403.36	1680.50
403.55	1582.20
403.74	1558.80
403.93	1624.33
404.13	1650.08
404.32	1668.80
404.51	1612.63
404.70	1654.76
404.89	1593.90
405.09	1659.44
405.28	1610.29
405.47	1727.32
405.66	1645.40
405.85	1743.70
406.05	1778.81
406.24	1673.48
406.43	1788.17
406.62	1760.08
406.81	1884.13
407.00	1778.81
407.20	1755.40
407.39	1778.81
407.58	1839.66
407.77	1844.34
407.96	1930.94
408.15	1998.82
408.34	2019.88
408.54	2094.78
408.73	1884.13
408.92	1952.01
409.11	2015.20
409.30	2024.56
409.49	1996.48
409.68	1949.67
409.87	1980.09
410.07	2071.37
410.26	2008.18
410.45	2113.50
410.64	2019.88
410.83	2134.57
411.02	2167.34
411.21	2202.44
411.40	2211.81
411.59	2267.98
411.78	2272.66
411.98	2303.09
412.17	2251.60
412.36	2354.58
412.55	2275.00
412.74	2406.07
412.93	2504.37
413.12	2354.58
413.31	2436.50
413.50	2459.90
413.69	2333.51
413.88	2530.12
414.07	2553.52
414.26	2504.37
414.45	2605.02
414.64	2614.38
414.83	2647.15
415.02	2640.12
415.22	2761.83
415.41	2677.57
415.60	2768.85
415.79	2818.00
415.98	2796.94
416.17	2904.60
416.36	2881.20
416.55	2768.85
416.74	2806.30
416.93	2869.50
417.12	2883.54
417.31	2902.26
417.50	3038.02
417.69	3047.38
417.88	2897.58
418.07	3108.23
418.26	2911.63
418.45	2960.78
418.64	3178.45
418.83	3138.66
419.02	3026.31
419.21	3094.19
419.39	3164.40
419.58	3166.74
419.77	3082.49
419.96	3148.02
420.15	3201.85
420.34	3269.73
420.53	3194.83
420.72	3447.61
420.91	3356.33
421.10	3396.12
421.29	3302.50
421.48	3344.63
421.67	3482.72
421.86	3421.86
422.05	3349.31
422.24	3330.58
422.43	3417.18
422.61	3342.28
422.80	3435.91
422.99	3379.73
423.18	3515.48
423.37	3599.74
423.56	3496.76
423.75	3389.10
423.94	3321.22
424.13	3176.11
424.32	3335.26
424.50	3466.33
424.69	3445.27
424.88	3545.91
425.07	3386.76
425.26	3386.76
425.45	3384.41
425.64	3384.41
425.83	3412.50
426.01	3569.32
426.20	3536.55
426.39	3524.85
426.58	3627.83
426.77	3545.91
426.96	3524.85
427.15	3496.76
427.33	3651.24
427.52	3679.32
427.71	3588.04
427.90	3620.81
428.09	3597.40
428.28	3712.09
428.46	3744.86
428.65	3761.24
428.84	3845.50
429.03	3901.67
429.22	3716.77
429.40	3796.35
429.59	3786.99
429.78	3363.35
429.97	3637.19
430.16	3679.32
430.34	3705.07
430.53	3836.14
430.72	3796.35
430.91	3796.35
431.10	3974.23
431.28	4133.39
431.47	3971.89
431.66	4095.94
431.85	4135.73
432.03	4159.13
432.22	4212.96
432.41	4109.98
432.60	4112.32
432.79	4208.28
432.97	4170.83
433.16	4159.13
433.35	4119.34
433.54	4170.83
433.72	4149.77
433.91	4133.39
434.10	4255.09
434.28	4189.56
434.47	4234.03
434.66	4477.44
434.85	4540.64
435.03	4337.01
435.22	4348.72
435.41	4552.34
435.59	4479.79
435.78	4512.55
435.97	4482.13
436.16	4531.28
436.34	4552.34
436.53	4566.39
436.72	4662.35
436.90	4601.49
437.09	4610.86
437.28	4652.98
437.46	4704.48
437.65	4777.03
437.84	4657.67
438.02	4550.00
438.21	4561.70
438.40	4603.83
438.58	4805.12
438.77	4842.57
438.96	4819.16
439.14	4968.96
439.33	4854.27
439.52	4938.53
439.70	4999.38
439.89	5116.41
440.08	5083.64
440.26	5123.43
440.45	5111.73
440.63	5219.39
440.82	5458.13
441.01	5303.65
441.19	5350.46
441.38	5324.72
441.57	5369.19
441.75	5296.63
441.94	5544.73
442.12	5591.54
442.31	5678.14
442.50	5479.19
442.68	5411.32
442.87	5640.69
443.05	5661.76
443.24	5687.50
443.43	5785.80
443.61	5633.67
443.80	5921.56
443.98	5654.73
444.17	5495.58
444.35	5605.58
444.54	5834.96
444.73	5678.14
444.91	5706.23
445.10	5715.59
445.28	5636.01
445.47	5654.73
445.65	5659.42
445.84	5713.25
446.02	6015.18
446.21	5624.31
446.39	5781.12
446.58	5898.15
446.77	5940.28
446.95	5778.78
447.14	5776.44
447.32	5809.21
447.51	5790.49
447.69	5827.93
447.88	5898.15
448.06	5898.15
448.25	5954.32
448.43	6090.07
448.62	5860.70
448.80	5891.13
448.99	5919.21
449.17	6078.37
449.36	6017.52
449.54	5994.11
449.73	6136.88
449.91	6228.17
450.10	6293.70
450.28	6352.21
450.46	6246.89
450.65	6242.21
450.83	6349.87
451.02	6352.21
451.20	6480.94
451.39	6274.98
451.57	6464.56
451.76	6284.34
451.94	6469.24
452.13	6406.05
452.31	6363.92
452.49	6303.06
452.68	6408.39
452.86	6396.68
453.05	6494.99
453.23	6509.03
453.42	6349.87
453.60	6415.41
453.78	6513.71
453.97	6593.29
454.15	6408.39
454.34	6600.31
454.52	6703.29
454.70	6558.18
454.89	6715.00
455.07	6579.25
455.26	6705.63
455.44	6679.89
455.62	6792.23
455.81	6841.39
455.99	6960.75
456.17	6902.24
456.36	6946.71
456.54	7030.97
456.73	7169.06
456.91	7096.50
457.09	7281.41
457.28	7246.30
457.46	6979.48
457.64	7330.56
457.83	7047.35
458.01	7171.40
458.19	7461.63
458.38	7070.76
458.56	7440.56
458.74	7293.11
458.93	7295.45
459.11	7311.83
459.29	7494.40
459.48	7363.33
459.66	7171.40
459.84	7569.29
460.03	7480.35
460.21	7733.13
460.39	7419.50
460.57	7513.12
460.76	7510.78
460.94	7632.49
461.12	7801.01
461.31	7508.44
461.49	7606.74
461.67	7468.65
461.85	7826.75
462.04	7735.47
462.22	8138.04
462.40	7899.31
462.59	7939.10
462.77	7822.07
462.95	7810.37
463.13	7997.61
463.32	7901.65
463.50	7976.55
463.68	8215.28
463.86	8081.87
464.05	7819.73
464.23	7878.24
464.41	8072.51
464.59	7840.79
464.78	8245.71
464.96	8168.47
465.14	8107.62
465.32	8124.00
465.50	8100.59
465.69	8182.51
465.87	8102.93
466.05	8018.68
466.23	8119.32
466.41	8208.26
466.60	8369.76
466.78	8243.37
466.96	8114.64
467.14	8262.09
467.32	8341.67
467.51	8477.42
467.69	8269.11
467.87	8582.74
468.05	8379.12
468.23	8409.54
468.41	8589.77
468.60	8374.44
468.78	8720.84
468.96	8631.90
469.14	8559.34
469.32	8610.83
469.50	8388.48
469.69	8779.35
469.87	8884.67
470.05	8751.26
470.23	8753.60
470.41	8959.57
470.59	8971.27
470.77	8837.86
470.95	8947.87
471.14	9217.03
471.32	8919.78
471.50	9151.49
471.68	9308.31
471.86	9163.20
472.04	9132.77
472.22	9432.36
472.40	9022.77
472.58	9322.35
472.77	9200.65
472.95	9167.88
473.13	9710.88
473.31	9352.78
473.49	9675.77
473.67	9584.49
473.85	9685.14
474.03	9750.67
474.21	9694.50
474.39	9757.69
474.57	9804.50
474.75	9947.28
474.93	9966.00
475.12	9970.68
475.30	9832.59
475.48	10076.01
475.66	10277.29
475.84	10153.24
476.02	10012.81
476.20	10347.51
476.38	10359.21
476.56	10654.12
476.74	10544.11
476.92	10518.37
477.10	10377.94
477.28	10871.79
477.46	10864.77
477.64	10949.03
477.82	11166.70
478.00	11192.44
478.18	11297.77
478.36	11138.61
478.54	11265.00
478.72	11503.73
478.90	11421.81
479.08	11793.96
479.26	11763.53
479.44	11763.53
479.62	11702.68
479.80	11929.71
479.98	11969.50
480.16	12262.07
480.34	12252.70
480.52	12407.18
480.70	12376.75
480.88	12285.47
481.06	12430.59
481.24	12229.30
481.41	12772.30
481.59	12709.11
481.77	12823.80
481.95	13209.98
482.13	13228.71
482.31	13149.13
482.49	13331.69
482.67	13472.12
482.85	13488.51
483.03	13682.77
483.21	14150.88
483.39	13914.48
483.57	13689.79
483.74	14017.47
483.92	14143.86
484.10	14092.37
484.28	14291.31
484.46	14518.34
484.64	14817.93
484.82	14384.93
485.00	14377.91
485.18	14600.26
485.35	14841.34
485.53	14953.68
485.71	14698.56
485.89	14998.15
486.07	15140.93
486.25	15283.70
486.43	15499.03
486.61	15578.61
486.78	15754.15
486.96	15859.47
487.14	16084.16
487.32	16400.13
487.50	16327.58
487.68	16423.54
487.85	16676.32
488.03	16634.19
488.21	16666.95
488.39	16617.80
488.57	16901.01
488.75	17116.34
488.92	17053.14
489.10	17289.54
489.28	17549.34
489.46	17972.97
489.64	17921.48
489.81	17919.14
489.99	17919.14
490.17	18183.62
490.35	18354.48
490.53	18499.59
490.70	18523.00
490.88	18534.70
491.06	18588.53
491.24	18768.76
491.41	19012.17
491.59	19325.80
491.77	18726.63
491.95	19365.59
492.13	19510.71
492.30	19393.68
492.48	19709.65
492.66	19836.04
492.84	19868.81
493.01	20060.73
493.19	19974.13
493.37	20175.42
493.54	20250.32
493.72	20552.24
493.90	20676.29
494.08	20786.30
494.25	21062.48
494.43	21055.46
494.61	21043.76
494.79	21242.70
494.96	20870.56
495.14	21170.15
495.32	21544.63
495.49	21809.11
495.67	21802.09
495.85	21804.43
496.02	21804.43
496.20	22036.14
496.38	22228.07
496.55	22272.54
496.73	22750.01
496.91	22656.39
497.09	22656.39
497.26	22773.41
497.44	22813.20
497.62	22647.02
497.79	23351.52
497.97	23103.43
498.14	23379.61
498.32	23206.41
498.50	23267.27
498.67	23349.18
498.85	23473.23
499.03	23927.30
499.20	23723.67
499.38	23798.57
499.56	24189.44
499.73	24231.57
499.91	24053.69
500.08	24477.32
500.26	23981.13
500.44	24474.98
500.61	24322.85
500.79	24514.77
500.97	24545.20
501.14	24926.71
501.32	25266.08
501.49	25055.43
501.67	24718.40
501.84	25167.78
502.02	25500.14
502.20	25209.91
502.37	25586.74
502.55	25586.74
502.72	25170.12
502.90	25184.16
503.07	25830.15
503.25	25546.95
503.43	25708.44
503.60	25867.60
503.78	26139.10
503.95	26457.42
504.13	26534.65
504.30	25982.29
504.48	26370.82
504.65	26918.50
504.83	26761.69
505.01	26979.36
505.18	26483.16
505.36	27035.53
505.53	26874.03
505.71	27328.10
505.88	27068.30
506.06	26672.74
506.23	26878.71
506.41	26995.74
506.58	27349.16
506.76	27365.54
506.93	27454.48
507.11	27503.64
507.28	27714.28
507.46	27896.85
507.63	27702.58
507.81	27927.27
507.98	27410.01
508.16	28187.07
508.33	27995.15
508.50	28610.71
508.68	28573.26
508.85	28404.74
509.03	28397.72
509.20	28727.74
509.38	28503.04
509.55	28830.72
509.73	28554.54
509.90	28648.16
510.08	28577.94
510.25	29008.60
510.42	29085.84
510.60	28980.51
510.77	29273.08
510.95	29324.57
511.12	29296.49
511.30	29701.40
511.47	29457.98
511.64	29708.42
511.82	29738.85
511.99	29837.15
512.17	29972.90
512.34	29577.35
512.51	30253.76
512.69	30382.49
512.86	30000.99
513.04	30520.59
513.21	30639.95
513.38	30249.08
513.56	30424.62
513.73	30331.00
513.90	30553.35
514.08	30277.17
514.25	30761.66
514.43	30658.68
514.60	30761.66
514.77	30473.78
514.95	31030.82
515.12	31365.52
515.29	30897.41
515.47	31660.43
515.64	31515.31
515.81	31276.58
515.99	31304.67
516.16	31246.15
516.33	31248.49
516.51	31374.88
516.68	31363.18
516.85	31386.58
517.03	31330.41
517.20	31569.15
517.37	32072.36
517.54	32144.92
517.72	32046.62
517.89	32023.21
518.06	32168.32
518.24	31674.47
518.41	32163.64
518.58	32151.94
518.75	31971.72
518.93	32552.17
519.10	32467.91
519.27	32774.52
519.45	32156.62
519.62	32673.88
519.79	32652.81
519.96	32936.02
520.14	33160.71
520.31	32421.10
520.48	33151.35
520.65	32591.96
520.83	33013.26
521.00	33188.80
521.17	33441.57
521.34	32914.95
521.52	33659.24
521.69	33406.47
521.86	33928.41
522.03	33450.94
522.20	33778.61
522.38	34085.22
522.55	33900.32
522.72	33893.30
522.89	33851.17
523.07	34167.14
523.24	34059.48
523.41	34153.10
523.58	34279.49
523.75	34410.56
523.92	34586.10
524.10	34462.05
524.27	34462.05
524.44	34412.90
524.61	34391.83
524.78	34778.02
524.96	35021.44
525.13	34827.17
525.30	35044.84
525.47	35189.95
525.64	35211.02
525.81	34953.56
525.98	35477.84
526.16	34686.74
526.33	34960.58
526.50	35864.03
526.67	34960.58
526.84	34866.96
527.01	35466.14
527.18	35192.30
527.36	35328.05
527.53	35747.00
527.70	35943.61
527.87	35770.41
528.04	35625.29
528.21	36175.32
528.38	35854.67
528.55	35917.86
528.72	35978.72
528.89	36123.83
529.07	36187.02
529.24	36084.04
529.41	35997.44
529.58	36407.03
529.75	36219.79
529.92	36175.32
530.09	36208.09
530.26	36273.62
530.43	36449.16
530.60	36524.06
530.77	36598.96
530.94	36809.61
531.11	36788.54
531.28	36905.57
531.46	36851.73
531.63	36767.48
531.80	37242.60
531.97	36863.44
532.14	37258.99
532.31	36673.85
532.48	37322.18
532.65	37184.09
532.82	37048.34
532.99	37099.83
533.16	36741.73
533.33	37811.35
533.50	37673.26
533.67	37572.62
533.84	37256.65
534.01	37553.90
534.18	37785.61
534.35	38038.39
534.52	37633.47
534.69	37935.40
534.86	38033.71
535.03	37680.28
535.20	38057.11
535.37	37989.24
535.54	38679.69
535.71	38249.03
535.88	37853.48
536.05	38337.98
536.22	38246.69
536.38	38686.71
536.55	38604.80
536.72	38139.03
536.89	38050.09
537.06	38209.25
537.23	38160.09
537.40	38108.60
537.57	38595.43
537.74	38185.84
537.91	38904.38
538.08	38794.38
538.25	38714.80
538.42	38672.67
538.59	39377.17
538.75	38630.54
538.92	38932.47
539.09	38944.17
539.26	39016.73
539.43	39423.98
539.60	38962.90
539.77	38705.44
539.94	39253.12
540.11	39129.08
540.28	39426.32
540.44	39199.29
540.61	38979.28
540.78	38937.15
540.95	39370.15
541.12	39220.36
541.29	39658.04
541.46	38967.58
541.62	39704.85
541.79	39707.19
541.96	39009.71
542.13	39789.11
542.30	39758.68
542.47	39789.11
542.63	39543.35
542.80	40051.25
542.97	40299.34
543.14	40608.29
543.31	40524.04
543.48	40016.14
543.64	40835.33
543.81	40683.19
543.98	40495.95
544.15	39931.88
544.32	40566.16
544.48	40580.21
544.65	40648.08
544.82	40514.67
544.99	40151.89
545.16	40369.56
545.32	40563.82
545.49	40779.15
545.66	40722.98
545.83	41006.19
546.00	40676.17
546.16	41024.91
546.33	40620.00
546.50	40484.25
546.67	41050.66
546.83	40463.18
547.00	41055.34
547.17	40961.72
547.34	40727.66
547.50	41205.13
547.67	41469.61
547.84	41261.30
548.00	41265.99
548.17	41577.28
548.34	41319.82
548.51	41670.90
548.67	41287.05
548.84	41401.74
549.01	41446.21
549.18	41319.82
549.34	41755.16
549.51	41415.78
549.68	41628.77
549.84	41565.57
550.01	41928.36
550.18	41287.05
550.34	41441.53
550.51	41851.12
550.68	41230.88
550.84	41345.56
551.01	41909.63
551.18	41914.31
551.34	41830.05
551.51	42017.30
551.68	42265.39
551.84	42197.52
552.01	42209.22
552.18	41926.02
552.34	41757.50
552.51	41790.27
552.68	42188.16
552.84	42487.74
553.01	42396.46
553.18	42134.32
553.34	42064.11
553.51	42382.42
553.67	42529.87
553.84	42789.67
554.01	42483.06
554.17	42754.57
554.34	42775.63
554.51	42480.72
554.67	42583.71
554.84	42810.74
555.00	42389.44
555.17	42279.44
555.33	42710.10
555.50	42099.22
555.67	42895.00
555.83	42665.63
556.00	42653.92
556.16	43005.00
556.33	42927.77
556.50	42735.84
556.66	42974.58
556.83	42841.17
556.99	43014.37
557.16	42843.51
557.32	42887.98
557.49	43274.16
557.65	42745.20
557.82	42689.03
557.98	43093.94
558.15	42588.39
558.32	42885.64
558.48	42733.50
558.65	43040.11
558.81	42906.70
558.98	42932.45
559.14	42997.98
559.31	43009.68
559.47	43201.61
559.64	43168.84
559.80	43601.84
559.97	43145.44
560.13	43065.86
560.30	42763.93
560.46	42955.85
560.63	43566.73
560.79	43576.09
560.96	43515.24
561.12	43086.92
561.29	43178.20
561.45	43311.61
561.61	43723.55
561.78	43215.65
561.94	43335.02
562.11	43196.93
562.27	43466.09
562.44	43445.02
562.60	43779.72
562.77	43737.59
562.93	43189.91
563.10	43690.78
563.26	43461.41
563.42	43913.13
563.59	43550.35
563.75	43681.42
563.92	43924.83
564.08	43700.14
564.24	43791.42
564.41	43430.98
564.57	43859.30
564.74	43749.29
564.90	43517.58
565.07	43842.92
565.23	43723.55
565.39	43768.02
565.56	43885.04
565.72	43564.39
565.88	43655.67
566.05	43683.76
566.21	43791.42
566.38	43866.32
566.54	43798.44
566.70	44194.00
566.87	44144.84
567.03	43819.51
567.19	44107.40
567.36	44107.40
567.52	44186.97
567.68	44285.28
567.85	44257.19
568.01	44341.45
568.17	43639.29
568.34	43882.70
568.50	43597.16
568.66	43702.48
568.83	44009.09
568.99	43768.02
569.15	44053.56
569.32	43613.54
569.48	43594.82
569.64	44362.51
569.81	44697.21
569.97	43826.53
570.13	44114.42
570.30	43981.01
570.46	44051.22
570.62	44044.20
570.78	43700.14
570.95	44119.10
571.11	44191.65
571.27	44292.30
571.43	44425.71
571.60	44533.37
571.76	43559.71
571.92	43938.88
572.09	44240.81
572.25	43973.98
572.41	43992.71
572.57	44645.72
572.74	44634.02
572.90	44163.57
573.06	44350.81
573.22	44091.01
573.38	44175.27
573.55	43920.15
573.71	44266.55
573.87	44458.48
574.03	44119.10
574.20	44521.67
574.36	44222.08
574.52	44573.16
574.68	43768.02
574.84	44690.19
575.01	43885.04
575.17	44215.06
575.33	43859.30
575.49	43714.19
575.65	44399.96
575.82	44694.87
575.98	44182.29
576.14	44086.33
576.30	44318.04
576.46	44133.14
576.62	44198.68
576.79	44175.27
576.95	43349.06
577.11	44278.25
577.27	44219.74
577.43	44360.17
577.59	44107.40
577.75	44299.32
577.92	43875.68
578.08	44016.11
578.24	43697.80
578.40	44081.65
578.56	44720.62
578.72	44257.19
578.88	44755.72
579.04	44208.04
579.21	43964.62
579.37	44357.83
579.53	44219.74
579.69	44215.06
579.85	44430.39
580.01	44102.71
580.17	44210.38
580.33	44559.12
580.49	44416.35
580.65	44177.61
580.82	44421.03
580.98	44406.98
581.14	44261.87
581.30	44364.85
581.46	44605.93
581.62	44605.93
581.78	44329.75
581.94	44868.07
582.10	44680.83
582.26	44556.78
582.42	44533.37
582.58	44514.65
582.74	44500.61
582.90	44690.19
583.06	44596.57
583.22	44428.05
583.38	44964.03
583.54	44566.14
583.70	44105.06
583.86	44488.90
584.02	44123.78
584.18	44552.10
584.34	44790.83
584.50	44666.78
584.66	44612.95
584.82	44463.16
584.98	44636.36
585.14	44563.80
585.30	44325.07
585.46	44418.69
585.62	44179.95
585.78	44648.06
585.94	44308.68
586.10	44584.86
586.26	44533.37
586.42	44713.59
586.58	44638.70
586.74	44224.42
586.90	44601.25
587.06	44687.85
587.22	44594.23
587.38	44320.38
587.54	44711.25
587.70	45118.51
587.86	44521.67
588.02	44788.49
588.18	44563.80
588.34	44336.77
588.49	44598.91
588.65	44753.38
588.81	44231.44
588.97	44449.11
589.13	44163.57
589.29	44470.18
589.45	44322.72
589.61	44793.17
589.77	45174.68
589.93	45010.84
590.08	44781.47
590.24	44790.83
590.40	45191.06
590.56	44940.63
590.72	44399.96
590.88	44699.55
591.04	45001.48
591.20	44964.03
591.35	45174.68
591.51	45235.53
591.67	44900.84
591.83	44980.42
591.99	44634.02
592.15	44304.00
592.31	44563.80
592.46	44973.39
592.62	44615.29
592.78	44896.16
592.94	44921.90
593.10	44835.30
593.26	45081.06
593.41	44662.10
593.57	45111.49
593.73	44409.32
593.89	44807.22
594.05	44914.88
594.20	44610.61
594.36	45031.91
594.52	44821.26
594.68	44793.17
594.84	45315.11
594.99	44893.82
595.15	44870.41
595.31	45092.76
595.47	45340.86
595.62	44825.94
595.78	44985.10
595.94	45233.19
596.10	44821.26
596.25	45167.66
596.41	45315.11
596.57	45015.52
596.73	44861.05
596.88	45027.23
597.04	44921.90
597.20	45078.72
597.36	44751.04
597.51	45200.43
597.67	45670.87
597.83	45015.52
597.99	45404.05
598.14	45319.79
598.30	44779.13
598.46	45071.70
598.61	44739.34
598.77	45111.49
598.93	45050.63
599.09	45006.16
599.24	45085.74
599.40	45315.11
599.56	45478.95
599.71	45371.28
599.87	45219.15
600.03	45336.18
600.18	44746.36
600.34	44891.48
600.50	45172.34
600.65	44914.88
600.81	45230.85
600.97	45287.03
601.12	45289.37
601.28	45141.91
601.44	45113.83
601.59	45460.23
601.75	44650.40
601.91	45170.00
602.06	44509.97
602.22	45453.20
602.37	45155.96
602.53	44912.54
602.69	45462.57
602.84	44891.48
603.00	45504.70
603.16	44830.62
603.31	44713.59
603.47	44711.25
603.62	44631.68
603.78	45207.45
603.94	45029.57
604.09	45202.77
604.25	45240.21
604.40	44488.90
604.56	45048.29
604.71	45170.00
604.87	44854.03
605.03	44699.55
605.18	44545.08
605.34	44741.68
605.49	44168.25
605.65	44732.32
605.80	45106.80
605.96	44961.69
606.12	45048.29
606.27	44821.26
606.43	44694.87
606.58	45024.89
606.74	44994.46
606.89	44521.67
607.05	44968.71
607.20	44697.21
607.36	44748.70
607.51	44825.94
607.67	45038.93
607.82	45188.72
607.98	44779.13
608.13	44612.95
608.29	44655.08
608.44	44381.24
608.60	44095.69
608.75	44325.07
608.91	44399.96
609.06	44348.47
609.22	44788.49
609.37	44467.84
609.53	44399.96
609.68	44746.36
609.84	44425.71
609.99	44229.10
610.15	44357.83
610.30	44959.35
610.46	44257.19
610.61	44568.48
610.76	44662.10
610.92	44744.02
611.07	44421.03
611.23	44292.30
611.38	44402.30
611.54	44184.63
611.69	44619.97
611.84	44406.98
612.00	44266.55
612.15	44275.91
612.31	44636.36
612.46	44402.30
612.62	44690.19
612.77	44191.65
612.92	44781.47
613.08	44683.17
613.23	44545.08
613.39	43910.79
613.54	44285.28
613.69	44013.77
613.85	43882.70
614.00	44531.03
614.15	44346.13
614.31	44516.99
614.46	44172.93
614.62	44123.78
614.77	44512.31
614.92	44292.30
615.08	43929.51
615.23	43711.84
615.38	43955.26
615.54	43817.17
615.69	43896.75
615.84	43643.97
616.00	43543.33
616.15	43428.64
616.30	43751.63
616.46	43674.40
616.61	43388.85
616.76	43606.52
616.92	43878.02
617.07	43751.63
617.22	43695.46
617.37	43435.66
617.53	43608.86
617.68	44205.70
617.83	44158.89
617.99	43721.21
618.14	43924.83
618.29	43501.20
618.45	43178.20
618.60	43728.23
618.75	43283.53
618.90	43686.10
619.06	43629.93
619.21	43430.98
619.36	43463.75
619.51	43187.56
619.67	43658.01
619.82	43325.66
619.97	43201.61
620.12	43430.98
620.28	42897.34
620.43	42829.46
620.58	43189.91
620.73	43313.95
620.89	43070.54
621.04	43391.19
621.19	43072.88
621.34	43119.69
621.49	42801.38
621.65	43098.62
621.80	43070.54
621.95	42763.93
622.10	42887.98
622.25	42808.40
622.41	42951.17
622.56	42895.00
622.71	42983.94
622.86	42607.11
623.01	42644.56
623.16	43164.16
623.32	42665.63
623.47	42944.15
623.62	42792.01
623.77	42548.60
623.92	42628.18
624.07	42609.45
624.23	42185.82
624.38	42029.00
624.53	42447.96
624.68	42522.85
624.83	42691.37
624.98	42904.36
625.13	42452.64
625.29	42546.26
625.44	42796.70
625.59	42302.84
625.74	41642.81
625.89	41792.61
626.04	42190.50
626.19	42059.43
626.34	42300.50
626.49	42536.90
626.65	42246.67
626.80	42295.82
626.95	41963.46
627.10	42036.02
627.25	41565.57
627.40	41832.39
627.55	41715.37
627.70	41734.09
627.85	41729.41
628.00	41633.45
628.15	41993.89
628.30	41703.67
628.45	42143.69
628.60	41195.77
628.76	41851.12
628.91	42005.59
629.06	41827.71
629.21	41406.42
629.36	41425.14
629.51	41385.35
629.66	41464.93
629.81	41439.18
629.96	42003.25
630.11	41684.94
630.26	41846.44
630.41	41413.44
630.56	41315.14
630.71	41312.80
630.86	41294.07
631.01	41263.64
631.16	41387.69
631.31	41420.46
631.46	41062.36
631.61	41230.88
631.76	41233.22
631.91	41141.94
632.06	41570.25
632.21	41661.54
632.36	41055.34
632.51	40982.78
632.66	41155.98
632.81	40959.38
632.96	40865.75
633.10	40720.64
633.25	40989.80
633.40	41060.02
633.55	41057.68
633.70	41364.29
633.85	40828.30
634.00	41013.21
634.15	40910.22
634.30	40687.87
634.45	40818.94
634.60	40978.10
634.75	40329.77
634.90	40741.71
635.05	41214.49
635.19	40832.99
635.34	40807.24
635.49	40989.80
635.64	40659.79
635.79	40517.01
635.94	40727.66
636.09	40847.03
636.24	40479.57
636.39	40594.25
636.53	40348.50
636.68	40137.85
636.83	39807.83
636.98	40243.17
637.13	39922.52
637.28	40060.61
637.43	40575.53
637.57	40612.98
637.72	40547.44
637.87	40463.18
638.02	40304.02
638.17	39995.07
638.32	39913.16
638.46	40329.77
638.61	40119.12
638.76	39749.32
638.91	39922.52
639.06	39871.03
639.20	40025.50
639.35	40514.67
639.50	40065.29
639.65	40315.73
639.80	40299.34
639.94	40219.77
640.09	40123.80
640.24	39838.26
640.39	39882.73
640.54	39653.36
640.68	39257.81
640.83	39945.92
640.98	39782.09
641.13	39510.58
641.27	40058.27
641.42	40032.52
641.57	39784.43
641.72	39665.06
641.86	39510.58
642.01	39880.39
642.16	39374.83
642.31	38859.91
642.45	39426.32
642.60	38923.11
642.75	39241.42
642.90	39463.77
643.04	38878.64
643.19	39346.75
643.34	39407.60
643.48	39484.84
643.63	39611.23
643.78	39302.28
643.93	39199.29
644.07	38841.19
644.22	39140.78
644.37	38756.93
644.51	39138.44
644.66	39309.30
644.81	39363.13
644.95	39257.81
645.10	39335.04
645.25	39342.06
645.39	39330.36
645.54	39241.42
645.69	39229.72
645.83	39115.03
645.98	38925.45
646.13	39030.77
646.27	39035.45
646.42	38614.16
646.57	38768.63
646.71	38967.58
646.86	38733.53
647.00	38656.29
647.15	38471.39
647.30	38726.50
647.44	38897.36
647.59	38717.14
647.74	38756.93
647.88	38653.95
648.03	38309.89
648.17	38218.61
648.32	38363.72
648.47	38239.67
648.61	38356.70
648.76	38852.89
648.90	38096.90
649.05	38677.35
649.20	38267.76
649.34	38885.66
649.49	38092.22
649.63	38167.12
649.78	38597.77
649.92	38422.23
650.07	37968.17
650.21	37970.51
650.36	37972.85
650.51	37858.17
650.65	38485.43
650.80	38782.68
650.94	38260.74
651.09	38181.16
651.23	38440.96
651.38	37659.22
651.52	37764.54
651.67	38078.18
651.81	38113.28
651.96	38438.62
652.10	37954.13
652.25	37502.40
652.39	37783.27
652.54	38117.96
652.68	37825.40
652.83	37879.23
652.97	37694.33
653.12	37659.22
653.26	37570.28
653.41	37888.59
653.55	37565.60
653.70	37479.00
653.84	37663.90
653.99	37525.81
654.13	37193.45
654.27	37642.84
654.42	37474.32
654.56	37687.31
654.71	37497.72
654.85	37219.20
655.00	37270.69
655.14	37343.25
655.29	37551.56
655.43	37261.33
655.57	37195.79
655.72	36966.42
655.86	37378.36
656.01	37186.43
656.15	37043.66
656.30	37237.92
656.44	36961.74
656.58	37057.70
656.73	36704.28
656.87	36751.09
657.01	36488.95
657.16	36704.28
657.30	36814.29
657.45	36287.67
657.59	36573.21
657.73	36517.04
657.88	36926.63
658.02	36699.60
658.16	36725.35
658.31	36987.49
658.45	36978.12
658.60	36538.10
658.74	36596.62
658.88	36648.11
659.03	36575.55
659.17	36315.75
659.31	36524.06
659.46	36381.29
659.60	36205.75
659.74	36100.42
659.89	35931.90
660.03	36231.49
660.17	36048.93
660.32	36070.00
660.46	36294.69
660.60	36114.47
660.74	36521.72
660.89	36189.36
661.03	35632.32
661.17	35337.41
661.32	35491.88
661.46	35852.33
661.60	35482.52
661.74	35496.56
661.89	35899.14
662.03	35730.62
662.17	35321.02
662.31	35515.29
662.46	35559.76
662.60	35651.04
662.74	35583.16
662.88	35405.28
663.03	35374.86
663.17	35545.72
663.31	34991.01
663.45	35480.18
663.60	35108.04
663.74	34466.73
663.88	35133.78
664.02	34771.00
664.17	35309.32
664.31	34836.53
664.45	34836.53
664.59	35267.19
664.73	34611.84
664.88	34623.54
665.02	34356.72
665.16	34710.14
665.30	34611.84
665.44	34309.91
665.59	34515.88
665.73	34305.23
665.87	33963.51
666.01	34380.13
666.15	33731.80
666.29	34176.50
666.44	34581.42
666.58	34277.15
666.72	34164.80
666.86	34150.76
667.00	34377.79
667.14	33701.37
667.28	33638.18
667.43	33879.25
667.57	33933.09
667.71	33404.13
667.85	33446.26
667.99	33521.15
668.13	33296.46
668.27	33432.21
668.41	33640.52
668.56	33113.90
668.70	33289.44
668.84	32772.18
668.98	32746.44
669.12	33036.66
669.26	33200.50
669.40	32936.02
669.54	32882.19
669.68	33212.20
669.82	32926.66
669.96	33029.64
670.10	32926.66
670.25	32797.93
670.39	32662.18
670.53	32484.30
670.67	32362.59
670.81	32643.45
670.95	32793.25
671.09	32992.19
671.23	32907.93
671.37	32650.47
671.51	32184.71
671.65	32217.47
671.79	31901.50
671.93	31651.06
672.07	32311.10
672.21	31754.05
672.35	31960.02
672.49	31594.89
672.63	32196.41
672.77	31974.06
672.91	31660.43
673.05	31840.65
673.19	31906.18
673.33	31601.91
673.47	31363.18
673.61	31356.16
673.75	30740.60
673.89	31143.17
674.03	30810.81
674.17	30398.88
674.31	30586.12
674.45	30824.86
674.59	30771.02
674.73	31335.09
674.87	30705.49
675.01	30822.51
675.15	30450.37
675.29	30939.54
675.43	30838.90
675.56	30513.56
675.70	30609.53
675.84	29921.41
675.98	29149.03
676.12	29832.47
676.26	30040.78
676.40	29883.96
676.54	29603.10
676.68	29956.52
676.82	29399.47
676.96	29916.73
677.10	29212.23
677.23	29432.24
677.37	29425.22
677.51	29455.64
677.65	29221.59
677.79	28802.63
677.93	29364.36
678.07	28912.64
678.21	28215.16
678.34	28842.42
678.48	28444.53
678.62	28304.10
678.76	28811.99
678.90	28194.09
679.04	28166.01
679.18	28229.20
679.31	28048.98
679.45	27768.12
679.59	27274.26
679.73	27929.61
679.87	28046.64
680.00	27737.69
680.14	27398.31
680.28	27424.06
680.42	27384.27
680.56	27548.11
680.70	27466.19
680.83	27150.21
680.97	27103.40
681.11	27213.41
681.25	26621.25
681.39	26862.33
681.52	26974.67
681.66	26583.80
681.80	26642.32
681.94	26431.67
682.07	26319.32
682.21	26132.08
682.35	26277.19
682.49	25970.58
682.62	26251.45
682.76	26001.01
682.90	26052.50
683.04	25820.79
683.17	26015.05
683.31	25757.60
683.45	25455.67
683.59	25572.69
683.72	25266.08
683.86	25146.72
684.00	25518.86
684.13	25474.39
684.27	25069.48
684.41	25228.63
684.55	25090.54
684.68	24615.41
684.82	24477.32
684.96	24432.85
685.09	24610.73
685.23	24400.08
685.37	24694.99
685.50	24744.14
685.64	24339.23
685.78	24112.20
685.91	24432.85
686.05	23871.12
686.19	23545.79
686.32	23833.68
686.46	23770.48
686.60	23384.29
686.73	23749.42
686.87	23147.90
687.01	23208.75
687.14	23126.83
687.28	23084.70
687.42	23241.52
687.55	22773.41
687.69	22843.63
687.82	22998.10
687.96	22890.44
688.10	22677.45
688.23	22916.19
688.37	22541.70
688.50	22345.09
688.64	22104.02
688.78	21912.10
688.91	21720.17
689.05	22235.09
689.18	22249.13
689.32	21425.26
689.46	21930.82
689.59	22211.68
689.73	21886.35
689.86	21537.61
690.00	21572.72
690.13	21872.31
690.27	21537.61
690.41	21502.50
690.54	21275.47
690.68	21455.69
690.81	20992.26
690.95	20912.69
691.08	21088.23
691.22	20856.51
691.35	20985.24
691.49	20889.28
691.62	20959.50
691.76	21085.89
691.89	20585.01
692.03	20517.14
692.16	20262.02
692.30	20517.14
692.43	20116.90
692.57	19974.13
692.70	20414.15
692.84	20152.01
692.97	19777.53
693.11	19871.15
693.24	19730.72
693.38	19690.93
693.51	19702.63
693.65	19606.67
693.78	19674.54
693.92	19524.75
694.05	19246.23
694.19	19124.52
694.32	19082.39
694.45	19056.64
694.59	19168.99
694.72	19206.44
694.86	18824.93
694.99	18745.35
695.13	18492.57
695.26	18391.93
695.39	18319.37
695.53	18537.04
695.66	18775.78
695.80	18396.61
695.93	17984.68
696.07	17970.63
696.20	18302.99
696.33	18111.07
696.47	17797.43
696.60	17905.10
696.73	17977.65
696.87	17827.86
697.00	17797.43
697.14	17617.21
697.27	17591.47
697.40	17783.39
697.54	17205.28
697.67	17324.65
697.80	17425.29
697.94	17312.94
698.07	17128.04
698.21	16741.85
698.34	16898.67
698.47	16856.54
698.61	16554.61
698.74	16657.59
698.87	16821.43
699.01	16521.84
699.14	16671.64
699.27	16465.67
699.40	16262.04
699.54	16320.56
699.67	16011.60
699.80	15985.86
699.94	16049.05
700.07	16299.49
700.20	15882.88
700.34	15728.40
700.47	15728.40
700.60	15796.28
700.73	15873.51
700.87	15527.11
701.00	15248.59
701.13	15438.17
701.26	15477.96
701.40	15442.85
701.53	15290.72
701.66	15089.43
701.79	15276.68
701.93	14827.29
702.06	14780.48
702.19	14820.27
702.32	15101.14
702.46	14754.74
702.59	14771.12
702.72	14750.06
702.85	14555.79
702.99	14764.10
703.12	14434.08
703.25	14663.46
703.38	14466.85
703.51	14270.25
703.65	14368.55
703.78	14141.52
703.91	14359.19
704.04	14256.20
704.17	13879.38
704.31	14113.43
704.44	13614.90
704.57	13488.51
704.70	13809.16
704.83	13647.66
704.96	13682.77
705.10	13748.31
705.23	13575.11
>>>>>End Processed Spectral Data<<<<<
