SpectraSuite Data File
++++++++++++++++++++++++++++++++++++
Date: Fri Oct 25 10:47:25 EDT 2013
User: price-jones
Dark Spectrum Present: No
Reference Spectrum Present: No
Number of Sampled Component Spectra: 1
Spectrometers: USB2+H05261
Integration Time (usec): 100000 (USB2+H05261)
Spectra Averaged: 1 (USB2+H05261)
Boxcar Smoothing: 0 (USB2+H05261)
Correct for Electrical Dark: No (USB2+H05261)
Strobe/Lamp Enabled: No (USB2+H05261)
Correct for Detector Non-linearity: No (USB2+H05261)
Correct for Stray Light: No (USB2+H05261)
Number of Pixels in Processed Spectrum: 2048
>>>>>Begin Processed Spectral Data<<<<<
365.73	163.84
365.92	163.84
366.12	163.84
366.32	32.77
366.52	49.15
366.72	65.54
366.91	0.00
367.11	98.30
367.31	4.68
367.51	30.43
367.70	39.79
367.90	37.45
368.10	25.75
368.30	63.19
368.49	0.00
368.69	30.43
368.89	42.13
369.09	49.15
369.28	67.88
369.48	74.90
369.68	25.75
369.87	145.11
370.07	161.50
370.27	145.11
370.47	182.56
370.66	355.76
370.86	355.76
371.06	465.77
371.25	505.56
371.45	454.06
371.65	498.53
371.84	376.83
372.04	423.64
372.24	442.36
372.44	404.91
372.63	498.53
372.83	521.94
373.03	505.56
373.22	470.45
373.42	547.69
373.62	507.90
373.81	524.28
374.01	589.82
374.21	594.50
374.40	484.49
374.60	601.52
374.79	514.92
374.99	575.77
375.19	517.26
375.38	599.18
375.58	594.50
375.78	559.39
375.97	589.82
376.17	594.50
376.37	566.41
376.56	606.20
376.76	617.90
376.95	587.47
377.15	568.75
377.35	629.60
377.54	650.67
377.74	653.01
377.93	617.90
378.13	650.67
378.33	613.22
378.52	617.90
378.72	615.56
378.91	582.79
379.11	594.50
379.31	629.60
379.50	676.41
379.70	678.76
379.89	641.31
380.09	643.65
380.28	615.56
380.48	617.90
380.68	608.54
380.87	629.60
381.07	688.12
381.26	664.71
381.46	650.67
381.65	676.41
381.85	653.01
382.04	711.52
382.24	706.84
382.43	667.05
382.63	587.47
382.83	660.03
383.02	660.03
383.22	737.27
383.41	660.03
383.61	643.65
383.80	807.48
384.00	774.72
384.19	770.04
384.39	716.20
384.58	697.48
384.78	711.52
384.97	739.61
385.17	739.61
385.36	770.04
385.56	737.27
385.75	730.25
385.95	800.46
386.14	847.27
386.34	821.53
386.53	814.51
386.72	805.14
386.92	828.55
387.11	777.06
387.31	802.80
387.50	823.87
387.70	880.04
387.89	835.57
388.09	849.61
388.28	875.36
388.48	877.70
388.67	774.72
388.86	856.64
389.06	889.40
389.25	863.66
389.45	873.02
389.64	875.36
389.84	957.28
390.03	933.87
390.22	936.21
390.42	936.21
390.61	950.26
390.81	957.28
391.00	1011.11
391.19	966.64
391.39	957.28
391.58	1008.77
391.78	1020.47
391.97	905.79
392.16	983.02
392.36	976.00
392.55	1036.86
392.75	968.98
392.94	945.58
393.13	861.32
393.33	1004.09
393.52	1041.54
393.71	1055.58
393.91	1114.10
394.10	1057.92
394.29	1032.18
394.49	983.02
394.68	1034.52
394.88	1078.99
395.07	1146.86
395.26	1064.94
395.46	1055.58
395.65	1057.92
395.84	1097.71
396.04	1160.91
396.23	1198.35
396.42	1081.33
396.62	1172.61
396.81	1107.07
397.00	1153.88
397.19	1076.65
397.39	1238.14
397.58	1324.74
397.77	1177.29
397.97	1226.44
398.16	1299.00
398.35	1263.89
398.55	1348.15
398.74	1263.89
398.93	1313.04
399.12	1371.55
399.32	1313.04
399.51	1301.34
399.70	1437.09
399.90	1338.79
400.09	1383.26
400.28	1343.47
400.47	1411.34
400.67	1472.20
400.86	1479.22
401.05	1439.43
401.24	1511.99
401.44	1502.62
401.63	1605.61
401.82	1551.78
402.01	1437.09
402.21	1497.94
402.40	1607.95
402.59	1441.77
402.78	1554.12
402.97	1579.86
403.17	1584.54
403.36	1533.05
403.55	1603.27
403.74	1645.40
403.93	1612.63
404.13	1626.67
404.32	1689.87
404.51	1699.23
404.70	1710.93
404.89	1638.38
405.09	1788.17
405.28	1694.55
405.47	1694.55
405.66	1750.72
405.85	1781.15
406.05	1750.72
406.24	1774.13
406.43	1717.95
406.62	1877.11
406.81	1877.11
407.00	1830.30
407.20	1668.80
407.39	1776.47
407.58	1991.80
407.77	1902.86
407.96	1968.39
408.15	1914.56
408.34	1856.04
408.54	2003.50
408.73	2059.67
408.92	1963.71
409.11	2050.31
409.30	2157.97
409.49	2040.95
409.68	1998.82
409.87	2113.50
410.07	2214.15
410.26	2064.35
410.45	1982.43
410.64	2127.55
410.83	2108.82
411.02	2132.23
411.21	2235.21
411.40	2363.94
411.59	2296.07
411.78	2284.36
411.98	2190.74
412.17	2300.75
412.36	2368.62
412.55	2352.24
412.74	2413.09
412.93	2417.77
413.12	2403.73
413.31	2431.82
413.50	2427.14
413.69	2565.23
413.88	2504.37
414.07	2562.89
414.26	2530.12
414.45	2546.50
414.64	2602.68
414.83	2658.85
415.02	2717.36
415.22	2630.76
415.41	2595.65
415.60	2766.51
415.79	2691.62
415.98	2874.18
416.17	2928.01
416.36	2839.07
416.55	2944.39
416.74	2984.18
416.93	2867.16
417.12	2827.37
417.31	2965.46
417.50	3040.36
417.69	2995.89
417.88	3077.80
418.07	3059.08
418.26	3145.68
418.45	3033.33
418.64	3241.64
418.83	3101.21
419.02	3180.79
419.21	3119.93
419.39	3126.96
419.58	3052.06
419.77	3164.40
419.96	3260.37
420.15	3108.23
420.34	3311.86
420.53	3325.90
420.72	3346.97
420.91	3442.93
421.10	3445.27
421.29	3515.48
421.48	3382.07
421.67	3508.46
421.86	3405.48
422.05	3389.10
422.24	3279.09
422.43	3426.54
422.61	3375.05
422.80	3510.80
422.99	3473.36
423.18	3499.10
423.37	3487.40
423.56	3478.04
423.75	3435.91
423.94	3473.36
424.13	3281.43
424.32	3365.69
424.50	3674.64
424.69	3646.55
424.88	3634.85
425.07	3606.77
425.26	3508.46
425.45	3520.17
425.64	3510.80
425.83	3585.70
426.01	3550.59
426.20	3531.87
426.39	3609.11
426.58	3515.48
426.77	3576.34
426.96	3515.48
427.15	3492.08
427.33	3758.90
427.52	3669.96
427.71	3653.58
427.90	3805.71
428.09	3815.07
428.28	3758.90
428.46	3859.54
428.65	3672.30
428.84	3852.52
429.03	3920.40
429.22	3786.99
429.40	3786.99
429.59	3740.18
429.78	3590.38
429.97	3684.00
430.16	3714.43
430.34	3833.80
430.53	3889.97
430.72	3859.54
430.91	3861.88
431.10	3971.89
431.28	3957.85
431.47	4102.96
431.66	4163.81
431.85	3999.98
432.03	4140.41
432.22	4067.85
432.41	4264.46
432.60	4306.59
432.79	4180.20
432.97	4252.75
433.16	4306.59
433.35	4084.23
433.54	4156.79
433.72	4250.41
433.91	4278.50
434.10	4290.20
434.28	4273.82
434.47	4470.42
434.66	4482.13
434.85	4416.59
435.03	4367.44
435.22	4442.34
435.41	4638.94
435.59	4566.39
435.78	4517.23
435.97	4552.34
436.16	4519.57
436.34	4571.07
436.53	4533.62
436.72	4688.09
436.90	4606.17
437.09	4655.33
437.28	4671.71
437.46	4690.43
437.65	4720.86
437.84	4842.57
438.02	4622.56
438.21	4720.86
438.40	4767.67
438.58	4912.78
438.77	4770.01
438.96	4798.10
439.14	4940.87
439.33	5018.11
439.52	5071.94
439.70	4987.68
439.89	5036.83
440.08	5128.11
440.26	5228.76
440.45	5228.76
440.63	5228.76
440.82	5362.17
441.01	5193.65
441.19	5331.74
441.38	5310.68
441.57	5462.81
441.75	5542.39
441.94	5547.07
442.12	5654.73
442.31	5657.07
442.50	5645.37
442.68	5565.79
442.87	5729.63
443.05	5746.02
443.24	5738.99
443.43	5530.69
443.61	5703.89
443.80	5736.65
443.98	5659.42
444.17	5551.75
444.35	5689.84
444.54	5746.02
444.73	5781.12
444.91	5743.67
445.10	5664.10
445.28	5996.45
445.47	5762.40
445.65	5832.62
445.84	5788.14
446.02	5853.68
446.21	5888.79
446.39	5954.32
446.58	5909.85
446.77	5944.96
446.95	5804.53
447.14	5841.98
447.32	6038.58
447.51	5921.56
447.69	5870.06
447.88	5977.73
448.06	5893.47
448.25	6010.50
448.43	6064.33
448.62	5998.79
448.80	5912.19
448.99	6040.92
449.17	6193.06
449.36	6214.12
449.54	6274.98
449.73	6469.24
449.91	6373.28
450.10	6420.09
450.28	6380.30
450.46	6359.24
450.65	6267.95
450.83	6523.07
451.02	6462.22
451.20	6586.27
451.39	6438.81
451.57	6312.42
451.76	6377.96
451.94	6448.18
452.13	6513.71
452.31	6567.54
452.49	6282.00
452.68	6513.71
452.86	6516.05
453.05	6705.63
453.23	6691.59
453.42	6569.88
453.60	6448.18
453.78	6817.98
453.97	6532.44
454.15	6663.51
454.34	6450.52
454.52	6677.55
454.70	6864.79
454.89	6768.83
455.07	6689.25
455.26	6787.55
455.44	6888.20
455.62	6750.10
455.81	6817.98
455.99	7070.76
456.17	7077.78
456.36	6820.32
456.54	7124.59
456.73	7115.23
456.91	7307.15
457.09	7148.00
457.28	7337.58
457.46	7140.97
457.64	7337.58
457.83	7232.26
458.01	7070.76
458.19	7370.35
458.38	7173.74
458.56	7330.56
458.74	7475.67
458.93	7335.24
459.11	7480.35
459.29	7520.14
459.48	7520.14
459.66	7475.67
459.84	7339.92
460.03	7442.90
460.21	7803.35
460.39	7672.28
460.57	7639.51
460.76	7871.22
460.94	7698.02
461.12	7653.55
461.31	7726.11
461.49	7613.76
461.67	7686.32
461.85	7761.22
462.04	7896.97
462.22	8250.39
462.40	8070.17
462.59	7882.92
462.77	8053.78
462.95	8095.91
463.13	7852.50
463.32	8201.24
463.50	8016.33
463.68	8222.30
463.86	8121.66
464.05	7929.74
464.23	7875.90
464.41	8098.25
464.59	8107.62
464.78	8154.43
464.96	8124.00
465.14	7955.48
465.32	8439.97
465.50	8344.01
465.69	8353.37
465.87	8196.56
466.05	8241.03
466.23	8084.21
466.41	8339.33
466.60	8409.54
466.78	8173.15
466.96	8236.35
467.14	8390.82
467.32	8517.21
467.51	8472.74
467.69	8442.31
467.87	8507.85
468.05	8547.64
468.23	8461.04
468.41	8463.38
468.60	8587.43
468.78	8613.17
468.96	8667.00
469.14	8748.92
469.32	8830.84
469.50	8603.81
469.69	9022.77
469.87	8945.53
470.05	8858.93
470.23	8933.82
470.41	8898.72
470.59	8966.59
470.77	8985.32
470.95	9144.47
471.14	9256.82
471.32	8985.32
471.50	9252.14
471.68	9324.69
471.86	9294.27
472.04	9423.00
472.22	9345.76
472.40	9394.91
472.58	9324.69
472.77	9603.22
472.95	9518.96
473.13	9715.56
473.31	9458.10
473.49	9558.75
473.67	9619.60
473.85	9738.97
474.03	9902.81
474.21	9703.86
474.39	9949.62
474.57	10174.31
474.75	10050.26
474.93	10204.74
475.12	10183.67
475.30	10225.80
475.48	10186.01
475.66	10190.69
475.84	10274.95
476.02	10370.91
476.20	10310.06
476.38	10729.02
476.56	10824.98
476.74	10623.69
476.92	10497.30
477.10	10623.69
477.28	11014.56
477.46	10913.92
477.64	11066.05
477.82	11126.91
478.00	11536.50
478.18	11105.84
478.36	11300.11
478.54	11538.84
478.72	11496.71
478.90	11651.19
479.08	11943.75
479.26	11889.92
479.44	11927.37
479.62	11894.60
479.80	12072.48
479.98	12226.96
480.16	12395.48
480.34	12432.93
480.52	12470.37
480.70	12507.82
480.88	12194.19
481.06	12500.80
481.24	12695.07
481.41	12753.58
481.59	13111.68
481.77	13029.76
481.95	13249.77
482.13	13214.66
482.31	13221.69
482.49	13448.72
482.67	13572.77
482.85	13411.27
483.03	13823.20
483.21	13846.61
483.39	14015.13
483.57	13888.74
483.74	14207.05
483.92	14284.29
484.10	14099.39
484.28	14295.99
484.46	14525.36
484.64	14794.53
484.82	14485.58
485.00	14721.97
485.18	15183.06
485.35	15096.46
485.53	15073.05
485.71	14906.87
485.89	15314.13
486.07	15028.58
486.25	15435.83
486.43	15438.17
486.61	15655.84
486.78	15948.41
486.96	16032.67
487.14	16383.75
487.32	16269.06
487.50	16297.15
487.68	16533.54
487.85	17106.98
488.03	16833.13
488.21	17102.29
488.39	16945.48
488.57	17270.81
488.75	17329.33
488.92	17427.63
489.10	17708.49
489.28	17635.94
489.46	18288.95
489.64	17554.02
489.81	18293.63
489.99	18043.19
490.17	18295.97
490.35	18600.24
490.53	18235.11
490.70	18675.13
490.88	18743.01
491.06	19012.17
491.24	18862.38
491.41	18881.10
491.59	19300.06
491.77	19304.74
491.95	19250.91
492.13	19646.46
492.30	19641.78
492.48	19957.75
492.66	19800.93
492.84	19798.59
493.01	20369.68
493.19	20205.84
493.37	20610.76
493.54	20257.34
493.72	20774.60
493.90	20959.50
494.08	21156.10
494.25	21238.02
494.43	20994.61
494.61	21406.54
494.79	21413.56
494.96	21289.51
495.14	21486.12
495.32	21874.65
495.49	21757.62
495.67	21841.88
495.85	22057.21
496.02	22073.59
496.20	22614.26
496.38	22464.46
496.55	22632.98
496.73	23026.19
496.91	22434.03
497.09	22984.06
497.26	22904.48
497.44	22871.72
497.62	23080.02
497.79	23384.29
497.97	22848.31
498.14	23136.20
498.32	23501.32
498.50	23548.13
498.67	23793.89
498.85	24063.05
499.03	24114.54
499.20	23868.78
499.38	24421.15
499.56	24737.12
499.73	24400.08
499.91	24280.72
500.08	24751.17
500.26	24290.08
500.44	24737.12
500.61	24575.62
500.79	24786.27
500.97	24924.36
501.14	24915.00
501.32	25565.67
501.49	25256.72
501.67	25362.04
501.84	25685.04
502.02	25116.29
502.20	25394.81
502.37	25680.36
502.55	25804.41
502.72	25755.26
502.90	25961.22
503.07	25846.54
503.25	26120.38
503.43	25762.28
503.60	26335.71
503.78	25970.58
503.95	26087.61
504.13	26436.35
504.30	26211.66
504.48	26579.12
504.65	26576.78
504.83	26951.27
505.01	27264.90
505.18	26785.09
505.36	26834.24
505.53	27190.00
505.71	27241.50
505.88	27440.44
506.06	27246.18
506.23	27541.08
506.41	27342.14
506.58	27594.92
506.76	27821.95
506.93	27604.28
507.11	28102.81
507.28	28130.90
507.46	27707.26
507.63	28264.31
507.81	28184.73
507.98	27613.64
508.16	28268.99
508.33	28315.80
508.50	28964.13
508.68	28694.97
508.85	29092.86
509.03	28446.87
509.20	29032.00
509.38	29174.78
509.55	29195.84
509.73	29294.14
509.90	29244.99
510.08	28912.64
510.25	29184.14
510.42	29373.72
510.60	29397.13
510.77	29359.68
510.95	29607.78
511.12	29422.87
511.30	29834.81
511.47	30113.33
511.64	29713.10
511.82	29883.96
511.99	30157.80
512.17	29795.02
512.34	30134.40
512.51	30284.19
512.69	30670.38
512.86	30359.09
513.04	30988.69
513.21	30534.63
513.38	30831.88
513.56	30871.67
513.73	30548.67
513.90	31250.83
514.08	30562.72
514.25	30991.03
514.43	30955.93
514.60	30665.70
514.77	31316.37
514.95	31473.18
515.12	31299.98
515.29	31426.37
515.47	31550.42
515.64	31754.05
515.81	31679.15
515.99	31770.43
516.16	31768.09
516.33	31896.82
516.51	31494.25
516.68	31400.63
516.85	31484.89
517.03	31637.02
517.20	31833.63
517.37	32067.68
517.54	32439.82
517.72	31943.63
517.89	32210.45
518.06	32161.30
518.24	32418.76
518.41	32292.37
518.58	32002.14
518.75	32273.65
518.93	32800.27
519.10	32364.93
519.27	33022.62
519.45	32718.35
519.62	33315.19
519.79	33024.96
519.96	33165.39
520.14	33319.87
520.31	32786.22
520.48	33219.22
520.65	33270.72
520.83	33626.48
521.00	33558.60
521.17	33659.24
521.34	33682.65
521.52	33720.10
521.69	33460.30
521.86	33729.46
522.03	33797.34
522.20	34431.62
522.38	34045.43
522.55	34277.15
522.72	34148.42
522.89	33923.72
523.07	34284.17
523.24	34223.31
523.41	34448.00
523.58	34408.22
523.75	35204.00
523.92	34293.53
524.10	34780.36
524.27	35295.28
524.44	35051.86
524.61	34831.85
524.78	35133.78
524.96	34944.20
525.13	35047.18
525.30	35505.93
525.47	35737.64
525.64	35555.08
525.81	35318.68
525.98	35697.85
526.16	35108.04
526.33	35501.25
526.50	35651.04
526.67	35541.03
526.84	35522.31
527.01	35264.85
527.18	35503.59
527.36	35812.54
527.53	35803.17
527.70	36140.21
527.87	35969.35
528.04	36254.90
528.21	36378.95
528.38	36027.87
528.55	36903.23
528.72	36577.89
528.89	36498.31
529.07	36804.92
529.24	36027.87
529.41	36430.44
529.58	36664.49
529.75	36631.72
529.92	36844.71
530.09	36507.68
530.26	36755.77
530.43	37092.81
530.60	36772.16
530.77	37022.59
530.94	37158.34
531.11	37092.81
531.28	37139.62
531.46	36671.51
531.63	37516.45
531.80	37139.62
531.97	37015.57
532.14	37043.66
532.31	37425.17
532.48	37305.80
532.65	37825.40
532.82	37366.65
532.99	37612.41
533.16	37324.52
533.33	37308.14
533.50	37565.60
533.67	37703.69
533.84	37804.33
534.01	38026.68
534.18	37476.66
534.35	38349.68
534.52	37806.67
534.69	37998.60
534.86	38064.13
535.03	37846.46
535.20	38169.46
535.37	38216.27
535.54	38588.41
535.71	38359.04
535.88	38307.55
536.05	38550.96
536.22	38595.43
536.38	38515.86
536.55	38223.29
536.72	38614.16
536.89	38473.73
537.06	38574.37
537.23	38721.82
537.40	38721.82
537.57	38501.81
537.74	38632.88
537.91	39608.89
538.08	39054.18
538.25	38969.92
538.42	39241.42
538.59	39641.65
538.75	38880.98
538.92	38822.47
539.09	39360.79
539.26	39311.64
539.43	39419.30
539.60	39353.77
539.77	39072.90
539.94	39243.76
540.11	39105.67
540.28	39253.12
540.44	39608.89
540.61	39386.54
540.78	39192.27
540.95	39641.65
541.12	39512.92
541.29	39840.60
541.46	39590.16
541.62	39852.30
541.79	39927.20
541.96	39400.58
542.13	39723.57
542.30	39962.31
542.47	39508.24
542.63	39559.73
542.80	40233.81
542.97	40304.02
543.14	40065.29
543.31	40407.01
543.48	40371.90
543.64	40905.54
543.81	40463.18
543.98	40718.30
544.15	40385.94
544.32	40315.73
544.48	40737.02
544.65	41006.19
544.82	40666.81
544.99	40032.52
545.16	40718.30
545.32	40760.43
545.49	41081.08
545.66	40985.12
545.83	41249.60
546.00	41017.89
546.16	41067.04
546.33	40952.35
546.50	40751.07
546.67	41074.06
546.83	40713.62
547.00	41198.11
547.17	41553.87
547.34	41064.70
547.50	40978.10
547.67	41642.81
547.84	41523.44
548.00	41649.83
548.17	41846.44
548.34	41659.20
548.51	41722.39
548.67	41696.64
548.84	41947.08
549.01	41804.31
549.18	41544.51
549.34	41663.88
549.51	41792.61
549.68	42162.41
549.84	41970.49
550.01	41975.17
550.18	41588.98
550.34	42127.30
550.51	41855.80
550.68	41628.77
550.84	41198.11
551.01	42422.21
551.18	41972.83
551.34	42036.02
551.51	42216.24
551.68	42181.13
551.84	42391.78
552.01	42656.26
552.18	42103.90
552.34	42047.72
552.51	42403.49
552.68	42335.61
552.84	42693.71
553.01	42918.40
553.18	42614.13
553.34	41874.52
553.51	42363.70
553.67	42277.10
553.84	42532.22
554.01	42897.34
554.17	42876.27
554.34	42506.47
554.51	42649.24
554.67	43005.00
554.84	43250.76
555.00	42588.39
555.17	42469.02
555.33	43042.45
555.50	42782.65
555.67	42525.19
555.83	42806.06
556.00	43089.26
556.16	43161.82
556.33	43229.69
556.50	42667.97
556.66	43332.68
556.83	43166.50
556.99	42913.72
557.16	43440.34
557.32	43222.67
557.49	43402.89
557.65	43030.75
557.82	42450.30
557.98	42941.81
558.15	43084.58
558.32	43297.57
558.48	43288.21
558.65	43721.21
558.81	43302.25
558.98	43489.49
559.14	43107.99
559.31	43533.96
559.47	43370.13
559.64	43452.05
559.80	43519.92
559.97	43335.02
560.13	43505.88
560.30	43253.10
560.46	43496.52
560.63	43615.88
560.79	43859.30
560.96	43859.30
561.12	43562.05
561.29	44093.35
561.45	43758.66
561.61	43660.35
561.78	43814.83
561.94	43084.58
562.11	43515.24
562.27	43824.19
562.44	43498.86
562.60	44011.43
562.77	44088.67
562.93	43775.04
563.10	44144.84
563.26	43819.51
563.42	43821.85
563.59	43871.00
563.75	43992.71
563.92	43751.63
564.08	44069.95
564.24	44282.94
564.41	44044.20
564.57	43683.76
564.74	43938.88
564.90	43786.74
565.07	44109.74
565.23	44100.37
565.39	43887.39
565.56	43849.94
565.72	43667.37
565.88	43597.16
566.05	43842.92
566.21	43852.28
566.38	43854.62
566.54	43842.92
566.70	44395.28
566.87	44397.62
567.03	44416.35
567.19	44634.02
567.36	44458.48
567.52	44051.22
567.68	44552.10
567.85	44175.27
568.01	44449.11
568.17	44149.53
568.34	44348.47
568.50	44243.15
568.66	43784.40
568.83	44238.47
568.99	43772.70
569.15	43973.98
569.32	44339.11
569.48	43959.94
569.64	44343.79
569.81	44732.32
569.97	44360.17
570.13	44334.43
570.30	44004.41
570.46	44034.84
570.62	44058.24
570.78	44018.46
570.95	43833.55
571.11	44350.81
571.27	44397.62
571.43	44222.08
571.60	44575.50
571.76	44348.47
571.92	44088.67
572.09	44245.49
572.25	44046.54
572.41	44168.25
572.57	44158.89
572.74	45085.74
572.90	44603.59
573.06	44500.61
573.22	44505.29
573.38	44282.94
573.55	44060.58
573.71	44516.99
573.87	44439.75
574.03	43992.71
574.20	44421.03
574.36	44147.18
574.52	44636.36
574.68	44561.46
574.84	44563.80
575.01	44378.90
575.17	44802.53
575.33	44119.10
575.49	44610.61
575.65	45064.67
575.82	44793.17
575.98	44786.15
576.14	44776.79
576.30	44268.89
576.46	44308.68
576.62	44259.53
576.79	44577.84
576.95	43985.69
577.11	44594.23
577.27	44463.16
577.43	44811.90
577.59	44697.21
577.75	44861.05
577.92	44299.32
578.08	44210.38
578.24	44488.90
578.40	44280.60
578.56	44622.31
578.72	44758.06
578.88	44645.72
579.04	44313.36
579.21	44456.14
579.37	44453.79
579.53	44311.02
579.69	44371.88
579.85	44488.90
580.01	44898.50
580.17	44605.93
580.33	45158.30
580.49	44875.09
580.65	44538.05
580.82	44624.65
580.98	44404.64
581.14	44615.29
581.30	45221.49
581.46	44514.65
581.62	44706.57
581.78	44788.49
581.94	44776.79
582.10	44500.61
582.26	44877.43
582.42	44734.66
582.58	44659.76
582.74	44470.18
582.90	44711.25
583.06	44891.48
583.22	44844.66
583.38	44861.05
583.54	44617.63
583.70	44535.71
583.86	44650.40
584.02	44144.84
584.18	44626.99
584.34	44765.09
584.50	44676.15
584.66	44509.97
584.82	44772.11
584.98	45165.32
585.14	45130.21
585.30	44488.90
585.46	44961.69
585.62	44421.03
585.78	44453.79
585.94	44222.08
586.10	44486.56
586.26	44289.96
586.42	44687.85
586.58	45076.38
586.74	44690.19
586.90	44421.03
587.06	44381.24
587.22	44254.85
587.38	44872.75
587.54	45116.17
587.70	44758.06
587.86	44521.67
588.02	45294.05
588.18	44940.63
588.34	44425.71
588.49	44580.18
588.65	44540.39
588.81	44549.76
588.97	44549.76
589.13	44442.09
589.29	44931.26
589.45	44786.15
589.61	44865.73
589.77	45160.64
589.93	45013.18
590.08	45125.53
590.24	45387.67
590.40	45162.98
590.56	44924.24
590.72	45254.26
590.88	44907.86
591.04	45067.02
591.20	45460.23
591.35	44762.75
591.51	45675.55
591.67	45352.56
591.83	45162.98
591.99	44465.50
592.15	44755.72
592.31	45303.41
592.46	45141.91
592.62	45160.64
592.78	45184.04
592.94	45272.98
593.10	44978.07
593.26	45565.55
593.41	44980.42
593.57	45057.65
593.73	45249.58
593.89	45172.34
594.05	44910.20
594.20	44957.01
594.36	45137.23
594.52	45315.11
594.68	44928.92
594.84	44926.58
594.99	45359.58
595.15	45209.79
595.31	45371.28
595.47	45240.21
595.62	45191.06
595.78	45368.94
595.94	45401.71
596.10	45511.72
596.25	45294.05
596.41	45010.84
596.57	45104.46
596.73	45408.73
596.88	44697.21
597.04	45205.11
597.20	45041.27
597.36	45249.58
597.51	45184.04
597.67	45413.41
597.83	45296.39
597.99	45600.66
598.14	45422.78
598.30	45394.69
598.46	45029.57
598.61	45289.37
598.77	45160.64
598.93	45354.90
599.09	45083.40
599.24	45663.85
599.40	45347.88
599.56	44961.69
599.71	44870.41
599.87	45167.66
600.03	44872.75
600.18	45141.91
600.34	45361.92
600.50	45017.86
600.65	45067.02
600.81	45160.64
600.97	45584.27
601.12	45860.46
601.28	45013.18
601.44	44722.96
601.59	45055.31
601.75	44715.93
601.91	45141.91
602.06	45170.00
602.22	45415.76
602.37	44907.86
602.53	45361.92
602.69	45397.03
602.84	44589.55
603.00	45120.85
603.16	45549.17
603.31	45017.86
603.47	44795.51
603.62	45251.92
603.78	45202.77
603.94	45181.70
604.09	45347.88
604.25	45212.13
604.40	45301.07
604.56	45280.00
604.71	44893.82
604.87	44992.12
605.03	45427.46
605.18	44938.29
605.34	45029.57
605.49	44617.63
605.65	44868.07
605.80	45270.64
605.96	45270.64
606.12	44884.45
606.27	45453.20
606.43	45024.89
606.58	44989.78
606.74	44975.73
606.89	44821.26
607.05	44926.58
607.20	45097.44
607.36	45003.82
607.51	44856.37
607.67	45251.92
607.82	45184.04
607.98	44949.99
608.13	44823.60
608.29	44825.94
608.44	44512.31
608.60	44484.22
608.75	44486.56
608.91	44545.08
609.06	44940.63
609.22	44949.99
609.37	44580.18
609.53	44622.31
609.68	44657.42
609.84	44961.69
609.99	44842.32
610.15	44783.81
610.30	44552.10
610.46	44273.57
610.61	44346.13
610.76	44800.19
610.92	44598.91
611.07	44912.54
611.23	44266.55
611.38	44954.67
611.54	44341.45
611.69	44196.34
611.84	44708.91
612.00	44797.85
612.15	44135.48
612.31	44552.10
612.46	44404.64
612.62	44402.30
612.77	44301.66
612.92	44348.47
613.08	44334.43
613.23	43950.58
613.39	44519.33
613.54	43936.54
613.69	44800.19
613.85	44130.80
614.00	44610.61
614.15	44418.69
614.31	44650.40
614.46	44350.81
614.62	44067.61
614.77	44076.97
614.92	44140.16
615.08	44062.93
615.23	44364.85
615.38	43976.33
615.54	43508.22
615.69	43742.27
615.84	43564.39
616.00	43901.43
616.15	44126.12
616.30	43686.10
616.46	43629.93
616.61	43583.12
616.76	43487.15
616.92	43674.40
617.07	43608.86
617.22	43491.83
617.37	43519.92
617.53	43594.82
617.68	44149.53
617.83	43835.89
617.99	43957.60
618.14	43566.73
618.29	43674.40
618.45	43421.62
618.60	43583.12
618.75	43625.25
618.90	43643.97
619.06	44088.67
619.21	43681.42
619.36	43367.79
619.51	43271.82
619.67	43714.19
619.82	43538.65
619.97	44416.35
620.12	43281.19
620.28	43079.90
620.43	42997.98
620.58	43442.68
620.73	43339.70
620.89	43381.83
621.04	44006.75
621.19	43309.27
621.34	43012.02
621.49	43201.61
621.65	43166.50
621.80	43487.15
621.95	43070.54
622.10	42911.38
622.25	42866.91
622.41	42887.98
622.56	42511.15
622.71	43531.62
622.86	43262.46
623.01	43119.69
623.16	43405.23
623.32	43002.66
623.47	42955.85
623.62	43133.73
623.77	42616.47
623.92	42911.38
624.07	42845.85
624.23	42637.54
624.38	42703.07
624.53	42770.95
624.68	42841.17
624.83	42918.40
624.98	42560.30
625.13	42384.76
625.29	42564.98
625.44	42600.09
625.59	42382.42
625.74	42698.39
625.89	42333.27
626.04	41876.86
626.19	42080.49
626.34	42511.15
626.49	42359.02
626.65	42202.20
626.80	42426.89
626.95	41757.50
627.10	41963.46
627.25	42204.54
627.40	41743.45
627.55	42157.73
627.70	41478.97
627.85	41820.69
628.00	41918.99
628.15	42593.07
628.30	41806.65
628.45	42614.13
628.60	42003.25
628.76	42066.45
628.91	41968.15
629.06	42286.46
629.21	42033.68
629.36	41846.44
629.51	41743.45
629.66	42045.38
629.81	41668.56
629.96	41581.96
630.11	41523.44
630.26	41970.49
630.41	42288.80
630.56	41418.12
630.71	41743.45
630.86	41359.61
631.01	41706.01
631.16	41542.17
631.31	41282.37
631.46	40996.82
631.61	41603.02
631.76	40971.08
631.91	41448.55
632.06	41619.41
632.21	41773.88
632.36	41392.37
632.51	41020.23
632.66	41233.22
632.81	40685.53
632.96	41282.37
633.10	40935.97
633.25	40933.63
633.40	41448.55
633.55	41516.42
633.70	41057.68
633.85	40720.64
634.00	41195.77
634.15	40748.73
634.30	40779.15
634.45	41240.24
634.60	40659.79
634.75	41209.81
634.90	40708.94
635.05	41118.53
635.19	41053.00
635.34	41455.57
635.49	41160.66
635.64	40610.64
635.79	39966.99
635.94	40313.39
636.09	40809.58
636.24	40409.35
636.39	40418.71
636.53	40477.22
636.68	40086.36
636.83	40247.85
636.98	40781.49
637.13	39899.11
637.28	40428.07
637.43	40596.59
637.57	40306.37
637.72	40456.16
637.87	40570.85
638.02	40289.98
638.17	39981.03
638.32	39938.90
638.46	40142.53
638.61	39952.94
638.76	39739.96
638.91	39838.26
639.06	39992.73
639.20	40093.38
639.35	40421.05
639.50	40514.67
639.65	40306.37
639.80	39915.50
639.94	40046.57
640.09	39737.62
640.24	39751.66
640.39	39775.06
640.54	39962.31
640.68	39662.72
640.83	40058.27
640.98	39416.96
641.13	39405.26
641.27	39969.33
641.42	39906.13
641.57	40121.46
641.72	39917.84
641.86	39342.06
642.01	39550.37
642.16	39620.59
642.31	39161.84
642.45	39868.69
642.60	39161.84
642.75	39222.70
642.90	39260.15
643.04	39192.27
643.19	39384.19
643.34	39487.18
643.48	39526.97
643.63	39800.81
643.78	39477.82
643.93	39356.11
644.07	38796.72
644.22	38768.63
644.37	38850.55
644.51	39049.50
644.66	39438.03
644.81	39342.06
644.95	39349.09
645.10	39210.99
645.25	39136.10
645.39	39274.19
645.54	39328.02
645.69	39049.50
645.83	38871.62
645.98	38712.46
646.13	38878.64
646.27	39075.24
646.42	39145.46
646.57	38895.02
646.71	38911.41
646.86	38962.90
647.00	39040.14
647.15	39234.40
647.30	38852.89
647.44	38754.59
647.59	38740.55
647.74	38614.16
647.88	38466.70
648.03	38625.86
648.17	38518.20
648.32	38265.42
648.47	38539.26
648.61	38363.72
648.76	38473.73
648.90	38607.14
649.05	38918.43
649.20	38658.63
649.34	38710.12
649.49	38595.43
649.63	38515.86
649.78	38232.65
649.92	38415.21
650.07	38300.53
650.21	38359.04
650.36	38595.43
650.51	38396.49
650.65	38656.29
650.80	38345.00
650.94	38316.91
651.09	38340.32
651.23	38258.40
651.38	38204.56
651.52	38190.52
651.67	38141.37
651.81	38321.59
651.96	37942.42
652.10	38232.65
652.25	37738.80
652.39	38017.32
652.54	37654.54
652.68	38356.70
652.83	37645.18
652.97	38202.22
653.12	38178.82
653.26	37762.20
653.41	38087.54
653.55	38108.60
653.70	37413.46
653.84	37684.97
653.99	37904.98
654.13	37792.63
654.27	37413.46
654.42	37591.34
654.56	37563.26
654.71	37663.90
654.85	37670.92
655.00	37706.03
655.14	37055.36
655.29	37151.32
655.43	37282.39
655.57	37574.96
655.72	37120.90
655.86	36718.32
656.01	36910.25
656.15	36797.90
656.30	37060.04
656.44	37191.11
656.58	36540.44
656.73	36945.36
656.87	37305.80
657.01	36699.60
657.16	36711.30
657.30	36713.64
657.45	36247.88
657.59	36552.15
657.73	36264.26
657.88	36811.95
658.02	36561.51
658.16	36690.24
658.31	36767.48
658.45	36680.88
658.60	36634.06
658.74	36760.45
658.88	36966.42
659.03	36680.88
659.17	36219.79
659.31	36385.97
659.46	36102.76
659.60	36252.56
659.74	36151.91
659.89	36121.49
660.03	36404.69
660.17	36065.31
660.32	35873.39
660.46	36622.36
660.60	36250.22
660.74	36346.18
660.89	35608.91
661.03	35840.62
661.17	36196.38
661.32	35578.48
661.46	35524.65
661.60	35447.41
661.74	35796.15
661.89	36161.28
662.03	36004.46
662.17	35751.68
662.31	35496.56
662.46	35676.79
662.60	35948.29
662.74	35241.45
662.88	35526.99
663.03	35662.74
663.17	35482.52
663.31	35168.89
663.45	35196.98
663.60	35182.93
663.74	35138.46
663.88	35206.34
664.02	34574.39
664.17	35306.98
664.31	34778.02
664.45	34721.85
664.59	35035.48
664.73	34682.06
664.88	34864.62
665.02	34457.37
665.16	34534.60
665.30	34532.26
665.44	34373.11
665.59	34263.10
665.73	34284.17
665.87	34326.30
666.01	33972.88
666.15	34162.46
666.29	34169.48
666.44	34391.83
666.58	34000.96
666.72	34227.99
666.86	34281.83
667.00	34129.69
667.14	33792.65
667.28	33867.55
667.43	33549.24
667.57	33544.56
667.71	33947.13
667.85	33277.74
667.99	33275.40
668.13	33624.14
668.27	33371.36
668.41	33926.07
668.56	33577.33
668.70	33605.41
668.84	33193.48
668.98	32985.17
669.12	33029.64
669.26	33572.64
669.40	32781.54
669.54	32931.34
669.68	33223.90
669.82	33151.35
669.96	33062.41
670.10	32341.52
670.25	32872.82
670.39	32790.91
670.53	32706.65
670.67	32575.58
670.81	32950.06
670.95	32470.25
671.09	32535.79
671.23	32659.84
671.37	32488.98
671.51	32760.48
671.65	32353.23
671.79	31981.08
671.93	32252.58
672.07	32290.03
672.21	32105.13
672.35	31861.71
672.49	31868.73
672.63	31924.91
672.77	31597.23
672.91	31674.47
673.05	31906.18
673.19	31241.47
673.33	31428.71
673.47	31608.93
673.61	31363.18
673.75	31227.43
673.89	31075.29
674.03	30677.40
674.17	31040.18
674.31	31222.75
674.45	30499.52
674.59	31075.29
674.73	30984.01
674.87	31225.09
675.01	30817.83
675.15	30675.06
675.29	30792.09
675.43	30625.91
675.56	30639.95
675.70	30822.51
675.84	29961.20
675.98	29301.17
676.12	30452.71
676.26	29883.96
676.40	30125.04
676.54	29696.72
676.68	29958.86
676.82	29287.12
676.96	29516.50
677.10	29780.98
677.23	29535.22
677.37	29291.80
677.51	29226.27
677.65	29415.85
677.79	29048.39
677.93	28875.19
678.07	28769.86
678.21	28570.92
678.34	28535.81
678.48	28716.03
678.62	28371.97
678.76	28746.46
678.90	28215.16
679.04	28456.23
679.18	28657.52
679.31	28238.56
679.45	28034.94
679.59	27672.15
679.73	27407.67
679.87	27632.36
680.00	27693.22
680.14	27529.38
680.28	27744.71
680.42	27285.97
680.56	27733.01
680.70	27524.70
680.83	27349.16
680.97	27096.38
681.11	26780.41
681.25	26717.22
681.39	26639.98
681.52	26749.98
681.66	27372.57
681.80	26707.85
681.94	26675.09
682.07	26815.52
682.21	26494.86
682.35	26312.30
682.49	26401.24
682.62	26286.56
682.76	25996.33
682.90	26008.03
683.04	26045.48
683.17	25799.73
683.31	26284.22
683.45	26125.06
683.59	25490.77
683.72	25553.97
683.86	25099.90
684.00	25301.19
684.13	25317.57
684.27	25177.14
684.41	25226.29
684.55	25127.99
684.68	24996.92
684.82	24919.68
684.96	24519.45
685.09	24631.80
685.23	24816.70
685.37	24400.08
685.50	24393.06
685.64	24231.57
685.78	24362.64
685.91	24306.46
686.05	24203.48
686.19	23384.29
686.32	23990.49
686.46	23489.62
686.60	23384.29
686.73	23765.80
686.87	23398.34
687.01	23496.64
687.14	23206.41
687.28	23281.31
687.42	22930.23
687.55	22822.56
687.69	22974.70
687.82	23180.67
687.96	23143.22
688.10	22752.35
688.23	22827.24
688.37	22574.47
688.50	22450.42
688.64	22485.53
688.78	22284.24
688.91	22188.28
689.05	21907.41
689.18	22033.80
689.32	21972.95
689.46	22160.19
689.59	22270.20
689.73	21886.35
689.86	21912.10
690.00	21696.77
690.13	21916.78
690.27	21579.74
690.41	21769.32
690.54	21223.98
690.68	20985.24
690.81	21282.49
690.95	20905.66
691.08	20580.33
691.22	20830.77
691.35	20849.49
691.49	20933.75
691.62	21032.05
691.76	20783.96
691.89	20704.38
692.03	20133.29
692.16	20526.50
692.30	20505.43
692.43	20224.57
692.57	20306.49
692.70	20439.90
692.84	19770.51
692.97	19896.89
693.11	19676.88
693.24	19761.14
693.38	19309.42
693.51	19180.69
693.65	19620.71
693.78	19367.93
693.92	19576.24
694.05	19356.23
694.19	19075.37
694.32	19468.58
694.45	19365.59
694.59	18918.55
694.72	18883.44
694.86	18995.79
694.99	18752.37
695.13	18354.48
695.26	18572.15
695.39	18443.42
695.53	18420.02
695.66	18476.19
695.80	18541.72
695.93	18452.78
696.07	17926.16
696.20	18455.12
696.33	18230.43
696.47	18033.83
696.60	17827.86
696.73	17633.60
696.87	17741.26
697.00	17743.60
697.14	17776.37
697.27	17432.31
697.40	17565.72
697.54	17469.76
697.67	17205.28
697.80	17280.18
697.94	17329.33
698.07	16966.54
698.21	16971.22
698.34	16992.29
698.47	17067.19
698.61	16655.25
698.74	16648.23
698.87	16807.39
699.01	16198.85
699.14	16149.70
699.27	16278.43
699.40	16135.65
699.54	16320.56
699.67	15847.77
699.80	16035.01
699.94	15861.81
700.07	15726.06
700.20	15995.22
700.34	15627.76
700.47	15651.16
700.60	15798.62
700.73	16074.80
700.87	15679.25
701.00	15435.83
701.13	15627.76
701.26	15330.51
701.40	15307.10
701.53	15290.72
701.66	15222.84
701.79	15192.42
701.93	14984.11
702.06	14794.53
702.19	14909.21
702.32	14953.68
702.46	14590.90
702.59	15016.88
702.72	14635.37
702.85	14527.71
702.99	14726.65
703.12	14462.17
703.25	14766.44
703.38	14501.96
703.51	14438.76
703.65	14494.94
703.78	14516.00
703.91	14101.73
704.04	14101.73
704.17	13788.10
704.31	13816.18
704.44	14019.81
704.57	13568.09
704.70	13336.37
704.83	13540.00
704.96	13369.14
705.10	13572.77
705.23	13647.66
>>>>>End Processed Spectral Data<<<<<
