SpectraSuite Data File
++++++++++++++++++++++++++++++++++++
Date: Fri Oct 25 10:44:15 EDT 2013
User: price-jones
Dark Spectrum Present: No
Reference Spectrum Present: No
Number of Sampled Component Spectra: 1
Spectrometers: USB2+H05261
Integration Time (usec): 100000 (USB2+H05261)
Spectra Averaged: 1 (USB2+H05261)
Boxcar Smoothing: 0 (USB2+H05261)
Correct for Electrical Dark: No (USB2+H05261)
Strobe/Lamp Enabled: No (USB2+H05261)
Correct for Detector Non-linearity: No (USB2+H05261)
Correct for Stray Light: No (USB2+H05261)
Number of Pixels in Processed Spectrum: 2048
>>>>>Begin Processed Spectral Data<<<<<
365.73	159.16
365.92	159.16
366.12	159.16
366.32	81.92
366.52	23.41
366.72	67.88
366.91	44.47
367.11	14.04
367.31	28.09
367.51	0.00
367.70	39.79
367.90	70.22
368.10	39.79
368.30	88.94
368.49	0.00
368.69	30.43
368.89	0.00
369.09	18.72
369.28	86.60
369.48	16.38
369.68	70.22
369.87	84.26
370.07	156.82
370.27	140.43
370.47	175.54
370.66	425.98
370.86	440.02
371.06	442.36
371.25	430.66
371.45	468.11
371.65	447.04
371.84	442.36
372.04	465.77
372.24	463.43
372.44	442.36
372.63	451.72
372.83	486.83
373.03	557.05
373.22	503.22
373.42	500.87
373.62	592.16
373.81	547.69
374.01	566.41
374.21	533.64
374.40	470.45
374.60	491.51
374.79	533.64
374.99	645.99
375.19	645.99
375.38	543.00
375.58	587.47
375.78	631.94
375.97	561.73
376.17	615.56
376.37	601.52
376.56	678.76
376.76	528.96
376.95	645.99
377.15	620.24
377.35	650.67
377.54	662.37
377.74	601.52
377.93	634.29
378.13	596.84
378.33	727.91
378.52	641.31
378.72	613.22
378.91	648.33
379.11	702.16
379.31	664.71
379.50	641.31
379.70	716.20
379.89	704.50
380.09	744.29
380.28	674.07
380.48	734.93
380.68	748.97
380.87	683.44
381.07	631.94
381.26	688.12
381.46	739.61
381.65	634.29
381.85	655.35
382.04	730.25
382.24	840.25
382.43	681.10
382.63	713.86
382.83	741.95
383.02	741.95
383.22	685.78
383.41	667.05
383.61	697.48
383.80	746.63
384.00	732.59
384.19	734.93
384.39	891.74
384.58	807.48
384.78	854.30
384.97	849.61
385.17	748.97
385.36	835.57
385.56	891.74
385.75	755.99
385.95	940.90
386.14	882.38
386.34	842.59
386.53	868.34
386.72	873.02
386.92	861.32
387.11	849.61
387.31	823.87
387.50	856.64
387.70	807.48
387.89	891.74
388.09	898.77
388.28	929.19
388.48	873.02
388.67	968.98
388.86	903.45
389.06	919.83
389.25	910.47
389.45	964.30
389.64	917.49
389.84	1027.50
390.03	1006.43
390.22	1060.26
390.42	990.05
390.61	1071.97
390.81	1025.15
391.00	1053.24
391.19	1027.50
391.39	1055.58
391.58	1018.13
391.78	950.26
391.97	1022.81
392.16	1057.92
392.36	1013.45
392.55	1001.75
392.75	919.83
392.94	1071.97
393.13	952.60
393.33	973.66
393.52	1034.52
393.71	1181.97
393.91	1078.99
394.10	1071.97
394.29	1071.97
394.49	1100.05
394.68	1163.25
394.88	1275.59
395.07	1247.51
395.26	1224.10
395.46	1158.57
395.65	1235.80
395.84	1207.72
396.04	1249.85
396.23	1172.61
396.42	1097.71
396.62	1207.72
396.81	1210.06
397.00	1181.97
397.19	1254.53
397.39	1331.76
397.58	1303.68
397.77	1345.81
397.97	1423.05
398.16	1418.36
398.35	1493.26
398.55	1514.33
398.74	1434.75
398.93	1619.65
399.12	1537.73
399.32	1430.07
399.51	1551.78
399.70	1521.35
399.90	1434.75
400.09	1631.35
400.28	1703.91
400.47	1554.12
400.67	1668.80
400.86	1593.90
401.05	1577.52
401.24	1577.52
401.44	1687.53
401.63	1746.04
401.82	1739.02
402.01	1699.23
402.21	1680.50
402.40	1741.36
402.59	1739.02
402.78	1809.23
402.97	1699.23
403.17	1785.83
403.36	1736.68
403.55	1870.09
403.74	1844.34
403.93	1813.92
404.13	1905.20
404.32	1811.57
404.51	1842.00
404.70	1961.37
404.89	1872.43
405.09	1973.07
405.28	2047.97
405.47	2022.22
405.66	1937.96
405.85	2015.20
406.05	1975.41
406.24	2005.84
406.43	2038.61
406.62	2085.42
406.81	2148.61
407.00	2057.33
407.20	2064.35
407.39	2017.54
407.58	2157.97
407.77	2076.06
407.96	2310.11
408.15	2139.25
408.34	2225.85
408.54	2202.44
408.73	2228.19
408.92	2284.36
409.11	2392.03
409.30	2401.39
409.49	2235.21
409.68	2289.04
409.87	2239.89
410.07	2209.47
410.26	2406.07
410.45	2370.96
410.64	2340.54
410.83	2506.71
411.02	2558.21
411.21	2569.91
411.40	2492.67
411.59	2647.15
411.78	2668.21
411.98	2534.80
412.17	2656.51
412.36	2541.82
412.55	2640.12
412.74	2848.43
412.93	2693.96
413.12	2691.62
413.31	3075.46
413.50	2813.32
413.69	2766.51
413.88	2897.58
414.07	2956.10
414.26	3070.78
414.45	3023.97
414.64	2883.54
414.83	3063.76
415.02	2993.55
415.22	3089.51
415.41	3176.11
415.60	3108.23
415.79	3089.51
415.98	3185.47
416.17	3201.85
416.36	3246.32
416.55	3363.35
416.74	3229.94
416.93	3145.68
417.12	3206.53
417.31	3232.28
417.50	3215.90
417.69	3471.01
417.88	3431.23
418.07	3365.69
418.26	3412.50
418.45	3435.91
418.64	3588.04
418.83	3513.14
419.02	3503.78
419.21	3569.32
419.39	3550.59
419.58	3562.30
419.77	3569.32
419.96	3630.17
420.15	3768.26
420.34	3665.28
420.53	3775.28
420.72	3700.39
420.91	3822.09
421.10	3768.26
421.29	3768.26
421.48	3733.15
421.67	3845.50
421.86	3810.39
422.05	3770.60
422.24	3709.75
422.43	3770.60
422.61	3859.54
422.80	3819.75
422.99	3854.86
423.18	4007.00
423.37	3927.42
423.56	3880.61
423.75	3887.63
423.94	3826.78
424.13	3878.27
424.32	3831.46
424.50	3948.48
424.69	3976.57
424.88	4138.07
425.07	3995.29
425.26	3798.69
425.45	3885.29
425.64	3878.27
425.83	3990.61
426.01	3927.42
426.20	3985.93
426.39	4025.72
426.58	3955.51
426.77	3889.97
426.96	3892.31
427.15	3918.06
427.33	4007.00
427.52	4159.13
427.71	3997.64
427.90	4098.28
428.09	4121.68
428.28	4124.02
428.46	4358.08
428.65	4194.24
428.84	4203.60
429.03	4259.78
429.22	4191.90
429.40	4067.85
429.59	4182.54
429.78	3875.93
429.97	3822.09
430.16	3953.16
430.34	4091.26
430.53	4088.92
430.72	4194.24
430.91	4107.64
431.10	4381.48
431.28	4533.62
431.47	4610.86
431.66	4566.39
431.85	4519.57
432.03	4664.69
432.22	4706.82
432.41	4535.96
432.60	4706.82
432.79	4655.33
432.97	4760.65
433.16	4601.49
433.35	4561.70
433.54	4720.86
433.72	4683.41
433.91	4690.43
434.10	4798.10
434.28	4702.14
434.47	4788.74
434.66	5001.72
434.85	4910.44
435.03	4945.55
435.22	4856.61
435.41	5114.07
435.59	5078.96
435.78	5125.77
435.97	5163.22
436.16	5214.71
436.34	5060.24
436.53	5144.50
436.72	5142.16
436.90	4983.00
437.09	5069.60
437.28	5039.17
437.46	5240.46
437.65	5200.67
437.84	5203.01
438.02	5231.10
438.21	5177.26
438.40	5132.79
438.58	5366.85
438.77	5444.09
438.96	5366.85
439.14	5298.97
439.33	5596.22
439.52	5568.13
439.70	5490.90
439.89	5584.52
440.08	5664.10
440.26	5687.50
440.45	5750.70
440.63	5743.67
440.82	5905.17
441.01	5839.64
441.19	6148.59
441.38	6059.65
441.57	6024.54
441.75	6164.97
441.94	6263.27
442.12	6228.17
442.31	6368.60
442.50	6354.55
442.68	6324.13
442.87	6289.02
443.05	6300.72
443.24	6392.00
443.43	6410.73
443.61	6445.84
443.80	6586.27
443.98	6345.19
444.17	6270.30
444.35	6661.16
444.54	6431.79
444.73	6677.55
444.91	6443.49
445.10	6354.55
445.28	6469.24
445.47	6551.16
445.65	6401.37
445.84	6354.55
446.02	6663.51
446.21	6497.33
446.39	6487.96
446.58	6630.74
446.77	6628.40
446.95	6483.28
447.14	6607.33
447.32	6864.79
447.51	6700.95
447.69	6733.72
447.88	6698.61
448.06	6710.32
448.25	6705.63
448.43	6740.74
448.62	6693.93
448.80	6675.21
448.99	6937.35
449.17	6801.60
449.36	6876.49
449.54	6700.95
449.73	7007.56
449.91	7016.93
450.10	7070.76
450.28	7192.47
450.46	7211.19
450.65	7344.60
450.83	7321.20
451.02	7232.26
451.20	7225.23
451.39	7194.81
451.57	7063.74
451.76	7131.61
451.94	7187.79
452.13	7042.67
452.31	7136.29
452.49	6993.52
452.68	7061.40
452.86	7173.74
453.05	7351.62
453.23	7454.61
453.42	7382.05
453.60	7197.15
453.78	7576.31
453.97	7412.48
454.15	7442.90
454.34	7265.02
454.52	7590.36
454.70	7311.83
454.89	7665.25
455.07	7627.81
455.26	7571.63
455.44	7847.82
455.62	7868.88
455.81	7719.09
455.99	7822.07
456.17	7782.28
456.36	7798.66
456.54	7873.56
456.73	8035.06
456.91	8217.62
457.09	8060.80
457.28	8161.45
457.46	8028.04
457.64	8184.85
457.83	8119.32
458.01	7957.82
458.19	8336.99
458.38	8051.44
458.56	8334.65
458.74	8128.68
458.93	8280.82
459.11	8224.64
459.29	8234.00
459.48	8245.71
459.66	8231.66
459.84	8304.22
460.03	8589.77
460.21	8514.87
460.39	8430.61
460.57	8390.82
460.76	8418.91
460.94	8472.74
461.12	8439.97
461.31	8685.73
461.49	8479.76
461.67	8599.13
461.85	9001.70
462.04	8737.22
462.22	8954.89
462.40	8751.26
462.59	8901.06
462.77	8779.35
462.95	9004.04
463.13	8957.23
463.32	8800.41
463.50	8978.30
463.68	8919.78
463.86	8919.78
464.05	8800.41
464.23	9015.74
464.41	8924.46
464.59	8800.41
464.78	9156.18
464.96	9165.54
465.14	9102.34
465.32	9158.52
465.50	9270.86
465.69	9420.66
465.87	9004.04
466.05	9184.26
466.23	9041.49
466.41	9158.52
466.60	9568.11
466.78	9039.15
466.96	9210.01
467.14	9284.91
467.32	9479.17
467.51	9563.43
467.69	9179.58
467.87	9589.17
468.05	9455.76
468.23	9184.26
468.41	9479.17
468.60	9320.01
468.78	9558.75
468.96	9369.16
469.14	9694.50
469.32	9666.41
469.50	9612.58
469.69	9617.26
469.87	9881.74
470.05	9738.97
470.23	9823.23
470.41	9701.52
470.59	9937.91
470.77	9907.49
470.95	9914.51
471.14	10054.94
471.32	9813.87
471.50	10289.00
471.68	10235.16
471.86	10312.40
472.04	10169.63
472.22	10445.81
472.40	10249.21
472.58	10204.74
472.77	10253.89
472.95	10408.36
473.13	10817.96
473.31	10490.28
473.49	10560.50
473.67	10593.26
473.85	10581.56
474.03	10817.96
474.21	11052.01
474.39	10888.17
474.57	11066.05
474.75	11061.37
474.93	11325.85
475.12	11047.33
475.30	11236.91
475.48	11094.14
475.66	11176.06
475.84	11077.76
476.02	11290.74
476.20	11232.23
476.38	11569.27
476.56	11843.11
476.74	11946.09
476.92	11552.88
477.10	12065.46
477.28	11899.28
477.46	11955.46
477.64	12175.47
477.82	12301.86
478.00	12650.60
478.18	12360.37
478.36	12643.57
478.54	12528.89
478.72	12538.25
478.90	12889.33
479.08	13137.43
479.26	12966.57
479.44	13327.01
479.62	13280.20
479.80	13348.08
479.98	13238.07
480.16	13673.41
480.34	13610.22
480.52	13963.64
480.70	13685.11
480.88	13680.43
481.06	13888.74
481.24	13973.00
481.41	14010.45
481.59	14466.85
481.77	14384.93
481.95	14382.59
482.13	14623.67
482.31	14539.41
482.49	14658.78
482.67	14726.65
482.85	15082.41
483.03	15332.85
483.21	15386.68
483.39	15288.38
483.57	15253.27
483.74	15344.55
483.92	15398.38
484.10	15363.28
484.28	15709.68
484.46	16236.30
484.64	16346.30
484.82	16042.03
485.00	16283.11
485.18	16358.00
485.35	16294.81
485.53	16046.71
485.71	16212.89
485.89	16587.38
486.07	16505.46
486.25	16393.11
486.43	16886.97
486.61	16870.58
486.78	17202.94
486.96	17469.76
487.14	17530.61
487.32	17734.24
487.50	17837.22
487.68	18038.51
487.85	18338.10
488.03	18115.75
488.21	18562.79
488.39	18654.07
488.57	18754.71
488.75	18838.97
488.92	19023.87
489.10	19049.62
489.28	19246.23
489.46	19580.92
489.64	19590.28
489.81	20130.95
489.99	20109.88
490.17	20280.74
490.35	20262.02
490.53	20208.19
490.70	20514.80
490.88	20503.09
491.06	20922.05
491.24	20821.41
491.41	20751.19
491.59	21116.31
491.77	20814.38
491.95	21022.69
492.13	21177.17
492.30	21357.39
492.48	21680.38
492.66	21546.97
492.84	21741.24
493.01	21893.37
493.19	21776.34
493.37	22106.36
493.54	22008.06
493.72	22665.75
493.90	22314.67
494.08	22878.74
494.25	23358.55
494.43	23136.20
494.61	23225.14
494.79	23644.09
494.96	23482.59
495.14	23171.30
495.32	23658.14
495.49	23683.88
495.67	23843.04
495.85	24025.60
496.02	24463.28
496.20	24507.75
496.38	24266.67
496.55	24425.83
496.73	24692.65
496.91	24510.09
497.09	25097.56
497.26	25008.62
497.44	25036.71
497.62	25378.43
497.79	25460.35
497.97	25008.62
498.14	25357.36
498.32	25329.28
498.50	25383.11
498.67	26157.83
498.85	26410.60
499.03	26398.90
499.20	26176.55
499.38	26405.92
499.56	26085.27
499.73	26560.40
499.91	26384.86
500.08	26384.86
500.26	26398.90
500.44	26480.82
500.61	26752.32
500.79	26539.33
500.97	26843.60
501.14	27140.85
501.32	27110.43
501.49	27246.18
501.67	27311.71
501.84	27491.93
502.02	27468.53
502.20	27571.51
502.37	27894.50
502.55	27770.46
502.72	27901.53
502.90	28016.21
503.07	27999.83
503.25	28088.77
503.43	27709.60
503.60	27850.03
503.78	28053.66
503.95	27765.78
504.13	28189.41
504.30	28556.88
504.48	28669.22
504.65	28938.38
504.83	28929.02
505.01	29343.30
505.18	29174.78
505.36	29546.92
505.53	29621.82
505.71	29504.79
505.88	29589.05
506.06	29448.62
506.23	29553.94
506.41	29741.19
506.58	29530.54
506.76	29556.28
506.93	30562.72
507.11	30005.67
507.28	30031.41
507.46	29886.30
507.63	30251.42
507.81	30038.44
507.98	29996.31
508.16	30293.55
508.33	30319.30
508.50	30658.68
508.68	30642.29
508.85	31358.50
509.03	30962.95
509.20	30976.99
509.38	31061.25
509.55	31161.89
509.73	31239.13
509.90	31175.94
510.08	31611.28
510.25	31559.78
510.42	31585.53
510.60	31524.68
510.77	31714.26
510.95	31831.29
511.12	31819.58
511.30	32048.96
511.47	32350.88
511.64	32381.31
511.82	32582.60
511.99	31611.28
512.17	32233.86
512.34	32603.66
512.51	32554.51
512.69	32608.34
512.86	32659.84
513.04	32891.55
513.21	32629.41
513.38	32891.55
513.56	32884.53
513.73	32797.93
513.90	33041.34
514.08	32465.57
514.25	33039.00
514.43	33446.26
514.60	33502.43
514.77	33371.36
514.95	33727.12
515.12	33483.70
515.29	33408.81
515.47	33963.51
515.64	33811.38
515.81	33574.98
515.99	34115.65
516.16	33874.57
516.33	32975.81
516.51	33699.03
516.68	33514.13
516.85	33352.63
517.03	33694.35
517.20	33954.15
517.37	34621.20
517.54	34799.08
517.72	33757.55
517.89	34190.55
518.06	33944.79
518.24	33769.25
518.41	34284.17
518.58	34316.93
518.75	34232.68
518.93	35000.37
519.10	34806.11
519.27	35079.95
519.45	35075.27
519.62	35164.21
519.79	35234.42
519.96	35604.23
520.14	35658.06
520.31	35199.32
520.48	35505.93
520.65	35285.92
520.83	35779.77
521.00	35999.78
521.17	35625.29
521.34	35784.45
521.52	36046.59
521.69	36023.19
521.86	36170.64
522.03	36704.28
522.20	36182.34
522.38	36273.62
522.55	36439.80
522.72	36004.46
522.89	36067.66
523.07	36594.28
523.24	36825.99
523.41	36807.26
523.58	36620.02
523.75	36914.93
523.92	37167.71
524.10	37219.20
524.27	37209.84
524.44	37537.51
524.61	37060.04
524.78	37844.12
524.96	37469.64
525.13	37249.63
525.30	38068.81
525.47	37806.67
525.64	37450.91
525.81	37640.50
525.98	37429.85
526.16	37289.42
526.33	37109.19
526.50	37820.72
526.67	37223.88
526.84	37425.17
527.01	37830.08
527.18	38094.56
527.36	38195.20
527.53	38382.45
527.70	38478.41
527.87	38204.56
528.04	38019.66
528.21	38560.33
528.38	38511.17
528.55	38976.94
528.72	38789.70
528.89	38792.04
529.07	38663.31
529.24	38714.80
529.41	38586.07
529.58	38651.61
529.75	38705.44
529.92	38738.21
530.09	39100.99
530.26	39138.44
530.43	39274.19
530.60	39089.29
530.77	39026.09
530.94	39786.77
531.11	39400.58
531.28	39316.32
531.46	39779.74
531.63	39225.04
531.80	39096.31
531.97	39274.19
532.14	39578.46
532.31	39278.87
532.48	39218.02
532.65	39454.41
532.82	39779.74
532.99	39681.44
533.16	40257.21
533.33	39641.65
533.50	39824.22
533.67	39966.99
533.84	40161.25
534.01	40369.56
534.18	39695.49
534.35	40250.19
534.52	40058.27
534.69	40617.66
534.86	40758.09
535.03	40409.35
535.20	40627.02
535.37	40816.60
535.54	40882.14
535.71	40252.53
535.88	40629.36
536.05	40395.31
536.22	40844.69
536.38	40378.92
536.55	40971.08
536.72	40697.24
536.89	40734.68
537.06	40875.12
537.23	41045.97
537.40	40889.16
537.57	41347.90
537.74	41282.37
537.91	41476.63
538.08	41310.46
538.25	40893.84
538.42	40980.44
538.59	41427.48
538.75	40971.08
538.92	41048.32
539.09	41359.61
539.26	41317.48
539.43	41287.05
539.60	41219.17
539.77	40699.58
539.94	41408.76
540.11	41006.19
540.28	41649.83
540.44	41771.54
540.61	41464.93
540.78	41469.61
540.95	41579.62
541.12	41757.50
541.29	41598.34
541.46	41673.24
541.62	41970.49
541.79	41914.31
541.96	41614.72
542.13	42153.05
542.30	41961.12
542.47	42415.19
542.63	42017.30
542.80	42270.08
542.97	42693.71
543.14	42887.98
543.31	42487.74
543.48	42478.38
543.64	42756.91
543.81	42857.55
543.98	42834.14
544.15	42979.26
544.32	43168.84
544.48	43079.90
544.65	42576.69
544.82	43143.09
544.99	42862.23
545.16	42920.74
545.32	42576.69
545.49	43353.74
545.66	43129.05
545.83	43047.13
546.00	43505.88
546.16	43349.06
546.33	43051.81
546.50	42843.51
546.67	43203.95
546.83	42674.99
547.00	43320.98
547.17	43374.81
547.34	43278.85
547.50	43353.74
547.67	43456.73
547.84	43470.77
548.00	43679.08
548.17	43943.56
548.34	43772.70
548.51	43821.85
548.67	44060.58
548.84	43824.19
549.01	43599.50
549.18	43798.44
549.34	43765.68
549.51	43988.03
549.68	43906.11
549.84	43803.13
550.01	44296.98
550.18	43697.80
550.34	44222.08
550.51	43950.58
550.68	43917.81
550.84	43540.99
551.01	43828.87
551.18	44430.39
551.34	44306.34
551.51	44411.67
551.68	43976.33
551.84	44428.05
552.01	44219.74
552.18	44486.56
552.34	44126.12
552.51	44308.68
552.68	44203.36
552.84	44779.13
553.01	44790.83
553.18	44624.65
553.34	44430.39
553.51	44184.63
553.67	44437.41
553.84	44875.09
554.01	44222.08
554.17	44856.37
554.34	44917.22
554.51	44645.72
554.67	45359.58
554.84	45017.86
555.00	44854.03
555.17	44311.02
555.33	45010.84
555.50	44725.30
555.67	44655.08
555.83	44933.60
556.00	45055.31
556.16	45272.98
556.33	45141.91
556.50	44949.99
556.66	44673.81
556.83	44690.19
556.99	45436.82
557.16	45404.05
557.32	44921.90
557.49	45272.98
557.65	44336.77
557.82	45062.33
557.98	45064.67
558.15	45144.25
558.32	45659.17
558.48	45020.20
558.65	44978.07
558.81	45120.85
558.98	44851.69
559.14	45029.57
559.31	44907.86
559.47	45415.76
559.64	45993.87
559.80	45439.16
559.97	45595.98
560.13	45263.62
560.30	45200.43
560.46	45177.02
560.63	45638.11
560.79	45736.41
560.96	45502.35
561.12	45219.15
561.29	45549.17
561.45	45624.06
561.61	45530.44
561.78	45301.07
561.94	45626.40
562.11	45251.92
562.27	45308.09
562.44	45649.81
562.60	45705.98
562.77	45846.41
562.93	45979.82
563.10	45925.99
563.26	45113.83
563.42	45382.99
563.59	45504.70
563.75	45661.51
563.92	45808.96
564.08	45961.10
564.24	45778.54
564.41	45708.32
564.57	45893.22
564.74	45713.00
564.90	45595.98
565.07	45769.18
565.23	45642.79
565.39	45755.13
565.56	45698.96
565.72	45612.36
565.88	45865.14
566.05	45144.25
566.21	45710.66
566.38	45783.22
566.54	45151.27
566.70	45610.02
566.87	46192.81
567.03	45794.92
567.19	46461.97
567.36	46192.81
567.52	45949.40
567.68	45612.36
567.85	45998.55
568.01	45982.16
568.17	46148.34
568.34	45804.28
568.50	46099.19
568.66	45734.07
568.83	46244.30
568.99	45722.37
569.15	45532.78
569.32	45785.56
569.48	45947.06
569.64	45947.06
569.81	45694.28
569.97	45923.65
570.13	45839.39
570.30	45853.44
570.46	45474.27
570.62	45439.16
570.78	46241.96
570.95	46066.42
571.11	45675.55
571.27	45584.27
571.43	46206.86
571.60	45647.47
571.76	46202.18
571.92	45970.46
572.09	46082.81
572.25	45844.07
572.41	45715.34
572.57	45886.20
572.74	46649.22
572.90	45914.29
573.06	45883.86
573.22	45991.53
573.38	45886.20
573.55	46188.13
573.71	46490.06
573.87	45956.42
574.03	46047.70
574.20	46089.83
574.36	46246.65
574.52	45993.87
574.68	46153.02
574.84	45954.08
575.01	45830.03
575.17	46258.35
575.33	45801.94
575.49	45418.10
575.65	46260.69
575.82	46232.60
575.98	46071.10
576.14	46270.05
576.30	46321.54
576.46	46272.39
576.62	46232.60
576.79	46178.77
576.95	45806.62
577.11	46370.69
577.27	46148.34
577.43	46246.65
577.59	45818.33
577.75	45968.12
577.92	45343.20
578.08	46087.49
578.24	46246.65
578.40	45727.05
578.56	46253.67
578.72	46089.83
578.88	46457.29
579.04	46120.26
579.21	45799.60
579.37	45986.85
579.53	46363.67
579.69	45703.64
579.85	46234.94
580.01	46305.16
580.17	46024.29
580.33	46447.93
580.49	46436.23
580.65	46457.29
580.82	46667.94
580.98	45846.41
581.14	46087.49
581.30	46443.25
581.46	46181.11
581.62	45867.48
581.78	45867.48
581.94	46766.24
582.10	46021.95
582.26	46403.46
582.42	46131.96
582.58	46593.04
582.74	45958.76
582.90	46637.51
583.06	46337.93
583.22	46485.38
583.38	46628.15
583.54	46490.06
583.70	46305.16
583.86	46550.91
584.02	46050.04
584.18	46288.77
584.34	46115.58
584.50	46234.94
584.66	46078.13
584.82	46527.51
584.98	46380.06
585.14	46143.66
585.30	45984.51
585.46	45965.78
585.62	46209.20
585.78	46258.35
585.94	45684.92
586.10	46457.29
586.26	46019.61
586.42	46799.01
586.58	46733.48
586.74	46431.55
586.90	46422.19
587.06	45844.07
587.22	46012.59
587.38	46333.24
587.54	46256.01
587.70	46614.11
587.86	46574.32
588.02	46490.06
588.18	46305.16
588.34	46230.26
588.49	45610.02
588.65	45275.32
588.81	45432.14
588.97	45722.37
589.13	45647.47
589.29	46115.58
589.45	46190.47
589.61	46019.61
589.77	46340.27
589.93	46080.47
590.08	46141.32
590.24	46387.08
590.40	46354.31
590.56	46571.98
590.72	46305.16
590.88	46302.82
591.04	46412.82
591.20	46644.54
591.35	46340.27
591.51	46944.12
591.67	46103.87
591.83	46707.73
591.99	46480.70
592.15	46028.98
592.31	46382.40
592.46	46246.65
592.62	46553.26
592.78	46323.88
592.94	46583.68
593.10	46480.70
593.26	46499.42
593.41	46293.46
593.57	46302.82
593.73	46677.30
593.89	46115.58
594.05	46272.39
594.20	46337.93
594.36	46686.67
594.52	46373.03
594.68	46536.87
594.84	46234.94
594.99	46635.17
595.15	46461.97
595.31	46225.58
595.47	46246.65
595.62	46380.06
595.78	46305.16
595.94	46642.20
596.10	46600.07
596.25	46583.68
596.41	46696.03
596.57	46536.87
596.73	46602.41
596.88	46244.30
597.04	46220.90
597.20	46761.56
597.36	46260.69
597.51	46665.60
597.67	46958.17
597.83	46461.97
597.99	46710.07
598.14	46574.32
598.30	46370.69
598.46	46616.45
598.61	46218.56
598.77	46160.05
598.93	46129.62
599.09	46604.75
599.24	46951.15
599.40	46649.22
599.56	46623.47
599.71	46597.73
599.87	46415.16
600.03	46616.45
600.18	46490.06
600.34	46469.00
600.50	46335.59
600.65	46351.97
600.81	46625.81
600.97	46597.73
601.12	46440.91
601.28	46438.57
601.44	46396.44
601.59	46167.07
601.75	46574.32
601.91	46019.61
602.06	46050.04
602.22	46431.55
602.37	46337.93
602.53	46569.64
602.69	46747.52
602.84	46272.39
603.00	46241.96
603.16	46188.13
603.31	46131.96
603.47	46373.03
603.62	46270.05
603.78	46459.63
603.94	46103.87
604.09	46932.42
604.25	46279.41
604.40	46595.38
604.56	46571.98
604.71	46546.23
604.87	46192.81
605.03	46543.89
605.18	45893.22
605.34	46302.82
605.49	46220.90
605.65	45813.65
605.80	46298.14
605.96	46272.39
606.12	46330.90
606.27	46328.56
606.43	46319.20
606.58	46380.06
606.74	45862.80
606.89	46223.24
607.05	46499.42
607.20	46307.50
607.36	46028.98
607.51	46110.89
607.67	45804.28
607.82	46162.39
607.98	45848.75
608.13	46120.26
608.29	46066.42
608.44	45813.65
608.60	45645.13
608.75	46059.40
608.91	45937.69
609.06	45626.40
609.22	46185.79
609.37	45649.81
609.53	46351.97
609.68	45787.90
609.84	45694.28
609.99	46078.13
610.15	45752.79
610.30	45532.78
610.46	45542.14
610.61	45998.55
610.76	45757.47
610.92	45963.44
611.07	45764.49
611.23	45694.28
611.38	45476.61
611.54	45757.47
611.69	45514.06
611.84	45516.40
612.00	45380.65
612.15	45570.23
612.31	45727.05
612.46	45387.67
612.62	45684.92
612.77	45879.18
612.92	45560.87
613.08	45380.65
613.23	45331.50
613.39	45453.20
613.54	45574.91
613.69	45518.74
613.85	45432.14
614.00	45378.31
614.15	45324.47
614.31	45287.03
614.46	45603.00
614.62	45471.93
614.77	45291.71
614.92	45390.01
615.08	45528.10
615.23	45256.60
615.38	45160.64
615.54	44849.35
615.69	45022.54
615.84	44732.32
616.00	45048.29
616.15	45256.60
616.30	44734.66
616.46	44914.88
616.61	44968.71
616.76	44713.59
616.92	44477.20
617.07	44601.25
617.22	44481.88
617.37	44355.49
617.53	44917.22
617.68	44727.64
617.83	45401.71
617.99	45113.83
618.14	44854.03
618.29	44498.26
618.45	44343.79
618.60	44584.86
618.75	44296.98
618.90	44648.06
619.06	44802.53
619.21	44683.17
619.36	45198.09
619.51	44739.34
619.67	44619.97
619.82	44547.42
619.97	44788.49
620.12	44292.30
620.28	43711.84
620.43	44399.96
620.58	44680.83
620.73	44205.70
620.89	44425.71
621.04	44250.17
621.19	44098.03
621.34	44552.10
621.49	44156.55
621.65	44390.60
621.80	44121.44
621.95	44079.31
622.10	44224.42
622.25	43480.13
622.41	43688.44
622.56	44332.09
622.71	44233.78
622.86	43985.69
623.01	44304.00
623.16	44355.49
623.32	43831.21
623.47	43945.90
623.62	43725.89
623.77	43171.18
623.92	44025.48
624.07	43587.80
624.23	43571.41
624.38	43555.03
624.53	43447.36
624.68	43634.61
624.83	43407.58
624.98	44304.00
625.13	43164.16
625.29	43793.76
625.44	42857.55
625.59	43019.05
625.74	43084.58
625.89	43089.26
626.04	42836.48
626.19	43550.35
626.34	43744.61
626.49	43515.24
626.65	42932.45
626.80	43419.28
626.95	43033.09
627.10	43372.47
627.25	43215.65
627.40	42941.81
627.55	42586.05
627.70	42759.25
627.85	43054.15
628.00	43058.84
628.15	42817.76
628.30	42906.70
628.45	42543.92
628.60	42817.76
628.76	42810.74
628.91	43107.99
629.06	42492.43
629.21	42249.01
629.36	42560.30
629.51	42494.77
629.66	42272.42
629.81	42527.53
629.96	42639.88
630.11	42562.64
630.26	42579.03
630.41	42639.88
630.56	42639.88
630.71	42300.50
630.86	42185.82
631.01	42054.75
631.16	42459.66
631.31	41806.65
631.46	41757.50
631.61	42405.83
631.76	42021.98
631.91	42120.28
632.06	42230.29
632.21	42333.27
632.36	42244.33
632.51	42075.81
632.66	42038.36
632.81	41764.52
632.96	41977.51
633.10	41769.20
633.25	42080.49
633.40	41806.65
633.55	41965.81
633.70	41834.74
633.85	41867.50
634.00	41818.35
634.15	41516.42
634.30	41432.16
634.45	41471.95
634.60	41865.16
634.75	41415.78
634.90	41813.67
635.05	41366.63
635.19	41193.43
635.34	42059.43
635.49	41373.65
635.64	41420.46
635.79	41244.92
635.94	41525.78
636.09	41764.52
636.24	41289.39
636.39	41249.60
636.53	41209.81
636.68	41137.26
636.83	41165.34
636.98	41752.82
637.13	40947.67
637.28	41301.09
637.43	41483.66
637.57	41254.28
637.72	41315.14
637.87	41202.79
638.02	41170.02
638.17	41130.23
638.32	41474.29
638.46	41111.51
638.61	40989.80
638.76	40928.95
638.91	41303.43
639.06	40964.06
639.20	40697.24
639.35	40758.09
639.50	40877.46
639.65	41060.02
639.80	41432.16
639.94	40891.50
640.09	40809.58
640.24	40456.16
640.39	39873.37
640.54	40060.61
640.68	40531.06
640.83	40488.93
640.98	40685.53
641.13	40079.33
641.27	40582.55
641.42	40514.67
641.57	40325.09
641.72	40629.36
641.86	40318.07
642.01	39789.11
642.16	40233.81
642.31	40229.13
642.45	40287.64
642.60	40065.29
642.75	40076.99
642.90	40355.52
643.04	40287.64
643.19	40168.27
643.34	40013.80
643.48	39681.44
643.63	40088.70
643.78	39386.54
643.93	40084.01
644.07	40240.83
644.22	39983.37
644.37	39690.80
644.51	40257.21
644.66	40275.94
644.81	39861.66
644.95	40318.07
645.10	40095.72
645.25	39452.07
645.39	40053.59
645.54	40245.51
645.69	39445.05
645.83	39845.28
645.98	39941.24
646.13	39370.15
646.27	39983.37
646.42	39915.50
646.57	39718.89
646.71	39423.98
646.86	39505.90
647.00	39548.03
647.15	39349.09
647.30	39398.24
647.44	39756.34
647.59	39681.44
647.74	39189.93
647.88	39496.54
648.03	39253.12
648.17	39337.38
648.32	39494.20
648.47	39152.48
648.61	39323.34
648.76	38635.22
648.90	39288.23
649.05	39695.49
649.20	39241.42
649.34	39040.14
649.49	39100.99
649.63	39201.63
649.78	38923.11
649.92	39454.41
650.07	39456.75
650.21	38829.49
650.36	38562.67
650.51	38693.74
650.65	39129.08
650.80	39583.14
650.94	39288.23
651.09	39313.98
651.23	38993.32
651.38	39150.14
651.52	38476.07
651.67	38763.95
651.81	38658.63
651.96	38705.44
652.10	38345.00
652.25	38550.96
652.39	38923.11
652.54	38756.93
652.68	38546.28
652.83	38316.91
652.97	38616.50
653.12	38602.46
653.26	38000.94
653.41	38602.46
653.55	38305.21
653.70	38443.30
653.84	38607.14
653.99	38412.87
654.13	38565.01
654.27	37921.36
654.42	38146.05
654.56	37804.33
654.71	38466.70
654.85	38052.43
655.00	37661.56
655.14	37612.41
655.29	37975.19
655.43	37715.39
655.57	37640.50
655.72	37731.78
655.86	37532.83
656.01	37352.61
656.15	37050.68
656.30	37315.16
656.44	37397.08
656.58	37104.51
656.73	37645.18
656.87	37778.59
657.01	37598.37
657.16	37792.63
657.30	37525.81
657.45	37640.50
657.59	37666.24
657.73	37596.03
657.88	37544.53
658.02	37647.52
658.16	37860.51
658.31	37680.28
658.45	37352.61
658.60	37469.64
658.74	37282.39
658.88	37635.81
659.03	37158.34
659.17	36840.03
659.31	36886.84
659.46	37230.90
659.60	37268.35
659.74	36854.08
659.89	37216.86
660.03	37043.66
660.17	36673.85
660.32	36645.77
660.46	36943.02
660.60	36374.27
660.74	36542.78
660.89	36741.73
661.03	36556.83
661.17	36339.16
661.32	36154.26
661.46	36580.23
661.60	36512.36
661.74	36493.63
661.89	36388.31
662.03	36348.52
662.17	36334.48
662.31	36020.84
662.46	36156.60
662.60	36397.67
662.74	36261.92
662.88	36072.34
663.03	35587.85
663.17	35803.17
663.31	35754.02
663.45	35775.09
663.60	35566.78
663.74	35655.72
663.88	35793.81
664.02	35674.45
664.17	35974.03
664.31	35309.32
664.45	35278.89
664.59	35489.54
664.73	35473.16
664.88	35655.72
665.02	35082.29
665.16	35491.88
665.30	35213.36
665.44	34981.65
665.59	34866.96
665.73	34820.15
665.87	34848.24
666.01	35152.51
666.15	34951.22
666.29	34960.58
666.44	35012.07
666.58	34588.44
666.72	34848.24
666.86	34824.83
667.00	34607.16
667.14	34288.85
667.28	34139.05
667.43	34134.37
667.57	34267.78
667.71	34171.82
667.85	34443.32
667.99	33968.19
668.13	33935.43
668.27	34277.15
668.41	34347.36
668.56	33773.93
668.70	34389.49
668.84	33703.71
668.98	33652.22
669.12	33701.37
669.26	33579.67
669.40	33078.79
669.54	33411.15
669.68	33476.68
669.82	33216.88
669.96	32975.81
670.10	33570.30
670.25	33284.76
670.39	33235.61
670.53	32959.42
670.67	33134.96
670.81	33149.01
670.95	32877.51
671.09	32680.90
671.23	32896.23
671.37	32797.93
671.51	32697.28
671.65	32615.37
671.79	32505.36
671.93	32446.85
672.07	33034.32
672.21	32634.09
672.35	32385.99
672.49	32540.47
672.63	32584.94
672.77	32257.26
672.91	32460.89
673.05	32388.33
673.19	32123.85
673.33	31850.01
673.47	31969.38
673.61	32006.83
673.75	31913.20
673.89	31475.52
674.03	31241.47
674.17	31557.44
674.31	31489.57
674.45	31660.43
674.59	31461.48
674.73	31594.89
674.87	31344.45
675.01	30932.52
675.15	30803.79
675.29	31246.15
675.43	31152.53
675.56	31182.96
675.70	30724.21
675.84	30707.83
675.98	29654.59
676.12	30710.17
676.26	30096.95
676.40	30267.81
676.54	30536.97
676.68	30242.06
676.82	30029.07
676.96	30155.46
677.10	30052.48
677.23	30118.01
677.37	29954.18
677.51	29563.31
677.65	29376.06
677.79	29275.42
677.93	28982.85
678.07	29708.42
678.21	29043.71
678.34	29359.68
678.48	29060.09
678.62	28699.65
678.76	28669.22
678.90	28079.41
679.04	28350.91
679.18	28573.26
679.31	28180.05
679.45	28177.71
679.59	28056.00
679.73	27924.93
679.87	28233.88
680.00	27665.13
680.14	27859.40
680.28	28013.87
680.42	28027.92
680.56	27821.95
680.70	27513.00
680.83	27580.87
680.97	27707.26
681.11	27702.58
681.25	27236.81
681.39	27150.21
681.52	27445.12
681.66	27009.78
681.80	27168.94
681.94	26972.33
682.07	27365.54
682.21	26738.28
682.35	26656.36
682.49	26843.60
682.62	26705.51
682.76	26546.36
682.90	26216.34
683.04	26134.42
683.17	26221.02
683.31	26150.81
683.45	25802.07
683.59	25802.07
683.72	25589.08
683.86	25350.34
684.00	25523.54
684.13	25802.07
684.27	25415.88
684.41	25373.75
684.55	25074.16
684.68	25118.63
684.82	25184.16
684.96	25586.74
685.09	24690.31
685.23	24765.21
685.37	24809.68
685.50	24781.59
685.64	24350.93
685.78	24690.31
685.91	24699.67
686.05	24212.84
686.19	24147.31
686.32	24182.42
686.46	23585.58
686.60	23293.01
686.73	23351.52
686.87	23374.93
687.01	23119.81
687.14	23171.30
687.28	23070.66
687.42	23393.65
687.55	22998.10
687.69	23580.90
687.82	23042.57
687.96	23206.41
688.10	23173.64
688.23	22684.47
688.37	22778.09
688.50	22630.64
688.64	22497.23
688.78	22703.20
688.91	22366.16
689.05	22705.54
689.18	22338.07
689.32	22059.55
689.46	21937.84
689.59	22211.68
689.73	21965.93
689.86	22361.48
690.00	21935.50
690.13	21696.77
690.27	21757.62
690.41	21734.21
690.54	21245.04
690.68	21092.91
690.81	21102.27
690.95	21067.16
691.08	21142.06
691.22	21305.90
691.35	21465.05
691.49	21008.65
691.62	21165.46
691.76	20987.58
691.89	20643.52
692.03	20552.24
692.16	20484.37
692.30	20435.22
692.43	20552.24
692.57	20049.03
692.70	20105.20
692.84	20217.55
692.97	19831.36
693.11	20060.73
693.24	19932.00
693.38	19922.64
693.51	19559.86
693.65	19772.85
693.78	19810.29
693.92	19988.18
694.05	19316.44
694.19	19452.19
694.32	19358.57
694.45	18934.93
694.59	18948.98
694.72	18934.93
694.86	19115.16
694.99	18705.56
695.13	18883.44
695.26	18485.55
695.39	18801.52
695.53	18782.80
695.66	18806.20
695.80	18808.54
695.93	18630.66
696.07	18373.21
696.20	18099.36
696.33	18244.48
696.47	18267.88
696.60	18302.99
696.73	17757.64
696.87	17769.35
697.00	17902.76
697.14	18008.08
697.27	17502.53
697.40	17610.19
697.54	17928.50
697.67	17434.65
697.80	17418.27
697.94	16973.56
698.07	17144.42
698.21	17216.98
698.34	17174.85
698.47	17003.99
698.61	16884.62
698.74	16758.24
698.87	16620.14
699.01	16578.01
699.14	16669.30
699.27	16365.03
699.40	16559.29
699.54	16212.89
699.67	16091.18
699.80	16245.66
699.94	16079.48
700.07	16327.58
700.20	16079.48
700.34	16025.65
700.47	16102.89
700.60	15915.64
700.73	16091.18
700.87	15859.47
701.00	15573.92
701.13	15714.36
701.26	15576.27
701.40	15360.94
701.53	15445.20
701.66	15419.45
701.79	15103.48
701.93	15147.95
702.06	15091.77
702.19	15009.86
702.32	14941.98
702.46	14846.02
702.59	14733.67
702.72	14813.25
702.85	14785.16
702.99	14736.01
703.12	14569.83
703.25	14618.99
703.38	14314.72
703.51	14398.98
703.65	14450.47
703.78	14506.64
703.91	14197.69
704.04	14150.88
704.17	14253.86
704.31	14125.13
704.44	13987.04
704.57	14047.90
704.70	14005.77
704.83	13921.51
704.96	13891.08
705.10	13783.41
705.23	13762.35
>>>>>End Processed Spectral Data<<<<<
