SpectraSuite Data File
++++++++++++++++++++++++++++++++++++
Date: Fri Oct 25 11:34:20 EDT 2013
User: price-jones
Dark Spectrum Present: No
Reference Spectrum Present: No
Number of Sampled Component Spectra: 1
Spectrometers: USB2+H05261
Integration Time (usec): 100000 (USB2+H05261)
Spectra Averaged: 1 (USB2+H05261)
Boxcar Smoothing: 0 (USB2+H05261)
Correct for Electrical Dark: No (USB2+H05261)
Strobe/Lamp Enabled: No (USB2+H05261)
Correct for Detector Non-linearity: No (USB2+H05261)
Correct for Stray Light: No (USB2+H05261)
Number of Pixels in Processed Spectrum: 2048
>>>>>Begin Processed Spectral Data<<<<<
365.73	322.99
365.92	322.99
366.12	322.99
366.32	184.90
366.52	227.03
366.72	175.54
366.91	173.20
367.11	255.12
367.31	191.92
367.51	227.03
367.70	142.77
367.90	241.08
368.10	212.99
368.30	159.16
368.49	198.95
368.69	212.99
368.89	266.82
369.09	198.95
369.28	210.65
369.48	175.54
369.68	220.01
369.87	229.37
370.07	203.63
370.27	276.18
370.47	313.63
370.66	463.43
370.86	517.26
371.06	538.32
371.25	557.05
371.45	566.41
371.65	610.88
371.84	496.19
372.04	545.34
372.24	587.47
372.44	667.05
372.63	550.03
372.83	517.26
373.03	624.92
373.22	610.88
373.42	641.31
373.62	678.76
373.81	627.26
374.01	662.37
374.21	683.44
374.40	638.97
374.60	603.86
374.79	599.18
374.99	587.47
375.19	622.58
375.38	660.03
375.58	648.33
375.78	683.44
375.97	704.50
376.17	594.50
376.37	660.03
376.56	648.33
376.76	695.14
376.95	655.35
377.15	638.97
377.35	655.35
377.54	706.84
377.74	702.16
377.93	610.88
378.13	692.80
378.33	706.84
378.52	732.59
378.72	732.59
378.91	727.91
379.11	725.57
379.31	688.12
379.50	732.59
379.70	748.97
379.89	723.23
380.09	683.44
380.28	753.65
380.48	706.84
380.68	697.48
380.87	697.48
381.07	723.23
381.26	727.91
381.46	755.99
381.65	664.71
381.85	755.99
382.04	711.52
382.24	800.46
382.43	741.95
382.63	798.12
382.83	741.95
383.02	777.06
383.22	875.36
383.41	779.40
383.61	858.98
383.80	849.61
384.00	737.27
384.19	812.17
384.39	828.55
384.58	758.33
384.78	851.96
384.97	887.06
385.17	812.17
385.36	816.85
385.56	798.12
385.75	805.14
385.95	844.93
386.14	884.72
386.34	814.51
386.53	809.83
386.72	840.25
386.92	887.06
387.11	910.47
387.31	877.70
387.50	833.23
387.70	873.02
387.89	891.74
388.09	858.98
388.28	910.47
388.48	954.94
388.67	971.32
388.86	915.15
389.06	917.49
389.25	919.83
389.45	929.19
389.64	896.43
389.84	983.02
390.03	919.83
390.22	959.62
390.42	999.41
390.61	959.62
390.81	858.98
391.00	931.53
391.19	1004.09
391.39	1004.09
391.58	1027.50
391.78	894.08
391.97	1015.79
392.16	1011.11
392.36	1053.24
392.55	1046.22
392.75	1078.99
392.94	1086.01
393.13	1107.07
393.33	1043.88
393.52	1011.11
393.71	1067.28
393.91	1090.69
394.10	1104.73
394.29	1074.31
394.49	997.07
394.68	1153.88
394.88	1100.05
395.07	1008.77
395.26	1135.16
395.46	1165.59
395.65	1067.28
395.84	1111.75
396.04	1270.91
396.23	1165.59
396.42	1153.88
396.62	1093.03
396.81	1231.12
397.00	1172.61
397.19	1198.35
397.39	1212.40
397.58	1196.01
397.77	1196.01
397.97	1235.80
398.16	1179.63
398.35	1341.13
398.55	1121.12
398.74	1282.61
398.93	1364.53
399.12	1343.47
399.32	1226.44
399.51	1331.76
399.70	1294.32
399.90	1186.65
400.09	1413.68
400.28	1401.98
400.47	1371.55
400.67	1352.83
400.86	1411.34
401.05	1301.34
401.24	1376.24
401.44	1453.47
401.63	1373.89
401.82	1320.06
402.01	1355.17
402.21	1474.54
402.40	1460.49
402.59	1378.58
402.78	1481.56
402.97	1502.62
403.17	1439.43
403.36	1481.56
403.55	1521.35
403.74	1638.38
403.93	1551.78
404.13	1579.86
404.32	1568.16
404.51	1631.35
404.70	1577.52
404.89	1455.81
405.09	1614.97
405.28	1664.12
405.47	1596.25
405.66	1675.82
405.85	1671.14
406.05	1743.70
406.24	1680.50
406.43	1687.53
406.62	1795.19
406.81	1657.10
407.00	1673.48
407.20	1689.87
407.39	1748.38
407.58	1823.28
407.77	1879.45
407.96	1823.28
408.15	1973.07
408.34	1937.96
408.54	1881.79
408.73	1802.21
408.92	1949.67
409.11	1816.26
409.30	1949.67
409.49	1966.05
409.68	1989.46
409.87	1893.49
410.07	2008.18
410.26	1930.94
410.45	1963.71
410.64	1954.35
410.83	2062.01
411.02	2078.40
411.21	2076.06
411.40	2141.59
411.59	2125.21
411.78	2165.00
411.98	2183.72
412.17	2188.40
412.36	2270.32
412.55	2181.38
412.74	2251.60
412.93	2291.38
413.12	2230.53
413.31	2392.03
413.50	2190.74
413.69	2270.32
413.88	2436.50
414.07	2331.17
414.26	2396.71
414.45	2401.39
414.64	2410.75
414.83	2424.80
415.02	2499.69
415.22	2504.37
415.41	2464.58
415.60	2530.12
415.79	2668.21
415.98	2696.30
416.17	2621.40
416.36	2677.57
416.55	2677.57
416.74	2747.79
416.93	2663.53
417.12	2890.56
417.31	2726.72
417.50	2710.34
417.69	2918.65
417.88	2897.58
418.07	2925.67
418.26	2911.63
418.45	2839.07
418.64	3054.40
418.83	2897.58
419.02	2925.67
419.21	2984.18
419.39	2928.01
419.58	3061.42
419.77	3014.61
419.96	3038.02
420.15	2932.69
420.34	3145.68
420.53	3014.61
420.72	3028.65
420.91	3075.46
421.10	3152.70
421.29	3225.26
421.48	3133.98
421.67	3227.60
421.86	3180.79
422.05	3185.47
422.24	3220.58
422.43	3363.35
422.61	3323.56
422.80	3220.58
422.99	3279.09
423.18	3323.56
423.37	3391.44
423.56	3330.58
423.75	3454.63
423.94	3215.90
424.13	3225.26
424.32	3218.24
424.50	3344.63
424.69	3351.65
424.88	3328.24
425.07	3166.74
425.26	3330.58
425.45	3225.26
425.64	3309.52
425.83	3363.35
426.01	3393.78
426.20	3421.86
426.39	3370.37
426.58	3346.97
426.77	3424.20
426.96	3531.87
427.15	3492.08
427.33	3595.06
427.52	3492.08
427.71	3459.31
427.90	3501.44
428.09	3433.57
428.28	3480.38
428.46	3517.83
428.65	3527.19
428.84	3686.34
429.03	3569.32
429.22	3531.87
429.40	3606.77
429.59	3658.26
429.78	3630.17
429.97	3499.10
430.16	3602.08
430.34	3770.60
430.53	3719.11
430.72	3772.94
430.91	3880.61
431.10	3695.71
431.28	3866.56
431.47	3904.01
431.66	3985.93
431.85	3911.04
432.03	3997.64
432.22	3955.51
432.41	4046.79
432.60	4014.02
432.79	3927.42
432.97	3953.16
433.16	3997.64
433.35	3904.01
433.54	4117.00
433.72	4030.40
433.91	4109.98
434.10	3911.04
434.28	4079.55
434.47	4180.20
434.66	4159.13
434.85	4198.92
435.03	4290.20
435.22	4234.03
435.41	4196.58
435.59	4107.64
435.78	4198.92
435.97	4341.69
436.16	4470.42
436.34	4234.03
436.53	4372.12
436.72	4454.04
436.90	4397.87
437.09	4346.37
437.28	4124.02
437.46	4280.84
437.65	4383.82
437.84	4432.97
438.02	4561.70
438.21	4418.93
438.40	4407.23
438.58	4676.39
438.77	4596.81
438.96	4629.58
439.14	4613.20
439.33	4870.65
439.52	4823.84
439.70	4828.53
439.89	4791.08
440.08	4842.57
440.26	4950.23
440.45	4702.14
440.63	5071.94
440.82	5095.35
441.01	4812.14
441.19	5083.64
441.38	5088.32
441.57	5013.43
441.75	5090.67
441.94	5259.18
442.12	5210.03
442.31	5296.63
442.50	5254.50
442.68	5343.44
442.87	5184.29
443.05	5331.74
443.24	5394.93
443.43	5390.25
443.61	5380.89
443.80	5481.53
443.98	5329.40
444.17	5139.82
444.35	5418.34
444.54	5586.86
444.73	5338.76
444.91	5481.53
445.10	5341.10
445.28	5507.28
445.47	5488.56
445.65	5556.43
445.84	5472.17
446.02	5589.20
446.21	5509.62
446.39	5631.33
446.58	5479.19
446.77	5617.29
446.95	5441.75
447.14	5657.07
447.32	5750.70
447.51	5518.98
447.69	5460.47
447.88	5678.14
448.06	5504.94
448.25	5891.13
448.43	5563.45
448.62	5823.25
448.80	5621.97
448.99	5764.74
449.17	5645.37
449.36	5724.95
449.54	5776.44
449.73	5874.74
449.91	5820.91
450.10	5743.67
450.28	5888.79
450.46	6026.88
450.65	5956.66
450.83	5895.81
451.02	5996.45
451.20	6029.22
451.39	5959.00
451.57	6005.81
451.76	5895.81
451.94	6015.18
452.13	5984.75
452.31	5942.62
452.49	5900.49
452.68	6101.78
452.86	6134.54
453.05	6314.77
453.23	6108.80
453.42	6186.04
453.60	6218.80
453.78	6193.06
453.97	6090.07
454.15	6272.64
454.34	6228.17
454.52	6246.89
454.70	6296.04
454.89	6410.73
455.07	6345.19
455.26	6345.19
455.44	6375.62
455.62	6436.47
455.81	6342.85
455.99	6567.54
456.17	6539.46
456.36	6532.44
456.54	6684.57
456.73	6443.49
456.91	6815.64
457.09	6752.45
457.28	6848.41
457.46	6745.42
457.64	6874.15
457.83	6977.14
458.01	6738.40
458.19	7087.14
458.38	6956.07
458.56	7098.84
458.74	6998.20
458.93	6935.01
459.11	7159.70
459.29	7129.27
459.48	7150.34
459.66	7129.27
459.84	7117.57
460.03	7194.81
460.21	7255.66
460.39	7166.72
460.57	7171.40
460.76	7213.53
460.94	7391.41
461.12	7459.29
461.31	7131.61
461.49	7218.21
461.67	7253.32
461.85	7515.46
462.04	7274.38
462.22	7817.39
462.40	7506.10
462.59	7520.14
462.77	7396.09
462.95	7405.46
463.13	7585.68
463.32	7557.59
463.50	7492.05
463.68	7733.13
463.86	7698.02
464.05	7623.12
464.23	7611.42
464.41	7948.46
464.59	7508.44
464.78	7918.03
464.96	7749.51
465.14	7875.90
465.32	7939.10
465.50	7786.96
465.69	7878.24
465.87	7887.61
466.05	7903.99
466.23	7906.33
466.41	7981.23
466.60	8098.25
466.78	7761.22
466.96	7967.18
467.14	8086.55
467.32	7896.97
467.51	8184.85
467.69	7943.78
467.87	7969.52
468.05	8203.58
468.23	8168.47
468.41	8149.75
468.60	8140.38
468.78	8266.77
468.96	8126.34
469.14	8407.20
469.32	8432.95
469.50	8119.32
469.69	8292.52
469.87	8430.61
470.05	8421.25
470.23	8519.55
470.41	8554.66
470.59	8617.85
470.77	8479.76
470.95	8683.39
471.14	8748.92
471.32	8545.30
471.50	8512.53
471.68	8725.52
471.86	8931.48
472.04	8814.46
472.22	8940.85
472.40	8865.95
472.58	8879.99
472.77	9125.75
472.95	9263.84
473.13	9245.12
473.31	9294.27
473.49	9020.42
473.67	9128.09
473.85	9135.11
474.03	9509.60
474.21	9364.48
474.39	9420.66
474.57	9362.14
474.75	9710.88
474.93	9757.69
475.12	9748.33
475.30	9589.17
475.48	9617.26
475.66	9764.72
475.84	9802.16
476.02	9926.21
476.20	10036.22
476.38	10029.20
476.56	10230.48
476.74	10031.54
476.92	10230.48
477.10	10054.94
477.28	10211.76
477.46	10298.36
477.64	10464.54
477.82	10623.69
478.00	10860.09
478.18	10712.63
478.36	10668.16
478.54	10902.22
478.72	11084.78
478.90	11262.66
479.08	11047.33
479.26	11351.60
479.44	11241.59
479.62	11281.38
479.80	11562.25
479.98	11606.72
480.16	11941.41
480.34	11758.85
480.52	11978.86
480.70	11967.16
480.88	11789.28
481.06	11899.28
481.24	11913.33
481.41	12154.40
481.59	12222.28
481.77	12341.64
481.95	12463.35
482.13	12446.97
482.31	12573.36
482.49	12954.87
482.67	12905.71
482.85	13102.32
483.03	13060.19
483.21	13235.73
483.39	13511.91
483.57	13160.83
483.74	13296.58
483.92	13561.06
484.10	13408.93
484.28	13958.96
484.46	14078.32
484.64	14225.78
484.82	14031.51
485.00	14085.34
485.18	14352.16
485.35	14609.62
485.53	14588.56
485.71	14544.09
485.89	15091.77
486.07	14532.39
486.25	14941.98
486.43	15185.40
486.61	14864.74
486.78	15389.02
486.96	15293.06
487.14	15555.20
487.32	15791.59
487.50	15922.66
487.68	15995.22
487.85	16262.04
488.03	16170.76
488.21	16533.54
488.39	16493.76
488.57	16416.52
488.75	16468.01
488.92	17025.06
489.10	17191.23
489.28	17123.36
489.46	17156.13
489.64	17057.82
489.81	17635.94
489.99	17530.61
490.17	17748.28
490.35	17982.34
490.53	17841.90
490.70	18092.34
490.88	18176.60
491.06	18333.42
491.24	18445.76
491.41	18396.61
491.59	18581.51
491.77	18724.29
491.95	18588.53
492.13	18888.12
492.30	18899.83
492.48	19159.63
492.66	19346.87
492.84	19253.25
493.01	19463.90
493.19	19419.42
493.37	19700.29
493.54	19454.53
493.72	19805.61
493.90	20072.43
494.08	20027.96
494.25	20348.62
494.43	20257.34
494.61	20290.10
494.79	20666.93
494.96	20306.49
495.14	20776.94
495.32	20945.45
495.49	21111.63
495.67	20985.24
495.85	21270.79
496.02	21373.77
496.20	21532.93
496.38	21851.24
496.55	21986.99
496.73	22581.49
496.91	21986.99
497.09	22043.17
497.26	22377.86
497.44	22228.07
497.62	22600.21
497.79	22878.74
497.97	22380.20
498.14	22885.76
498.32	22635.32
498.50	22892.78
498.67	22991.08
498.85	23075.34
499.03	23147.90
499.20	23314.08
499.38	23578.56
499.56	23887.51
499.73	23681.54
499.91	24011.56
500.08	24217.52
500.26	23744.73
500.44	23950.70
500.61	23939.00
500.79	24058.37
500.97	24119.22
501.14	24395.40
501.32	24491.37
501.49	24453.92
501.67	24250.29
501.84	25006.28
502.02	24840.11
502.20	24840.11
502.37	24545.20
502.55	25118.63
502.72	25104.59
502.90	25127.99
503.07	24760.53
503.25	25387.79
503.43	24992.24
503.60	25488.43
503.78	25443.96
503.95	25406.52
504.13	25743.55
504.30	25816.11
504.48	25766.96
504.65	25951.86
504.83	26188.25
505.01	26103.99
505.18	25951.86
505.36	26639.98
505.53	26462.10
505.71	26455.08
505.88	26625.93
506.06	26319.32
506.23	26815.52
506.41	26878.71
506.58	27012.12
506.76	26759.34
506.93	26841.26
507.11	27365.54
507.28	27424.06
507.46	27269.58
507.63	27168.94
507.81	27639.39
507.98	27426.40
508.16	27227.45
508.33	27749.39
508.50	27644.07
508.68	27868.76
508.85	28191.75
509.03	28053.66
509.20	28135.58
509.38	28364.95
509.55	28203.46
509.73	28332.18
509.90	28744.12
510.08	28573.26
510.25	28474.96
510.42	28304.10
510.60	29085.84
510.77	28760.50
510.95	29074.13
511.12	28940.72
511.30	29193.50
511.47	29078.82
511.64	29071.79
511.82	29469.69
511.99	29296.49
512.17	29350.32
512.34	29446.28
512.51	29919.07
512.69	29916.73
512.86	29958.86
513.04	30232.70
513.21	30017.37
513.38	29944.81
513.56	30089.93
513.73	29951.84
513.90	30251.42
514.08	30054.82
514.25	30700.81
514.43	30717.19
514.60	30352.07
514.77	30433.99
514.95	30719.53
515.12	30258.45
515.29	30153.12
515.47	31000.40
515.64	31159.55
515.81	30850.60
515.99	31030.82
516.16	31510.63
516.33	31108.06
516.51	31295.30
516.68	31215.72
516.85	31264.88
517.03	31615.96
517.20	31798.52
517.37	31424.03
517.54	32128.53
517.72	31885.12
517.89	31344.45
518.06	31992.78
518.24	32201.09
518.41	31840.65
518.58	32170.66
518.75	31854.69
518.93	32259.60
519.10	32194.07
519.27	32156.62
519.45	32800.27
519.62	32339.18
519.79	32627.07
519.96	32737.07
520.14	32561.53
520.31	32540.47
520.48	32875.16
520.65	32854.10
520.83	33535.20
521.00	33373.70
521.17	33167.73
521.34	32919.63
521.52	33748.18
521.69	33776.27
521.86	33851.17
522.03	33406.47
522.20	33837.12
522.38	33851.17
522.55	34300.55
522.72	33923.72
522.89	34183.52
523.07	34242.04
523.24	33771.59
523.41	34059.48
523.58	33989.26
523.75	34796.74
523.92	34146.08
524.10	34361.40
524.27	34452.69
524.44	34354.38
524.61	34756.96
524.78	34672.70
524.96	34766.32
525.13	34937.18
525.30	34909.09
525.47	35058.88
525.64	35187.61
525.81	35180.59
525.98	34925.47
526.16	34614.18
526.33	35133.78
526.50	35250.81
526.67	35166.55
526.84	35253.15
527.01	35262.51
527.18	35641.68
527.36	35861.69
527.53	35646.36
527.70	36205.75
527.87	35910.84
528.04	36067.66
528.21	36091.06
528.38	35969.35
528.55	36189.36
528.72	35927.22
528.89	36378.95
529.07	35805.52
529.24	35456.78
529.41	36561.51
529.58	36275.96
529.75	36505.34
529.92	36395.33
530.09	36009.14
530.26	36540.44
530.43	36301.71
530.60	36144.89
530.77	36481.93
530.94	37055.36
531.11	36252.56
531.28	36720.66
531.46	36910.25
531.63	37034.30
531.80	36973.44
531.97	36830.67
532.14	37326.86
532.31	36961.74
532.48	37514.11
532.65	37701.35
532.82	37158.34
532.99	37450.91
533.16	37024.93
533.33	37450.91
533.50	37904.98
533.67	37542.19
533.84	37677.94
534.01	37874.55
534.18	37752.84
534.35	38354.36
534.52	37785.61
534.69	38089.88
534.86	38199.88
535.03	37853.48
535.20	37888.59
535.37	38204.56
535.54	38513.52
535.71	38047.75
535.88	38075.84
536.05	38256.06
536.22	38590.75
536.38	38302.87
536.55	38447.98
536.72	38288.82
536.89	38415.21
537.06	38415.21
537.23	38504.15
537.40	38326.27
537.57	38546.28
537.74	38356.70
537.91	39187.59
538.08	38836.51
538.25	38295.85
538.42	38597.77
538.59	39112.69
538.75	38899.70
538.92	39330.36
539.09	39227.38
539.26	38883.32
539.43	39154.82
539.60	39239.08
539.77	39012.05
539.94	39658.04
540.11	39562.08
540.28	39445.05
540.44	39714.21
540.61	39917.84
540.78	39737.62
540.95	39606.55
541.12	39805.49
541.29	39358.45
541.46	39688.46
541.62	39545.69
541.79	39662.72
541.96	39381.85
542.13	39569.10
542.30	39868.69
542.47	39817.19
542.63	40102.74
542.80	39899.11
542.97	40753.41
543.14	40432.75
543.31	40079.33
543.48	40849.37
543.64	40746.39
543.81	40797.88
543.98	40872.78
544.15	40568.51
544.32	40928.95
544.48	41546.85
544.65	40608.29
544.82	40722.98
544.99	41013.21
545.16	40865.75
545.32	40952.35
545.49	41261.30
545.66	41223.86
545.83	41338.54
546.00	41610.04
546.16	41113.85
546.33	40966.40
546.50	40863.41
546.67	41401.74
546.83	41083.42
547.00	41455.57
547.17	40847.03
547.34	41064.70
547.50	41865.16
547.67	41656.85
547.84	41698.98
548.00	41621.75
548.17	42040.70
548.34	41588.98
548.51	41364.29
548.67	42047.72
548.84	41911.97
549.01	41827.71
549.18	42223.26
549.34	41785.58
549.51	41958.78
549.68	42181.13
549.84	42232.63
550.01	42047.72
550.18	41993.89
550.34	42089.85
550.51	42302.84
550.68	42513.49
550.84	41717.71
551.01	42469.02
551.18	42150.71
551.34	42082.83
551.51	42225.60
551.68	42375.40
551.84	42321.57
552.01	42497.11
552.18	42239.65
552.34	42487.74
552.51	42714.78
552.68	42925.42
552.84	42604.77
553.01	42693.71
553.18	42670.31
553.34	42801.38
553.51	42628.18
553.67	43192.25
553.84	43026.07
554.01	43180.54
554.17	42981.60
554.34	43023.73
554.51	43054.15
554.67	42717.12
554.84	43217.99
555.00	43189.91
555.17	43115.01
555.33	43164.16
555.50	43344.38
555.67	43267.14
555.83	43178.20
556.00	43412.26
556.16	43950.58
556.33	43054.15
556.50	43517.58
556.66	43192.25
556.83	43306.93
556.99	43810.15
557.16	43597.16
557.32	43501.20
557.49	43973.98
557.65	43545.67
557.82	43763.34
557.98	43765.68
558.15	43583.12
558.32	44186.97
558.48	43761.00
558.65	43716.53
558.81	43653.33
558.98	43934.20
559.14	43480.13
559.31	43887.39
559.47	43672.06
559.64	44020.80
559.80	43971.64
559.97	43707.16
560.13	43761.00
560.30	43728.23
560.46	44481.88
560.63	44186.97
560.79	44018.46
560.96	44435.07
561.12	43962.28
561.29	44067.61
561.45	44399.96
561.61	44308.68
561.78	43988.03
561.94	44584.86
562.11	44664.44
562.27	44425.71
562.44	44301.66
562.60	44502.95
562.77	44350.81
562.93	44023.14
563.10	44577.84
563.26	44542.74
563.42	44776.79
563.59	44715.93
563.75	43920.15
563.92	44540.39
564.08	44774.45
564.24	44638.70
564.41	44098.03
564.57	44744.02
564.74	44437.41
564.90	44839.98
565.07	44437.41
565.23	44671.46
565.39	44524.01
565.56	45216.81
565.72	44531.03
565.88	44486.56
566.05	44678.49
566.21	44769.77
566.38	44559.12
566.54	45062.33
566.70	44957.01
566.87	45202.77
567.03	44732.32
567.19	44959.35
567.36	44676.15
567.52	44947.65
567.68	45361.92
567.85	45209.79
568.01	44933.60
568.17	45212.13
568.34	44980.42
568.50	45118.51
568.66	44767.43
568.83	45125.53
568.99	44882.11
569.15	45106.80
569.32	44554.44
569.48	45074.04
569.64	45380.65
569.81	45097.44
569.97	44924.24
570.13	44802.53
570.30	45059.99
570.46	44741.68
570.62	45387.67
570.78	45172.34
570.95	45298.73
571.11	45565.55
571.27	45074.04
571.43	44718.28
571.60	45160.64
571.76	45280.00
571.92	45350.22
572.09	45048.29
572.25	45516.40
572.41	45294.05
572.57	45041.27
572.74	45595.98
572.90	45745.77
573.06	45518.74
573.22	45647.47
573.38	45755.13
573.55	45811.31
573.71	45792.58
573.87	45181.70
574.03	45481.29
574.20	45766.84
574.36	45390.01
574.52	45911.95
574.68	45453.20
574.84	45464.91
575.01	45743.43
575.17	45605.34
575.33	45525.76
575.49	45319.79
575.65	45790.24
575.82	45713.00
575.98	45382.99
576.14	45574.91
576.30	45755.13
576.46	45787.90
576.62	45694.28
576.79	45441.50
576.95	45296.39
577.11	45092.76
577.27	45713.00
577.43	45495.33
577.59	45397.03
577.75	45881.52
577.92	45071.70
578.08	45879.18
578.24	46127.28
578.40	45837.05
578.56	45659.17
578.72	45436.82
578.88	45359.58
579.04	45698.96
579.21	45680.24
579.37	45720.02
579.53	45902.59
579.69	45713.00
579.85	45574.91
580.01	45544.48
580.17	45595.98
580.33	45956.42
580.49	45794.92
580.65	45982.16
580.82	45923.65
580.98	45600.66
581.14	45441.50
581.30	45748.11
581.46	45563.21
581.62	45619.38
581.78	45680.24
581.94	46160.05
582.10	45947.06
582.26	46195.15
582.42	45930.67
582.58	46045.36
582.74	45785.56
582.90	45958.76
583.06	45851.09
583.22	45713.00
583.38	46227.92
583.54	45935.35
583.70	45764.49
583.86	46288.77
584.02	45500.01
584.18	46073.45
584.34	45734.07
584.50	46117.92
584.66	45591.30
584.82	45666.19
584.98	45659.17
585.14	46281.75
585.30	45811.31
585.46	45738.75
585.62	46108.55
585.78	45776.20
585.94	45682.58
586.10	45986.85
586.26	45755.13
586.42	45724.71
586.58	45834.71
586.74	46237.28
586.90	45633.42
587.06	45984.51
587.22	45766.84
587.38	45556.19
587.54	45909.61
587.70	46148.34
587.86	45965.78
588.02	45680.24
588.18	46248.99
588.34	45778.54
588.49	45911.95
588.65	46106.21
588.81	45853.44
588.97	46403.46
589.13	45982.16
589.29	46061.74
589.45	46291.12
589.61	46389.42
589.77	46061.74
589.93	45930.67
590.08	46333.24
590.24	46176.43
590.40	46504.10
590.56	46548.57
590.72	46539.21
590.88	46108.55
591.04	46270.05
591.20	46590.70
591.35	46047.70
591.51	46600.07
591.67	46220.90
591.83	47187.54
591.99	46815.40
592.15	46373.03
592.31	45771.52
592.46	46202.18
592.62	46623.47
592.78	46780.29
592.94	46693.69
593.10	46794.33
593.26	46834.12
593.41	47002.64
593.57	46571.98
593.73	46775.61
593.89	47028.38
594.05	46667.94
594.20	46593.04
594.36	46784.97
594.52	46436.23
594.68	46913.70
594.84	46703.05
594.99	46677.30
595.15	46422.19
595.31	46700.71
595.47	46476.02
595.62	46696.03
595.78	46557.94
595.94	46366.01
596.10	46890.29
596.25	46834.12
596.41	46892.63
596.57	46623.47
596.73	46667.94
596.88	46564.96
597.04	46719.43
597.20	46962.85
597.36	46604.75
597.51	46822.42
597.67	46071.10
597.83	46637.51
597.99	46681.98
598.14	46836.46
598.30	46639.86
598.46	46618.79
598.61	46930.08
598.77	46780.29
598.93	46679.64
599.09	46770.93
599.24	46791.99
599.40	47213.29
599.56	46546.23
599.71	46962.85
599.87	47171.16
600.03	47082.22
600.18	46700.71
600.34	46897.31
600.50	46883.27
600.65	46829.44
600.81	46679.64
600.97	46550.91
601.12	46972.21
601.28	46937.10
601.44	47100.94
601.59	47068.17
601.75	46911.36
601.91	46665.60
602.06	46471.34
602.22	47269.46
602.37	46607.09
602.53	46852.84
602.69	46925.40
602.84	46672.62
603.00	46586.02
603.16	46738.16
603.31	46876.25
603.47	47021.36
603.62	47035.41
603.78	46745.18
603.94	47105.62
604.09	47220.31
604.25	47016.68
604.40	47091.58
604.56	46899.65
604.71	47339.68
604.87	46717.09
605.03	46660.92
605.18	46590.70
605.34	46969.87
605.49	46417.50
605.65	47138.39
605.80	46279.41
605.96	46583.68
606.12	46873.91
606.27	47107.96
606.43	46646.88
606.58	46883.27
606.74	46550.91
606.89	46520.49
607.05	47217.97
607.20	47091.58
607.36	46581.34
607.51	46796.67
607.67	46401.12
607.82	46424.53
607.98	46389.42
608.13	46546.23
608.29	46433.89
608.44	46696.03
608.60	46394.10
608.75	46473.68
608.91	46845.82
609.06	46436.23
609.22	46642.20
609.37	46373.03
609.53	46759.22
609.68	46394.10
609.84	46506.44
609.99	46485.38
610.15	46579.00
610.30	46522.83
610.46	46071.10
610.61	46693.69
610.76	46450.27
610.92	46248.99
611.07	46298.14
611.23	46246.65
611.38	46188.13
611.54	46880.93
611.69	46555.60
611.84	46270.05
612.00	46417.50
612.15	45993.87
612.31	46234.94
612.46	46171.75
612.62	46211.54
612.77	46277.07
612.92	46539.21
613.08	46344.95
613.23	46279.41
613.39	45977.48
613.54	46160.05
613.69	46237.28
613.85	46094.51
614.00	46300.48
614.15	46354.31
614.31	46071.10
614.46	45708.32
614.62	46312.18
614.77	46197.49
614.92	46239.62
615.08	46033.66
615.23	46569.64
615.38	46148.34
615.54	46092.17
615.69	46106.21
615.84	46274.73
616.00	46330.90
616.15	46260.69
616.30	46047.70
616.46	46080.47
616.61	45937.69
616.76	46298.14
616.92	46131.96
617.07	45914.29
617.22	45647.47
617.37	45347.88
617.53	46061.74
617.68	45748.11
617.83	46183.45
617.99	45762.15
618.14	46314.52
618.29	45745.77
618.45	45780.88
618.60	45455.54
618.75	45577.25
618.90	45869.82
619.06	45549.17
619.21	45574.91
619.36	46309.84
619.51	45579.59
619.67	45324.47
619.82	45378.31
619.97	45471.93
620.12	45656.83
620.28	45275.32
620.43	45511.72
620.58	46026.63
620.73	45471.93
620.89	45886.20
621.04	45310.43
621.19	45294.05
621.34	45006.16
621.49	45846.41
621.65	45757.47
621.80	45757.47
621.95	45638.11
622.10	45521.08
622.25	45125.53
622.41	45415.76
622.56	45111.49
622.71	45139.57
622.86	45272.98
623.01	45326.81
623.16	45244.90
623.32	45280.00
623.47	44989.78
623.62	44975.73
623.77	44870.41
623.92	45268.30
624.07	45045.95
624.23	44603.59
624.38	45336.18
624.53	44821.26
624.68	44985.10
624.83	44847.00
624.98	44533.37
625.13	44634.02
625.29	44573.16
625.44	44729.98
625.59	44793.17
625.74	44395.28
625.89	44437.41
626.04	44596.57
626.19	44830.62
626.34	44435.07
626.49	44566.14
626.65	44201.02
626.80	44502.95
626.95	44336.77
627.10	44133.14
627.25	44268.89
627.40	44516.99
627.55	44591.89
627.70	43901.43
627.85	44809.56
628.00	44369.54
628.15	44376.56
628.30	44257.19
628.45	44030.16
628.60	43681.42
628.76	44421.03
628.91	44229.10
629.06	43807.81
629.21	44114.42
629.36	43749.29
629.51	43873.34
629.66	44524.01
629.81	43782.06
629.96	44030.16
630.11	44229.10
630.26	44030.16
630.41	43915.47
630.56	43599.50
630.71	43976.33
630.86	43840.57
631.01	43845.26
631.16	43688.44
631.31	43501.20
631.46	43580.78
631.61	43777.38
631.76	43885.04
631.91	44006.75
632.06	44385.92
632.21	43873.34
632.36	43662.69
632.51	43491.83
632.66	44037.18
632.81	43302.25
632.96	43536.30
633.10	43370.13
633.25	43573.75
633.40	43749.29
633.55	43456.73
633.70	43229.69
633.85	43210.97
634.00	43306.93
634.15	43234.38
634.30	43133.73
634.45	43093.94
634.60	43817.17
634.75	43416.94
634.90	43545.67
635.05	43632.27
635.19	43178.20
635.34	43566.73
635.49	43494.18
635.64	43164.16
635.79	43318.64
635.94	42981.60
636.09	43807.81
636.24	43082.24
636.39	42813.08
636.53	43540.99
636.68	42422.21
636.83	42667.97
636.98	42375.40
637.13	42429.23
637.28	42557.96
637.43	42974.58
637.57	42789.67
637.72	42796.70
637.87	42717.12
638.02	42829.46
638.17	42433.91
638.32	42459.66
638.46	42588.39
638.61	42728.82
638.76	42569.66
638.91	42553.28
639.06	42003.25
639.20	42298.16
639.35	42763.93
639.50	42047.72
639.65	42225.60
639.80	42508.81
639.94	42583.71
640.09	42611.79
640.24	42359.02
640.39	42253.69
640.54	42029.00
640.68	42529.87
640.83	42536.90
640.98	42206.88
641.13	41750.48
641.27	42134.32
641.42	42506.47
641.57	42213.90
641.72	42160.07
641.86	42412.85
642.01	41626.43
642.16	42059.43
642.31	41219.17
642.45	42239.65
642.60	41663.88
642.75	41771.54
642.90	41848.78
643.04	42148.37
643.19	42178.79
643.34	41579.62
643.48	41741.11
643.63	41439.18
643.78	41797.29
643.93	41741.11
644.07	41940.06
644.22	41729.41
644.37	41462.59
644.51	41588.98
644.66	41750.48
644.81	41668.56
644.95	41638.13
645.10	41282.37
645.25	41558.55
645.39	41186.41
645.54	40861.07
645.69	41141.94
645.83	41041.29
645.98	41546.85
646.13	41556.21
646.27	41331.52
646.42	41205.13
646.57	41083.42
646.71	41570.25
646.86	41584.30
647.00	41418.12
647.15	41586.64
647.30	41170.02
647.44	41427.48
647.59	41165.34
647.74	41050.66
647.88	41106.83
648.03	41558.55
648.17	41364.29
648.32	41069.38
648.47	41656.85
648.61	41017.89
648.76	41118.53
648.90	40919.59
649.05	40704.26
649.20	41036.61
649.34	41064.70
649.49	41219.17
649.63	41205.13
649.78	41041.29
649.92	40793.20
650.07	40999.16
650.21	40725.32
650.36	40973.42
650.51	40535.74
650.65	40755.75
650.80	41118.53
650.94	40961.72
651.09	40856.39
651.23	40458.50
651.38	40098.06
651.52	40275.94
651.67	40622.34
651.81	40308.71
651.96	40491.27
652.10	40456.16
652.25	40093.38
652.39	40598.93
652.54	40147.21
652.68	40161.25
652.83	40360.20
652.97	40694.89
653.12	40495.95
653.26	39812.51
653.41	40058.27
653.55	40374.24
653.70	40105.08
653.84	40247.85
653.99	40325.09
654.13	39871.03
654.27	39833.58
654.42	39817.19
654.56	39845.28
654.71	39899.11
654.85	40334.45
655.00	40130.83
655.14	40137.85
655.29	39913.16
655.43	39810.17
655.57	39707.19
655.72	39658.04
655.86	39995.07
656.01	39419.30
656.15	39618.25
656.30	39739.96
656.44	39538.67
656.58	39842.94
656.73	39604.20
656.87	39459.09
657.01	39419.30
657.16	39894.43
657.30	39599.52
657.45	39384.19
657.59	39428.66
657.73	39210.99
657.88	39281.21
658.02	39274.19
658.16	39590.16
658.31	39962.31
658.45	39257.81
658.60	39042.48
658.74	39295.25
658.88	39498.88
659.03	39084.61
659.17	38885.66
659.31	38969.92
659.46	38946.51
659.60	38703.10
659.74	39084.61
659.89	38925.45
660.03	38438.62
660.17	38675.01
660.32	38726.50
660.46	38672.67
660.60	38415.21
660.74	38485.43
660.89	38717.14
661.03	38642.24
661.17	38270.10
661.32	38295.85
661.46	38272.44
661.60	38075.84
661.74	37858.17
661.89	38298.19
662.03	38307.55
662.17	37567.94
662.31	38106.26
662.46	38150.73
662.60	37958.81
662.74	37296.44
662.88	37766.88
663.03	37591.34
663.17	37476.66
663.31	37544.53
663.45	37507.08
663.60	37834.76
663.74	37462.61
663.88	37422.83
664.02	37193.45
664.17	37794.97
664.31	37261.33
664.45	36971.10
664.59	37132.60
664.73	37446.23
664.88	36917.27
665.02	36694.92
665.16	37125.58
665.30	36992.17
665.44	37099.83
665.59	36643.43
665.73	36587.25
665.87	36231.49
666.01	36645.77
666.15	36708.96
666.29	36725.35
666.44	36430.44
666.58	36458.52
666.72	36278.30
666.86	36622.36
667.00	36219.79
667.14	36205.75
667.28	35735.30
667.43	36374.27
667.57	36723.01
667.71	36488.95
667.85	36266.60
667.99	36299.37
668.13	35934.24
668.27	35360.81
668.41	35583.16
668.56	35309.32
668.70	35344.43
668.84	35625.29
668.98	35257.83
669.12	35468.48
669.26	35084.63
669.40	35292.94
669.54	35393.58
669.68	35353.79
669.82	34749.93
669.96	34672.70
670.10	34693.76
670.25	35068.25
670.39	34829.51
670.53	35159.53
670.67	34574.39
670.81	35143.14
670.95	35044.84
671.09	34663.33
671.23	34478.43
671.37	34588.44
671.51	34139.05
671.65	34384.81
671.79	34033.73
671.93	34330.98
672.07	34639.93
672.21	34237.36
672.35	34120.33
672.49	34017.35
672.63	34602.48
672.77	33680.31
672.91	33888.62
673.05	33986.92
673.19	33371.36
673.33	33509.45
673.47	33427.53
673.61	33174.75
673.75	33207.52
673.89	33359.66
674.03	33057.73
674.17	32816.65
674.31	32779.20
674.45	32914.95
674.59	32641.11
674.73	32851.76
674.87	32472.59
675.01	32769.84
675.15	32126.19
675.29	31833.63
675.43	32521.74
675.56	32137.90
675.70	31917.89
675.84	32072.36
675.98	31136.15
676.12	32264.28
676.26	32039.59
676.40	31571.49
676.54	31960.02
676.68	31412.33
676.82	30939.54
676.96	31463.82
677.10	31552.76
677.23	30984.01
677.37	31393.61
677.51	31267.22
677.65	31051.89
677.79	30595.48
677.93	30508.88
678.07	30859.96
678.21	30649.32
678.34	30319.30
678.48	30754.64
678.62	29984.60
678.76	30087.59
678.90	29972.90
679.04	30239.72
679.18	30323.98
679.31	29383.09
679.45	29626.50
679.59	29387.77
679.73	29844.17
679.87	29177.12
680.00	29593.73
680.14	28929.02
680.28	29378.40
680.42	29462.66
680.56	29048.39
680.70	28793.27
680.83	28823.70
680.97	28720.71
681.11	28964.13
681.25	28453.89
681.39	28505.38
681.52	28570.92
681.66	28048.98
681.80	27798.54
681.94	27627.68
682.07	27805.56
682.21	27880.46
682.35	27608.96
682.49	27812.59
682.62	27517.68
682.76	27398.31
682.90	27197.02
683.04	27665.13
683.17	27131.49
683.31	26899.78
683.45	26857.65
683.59	26759.34
683.72	26324.01
683.86	26981.70
684.00	26476.14
684.13	26635.30
684.27	26485.50
684.41	26331.03
684.55	26293.58
684.68	26300.60
684.82	25823.13
684.96	25647.59
685.09	25757.60
685.23	25678.02
685.37	26260.81
685.50	26066.55
685.64	25612.48
685.78	25565.67
685.91	25678.02
686.05	24835.42
686.19	25039.05
686.32	25090.54
686.46	24704.35
686.60	24903.30
686.73	24863.51
686.87	24929.05
687.01	24512.43
687.14	24863.51
687.28	24357.96
687.42	24451.58
687.55	24009.22
687.69	24304.12
687.82	24025.60
687.96	23833.68
688.10	24187.10
688.23	24060.71
688.37	23934.32
688.50	23990.49
688.64	23510.68
688.78	23838.36
688.91	23452.17
689.05	23515.36
689.18	23332.80
689.32	22927.89
689.46	22960.66
689.59	23035.55
689.73	22960.66
689.86	22885.76
690.00	22766.39
690.13	22808.52
690.27	22721.92
690.41	22319.35
690.54	22274.88
690.68	21893.37
690.81	22272.54
690.95	22122.74
691.08	22207.00
691.22	21640.59
691.35	21717.83
691.49	21797.41
691.62	21645.27
691.76	21441.65
691.89	21193.55
692.03	21022.69
692.16	20809.70
692.30	21287.17
692.43	20945.45
692.57	20592.03
692.70	20688.00
692.84	20397.77
692.97	20634.16
693.11	20741.83
693.24	20648.21
693.38	20336.91
693.51	20182.44
693.65	20306.49
693.78	20046.69
693.92	20112.22
694.05	20051.37
694.19	20042.01
694.32	19899.23
694.45	20255.00
694.59	20114.56
694.72	19697.95
694.86	19466.24
694.99	19204.10
695.13	19325.80
695.26	19019.19
695.39	19075.37
695.53	19304.74
695.66	18796.84
695.80	18792.16
695.93	18698.54
696.07	18677.48
696.20	18518.32
696.33	18202.35
696.47	18331.08
696.60	18218.73
696.73	18377.89
696.87	18253.84
697.00	18530.02
697.14	18129.79
697.27	18108.72
697.40	17668.70
697.54	17778.71
697.67	17668.70
697.80	17736.58
697.94	17584.44
698.07	17422.95
698.21	17359.75
698.34	17429.97
698.47	17067.19
698.61	16681.00
698.74	16905.69
698.87	16851.86
699.01	16758.24
699.14	16891.65
699.27	17097.61
699.40	16741.85
699.54	16484.39
699.67	16596.74
699.80	16470.35
699.94	16098.20
700.07	16517.16
700.20	15917.98
700.34	16107.57
700.47	15988.20
700.60	16233.96
700.73	15833.72
700.87	15885.22
701.00	15723.72
701.13	15676.91
701.26	15749.46
701.40	15754.15
701.53	15332.85
701.66	15304.76
701.79	15339.87
701.93	15117.52
702.06	15246.25
702.19	14956.02
702.32	15066.03
702.46	14970.07
702.59	14977.09
702.72	15103.48
702.85	14991.13
702.99	14843.68
703.12	14588.56
703.25	14537.07
703.38	14647.07
703.51	14527.71
703.65	14249.18
703.78	13839.59
703.91	14146.20
704.04	14050.24
704.17	13895.76
704.31	13823.20
704.44	13961.30
704.57	13666.39
704.70	13792.78
704.83	13502.55
704.96	13743.63
705.10	13612.56
705.23	13256.79
>>>>>End Processed Spectral Data<<<<<
