SpectraSuite Data File
++++++++++++++++++++++++++++++++++++
Date: Fri Oct 25 10:47:45 EDT 2013
User: price-jones
Dark Spectrum Present: No
Reference Spectrum Present: No
Number of Sampled Component Spectra: 1
Spectrometers: USB2+H05261
Integration Time (usec): 100000 (USB2+H05261)
Spectra Averaged: 1 (USB2+H05261)
Boxcar Smoothing: 0 (USB2+H05261)
Correct for Electrical Dark: No (USB2+H05261)
Strobe/Lamp Enabled: No (USB2+H05261)
Correct for Detector Non-linearity: No (USB2+H05261)
Correct for Stray Light: No (USB2+H05261)
Number of Pixels in Processed Spectrum: 2048
>>>>>Begin Processed Spectral Data<<<<<
365.73	145.11
365.92	145.11
366.12	145.11
366.32	30.43
366.52	21.06
366.72	53.83
366.91	35.11
367.11	102.98
367.31	65.54
367.51	46.81
367.70	49.15
367.90	0.00
368.10	0.00
368.30	37.45
368.49	42.13
368.69	18.72
368.89	2.34
369.09	84.26
369.28	114.69
369.48	56.17
369.68	91.28
369.87	128.73
370.07	102.98
370.27	128.73
370.47	196.60
370.66	334.70
370.86	308.95
371.06	379.17
371.25	461.09
371.45	365.12
371.65	440.02
371.84	395.55
372.04	472.79
372.24	421.30
372.44	582.79
372.63	500.87
372.83	482.15
373.03	512.58
373.22	528.96
373.42	550.03
373.62	479.81
373.81	461.09
374.01	489.17
374.21	568.75
374.40	519.60
374.60	543.00
374.79	545.34
374.99	550.03
375.19	620.24
375.38	550.03
375.58	554.71
375.78	524.28
375.97	627.26
376.17	580.45
376.37	622.58
376.56	575.77
376.76	566.41
376.95	535.98
377.15	641.31
377.35	535.98
377.54	596.84
377.74	564.07
377.93	601.52
378.13	615.56
378.33	667.05
378.52	650.67
378.72	624.92
378.91	664.71
379.11	615.56
379.31	636.63
379.50	599.18
379.70	653.01
379.89	657.69
380.09	643.65
380.28	627.26
380.48	627.26
380.68	763.01
380.87	627.26
381.07	643.65
381.26	669.39
381.46	655.35
381.65	634.29
381.85	613.22
382.04	678.76
382.24	725.57
382.43	788.76
382.63	725.57
382.83	720.88
383.02	676.41
383.22	739.61
383.41	678.76
383.61	739.61
383.80	786.42
384.00	699.82
384.19	713.86
384.39	695.14
384.58	704.50
384.78	692.80
384.97	774.72
385.17	723.23
385.36	823.87
385.56	732.59
385.75	751.31
385.95	763.01
386.14	786.42
386.34	734.93
386.53	770.04
386.72	753.65
386.92	800.46
387.11	844.93
387.31	725.57
387.50	837.91
387.70	823.87
387.89	833.23
388.09	781.74
388.28	802.80
388.48	826.21
388.67	880.04
388.86	889.40
389.06	840.25
389.25	901.11
389.45	940.90
389.64	725.57
389.84	837.91
390.03	917.49
390.22	1025.15
390.42	917.49
390.61	1001.75
390.81	933.87
391.00	940.90
391.19	966.64
391.39	987.71
391.58	922.17
391.78	950.26
391.97	945.58
392.16	952.60
392.36	954.94
392.55	901.11
392.75	952.60
392.94	976.00
393.13	929.19
393.33	931.53
393.52	1062.60
393.71	1046.22
393.91	1083.67
394.10	1064.94
394.29	1029.84
394.49	1025.15
394.68	1095.37
394.88	1046.22
395.07	1130.48
395.26	1170.27
395.46	1151.54
395.65	1282.61
395.84	1165.59
396.04	1205.38
396.23	1128.14
396.42	1118.78
396.62	1053.24
396.81	1231.12
397.00	1186.65
397.19	1228.78
397.39	1198.35
397.58	1214.74
397.77	1181.97
397.97	1331.76
398.16	1203.04
398.35	1245.16
398.55	1217.08
398.74	1275.59
398.93	1266.23
399.12	1294.32
399.32	1315.38
399.51	1282.61
399.70	1315.38
399.90	1357.51
400.09	1366.87
400.28	1427.73
400.47	1387.94
400.67	1530.71
400.86	1406.66
401.05	1444.11
401.24	1369.21
401.44	1462.83
401.63	1439.43
401.82	1434.75
402.01	1462.83
402.21	1526.03
402.40	1544.75
402.59	1469.86
402.78	1544.75
402.97	1554.12
403.17	1577.52
403.36	1577.52
403.55	1619.65
403.74	1617.31
403.93	1659.44
404.13	1657.10
404.32	1570.50
404.51	1640.72
404.70	1631.35
404.89	1619.65
405.09	1689.87
405.28	1774.13
405.47	1678.16
405.66	1682.85
405.85	1675.82
406.05	1837.32
406.24	1804.55
406.43	1818.60
406.62	1715.61
406.81	1797.53
407.00	1771.79
407.20	1783.49
407.39	1856.04
407.58	1884.13
407.77	1900.52
407.96	1844.34
408.15	1940.30
408.34	1959.03
408.54	1944.99
408.73	2031.58
408.92	1933.28
409.11	2052.65
409.30	1963.71
409.49	1954.35
409.68	2026.90
409.87	1994.14
410.07	2057.33
410.26	2157.97
410.45	2179.04
410.64	2111.16
410.83	2242.23
411.02	2148.61
411.21	2225.85
411.40	2333.51
411.59	2314.79
411.78	2242.23
411.98	2326.49
412.17	2314.79
412.36	2375.64
412.55	2382.67
412.74	2417.77
412.93	2324.15
413.12	2471.61
413.31	2534.80
413.50	2485.65
413.69	2527.78
413.88	2551.18
414.07	2555.86
414.26	2480.97
414.45	2509.05
414.64	2586.29
414.83	2626.08
415.02	2712.68
415.22	2785.24
415.41	2649.49
415.60	2642.46
415.79	2808.64
415.98	2930.35
416.17	2736.09
416.36	2864.82
416.55	2867.16
416.74	2827.37
416.93	2906.95
417.12	2871.84
417.31	3066.10
417.50	2993.55
417.69	3155.04
417.88	2998.23
418.07	2946.73
418.26	3131.64
418.45	3148.02
418.64	3276.75
418.83	3136.32
419.02	3169.09
419.21	3105.89
419.39	3201.85
419.58	3096.53
419.77	3169.09
419.96	3192.49
420.15	3265.05
420.34	3208.87
420.53	3335.26
420.72	3281.43
420.91	3398.46
421.10	3403.14
421.29	3349.31
421.48	3243.98
421.67	3414.84
421.86	3316.54
422.05	3372.71
422.24	3417.18
422.43	3428.88
422.61	3283.77
422.80	3545.91
422.99	3466.33
423.18	3555.27
423.37	3590.38
423.56	3562.30
423.75	3543.57
423.94	3475.70
424.13	3288.45
424.32	3478.04
424.50	3641.87
424.69	3468.67
424.88	3527.19
425.07	3466.33
425.26	3485.06
425.45	3555.27
425.64	3574.00
425.83	3480.38
426.01	3620.81
426.20	3655.92
426.39	3536.55
426.58	3489.74
426.77	3552.93
426.96	3634.85
427.15	3482.72
427.33	3576.34
427.52	3707.41
427.71	3691.02
427.90	3606.77
428.09	3534.21
428.28	3632.51
428.46	3630.17
428.65	3829.12
428.84	3941.46
429.03	4025.72
429.22	3864.22
429.40	3684.00
429.59	3808.05
429.78	3740.18
429.97	3719.11
430.16	3693.37
430.34	3836.14
430.53	3985.93
430.72	3875.93
430.91	3829.12
431.10	4025.72
431.28	4084.23
431.47	4203.60
431.66	4028.06
431.85	4009.34
432.03	4119.34
432.22	4142.75
432.41	4269.14
432.60	4095.94
432.79	4308.93
432.97	4285.52
433.16	4187.22
433.35	4117.00
433.54	4308.93
433.72	4322.97
433.91	4231.69
434.10	4269.14
434.28	4292.54
434.47	4334.67
434.66	4383.82
434.85	4337.01
435.03	4236.37
435.22	4547.66
435.41	4610.86
435.59	4585.11
435.78	4627.24
435.97	4606.17
436.16	4519.57
436.34	4559.36
436.53	4582.77
436.72	4702.14
436.90	4505.53
437.09	4767.67
437.28	4603.83
437.46	4510.21
437.65	4596.81
437.84	4713.84
438.02	4681.07
438.21	4755.97
438.40	4545.32
438.58	4812.14
438.77	4821.50
438.96	4896.40
439.14	4931.51
439.33	5018.11
439.52	5050.88
439.70	5064.92
439.89	5207.69
440.08	5020.45
440.26	5060.24
440.45	5195.99
440.63	5226.42
440.82	5172.58
441.01	5210.03
441.19	5191.31
441.38	5294.29
441.57	5453.45
441.75	5561.11
441.94	5645.37
442.12	5715.59
442.31	5643.03
442.50	5600.90
442.68	5605.58
442.87	5612.60
443.05	5572.82
443.24	5750.70
443.43	5572.82
443.61	5568.13
443.80	5907.51
443.98	5673.46
444.17	5504.94
444.35	5727.29
444.54	5750.70
444.73	5870.06
444.91	5703.89
445.10	5825.59
445.28	5696.86
445.47	5813.89
445.65	5699.20
445.84	5755.38
446.02	5881.77
446.21	5820.91
446.39	5741.33
446.58	5853.68
446.77	5947.30
446.95	5849.00
447.14	5802.19
447.32	5940.28
447.51	5991.77
447.69	5886.45
447.88	5851.34
448.06	6012.84
448.25	5905.17
448.43	6050.28
448.62	5919.21
448.80	5933.26
448.99	6015.18
449.17	6146.25
449.36	5973.05
449.54	6244.55
449.73	6293.70
449.91	6335.83
450.10	6237.53
450.28	6469.24
450.46	6448.18
450.65	6300.72
450.83	6436.47
451.02	6078.37
451.20	6590.95
451.39	6338.17
451.57	6417.75
451.76	6345.19
451.94	6499.67
452.13	6450.52
452.31	6354.55
452.49	6305.40
452.68	6590.95
452.86	6590.95
453.05	6602.65
453.23	6518.39
453.42	6485.62
453.60	6665.85
453.78	6644.78
453.97	6661.16
454.15	6590.95
454.34	6672.87
454.52	6579.25
454.70	6651.80
454.89	6745.42
455.07	6555.84
455.26	6965.43
455.44	6853.09
455.62	6759.47
455.81	6843.73
455.99	6825.00
456.17	7026.29
456.36	6895.22
456.54	7192.47
456.73	6937.35
456.91	7314.17
457.09	7204.17
457.28	7302.47
457.46	7056.72
457.64	7194.81
457.83	7190.13
458.01	7166.72
458.19	7396.09
458.38	7169.06
458.56	7520.14
458.74	7370.35
458.93	7173.74
459.11	7438.22
459.29	7274.38
459.48	7456.95
459.66	7550.57
459.84	7489.71
460.03	7658.23
460.21	7435.88
460.39	7531.84
460.57	7644.19
460.76	7667.60
460.94	7585.68
461.12	7571.63
461.31	7831.43
461.49	7709.72
461.67	7644.19
461.85	7922.71
462.04	7763.56
462.22	8035.06
462.40	7950.80
462.59	7906.33
462.77	7950.80
462.95	8147.40
463.13	8088.89
463.32	8077.19
463.50	7978.89
463.68	8056.12
463.86	8109.96
464.05	7875.90
464.23	8004.63
464.41	8166.13
464.59	7960.16
464.78	8226.98
464.96	8187.19
465.14	8030.38
465.32	8102.93
465.50	8168.47
465.69	8470.40
465.87	8142.72
466.05	8498.49
466.23	8189.53
466.41	8278.47
466.60	8463.38
466.78	8259.75
466.96	8409.54
467.14	8369.76
467.32	8458.70
467.51	8425.93
467.69	8226.98
467.87	8477.42
468.05	8613.17
468.23	8505.51
468.41	8348.69
468.60	8688.07
468.78	8772.33
468.96	8538.27
469.14	8657.64
469.32	8947.87
469.50	8531.25
469.69	8786.37
469.87	8748.92
470.05	8652.96
470.23	8912.76
470.41	8922.12
470.59	9043.83
470.77	8828.50
470.95	8992.34
471.14	9233.41
471.32	8985.32
471.50	9317.67
471.68	9212.35
471.86	9310.65
472.04	9341.08
472.22	9621.94
472.40	9205.33
472.58	9350.44
472.77	9102.34
472.95	9757.69
473.13	9710.88
473.31	9680.46
473.49	9521.30
473.67	9486.19
473.85	9570.45
474.03	9977.70
474.21	9806.84
474.39	9853.66
474.57	9872.38
474.75	10293.68
474.93	9994.09
475.12	10061.96
475.30	10281.97
475.48	10036.22
475.66	10186.01
475.84	10401.34
476.02	10347.51
476.20	10356.87
476.38	10473.90
476.56	10890.51
476.74	10417.72
476.92	10740.72
477.10	10492.62
477.28	11016.90
477.46	10801.57
477.64	10869.45
477.82	11061.37
478.00	11375.00
478.18	11218.19
478.36	11192.44
478.54	11590.33
478.72	11634.80
478.90	11690.98
479.08	11698.00
479.26	11784.60
479.44	11936.73
479.62	11850.13
479.80	11894.60
479.98	12135.68
480.16	12404.84
480.34	12079.50
480.52	12519.53
480.70	12313.56
480.88	12217.60
481.06	12781.67
481.24	12430.59
481.41	12786.35
481.59	13062.53
481.77	12945.50
481.95	12784.01
482.13	13231.05
482.31	13249.77
482.49	13429.99
482.67	13624.26
482.85	13584.47
483.03	13734.26
483.21	13989.38
483.39	14059.60
483.57	13984.70
483.74	13907.46
483.92	14153.22
484.10	14209.39
484.28	14202.37
484.46	14455.15
484.64	14778.14
484.82	14647.07
485.00	14621.33
485.18	15173.69
485.35	15051.99
485.53	15016.88
485.71	14934.96
485.89	15269.66
486.07	15220.50
486.25	15297.74
486.43	15360.94
486.61	15382.00
486.78	15751.81
486.96	15894.58
487.14	16215.23
487.32	16255.02
487.50	16594.40
487.68	16306.51
487.85	16627.17
488.03	16936.12
488.21	16819.09
488.39	16617.80
488.57	17121.02
488.75	17254.43
488.92	17373.80
489.10	17544.66
489.28	17898.08
489.46	17727.22
489.64	18003.40
489.81	18155.54
489.99	18223.41
490.17	18567.47
490.35	18794.50
490.53	18876.42
490.70	18806.20
490.88	18801.52
491.06	19077.71
491.24	18789.82
491.41	18965.36
491.59	19084.73
491.77	19058.98
491.95	19697.95
492.13	19681.56
492.30	19644.12
492.48	19772.85
492.66	19749.44
492.84	19960.09
493.01	19854.76
493.19	19903.92
493.37	20577.99
493.54	20365.00
493.72	20400.11
493.90	20776.94
494.08	20865.88
494.25	20751.19
494.43	21212.28
494.61	21474.42
494.79	21308.24
494.96	21525.91
495.14	21385.47
495.32	21724.85
495.49	21455.69
495.67	21633.57
495.85	21830.18
496.02	22162.53
496.20	22256.15
496.38	22281.90
496.55	22291.26
496.73	23084.70
496.91	22497.23
497.09	23260.24
497.26	23077.68
497.44	22934.91
497.62	23019.17
497.79	22911.50
497.97	23117.47
498.14	23365.57
498.32	23742.39
498.50	23346.84
498.67	23695.58
498.85	23665.16
499.03	23892.19
499.20	24161.35
499.38	23910.91
499.56	24381.36
499.73	24215.18
499.91	24170.71
500.08	24676.27
500.26	24247.95
500.44	24568.60
500.61	24596.69
500.79	24641.16
500.97	24577.97
501.14	25132.67
501.32	25064.80
501.49	24996.92
501.67	25137.35
501.84	25174.80
502.02	25633.55
502.20	25692.06
502.37	25715.47
502.55	25647.59
502.72	25511.84
502.90	25907.39
503.07	25659.29
503.25	25940.16
503.43	25937.82
503.60	26036.12
503.78	26188.25
503.95	25876.96
504.13	26382.52
504.30	26623.59
504.48	26419.97
504.65	26593.17
504.83	26869.35
505.01	26890.41
505.18	26988.72
505.36	27185.32
505.53	26747.64
505.71	27363.20
505.88	27374.91
506.06	27255.54
506.23	27508.32
506.41	27115.11
506.58	27571.51
506.76	27370.22
506.93	28166.01
507.11	27700.24
507.28	27543.42
507.46	28137.92
507.63	27573.85
507.81	28362.61
507.98	28236.22
508.16	27737.69
508.33	27957.70
508.50	28477.30
508.68	28584.96
508.85	29127.97
509.03	28360.27
509.20	28531.13
509.38	29081.16
509.55	28858.81
509.73	29237.97
509.90	28945.41
510.08	29216.91
510.25	28900.94
510.42	29373.72
510.60	29589.05
510.77	29572.67
510.95	29551.60
511.12	29661.61
511.30	29518.84
511.47	29841.83
511.64	29661.61
511.82	30015.03
511.99	30307.60
512.17	29802.04
512.34	29968.22
512.51	30146.10
512.69	30403.56
512.86	30419.94
513.04	30331.00
513.21	30511.22
513.38	30536.97
513.56	30518.25
513.73	30375.47
513.90	30794.43
514.08	30649.32
514.25	30714.85
514.43	31054.23
514.60	31063.59
514.77	30904.43
514.95	31077.63
515.12	31208.70
515.29	30855.28
515.47	31271.90
515.64	31735.32
515.81	31316.37
515.99	31438.08
516.16	31419.35
516.33	31407.65
516.51	31658.09
516.68	31370.20
516.85	31695.53
517.03	31819.58
517.20	31686.17
517.37	32046.62
517.54	32182.37
517.72	32093.43
517.89	31740.00
518.06	32044.27
518.24	31651.06
518.41	32065.34
518.58	32252.58
518.75	32348.54
518.93	32926.66
519.10	32385.99
519.27	32999.21
519.45	32680.90
519.62	33001.55
519.79	32957.08
519.96	32954.74
520.14	33015.60
520.31	32978.15
520.48	33186.46
520.65	33673.29
520.83	33542.22
521.00	33556.26
521.17	33347.95
521.34	33734.14
521.52	33371.36
521.69	33867.55
521.86	34078.20
522.03	33923.72
522.20	34043.09
522.38	34094.58
522.55	33905.00
522.72	33869.89
522.89	33977.56
523.07	34373.11
523.24	33532.86
523.41	34213.95
523.58	33724.78
523.75	34525.24
523.92	34370.77
524.10	34651.63
524.27	34885.68
524.44	34810.79
524.61	34925.47
524.78	34682.06
524.96	35234.42
525.13	35309.32
525.30	35351.45
525.47	35356.13
525.64	35023.78
525.81	35517.63
525.98	35407.62
526.16	35206.34
526.33	35204.00
526.50	35562.10
526.67	35639.34
526.84	35349.11
527.01	35414.65
527.18	35353.79
527.36	36109.78
527.53	35737.64
527.70	36191.70
527.87	36002.12
528.04	35878.07
528.21	36027.87
528.38	35793.81
528.55	36093.40
528.72	36444.48
528.89	36636.41
529.07	36580.23
529.24	36252.56
529.41	36432.78
529.58	36208.09
529.75	36545.12
529.92	36774.50
530.09	36767.48
530.26	36879.82
530.43	36694.92
530.60	36275.96
530.77	36797.90
530.94	37022.59
531.11	36580.23
531.28	37399.42
531.46	36835.35
531.63	37474.32
531.80	36732.37
531.97	37198.13
532.14	37013.23
532.31	37055.36
532.48	37237.92
532.65	37198.13
532.82	37654.54
532.99	37684.97
533.16	37261.33
533.33	37654.54
533.50	38258.40
533.67	37347.93
533.84	38005.62
534.01	38139.03
534.18	37610.07
534.35	38234.99
534.52	37806.67
534.69	38122.65
534.86	37935.40
535.03	37968.17
535.20	38323.93
535.37	38707.78
535.54	38359.04
535.71	38373.08
535.88	38396.49
536.05	38497.13
536.22	38415.21
536.38	38651.61
536.55	38555.64
536.72	38518.20
536.89	37979.87
537.06	38457.34
537.23	38588.41
537.40	38752.25
537.57	38866.94
537.74	38911.41
537.91	38747.57
538.08	38923.11
538.25	38670.33
538.42	38562.67
538.59	38857.57
538.75	38639.90
538.92	39229.72
539.09	39159.50
539.26	39096.31
539.43	39360.79
539.60	39040.14
539.77	38990.98
539.94	39236.74
540.11	39199.29
540.28	38883.32
540.44	39274.19
540.61	39079.92
540.78	39519.95
540.95	39232.06
541.12	38899.70
541.29	39484.84
541.46	39374.83
541.62	39625.27
541.79	39854.64
541.96	39552.71
542.13	39667.40
542.30	39873.37
542.47	39833.58
542.63	39796.13
542.80	39868.69
542.97	40245.51
543.14	39974.01
543.31	40304.02
543.48	40542.76
543.64	40854.05
543.81	40708.94
543.98	40786.18
544.15	40456.16
544.32	40893.84
544.48	40519.35
544.65	40484.25
544.82	40657.45
544.99	40397.65
545.16	40587.23
545.32	40409.35
545.49	40484.25
545.66	40999.16
545.83	40783.83
546.00	40879.80
546.16	40872.78
546.33	40739.36
546.50	40645.74
546.67	41146.62
546.83	40437.44
547.00	40636.38
547.17	40868.09
547.34	40935.97
547.50	41642.81
547.67	41268.33
547.84	40858.73
548.00	41123.21
548.17	41720.05
548.34	41785.58
548.51	41436.84
548.67	41907.29
548.84	41565.57
549.01	41586.64
549.18	41577.28
549.34	41549.19
549.51	41944.74
549.68	41916.65
549.84	41474.29
550.01	41930.70
550.18	41656.85
550.34	41614.72
550.51	41553.87
550.68	41680.26
550.84	41621.75
551.01	41956.44
551.18	41752.82
551.34	42057.09
551.51	42003.25
551.68	42052.41
551.84	42103.90
552.01	42230.29
552.18	42143.69
552.34	41612.38
552.51	42660.94
552.68	42082.83
552.84	42309.86
553.01	42377.74
553.18	42302.84
553.34	42316.89
553.51	41893.25
553.67	42286.46
553.84	42508.81
554.01	42836.48
554.17	42951.17
554.34	42550.94
554.51	42813.08
554.67	42873.93
554.84	42944.15
555.00	42576.69
555.17	42770.95
555.33	42574.34
555.50	42108.58
555.67	43110.33
555.83	42679.67
556.00	42698.39
556.16	43227.35
556.33	43115.01
556.50	42572.00
556.66	43063.52
556.83	42759.25
556.99	43304.59
557.16	43325.66
557.32	43255.44
557.49	42897.34
557.65	42852.87
557.82	43012.02
557.98	42927.77
558.15	42796.70
558.32	43580.78
558.48	43068.20
558.65	43232.04
558.81	42625.84
558.98	43220.33
559.14	43093.94
559.31	43262.46
559.47	43395.87
559.64	43515.24
559.80	43515.24
559.97	43302.25
560.13	43267.14
560.30	43552.69
560.46	42810.74
560.63	43416.94
560.79	43414.60
560.96	43119.69
561.12	43576.09
561.29	43906.11
561.45	43470.77
561.61	43587.80
561.78	43438.00
561.94	43241.40
562.11	43075.22
562.27	43129.05
562.44	43473.11
562.60	43931.86
562.77	43583.12
562.93	43920.15
563.10	43618.22
563.26	43332.68
563.42	43955.26
563.59	43690.78
563.75	43690.78
563.92	43882.70
564.08	43903.77
564.24	43777.38
564.41	43903.77
564.57	43484.81
564.74	43592.48
564.90	43845.26
565.07	43899.09
565.23	43686.10
565.39	43922.49
565.56	44112.08
565.72	43571.41
565.88	43906.11
566.05	43934.20
566.21	43969.30
566.38	43601.84
566.54	43831.21
566.70	44219.74
566.87	44301.66
567.03	43765.68
567.19	44222.08
567.36	44006.75
567.52	44051.22
567.68	44554.44
567.85	44210.38
568.01	43971.64
568.17	44156.55
568.34	44371.88
568.50	44168.25
568.66	43976.33
568.83	44039.52
568.99	44397.62
569.15	44058.24
569.32	43971.64
569.48	44009.09
569.64	44596.57
569.81	43934.20
569.97	44144.84
570.13	44116.76
570.30	43936.54
570.46	43948.24
570.62	43730.57
570.78	44079.31
570.95	43709.50
571.11	44559.12
571.27	44069.95
571.43	44226.76
571.60	44395.28
571.76	44119.10
571.92	44353.15
572.09	44128.46
572.25	44069.95
572.41	44212.72
572.57	44741.68
572.74	44552.10
572.90	44055.90
573.06	44254.85
573.22	44383.58
573.38	44568.48
573.55	44002.07
573.71	44456.14
573.87	44109.74
574.03	44397.62
574.20	44465.50
574.36	44083.99
574.52	44360.17
574.68	44477.20
574.84	44697.21
575.01	44378.90
575.17	44037.18
575.33	44133.14
575.49	44500.61
575.65	44767.43
575.82	44414.01
575.98	44444.43
576.14	45038.93
576.30	44837.64
576.46	44135.48
576.62	44336.77
576.79	44147.18
576.95	43941.22
577.11	44467.84
577.27	44421.03
577.43	44659.76
577.59	44512.31
577.75	44261.87
577.92	44243.15
578.08	44318.04
578.24	44212.72
578.40	44275.91
578.56	44233.78
578.72	44624.65
578.88	44917.22
579.04	44683.17
579.21	44308.68
579.37	44659.76
579.53	44514.65
579.69	44378.90
579.85	44842.32
580.01	44428.05
580.17	44463.16
580.33	44444.43
580.49	44528.69
580.65	44788.49
580.82	44626.99
580.98	44676.15
581.14	44137.82
581.30	44573.16
581.46	44519.33
581.62	44418.69
581.78	44465.50
581.94	44631.68
582.10	44549.76
582.26	44734.66
582.42	44547.42
582.58	44313.36
582.74	44437.41
582.90	44772.11
583.06	44758.06
583.22	45104.46
583.38	44947.65
583.54	44715.93
583.70	44472.52
583.86	44395.28
584.02	44596.57
584.18	44975.73
584.34	45104.46
584.50	44673.81
584.66	44371.88
584.82	44409.32
584.98	45118.51
585.14	44832.96
585.30	44765.09
585.46	44666.78
585.62	44512.31
585.78	44289.96
585.94	43906.11
586.10	44388.26
586.26	44397.62
586.42	44779.13
586.58	44746.36
586.74	44416.35
586.90	44472.52
587.06	44067.61
587.22	44837.64
587.38	44458.48
587.54	45043.61
587.70	44669.12
587.86	44839.98
588.02	44788.49
588.18	44940.63
588.34	45085.74
588.49	44362.51
588.65	44233.78
588.81	44182.29
588.97	44439.75
589.13	44451.45
589.29	44912.54
589.45	44678.49
589.61	44926.58
589.77	44971.05
589.93	44816.58
590.08	45237.87
590.24	44898.50
590.40	45020.20
590.56	44898.50
590.72	44797.85
590.88	44818.92
591.04	44893.82
591.20	45104.46
591.35	45106.80
591.51	44975.73
591.67	45216.81
591.83	44896.16
591.99	44959.35
592.15	44233.78
592.31	44790.83
592.46	44802.53
592.62	45118.51
592.78	45064.67
592.94	45015.52
593.10	45151.27
593.26	44905.52
593.41	44914.88
593.57	44872.75
593.73	44671.46
593.89	45291.71
594.05	44952.33
594.20	44823.60
594.36	44779.13
594.52	44919.56
594.68	45371.28
594.84	44847.00
594.99	45467.25
595.15	44942.97
595.31	44957.01
595.47	45067.02
595.62	45207.45
595.78	44678.49
595.94	44825.94
596.10	45179.36
596.25	45254.26
596.41	45116.17
596.57	45064.67
596.73	45104.46
596.88	44737.00
597.04	44882.11
597.20	45137.23
597.36	45125.53
597.51	45343.20
597.67	45181.70
597.83	45258.94
597.99	45209.79
598.14	45067.02
598.30	44751.04
598.46	45074.04
598.61	44938.29
598.77	44814.24
598.93	45015.52
599.09	45287.03
599.24	45312.77
599.40	45223.83
599.56	45305.75
599.71	45202.77
599.87	45170.00
600.03	45097.44
600.18	45102.12
600.34	45291.71
600.50	45038.93
600.65	44762.75
600.81	45380.65
600.97	45600.66
601.12	45317.45
601.28	45453.20
601.44	44825.94
601.59	45104.46
601.75	44973.39
601.91	45137.23
602.06	44935.95
602.22	44992.12
602.37	45242.56
602.53	44947.65
602.69	45247.24
602.84	44917.22
603.00	45184.04
603.16	45074.04
603.31	44851.69
603.47	44598.91
603.62	44858.71
603.78	44821.26
603.94	44893.82
604.09	45172.34
604.25	45078.72
604.40	45029.57
604.56	45375.97
604.71	45214.47
604.87	44863.39
605.03	45095.10
605.18	44964.03
605.34	44781.47
605.49	44598.91
605.65	44935.95
605.80	44942.97
605.96	44772.11
606.12	45146.59
606.27	45069.36
606.43	44690.19
606.58	45095.10
606.74	44905.52
606.89	45085.74
607.05	44678.49
607.20	45078.72
607.36	44935.95
607.51	45055.31
607.67	44619.97
607.82	45188.72
607.98	45067.02
608.13	44952.33
608.29	44339.11
608.44	44051.22
608.60	44039.52
608.75	44271.23
608.91	44664.44
609.06	44706.57
609.22	45013.18
609.37	44655.08
609.53	44706.57
609.68	45134.89
609.84	44678.49
609.99	44861.05
610.15	44636.36
610.30	44659.76
610.46	44421.03
610.61	44397.62
610.76	44577.84
610.92	44463.16
611.07	44332.09
611.23	44252.51
611.38	44437.41
611.54	44488.90
611.69	44219.74
611.84	44196.34
612.00	44006.75
612.15	44257.19
612.31	44737.00
612.46	44186.97
612.62	44917.22
612.77	44547.42
612.92	44502.95
613.08	44278.25
613.23	44669.12
613.39	44720.62
613.54	43763.34
613.69	44109.74
613.85	44205.70
614.00	44802.53
614.15	44189.31
614.31	44797.85
614.46	44641.04
614.62	44179.95
614.77	44388.26
614.92	43812.49
615.08	43934.20
615.23	43868.66
615.38	44144.84
615.54	43700.14
615.69	43735.25
615.84	43796.10
616.00	44009.09
616.15	43952.92
616.30	43906.11
616.46	43622.90
616.61	43302.25
616.76	43711.84
616.92	43360.76
617.07	43814.83
617.22	43779.72
617.37	43538.65
617.53	44147.18
617.68	44081.65
617.83	43786.74
617.99	43882.70
618.14	43782.06
618.29	43433.32
618.45	43234.38
618.60	43456.73
618.75	43660.35
618.90	43566.73
619.06	43643.97
619.21	43398.21
619.36	43761.00
619.51	43615.88
619.67	43386.51
619.82	43512.90
619.97	43566.73
620.12	43033.09
620.28	43107.99
620.43	43129.05
620.58	43082.24
620.73	43447.36
620.89	43002.66
621.04	43140.75
621.19	43353.74
621.34	42899.68
621.49	42979.26
621.65	42792.01
621.80	43042.45
621.95	42621.16
622.10	43098.62
622.25	42649.24
622.41	42314.55
622.56	42880.95
622.71	43250.76
622.86	42976.92
623.01	43180.54
623.16	42895.00
623.32	42740.52
623.47	43187.56
623.62	43044.79
623.77	42656.26
623.92	42948.83
624.07	42244.33
624.23	42679.67
624.38	42232.63
624.53	42576.69
624.68	42792.01
624.83	42230.29
624.98	42686.69
625.13	41902.61
625.29	42733.50
625.44	42717.12
625.59	42459.66
625.74	42536.90
625.89	42010.28
626.04	42059.43
626.19	42160.07
626.34	42412.85
626.49	42366.04
626.65	42323.91
626.80	42651.58
626.95	41823.03
627.10	42143.69
627.25	42014.96
627.40	41570.25
627.55	41525.78
627.70	41734.09
627.85	41588.98
628.00	41759.84
628.15	42099.22
628.30	42169.43
628.45	41670.90
628.60	41956.44
628.76	42106.24
628.91	41811.33
629.06	41860.48
629.21	42007.94
629.36	41488.34
629.51	41230.88
629.66	41544.51
629.81	41464.93
629.96	41663.88
630.11	41771.54
630.26	41965.81
630.41	41846.44
630.56	41970.49
630.71	41755.16
630.86	41462.59
631.01	41507.06
631.16	41228.54
631.31	41296.41
631.46	41158.32
631.61	41099.81
631.76	41507.06
631.91	41010.87
632.06	40800.22
632.21	41076.40
632.36	40959.38
632.51	41397.06
632.66	41233.22
632.81	40938.31
632.96	41038.95
633.10	40697.24
633.25	40706.60
633.40	40978.10
633.55	41277.69
633.70	40825.96
633.85	40533.40
634.00	41008.53
634.15	40954.69
634.30	41392.37
634.45	40697.24
634.60	40917.25
634.75	41022.57
634.90	41099.81
635.05	41001.50
635.19	41029.59
635.34	41188.75
635.49	40580.21
635.64	40959.38
635.79	40774.47
635.94	40570.85
636.09	40535.74
636.24	40301.68
636.39	40437.44
636.53	40362.54
636.68	39906.13
636.83	40156.57
636.98	40620.00
637.13	40144.87
637.28	40130.83
637.43	40512.33
637.57	40615.32
637.72	40683.19
637.87	40538.08
638.02	40467.86
638.17	40177.64
638.32	39498.88
638.46	39636.97
638.61	39887.41
638.76	40032.52
638.91	39964.65
639.06	40261.90
639.20	40449.14
639.35	40371.90
639.50	40217.43
639.65	40315.73
639.80	40137.85
639.94	39826.56
640.09	39908.47
640.24	39761.02
640.39	39569.10
640.54	39468.45
640.68	39714.21
640.83	39952.94
640.98	39737.62
641.13	39573.78
641.27	40257.21
641.42	39611.23
641.57	39611.23
641.72	39576.12
641.86	39587.82
642.01	39222.70
642.16	39559.73
642.31	39035.45
642.45	39227.38
642.60	39014.39
642.75	39243.76
642.90	39229.72
643.04	39309.30
643.19	38923.11
643.34	39555.05
643.48	39688.46
643.63	39445.05
643.78	39351.43
643.93	38820.13
644.07	38787.36
644.22	39047.16
644.37	38895.02
644.51	38937.15
644.66	39033.11
644.81	39005.03
644.95	39372.49
645.10	39201.63
645.25	39311.64
645.39	38728.84
645.54	38892.68
645.69	38822.47
645.83	39222.70
645.98	38909.07
646.13	39016.73
646.27	38618.84
646.42	38532.24
646.57	38682.03
646.71	39206.31
646.86	38841.19
647.00	38873.96
647.15	38712.46
647.30	38593.09
647.44	38925.45
647.59	38410.53
647.74	38838.85
647.88	38735.87
648.03	38398.83
648.17	38335.63
648.32	38054.77
648.47	38387.13
648.61	38218.61
648.76	38766.29
648.90	38480.75
649.05	38438.62
649.20	38782.68
649.34	38415.21
649.49	38696.08
649.63	38082.86
649.78	38047.75
649.92	38239.67
650.07	38286.48
650.21	38227.97
650.36	38375.42
650.51	38075.84
650.65	38157.75
650.80	38670.33
650.94	38373.08
651.09	38398.83
651.23	37970.51
651.38	38574.37
651.52	37872.21
651.67	37830.08
651.81	38333.29
651.96	37851.14
652.10	37755.18
652.25	37921.36
652.39	37603.05
652.54	37591.34
652.68	38092.22
652.83	37790.29
652.97	37963.49
653.12	37869.87
653.26	37605.39
653.41	37890.93
653.55	37476.66
653.70	37495.38
653.84	37834.76
653.99	37422.83
654.13	37525.81
654.27	37284.73
654.42	37516.45
654.56	37422.83
654.71	37287.07
654.85	37118.56
655.00	37479.00
655.14	36968.76
655.29	36938.33
655.43	37076.43
655.57	36879.82
655.72	36503.00
655.86	37015.57
656.01	37064.72
656.15	36931.31
656.30	36914.93
656.44	37174.73
656.58	36877.48
656.73	36823.65
656.87	36919.61
657.01	36706.62
657.16	36774.50
657.30	36500.65
657.45	36739.39
657.59	36968.76
657.73	36503.00
657.88	36727.69
658.02	36727.69
658.16	36517.04
658.31	36917.27
658.45	37029.62
658.60	36582.57
658.74	36610.66
658.88	36500.65
659.03	36041.91
659.17	36332.14
659.31	36622.36
659.46	36053.61
659.60	36680.88
659.74	36023.19
659.89	36290.01
660.03	35866.37
660.17	36346.18
660.32	36149.57
660.46	36348.52
660.60	36350.86
660.74	36491.29
660.89	36425.76
661.03	35686.15
661.17	35552.74
661.32	35271.87
661.46	35833.60
661.60	35688.49
661.74	35569.12
661.89	35512.95
662.03	35775.09
662.17	35164.21
662.31	35356.13
662.46	35730.62
662.60	35402.94
662.74	35438.05
662.88	35367.84
663.03	35580.82
663.17	35639.34
663.31	35487.20
663.45	35126.76
663.60	34967.60
663.74	34871.64
663.88	35091.65
664.02	34794.40
664.17	35054.20
664.31	34579.07
664.45	34642.27
664.59	35433.37
664.73	35194.64
664.88	35009.73
665.02	34223.31
665.16	34520.56
665.30	34836.53
665.44	34703.12
665.59	33757.55
665.73	34061.82
665.87	34031.39
666.01	34588.44
666.15	34059.48
666.29	34342.68
666.44	34291.19
666.58	34122.67
666.72	34082.88
666.86	34155.44
667.00	34026.71
667.14	33703.71
667.28	33441.57
667.43	33813.72
667.57	33827.76
667.71	33509.45
667.85	33713.08
667.99	33708.40
668.13	33333.91
668.27	33743.50
668.41	33364.34
668.56	33151.35
668.70	33443.91
668.84	33312.84
668.98	32889.21
669.12	33127.94
669.26	33141.99
669.40	32954.74
669.54	32734.73
669.68	33198.16
669.82	33151.35
669.96	32896.23
670.10	32645.79
670.25	32748.78
670.39	32725.37
670.53	32676.22
670.67	32332.16
670.81	32975.81
670.95	33029.64
671.09	32517.06
671.23	32439.82
671.37	32474.93
671.51	32219.81
671.65	32285.35
671.79	32278.33
671.93	32266.63
672.07	31938.95
672.21	31948.31
672.35	31662.77
672.49	31899.16
672.63	32238.54
672.77	31527.02
672.91	31468.50
673.05	31580.85
673.19	31721.28
673.33	31257.85
673.47	31009.76
673.61	31405.31
673.75	30829.54
673.89	31028.48
674.03	30869.33
674.17	31047.21
674.31	30888.05
674.45	30536.97
674.59	30775.70
674.73	31257.85
674.87	30862.30
675.01	30799.11
675.15	30724.21
675.29	30979.33
675.43	30450.37
675.56	30349.73
675.70	30462.07
675.84	30211.64
675.98	29364.36
676.12	30033.75
676.26	30122.69
676.40	29998.65
676.54	29638.20
676.68	29788.00
676.82	29242.65
676.96	29570.33
677.10	29392.45
677.23	29401.81
677.37	29387.77
677.51	29270.74
677.65	29343.30
677.79	28559.22
677.93	29273.08
678.07	28720.71
678.21	28589.64
678.34	29032.00
678.48	28613.05
678.62	28423.47
678.76	28666.88
678.90	28032.60
679.04	28416.44
679.18	28474.96
679.31	28058.34
679.45	27882.80
679.59	27740.03
679.73	27510.66
679.87	27976.42
680.00	27725.99
680.14	27402.99
680.28	27566.83
680.42	27456.82
680.56	27477.89
680.70	27374.91
680.83	27321.07
680.97	27091.70
681.11	27075.32
681.25	26771.05
681.39	26717.22
681.52	27110.43
681.66	26647.00
681.80	26595.51
681.94	26544.02
682.07	26375.50
682.21	26525.29
682.35	26251.45
682.49	26485.50
682.62	26312.30
682.76	25795.04
682.90	25958.88
683.04	25926.11
683.17	25956.54
683.31	25862.92
683.45	25970.58
683.59	25570.35
683.72	25394.81
683.86	25249.70
684.00	25252.04
684.13	25046.07
684.27	25287.15
684.41	25048.41
684.55	24851.81
684.68	25228.63
684.82	24503.07
684.96	24493.71
685.09	25025.01
685.23	24570.94
685.37	24400.08
685.50	24397.74
685.64	24575.62
685.78	24102.84
685.91	24175.39
686.05	24196.46
686.19	23831.33
686.32	23711.97
686.46	23749.42
686.60	23468.55
686.73	23681.54
686.87	23414.72
687.01	23213.43
687.14	22981.72
687.28	23344.50
687.42	22881.08
687.55	23035.55
687.69	22953.63
687.82	23147.90
687.96	22787.46
688.10	22731.28
688.23	22569.79
688.37	22293.60
688.50	22560.42
688.64	22209.34
688.78	21984.65
688.91	22073.59
689.05	22288.92
689.18	22113.38
689.32	21303.56
689.46	21797.41
689.59	21921.46
689.73	22010.40
689.86	21542.29
690.00	21476.76
690.13	21432.29
690.27	21432.29
690.41	21341.00
690.54	21373.77
690.68	20943.11
690.81	21118.65
690.95	21282.49
691.08	21060.14
691.22	21083.55
691.35	20863.54
691.49	20790.98
691.62	20980.56
691.76	20891.62
691.89	20547.56
692.03	20470.33
692.16	20121.59
692.30	20271.38
692.43	20542.88
692.57	20376.70
692.70	20245.63
692.84	20044.35
692.97	19960.09
693.11	19646.46
693.24	19243.88
693.38	19571.56
693.51	19178.35
693.65	19459.21
693.78	19424.11
693.92	19524.75
694.05	19276.65
694.19	19349.21
694.32	19222.82
694.45	19215.80
694.59	19257.93
694.72	18609.60
694.86	18920.89
694.99	18876.42
695.13	18630.66
695.26	18368.52
695.39	18204.69
695.53	18438.74
695.66	18588.53
695.80	18038.51
695.93	18120.43
696.07	17755.30
696.20	18183.62
696.33	18146.17
696.47	18174.26
696.60	17832.54
696.73	17778.71
696.87	17603.17
697.00	17469.76
697.14	17584.44
697.27	17671.04
697.40	17474.44
697.54	17123.36
697.67	17345.71
697.80	17167.83
697.94	17111.66
698.07	16856.54
698.21	17158.47
698.34	17076.55
698.47	16844.84
698.61	16554.61
698.74	16475.03
698.87	16482.05
699.01	16292.47
699.14	16177.78
699.27	16250.34
699.40	16418.86
699.54	16203.53
699.67	15992.88
699.80	16002.24
699.94	15854.79
700.07	15999.90
700.20	15800.96
700.34	15611.37
700.47	15793.94
700.60	15744.78
700.73	15845.43
700.87	15747.12
701.00	15384.34
701.13	15531.80
701.26	15349.23
701.40	15477.96
701.53	15138.58
701.66	15133.90
701.79	15147.95
701.93	14977.09
702.06	14623.67
702.19	14848.36
702.32	14878.79
702.46	14864.74
702.59	14654.09
702.72	14993.47
702.85	14579.20
702.99	14789.85
703.12	14771.12
703.25	14771.12
703.38	14321.74
703.51	14183.65
703.65	14090.02
703.78	14218.75
703.91	14146.20
704.04	14033.85
704.17	13980.02
704.31	14059.60
704.44	13439.36
704.57	13664.05
704.70	13790.44
704.83	13738.94
704.96	13671.07
705.10	13561.06
705.23	13509.57
>>>>>End Processed Spectral Data<<<<<
