SpectraSuite Data File
++++++++++++++++++++++++++++++++++++
Date: Fri Oct 25 10:47:30 EDT 2013
User: price-jones
Dark Spectrum Present: No
Reference Spectrum Present: No
Number of Sampled Component Spectra: 1
Spectrometers: USB2+H05261
Integration Time (usec): 100000 (USB2+H05261)
Spectra Averaged: 1 (USB2+H05261)
Boxcar Smoothing: 0 (USB2+H05261)
Correct for Electrical Dark: No (USB2+H05261)
Strobe/Lamp Enabled: No (USB2+H05261)
Correct for Detector Non-linearity: No (USB2+H05261)
Correct for Stray Light: No (USB2+H05261)
Number of Pixels in Processed Spectrum: 2048
>>>>>Begin Processed Spectral Data<<<<<
365.73	149.79
365.92	149.79
366.12	149.79
366.32	93.62
366.52	0.00
366.72	98.30
366.91	60.85
367.11	49.15
367.31	0.00
367.51	16.38
367.70	65.54
367.90	51.49
368.10	65.54
368.30	56.17
368.49	74.90
368.69	63.19
368.89	70.22
369.09	16.38
369.28	42.13
369.48	107.66
369.68	46.81
369.87	72.56
370.07	102.98
370.27	128.73
370.47	222.35
370.66	353.42
370.86	407.25
371.06	414.27
371.25	505.56
371.45	416.62
371.65	458.74
371.84	475.13
372.04	440.02
372.24	582.79
372.44	423.64
372.63	470.45
372.83	477.47
373.03	447.04
373.22	461.09
373.42	531.30
373.62	472.79
373.81	526.62
374.01	531.30
374.21	596.84
374.40	528.96
374.60	589.82
374.79	573.43
374.99	564.07
375.19	517.26
375.38	535.98
375.58	559.39
375.78	507.90
375.97	519.60
376.17	683.44
376.37	545.34
376.56	526.62
376.76	538.32
376.95	594.50
377.15	545.34
377.35	589.82
377.54	531.30
377.74	634.29
377.93	634.29
378.13	568.75
378.33	638.97
378.52	582.79
378.72	695.14
378.91	535.98
379.11	697.48
379.31	512.58
379.50	552.37
379.70	641.31
379.89	655.35
380.09	653.01
380.28	667.05
380.48	676.41
380.68	601.52
380.87	624.92
381.07	669.39
381.26	737.27
381.46	645.99
381.65	744.29
381.85	599.18
382.04	695.14
382.24	702.16
382.43	620.24
382.63	704.50
382.83	629.60
383.02	713.86
383.22	718.54
383.41	690.46
383.61	617.90
383.80	725.57
384.00	711.52
384.19	800.46
384.39	648.33
384.58	713.86
384.78	699.82
384.97	777.06
385.17	798.12
385.36	765.36
385.56	791.10
385.75	744.29
385.95	692.80
386.14	840.25
386.34	760.67
386.53	779.40
386.72	786.42
386.92	849.61
387.11	814.51
387.31	819.19
387.50	791.10
387.70	779.40
387.89	795.78
388.09	837.91
388.28	844.93
388.48	835.57
388.67	812.17
388.86	805.14
389.06	828.55
389.25	901.11
389.45	903.45
389.64	926.85
389.84	842.59
390.03	807.48
390.22	983.02
390.42	905.79
390.61	798.12
390.81	877.70
391.00	858.98
391.19	943.24
391.39	924.51
391.58	976.00
391.78	968.98
391.97	985.37
392.16	976.00
392.36	917.49
392.55	903.45
392.75	901.11
392.94	985.37
393.13	1004.09
393.33	933.87
393.52	889.40
393.71	922.17
393.91	1121.12
394.10	999.41
394.29	1048.56
394.49	973.66
394.68	1109.41
394.88	1111.75
395.07	1107.07
395.26	1109.41
395.46	1128.14
395.65	1107.07
395.84	1088.35
396.04	1041.54
396.23	1032.18
396.42	1114.10
396.62	1121.12
396.81	1135.16
397.00	1114.10
397.19	1198.35
397.39	1247.51
397.58	1231.12
397.77	1198.35
397.97	1268.57
398.16	1196.01
398.35	1275.59
398.55	1252.19
398.74	1221.76
398.93	1310.70
399.12	1411.34
399.32	1200.69
399.51	1320.06
399.70	1336.45
399.90	1369.21
400.09	1282.61
400.28	1350.49
400.47	1366.87
400.67	1409.00
400.86	1369.21
401.05	1362.19
401.24	1495.60
401.44	1535.39
401.63	1462.83
401.82	1476.88
402.01	1378.58
402.21	1481.56
402.40	1516.67
402.59	1441.77
402.78	1448.79
402.97	1516.67
403.17	1490.92
403.36	1544.75
403.55	1495.60
403.74	1673.48
403.93	1654.76
404.13	1554.12
404.32	1598.59
404.51	1502.62
404.70	1741.36
404.89	1666.46
405.09	1696.89
405.28	1694.55
405.47	1612.63
405.66	1764.76
405.85	1724.97
406.05	1675.82
406.24	1720.29
406.43	1724.97
406.62	1825.62
406.81	1811.57
407.00	1729.66
407.20	1720.29
407.39	1739.02
407.58	1816.26
407.77	1893.49
407.96	1937.96
408.15	1980.09
408.34	1893.49
408.54	1914.56
408.73	2033.93
408.92	1914.56
409.11	1970.73
409.30	1994.14
409.49	1947.33
409.68	2026.90
409.87	2069.03
410.07	1982.43
410.26	2050.31
410.45	2040.95
410.64	2176.70
410.83	2162.66
411.02	2118.18
411.21	2275.00
411.40	2193.08
411.59	2317.13
411.78	2090.10
411.98	2188.40
412.17	2303.09
412.36	2094.78
412.55	2272.66
412.74	2263.30
412.93	2417.77
413.12	2319.47
413.31	2368.62
413.50	2436.50
413.69	2359.26
413.88	2389.69
414.07	2553.52
414.26	2504.37
414.45	2523.10
414.64	2530.12
414.83	2516.08
415.02	2518.42
415.22	2647.15
415.41	2708.00
415.60	2579.27
415.79	2609.70
415.98	2885.88
416.17	2768.85
416.36	2885.88
416.55	2860.13
416.74	2815.66
416.93	2855.45
417.12	2899.92
417.31	2916.31
417.50	2867.16
417.69	2869.50
417.88	2972.48
418.07	2808.64
418.26	3112.91
418.45	2965.46
418.64	3061.42
418.83	3052.06
419.02	3136.32
419.21	3133.98
419.39	3038.02
419.58	2988.86
419.77	3119.93
419.96	3199.51
420.15	3229.94
420.34	3267.39
420.53	3253.34
420.72	3370.37
420.91	3138.66
421.10	3304.84
421.29	3332.92
421.48	3323.56
421.67	3363.35
421.86	3288.45
422.05	3382.07
422.24	3368.03
422.43	3314.20
422.61	3417.18
422.80	3379.73
422.99	3368.03
423.18	3419.52
423.37	3480.38
423.56	3517.83
423.75	3538.89
423.94	3342.28
424.13	3218.24
424.32	3344.63
424.50	3431.23
424.69	3447.61
424.88	3574.00
425.07	3349.31
425.26	3346.97
425.45	3358.67
425.64	3449.95
425.83	3407.82
426.01	3496.76
426.20	3508.46
426.39	3351.65
426.58	3438.25
426.77	3405.48
426.96	3559.95
427.15	3536.55
427.33	3606.77
427.52	3524.85
427.71	3674.64
427.90	3506.12
428.09	3707.41
428.28	3534.21
428.46	3695.71
428.65	3646.55
428.84	3808.05
429.03	3915.72
429.22	3630.17
429.40	3606.77
429.59	3653.58
429.78	3599.74
429.97	3604.42
430.16	3838.48
430.34	3735.50
430.53	3805.71
430.72	3847.84
430.91	3648.90
431.10	3761.24
431.28	3859.54
431.47	3978.91
431.66	4035.08
431.85	3962.53
432.03	4128.70
432.22	4114.66
432.41	4051.47
432.60	4081.89
432.79	3990.61
432.97	4159.13
433.16	4224.67
433.35	4166.15
433.54	4205.94
433.72	4255.09
433.91	4117.00
434.10	4088.92
434.28	4224.67
434.47	4257.43
434.66	4353.40
434.85	4374.46
435.03	4259.78
435.22	4465.74
435.41	4299.56
435.59	4407.23
435.78	4362.76
435.97	4334.67
436.16	4461.06
436.34	4379.14
436.53	4557.02
436.72	4575.75
436.90	4430.63
437.09	4505.53
437.28	4416.59
437.46	4568.73
437.65	4784.06
437.84	4727.88
438.02	4496.17
438.21	4351.06
438.40	4589.79
438.58	4819.16
438.77	4861.29
438.96	4690.43
439.14	4690.43
439.33	4856.61
439.52	4828.53
439.70	4940.87
439.89	4997.04
440.08	5135.14
440.26	4990.02
440.45	4954.91
440.63	5053.22
440.82	5144.50
441.01	5165.56
441.19	5111.73
441.38	5387.91
441.57	5315.36
441.75	5345.78
441.94	5308.34
442.12	5518.98
442.31	5432.38
442.50	5460.47
442.68	5378.55
442.87	5542.39
443.05	5432.38
443.24	5694.52
443.43	5537.71
443.61	5727.29
443.80	5991.77
443.98	5603.24
444.17	5399.62
444.35	5813.89
444.54	5870.06
444.73	5659.42
444.91	5565.79
445.10	5596.22
445.28	5797.51
445.47	5657.07
445.65	5619.63
445.84	5750.70
446.02	5685.16
446.21	5706.23
446.39	5631.33
446.58	5703.89
446.77	5797.51
446.95	5738.99
447.14	5846.66
447.32	5909.85
447.51	5659.42
447.69	5849.00
447.88	5856.02
448.06	5947.30
448.25	5671.12
448.43	5820.91
448.62	5954.32
448.80	5741.33
448.99	5944.96
449.17	5914.53
449.36	5886.45
449.54	6031.56
449.73	6083.05
449.91	6085.39
450.10	6183.70
450.28	6286.68
450.46	6239.87
450.65	6223.48
450.83	6270.30
451.02	6272.64
451.20	6239.87
451.39	6289.02
451.57	6319.45
451.76	6120.50
451.94	6253.91
452.13	6424.77
452.31	6324.13
452.49	6155.61
452.68	6427.11
452.86	6244.55
453.05	6251.57
453.23	6373.28
453.42	6319.45
453.60	6356.90
453.78	6525.41
453.97	6394.34
454.15	6513.71
454.34	6420.09
454.52	6363.92
454.70	6604.99
454.89	6427.11
455.07	6595.63
455.26	6518.39
455.44	6621.38
455.62	6654.14
455.81	6778.19
455.99	6843.73
456.17	6899.90
456.36	6890.54
456.54	6810.96
456.73	6920.96
456.91	6991.18
457.09	7068.42
457.28	7178.42
457.46	7021.61
457.64	7136.29
457.83	6993.52
458.01	7047.35
458.19	7227.57
458.38	7234.60
458.56	7169.06
458.74	7286.09
458.93	7171.40
459.11	7250.98
459.29	7417.16
459.48	7328.22
459.66	7281.41
459.84	7328.22
460.03	7480.35
460.21	7339.92
460.39	7297.79
460.57	7262.68
460.76	7452.27
460.94	7431.20
461.12	7660.57
461.31	7517.80
461.49	7585.68
461.67	7328.22
461.85	7749.51
462.04	7669.94
462.22	8081.87
462.40	7789.30
462.59	7754.19
462.77	7681.64
462.95	7981.23
463.13	7934.42
463.32	7751.85
463.50	7840.79
463.68	8102.93
463.86	7793.98
464.05	7960.16
464.23	7964.84
464.41	7894.63
464.59	7728.45
464.78	7964.84
464.96	8002.29
465.14	7824.41
465.32	7896.97
465.50	8294.86
465.69	8231.66
465.87	8077.19
466.05	8222.30
466.23	8154.43
466.41	8070.17
466.60	8269.11
466.78	8070.17
466.96	8098.25
467.14	8135.70
467.32	8124.00
467.51	8182.51
467.69	8042.08
467.87	8255.07
468.05	8465.72
468.23	8404.86
468.41	8226.98
468.60	8517.21
468.78	8255.07
468.96	8493.80
469.14	8676.37
469.32	8667.00
469.50	8259.75
469.69	8554.66
469.87	8617.85
470.05	8638.92
470.23	8624.87
470.41	8587.43
470.59	8786.37
470.77	8753.60
470.95	8641.26
471.14	8868.29
471.32	8610.83
471.50	8964.25
471.68	8912.76
471.86	9104.68
472.04	9226.39
472.22	9320.01
472.40	8863.61
472.58	9177.24
472.77	9287.25
472.95	9530.66
473.13	9579.81
473.31	9186.60
473.49	9465.13
473.67	9465.13
473.85	9451.08
474.03	9701.52
474.21	9455.76
474.39	9771.74
474.57	9907.49
474.75	9750.67
474.93	9792.80
475.12	9722.59
475.30	10076.01
475.48	9980.04
475.66	10146.22
475.84	10001.11
476.02	10136.86
476.20	10251.55
476.38	10436.45
476.56	10483.26
476.74	10363.89
476.92	10544.11
477.10	10548.79
477.28	10679.86
477.46	10544.11
477.64	10719.65
477.82	10686.89
478.00	10986.47
478.18	11108.18
478.36	11145.63
478.54	11253.30
478.72	11185.42
478.90	11592.67
479.08	11501.39
479.26	11580.97
479.44	11686.29
479.62	11611.40
479.80	11779.92
479.98	11719.06
480.16	12180.15
480.34	12053.76
480.52	12121.63
480.70	12147.38
480.88	12081.85
481.06	12271.43
481.24	12245.68
481.41	12500.80
481.59	12615.49
481.77	12606.13
481.95	12697.41
482.13	13018.06
482.31	12901.03
482.49	13209.98
482.67	13315.31
482.85	13247.43
483.03	13448.72
483.21	13401.91
483.39	13783.41
483.57	13797.46
483.74	13860.65
483.92	13731.92
484.10	13731.92
484.28	14193.01
484.46	14420.04
484.64	14621.33
484.82	14260.88
485.00	14263.22
485.18	14843.68
485.35	14867.08
485.53	14890.49
485.71	14867.08
485.89	14988.79
486.07	14689.20
486.25	15108.16
486.43	15335.19
486.61	15349.23
486.78	15749.46
486.96	15737.76
487.14	16065.44
487.32	15889.90
487.50	16248.00
487.68	16170.76
487.85	16322.90
488.03	16681.00
488.21	16549.93
488.39	16568.65
488.57	16828.45
488.75	16690.36
488.92	17458.06
489.10	17224.00
489.28	17451.03
489.46	17659.34
489.64	17345.71
489.81	17809.14
489.99	17755.30
490.17	18008.08
490.35	18466.83
490.53	18097.02
490.70	18253.84
490.88	18356.82
491.06	18808.54
491.24	18693.86
491.41	18595.56
491.59	18881.10
491.77	18930.25
491.95	19344.53
492.13	19374.95
492.30	19459.21
492.48	19339.85
492.66	19566.88
492.84	19681.56
493.01	19899.23
493.19	19501.34
493.37	20231.59
493.54	20231.59
493.72	20379.04
493.90	20063.07
494.08	20545.22
494.25	20877.58
494.43	20856.51
494.61	20877.58
494.79	20711.40
494.96	21179.51
495.14	21202.91
495.32	21205.25
495.49	21357.39
495.67	21561.02
495.85	21373.77
496.02	21680.38
496.20	21928.48
496.38	22003.38
496.55	22043.17
496.73	22448.08
496.91	22204.66
497.09	22438.72
497.26	22302.96
497.44	22532.34
497.62	22501.91
497.79	23005.13
497.97	22799.16
498.14	23037.89
498.32	23295.35
498.50	22817.88
498.67	23417.06
498.85	23358.55
499.03	23772.82
499.20	23690.90
499.38	23770.48
499.56	23506.00
499.73	23943.68
499.91	23618.35
500.08	24034.96
500.26	23871.12
500.44	24252.63
500.61	24304.12
500.79	24294.76
500.97	24315.83
501.14	24989.90
501.32	24992.24
501.49	24893.94
501.67	24528.81
501.84	24966.49
502.02	25064.80
502.20	25090.54
502.37	25156.08
502.55	25282.47
502.72	25153.74
502.90	25617.16
503.07	25425.24
503.25	25462.69
503.43	25649.93
503.60	25453.33
503.78	25872.28
503.95	25542.27
504.13	25872.28
504.30	25935.48
504.48	25944.84
504.65	26087.61
504.83	26347.41
505.01	26546.36
505.18	26766.37
505.36	26710.19
505.53	26448.05
505.71	26904.46
505.88	26920.84
506.06	26775.73
506.23	26895.10
506.41	27211.07
506.58	26749.98
506.76	27161.92
506.93	27192.34
507.11	27234.47
507.28	26850.63
507.46	27215.75
507.63	27358.52
507.81	27314.05
507.98	27351.50
508.16	27690.88
508.33	27866.42
508.50	28098.13
508.68	28215.16
508.85	28505.38
509.03	27784.50
509.20	28180.05
509.38	28292.40
509.55	28606.03
509.73	28734.76
509.90	28577.94
510.08	28367.29
510.25	28723.05
510.42	28760.50
510.60	29013.28
510.77	29078.82
510.95	28975.83
511.12	29273.08
511.30	29329.25
511.47	29596.07
511.64	29441.60
511.82	29743.53
511.99	29729.48
512.17	29537.56
512.34	29680.33
512.51	29591.39
512.69	29991.62
512.86	30333.34
513.04	30281.85
513.21	30141.42
513.38	30370.79
513.56	30309.94
513.73	29900.34
513.90	30120.35
514.08	30036.09
514.25	30391.86
514.43	30345.05
514.60	30150.78
514.77	30471.43
514.95	30639.95
515.12	30785.07
515.29	30955.93
515.47	30654.00
515.64	31213.38
515.81	31161.89
515.99	31150.19
516.16	31089.34
516.33	30881.03
516.51	31475.52
516.68	31026.14
516.85	31103.38
517.03	30955.93
517.20	31452.12
517.37	31447.44
517.54	31723.62
517.72	31901.50
517.89	31765.75
518.06	31608.93
518.24	31695.53
518.41	31538.72
518.58	31709.58
518.75	31978.74
518.93	32355.57
519.10	31967.04
519.27	32261.94
519.45	32584.94
519.62	32662.18
519.79	32488.98
519.96	32507.70
520.14	32608.34
520.31	32638.77
520.48	32718.35
520.65	32758.14
520.83	32524.08
521.00	33104.54
521.17	32879.85
521.34	32943.04
521.52	33109.22
521.69	33392.42
521.86	33270.72
522.03	33429.87
522.20	33617.11
522.38	33764.57
522.55	33837.12
522.72	33518.81
522.89	33729.46
523.07	33802.02
523.24	33397.10
523.41	33804.36
523.58	33905.00
523.75	34366.09
523.92	33785.63
524.10	34412.90
524.27	34771.00
524.44	34359.06
524.61	34635.25
524.78	34637.59
524.96	34459.71
525.13	34506.52
525.30	34712.49
525.47	35007.39
525.64	35164.21
525.81	34888.03
525.98	34969.94
526.16	34415.24
526.33	34600.14
526.50	34967.60
526.67	34962.92
526.84	34859.94
527.01	34806.11
527.18	35007.39
527.36	35393.58
527.53	35012.07
527.70	35409.96
527.87	35793.81
528.04	35615.93
528.21	35686.15
528.38	35873.39
528.55	36016.16
528.72	35531.67
528.89	35910.84
529.07	35665.08
529.24	35651.04
529.41	36098.08
529.58	35674.45
529.75	36034.89
529.92	36123.83
530.09	36350.86
530.26	36112.13
530.43	36135.53
530.60	36112.13
530.77	36135.53
530.94	36327.45
531.11	36435.12
531.28	36753.43
531.46	36631.72
531.63	36390.65
531.80	36692.58
531.97	36472.57
532.14	36851.73
532.31	37048.34
532.48	37195.79
532.65	37163.03
532.82	36767.48
532.99	36753.43
533.16	36708.96
533.33	37095.15
533.50	37165.37
533.67	37324.52
533.84	36816.63
534.01	37226.22
534.18	36795.56
534.35	38094.56
534.52	37528.15
534.69	37120.90
534.86	37663.90
535.03	37713.05
535.20	37858.17
535.37	37837.10
535.54	37495.38
535.71	37734.12
535.88	37687.31
536.05	37963.49
536.22	37682.62
536.38	37724.75
536.55	37933.06
536.72	38000.94
536.89	37785.61
537.06	38029.02
537.23	38024.34
537.40	37935.40
537.57	38225.63
537.74	38169.46
537.91	38759.27
538.08	38714.80
538.25	38337.98
538.42	38368.40
538.59	38948.85
538.75	38150.73
538.92	38438.62
539.09	38866.94
539.26	38831.83
539.43	38829.49
539.60	38787.36
539.77	38557.99
539.94	38993.32
540.11	39030.77
540.28	38953.54
540.44	39014.39
540.61	39131.42
540.78	38754.59
540.95	39318.66
541.12	38904.38
541.29	39131.42
541.46	38998.01
541.62	39084.61
541.79	39714.21
541.96	39009.71
542.13	38923.11
542.30	39377.17
542.47	39250.78
542.63	39379.51
542.80	39512.92
542.97	39686.12
543.14	40102.74
543.31	40156.57
543.48	39690.80
543.64	40439.78
543.81	40224.45
543.98	40023.16
544.15	40032.52
544.32	40130.83
544.48	40872.78
544.65	40332.11
544.82	40318.07
544.99	39981.03
545.16	40037.20
545.32	39835.92
545.49	40109.76
545.66	40257.21
545.83	40596.59
546.00	40339.13
546.16	40465.52
546.33	40151.89
546.50	39878.05
546.67	40346.15
546.83	40133.17
547.00	40456.16
547.17	40851.71
547.34	40706.60
547.50	41134.92
547.67	40865.75
547.84	40957.03
548.00	40854.05
548.17	41144.28
548.34	40509.99
548.51	40666.81
548.67	40994.48
548.84	41141.94
549.01	41200.45
549.18	40472.54
549.34	41170.02
549.51	41359.61
549.68	41404.08
549.84	41064.70
550.01	41565.57
550.18	41153.64
550.34	41237.90
550.51	41067.04
550.68	41085.76
550.84	40893.84
551.01	41380.67
551.18	41165.34
551.34	41015.55
551.51	41411.10
551.68	41663.88
551.84	41698.98
552.01	41642.81
552.18	41588.98
552.34	41869.84
552.51	41940.06
552.68	41593.66
552.84	41656.85
553.01	42131.98
553.18	41783.24
553.34	41783.24
553.51	41581.96
553.67	42099.22
553.84	41879.21
554.01	42380.08
554.17	42354.33
554.34	42291.14
554.51	41743.45
554.67	42099.22
554.84	42270.08
555.00	41928.36
555.17	42316.89
555.33	42377.74
555.50	42380.08
555.67	42347.31
555.83	42459.66
556.00	42249.01
556.16	42747.54
556.33	42684.35
556.50	42122.62
556.66	42609.45
556.83	42078.15
556.99	42651.58
557.16	42841.17
557.32	42775.63
557.49	42623.50
557.65	42553.28
557.82	42525.19
557.98	42113.26
558.15	42866.91
558.32	43274.16
558.48	42880.95
558.65	42738.18
558.81	42377.74
558.98	42763.93
559.14	42663.28
559.31	42527.53
559.47	42792.01
559.64	43129.05
559.80	43014.37
559.97	42965.21
560.13	42651.58
560.30	43126.71
560.46	42581.37
560.63	43051.81
560.79	43002.66
560.96	43246.08
561.12	42878.61
561.29	43119.69
561.45	43035.43
561.61	42806.06
561.78	43002.66
561.94	42691.37
562.11	42902.02
562.27	42787.33
562.44	43061.18
562.60	43386.51
562.77	43037.77
562.93	43077.56
563.10	43084.58
563.26	42866.91
563.42	43302.25
563.59	43189.91
563.75	43433.32
563.92	43234.38
564.08	43650.99
564.24	43749.29
564.41	43697.80
564.57	43253.10
564.74	43629.93
564.90	43526.94
565.07	43611.20
565.23	43573.75
565.39	43086.92
565.56	43491.83
565.72	43246.08
565.88	43489.49
566.05	43878.02
566.21	43751.63
566.38	43122.03
566.54	43098.62
566.70	43384.17
566.87	44186.97
567.03	43765.68
567.19	44088.67
567.36	43852.28
567.52	43468.43
567.68	43992.71
567.85	43643.97
568.01	44060.58
568.17	43353.74
568.34	43807.81
568.50	43704.82
568.66	43346.72
568.83	44051.22
568.99	43777.38
569.15	43592.48
569.32	43702.48
569.48	43316.29
569.64	43814.83
569.81	44009.09
569.97	43828.87
570.13	43744.61
570.30	43398.21
570.46	43257.78
570.62	43423.96
570.78	43285.87
570.95	43459.07
571.11	44051.22
571.27	44002.07
571.43	43819.51
571.60	43620.56
571.76	43491.83
571.92	43756.32
572.09	43885.04
572.25	43702.48
572.41	44032.50
572.57	43793.76
572.74	44257.19
572.90	44168.25
573.06	44013.77
573.22	43629.93
573.38	44093.35
573.55	43739.93
573.71	44430.39
573.87	43728.23
574.03	43892.07
574.20	43901.43
574.36	44299.32
574.52	44074.63
574.68	43999.73
574.84	44051.22
575.01	44184.63
575.17	43917.81
575.33	43709.50
575.49	43948.24
575.65	44477.20
575.82	44304.00
575.98	44369.54
576.14	44332.09
576.30	43655.67
576.46	43917.81
576.62	43845.26
576.79	44397.62
576.95	43580.78
577.11	44563.80
577.27	44030.16
577.43	44065.27
577.59	44198.68
577.75	43931.86
577.92	43753.97
578.08	43730.57
578.24	44116.76
578.40	43906.11
578.56	44140.16
578.72	44088.67
578.88	44526.35
579.04	44257.19
579.21	44027.82
579.37	43910.79
579.53	44329.75
579.69	43983.35
579.85	44144.84
580.01	43786.74
580.17	44392.94
580.33	44500.61
580.49	44037.18
580.65	44201.02
580.82	44149.53
580.98	43569.07
581.14	44006.75
581.30	44390.60
581.46	44495.92
581.62	44004.41
581.78	44076.97
581.94	44540.39
582.10	44418.69
582.26	44306.34
582.42	44575.50
582.58	44282.94
582.74	44055.90
582.90	44048.88
583.06	44091.01
583.22	44343.79
583.38	44699.55
583.54	44025.48
583.70	44142.50
583.86	44037.18
584.02	43997.39
584.18	44037.18
584.34	44484.22
584.50	44491.24
584.66	44350.81
584.82	43903.77
584.98	44062.93
585.14	44058.24
585.30	44170.59
585.46	44135.48
585.62	44275.91
585.78	43868.66
585.94	44275.91
586.10	44634.02
586.26	43957.60
586.42	44025.48
586.58	44446.77
586.74	43847.60
586.90	44027.82
587.06	44133.14
587.22	44390.60
587.38	44210.38
587.54	44430.39
587.70	44589.55
587.86	44531.03
588.02	44140.16
588.18	44776.79
588.34	44186.97
588.49	44062.93
588.65	43756.32
588.81	44507.63
588.97	44041.86
589.13	43985.69
589.29	44105.06
589.45	44046.54
589.61	44257.19
589.77	44842.32
589.93	44020.80
590.08	44669.12
590.24	45165.32
590.40	44542.74
590.56	44343.79
590.72	44664.44
590.88	44201.02
591.04	44318.04
591.20	45013.18
591.35	44505.29
591.51	44790.83
591.67	44535.71
591.83	44734.66
591.99	44591.89
592.15	44563.80
592.31	44638.70
592.46	44715.93
592.62	44708.91
592.78	44355.49
592.94	44729.98
593.10	44521.67
593.26	44311.02
593.41	44414.01
593.57	44570.82
593.73	44528.69
593.89	44414.01
594.05	44301.66
594.20	44741.68
594.36	44442.09
594.52	44591.89
594.68	45092.76
594.84	44619.97
594.99	44765.09
595.15	44371.88
595.31	44615.29
595.47	44451.45
595.62	44912.54
595.78	44849.35
595.94	44903.18
596.10	44648.06
596.25	44744.02
596.41	44776.79
596.57	44435.07
596.73	44652.74
596.88	44184.63
597.04	44741.68
597.20	44706.57
597.36	44704.23
597.51	45170.00
597.67	44531.03
597.83	44622.31
597.99	45045.95
598.14	44942.97
598.30	44748.70
598.46	44341.45
598.61	44779.13
598.77	44472.52
598.93	44332.09
599.09	44231.44
599.24	45085.74
599.40	44868.07
599.56	44982.76
599.71	44907.86
599.87	44973.39
600.03	44790.83
600.18	44512.31
600.34	44989.78
600.50	44741.68
600.65	44856.37
600.81	45109.14
600.97	45083.40
601.12	44949.99
601.28	44449.11
601.44	44591.89
601.59	44638.70
601.75	44797.85
601.91	44804.88
602.06	44655.08
602.22	45207.45
602.37	44535.71
602.53	44903.18
602.69	44900.84
602.84	44868.07
603.00	44624.65
603.16	44776.79
603.31	44612.95
603.47	44964.03
603.62	44519.33
603.78	44877.43
603.94	44641.04
604.09	44666.78
604.25	44811.90
604.40	44804.88
604.56	44996.80
604.71	44598.91
604.87	44685.51
605.03	44444.43
605.18	44744.02
605.34	44622.31
605.49	44236.12
605.65	44858.71
605.80	44285.28
605.96	44891.48
606.12	45052.97
606.27	45251.92
606.43	44264.21
606.58	44472.52
606.74	44507.63
606.89	44809.56
607.05	44336.77
607.20	44329.75
607.36	44392.94
607.51	44865.73
607.67	44928.92
607.82	44671.46
607.98	44318.04
608.13	44559.12
608.29	44360.17
608.44	44418.69
608.60	43871.00
608.75	44261.87
608.91	44140.16
609.06	44306.34
609.22	44994.46
609.37	44236.12
609.53	44371.88
609.68	44439.75
609.84	44528.69
609.99	44224.42
610.15	44271.23
610.30	44432.73
610.46	43856.96
610.61	44446.77
610.76	44596.57
610.92	44175.27
611.07	44088.67
611.23	43821.85
611.38	44280.60
611.54	44446.77
611.69	44170.59
611.84	44430.39
612.00	44041.86
612.15	44018.46
612.31	44081.65
612.46	44266.55
612.62	44472.52
612.77	43992.71
612.92	44329.75
613.08	43241.40
613.23	43803.13
613.39	43966.96
613.54	43814.83
613.69	43990.37
613.85	43564.39
614.00	43945.90
614.15	44009.09
614.31	43798.44
614.46	44128.46
614.62	43826.53
614.77	43945.90
614.92	43683.76
615.08	43739.93
615.23	43779.72
615.38	43852.28
615.54	43320.98
615.69	43545.67
615.84	43143.09
616.00	43555.03
616.15	43344.38
616.30	43791.42
616.46	43463.75
616.61	43253.10
616.76	43732.91
616.92	43129.05
617.07	43222.67
617.22	43255.44
617.37	43346.72
617.53	43379.49
617.68	43667.37
617.83	43512.90
617.99	43695.46
618.14	43751.63
618.29	43138.41
618.45	43103.31
618.60	43281.19
618.75	43325.66
618.90	43051.81
619.06	43707.16
619.21	43515.24
619.36	43358.42
619.51	43260.12
619.67	42911.38
619.82	43086.92
619.97	43379.49
620.12	42696.05
620.28	42682.01
620.43	42876.27
620.58	43107.99
620.73	42822.44
620.89	42553.28
621.04	42939.47
621.19	42876.27
621.34	42843.51
621.49	42674.99
621.65	42843.51
621.80	42576.69
621.95	42293.48
622.10	42632.86
622.25	42609.45
622.41	42602.43
622.56	42492.43
622.71	43037.77
622.86	42831.80
623.01	42761.59
623.16	43082.24
623.32	42581.37
623.47	42864.57
623.62	42396.46
623.77	42316.89
623.92	42506.47
624.07	42363.70
624.23	42305.18
624.38	42106.24
624.53	41911.97
624.68	42122.62
624.83	42195.18
624.98	42457.32
625.13	42239.65
625.29	42351.99
625.44	42127.30
625.59	41989.21
625.74	42038.36
625.89	42096.88
626.04	41563.23
626.19	41741.11
626.34	41759.84
626.49	42204.54
626.65	41544.51
626.80	41907.29
626.95	41469.61
627.10	42178.79
627.25	41631.11
627.40	41673.24
627.55	41780.90
627.70	41785.58
627.85	41670.90
628.00	41654.51
628.15	42040.70
628.30	41448.55
628.45	42305.18
628.60	41825.37
628.76	41947.08
628.91	41848.78
629.06	41778.56
629.21	41359.61
629.36	41287.05
629.51	41312.80
629.66	41352.58
629.81	41106.83
629.96	41500.04
630.11	41177.04
630.26	41581.96
630.41	41069.38
630.56	41670.90
630.71	41354.93
630.86	41277.69
631.01	41209.81
631.16	41123.21
631.31	40971.08
631.46	40788.52
631.61	40973.42
631.76	41373.65
631.91	41544.51
632.06	41195.77
632.21	41127.89
632.36	40926.61
632.51	40554.46
632.66	40760.43
632.81	40339.13
632.96	40875.12
633.10	40694.89
633.25	40634.04
633.40	40952.35
633.55	40617.66
633.70	40671.49
633.85	40722.98
634.00	40327.43
634.15	40395.31
634.30	40732.34
634.45	40964.06
634.60	40229.13
634.75	40402.33
634.90	40470.20
635.05	40767.45
635.19	40608.29
635.34	40877.46
635.49	40308.71
635.64	40559.14
635.79	40126.14
635.94	40711.28
636.09	40194.02
636.24	40102.74
636.39	39693.15
636.53	39995.07
636.68	39798.47
636.83	40072.31
636.98	40563.82
637.13	39917.84
637.28	40409.35
637.43	40154.23
637.57	40123.80
637.72	40474.88
637.87	40306.37
638.02	39728.25
638.17	39810.17
638.32	39744.64
638.46	39388.88
638.61	39620.59
638.76	39578.46
638.91	39929.54
639.06	39669.74
639.20	39819.53
639.35	39873.37
639.50	39552.71
639.65	39707.19
639.80	40203.38
639.94	39920.18
640.09	39917.84
640.24	39449.73
640.39	39538.67
640.54	39152.48
640.68	39435.69
640.83	39330.36
640.98	39131.42
641.13	39306.96
641.27	39915.50
641.42	39414.62
641.57	39388.88
641.72	39648.68
641.86	39288.23
642.01	39454.41
642.16	39051.84
642.31	38604.80
642.45	39370.15
642.60	38852.89
642.75	38909.07
642.90	39278.87
643.04	38848.21
643.19	39061.20
643.34	38740.55
643.48	39498.88
643.63	39136.10
643.78	39154.82
643.93	38480.75
644.07	38822.47
644.22	38567.35
644.37	38543.94
644.51	38316.91
644.66	38937.15
644.81	38792.04
644.95	38719.48
645.10	39220.36
645.25	39229.72
645.39	39089.29
645.54	38918.43
645.69	38550.96
645.83	38792.04
645.98	38775.66
646.13	38649.27
646.27	39026.09
646.42	38639.90
646.57	38679.69
646.71	38785.02
646.86	38476.07
647.00	38684.37
647.15	38604.80
647.30	38747.57
647.44	38501.81
647.59	38485.43
647.74	38190.52
647.88	38550.96
648.03	38607.14
648.17	38328.61
648.32	38120.31
648.47	38452.66
648.61	37666.24
648.76	38630.54
648.90	37776.25
649.05	38099.24
649.20	37968.17
649.34	38291.16
649.49	37907.32
649.63	37766.88
649.78	38136.69
649.92	38183.50
650.07	38185.84
650.21	38054.77
650.36	38146.05
650.51	37940.08
650.65	38270.10
650.80	38569.69
650.94	37951.79
651.09	38286.48
651.23	37755.18
651.38	37771.57
651.52	37865.19
651.67	37928.38
651.81	37741.14
651.96	37865.19
652.10	37179.41
652.25	37621.77
652.39	37563.26
652.54	37457.93
652.68	37986.89
652.83	37790.29
652.97	37809.01
653.12	37666.24
653.26	37535.17
653.41	37713.05
653.55	37434.53
653.70	37357.29
653.84	37352.61
653.99	37347.93
654.13	37102.17
654.27	37523.47
654.42	37621.77
654.56	37195.79
654.71	37516.45
654.85	37385.38
655.00	37308.14
655.14	37347.93
655.29	36751.09
655.43	37228.56
655.57	36940.68
655.72	37048.34
655.86	36765.14
656.01	36790.88
656.15	36863.44
656.30	36383.63
656.44	36786.20
656.58	36886.84
656.73	36786.20
656.87	36435.12
657.01	36332.14
657.16	36938.33
657.30	36320.43
657.45	36645.77
657.59	36369.58
657.73	36084.04
657.88	36339.16
658.02	36715.98
658.16	36479.59
658.31	36781.52
658.45	36236.17
658.60	36624.70
658.74	36037.23
658.88	36240.86
659.03	36154.26
659.17	36332.14
659.31	36299.37
659.46	35571.46
659.60	35927.22
659.74	35737.64
659.89	35725.94
660.03	35969.35
660.17	35838.28
660.32	35931.90
660.46	35784.45
660.60	36114.47
660.74	35433.37
660.89	35702.53
661.03	35604.23
661.17	35475.50
661.32	35529.33
661.46	35463.80
661.60	35761.05
661.74	35438.05
661.89	35468.48
662.03	35550.40
662.17	35522.31
662.31	35232.08
662.46	35522.31
662.60	35309.32
662.74	34974.63
662.88	35314.00
663.03	35028.46
663.17	35262.51
663.31	35119.74
663.45	35267.19
663.60	35000.37
663.74	34892.71
663.88	35089.31
664.02	34497.16
664.17	34761.64
664.31	34249.06
664.45	34167.14
664.59	34733.55
664.73	34623.54
664.88	34291.19
665.02	33860.53
665.16	34569.71
665.30	33996.28
665.44	34490.13
665.59	34183.52
665.73	34073.52
665.87	33996.28
666.01	34213.95
666.15	34139.05
666.29	33551.58
666.44	33799.68
666.58	34054.79
666.72	34045.43
666.86	34052.45
667.00	34319.28
667.14	33839.47
667.28	33626.48
667.43	33596.05
667.57	33259.01
667.71	33294.12
667.85	33560.94
667.99	33301.14
668.13	33378.38
668.27	33207.52
668.41	33771.59
668.56	33104.54
668.70	33614.77
668.84	33134.96
668.98	33034.32
669.12	32893.89
669.26	32950.06
669.40	33006.23
669.54	32680.90
669.68	32765.16
669.82	32919.63
669.96	32643.45
670.10	32510.04
670.25	32795.59
670.39	32357.91
670.53	32397.70
670.67	32257.26
670.81	32638.77
670.95	32402.38
671.09	32023.21
671.23	32229.18
671.37	32341.52
671.51	31854.69
671.65	32458.55
671.79	31585.53
671.93	31302.32
672.07	32063.00
672.21	31782.13
672.35	31831.29
672.49	31875.76
672.63	31536.38
672.77	31463.82
672.91	31515.31
673.05	31318.71
673.19	31328.07
673.33	31353.82
673.47	31119.76
673.61	30789.75
673.75	31257.85
673.89	30579.10
674.03	30597.82
674.17	30511.22
674.31	30806.13
674.45	30543.99
674.59	30761.66
674.73	30972.31
674.87	30630.59
675.01	30616.55
675.15	30792.09
675.29	30298.23
675.43	30387.18
675.56	30321.64
675.70	30204.61
675.84	29968.22
675.98	29024.98
676.12	29909.71
676.26	29685.01
676.40	29472.03
676.54	29792.68
676.68	29612.46
676.82	29174.78
676.96	29509.47
677.10	29041.37
677.23	29429.90
677.37	29340.96
677.51	29380.74
677.65	29097.54
677.79	28652.84
677.93	28666.88
678.07	28460.91
678.21	28898.59
678.34	28467.94
678.48	28716.03
678.62	28273.67
678.76	28240.90
678.90	28025.57
679.04	28280.69
679.18	28084.09
679.31	27899.19
679.45	27868.76
679.59	27325.75
679.73	27498.95
679.87	27585.55
680.00	27559.81
680.14	27449.80
680.28	27271.92
680.42	27070.64
680.56	27260.22
680.70	26986.38
680.83	26981.70
680.97	26656.36
681.11	26867.01
681.25	26508.91
681.39	26799.13
681.52	26693.81
681.66	26684.45
681.80	26415.29
681.94	26377.84
682.07	26274.85
682.21	26171.87
682.35	26129.74
682.49	25762.28
682.62	25886.32
682.76	25745.89
682.90	25757.60
683.04	26017.40
683.17	25785.68
683.31	25961.22
683.45	25781.00
683.59	25584.40
683.72	25116.29
683.86	25048.41
684.00	25071.82
684.13	25310.55
684.27	24954.79
684.41	25055.43
684.55	24755.85
684.68	24601.37
684.82	24390.72
684.96	24491.37
685.09	24194.12
685.23	24540.52
685.37	24306.46
685.50	24208.16
685.64	24446.90
685.78	24058.37
685.91	23826.65
686.05	23976.45
686.19	23545.79
686.32	23962.40
686.46	23608.98
686.60	23346.84
686.73	23449.83
686.87	23365.57
687.01	23145.56
687.14	23070.66
687.28	22750.01
687.42	22958.31
687.55	22974.70
687.69	22974.70
687.82	22567.45
687.96	23115.13
688.10	22843.63
688.23	22352.12
688.37	22742.99
688.50	22024.44
688.64	22052.53
688.78	22078.27
688.91	22134.45
689.05	22221.05
689.18	21778.68
689.32	21401.86
689.46	21956.57
689.59	21818.47
689.73	22087.64
689.86	21586.76
690.00	21357.39
690.13	21710.81
690.27	21729.53
690.41	21312.92
690.54	21118.65
690.68	21064.82
690.81	20889.28
690.95	20821.41
691.08	21076.52
691.22	20971.20
691.35	20652.89
691.49	20676.29
691.62	20538.20
691.76	20800.34
691.89	20409.47
692.03	20163.72
692.16	20437.56
692.30	20175.42
692.43	19939.02
692.57	19969.45
692.70	19793.91
692.84	19644.12
692.97	19676.88
693.11	19576.24
693.24	19580.92
693.38	19569.22
693.51	19592.62
693.65	19358.57
693.78	19286.01
693.92	19250.91
694.05	19058.98
694.19	19180.69
694.32	19166.65
694.45	18860.04
694.59	18988.77
694.72	18724.29
694.86	18869.40
694.99	18817.91
695.13	18551.09
695.26	18235.11
695.39	18312.35
695.53	18389.59
695.66	18319.37
695.80	18024.47
695.93	17991.70
696.07	18073.62
696.20	17572.74
696.33	17963.61
696.47	17713.17
696.60	17724.88
696.73	17369.12
696.87	17916.80
697.00	17310.60
697.14	17280.18
697.27	17659.34
697.40	17331.67
697.54	17462.74
697.67	16954.84
697.80	17308.26
697.94	17041.44
698.07	16889.31
698.21	16819.09
698.34	17050.80
698.47	16631.85
698.61	16629.51
698.74	16388.43
698.87	16259.70
699.01	16072.46
699.14	16456.31
699.27	16585.04
699.40	16327.58
699.54	16091.18
699.67	16243.32
699.80	15990.54
699.94	16072.46
700.07	15850.11
700.20	15922.66
700.34	15843.09
700.47	15807.98
700.60	15798.62
700.73	15737.76
700.87	15616.05
701.00	15407.75
701.13	15197.10
701.26	15171.35
701.40	15304.76
701.53	15084.75
701.66	15033.26
701.79	15035.60
701.93	14806.23
702.06	14721.97
702.19	14939.64
702.32	14654.09
702.46	14759.42
702.59	14504.30
702.72	14618.99
702.85	14628.35
702.99	14642.39
703.12	14548.77
703.25	14349.82
703.38	14178.97
703.51	14288.97
703.65	14178.97
703.78	13958.96
703.91	13867.67
704.04	14134.50
704.17	13769.37
704.31	13661.71
704.44	13804.48
704.57	13603.19
704.70	13699.16
704.83	13598.51
704.96	13841.93
705.10	13469.78
705.23	13530.64
>>>>>End Processed Spectral Data<<<<<
