SpectraSuite Data File
++++++++++++++++++++++++++++++++++++
Date: Fri Oct 25 11:34:45 EDT 2013
User: price-jones
Dark Spectrum Present: No
Reference Spectrum Present: No
Number of Sampled Component Spectra: 1
Spectrometers: USB2+H05261
Integration Time (usec): 100000 (USB2+H05261)
Spectra Averaged: 1 (USB2+H05261)
Boxcar Smoothing: 0 (USB2+H05261)
Correct for Electrical Dark: No (USB2+H05261)
Strobe/Lamp Enabled: No (USB2+H05261)
Correct for Detector Non-linearity: No (USB2+H05261)
Correct for Stray Light: No (USB2+H05261)
Number of Pixels in Processed Spectrum: 2048
>>>>>Begin Processed Spectral Data<<<<<
365.73	294.91
365.92	294.91
366.12	294.91
366.32	196.60
366.52	215.33
366.72	184.90
366.91	175.54
367.11	234.05
367.31	194.26
367.51	74.90
367.70	170.86
367.90	114.69
368.10	220.01
368.30	212.99
368.49	147.45
368.69	175.54
368.89	138.09
369.09	140.43
369.28	243.42
369.48	203.63
369.68	182.56
369.87	255.12
370.07	297.25
370.27	337.04
370.47	285.55
370.66	465.77
370.86	564.07
371.06	468.11
371.25	557.05
371.45	470.45
371.65	550.03
371.84	571.09
372.04	559.39
372.24	547.69
372.44	552.37
372.63	580.45
372.83	587.47
373.03	566.41
373.22	592.16
373.42	580.45
373.62	568.75
373.81	606.20
374.01	683.44
374.21	559.39
374.40	585.13
374.60	627.26
374.79	561.73
374.99	592.16
375.19	674.07
375.38	685.78
375.58	709.18
375.78	674.07
375.97	620.24
376.17	713.86
376.37	631.94
376.56	695.14
376.76	664.71
376.95	615.56
377.15	697.48
377.35	638.97
377.54	641.31
377.74	669.39
377.93	629.60
378.13	660.03
378.33	695.14
378.52	702.16
378.72	692.80
378.91	767.70
379.11	660.03
379.31	716.20
379.50	678.76
379.70	681.10
379.89	744.29
380.09	643.65
380.28	662.37
380.48	758.33
380.68	685.78
380.87	779.40
381.07	748.97
381.26	760.67
381.46	723.23
381.65	763.01
381.85	748.97
382.04	791.10
382.24	732.59
382.43	737.27
382.63	777.06
382.83	683.44
383.02	873.02
383.22	725.57
383.41	704.50
383.61	777.06
383.80	819.19
384.00	763.01
384.19	774.72
384.39	844.93
384.58	767.70
384.78	873.02
384.97	830.89
385.17	784.08
385.36	821.53
385.56	732.59
385.75	851.96
385.95	760.67
386.14	802.80
386.34	851.96
386.53	807.48
386.72	814.51
386.92	826.21
387.11	842.59
387.31	844.93
387.50	884.72
387.70	814.51
387.89	819.19
388.09	978.34
388.28	880.04
388.48	863.66
388.67	898.77
388.86	847.27
389.06	912.81
389.25	896.43
389.45	938.55
389.64	884.72
389.84	1020.47
390.03	908.13
390.22	894.08
390.42	922.17
390.61	950.26
390.81	884.72
391.00	985.37
391.19	887.06
391.39	1018.13
391.58	966.64
391.78	950.26
391.97	957.28
392.16	994.73
392.36	1086.01
392.55	931.53
392.75	1006.43
392.94	1006.43
393.13	1001.75
393.33	926.85
393.52	1081.33
393.71	1083.67
393.91	987.71
394.10	954.94
394.29	1004.09
394.49	1074.31
394.68	1093.03
394.88	1114.10
395.07	1132.82
395.26	1163.25
395.46	1097.71
395.65	1118.78
395.84	1156.22
396.04	1149.20
396.23	1163.25
396.42	1156.22
396.62	1160.91
396.81	1149.20
397.00	1149.20
397.19	1177.29
397.39	1153.88
397.58	1132.82
397.77	1172.61
397.97	1217.08
398.16	1205.38
398.35	1193.67
398.55	1172.61
398.74	1245.16
398.93	1167.93
399.12	1153.88
399.32	1291.98
399.51	1303.68
399.70	1277.93
399.90	1329.42
400.09	1352.83
400.28	1350.49
400.47	1392.62
400.67	1348.15
400.86	1350.49
401.05	1277.93
401.24	1371.55
401.44	1357.51
401.63	1341.13
401.82	1373.89
402.01	1329.42
402.21	1434.75
402.40	1430.07
402.59	1413.68
402.78	1430.07
402.97	1425.39
403.17	1474.54
403.36	1486.24
403.55	1558.80
403.74	1495.60
403.93	1439.43
404.13	1446.45
404.32	1467.52
404.51	1621.99
404.70	1640.72
404.89	1516.67
405.09	1474.54
405.28	1563.48
405.47	1591.56
405.66	1661.78
405.85	1645.40
406.05	1664.12
406.24	1568.16
406.43	1568.16
406.62	1760.08
406.81	1788.17
407.00	1753.06
407.20	1650.08
407.39	1722.63
407.58	1643.06
407.77	1724.97
407.96	1788.17
408.15	1739.02
408.34	1724.97
408.54	1940.30
408.73	1811.57
408.92	1827.96
409.11	1909.88
409.30	1757.74
409.49	1891.15
409.68	1895.83
409.87	1839.66
410.07	1916.90
410.26	1930.94
410.45	1926.26
410.64	1933.28
410.83	2054.99
411.02	2001.16
411.21	2097.12
411.40	2071.37
411.59	2111.16
411.78	2087.76
411.98	2059.67
412.17	2026.90
412.36	2120.53
412.55	2289.04
412.74	2246.91
412.93	2197.76
413.12	2237.55
413.31	2267.98
413.50	2235.21
413.69	2267.98
413.88	2352.24
414.07	2438.84
414.26	2431.82
414.45	2504.37
414.64	2310.11
414.83	2502.03
415.02	2476.29
415.22	2518.42
415.41	2504.37
415.60	2459.90
415.79	2609.70
415.98	2686.94
416.17	2583.95
416.36	2502.03
416.55	2560.55
416.74	2583.95
416.93	2663.53
417.12	2733.75
417.31	2717.36
417.50	2843.75
417.69	2848.43
417.88	2806.30
418.07	2754.81
418.26	2803.96
418.45	2717.36
418.64	2888.22
418.83	2871.84
419.02	2925.67
419.21	3063.76
419.39	2942.05
419.58	2895.24
419.77	2918.65
419.96	3014.61
420.15	3047.38
420.34	3028.65
420.53	2925.67
420.72	2993.55
420.91	3059.08
421.10	3061.42
421.29	3033.33
421.48	3162.06
421.67	3084.83
421.86	3241.64
422.05	3229.94
422.24	3077.80
422.43	3122.27
422.61	3150.36
422.80	3192.49
422.99	3251.00
423.18	3178.45
423.37	3356.33
423.56	3206.53
423.75	3141.00
423.94	3082.49
424.13	2984.18
424.32	3103.55
424.50	3290.79
424.69	3445.27
424.88	3379.73
425.07	3222.92
425.26	3365.69
425.45	3243.98
425.64	3363.35
425.83	3260.37
426.01	3339.94
426.20	3274.41
426.39	3368.03
426.58	3180.79
426.77	3349.31
426.96	3330.58
427.15	3428.88
427.33	3426.54
427.52	3372.71
427.71	3543.57
427.90	3375.05
428.09	3283.77
428.28	3414.84
428.46	3412.50
428.65	3524.85
428.84	3487.40
429.03	3733.15
429.22	3461.65
429.40	3618.47
429.59	3574.00
429.78	3492.08
429.97	3417.18
430.16	3758.90
430.34	3574.00
430.53	3637.19
430.72	3777.62
430.91	3662.94
431.10	3693.37
431.28	3627.83
431.47	3751.88
431.66	3815.07
431.85	3644.21
432.03	3744.86
432.22	3962.53
432.41	3812.73
432.60	3882.95
432.79	3901.67
432.97	3957.85
433.16	3976.57
433.35	3904.01
433.54	4028.06
433.72	4025.72
433.91	3999.98
434.10	3927.42
434.28	3901.67
434.47	4021.04
434.66	4016.36
434.85	4007.00
435.03	4079.55
435.22	4159.13
435.41	4201.26
435.59	4182.54
435.78	4264.46
435.97	4189.56
436.16	4124.02
436.34	4212.96
436.53	4250.41
436.72	4292.54
436.90	4051.47
437.09	4255.09
437.28	4105.30
437.46	4194.24
437.65	4332.33
437.84	4301.90
438.02	4259.78
438.21	4517.23
438.40	4374.46
438.58	4463.40
438.77	4571.07
438.96	4500.85
439.14	4526.60
439.33	4430.63
439.52	4678.73
439.70	4697.46
439.89	4667.03
440.08	4842.57
440.26	4770.01
440.45	4744.27
440.63	4779.37
440.82	4849.59
441.01	4791.08
441.19	4957.25
441.38	4985.34
441.57	4856.61
441.75	5048.54
441.94	4980.66
442.12	5083.64
442.31	5114.07
442.50	5263.86
442.68	5067.26
442.87	5078.96
443.05	5228.76
443.24	5128.11
443.43	5320.04
443.61	5217.05
443.80	5460.47
443.98	5200.67
444.17	5078.96
444.35	5165.56
444.54	5373.87
444.73	5338.76
444.91	5254.50
445.10	5247.48
445.28	5350.46
445.47	5320.04
445.65	5385.57
445.84	5472.17
446.02	5376.21
446.21	5390.25
446.39	5481.53
446.58	5284.93
446.77	5467.49
446.95	5102.37
447.14	5392.59
447.32	5561.11
447.51	5460.47
447.69	5416.00
447.88	5504.94
448.06	5434.72
448.25	5355.15
448.43	5451.11
448.62	5451.11
448.80	5509.62
448.99	5481.53
449.17	5575.16
449.36	5460.47
449.54	5638.35
449.73	5605.58
449.91	5664.10
450.10	5783.46
450.28	5792.83
450.46	5757.72
450.65	5914.53
450.83	5926.24
451.02	5694.52
451.20	5963.68
451.39	5661.76
451.57	5933.26
451.76	5741.33
451.94	5921.56
452.13	5956.66
452.31	5961.34
452.49	5877.09
452.68	5980.07
452.86	5975.39
453.05	6101.78
453.23	6026.88
453.42	5998.79
453.60	5991.77
453.78	6019.86
453.97	5963.68
454.15	5951.98
454.34	6005.81
454.52	6085.39
454.70	6064.33
454.89	6162.63
455.07	6338.17
455.26	6162.63
455.44	6499.67
455.62	6394.34
455.81	6366.26
455.99	6293.70
456.17	6356.90
456.36	6370.94
456.54	6427.11
456.73	6541.80
456.91	6661.16
457.09	6733.72
457.28	6712.66
457.46	6579.25
457.64	6586.27
457.83	6597.97
458.01	6670.53
458.19	6761.81
458.38	6630.74
458.56	6761.81
458.74	6670.53
458.93	6574.56
459.11	6841.39
459.29	6752.45
459.48	6913.94
459.66	6853.09
459.84	6846.07
460.03	7033.31
460.21	6857.77
460.39	6923.30
460.57	7155.02
460.76	7087.14
460.94	7105.87
461.12	7140.97
461.31	7162.04
461.49	7288.43
461.67	7129.27
461.85	7220.55
462.04	7351.62
462.22	7281.41
462.40	7311.83
462.59	7281.41
462.77	7255.66
462.95	7400.77
463.13	7445.24
463.32	7297.79
463.50	7573.97
463.68	7297.79
463.86	7330.56
464.05	7386.73
464.23	7517.80
464.41	7339.92
464.59	7459.29
464.78	7686.32
464.96	7463.97
465.14	7581.00
465.32	7527.16
465.50	7602.06
465.69	7641.85
465.87	7662.91
466.05	7756.54
466.23	7651.21
466.41	7716.75
466.60	7878.24
466.78	7754.19
466.96	7754.19
467.14	7793.98
467.32	7653.55
467.51	8079.53
467.69	7793.98
467.87	7812.71
468.05	7822.07
468.23	7957.82
468.41	7887.61
468.60	7918.03
468.78	8191.88
468.96	8013.99
469.14	7981.23
469.32	8198.90
469.50	7960.16
469.69	8226.98
469.87	8217.62
470.05	8166.13
470.23	8407.20
470.41	8189.53
470.59	8245.71
470.77	8287.84
470.95	8336.99
471.14	8367.42
471.32	8369.76
471.50	8507.85
471.68	8629.56
471.86	8521.89
472.04	8475.08
472.22	8709.13
472.40	8514.87
472.58	8657.64
472.77	8828.50
472.95	8615.51
473.13	9261.50
473.31	8699.77
473.49	8894.04
473.67	8744.24
473.85	8769.99
474.03	9170.22
474.21	9252.14
474.39	9165.54
474.57	9303.63
474.75	9273.20
474.93	9446.40
475.12	9373.85
475.30	9495.55
475.48	9376.19
475.66	9490.87
475.84	9444.06
476.02	9497.89
476.20	9643.01
476.38	9877.06
476.56	10139.20
476.74	9816.21
476.92	9701.52
477.10	9909.83
477.28	9980.04
477.46	10068.98
477.64	10349.85
477.82	10328.78
478.00	10619.01
478.18	10436.45
478.36	10565.18
478.54	10806.25
478.72	10740.72
478.90	10806.25
479.08	10766.46
479.26	10953.71
479.44	11094.14
479.62	10913.92
479.80	11073.07
479.98	11225.21
480.16	11459.26
480.34	11307.13
480.52	11569.27
480.70	11555.22
480.88	11365.64
481.06	11639.48
481.24	11751.83
481.41	11630.12
481.59	12116.95
481.77	12105.25
481.95	12166.10
482.13	12315.90
482.31	12285.47
482.49	12528.89
482.67	12381.43
482.85	12678.68
483.03	12711.45
483.21	12741.88
483.39	12905.71
483.57	13011.04
483.74	12992.31
483.92	13277.86
484.10	12924.44
484.28	13277.86
484.46	13593.83
484.64	14010.45
484.82	13465.10
485.00	13809.16
485.18	13820.86
485.35	14267.91
485.53	14143.86
485.71	14303.01
485.89	14354.51
486.07	14616.65
486.25	14420.04
486.43	14604.94
486.61	14604.94
486.78	14949.00
486.96	14787.50
487.14	15213.48
487.32	15091.77
487.50	15241.57
487.68	15506.05
487.85	15297.74
488.03	15775.21
488.21	15882.88
488.39	15950.75
488.57	15880.53
488.75	16161.40
488.92	16105.23
489.10	16383.75
489.28	16458.65
489.46	16723.13
489.64	16629.51
489.81	16807.39
489.99	17008.67
490.17	16971.22
490.35	17235.70
490.53	17542.32
490.70	17380.82
490.88	17497.84
491.06	17626.57
491.24	17806.80
491.41	17942.55
491.59	18218.73
491.77	17804.46
491.95	18354.48
492.13	18405.97
492.30	18326.39
492.48	18581.51
492.66	18618.96
492.84	18675.13
493.01	18735.99
493.19	18979.40
493.37	19101.11
493.54	19161.97
493.72	19442.83
493.90	19215.80
494.08	19297.72
494.25	19660.50
494.43	19475.60
494.61	19901.58
494.79	20074.77
494.96	20208.19
495.14	20255.00
495.32	20336.91
495.49	20390.75
495.67	20638.84
495.85	20767.57
496.02	20884.60
496.20	21069.50
496.38	21226.32
496.55	21018.01
496.73	21818.47
496.91	21394.84
497.09	21259.09
497.26	21575.06
497.44	21443.99
497.62	21584.42
497.79	22043.17
497.97	21823.16
498.14	22094.66
498.32	22256.15
498.50	22394.25
498.67	22778.09
498.85	22054.87
499.03	22244.45
499.20	22813.20
499.38	22579.15
499.56	22742.99
499.73	22822.56
499.91	23241.52
500.08	23220.45
500.26	23103.43
500.44	23171.30
500.61	23480.25
500.79	23351.52
500.97	23293.01
501.14	23702.61
501.32	23931.98
501.49	23702.61
501.67	23583.24
501.84	24355.61
502.02	23964.75
502.20	24074.75
502.37	24095.82
502.55	23779.84
502.72	24189.44
502.90	24533.50
503.07	24411.79
503.25	24685.63
503.43	24112.20
503.60	24926.71
503.78	24596.69
503.95	24535.84
504.13	24837.76
504.30	25032.03
504.48	25439.28
504.65	25064.80
504.83	25284.81
505.01	25277.79
505.18	25509.50
505.36	25289.49
505.53	25394.81
505.71	25853.56
505.88	25755.26
506.06	25809.09
506.23	25577.37
506.41	25708.44
506.58	26057.18
506.76	26155.49
506.93	25937.82
507.11	26331.03
507.28	26185.91
507.46	26412.95
507.63	26387.20
507.81	26735.94
507.98	26445.71
508.16	26815.52
508.33	27007.44
508.50	26972.33
508.68	26803.82
508.85	27342.14
509.03	27180.64
509.20	27206.39
509.38	27513.00
509.55	27271.92
509.73	27365.54
509.90	27805.56
510.08	27641.73
510.25	27711.94
510.42	27747.05
510.60	27562.15
510.77	27899.19
510.95	28503.04
511.12	28196.43
511.30	28231.54
511.47	28250.27
511.64	28261.97
511.82	28390.70
511.99	28222.18
512.17	28826.04
512.34	28678.58
512.51	29104.56
512.69	28671.56
512.86	28886.89
513.04	28961.79
513.21	28966.47
513.38	29062.43
513.56	29177.12
513.73	29050.73
513.90	28975.83
514.08	29359.68
514.25	29544.58
514.43	29514.16
514.60	29450.96
514.77	29783.32
514.95	29736.51
515.12	29905.02
515.29	29799.70
515.47	29977.58
515.64	29661.61
515.81	29975.24
515.99	30223.34
516.16	30522.93
516.33	30384.83
516.51	30108.65
516.68	30408.24
516.85	30937.20
517.03	31091.68
517.20	30768.68
517.37	30529.95
517.54	30637.61
517.72	30773.36
517.89	30684.42
518.06	30740.60
518.24	31175.94
518.41	30883.37
518.58	31103.38
518.75	31068.27
518.93	31253.17
519.10	31182.96
519.27	31805.54
519.45	31777.45
519.62	31412.33
519.79	31302.32
519.96	31594.89
520.14	31644.04
520.31	31503.61
520.48	32086.40
520.65	32252.58
520.83	31971.72
521.00	32287.69
521.17	32575.58
521.34	32397.70
521.52	32802.61
521.69	32627.07
521.86	32362.59
522.03	32725.37
522.20	32397.70
522.38	33130.28
522.55	32767.50
522.72	32898.57
522.89	32940.70
523.07	33446.26
523.24	33022.62
523.41	32790.91
523.58	32903.25
523.75	33160.71
523.92	33113.90
524.10	33542.22
524.27	33514.13
524.44	33507.11
524.61	33563.28
524.78	33413.49
524.96	33869.89
525.13	33916.70
525.30	33790.31
525.47	33951.81
525.64	33717.76
525.81	33809.04
525.98	34043.09
526.16	33820.74
526.33	33879.25
526.50	34213.95
526.67	34267.78
526.84	34405.88
527.01	33935.43
527.18	34216.29
527.36	34314.59
527.53	34569.71
527.70	34932.50
527.87	34595.46
528.04	34637.59
528.21	35056.54
528.38	35112.72
528.55	35143.14
528.72	34670.36
528.89	35321.02
529.07	34934.84
529.24	35173.57
529.41	35187.61
529.58	35213.36
529.75	34803.77
529.92	35503.59
530.09	35269.53
530.26	34878.66
530.43	35426.35
530.60	35033.14
530.77	35332.73
530.94	35697.85
531.11	35704.87
531.28	35402.94
531.46	35543.38
531.63	35798.49
531.80	35880.41
531.97	36156.60
532.14	36074.68
532.31	35899.14
532.48	36336.82
532.65	36701.94
532.82	35967.01
532.99	35957.65
533.16	35744.66
533.33	36507.68
533.50	36500.65
533.67	36355.54
533.84	36425.76
534.01	36554.49
534.18	36800.24
534.35	36421.08
534.52	36814.29
534.69	37053.02
534.86	36987.49
535.03	36491.29
535.20	37216.86
535.37	37228.56
535.54	37090.47
535.71	36896.20
535.88	36849.39
536.05	37635.81
536.22	37659.22
536.38	37069.40
536.55	37146.64
536.72	37350.27
536.89	36968.76
537.06	37200.47
537.23	37818.38
537.40	37270.69
537.57	37619.43
537.74	37797.31
537.91	37811.35
538.08	37415.80
538.25	37446.23
538.42	38096.90
538.59	37792.63
538.75	38031.36
538.92	37816.04
539.09	38251.38
539.26	38061.79
539.43	38342.66
539.60	37975.19
539.77	38082.86
539.94	38171.80
540.11	37912.00
540.28	38227.97
540.44	38487.77
540.61	38328.61
540.78	38176.48
540.95	38291.16
541.12	38529.90
541.29	38536.92
541.46	38721.82
541.62	38555.64
541.79	38557.99
541.96	38345.00
542.13	38595.43
542.30	38693.74
542.47	38675.01
542.63	38990.98
542.80	38974.60
542.97	39208.65
543.14	39295.25
543.31	39014.39
543.48	39255.46
543.64	39321.00
543.81	39597.18
543.98	39344.41
544.15	39356.11
544.32	39819.53
544.48	39746.98
544.65	39711.87
544.82	39550.37
544.99	39178.23
545.16	39864.00
545.32	39367.81
545.49	40062.95
545.66	40369.56
545.83	39859.32
546.00	40020.82
546.16	39824.22
546.33	39665.06
546.50	39742.30
546.67	40076.99
546.83	39812.51
547.00	39519.95
547.17	40184.66
547.34	39999.76
547.50	40301.68
547.67	40547.44
547.84	40245.51
548.00	40493.61
548.17	40807.24
548.34	40622.34
548.51	40643.40
548.67	40648.08
548.84	40636.38
549.01	40652.76
549.18	40603.61
549.34	40931.29
549.51	40701.92
549.68	40641.06
549.84	41186.41
550.01	40797.88
550.18	40772.13
550.34	41015.55
550.51	40577.87
550.68	41315.14
550.84	40737.02
551.01	41258.96
551.18	41038.95
551.34	41581.96
551.51	40942.99
551.68	41055.34
551.84	41490.68
552.01	41277.69
552.18	41553.87
552.34	41057.68
552.51	41329.18
552.68	41060.02
552.84	41581.96
553.01	41392.37
553.18	41476.63
553.34	41626.43
553.51	41539.83
553.67	41654.51
553.84	41893.25
554.01	41675.58
554.17	42085.17
554.34	41830.05
554.51	42017.30
554.67	41710.69
554.84	42082.83
555.00	41984.53
555.17	41713.03
555.33	41549.19
555.50	42036.02
555.67	42300.50
555.83	41633.45
556.00	42391.78
556.16	42424.55
556.33	42272.42
556.50	42169.43
556.66	42117.94
556.83	41846.44
556.99	42394.12
557.16	42473.70
557.32	42457.32
557.49	42511.15
557.65	42417.53
557.82	42225.60
557.98	42211.56
558.15	42099.22
558.32	42274.76
558.48	42515.83
558.65	42770.95
558.81	42621.16
558.98	42686.69
559.14	42976.92
559.31	42707.76
559.47	42459.66
559.64	42682.01
559.80	42539.24
559.97	43222.67
560.13	42244.33
560.30	42600.09
560.46	43007.34
560.63	43096.28
560.79	43456.73
560.96	43398.21
561.12	42909.04
561.29	43210.97
561.45	42864.57
561.61	42979.26
561.78	42885.64
561.94	42855.21
562.11	43239.06
562.27	43250.76
562.44	43126.71
562.60	43091.60
562.77	43395.87
562.93	42747.54
563.10	43037.77
563.26	42965.21
563.42	43262.46
563.59	43377.15
563.75	43363.11
563.92	43358.42
564.08	42990.96
564.24	43531.62
564.41	43388.85
564.57	43063.52
564.74	43512.90
564.90	42843.51
565.07	43702.48
565.23	43328.00
565.39	43370.13
565.56	43533.96
565.72	43234.38
565.88	43674.40
566.05	43519.92
566.21	43976.33
566.38	43573.75
566.54	43484.81
566.70	43908.45
566.87	43758.66
567.03	43529.28
567.19	44121.44
567.36	43342.04
567.52	43821.85
567.68	44098.03
567.85	43849.94
568.01	43468.43
568.17	43613.54
568.34	43648.65
568.50	43873.34
568.66	43718.87
568.83	44112.08
568.99	43536.30
569.15	43908.45
569.32	43313.95
569.48	43260.12
569.64	43992.71
569.81	43854.62
569.97	43957.60
570.13	43964.62
570.30	43716.53
570.46	43620.56
570.62	44002.07
570.78	43849.94
570.95	44079.31
571.11	44282.94
571.27	43913.13
571.43	43920.15
571.60	43789.08
571.76	44011.43
571.92	43908.45
572.09	43817.17
572.25	44046.54
572.41	43817.17
572.57	43580.78
572.74	44500.61
572.90	43894.41
573.06	43964.62
573.22	44011.43
573.38	44612.95
573.55	43863.98
573.71	44582.52
573.87	44219.74
574.03	43863.98
574.20	44549.76
574.36	44631.68
574.52	44231.44
574.68	44194.00
574.84	44336.77
575.01	44334.43
575.17	44313.36
575.33	44479.54
575.49	43899.09
575.65	44439.75
575.82	44474.86
575.98	44044.20
576.14	44650.40
576.30	44989.78
576.46	44399.96
576.62	44381.24
576.79	44126.12
576.95	44350.81
577.11	43803.13
577.27	44439.75
577.43	44294.64
577.59	44589.55
577.75	44416.35
577.92	43866.32
578.08	44428.05
578.24	44868.07
578.40	44357.83
578.56	44739.34
578.72	44292.30
578.88	44711.25
579.04	44304.00
579.21	44280.60
579.37	44444.43
579.53	44528.69
579.69	44137.82
579.85	44280.60
580.01	44479.54
580.17	44547.42
580.33	44729.98
580.49	44006.75
580.65	44392.94
580.82	44423.37
580.98	44552.10
581.14	44322.72
581.30	44776.79
581.46	44343.79
581.62	44559.12
581.78	44301.66
581.94	44673.81
582.10	44341.45
582.26	44521.67
582.42	44711.25
582.58	44404.64
582.74	44355.49
582.90	44729.98
583.06	44509.97
583.22	44369.54
583.38	45045.95
583.54	44463.16
583.70	44226.76
583.86	44641.04
584.02	44533.37
584.18	44624.65
584.34	44940.63
584.50	44816.58
584.66	44739.34
584.82	44760.40
584.98	44928.92
585.14	44776.79
585.30	44713.59
585.46	44746.36
585.62	44673.81
585.78	44849.35
585.94	44273.57
586.10	44540.39
586.26	44524.01
586.42	44470.18
586.58	44547.42
586.74	44435.07
586.90	44392.94
587.06	44561.46
587.22	44811.90
587.38	44570.82
587.54	44725.30
587.70	45172.34
587.86	44856.37
588.02	44624.65
588.18	44776.79
588.34	44891.48
588.49	44638.70
588.65	44856.37
588.81	44818.92
588.97	45036.59
589.13	44605.93
589.29	44678.49
589.45	44917.22
589.61	45010.84
589.77	44973.39
589.93	45069.36
590.08	45106.80
590.24	45083.40
590.40	45497.67
590.56	45303.41
590.72	45350.22
590.88	44987.44
591.04	45092.76
591.20	45308.09
591.35	45338.52
591.51	45153.62
591.67	45006.16
591.83	45518.74
591.99	45179.36
592.15	45265.96
592.31	44959.35
592.46	45284.68
592.62	45179.36
592.78	45581.93
592.94	45415.76
593.10	45640.45
593.26	45490.65
593.41	45272.98
593.57	45701.30
593.73	45352.56
593.89	45375.97
594.05	45610.02
594.20	45181.70
594.36	45937.69
594.52	45668.53
594.68	45476.61
594.84	45329.16
594.99	45272.98
595.15	45268.30
595.31	45570.23
595.47	45041.27
595.62	45153.62
595.78	45155.96
595.94	45289.37
596.10	45338.52
596.25	45610.02
596.41	45614.70
596.57	45296.39
596.73	46078.13
596.88	45607.68
597.04	45684.92
597.20	45579.59
597.36	45130.21
597.51	45516.40
597.67	45268.30
597.83	45209.79
597.99	46036.00
598.14	45303.41
598.30	45727.05
598.46	45216.81
598.61	45715.34
598.77	45425.12
598.93	45481.29
599.09	45287.03
599.24	46150.68
599.40	45755.13
599.56	45827.69
599.71	45731.73
599.87	46057.06
600.03	45516.40
600.18	45628.74
600.34	46127.28
600.50	45612.36
600.65	45823.01
600.81	45972.80
600.97	45869.82
601.12	45581.93
601.28	45759.81
601.44	45523.42
601.59	45514.06
601.75	45474.27
601.91	45450.86
602.06	45757.47
602.22	45574.91
602.37	45621.72
602.53	45633.42
602.69	45617.04
602.84	45500.01
603.00	45591.30
603.16	45511.72
603.31	45397.03
603.47	45748.11
603.62	45420.44
603.78	46014.93
603.94	45579.59
604.09	45769.18
604.25	45872.16
604.40	45310.43
604.56	45968.12
604.71	46057.06
604.87	45617.04
605.03	45532.78
605.18	45432.14
605.34	45530.44
605.49	45158.30
605.65	45727.05
605.80	45518.74
605.96	45537.46
606.12	45450.86
606.27	45701.30
606.43	45338.52
606.58	45677.90
606.74	45588.95
606.89	45551.51
607.05	45605.34
607.20	45631.08
607.36	45282.34
607.51	45453.20
607.67	45397.03
607.82	45315.11
607.98	45560.87
608.13	45308.09
608.29	45521.08
608.44	45385.33
608.60	45167.66
608.75	45588.95
608.91	45013.18
609.06	45188.72
609.22	45546.82
609.37	45223.83
609.53	44978.07
609.68	45696.62
609.84	44889.13
609.99	45366.60
610.15	45588.95
610.30	45223.83
610.46	44875.09
610.61	45322.13
610.76	45186.38
610.92	45017.86
611.07	45338.52
611.23	44769.77
611.38	44961.69
611.54	45242.56
611.69	45282.34
611.84	45247.24
612.00	45024.89
612.15	44947.65
612.31	44802.53
612.46	44767.43
612.62	45263.62
612.77	45001.48
612.92	45745.77
613.08	45074.04
613.23	44900.84
613.39	44744.02
613.54	44650.40
613.69	45015.52
613.85	44619.97
614.00	44919.56
614.15	45420.44
614.31	44933.60
614.46	44594.23
614.62	44390.60
614.77	44879.77
614.92	44875.09
615.08	44790.83
615.23	44535.71
615.38	45139.57
615.54	44821.26
615.69	45141.91
615.84	44957.01
616.00	44800.19
616.15	44999.14
616.30	44519.33
616.46	44732.32
616.61	44744.02
616.76	44985.10
616.92	44584.86
617.07	44793.17
617.22	44355.49
617.37	44147.18
617.53	44779.13
617.68	44692.53
617.83	44737.00
617.99	45059.99
618.14	45029.57
618.29	44385.92
618.45	44233.78
618.60	43835.89
618.75	44275.91
618.90	44245.49
619.06	44699.55
619.21	44186.97
619.36	44652.74
619.51	44287.62
619.67	44449.11
619.82	44196.34
619.97	44669.12
620.12	44484.22
620.28	43763.34
620.43	43973.98
620.58	44601.25
620.73	44472.52
620.89	44116.76
621.04	43849.94
621.19	43768.02
621.34	43934.20
621.49	43999.73
621.65	43824.19
621.80	44484.22
621.95	44287.62
622.10	43936.54
622.25	44151.87
622.41	43775.04
622.56	43978.67
622.71	43636.95
622.86	44055.90
623.01	43751.63
623.16	43761.00
623.32	43856.96
623.47	43945.90
623.62	43920.15
623.77	43641.63
623.92	44329.75
624.07	44018.46
624.23	43796.10
624.38	43775.04
624.53	43681.42
624.68	43545.67
624.83	43255.44
624.98	43784.40
625.13	43105.65
625.29	43559.71
625.44	43442.68
625.59	43821.85
625.74	43206.29
625.89	43262.46
626.04	43515.24
626.19	43337.36
626.34	43194.59
626.49	43480.13
626.65	42857.55
626.80	43505.88
626.95	42653.92
627.10	43005.00
627.25	43627.59
627.40	42878.61
627.55	43196.93
627.70	43358.42
627.85	43295.23
628.00	43510.56
628.15	42944.15
628.30	42784.99
628.45	42611.79
628.60	42419.87
628.76	42899.68
628.91	42890.32
629.06	42176.45
629.21	42899.68
629.36	43175.86
629.51	42635.20
629.66	42941.81
629.81	42742.86
629.96	43007.34
630.11	42679.67
630.26	42576.69
630.41	42464.34
630.56	42651.58
630.71	42918.40
630.86	42600.09
631.01	42164.75
631.16	42298.16
631.31	42089.85
631.46	42370.72
631.61	42230.29
631.76	42796.70
631.91	42930.11
632.06	42906.70
632.21	42513.49
632.36	42742.86
632.51	41724.73
632.66	42834.14
632.81	42232.63
632.96	42644.56
633.10	42253.69
633.25	42113.26
633.40	42307.52
633.55	42660.94
633.70	42092.19
633.85	42068.79
634.00	41902.61
634.15	42017.30
634.30	42040.70
634.45	41801.97
634.60	41984.53
634.75	42190.50
634.90	42050.06
635.05	42572.00
635.19	42026.66
635.34	42171.77
635.49	41668.56
635.64	42174.11
635.79	42078.15
635.94	42054.75
636.09	42176.45
636.24	41614.72
636.39	41879.21
636.53	42040.70
636.68	41900.27
636.83	41481.31
636.98	41661.54
637.13	41605.36
637.28	41483.66
637.43	41125.55
637.57	41397.06
637.72	41179.39
637.87	41698.98
638.02	41507.06
638.17	41322.16
638.32	41588.98
638.46	40842.35
638.61	41191.09
638.76	41228.54
638.91	41265.99
639.06	41097.47
639.20	41010.87
639.35	41212.15
639.50	40964.06
639.65	41429.82
639.80	41226.20
639.94	41060.02
640.09	41221.52
640.24	41202.79
640.39	41144.28
640.54	40924.27
640.68	40952.35
640.83	41163.00
640.98	41008.53
641.13	40809.58
641.27	40732.34
641.42	40744.05
641.57	40488.93
641.72	40877.46
641.86	40484.25
642.01	40809.58
642.16	40168.27
642.31	40519.35
642.45	41081.08
642.60	40350.84
642.75	40325.09
642.90	41027.25
643.04	40381.26
643.19	40847.03
643.34	40727.66
643.48	40128.48
643.63	40411.69
643.78	40444.46
643.93	40620.00
644.07	40882.14
644.22	40411.69
644.37	40463.18
644.51	40561.48
644.66	40636.38
644.81	40659.79
644.95	39882.73
645.10	40168.27
645.25	39856.98
645.39	40416.37
645.54	40006.78
645.69	39571.44
645.83	40149.55
645.98	40016.14
646.13	39585.48
646.27	40025.50
646.42	39903.79
646.57	40020.82
646.71	40306.37
646.86	40371.90
647.00	40289.98
647.15	40016.14
647.30	40126.14
647.44	40182.32
647.59	39845.28
647.74	39842.94
647.88	40041.88
648.03	40191.68
648.17	39723.57
648.32	39768.04
648.47	40147.21
648.61	39519.95
648.76	39688.46
648.90	39152.48
649.05	39817.19
649.20	39576.12
649.34	39971.67
649.49	39859.32
649.63	39821.87
649.78	39564.42
649.92	39702.51
650.07	40409.35
650.21	40168.27
650.36	39835.92
650.51	39468.45
650.65	39943.58
650.80	39658.04
650.94	39477.82
651.09	39414.62
651.23	39201.63
651.38	38951.20
651.52	39091.63
651.67	39157.16
651.81	39281.21
651.96	39583.14
652.10	38885.66
652.25	39077.58
652.39	39260.15
652.54	39356.11
652.68	39365.47
652.83	39096.31
652.97	39180.57
653.12	38614.16
653.26	38911.41
653.41	39084.61
653.55	39028.43
653.70	38838.85
653.84	39187.59
653.99	39618.25
654.13	38707.78
654.27	38883.32
654.42	38770.97
654.56	39225.04
654.71	38803.74
654.85	39068.22
655.00	38986.30
655.14	38635.22
655.29	38759.27
655.43	38773.31
655.57	38700.76
655.72	38223.29
655.86	38321.59
656.01	38689.06
656.15	38141.37
656.30	38843.53
656.44	38773.31
656.58	38581.39
656.73	38321.59
656.87	38103.92
657.01	37799.65
657.16	38031.36
657.30	37926.04
657.45	37996.26
657.59	37722.41
657.73	38586.07
657.88	38602.46
658.02	38579.05
658.16	38621.18
658.31	38246.69
658.45	38188.18
658.60	37832.42
658.74	38080.52
658.88	38443.30
659.03	37865.19
659.17	38045.41
659.31	37467.30
659.46	37666.24
659.60	37738.80
659.74	37743.48
659.89	37586.66
660.03	37251.97
660.17	37427.51
660.32	37565.60
660.46	37282.39
660.60	37354.95
660.74	37247.29
660.89	37434.53
661.03	37256.65
661.17	37120.90
661.32	36985.15
661.46	36978.12
661.60	37055.36
661.74	36945.36
661.89	37266.01
662.03	36615.34
662.17	36886.84
662.31	36966.42
662.46	36739.39
662.60	36491.29
662.74	36154.26
662.88	36495.97
663.03	36280.64
663.17	36421.08
663.31	36477.25
663.45	36704.28
663.60	36737.05
663.74	36715.98
663.88	36343.84
664.02	36444.48
664.17	36133.19
664.31	36187.02
664.45	36100.42
664.59	35772.75
664.73	36070.00
664.88	35697.85
665.02	35718.92
665.16	35920.20
665.30	35934.24
665.44	35948.29
665.59	35889.77
665.73	35295.28
665.87	34934.84
666.01	35637.00
666.15	35545.72
666.29	35578.48
666.44	35861.69
666.58	35800.83
666.72	35409.96
666.86	35000.37
667.00	35288.26
667.14	35070.59
667.28	35253.15
667.43	35218.04
667.57	35173.57
667.71	35264.85
667.85	35510.61
667.99	35241.45
668.13	34780.36
668.27	34209.27
668.41	34710.14
668.56	34206.93
668.70	34522.90
668.84	34298.21
668.98	34558.01
669.12	34583.76
669.26	34286.51
669.40	34223.31
669.54	34480.77
669.68	34417.58
669.82	33825.42
669.96	33848.83
670.10	33574.98
670.25	33619.46
670.39	33830.10
670.53	34316.93
670.67	34174.16
670.81	34052.45
670.95	33614.77
671.09	33226.24
671.23	33631.16
671.37	33493.07
671.51	33247.31
671.65	32959.42
671.79	33200.50
671.93	33682.65
672.07	33251.99
672.21	33069.43
672.35	32896.23
672.49	33029.64
672.63	33193.48
672.77	32390.67
672.91	32390.67
673.05	32547.49
673.19	32369.61
673.33	32737.07
673.47	32294.71
673.61	32259.60
673.75	31782.13
673.89	32315.78
674.03	32004.49
674.17	31571.49
674.31	31768.09
674.45	31892.14
674.59	31620.64
674.73	32023.21
674.87	31225.09
675.01	31618.30
675.15	30988.69
675.29	31028.48
675.43	31356.16
675.56	30850.60
675.70	31278.92
675.84	31058.91
675.98	30307.60
676.12	31154.87
676.26	31428.71
676.40	31157.21
676.54	30553.35
676.68	30625.91
676.82	29958.86
676.96	30373.13
677.10	30359.09
677.23	30092.27
677.37	30260.79
677.51	29984.60
677.65	30059.50
677.79	30127.38
677.93	29769.27
678.07	29584.37
678.21	29654.59
678.34	29474.37
678.48	29207.55
678.62	29181.80
678.76	29308.19
678.90	29373.72
679.04	29249.67
679.18	29191.16
679.31	28837.74
679.45	28680.92
679.59	28713.69
679.73	28837.74
679.87	28753.48
680.00	28987.53
680.14	28538.15
680.28	28514.75
680.42	28065.36
680.56	28130.90
680.70	28147.28
680.83	27711.94
680.97	27644.07
681.11	28079.41
681.25	27154.90
681.39	27180.64
681.52	27428.74
681.66	27292.99
681.80	26998.08
681.94	26813.18
682.07	26682.11
682.21	27150.21
682.35	26607.21
682.49	26785.09
682.62	26632.96
682.76	26925.52
682.90	26632.96
683.04	26492.52
683.17	26904.46
683.31	26134.42
683.45	26326.35
683.59	25860.58
683.72	26150.81
683.86	26228.04
684.00	25701.42
684.13	25933.14
684.27	25486.09
684.41	25359.70
684.55	25249.70
684.68	25179.48
684.82	25053.09
684.96	24886.92
685.09	25158.42
685.23	25177.14
685.37	25230.98
685.50	25125.65
685.64	24823.72
685.78	24678.61
685.91	24510.09
686.05	24308.80
686.19	23726.01
686.32	24308.80
686.46	23948.36
686.60	23957.72
686.73	23964.75
686.87	23763.46
687.01	24034.96
687.14	24002.19
687.28	24081.77
687.42	23805.59
687.55	23728.35
687.69	23384.29
687.82	23639.41
687.96	23257.90
688.10	23381.95
688.23	23108.11
688.37	23370.25
688.50	23353.87
688.64	22773.41
688.78	22764.05
688.91	22501.91
689.05	22553.40
689.18	22345.09
689.32	21869.97
689.46	21905.07
689.59	22237.43
689.73	22333.39
689.86	22335.73
690.00	22001.04
690.13	22050.19
690.27	21696.77
690.41	22066.57
690.54	21509.52
690.68	21713.15
690.81	21675.70
690.95	21120.99
691.08	21043.76
691.22	21193.55
691.35	21022.69
691.49	21027.37
691.62	20713.74
691.76	20652.89
691.89	20870.56
692.03	20362.66
692.16	20615.44
692.30	20423.51
692.43	20381.38
692.57	20259.68
692.70	20063.07
692.84	20184.78
692.97	19960.09
693.11	19814.98
693.24	19506.02
693.38	19599.65
693.51	19791.57
693.65	19627.73
693.78	19391.34
693.92	19566.88
694.05	19321.12
694.19	19248.57
694.32	19267.29
694.45	19494.32
694.59	18911.53
694.72	19225.16
694.86	18813.23
694.99	18785.14
695.13	18464.49
695.26	18490.23
695.39	18054.89
695.53	18251.50
695.66	18359.16
695.80	18291.29
695.93	18415.34
696.07	18157.88
696.20	17657.00
696.33	17626.57
696.47	17975.31
696.60	17657.00
696.73	17729.56
696.87	17635.94
697.00	17446.35
697.14	17444.01
697.27	17106.98
697.40	17071.87
697.54	17074.21
697.67	17322.30
697.80	17338.69
697.94	17238.05
698.07	16842.50
698.21	16783.98
698.34	16828.45
698.47	16699.72
698.61	16271.40
698.74	16505.46
698.87	16058.42
699.01	16145.02
699.14	16208.21
699.27	16334.60
699.40	15932.03
699.54	16030.33
699.67	16058.42
699.80	15906.28
699.94	15983.52
700.07	15999.90
700.20	15800.96
700.34	15625.42
700.47	15356.25
700.60	15807.98
700.73	15637.12
700.87	15438.17
701.00	14981.77
701.13	15028.58
701.26	15037.94
701.40	14902.19
701.53	14874.10
701.66	14867.08
701.79	14876.44
701.93	14700.90
702.06	14738.35
702.19	14471.53
702.32	14698.56
702.46	14614.30
702.59	14553.45
702.72	14363.87
702.85	14562.81
702.99	14195.35
703.12	14106.41
703.25	14045.55
703.38	14022.15
703.51	14064.28
703.65	13874.70
703.78	13607.87
703.91	13902.78
704.04	13699.16
704.17	13579.79
704.31	13741.29
704.44	13453.40
704.57	13621.92
704.70	13319.99
704.83	13254.45
704.96	13125.72
705.10	13242.75
705.23	13221.69
>>>>>End Processed Spectral Data<<<<<
