SpectraSuite Data File
++++++++++++++++++++++++++++++++++++
Date: Fri Oct 25 10:43:19 EDT 2013
User: price-jones
Dark Spectrum Present: No
Reference Spectrum Present: No
Number of Sampled Component Spectra: 1
Spectrometers: USB2+H05261
Integration Time (usec): 100000 (USB2+H05261)
Spectra Averaged: 1 (USB2+H05261)
Boxcar Smoothing: 0 (USB2+H05261)
Correct for Electrical Dark: No (USB2+H05261)
Strobe/Lamp Enabled: No (USB2+H05261)
Correct for Detector Non-linearity: No (USB2+H05261)
Correct for Stray Light: No (USB2+H05261)
Number of Pixels in Processed Spectrum: 2048
>>>>>Begin Processed Spectral Data<<<<<
365.73	177.88
365.92	177.88
366.12	177.88
366.32	84.26
366.52	21.06
366.72	0.00
366.91	81.92
367.11	0.00
367.31	0.00
367.51	37.45
367.70	32.77
367.90	21.06
368.10	0.00
368.30	37.45
368.49	0.00
368.69	58.51
368.89	0.00
369.09	28.09
369.28	60.85
369.48	126.39
369.68	56.17
369.87	72.56
370.07	60.85
370.27	119.37
370.47	81.92
370.66	355.76
370.86	360.44
371.06	376.83
371.25	444.70
371.45	397.89
371.65	479.81
371.84	463.43
372.04	400.23
372.24	528.96
372.44	465.77
372.63	587.47
372.83	540.66
373.03	554.71
373.22	437.68
373.42	552.37
373.62	594.50
373.81	512.58
374.01	613.22
374.21	606.20
374.40	585.13
374.60	641.31
374.79	482.15
374.99	601.52
375.19	599.18
375.38	627.26
375.58	664.71
375.78	641.31
375.97	521.94
376.17	650.67
376.37	585.13
376.56	608.54
376.76	599.18
376.95	636.63
377.15	617.90
377.35	620.24
377.54	676.41
377.74	608.54
377.93	662.37
378.13	706.84
378.33	638.97
378.52	706.84
378.72	603.86
378.91	683.44
379.11	692.80
379.31	706.84
379.50	667.05
379.70	758.33
379.89	711.52
380.09	664.71
380.28	606.20
380.48	737.27
380.68	660.03
380.87	685.78
381.07	706.84
381.26	737.27
381.46	624.92
381.65	629.60
381.85	681.10
382.04	739.61
382.24	770.04
382.43	650.67
382.63	720.88
382.83	674.07
383.02	657.69
383.22	704.50
383.41	655.35
383.61	812.17
383.80	777.06
384.00	770.04
384.19	805.14
384.39	849.61
384.58	798.12
384.78	753.65
384.97	861.32
385.17	795.78
385.36	802.80
385.56	812.17
385.75	816.85
385.95	835.57
386.14	854.30
386.34	889.40
386.53	837.91
386.72	786.42
386.92	856.64
387.11	849.61
387.31	903.45
387.50	814.51
387.70	866.00
387.89	915.15
388.09	863.66
388.28	891.74
388.48	929.19
388.67	966.64
388.86	919.83
389.06	985.37
389.25	964.30
389.45	1008.77
389.64	926.85
389.84	947.92
390.03	980.68
390.22	1022.81
390.42	999.41
390.61	983.02
390.81	1013.45
391.00	1020.47
391.19	1001.75
391.39	1088.35
391.58	1057.92
391.78	1043.88
391.97	1034.52
392.16	1081.33
392.36	1046.22
392.55	1020.47
392.75	1004.09
392.94	957.28
393.13	896.43
393.33	959.62
393.52	1022.81
393.71	1071.97
393.91	1036.86
394.10	1158.57
394.29	1090.69
394.49	1233.46
394.68	1291.98
394.88	1277.93
395.07	1170.27
395.26	1277.93
395.46	1219.42
395.65	1268.57
395.84	1121.12
396.04	1259.21
396.23	1146.86
396.42	1135.16
396.62	1114.10
396.81	1259.21
397.00	1151.54
397.19	1256.87
397.39	1362.19
397.58	1369.21
397.77	1352.83
397.97	1394.96
398.16	1413.68
398.35	1418.36
398.55	1366.87
398.74	1397.30
398.93	1409.00
399.12	1589.22
399.32	1547.09
399.51	1495.60
399.70	1540.07
399.90	1551.78
400.09	1535.39
400.28	1589.22
400.47	1680.50
400.67	1561.14
400.86	1598.59
401.05	1668.80
401.24	1685.19
401.44	1689.87
401.63	1629.01
401.82	1678.16
402.01	1678.16
402.21	1703.91
402.40	1732.00
402.59	1675.82
402.78	1795.19
402.97	1748.38
403.17	1722.63
403.36	1776.47
403.55	1795.19
403.74	1888.81
403.93	1909.88
404.13	1916.90
404.32	1732.00
404.51	1863.07
404.70	1849.02
404.89	1956.69
405.09	1952.01
405.28	1870.09
405.47	1973.07
405.66	1923.92
405.85	1968.39
406.05	1947.33
406.24	2052.65
406.43	1984.77
406.62	2057.33
406.81	2097.12
407.00	2022.22
407.20	1975.41
407.39	2022.22
407.58	2099.46
407.77	2127.55
407.96	2111.16
408.15	2186.06
408.34	2296.07
408.54	2218.83
408.73	2246.91
408.92	2279.68
409.11	2235.21
409.30	2368.62
409.49	2242.23
409.68	2183.72
409.87	2361.60
410.07	2279.68
410.26	2216.49
410.45	2354.58
410.64	2441.18
410.83	2476.29
411.02	2548.84
411.21	2588.63
411.40	2581.61
411.59	2480.97
411.78	2555.86
411.98	2520.76
412.17	2560.55
412.36	2731.41
412.55	2743.11
412.74	2754.81
412.93	2609.70
413.12	2771.19
413.31	2733.75
413.50	2890.56
413.69	2841.41
413.88	2841.41
414.07	2839.07
414.26	2916.31
414.45	3016.95
414.64	2876.52
414.83	3005.25
415.02	3028.65
415.22	3052.06
415.41	3082.49
415.60	3101.21
415.79	3089.51
415.98	3213.56
416.17	3211.22
416.36	3208.87
416.55	3187.81
416.74	3208.87
416.93	3199.51
417.12	3396.12
417.31	3288.45
417.50	3243.98
417.69	3461.65
417.88	3356.33
418.07	3353.99
418.26	3513.14
418.45	3267.39
418.64	3480.38
418.83	3501.44
419.02	3667.62
419.21	3665.28
419.39	3545.91
419.58	3578.68
419.77	3613.79
419.96	3557.61
420.15	3702.73
420.34	3698.05
420.53	3691.02
420.72	3925.08
420.91	3742.52
421.10	3784.65
421.29	3925.08
421.48	3702.73
421.67	3733.15
421.86	3808.05
422.05	3758.90
422.24	3768.26
422.43	3875.93
422.61	3716.77
422.80	3887.63
422.99	3911.04
423.18	3880.61
423.37	3925.08
423.56	3901.67
423.75	4007.00
423.94	3772.94
424.13	3765.92
424.32	3911.04
424.50	3833.80
424.69	3957.85
424.88	3939.12
425.07	3878.27
425.26	3817.41
425.45	3824.44
425.64	3992.95
425.83	3833.80
426.01	3936.78
426.20	4133.39
426.39	3929.76
426.58	3913.38
426.77	3911.04
426.96	3999.98
427.15	3990.61
427.33	4234.03
427.52	3990.61
427.71	4070.19
427.90	4032.74
428.09	4109.98
428.28	4112.32
428.46	3873.59
428.65	4128.70
428.84	4283.18
429.03	4308.93
429.22	4037.42
429.40	4109.98
429.59	4138.07
429.78	3873.59
429.97	3782.31
430.16	3861.88
430.34	4065.51
430.53	4224.67
430.72	4131.05
430.91	4215.30
431.10	4304.25
431.28	4440.00
431.47	4582.77
431.66	4744.27
431.85	4538.30
432.03	4557.02
432.22	4648.30
432.41	4479.79
432.60	4624.90
432.79	4737.24
432.97	4517.23
433.16	4793.42
433.35	4447.02
433.54	4505.53
433.72	4596.81
433.91	4578.09
434.10	4762.99
434.28	4631.92
434.47	4954.91
434.66	4777.03
434.85	4652.98
435.03	4793.42
435.22	4929.17
435.41	5025.13
435.59	5081.30
435.78	5104.71
435.97	4966.62
436.16	4961.94
436.34	5256.84
436.53	5151.52
436.72	5240.46
436.90	5027.47
437.09	5160.88
437.28	5060.24
437.46	5181.95
437.65	5144.50
437.84	5060.24
438.02	4945.55
438.21	5205.35
438.40	5153.86
438.58	5249.82
438.77	5401.96
438.96	5280.25
439.14	5479.19
439.33	5509.62
439.52	5664.10
439.70	5518.98
439.89	5540.05
440.08	5760.06
440.26	5654.73
440.45	5762.40
440.63	5713.25
440.82	5987.09
441.01	5853.68
441.19	5837.30
441.38	5956.66
441.57	6106.46
441.75	6099.44
441.94	6176.67
442.12	6239.87
442.31	6225.82
442.50	6183.70
442.68	6218.80
442.87	6242.21
443.05	6274.98
443.24	6338.17
443.43	6319.45
443.61	6352.21
443.80	6523.07
443.98	6282.00
444.17	6211.78
444.35	6490.31
444.54	6473.92
444.73	6373.28
444.91	6640.10
445.10	6384.98
445.28	6345.19
445.47	6354.55
445.65	6246.89
445.84	6670.53
446.02	6377.96
446.21	6338.17
446.39	6682.23
446.58	6642.44
446.77	6747.76
446.95	6422.43
447.14	6670.53
447.32	6633.08
447.51	6537.12
447.69	6623.72
447.88	6647.12
448.06	6569.88
448.25	6579.25
448.43	6771.17
448.62	6705.63
448.80	6633.08
448.99	6771.17
449.17	6705.63
449.36	6630.74
449.54	7066.08
449.73	7016.93
449.91	7037.99
450.10	7208.85
450.28	7262.68
450.46	7190.13
450.65	7049.69
450.83	7194.81
451.02	6892.88
451.20	7087.14
451.39	7356.30
451.57	7119.91
451.76	7143.32
451.94	7087.14
452.13	7234.60
452.31	7194.81
452.49	7056.72
452.68	7052.03
452.86	7152.68
453.05	7045.01
453.23	7365.67
453.42	7248.64
453.60	7040.33
453.78	7246.30
453.97	7269.70
454.15	7253.32
454.34	7360.98
454.52	7522.48
454.70	7297.79
454.89	7433.54
455.07	7566.95
455.26	7449.93
455.44	7585.68
455.62	7712.07
455.81	7719.09
455.99	7548.23
456.17	7662.91
456.36	7779.94
456.54	7997.61
456.73	7857.18
456.91	8049.10
457.09	8004.63
457.28	8367.42
457.46	8046.76
457.64	8028.04
457.83	7976.55
458.01	7983.57
458.19	8191.88
458.38	8053.78
458.56	8142.72
458.74	8210.60
458.93	8257.41
459.11	8238.69
459.29	8217.62
459.48	8219.96
459.66	8264.43
459.84	8517.21
460.03	8332.31
460.21	8407.20
460.39	8297.20
460.57	8390.82
460.76	8442.31
460.94	8557.00
461.12	8475.08
461.31	8599.13
461.49	8589.77
461.67	8336.99
461.85	8805.10
462.04	8561.68
462.22	9238.09
462.40	8718.50
462.59	8599.13
462.77	8716.16
462.95	8809.78
463.13	8844.88
463.32	8964.25
463.50	8784.03
463.68	8973.61
463.86	8924.46
464.05	8805.10
464.23	8739.56
464.41	8971.27
464.59	8837.86
464.78	9153.84
464.96	9078.94
465.14	8954.89
465.32	9076.60
465.50	9132.77
465.69	9186.60
465.87	8975.95
466.05	9149.15
466.23	8992.34
466.41	9160.86
466.60	9242.78
466.78	9172.56
466.96	9312.99
467.14	9441.72
467.32	9221.71
467.51	9252.14
467.69	9095.32
467.87	9364.48
468.05	9284.91
468.23	9467.47
468.41	9490.87
468.60	9460.45
468.78	9664.07
468.96	9432.36
469.14	9549.39
469.32	9689.82
469.50	9558.75
469.69	9596.20
469.87	9844.29
470.05	9654.71
470.23	9848.97
470.41	9692.16
470.59	9930.89
470.77	9661.73
470.95	9795.14
471.14	10211.76
471.32	9898.13
471.50	10068.98
471.68	10195.37
471.86	10078.35
472.04	10258.57
472.22	10642.42
472.40	10265.59
472.58	10368.57
472.77	10289.00
472.95	10480.92
473.13	10899.87
473.31	10548.79
473.49	10441.13
473.67	10740.72
473.85	10619.01
474.03	10815.62
474.21	10684.55
474.39	11007.54
474.57	10967.75
474.75	11098.82
474.93	11044.99
475.12	11220.53
475.30	10913.92
475.48	11335.21
475.66	11194.78
475.84	11056.69
476.02	11351.60
476.20	11398.41
476.38	11536.50
476.56	11459.26
476.74	11857.15
476.92	11831.41
477.10	11880.56
477.28	11882.90
477.46	12156.74
477.64	12091.21
477.82	12348.67
478.00	12599.10
478.18	12191.85
478.36	12395.48
478.54	12360.37
478.72	12716.13
478.90	12725.49
479.08	13041.46
479.26	12854.22
479.44	13322.33
479.62	13013.38
479.80	13214.66
479.98	13256.79
480.16	13586.81
480.34	13345.73
480.52	13748.31
480.70	13525.96
480.88	13596.17
481.06	13858.31
481.24	13832.57
481.41	13944.91
481.59	14251.52
481.77	14314.72
481.95	14272.59
482.13	14490.26
482.31	14558.13
482.49	14808.57
482.67	14693.88
482.85	14951.34
483.03	15234.55
483.21	15098.80
483.39	15215.82
483.57	15293.06
483.74	15288.38
483.92	15447.54
484.10	15403.07
484.28	15618.39
484.46	16002.24
484.64	16009.26
484.82	15941.39
485.00	16056.08
485.18	16149.70
485.35	16556.95
485.53	15983.52
485.71	16060.76
485.89	16276.09
486.07	15889.90
486.25	16257.36
486.43	16685.68
486.61	17064.85
486.78	16999.31
486.96	17041.44
487.14	17603.17
487.32	17668.70
487.50	17511.89
487.68	17862.97
487.85	18221.07
488.03	18277.24
488.21	18342.78
488.39	18356.82
488.57	18434.06
488.75	18733.65
488.92	18789.82
489.10	19070.68
489.28	18974.72
489.46	19262.61
489.64	19449.85
489.81	19784.55
489.99	19772.85
490.17	19950.73
490.35	20042.01
490.53	20067.75
490.70	20505.43
490.88	20470.33
491.06	20568.63
491.24	20428.20
491.41	20493.73
491.59	20615.44
491.77	20814.38
491.95	20837.79
492.13	21336.32
492.30	21123.33
492.48	21301.22
492.66	21408.88
492.84	21720.17
493.01	22015.08
493.19	21570.38
493.37	22359.14
493.54	22064.23
493.72	22207.00
493.90	22347.44
494.08	23047.26
494.25	22754.69
494.43	23194.71
494.61	22981.72
494.79	23271.95
494.96	23103.43
495.14	23122.15
495.32	23644.09
495.49	22988.74
495.67	23859.42
495.85	23960.06
496.02	23992.83
496.20	24053.69
496.38	24013.90
496.55	24615.41
496.73	24662.22
496.91	24360.30
497.09	24540.52
497.26	24559.24
497.44	24489.03
497.62	24868.19
497.79	25071.82
497.97	24933.73
498.14	25160.76
498.32	25612.48
498.50	25266.08
498.67	25977.61
498.85	25799.73
499.03	25621.84
499.20	26267.83
499.38	26162.51
499.56	26001.01
499.73	26522.95
499.91	26340.39
500.08	26637.64
500.26	26190.59
500.44	26415.29
500.61	26412.95
500.79	26356.77
500.97	26527.63
501.14	26806.16
501.32	27058.93
501.49	26703.17
501.67	27243.84
501.84	27220.43
502.02	27171.28
502.20	27513.00
502.37	27295.33
502.55	27594.92
502.72	27505.98
502.90	27637.05
503.07	27754.07
503.25	27667.47
503.43	28079.41
503.60	27786.84
503.78	27964.72
503.95	28250.27
504.13	28346.23
504.30	28545.17
504.48	28367.29
504.65	28795.61
504.83	28652.84
505.01	28945.41
505.18	29071.79
505.36	29163.08
505.53	29074.13
505.71	29352.66
505.88	29060.09
506.06	29209.89
506.23	29717.78
506.41	29301.17
506.58	29799.70
506.76	29659.27
506.93	29500.11
507.11	29820.77
507.28	29493.09
507.46	29708.42
507.63	29518.84
507.81	29729.48
507.98	29869.92
508.16	30066.52
508.33	30436.33
508.50	30321.64
508.68	30771.02
508.85	31042.53
509.03	30726.55
509.20	30960.61
509.38	31412.33
509.55	30829.54
509.73	30953.58
509.90	31110.40
510.08	31131.47
510.25	31255.51
510.42	31189.98
510.60	31459.14
510.77	31786.82
510.95	32037.25
511.12	31608.93
511.30	31585.53
511.47	32105.13
511.64	31917.89
511.82	32388.33
511.99	31754.05
512.17	32573.24
512.34	32278.33
512.51	32060.66
512.69	32566.21
512.86	32297.05
513.04	32194.07
513.21	32503.02
513.38	32369.61
513.56	32496.00
513.73	32692.60
513.90	32587.28
514.08	32606.00
514.25	32994.53
514.43	32952.40
514.60	32975.81
514.77	32917.29
514.95	33144.33
515.12	33273.06
515.29	33600.73
515.47	33574.98
515.64	34012.66
515.81	33708.40
515.99	33565.62
516.16	33500.09
516.33	33436.89
516.51	33584.35
516.68	33322.21
516.85	32914.95
517.03	33141.99
517.20	33659.24
517.37	34206.93
517.54	34141.39
517.72	34160.12
517.89	33481.36
518.06	33811.38
518.24	34101.61
518.41	33874.57
518.58	34569.71
518.75	34141.39
518.93	34169.48
519.10	34527.58
519.27	34684.40
519.45	34707.80
519.62	34895.05
519.79	35122.08
519.96	35189.95
520.14	34824.83
520.31	34656.31
520.48	35339.75
520.65	35152.51
520.83	35541.03
521.00	35147.82
521.17	35445.07
521.34	35751.68
521.52	35826.58
521.69	35452.09
521.86	35889.77
522.03	36320.43
522.20	35945.95
522.38	35901.48
522.55	36458.52
522.72	36088.72
522.89	35999.78
523.07	36488.95
523.24	36299.37
523.41	36680.88
523.58	36699.60
523.75	36584.91
523.92	36870.46
524.10	36802.58
524.27	36748.75
524.44	36926.63
524.61	36870.46
524.78	37137.28
524.96	37525.81
525.13	36795.56
525.30	37202.82
525.47	37352.61
525.64	37151.32
525.81	37471.98
525.98	37104.51
526.16	37289.42
526.33	37160.69
526.50	36952.38
526.67	36683.22
526.84	36910.25
527.01	37331.54
527.18	37773.91
527.36	37633.47
527.53	37848.80
527.70	38333.29
527.87	37539.85
528.04	37794.97
528.21	38061.79
528.38	38103.92
528.55	38562.67
528.72	38361.38
528.89	38969.92
529.07	38740.55
529.24	38347.34
529.41	38356.70
529.58	38728.84
529.75	38515.86
529.92	38410.53
530.09	39037.80
530.26	39047.16
530.43	38925.45
530.60	38747.57
530.77	38960.56
530.94	39386.54
531.11	39051.84
531.28	39164.18
531.46	39409.94
531.63	38932.47
531.80	39236.74
531.97	38525.22
532.14	39051.84
532.31	38656.29
532.48	39161.84
532.65	39512.92
532.82	39339.72
532.99	39447.39
533.16	39367.81
533.33	39845.28
533.50	39934.22
533.67	39454.41
533.84	39393.56
534.01	39861.66
534.18	39651.02
534.35	40257.21
534.52	39435.69
534.69	39496.54
534.86	40385.94
535.03	40156.57
535.20	39929.54
535.37	40385.94
535.54	40488.93
535.71	40215.08
535.88	40423.39
536.05	40465.52
536.22	40224.45
536.38	40449.14
536.55	39955.29
536.72	40339.13
536.89	40306.37
537.06	40383.60
537.23	40734.68
537.40	40788.52
537.57	40444.46
537.74	40556.80
537.91	40601.27
538.08	40760.43
538.25	39856.98
538.42	40554.46
538.59	41184.07
538.75	40891.50
538.92	41127.89
539.09	41209.81
539.26	41137.26
539.43	40697.24
539.60	40690.21
539.77	40959.38
539.94	40512.33
540.11	40973.42
540.28	41254.28
540.44	41385.35
540.61	40781.49
540.78	41254.28
540.95	40900.86
541.12	41092.79
541.29	41291.73
541.46	40996.82
541.62	41404.08
541.79	41638.13
541.96	40828.30
542.13	41490.68
542.30	41979.85
542.47	41462.59
542.63	41984.53
542.80	41837.08
542.97	42181.13
543.14	42506.47
543.31	42309.86
543.48	42052.41
543.64	42794.36
543.81	42829.46
543.98	42307.52
544.15	41888.57
544.32	42518.17
544.48	42803.72
544.65	42997.98
544.82	42052.41
544.99	42265.39
545.16	42614.13
545.32	42309.86
545.49	42864.57
545.66	43306.93
545.83	42462.00
546.00	42869.25
546.16	42586.05
546.33	42789.67
546.50	42689.03
546.67	43056.50
546.83	42199.86
547.00	42969.90
547.17	42754.57
547.34	42667.97
547.50	43058.84
547.67	43178.20
547.84	43313.95
548.00	43012.02
548.17	43199.27
548.34	43232.04
548.51	43580.78
548.67	43744.61
548.84	43332.68
549.01	43522.26
549.18	43501.20
549.34	43580.78
549.51	43241.40
549.68	43550.35
549.84	43501.20
550.01	44098.03
550.18	43372.47
550.34	43374.81
550.51	43522.26
550.68	43447.36
550.84	43421.62
551.01	43782.06
551.18	43309.27
551.34	43639.29
551.51	43892.07
551.68	43817.17
551.84	43260.12
552.01	43871.00
552.18	43470.77
552.34	43351.40
552.51	44016.11
552.68	44074.63
552.84	44509.97
553.01	44219.74
553.18	43643.97
553.34	44273.57
553.51	44027.82
553.67	44034.84
553.84	44414.01
554.01	44725.30
554.17	44257.19
554.34	44151.87
554.51	44566.14
554.67	44397.62
554.84	44142.50
555.00	44334.43
555.17	44257.19
555.33	44690.19
555.50	44591.89
555.67	44493.58
555.83	44149.53
556.00	44502.95
556.16	44938.29
556.33	44458.48
556.50	44318.04
556.66	44488.90
556.83	44449.11
556.99	44608.27
557.16	44037.18
557.32	44729.98
557.49	44659.76
557.65	44369.54
557.82	44442.09
557.98	44961.69
558.15	44435.07
558.32	44821.26
558.48	45235.53
558.65	44751.04
558.81	44626.99
558.98	44598.91
559.14	44603.59
559.31	44800.19
559.47	44662.10
559.64	44662.10
559.80	44741.68
559.97	44722.96
560.13	44746.36
560.30	45134.89
560.46	45160.64
560.63	44975.73
560.79	44924.24
560.96	45219.15
561.12	45076.38
561.29	44793.17
561.45	44938.29
561.61	45322.13
561.78	44954.67
561.94	44650.40
562.11	44933.60
562.27	44823.60
562.44	45097.44
562.60	45340.86
562.77	45198.09
562.93	44767.43
563.10	45277.66
563.26	45008.50
563.42	45666.19
563.59	44917.22
563.75	45319.79
563.92	45411.07
564.08	45343.20
564.24	45427.46
564.41	44992.12
564.57	45511.72
564.74	45184.04
564.90	45497.67
565.07	45214.47
565.23	45282.34
565.39	45202.77
565.56	45226.17
565.72	45106.80
565.88	45399.37
566.05	45280.00
566.21	45083.40
566.38	44957.01
566.54	45193.40
566.70	45720.02
566.87	45954.08
567.03	45722.37
567.19	45631.08
567.36	45436.82
567.52	45560.87
567.68	45865.14
567.85	45453.20
568.01	45184.04
568.17	45095.10
568.34	45841.73
568.50	45565.55
568.66	45488.31
568.83	45663.85
568.99	45254.26
569.15	45546.82
569.32	45310.43
569.48	45605.34
569.64	45907.27
569.81	45977.48
569.97	45785.56
570.13	45280.00
570.30	45088.08
570.46	44940.63
570.62	45209.79
570.78	45322.13
570.95	44842.32
571.11	45755.13
571.27	45565.55
571.43	45373.63
571.60	45867.48
571.76	45518.74
571.92	45610.02
572.09	45392.35
572.25	45972.80
572.41	45844.07
572.57	45340.86
572.74	45900.25
572.90	45858.12
573.06	45900.25
573.22	45851.09
573.38	45595.98
573.55	45703.64
573.71	46192.81
573.87	45448.52
574.03	44966.37
574.20	45504.70
574.36	45404.05
574.52	45614.70
574.68	45420.44
574.84	45619.38
575.01	45399.37
575.17	45661.51
575.33	45514.06
575.49	45254.26
575.65	45839.39
575.82	45713.00
575.98	45551.51
576.14	45904.93
576.30	45654.49
576.46	45471.93
576.62	45394.69
576.79	45455.54
576.95	45247.24
577.11	45240.21
577.27	45556.19
577.43	45441.50
577.59	45191.06
577.75	45305.75
577.92	44882.11
578.08	45434.48
578.24	45483.63
578.40	45469.59
578.56	45574.91
578.72	45507.04
578.88	45851.09
579.04	46314.52
579.21	45216.81
579.37	45495.33
579.53	45556.19
579.69	44898.50
579.85	45839.39
580.01	45645.13
580.17	45244.90
580.33	45780.88
580.49	45815.99
580.65	45933.01
580.82	45418.10
580.98	45617.04
581.14	45471.93
581.30	46066.42
581.46	45972.80
581.62	45773.86
581.78	45710.66
581.94	46089.83
582.10	45551.51
582.26	45698.96
582.42	45837.05
582.58	45841.73
582.74	45778.54
582.90	45713.00
583.06	45984.51
583.22	45710.66
583.38	46241.96
583.54	45806.62
583.70	45727.05
583.86	45951.74
584.02	45595.98
584.18	45790.24
584.34	45991.53
584.50	45614.70
584.66	45703.64
584.82	45722.37
584.98	46138.98
585.14	45956.42
585.30	45867.48
585.46	46206.86
585.62	45352.56
585.78	45656.83
585.94	45146.59
586.10	45717.68
586.26	45698.96
586.42	45965.78
586.58	45881.52
586.74	45357.24
586.90	46312.18
587.06	45645.13
587.22	45961.10
587.38	45771.52
587.54	45949.40
587.70	46195.15
587.86	45434.48
588.02	45965.78
588.18	45893.22
588.34	45387.67
588.49	45254.26
588.65	44971.05
588.81	45064.67
588.97	45670.87
589.13	45474.27
589.29	45626.40
589.45	45146.59
589.61	45710.66
589.77	46153.02
589.93	45804.28
590.08	45837.05
590.24	45944.72
590.40	46412.82
590.56	45759.81
590.72	45717.68
590.88	45684.92
591.04	45907.27
591.20	46171.75
591.35	45918.97
591.51	46398.78
591.67	45764.49
591.83	45598.32
591.99	46003.23
592.15	45925.99
592.31	46003.23
592.46	45841.73
592.62	45914.29
592.78	46117.92
592.94	46124.94
593.10	46178.77
593.26	46115.58
593.41	45949.40
593.57	46108.55
593.73	45738.75
593.89	46071.10
594.05	46260.69
594.20	45930.67
594.36	46010.25
594.52	45963.44
594.68	45720.02
594.84	45815.99
594.99	46045.36
595.15	46028.98
595.31	46150.68
595.47	45841.73
595.62	46225.58
595.78	46096.85
595.94	45982.16
596.10	46054.72
596.25	45853.44
596.41	46080.47
596.57	45881.52
596.73	45961.10
596.88	45872.16
597.04	46237.28
597.20	45734.07
597.36	45698.96
597.51	46033.66
597.67	45815.99
597.83	45944.72
597.99	46387.08
598.14	45743.43
598.30	46124.94
598.46	46021.95
598.61	46342.61
598.77	46202.18
598.93	45710.66
599.09	45762.15
599.24	46417.50
599.40	45869.82
599.56	46199.83
599.71	45961.10
599.87	46078.13
600.03	46323.88
600.18	45989.19
600.34	45628.74
600.50	45696.62
600.65	46073.45
600.81	45921.31
600.97	46616.45
601.12	46564.96
601.28	45745.77
601.44	45673.21
601.59	45776.20
601.75	45972.80
601.91	45656.83
602.06	45649.81
602.22	45780.88
602.37	45993.87
602.53	46050.04
602.69	46265.37
602.84	45858.12
603.00	45773.86
603.16	46010.25
603.31	45731.73
603.47	45911.95
603.62	45977.48
603.78	45839.39
603.94	45755.13
604.09	46387.08
604.25	45895.56
604.40	46080.47
604.56	45984.51
604.71	46204.52
604.87	46005.57
605.03	45675.55
605.18	45710.66
605.34	45851.09
605.49	45949.40
605.65	45837.05
605.80	45539.80
605.96	45918.97
606.12	45598.32
606.27	45745.77
606.43	45897.91
606.58	45801.94
606.74	45537.46
606.89	45584.27
607.05	45485.97
607.20	45757.47
607.36	45801.94
607.51	45783.22
607.67	45673.21
607.82	45881.52
607.98	45397.03
608.13	45336.18
608.29	45247.24
608.44	45624.06
608.60	45446.18
608.75	45530.44
608.91	45406.39
609.06	45450.86
609.22	45722.37
609.37	45165.32
609.53	45530.44
609.68	45310.43
609.84	45317.45
609.99	45731.73
610.15	45205.11
610.30	45132.55
610.46	45296.39
610.61	45560.87
610.76	45237.87
610.92	45170.00
611.07	45687.26
611.23	45551.51
611.38	45380.65
611.54	45195.74
611.69	45116.17
611.84	45272.98
612.00	45038.93
612.15	44610.61
612.31	45029.57
612.46	44772.11
612.62	45020.20
612.77	45158.30
612.92	45247.24
613.08	45184.04
613.23	45118.51
613.39	44708.91
613.54	44451.45
613.69	44694.87
613.85	44816.58
614.00	44732.32
614.15	45029.57
614.31	44648.06
614.46	44999.14
614.62	44479.54
614.77	44957.01
614.92	44650.40
615.08	44612.95
615.23	44678.49
615.38	44542.74
615.54	44460.82
615.69	44519.33
615.84	44381.24
616.00	44458.48
616.15	44224.42
616.30	44760.40
616.46	44751.04
616.61	44264.21
616.76	44191.65
616.92	44301.66
617.07	44442.09
617.22	44217.40
617.37	44737.00
617.53	44332.09
617.68	44638.70
617.83	44013.77
617.99	44521.67
618.14	44559.12
618.29	44456.14
618.45	43854.62
618.60	44121.44
618.75	43739.93
618.90	43938.88
619.06	43611.20
619.21	43728.23
619.36	44308.68
619.51	43969.30
619.67	43955.26
619.82	43702.48
619.97	44219.74
620.12	43288.21
620.28	43571.41
620.43	43650.99
620.58	43594.82
620.73	43243.74
620.89	43580.78
621.04	43683.76
621.19	43653.33
621.34	43676.74
621.49	43814.83
621.65	43316.29
621.80	43622.90
621.95	43377.15
622.10	43962.28
622.25	43819.51
622.41	43138.41
622.56	43484.81
622.71	43578.43
622.86	43166.50
623.01	43353.74
623.16	43723.55
623.32	43323.32
623.47	43206.29
623.62	43548.01
623.77	43115.01
623.92	42906.70
624.07	43082.24
624.23	42747.54
624.38	43110.33
624.53	43400.55
624.68	43505.88
624.83	43421.62
624.98	43461.41
625.13	42887.98
625.29	42953.51
625.44	42775.63
625.59	42564.98
625.74	42857.55
625.89	42539.24
626.04	42630.52
626.19	42667.97
626.34	42747.54
626.49	42974.58
626.65	42934.79
626.80	42684.35
626.95	42878.61
627.10	42471.36
627.25	42656.26
627.40	42061.77
627.55	41930.70
627.70	42483.06
627.85	42263.05
628.00	42361.36
628.15	42593.07
628.30	42122.62
628.45	42562.64
628.60	42366.04
628.76	42064.11
628.91	42183.48
629.06	42349.65
629.21	42108.58
629.36	42052.41
629.51	41970.49
629.66	42131.98
629.81	42274.76
629.96	41909.63
630.11	41757.50
630.26	42115.60
630.41	42026.66
630.56	41785.58
630.71	42209.22
630.86	41918.99
631.01	41694.30
631.16	41911.97
631.31	41155.98
631.46	41471.95
631.61	42298.16
631.76	41441.53
631.91	42113.26
632.06	42146.03
632.21	41551.53
632.36	41771.54
632.51	41474.29
632.66	41645.15
632.81	41493.02
632.96	41359.61
633.10	41708.35
633.25	41799.63
633.40	41366.63
633.55	41614.72
633.70	41549.19
633.85	41490.68
634.00	41832.39
634.15	41406.42
634.30	41212.15
634.45	41317.48
634.60	41462.59
634.75	41214.49
634.90	40837.67
635.05	41003.85
635.19	41275.35
635.34	41429.82
635.49	41249.60
635.64	41160.66
635.79	40985.12
635.94	40870.43
636.09	40767.45
636.24	40449.14
636.39	40680.85
636.53	40940.65
636.68	40889.16
636.83	40758.09
636.98	40547.44
637.13	40905.54
637.28	40921.93
637.43	41083.42
637.57	40835.33
637.72	40627.02
637.87	40872.78
638.02	40814.26
638.17	40624.68
638.32	40463.18
638.46	40690.21
638.61	40395.31
638.76	40275.94
638.91	40451.48
639.06	40889.16
639.20	40545.10
639.35	40151.89
639.50	40121.46
639.65	40753.41
639.80	40425.73
639.94	40282.96
640.09	40172.96
640.24	40027.84
640.39	40311.05
640.54	39913.16
640.68	39887.41
640.83	40577.87
640.98	40119.12
641.13	39634.63
641.27	40201.04
641.42	40107.42
641.57	39821.87
641.72	39906.13
641.86	40041.88
642.01	39992.73
642.16	39878.05
642.31	39601.86
642.45	39812.51
642.60	39512.92
642.75	39583.14
642.90	39761.02
643.04	39709.53
643.19	39793.79
643.34	39470.79
643.48	39606.55
643.63	39831.24
643.78	39636.97
643.93	39707.19
644.07	39264.83
644.22	39236.74
644.37	39199.29
644.51	39379.51
644.66	39620.59
644.81	39480.16
644.95	39784.43
645.10	39423.98
645.25	39613.57
645.39	39360.79
645.54	39346.75
645.69	39365.47
645.83	39213.34
645.98	39037.80
646.13	38930.13
646.27	39391.22
646.42	39388.88
646.57	38763.95
646.71	39072.90
646.86	39316.32
647.00	38712.46
647.15	39203.97
647.30	39065.88
647.44	38988.64
647.59	39215.68
647.74	38550.96
647.88	38225.63
648.03	38572.03
648.17	39040.14
648.32	38623.52
648.47	38614.16
648.61	38651.61
648.76	38763.95
648.90	38778.00
649.05	38651.61
649.20	39000.35
649.34	38581.39
649.49	38347.34
649.63	38513.52
649.78	38595.43
649.92	38293.50
650.07	38707.78
650.21	38316.91
650.36	38934.81
650.51	38827.15
650.65	39108.01
650.80	38630.54
650.94	38731.18
651.09	38204.56
651.23	38450.32
651.38	38382.45
651.52	38047.75
651.67	37727.10
651.81	38024.34
651.96	38258.40
652.10	38120.31
652.25	38658.63
652.39	38345.00
652.54	38298.19
652.68	37846.46
652.83	38326.27
652.97	38569.69
653.12	38181.16
653.26	38022.00
653.41	37900.29
653.55	37762.20
653.70	37703.69
653.84	37811.35
653.99	37626.45
654.13	37858.17
654.27	37940.08
654.42	38038.39
654.56	37727.10
654.71	37769.22
654.85	37921.36
655.00	37741.14
655.14	37523.47
655.29	37607.73
655.43	37427.51
655.57	37020.25
655.72	37158.34
655.86	37022.59
656.01	37137.28
656.15	36872.80
656.30	36896.20
656.44	37125.58
656.58	37242.60
656.73	37148.98
656.87	36992.17
657.01	36715.98
657.16	36697.26
657.30	36435.12
657.45	36407.03
657.59	36467.89
657.73	36814.29
657.88	36947.70
658.02	36992.17
658.16	37139.62
658.31	37324.52
658.45	36835.35
658.60	36556.83
658.74	37015.57
658.88	37038.98
659.03	36842.37
659.17	36407.03
659.31	36095.74
659.46	36098.08
659.60	36659.81
659.74	36872.80
659.89	36247.88
660.03	36252.56
660.17	36657.47
660.32	36442.14
660.46	36486.61
660.60	36311.07
660.74	36369.58
660.89	36521.72
661.03	36023.19
661.17	36231.49
661.32	35981.06
661.46	36369.58
661.60	35550.40
661.74	35807.86
661.89	35669.76
662.03	35739.98
662.17	35646.36
662.31	35835.94
662.46	36187.02
662.60	35594.87
662.74	35679.13
662.88	35501.25
663.03	35112.72
663.17	35494.22
663.31	34920.79
663.45	35536.35
663.60	35424.01
663.74	35356.13
663.88	35241.45
664.02	34782.70
664.17	35023.78
664.31	34890.37
664.45	34656.31
664.59	34651.63
664.73	35072.93
664.88	34749.93
665.02	34560.35
665.16	34024.37
665.30	34539.29
665.44	34256.08
665.59	34141.39
665.73	34466.73
665.87	34185.86
666.01	34057.14
666.15	34309.91
666.29	34471.41
666.44	34094.58
666.58	34644.61
666.72	34426.94
666.86	34227.99
667.00	34284.17
667.14	34085.22
667.28	33968.19
667.43	33963.51
667.57	33886.28
667.71	33902.66
667.85	33876.91
667.99	33996.28
668.13	34174.16
668.27	33713.08
668.41	33537.54
668.56	33462.64
668.70	33436.89
668.84	33263.69
668.98	33434.55
669.12	33106.88
669.26	33303.48
669.40	32814.31
669.54	32870.48
669.68	33062.41
669.82	32549.83
669.96	32587.28
670.10	32835.38
670.25	33062.41
670.39	32629.41
670.53	32456.21
670.67	32844.74
670.81	32563.87
670.95	32669.20
671.09	32449.19
671.23	32449.19
671.37	32079.38
671.51	32140.24
671.65	32428.12
671.79	31929.59
671.93	32086.40
672.07	32046.62
672.21	31686.17
672.35	31246.15
672.49	31793.84
672.63	31770.43
672.77	31585.53
672.91	31620.64
673.05	31630.00
673.19	31786.82
673.33	31634.68
673.47	31295.30
673.61	31367.86
673.75	31262.54
673.89	31243.81
674.03	31058.91
674.17	30951.24
674.31	30740.60
674.45	31349.14
674.59	31061.25
674.73	31290.62
674.87	30813.15
675.01	30813.15
675.15	30377.81
675.29	30396.54
675.43	30576.76
675.56	30663.36
675.70	30513.56
675.84	30347.39
675.98	29551.60
676.12	30298.23
676.26	30307.60
676.40	30394.20
676.54	30061.84
676.68	29848.85
676.82	29376.06
676.96	29734.17
677.10	29640.54
677.23	29675.65
677.37	29441.60
677.51	29083.50
677.65	29048.39
677.79	28606.03
677.93	29078.82
678.07	28552.20
678.21	28556.88
678.34	28638.80
678.48	28463.25
678.62	28346.23
678.76	28168.35
678.90	28308.78
679.04	27889.82
679.18	27983.44
679.31	28023.23
679.45	27817.27
679.59	27938.97
679.73	27721.30
679.87	28116.86
680.00	27573.85
680.14	27344.48
680.28	27421.72
680.42	27426.40
680.56	27248.52
680.70	27070.64
680.83	27363.20
680.97	26941.91
681.11	27077.66
681.25	27012.12
681.39	27145.53
681.52	27054.25
681.66	26668.06
681.80	26539.33
681.94	26246.77
682.07	26211.66
682.21	26164.85
682.35	25977.61
682.49	26115.70
682.62	26022.08
682.76	25837.17
682.90	26335.71
683.04	25696.74
683.17	25514.18
683.31	25516.52
683.45	25420.56
683.59	25511.84
683.72	25633.55
683.86	25474.39
684.00	24924.36
684.13	24959.47
684.27	25034.37
684.41	24643.50
684.55	24702.01
684.68	25123.31
684.82	24608.39
684.96	24709.04
685.09	24823.72
685.23	24540.52
685.37	24678.61
685.50	24463.28
685.64	24519.45
685.78	24016.24
685.91	24121.56
686.05	23915.59
686.19	23470.89
686.32	24027.94
686.46	23435.78
686.60	23339.82
686.73	23190.03
686.87	23122.15
687.01	23405.36
687.14	22799.16
687.28	22682.13
687.42	22775.75
687.55	22684.47
687.69	22726.60
687.82	22555.74
687.96	22899.80
688.10	22309.99
688.23	22548.72
688.37	22738.30
688.50	22525.32
688.64	22368.50
688.78	22368.50
688.91	21979.97
689.05	21809.11
689.18	21823.16
689.32	21301.22
689.46	21989.33
689.59	21958.91
689.73	21806.77
689.86	21425.26
690.00	21546.97
690.13	21591.44
690.27	21172.49
690.41	21226.32
690.54	21097.59
690.68	21259.09
690.81	21106.95
690.95	20891.62
691.08	21071.84
691.22	20999.29
691.35	20734.81
691.49	20830.77
691.62	20816.72
691.76	20690.34
691.89	20428.20
692.03	20409.47
692.16	20425.86
692.30	20306.49
692.43	19831.36
692.57	20135.63
692.70	19988.18
692.84	19681.56
692.97	19452.19
693.11	19482.62
693.24	19463.90
693.38	19440.49
693.51	19290.70
693.65	19250.91
693.78	19410.06
693.92	19295.38
694.05	19353.89
694.19	19293.04
694.32	19089.41
694.45	18827.27
694.59	18946.64
694.72	19042.60
694.86	18862.38
694.99	18735.99
695.13	18431.72
695.26	18602.58
695.39	18029.15
695.53	18508.96
695.66	18427.04
695.80	18195.32
695.93	18054.89
696.07	18017.44
696.20	17853.61
696.33	17900.42
696.47	17930.84
696.60	17944.89
696.73	17734.24
696.87	17685.09
697.00	17493.16
697.14	17193.58
697.27	17132.72
697.40	17219.32
697.54	17418.27
697.67	16954.84
697.80	17266.13
697.94	16938.46
698.07	16999.31
698.21	17074.21
698.34	17090.59
698.47	16772.28
698.61	16505.46
698.74	16751.21
698.87	16613.12
699.01	16505.46
699.14	16479.71
699.27	16130.97
699.40	16393.11
699.54	16114.59
699.67	15812.66
699.80	15826.70
699.94	15901.60
700.07	16285.45
700.20	16175.44
700.34	15962.45
700.47	15665.21
700.60	15576.27
700.73	15712.02
700.87	15618.39
701.00	15475.62
701.13	15316.47
701.26	15318.81
701.40	15187.74
701.53	14881.13
701.66	15030.92
701.79	14986.45
701.93	14836.66
702.06	15077.73
702.19	14827.29
702.32	14719.63
702.46	14813.25
702.59	15009.86
702.72	14778.14
702.85	14630.69
702.99	14544.09
703.12	14626.01
703.25	14420.04
703.38	14310.04
703.51	14291.31
703.65	13902.78
703.78	14150.88
703.91	13818.52
704.04	13884.06
704.17	13937.89
704.31	13685.11
704.44	13570.43
704.57	13678.09
704.70	13490.85
704.83	13432.33
704.96	13598.51
705.10	13429.99
705.23	13242.75
>>>>>End Processed Spectral Data<<<<<
