SpectraSuite Data File
++++++++++++++++++++++++++++++++++++
Date: Fri Oct 25 10:44:21 EDT 2013
User: price-jones
Dark Spectrum Present: No
Reference Spectrum Present: No
Number of Sampled Component Spectra: 1
Spectrometers: USB2+H05261
Integration Time (usec): 100000 (USB2+H05261)
Spectra Averaged: 1 (USB2+H05261)
Boxcar Smoothing: 0 (USB2+H05261)
Correct for Electrical Dark: No (USB2+H05261)
Strobe/Lamp Enabled: No (USB2+H05261)
Correct for Detector Non-linearity: No (USB2+H05261)
Correct for Stray Light: No (USB2+H05261)
Number of Pixels in Processed Spectrum: 2048
>>>>>Begin Processed Spectral Data<<<<<
365.73	30.43
365.92	30.43
366.12	30.43
366.32	58.51
366.52	37.45
366.72	98.30
366.91	0.00
367.11	149.79
367.31	23.41
367.51	74.90
367.70	11.70
367.90	23.41
368.10	21.06
368.30	56.17
368.49	102.98
368.69	0.00
368.89	65.54
369.09	0.00
369.28	0.00
369.48	117.03
369.68	21.06
369.87	102.98
370.07	147.45
370.27	131.07
370.47	203.63
370.66	421.30
370.86	423.64
371.06	383.85
371.25	447.04
371.45	477.47
371.65	404.91
371.84	514.92
372.04	433.00
372.24	524.28
372.44	573.43
372.63	545.34
372.83	538.32
373.03	543.00
373.22	547.69
373.42	517.26
373.62	510.24
373.81	510.24
374.01	587.47
374.21	596.84
374.40	535.98
374.60	512.58
374.79	566.41
374.99	559.39
375.19	589.82
375.38	580.45
375.58	606.20
375.78	608.54
375.97	554.71
376.17	669.39
376.37	650.67
376.56	699.82
376.76	678.76
376.95	664.71
377.15	645.99
377.35	641.31
377.54	634.29
377.74	657.69
377.93	690.46
378.13	699.82
378.33	720.88
378.52	592.16
378.72	589.82
378.91	617.90
379.11	638.97
379.31	695.14
379.50	664.71
379.70	657.69
379.89	739.61
380.09	671.73
380.28	685.78
380.48	725.57
380.68	636.63
380.87	580.45
381.07	770.04
381.26	770.04
381.46	744.29
381.65	884.72
381.85	690.46
382.04	821.53
382.24	753.65
382.43	791.10
382.63	683.44
382.83	732.59
383.02	739.61
383.22	760.67
383.41	697.48
383.61	781.74
383.80	823.87
384.00	720.88
384.19	730.25
384.39	791.10
384.58	788.76
384.78	786.42
384.97	788.76
385.17	816.85
385.36	842.59
385.56	786.42
385.75	882.38
385.95	802.80
386.14	844.93
386.34	807.48
386.53	868.34
386.72	835.57
386.92	884.72
387.11	915.15
387.31	873.02
387.50	898.77
387.70	889.40
387.89	802.80
388.09	835.57
388.28	945.58
388.48	919.83
388.67	1011.11
388.86	980.68
389.06	957.28
389.25	929.19
389.45	1032.18
389.64	971.32
389.84	968.98
390.03	992.39
390.22	1043.88
390.42	1039.20
390.61	1064.94
390.81	1069.62
391.00	1083.67
391.19	1083.67
391.39	1071.97
391.58	1163.25
391.78	1015.79
391.97	1109.41
392.16	1046.22
392.36	1149.20
392.55	1041.54
392.75	1036.86
392.94	1013.45
393.13	990.05
393.33	992.39
393.52	1086.01
393.71	1132.82
393.91	1132.82
394.10	1177.29
394.29	1210.06
394.49	1291.98
394.68	1240.48
394.88	1268.57
395.07	1289.64
395.26	1303.68
395.46	1306.02
395.65	1270.91
395.84	1303.68
396.04	1249.85
396.23	1170.27
396.42	1139.84
396.62	1228.78
396.81	1184.31
397.00	1254.53
397.19	1273.25
397.39	1277.93
397.58	1420.71
397.77	1446.45
397.97	1439.43
398.16	1486.24
398.35	1544.75
398.55	1448.79
398.74	1537.73
398.93	1650.08
399.12	1647.74
399.32	1570.50
399.51	1589.22
399.70	1668.80
399.90	1577.52
400.09	1675.82
400.28	1722.63
400.47	1832.64
400.67	1785.83
400.86	1776.47
401.05	1724.97
401.24	1792.85
401.44	1732.00
401.63	1853.70
401.82	1891.15
402.01	1790.51
402.21	1792.85
402.40	1767.10
402.59	1722.63
402.78	1839.66
402.97	1797.53
403.17	1984.77
403.36	1940.30
403.55	1921.58
403.74	1980.09
403.93	1963.71
404.13	1984.77
404.32	1952.01
404.51	1952.01
404.70	1898.17
404.89	2012.86
405.09	2012.86
405.28	1961.37
405.47	2024.56
405.66	2036.27
405.85	2003.50
406.05	2069.03
406.24	2090.10
406.43	2054.99
406.62	2277.34
406.81	2207.13
407.00	2106.48
407.20	2132.23
407.39	2214.15
407.58	2228.19
407.77	2260.96
407.96	2188.40
408.15	2375.64
408.34	2284.36
408.54	2410.75
408.73	2436.50
408.92	2466.92
409.11	2396.71
409.30	2380.32
409.49	2403.73
409.68	2352.24
409.87	2380.32
410.07	2445.86
410.26	2410.75
410.45	2464.58
410.64	2495.01
410.83	2600.34
411.02	2633.10
411.21	2736.09
411.40	2715.02
411.59	2656.51
411.78	2691.62
411.98	2705.66
412.17	2792.26
412.36	2722.04
412.55	2782.90
412.74	2869.50
412.93	2841.41
413.12	2801.62
413.31	3023.97
413.50	2818.00
413.69	2988.86
413.88	3049.72
414.07	3159.72
414.26	3094.19
414.45	3155.04
414.64	3110.57
414.83	3199.51
415.02	3194.83
415.22	3133.98
415.41	3262.71
415.60	3283.77
415.79	3407.82
415.98	3428.88
416.17	3370.37
416.36	3475.70
416.55	3197.17
416.74	3391.44
416.93	3328.24
417.12	3375.05
417.31	3426.54
417.50	3506.12
417.69	3599.74
417.88	3552.93
418.07	3454.63
418.26	3648.90
418.45	3721.45
418.64	3599.74
418.83	3719.11
419.02	3688.68
419.21	3885.29
419.39	3723.79
419.58	3721.45
419.77	3740.18
419.96	3740.18
420.15	3829.12
420.34	3833.80
420.53	3943.80
420.72	3824.44
420.91	4030.40
421.10	4039.76
421.29	4046.79
421.48	3941.46
421.67	4014.02
421.86	3974.23
422.05	3950.82
422.24	4009.34
422.43	4081.89
422.61	4124.02
422.80	4112.32
422.99	4156.79
423.18	4042.11
423.37	4161.47
423.56	3925.08
423.75	4119.34
423.94	3995.29
424.13	3918.06
424.32	3927.42
424.50	4044.45
424.69	4210.62
424.88	4009.34
425.07	4060.83
425.26	4100.62
425.45	4030.40
425.64	4046.79
425.83	4189.56
426.01	4173.18
426.20	4166.15
426.39	4250.41
426.58	4222.33
426.77	4112.32
426.96	4156.79
427.15	4114.66
427.33	4280.84
427.52	4327.65
427.71	4301.90
427.90	4332.33
428.09	4320.63
428.28	4297.22
428.46	4287.86
428.65	4301.90
428.84	4472.76
429.03	4493.83
429.22	4100.62
429.40	4266.80
429.59	4238.71
429.78	4191.90
429.97	4126.36
430.16	4198.92
430.34	4325.31
430.53	4227.01
430.72	4367.44
430.91	4297.22
431.10	4353.40
431.28	4643.62
431.47	4713.84
431.66	4875.34
431.85	4657.67
432.03	4744.27
432.22	4873.00
432.41	4854.27
432.60	4823.84
432.79	4840.23
432.97	5046.20
433.16	4945.55
433.35	4702.14
433.54	4755.97
433.72	4807.46
433.91	4791.08
434.10	5001.72
434.28	4950.23
434.47	5137.48
434.66	5151.52
434.85	5149.18
435.03	5186.63
435.22	5102.37
435.41	5324.72
435.59	5291.95
435.78	5186.63
435.97	5210.03
436.16	5291.95
436.34	5280.25
436.53	5458.13
436.72	5425.36
436.90	5132.79
437.09	5345.78
437.28	5448.77
437.46	5455.79
437.65	5385.57
437.84	5305.99
438.02	5380.89
438.21	5329.40
438.40	5441.75
438.58	5427.70
438.77	5626.65
438.96	5717.93
439.14	5844.32
439.33	5816.23
439.52	5930.92
439.70	5837.30
439.89	5853.68
440.08	5902.83
440.26	5898.15
440.45	5980.07
440.63	6026.88
440.82	6099.44
441.01	6031.56
441.19	6218.80
441.38	6267.95
441.57	6298.38
441.75	6387.32
441.94	6546.48
442.12	6436.47
442.31	6705.63
442.50	6703.29
442.68	6469.24
442.87	6506.69
443.05	6546.48
443.24	6684.57
443.43	6600.31
443.61	6871.81
443.80	6836.70
443.98	6509.03
444.17	6516.05
444.35	6768.83
444.54	6860.11
444.73	6637.76
444.91	6640.10
445.10	6640.10
445.28	6754.79
445.47	6651.80
445.65	6679.89
445.84	6726.70
446.02	6771.17
446.21	6906.92
446.39	6817.98
446.58	6991.18
446.77	7122.25
446.95	6892.88
447.14	6649.46
447.32	7241.62
447.51	7098.84
447.69	6967.77
447.88	7173.74
448.06	6916.28
448.25	6883.52
448.43	6956.07
448.62	6920.96
448.80	6923.30
448.99	7019.27
449.17	7222.89
449.36	7009.90
449.54	7370.35
449.73	7368.01
449.91	7496.74
450.10	7499.08
450.28	7557.59
450.46	7360.98
450.65	7325.88
450.83	7424.18
451.02	7440.56
451.20	7470.99
451.39	7475.67
451.57	7522.48
451.76	7492.05
451.94	7552.91
452.13	7613.76
452.31	7510.78
452.49	7419.50
452.68	7548.23
452.86	7639.51
453.05	7524.82
453.23	7683.98
453.42	7808.03
453.60	7581.00
453.78	7831.43
453.97	7691.00
454.15	7812.71
454.34	7517.80
454.52	7864.20
454.70	7796.32
454.89	7920.37
455.07	7747.17
455.26	7918.03
455.44	8086.55
455.62	8241.03
455.81	8102.93
455.99	8231.66
456.17	8217.62
456.36	8112.30
456.54	8032.72
456.73	8355.71
456.91	8388.48
457.09	8439.97
457.28	8393.16
457.46	8276.13
457.64	8498.49
457.83	8458.70
458.01	8393.16
458.19	8690.41
458.38	8526.57
458.56	8549.98
458.74	8404.86
458.93	8475.08
459.11	8629.56
459.29	8510.19
459.48	8730.20
459.66	8741.90
459.84	8634.24
460.03	8905.74
460.21	8720.84
460.39	9097.66
460.57	8755.94
460.76	9011.06
460.94	9015.74
461.12	9032.13
461.31	8830.84
461.49	8887.01
461.67	9032.13
461.85	9357.46
462.04	8887.01
462.22	9490.87
462.40	9238.09
462.59	9327.03
462.77	9188.94
462.95	9312.99
463.13	9336.40
463.32	9399.59
463.50	9586.83
463.68	9621.94
463.86	9523.64
464.05	9224.05
464.23	9219.37
464.41	9345.76
464.59	9322.35
464.78	9413.63
464.96	9359.80
465.14	9163.20
465.32	9589.17
465.50	9565.77
465.69	9488.53
465.87	9563.43
466.05	9638.33
466.23	9446.40
466.41	9554.07
466.60	9738.97
466.78	9490.87
466.96	9673.43
467.14	9575.13
467.32	9680.46
467.51	9689.82
467.69	9703.86
467.87	9731.95
468.05	9837.27
468.23	9785.78
468.41	9834.93
468.60	10104.09
468.78	9996.43
468.96	9963.66
469.14	9984.73
469.32	10352.19
469.50	9914.51
469.69	10118.14
469.87	10237.50
470.05	10169.63
470.23	10394.32
470.41	10036.22
470.59	10305.38
470.77	10347.51
470.95	10380.28
471.14	10527.73
471.32	10293.68
471.50	10869.45
471.68	10560.50
471.86	10869.45
472.04	10551.14
472.22	10913.92
472.40	10665.82
472.58	10743.06
472.77	10801.57
472.95	10817.96
473.13	11344.58
473.31	10719.65
473.49	10860.09
473.67	11023.92
473.85	11229.89
474.03	11253.30
474.21	11250.96
474.39	11536.50
474.57	11311.81
474.75	11477.99
474.93	11857.15
475.12	11587.99
475.30	11939.07
475.48	11564.59
475.66	11679.27
475.84	11669.91
476.02	11838.43
476.20	11836.09
476.38	11974.18
476.56	12329.94
476.74	12486.76
476.92	12348.67
477.10	12184.83
477.28	12386.12
477.46	12325.26
477.64	12437.61
477.82	12688.04
478.00	13167.85
478.18	12865.92
478.36	13011.04
478.54	13226.37
478.72	13245.09
478.90	13429.99
479.08	13605.53
479.26	13521.27
479.44	13324.67
479.62	13671.07
479.80	13762.35
479.98	13799.80
480.16	14204.71
480.34	13947.25
480.52	14338.12
480.70	14298.33
480.88	14281.95
481.06	14363.87
481.24	14544.09
481.41	14862.40
481.59	14967.73
481.77	14909.21
481.95	15136.24
482.13	15176.03
482.31	14984.11
482.49	15681.59
482.67	15304.76
482.85	15536.48
483.03	15740.10
483.21	15810.32
483.39	15875.85
483.57	15819.68
483.74	16273.74
483.92	16182.46
484.10	16070.12
484.28	16594.40
484.46	16704.40
484.64	16872.92
484.82	16786.32
485.00	16622.48
485.18	16819.09
485.35	17069.53
485.53	16879.94
485.71	16716.11
485.89	16877.60
486.07	16800.37
486.25	17048.46
486.43	17256.77
486.61	17507.21
486.78	17645.30
486.96	18019.78
487.14	18190.64
487.32	18164.90
487.50	18490.23
487.68	18717.26
487.85	18897.49
488.03	19187.71
488.21	19426.45
488.39	19232.18
488.57	19381.98
488.75	19499.00
488.92	19501.34
489.10	20107.54
489.28	20100.52
489.46	20280.74
489.64	20428.20
489.81	20798.00
489.99	20800.34
490.17	20847.15
490.35	21338.66
490.53	20961.84
490.70	21465.05
490.88	21158.44
491.06	21546.97
491.24	21245.04
491.41	21404.20
491.59	21579.74
491.77	21483.78
491.95	21886.35
492.13	22061.89
492.30	22122.74
492.48	22436.38
492.66	22251.47
492.84	22838.95
493.01	23080.02
493.19	22806.18
493.37	22806.18
493.54	23047.26
493.72	23190.03
493.90	23208.75
494.08	23250.88
494.25	23999.85
494.43	23992.83
494.61	24273.70
494.79	24091.13
494.96	23948.36
495.14	24105.18
495.32	24594.35
495.49	24004.53
495.67	24739.46
495.85	24601.37
496.02	24851.81
496.20	25081.18
496.38	25390.13
496.55	25465.03
496.73	25544.61
496.91	25802.07
497.09	25628.87
497.26	25841.85
497.44	26031.44
497.62	25757.60
497.79	26415.29
497.97	26080.59
498.14	26017.40
498.32	26553.38
498.50	26211.66
498.67	26642.32
498.85	27108.08
499.03	26829.56
499.20	27180.64
499.38	27227.45
499.56	27346.82
499.73	27747.05
499.91	27072.98
500.08	27363.20
500.26	27438.10
500.44	27601.94
500.61	27513.00
500.79	27543.42
500.97	27784.50
501.14	28168.35
501.32	27927.27
501.49	27777.48
501.67	27988.13
501.84	28357.93
502.02	27967.06
502.20	28903.28
502.37	28648.16
502.55	28652.84
502.72	29062.43
502.90	28959.45
503.07	28575.60
503.25	29216.91
503.43	28730.08
503.60	29212.23
503.78	28865.83
503.95	29041.37
504.13	29446.28
504.30	29869.92
504.48	29652.25
504.65	29727.14
504.83	29989.28
505.01	29921.41
505.18	30024.39
505.36	30628.25
505.53	30494.84
505.71	30764.00
505.88	30890.39
506.06	30228.02
506.23	30609.53
506.41	30565.06
506.58	30649.32
506.76	30448.03
506.93	30897.41
507.11	30595.48
507.28	31335.09
507.46	30890.39
507.63	30749.96
507.81	30932.52
507.98	31122.10
508.16	31229.77
508.33	31480.21
508.50	31892.14
508.68	31608.93
508.85	32439.82
509.03	32205.77
509.20	32060.66
509.38	32311.10
509.55	32236.20
509.73	32327.48
509.90	32549.83
510.08	32343.86
510.25	32046.62
510.42	32301.73
510.60	32786.22
510.77	32826.01
510.95	33259.01
511.12	32999.21
511.30	33226.24
511.47	32975.81
511.64	33579.67
511.82	33350.29
511.99	33530.51
512.17	33427.53
512.34	33043.68
512.51	33673.29
512.69	33472.00
512.86	33090.49
513.04	34216.29
513.21	33895.64
513.38	33923.72
513.56	33748.18
513.73	33631.16
513.90	34113.31
514.08	34246.72
514.25	34335.66
514.43	34199.91
514.60	34501.84
514.77	34192.89
514.95	34565.03
515.12	34710.14
515.29	34642.27
515.47	35161.87
515.64	35178.25
515.81	34684.40
515.99	34834.19
516.16	34572.05
516.33	34618.86
516.51	34569.71
516.68	33890.96
516.85	34188.21
517.03	34445.66
517.20	34775.68
517.37	35033.14
517.54	35526.99
517.72	35175.91
517.89	34766.32
518.06	34649.29
518.24	35084.63
518.41	35093.99
518.58	35386.56
518.75	35534.01
518.93	35634.66
519.10	35812.54
519.27	35962.33
519.45	36229.15
519.62	36058.29
519.79	36488.95
519.96	36353.20
520.14	36734.71
520.31	36271.28
520.48	36601.30
520.65	36416.40
520.83	37034.30
521.00	37212.18
521.17	37237.92
521.34	36952.38
521.52	37343.25
521.69	37329.20
521.86	37301.12
522.03	37258.99
522.20	37481.34
522.38	37371.33
522.55	37333.89
522.72	37467.30
522.89	37528.15
523.07	37883.91
523.24	37724.75
523.41	37752.84
523.58	38045.41
523.75	38469.04
523.92	38181.16
524.10	38309.89
524.27	38361.38
524.44	37928.38
524.61	37984.55
524.78	38756.93
524.96	38600.12
525.13	38438.62
525.30	38789.70
525.47	39068.22
525.64	38700.76
525.81	38323.93
525.98	38541.60
526.16	38319.25
526.33	38455.00
526.50	38834.17
526.67	38457.34
526.84	38017.32
527.01	38178.82
527.18	38576.71
527.36	39346.75
527.53	39529.31
527.70	39166.52
527.87	39608.89
528.04	39124.40
528.21	39454.41
528.38	40009.12
528.55	40018.48
528.72	40053.59
528.89	40224.45
529.07	39620.59
529.24	39583.14
529.41	39831.24
529.58	39761.02
529.75	40034.86
529.92	40048.91
530.09	40292.32
530.26	40329.77
530.43	40250.19
530.60	40126.14
530.77	40561.48
530.94	40601.27
531.11	40442.12
531.28	40549.78
531.46	40774.47
531.63	40589.57
531.80	40282.96
531.97	40559.14
532.14	40294.66
532.31	40252.53
532.48	40102.74
532.65	40297.00
532.82	40669.15
532.99	40767.45
533.16	40795.54
533.33	41031.93
533.50	40959.38
533.67	41588.98
533.84	41244.92
534.01	41088.10
534.18	41167.68
534.35	41504.72
534.52	41361.95
534.69	41097.47
534.86	41813.67
535.03	41539.83
535.20	41539.83
535.37	41961.12
535.54	42213.90
535.71	41713.03
535.88	41682.60
536.05	41717.71
536.22	41961.12
536.38	41572.60
536.55	41916.65
536.72	41834.74
536.89	41715.37
537.06	42101.56
537.23	42253.69
537.40	42036.02
537.57	42199.86
537.74	42349.65
537.91	42160.07
538.08	42398.80
538.25	41741.11
538.42	42171.77
538.59	42670.31
538.75	41858.14
538.92	42330.93
539.09	42508.81
539.26	42106.24
539.43	42131.98
539.60	42251.35
539.77	42501.79
539.94	42492.43
540.11	42178.79
540.28	42609.45
540.44	42384.76
540.61	42127.30
540.78	42380.08
540.95	42319.23
541.12	42457.32
541.29	42679.67
541.46	42562.64
541.62	42883.30
541.79	43117.35
541.96	42380.08
542.13	42792.01
542.30	43175.86
542.47	42742.86
542.63	43021.39
542.80	43466.09
542.97	43421.62
543.14	44121.44
543.31	43164.16
543.48	43379.49
543.64	44203.36
543.81	44355.49
543.98	43791.42
544.15	44025.48
544.32	43590.14
544.48	43770.36
544.65	43866.32
544.82	44210.38
544.99	43807.81
545.16	43983.35
545.32	43716.53
545.49	44470.18
545.66	44261.87
545.83	44545.08
546.00	44367.20
546.16	44002.07
546.33	44137.82
546.50	44032.50
546.67	44545.08
546.83	43929.51
547.00	44327.41
547.17	44170.59
547.34	43746.95
547.50	44509.97
547.67	44626.99
547.84	44545.08
548.00	44299.32
548.17	45092.76
548.34	44449.11
548.51	44725.30
548.67	44996.80
548.84	44776.79
549.01	44577.84
549.18	44587.21
549.34	44809.56
549.51	45141.91
549.68	44751.04
549.84	45022.54
550.01	45392.35
550.18	44748.70
550.34	44783.81
550.51	45165.32
550.68	45329.16
550.84	44942.97
551.01	45202.77
551.18	45251.92
551.34	44928.92
551.51	45221.49
551.68	45200.43
551.84	45727.05
552.01	45507.04
552.18	44830.62
552.34	45095.10
552.51	44985.10
552.68	45191.06
552.84	45228.51
553.01	45876.84
553.18	45631.08
553.34	45090.42
553.51	45081.06
553.67	45514.06
553.84	45743.43
554.01	45766.84
554.17	46073.45
554.34	45811.31
554.51	45881.52
554.67	45970.46
554.84	45645.13
555.00	45794.92
555.17	45696.62
555.33	45757.47
555.50	45600.66
555.67	45918.97
555.83	45799.60
556.00	45813.65
556.16	46220.90
556.33	45539.80
556.50	45780.88
556.66	45694.28
556.83	46010.25
556.99	46230.26
557.16	45949.40
557.32	46335.59
557.49	46398.78
557.65	45556.19
557.82	46138.98
557.98	45947.06
558.15	45944.72
558.32	46302.82
558.48	45797.26
558.65	46017.27
558.81	45694.28
558.98	46036.00
559.14	46080.47
559.31	45551.51
559.47	46398.78
559.64	46185.79
559.80	46155.36
559.97	46363.67
560.13	46080.47
560.30	46436.23
560.46	46246.65
560.63	46265.37
560.79	46429.21
560.96	46506.44
561.12	46440.91
561.29	46281.75
561.45	46043.02
561.61	46225.58
561.78	46490.06
561.94	46195.15
562.11	46202.18
562.27	46518.15
562.44	46368.35
562.60	46616.45
562.77	46316.86
562.93	46562.62
563.10	46714.75
563.26	46555.60
563.42	46714.75
563.59	46164.73
563.75	46426.87
563.92	46712.41
564.08	46995.62
564.24	47040.09
564.41	46548.57
564.57	46370.69
564.74	46457.29
564.90	46902.00
565.07	46726.46
565.23	46415.16
565.39	46513.47
565.56	46557.94
565.72	46801.35
565.88	46101.53
566.05	46499.42
566.21	46569.64
566.38	46681.98
566.54	46684.33
566.70	46916.04
566.87	47112.64
567.03	46515.81
567.19	46808.37
567.36	46782.63
567.52	46366.01
567.68	46848.16
567.85	46618.79
568.01	46815.40
568.17	46974.55
568.34	46906.68
568.50	46848.16
568.66	46635.17
568.83	46700.71
568.99	46473.68
569.15	46604.75
569.32	46522.83
569.48	46855.18
569.64	46855.18
569.81	46859.87
569.97	46988.60
570.13	46567.30
570.30	46562.62
570.46	46279.41
570.62	46368.35
570.78	46293.46
570.95	46480.70
571.11	46735.82
571.27	46773.27
571.43	46562.62
571.60	46784.97
571.76	46799.01
571.92	46836.46
572.09	46696.03
572.25	46539.21
572.41	46852.84
572.57	47042.43
572.74	47360.74
572.90	46747.52
573.06	46965.19
573.22	46873.91
573.38	46995.62
573.55	46852.84
573.71	47241.37
573.87	47086.90
574.03	46941.78
574.20	46813.05
574.36	46560.28
574.52	46958.17
574.68	46621.13
574.84	47007.32
575.01	46916.04
575.17	47054.13
575.33	46916.04
575.49	46679.64
575.65	47150.09
575.82	46656.24
575.98	46679.64
576.14	47239.03
576.30	47166.48
576.46	46799.01
576.62	46958.17
576.79	47068.17
576.95	46897.31
577.11	47159.45
577.27	46752.20
577.43	47346.70
577.59	47000.30
577.75	46838.80
577.92	46356.65
578.08	46330.90
578.24	46457.29
578.40	46775.61
578.56	46344.95
578.72	46801.35
578.88	47311.59
579.04	47206.26
579.21	47016.68
579.37	46803.69
579.53	47185.20
579.69	46995.62
579.85	46756.88
580.01	46789.65
580.17	46958.17
580.33	47091.58
580.49	47180.52
580.65	47213.29
580.82	47058.81
580.98	46941.78
581.14	47049.45
581.30	47014.34
581.46	47035.41
581.62	47051.79
581.78	46960.51
581.94	47227.33
582.10	46976.89
582.26	47028.38
582.42	47250.74
582.58	47058.81
582.74	47061.15
582.90	47288.18
583.06	47217.97
583.22	47143.07
583.38	47285.84
583.54	47583.09
583.70	47159.45
583.86	47255.42
584.02	47042.43
584.18	47061.15
584.34	47290.52
584.50	46672.62
584.66	47264.78
584.82	46799.01
584.98	47306.91
585.14	46850.50
585.30	47070.51
585.46	46979.23
585.62	46791.99
585.78	46974.55
585.94	46974.55
586.10	46911.36
586.26	46894.97
586.42	47065.83
586.58	47496.49
586.74	47288.18
586.90	46990.94
587.06	46564.96
587.22	47250.74
587.38	47178.18
587.54	47295.21
587.70	47100.94
587.86	47255.42
588.02	46909.02
588.18	47325.63
588.34	46894.97
588.49	46525.17
588.65	45965.78
588.81	46127.28
588.97	46522.83
589.13	46576.66
589.29	46581.34
589.45	46571.98
589.61	47173.50
589.77	46911.36
589.93	47278.82
590.08	46759.22
590.24	47037.75
590.40	46972.21
590.56	47220.31
590.72	47126.69
590.88	46761.56
591.04	47236.69
591.20	47332.65
591.35	47089.24
591.51	47688.42
591.67	47215.63
591.83	47187.54
591.99	47241.37
592.15	47320.95
592.31	47166.48
592.46	47379.46
592.62	47327.97
592.78	47402.87
592.94	47632.24
593.10	47224.99
593.26	47346.70
593.41	46724.11
593.57	47442.66
593.73	46902.00
593.89	47271.80
594.05	47393.51
594.20	47281.16
594.36	47143.07
594.52	47007.32
594.68	47091.58
594.84	46916.04
594.99	47468.40
595.15	47157.11
595.31	47100.94
595.47	47498.83
595.62	47257.76
595.78	47316.27
595.94	47309.25
596.10	47391.17
596.25	47452.02
596.41	47351.38
596.57	47316.27
596.73	47136.05
596.88	47082.22
597.04	47552.66
597.20	47337.33
597.36	47489.47
597.51	47690.76
597.67	47327.97
597.83	47627.56
597.99	47819.49
598.14	47653.31
598.30	47386.49
598.46	46869.23
598.61	47346.70
598.77	47255.42
598.93	47049.45
599.09	47283.50
599.24	47693.10
599.40	47107.96
599.56	47437.98
599.71	47147.75
599.87	47325.63
600.03	47012.00
600.18	47131.37
600.34	47517.56
600.50	47344.36
600.65	46906.68
600.81	47445.00
600.97	47257.76
601.12	47519.90
601.28	47185.20
601.44	47189.88
601.59	47269.46
601.75	46607.09
601.91	47143.07
602.06	46986.25
602.22	47203.92
602.37	47028.38
602.53	47152.43
602.69	47540.96
602.84	47262.44
603.00	46906.68
603.16	47278.82
603.31	47264.78
603.47	46976.89
603.62	47278.82
603.78	47187.54
603.94	47189.88
604.09	47414.57
604.25	47276.48
604.40	47210.95
604.56	47363.08
604.71	47276.48
604.87	47035.41
605.03	47185.20
605.18	46740.50
605.34	47187.54
605.49	46677.30
605.65	47416.91
605.80	46899.65
605.96	47166.48
606.12	47302.23
606.27	47253.08
606.43	47028.38
606.58	47255.42
606.74	46614.11
606.89	46808.37
607.05	46831.78
607.20	47084.56
607.36	46780.29
607.51	47030.72
607.67	46513.47
607.82	47030.72
607.98	46693.69
608.13	46768.58
608.29	46295.80
608.44	46220.90
608.60	46782.63
608.75	46546.23
608.91	46674.96
609.06	46735.82
609.22	46607.09
609.37	46663.26
609.53	46480.70
609.68	46621.13
609.84	46398.78
609.99	46660.92
610.15	46078.13
610.30	46288.77
610.46	46028.98
610.61	46501.76
610.76	46344.95
610.92	46639.86
611.07	46770.93
611.23	46735.82
611.38	46199.83
611.54	46667.94
611.69	46447.93
611.84	46134.30
612.00	46157.70
612.15	46241.96
612.31	46813.05
612.46	46199.83
612.62	46653.90
612.77	46256.01
612.92	46593.04
613.08	46426.87
613.23	46138.98
613.39	46480.70
613.54	45940.04
613.69	46274.73
613.85	46124.94
614.00	46131.96
614.15	46164.73
614.31	45769.18
614.46	46216.22
614.62	46164.73
614.77	45832.37
614.92	45844.07
615.08	46124.94
615.23	45837.05
615.38	45834.71
615.54	45841.73
615.69	45638.11
615.84	45399.37
616.00	45748.11
616.15	45752.79
616.30	45556.19
616.46	45404.05
616.61	45340.86
616.76	45869.82
616.92	45380.65
617.07	44868.07
617.22	45354.90
617.37	45179.36
617.53	45886.20
617.68	45806.62
617.83	45743.43
617.99	45900.25
618.14	45579.59
618.29	45500.01
618.45	45357.24
618.60	45305.75
618.75	45041.27
618.90	45272.98
619.06	45406.39
619.21	45478.95
619.36	45600.66
619.51	45469.59
619.67	45017.86
619.82	45340.86
619.97	45579.59
620.12	45022.54
620.28	44552.10
620.43	45081.06
620.58	45303.41
620.73	44690.19
620.89	44910.20
621.04	45172.34
621.19	44671.46
621.34	45394.69
621.49	44825.94
621.65	44753.38
621.80	44360.17
621.95	44818.92
622.10	45137.23
622.25	44425.71
622.41	44589.55
622.56	44664.44
622.71	44947.65
622.86	44353.15
623.01	44692.53
623.16	44610.61
623.32	44196.34
623.47	44673.81
623.62	44257.19
623.77	44334.43
623.92	43964.62
624.07	44142.50
624.23	44526.35
624.38	44376.56
624.53	44376.56
624.68	44636.36
624.83	44353.15
624.98	44329.75
625.13	43658.01
625.29	44362.51
625.44	44074.63
625.59	43665.03
625.74	43578.43
625.89	43241.40
626.04	43344.38
626.19	43976.33
626.34	44018.46
626.49	44083.99
626.65	44041.86
626.80	44266.55
626.95	43863.98
627.10	43611.20
627.25	43423.96
627.40	43419.28
627.55	43215.65
627.70	42983.94
627.85	43360.76
628.00	43246.08
628.15	43438.00
628.30	43510.56
628.45	44069.95
628.60	43206.29
628.76	43861.64
628.91	43430.98
629.06	43086.92
629.21	43232.04
629.36	43325.66
629.51	42792.01
629.66	42857.55
629.81	42836.48
629.96	43065.86
630.11	43447.36
630.26	43295.23
630.41	43386.51
630.56	43112.67
630.71	43086.92
630.86	42997.98
631.01	42876.27
631.16	43037.77
631.31	42541.58
631.46	42546.26
631.61	42745.20
631.76	42660.94
631.91	42780.31
632.06	42707.76
632.21	43365.45
632.36	42724.14
632.51	42609.45
632.66	42424.55
632.81	42230.29
632.96	42415.19
633.10	42389.44
633.25	43012.02
633.40	42279.44
633.55	42754.57
633.70	42644.56
633.85	42536.90
634.00	42277.10
634.15	41879.21
634.30	42653.92
634.45	42520.51
634.60	42213.90
634.75	42340.29
634.90	41722.39
635.05	42190.50
635.19	42160.07
635.34	42288.80
635.49	42197.52
635.64	42366.04
635.79	42354.33
635.94	41888.57
636.09	42127.30
636.24	42068.79
636.39	42391.78
636.53	42010.28
636.68	41666.22
636.83	42000.91
636.98	42021.98
637.13	41972.83
637.28	41738.77
637.43	42103.90
637.57	42307.52
637.72	41853.46
637.87	41766.86
638.02	41907.29
638.17	42029.00
638.32	41591.32
638.46	42054.75
638.61	41738.77
638.76	41598.34
638.91	41525.78
639.06	41394.71
639.20	41560.89
639.35	41579.62
639.50	41366.63
639.65	41256.62
639.80	41631.11
639.94	41151.30
640.09	41453.23
640.24	41251.94
640.39	41235.56
640.54	40921.93
640.68	40664.47
640.83	41160.66
640.98	41125.55
641.13	40924.27
641.27	41481.31
641.42	41057.68
641.57	41317.48
641.72	41113.85
641.86	40561.48
642.01	40620.00
642.16	40608.29
642.31	40402.33
642.45	40655.11
642.60	40687.87
642.75	40973.42
642.90	40463.18
643.04	40395.31
643.19	40563.82
643.34	40889.16
643.48	40486.59
643.63	40268.92
643.78	40189.34
643.93	40439.78
644.07	40781.49
644.22	40811.92
644.37	39772.72
644.51	40528.72
644.66	40514.67
644.81	41017.89
644.95	40877.46
645.10	41081.08
645.25	40692.55
645.39	41017.89
645.54	40502.97
645.69	40156.57
645.83	40294.66
645.98	40289.98
646.13	40676.17
646.27	40074.65
646.42	40573.19
646.57	40432.75
646.71	40095.72
646.86	40168.27
647.00	40414.03
647.15	40275.94
647.30	40020.82
647.44	40072.31
647.59	40201.04
647.74	39798.47
647.88	39709.53
648.03	39768.04
648.17	40027.84
648.32	39737.62
648.47	39814.85
648.61	39805.49
648.76	39988.05
648.90	40289.98
649.05	39391.22
649.20	39744.64
649.34	39620.59
649.49	39215.68
649.63	39407.60
649.78	39089.29
649.92	39627.61
650.07	39615.91
650.21	39290.57
650.36	39526.97
650.51	39328.02
650.65	39578.46
650.80	39672.08
650.94	39702.51
651.09	39810.17
651.23	39019.07
651.38	39423.98
651.52	39297.59
651.67	39374.83
651.81	39051.84
651.96	38829.49
652.10	38642.24
652.25	39072.90
652.39	39405.26
652.54	39140.78
652.68	39431.01
652.83	39058.86
652.97	39267.17
653.12	39019.07
653.26	38710.12
653.41	38642.24
653.55	38658.63
653.70	38330.95
653.84	39042.48
653.99	38752.25
654.13	38838.85
654.27	38808.42
654.42	38560.33
654.56	38078.18
654.71	38567.35
654.85	38616.50
655.00	38550.96
655.14	38473.73
655.29	38534.58
655.43	38518.20
655.57	37977.53
655.72	37696.67
655.86	37708.37
656.01	37600.71
656.15	37521.13
656.30	37816.04
656.44	38059.45
656.58	37844.12
656.73	37603.05
656.87	38237.33
657.01	38185.84
657.16	38319.25
657.30	37720.07
657.45	38043.07
657.59	38019.66
657.73	37940.08
657.88	38281.80
658.02	38183.50
658.16	37853.48
658.31	38326.27
658.45	37813.70
658.60	37855.82
658.74	37717.73
658.88	37865.19
659.03	37528.15
659.17	37645.18
659.31	37474.32
659.46	37486.02
659.60	37816.04
659.74	37626.45
659.89	37081.11
660.03	37432.19
660.17	37486.02
660.32	37340.91
660.46	37361.97
660.60	37504.74
660.74	37315.16
660.89	36994.51
661.03	37216.86
661.17	36629.38
661.32	36533.42
661.46	37092.81
661.60	36704.28
661.74	36879.82
661.89	36844.71
662.03	36788.54
662.17	36538.10
662.31	36687.90
662.46	36495.97
662.60	37078.77
662.74	36605.98
662.88	36210.43
663.03	36079.36
663.17	36156.60
663.31	36589.59
663.45	36545.12
663.60	36432.78
663.74	36367.24
663.88	36334.48
664.02	36074.68
664.17	36418.74
664.31	35913.18
664.45	35927.22
664.59	35756.36
664.73	35435.71
664.88	35665.08
665.02	35250.81
665.16	35590.19
665.30	35545.72
665.44	35239.11
665.59	35494.22
665.73	35475.50
665.87	35225.06
666.01	35646.36
666.15	35112.72
666.29	35644.02
666.44	35517.63
666.58	34768.66
666.72	35084.63
666.86	35438.05
667.00	35133.78
667.14	35189.95
667.28	34946.54
667.43	34625.89
667.57	34965.26
667.71	34815.47
667.85	34567.37
667.99	34555.67
668.13	34756.96
668.27	34288.85
668.41	34146.08
668.56	34132.03
668.70	34625.89
668.84	34497.16
668.98	33858.19
669.12	33823.08
669.26	34237.36
669.40	33816.06
669.54	33926.07
669.68	33923.72
669.82	33467.32
669.96	33397.10
670.10	33408.81
670.25	33811.38
670.39	33731.80
670.53	33336.25
670.67	33483.70
670.81	33411.15
670.95	33429.87
671.09	33256.67
671.23	33333.91
671.37	33223.90
671.51	33013.26
671.65	32797.93
671.79	32807.29
671.93	32914.95
672.07	33228.59
672.21	33041.34
672.35	32858.78
672.49	32542.81
672.63	33195.82
672.77	32531.11
672.91	32851.76
673.05	32329.82
673.19	32493.66
673.33	32315.78
673.47	31723.62
673.61	31997.46
673.75	31770.43
673.89	31929.59
674.03	32053.64
674.17	31854.69
674.31	31468.50
674.45	31622.98
674.59	31648.72
674.73	32453.87
674.87	31473.18
675.01	31496.59
675.15	31395.95
675.29	31658.09
675.43	31213.38
675.56	31386.58
675.70	30944.22
675.84	30981.67
675.98	30450.37
676.12	30794.43
676.26	30911.46
676.40	30731.23
676.54	31028.48
676.68	31047.21
676.82	30267.81
676.96	30614.21
677.10	30394.20
677.23	30274.83
677.37	30356.75
677.51	30169.51
677.65	29708.42
677.79	29696.72
677.93	30120.35
678.07	29720.12
678.21	29085.84
678.34	29046.05
678.48	28952.43
678.62	29106.90
678.76	29006.26
678.90	28924.34
679.04	28882.21
679.18	28669.22
679.31	28835.40
679.45	28692.63
679.59	28397.72
679.73	28386.02
679.87	28526.45
680.00	28238.56
680.14	28212.82
680.28	28414.10
680.42	27878.12
680.56	28126.22
680.70	27999.83
680.83	27779.82
680.97	27936.63
681.11	28247.93
681.25	27665.13
681.39	27672.15
681.52	27695.56
681.66	27494.27
681.80	27484.91
681.94	27473.21
682.07	27442.78
682.21	27131.49
682.35	26911.48
682.49	27374.91
682.62	26981.70
682.76	26911.48
682.90	26747.64
683.04	26595.51
683.17	26611.89
683.31	26031.44
683.45	26429.33
683.59	26368.48
683.72	26162.51
683.86	25958.88
684.00	25603.12
684.13	26302.94
684.27	25827.81
684.41	25839.51
684.55	25380.77
684.68	25436.94
684.82	25607.80
684.96	25247.36
685.09	25263.74
685.23	25296.51
685.37	25261.40
685.50	25111.61
685.64	24968.84
685.78	24802.66
685.91	24706.70
686.05	24858.83
686.19	24271.36
686.32	24290.08
686.46	24074.75
686.60	23789.20
686.73	23463.87
686.87	23199.39
687.01	23803.25
687.14	23379.61
687.28	23154.92
687.42	23491.96
687.55	23693.24
687.69	23358.55
687.82	23491.96
687.96	23414.72
688.10	23124.49
688.23	23349.18
688.37	23283.65
688.50	22618.94
688.64	23068.32
688.78	22902.14
688.91	22581.49
689.05	22869.37
689.18	22752.35
689.32	22225.73
689.46	22649.36
689.59	22485.53
689.73	22527.66
689.86	22099.34
690.00	22356.80
690.13	22108.70
690.27	22080.61
690.41	21846.56
690.54	21741.24
690.68	21448.67
690.81	21553.99
690.95	21898.05
691.08	21926.14
691.22	21617.19
691.35	21556.33
691.49	21727.19
691.62	21252.06
691.76	21488.46
691.89	20940.77
692.03	20706.72
692.16	20498.41
692.30	20362.66
692.43	20542.88
692.57	20105.20
692.70	20613.10
692.84	20376.70
692.97	20498.41
693.11	20482.03
693.24	20105.20
693.38	19920.30
693.51	19922.64
693.65	20194.14
693.78	20067.75
693.92	20030.30
694.05	19803.27
694.19	19695.61
694.32	19709.65
694.45	19761.14
694.59	19080.05
694.72	19405.38
694.86	19241.54
694.99	19161.97
695.13	19087.07
695.26	19042.60
695.39	18890.46
695.53	18951.32
695.66	18984.09
695.80	18925.57
695.93	18703.22
696.07	18684.50
696.20	18473.85
696.33	18534.70
696.47	18544.06
696.60	18305.33
696.73	18324.05
696.87	18017.44
697.00	18162.56
697.14	18380.23
697.27	17877.01
697.40	17926.16
697.54	17619.55
697.67	17675.73
697.80	18008.08
697.94	17635.94
698.07	17338.69
698.21	17221.66
698.34	17444.01
698.47	17329.33
698.61	16697.38
698.74	17008.67
698.87	16926.75
699.01	16706.74
699.14	16643.55
699.27	16393.11
699.40	16606.10
699.54	16568.65
699.67	16259.70
699.80	16533.54
699.94	16402.47
700.07	16409.50
700.20	16285.45
700.34	16079.48
700.47	16119.27
700.60	16346.30
700.73	16084.16
700.87	16025.65
701.00	16081.82
701.13	16081.82
701.26	15487.32
701.40	15861.81
701.53	15555.20
701.66	15269.66
701.79	15421.79
701.93	15620.74
702.06	15311.78
702.19	15154.97
702.32	15171.35
702.46	15049.64
702.59	15091.77
702.72	15192.42
702.85	15012.20
702.99	14970.07
703.12	14780.48
703.25	14649.41
703.38	14403.66
703.51	14295.99
703.65	14375.57
703.78	14450.47
703.91	14427.06
704.04	14441.11
704.17	14511.32
704.31	14501.96
704.44	14026.83
704.57	14026.83
704.70	13991.72
704.83	13870.01
704.96	14094.71
705.10	13844.27
705.23	13804.48
>>>>>End Processed Spectral Data<<<<<
