SpectraSuite Data File
++++++++++++++++++++++++++++++++++++
Date: Fri Oct 25 10:43:29 EDT 2013
User: price-jones
Dark Spectrum Present: No
Reference Spectrum Present: No
Number of Sampled Component Spectra: 1
Spectrometers: USB2+H05261
Integration Time (usec): 100000 (USB2+H05261)
Spectra Averaged: 1 (USB2+H05261)
Boxcar Smoothing: 0 (USB2+H05261)
Correct for Electrical Dark: No (USB2+H05261)
Strobe/Lamp Enabled: No (USB2+H05261)
Correct for Detector Non-linearity: No (USB2+H05261)
Correct for Stray Light: No (USB2+H05261)
Number of Pixels in Processed Spectrum: 2048
>>>>>Begin Processed Spectral Data<<<<<
365.73	126.39
365.92	126.39
366.12	126.39
366.32	81.92
366.52	7.02
366.72	88.94
366.91	0.00
367.11	9.36
367.31	65.54
367.51	0.00
367.70	0.00
367.90	28.09
368.10	84.26
368.30	0.00
368.49	16.38
368.69	42.13
368.89	11.70
369.09	72.56
369.28	39.79
369.48	49.15
369.68	46.81
369.87	112.35
370.07	39.79
370.27	124.05
370.47	161.50
370.66	395.55
370.86	423.64
371.06	407.25
371.25	482.15
371.45	409.59
371.65	514.92
371.84	475.13
372.04	491.51
372.24	444.70
372.44	409.59
372.63	535.98
372.83	489.17
373.03	545.34
373.22	470.45
373.42	582.79
373.62	540.66
373.81	540.66
374.01	519.60
374.21	505.56
374.40	585.13
374.60	594.50
374.79	564.07
374.99	624.92
375.19	561.73
375.38	615.56
375.58	561.73
375.78	596.84
375.97	629.60
376.17	594.50
376.37	615.56
376.56	622.58
376.76	638.97
376.95	564.07
377.15	496.19
377.35	596.84
377.54	657.69
377.74	550.03
377.93	575.77
378.13	683.44
378.33	697.48
378.52	594.50
378.72	681.10
378.91	709.18
379.11	671.73
379.31	641.31
379.50	667.05
379.70	662.37
379.89	620.24
380.09	702.16
380.28	746.63
380.48	706.84
380.68	730.25
380.87	662.37
381.07	767.70
381.26	699.82
381.46	697.48
381.65	660.03
381.85	636.63
382.04	627.26
382.24	770.04
382.43	713.86
382.63	725.57
382.83	627.26
383.02	755.99
383.22	709.18
383.41	760.67
383.61	716.20
383.80	732.59
384.00	767.70
384.19	760.67
384.39	863.66
384.58	781.74
384.78	802.80
384.97	793.44
385.17	753.65
385.36	793.44
385.56	884.72
385.75	833.23
385.95	819.19
386.14	875.36
386.34	826.21
386.53	875.36
386.72	915.15
386.92	844.93
387.11	880.04
387.31	943.24
387.50	875.36
387.70	936.21
387.89	896.43
388.09	877.70
388.28	863.66
388.48	868.34
388.67	901.11
388.86	898.77
389.06	950.26
389.25	908.13
389.45	987.71
389.64	1048.56
389.84	997.07
390.03	1027.50
390.22	1006.43
390.42	1048.56
390.61	966.64
390.81	997.07
391.00	1032.18
391.19	1055.58
391.39	1076.65
391.58	1116.44
391.78	1050.90
391.97	1097.71
392.16	966.64
392.36	1039.20
392.55	968.98
392.75	1006.43
392.94	976.00
393.13	1029.84
393.33	1029.84
393.52	1041.54
393.71	1043.88
393.91	1167.93
394.10	1090.69
394.29	1137.50
394.49	1186.65
394.68	1221.76
394.88	1242.82
395.07	1235.80
395.26	1247.51
395.46	1214.74
395.65	1306.02
395.84	1123.46
396.04	1247.51
396.23	1163.25
396.42	1123.46
396.62	1198.35
396.81	1217.08
397.00	1156.22
397.19	1235.80
397.39	1331.76
397.58	1362.19
397.77	1320.06
397.97	1476.88
398.16	1390.28
398.35	1493.26
398.55	1413.68
398.74	1441.77
398.93	1511.99
399.12	1460.49
399.32	1565.82
399.51	1467.52
399.70	1614.97
399.90	1514.33
400.09	1582.20
400.28	1591.56
400.47	1563.48
400.67	1528.37
400.86	1614.97
401.05	1694.55
401.24	1778.81
401.44	1589.22
401.63	1804.55
401.82	1671.14
402.01	1638.38
402.21	1748.38
402.40	1636.03
402.59	1753.06
402.78	1682.85
402.97	1799.87
403.17	1774.13
403.36	1753.06
403.55	1844.34
403.74	1881.79
403.93	1886.47
404.13	1867.75
404.32	1724.97
404.51	1774.13
404.70	1813.92
404.89	1940.30
405.09	1989.46
405.28	1977.75
405.47	2057.33
405.66	1949.67
405.85	1975.41
406.05	1996.48
406.24	1977.75
406.43	1963.71
406.62	2001.16
406.81	2139.25
407.00	2047.97
407.20	2045.63
407.39	2092.44
407.58	2183.72
407.77	2150.95
407.96	2279.68
408.15	2303.09
408.34	2186.06
408.54	2399.05
408.73	2211.81
408.92	2298.41
409.11	2326.49
409.30	2321.81
409.49	2328.83
409.68	2326.49
409.87	2303.09
410.07	2333.51
410.26	2361.60
410.45	2434.16
410.64	2375.64
410.83	2389.69
411.02	2443.52
411.21	2609.70
411.40	2642.46
411.59	2679.91
411.78	2630.76
411.98	2600.34
412.17	2689.28
412.36	2656.51
412.55	2684.59
412.74	2740.77
412.93	2621.40
413.12	2616.72
413.31	2813.32
413.50	2722.04
413.69	2839.07
413.88	2904.60
414.07	2986.52
414.26	2965.46
414.45	2911.63
414.64	2984.18
414.83	2958.44
415.02	3077.80
415.22	3028.65
415.41	3126.96
415.60	3148.02
415.79	3176.11
415.98	3276.75
416.17	3225.26
416.36	3208.87
416.55	3215.90
416.74	3148.02
416.93	3239.30
417.12	3265.05
417.31	3239.30
417.50	3297.81
417.69	3597.40
417.88	3356.33
418.07	3365.69
418.26	3480.38
418.45	3452.29
418.64	3557.61
418.83	3489.74
419.02	3662.94
419.21	3566.98
419.39	3571.66
419.58	3396.12
419.77	3508.46
419.96	3716.77
420.15	3794.01
420.34	3705.07
420.53	3702.73
420.72	3866.56
420.91	3819.75
421.10	3742.52
421.29	3838.48
421.48	3927.42
421.67	3997.64
421.86	3840.82
422.05	3957.85
422.24	3801.03
422.43	3761.24
422.61	3815.07
422.80	3899.33
422.99	3901.67
423.18	3845.50
423.37	4070.19
423.56	4007.00
423.75	3915.72
423.94	3904.01
424.13	3691.02
424.32	3819.75
424.50	3976.57
424.69	3988.27
424.88	4093.60
425.07	4016.36
425.26	3904.01
425.45	3999.98
425.64	3871.25
425.83	3925.08
426.01	4081.89
426.20	4177.86
426.39	4032.74
426.58	4023.38
426.77	3861.88
426.96	3983.59
427.15	3913.38
427.33	4133.39
427.52	3950.82
427.71	4149.77
427.90	4142.75
428.09	4042.11
428.28	4189.56
428.46	4133.39
428.65	4032.74
428.84	4212.96
429.03	4224.67
429.22	4133.39
429.40	4170.83
429.59	3974.23
429.78	3871.25
429.97	3939.12
430.16	4170.83
430.34	4149.77
430.53	4131.05
430.72	4135.73
430.91	4318.29
431.10	4388.50
431.28	4477.44
431.47	4606.17
431.66	4594.47
431.85	4498.51
432.03	4594.47
432.22	4582.77
432.41	4734.90
432.60	4739.58
432.79	4706.82
432.97	4788.74
433.16	4821.50
433.35	4547.66
433.54	4652.98
433.72	4622.56
433.91	4599.15
434.10	4671.71
434.28	4746.61
434.47	4664.69
434.66	4833.21
434.85	4919.81
435.03	4901.08
435.22	4975.98
435.41	5125.77
435.59	4905.76
435.78	5097.69
435.97	5177.26
436.16	5139.82
436.34	5114.07
436.53	5205.35
436.72	5191.31
436.90	5088.32
437.09	5139.82
437.28	5071.94
437.46	5078.96
437.65	5097.69
437.84	5228.76
438.02	5100.03
438.21	5146.84
438.40	5093.01
438.58	5221.74
438.77	5369.19
438.96	5334.08
439.14	5448.77
439.33	5673.46
439.52	5593.88
439.70	5610.26
439.89	5668.78
440.08	5628.99
440.26	5643.03
440.45	5575.16
440.63	5771.76
440.82	5851.34
441.01	5921.56
441.19	5998.79
441.38	6113.48
441.57	6122.84
441.75	6050.28
441.94	6331.15
442.12	6071.35
442.31	6305.40
442.50	6216.46
442.68	6242.21
442.87	6272.64
443.05	6279.66
443.24	6354.55
443.43	6380.30
443.61	6408.39
443.80	6661.16
443.98	6361.58
444.17	6314.77
444.35	6525.41
444.54	6487.96
444.73	6642.44
444.91	6450.52
445.10	6581.59
445.28	6401.37
445.47	6487.96
445.65	6408.39
445.84	6532.44
446.02	6420.09
446.21	6366.26
446.39	6576.91
446.58	6492.65
446.77	6731.38
446.95	6452.86
447.14	6801.60
447.32	6649.46
447.51	6478.60
447.69	6583.93
447.88	6576.91
448.06	6677.55
448.25	6712.66
448.43	6750.10
448.62	6642.44
448.80	6686.91
448.99	6909.26
449.17	6932.67
449.36	6789.89
449.54	6710.32
449.73	6958.41
449.91	7115.23
450.10	7150.34
450.28	7178.42
450.46	7138.63
450.65	7192.47
450.83	7332.90
451.02	7084.80
451.20	7140.97
451.39	7136.29
451.57	7265.02
451.76	7077.78
451.94	7164.38
452.13	7194.81
452.31	7091.82
452.49	7080.12
452.68	7227.57
452.86	7178.42
453.05	7148.00
453.23	7297.79
453.42	7246.30
453.60	7307.15
453.78	7410.14
453.97	7470.99
454.15	7363.33
454.34	7360.98
454.52	7655.89
454.70	7485.03
454.89	7559.93
455.07	7602.06
455.26	7576.31
455.44	7925.05
455.62	7660.57
455.81	7744.83
455.99	7543.55
456.17	7840.79
456.36	7866.54
456.54	8077.19
456.73	7882.92
456.91	7969.52
457.09	8166.13
457.28	8016.33
457.46	7990.59
457.64	8086.55
457.83	7967.18
458.01	8074.85
458.19	7941.44
458.38	8030.38
458.56	8056.12
458.74	8156.77
458.93	8283.16
459.11	8100.59
459.29	8301.88
459.48	8402.52
459.66	8315.92
459.84	8395.50
460.03	8601.47
460.21	8547.64
460.39	8470.40
460.57	8381.46
460.76	8437.63
460.94	8498.49
461.12	8622.53
461.31	8744.24
461.49	8650.62
461.67	8678.71
461.85	8837.86
462.04	8690.41
462.22	9437.04
462.40	8912.76
462.59	8744.24
462.77	8966.59
462.95	8975.95
463.13	8912.76
463.32	8905.74
463.50	9114.05
463.68	8807.44
463.86	9074.26
464.05	8716.16
464.23	8877.65
464.41	8952.55
464.59	8865.95
464.78	9252.14
464.96	9039.15
465.14	8805.10
465.32	9146.81
465.50	9172.56
465.69	8990.00
465.87	9329.38
466.05	9053.19
466.23	9085.96
466.41	9177.24
466.60	9371.50
466.78	9193.62
466.96	9240.44
467.14	9247.46
467.32	9451.08
467.51	9334.06
467.69	9102.34
467.87	9273.20
468.05	9582.15
468.23	9348.10
468.41	9448.74
468.60	9465.13
468.78	9596.20
468.96	9633.64
469.14	9661.73
469.32	9565.77
469.50	9476.83
469.69	9741.31
469.87	9771.74
470.05	9755.35
470.23	9664.07
470.41	9694.50
470.59	9893.44
470.77	9689.82
470.95	9956.64
471.14	10251.55
471.32	9970.68
471.50	10186.01
471.68	10326.44
471.86	10389.64
472.04	10516.03
472.22	10565.18
472.40	10228.14
472.58	10394.32
472.77	10401.34
472.95	10516.03
473.13	10995.84
473.31	10452.83
473.49	10485.60
473.67	10438.79
473.85	10572.20
474.03	11014.56
474.21	10967.75
474.39	11075.42
474.57	11267.34
474.75	11052.01
474.93	11461.60
475.12	11197.12
475.30	11260.32
475.48	11082.44
475.66	11234.57
475.84	11501.39
476.02	11562.25
476.20	11288.40
476.38	11604.38
476.56	11686.29
476.74	11777.58
476.92	11789.28
477.10	11712.04
477.28	11999.93
477.46	12156.74
477.64	12212.92
477.82	12196.53
478.00	12578.04
478.18	12458.67
478.36	12442.29
478.54	12571.02
478.72	12676.34
478.90	12709.11
479.08	13102.32
479.26	13092.96
479.44	13041.46
479.62	13163.17
479.80	12978.27
479.98	13476.80
480.16	13579.79
480.34	13437.02
480.52	13687.45
480.70	13582.13
480.88	13731.92
481.06	13797.46
481.24	13788.10
481.41	14174.28
481.59	14237.48
481.77	14218.75
481.95	14106.41
482.13	14590.90
482.31	14413.02
482.49	14576.86
482.67	14946.66
482.85	14855.38
483.03	14864.74
483.21	14972.41
483.39	15204.12
483.57	15272.00
483.74	15742.44
483.92	15248.59
484.10	15307.10
484.28	15791.59
484.46	15861.81
484.64	16346.30
484.82	15838.41
485.00	16123.95
485.18	16379.07
485.35	16603.76
485.53	15807.98
485.71	16025.65
485.89	16507.80
486.07	16439.92
486.25	16760.58
486.43	16800.37
486.61	16758.24
486.78	17055.48
486.96	17500.19
487.14	17399.54
487.32	17404.22
487.50	17844.24
487.68	18061.91
487.85	18349.80
488.03	18389.59
488.21	18361.50
488.39	18410.65
488.57	18513.64
488.75	18775.78
488.92	19033.24
489.10	19222.82
489.28	19440.49
489.46	19531.77
489.64	19646.46
489.81	20112.22
489.99	19950.73
490.17	20292.44
490.35	20313.51
490.53	20264.36
490.70	20079.46
490.88	20414.15
491.06	20751.19
491.24	20765.23
491.41	20781.62
491.59	20395.43
491.77	20723.10
491.95	20769.91
492.13	21179.51
492.30	21551.65
492.48	21441.65
492.66	21671.02
492.84	21804.43
493.01	22075.93
493.19	22043.17
493.37	22263.18
493.54	22253.81
493.72	22698.52
493.90	22560.42
494.08	22780.43
494.25	23105.77
494.43	22799.16
494.61	23234.50
494.79	23403.02
494.96	23248.54
495.14	23545.79
495.32	23686.22
495.49	23372.59
495.67	23931.98
495.85	24065.39
496.02	24180.07
496.20	23899.21
496.38	24133.26
496.55	24332.21
496.73	25041.39
496.91	25017.99
497.09	24634.14
497.26	25060.12
497.44	25207.57
497.62	25186.50
497.79	25226.29
497.97	25280.13
498.14	25259.06
498.32	25240.34
498.50	25383.11
498.67	25745.89
498.85	25968.24
499.03	26270.17
499.20	25848.88
499.38	26129.74
499.56	26029.10
499.73	26520.61
499.91	26113.36
500.08	26501.89
500.26	26410.60
500.44	26441.03
500.61	26515.93
500.79	26462.10
500.97	26679.77
501.14	27126.81
501.32	27349.16
501.49	26581.46
501.67	26726.58
501.84	27342.14
502.02	27346.82
502.20	27491.93
502.37	27658.11
502.55	27810.25
502.72	27571.51
502.90	27971.74
503.07	27576.19
503.25	27782.16
503.43	27953.02
503.60	28180.05
503.78	28009.19
503.95	28158.99
504.13	28311.12
504.30	28788.59
504.48	28374.31
504.65	28336.87
504.83	28900.94
505.01	28999.24
505.18	29106.90
505.36	29017.96
505.53	29092.86
505.71	29345.64
505.88	29383.09
506.06	29240.31
506.23	29677.99
506.41	29366.70
506.58	29324.57
506.76	29577.35
506.93	30115.67
507.11	29579.69
507.28	29780.98
507.46	29755.23
507.63	29649.91
507.81	29912.05
507.98	29883.96
508.16	30204.61
508.33	30160.14
508.50	30471.43
508.68	30796.77
508.85	30909.11
509.03	30792.09
509.20	30806.13
509.38	31232.11
509.55	30806.13
509.73	30932.52
509.90	31615.96
510.08	31072.95
510.25	31297.64
510.42	31590.21
510.60	31550.42
510.77	31646.38
510.95	32091.09
511.12	31936.61
511.30	32196.41
511.47	32041.93
511.64	32147.26
511.82	32271.31
511.99	31948.31
512.17	32149.60
512.34	32147.26
512.51	32868.14
512.69	32383.65
512.86	32336.84
513.04	32741.75
513.21	32706.65
513.38	32325.14
513.56	32865.80
513.73	32545.15
513.90	32453.87
514.08	32723.03
514.25	32973.47
514.43	33383.06
514.60	33219.22
514.77	32959.42
514.95	33642.86
515.12	33387.74
515.29	33558.60
515.47	33640.52
515.64	33855.85
515.81	33542.22
515.99	33865.21
516.16	33701.37
516.33	33619.46
516.51	33460.30
516.68	33219.22
516.85	32772.18
517.03	32828.35
517.20	33692.01
517.37	33907.34
517.54	34181.18
517.72	33783.29
517.89	34094.58
518.06	33715.42
518.24	33771.59
518.41	34356.72
518.58	34103.95
518.75	34698.44
518.93	34586.10
519.10	34630.57
519.27	35056.54
519.45	34817.81
519.62	34955.90
519.79	35058.88
519.96	35185.27
520.14	35171.23
520.31	35068.25
520.48	35236.77
520.65	35119.74
520.83	35480.18
521.00	35545.72
521.17	35344.43
521.34	35693.17
521.52	35782.11
521.69	35969.35
521.86	35906.16
522.03	35957.65
522.20	36105.10
522.38	36336.82
522.55	36397.67
522.72	36058.29
522.89	36327.45
523.07	36657.47
523.24	36304.05
523.41	36840.03
523.58	37219.20
523.75	37113.87
523.92	37069.40
524.10	36554.49
524.27	37284.73
524.44	36968.76
524.61	37434.53
524.78	36947.70
524.96	37184.09
525.13	37352.61
525.30	37563.26
525.47	37195.79
525.64	37422.83
525.81	37223.88
525.98	37448.57
526.16	37202.82
526.33	37275.37
526.50	37544.53
526.67	37048.34
526.84	37287.07
527.01	37411.12
527.18	37699.01
527.36	37549.21
527.53	37792.63
527.70	38017.32
527.87	38349.68
528.04	37972.85
528.21	38230.31
528.38	38274.78
528.55	38710.12
528.72	38742.89
528.89	38780.34
529.07	38302.87
529.24	38815.44
529.41	38515.86
529.58	39023.75
529.75	38436.28
529.92	39002.69
530.09	39105.67
530.26	38785.02
530.43	39000.35
530.60	38644.59
530.77	39250.78
530.94	39225.04
531.11	39218.02
531.28	38892.68
531.46	38960.56
531.63	39473.13
531.80	39072.90
531.97	39562.08
532.14	38969.92
532.31	38864.60
532.48	39248.44
532.65	39388.88
532.82	38904.38
532.99	39267.17
533.16	39578.46
533.33	40098.06
533.50	39545.69
533.67	39810.17
533.84	39910.82
534.01	39784.43
534.18	39768.04
534.35	39779.74
534.52	40100.40
534.69	39643.99
534.86	40322.75
535.03	40327.43
535.20	40594.25
535.37	40322.75
535.54	40793.20
535.71	40308.71
535.88	40357.86
536.05	40467.86
536.22	40706.60
536.38	40903.20
536.55	40507.65
536.72	40589.57
536.89	40435.10
537.06	40589.57
537.23	41500.04
537.40	40933.63
537.57	40884.48
537.74	41493.02
537.91	40973.42
538.08	40954.69
538.25	40800.22
538.42	40879.80
538.59	41111.51
538.75	40715.96
538.92	41155.98
539.09	40985.12
539.26	41418.12
539.43	41357.27
539.60	41254.28
539.77	40868.09
539.94	41078.74
540.11	40840.01
540.28	41401.74
540.44	41261.30
540.61	41329.18
540.78	41139.60
540.95	41497.70
541.12	41319.82
541.29	41345.56
541.46	41488.34
541.62	41186.41
541.79	41757.50
541.96	41605.36
542.13	42064.11
542.30	41666.22
542.47	41729.41
542.63	41235.56
542.80	41799.63
542.97	42202.20
543.14	42653.92
543.31	42440.93
543.48	42267.73
543.64	42674.99
543.81	42810.74
543.98	42789.67
544.15	42557.96
544.32	42756.91
544.48	42682.01
544.65	42735.84
544.82	42782.65
544.99	42398.80
545.16	42651.58
545.32	42328.59
545.49	43236.72
545.66	42546.26
545.83	42810.74
546.00	43201.61
546.16	42801.38
546.33	43049.47
546.50	42789.67
546.67	43402.89
546.83	42859.89
547.00	42693.71
547.17	42829.46
547.34	42775.63
547.50	43227.35
547.67	42967.55
547.84	43374.81
548.00	43482.47
548.17	43716.53
548.34	43129.05
548.51	43313.95
548.67	43449.70
548.84	43739.93
549.01	43611.20
549.18	43629.93
549.34	43758.66
549.51	43667.37
549.68	43723.55
549.84	43824.19
550.01	44259.53
550.18	43115.01
550.34	43489.49
550.51	43901.43
550.68	44041.86
550.84	43255.44
551.01	43952.92
551.18	43882.70
551.34	43643.97
551.51	43976.33
551.68	44161.23
551.84	44304.00
552.01	44011.43
552.18	43913.13
552.34	43346.72
552.51	43917.81
552.68	43920.15
552.84	44353.15
553.01	44364.85
553.18	44191.65
553.34	44229.10
553.51	44046.54
553.67	44411.67
553.84	44212.72
554.01	44575.50
554.17	44746.36
554.34	44608.27
554.51	44727.64
554.67	44701.89
554.84	44554.44
555.00	44418.69
555.17	44598.91
555.33	44563.80
555.50	44566.14
555.67	44465.50
555.83	44414.01
556.00	44561.46
556.16	44739.34
556.33	44729.98
556.50	44961.69
556.66	44582.52
556.83	44526.35
556.99	44381.24
557.16	45022.54
557.32	44961.69
557.49	44514.65
557.65	44676.15
557.82	44807.22
557.98	44666.78
558.15	44825.94
558.32	44809.56
558.48	44795.51
558.65	44800.19
558.81	44788.49
558.98	44879.77
559.14	44570.82
559.31	44535.71
559.47	44554.44
559.64	45261.28
559.80	45097.44
559.97	44774.45
560.13	44989.78
560.30	44816.58
560.46	44935.95
560.63	44987.44
560.79	45837.05
560.96	45350.22
561.12	45579.59
561.29	45272.98
561.45	44947.65
561.61	45095.10
561.78	44975.73
561.94	44924.24
562.11	44788.49
562.27	45083.40
562.44	45434.48
562.60	45221.49
562.77	45649.81
562.93	45240.21
563.10	45546.82
563.26	45151.27
563.42	45230.85
563.59	45745.77
563.75	45574.91
563.92	45553.85
564.08	45595.98
564.24	45469.59
564.41	45572.57
564.57	45378.31
564.74	45434.48
564.90	45485.97
565.07	45181.70
565.23	45635.77
565.39	45537.46
565.56	45469.59
565.72	45151.27
565.88	45408.73
566.05	45008.50
566.21	45694.28
566.38	45226.17
566.54	45464.91
566.70	46028.98
566.87	46031.32
567.03	45612.36
567.19	45846.41
567.36	45659.17
567.52	45298.73
567.68	45715.34
567.85	45551.51
568.01	45558.53
568.17	45525.76
568.34	45937.69
568.50	45394.69
568.66	45607.68
568.83	45247.24
568.99	45188.72
569.15	45645.13
569.32	45694.28
569.48	45759.81
569.64	45771.52
569.81	45635.77
569.97	45581.93
570.13	45771.52
570.30	45649.81
570.46	45141.91
570.62	45495.33
570.78	45450.86
570.95	45071.70
571.11	45694.28
571.27	45303.41
571.43	45488.31
571.60	45813.65
571.76	45626.40
571.92	45579.59
572.09	45703.64
572.25	45705.98
572.41	45359.58
572.57	45827.69
572.74	46234.94
572.90	45806.62
573.06	45787.90
573.22	45574.91
573.38	45696.62
573.55	45944.72
573.71	45965.78
573.87	45755.13
574.03	45647.47
574.20	45563.21
574.36	45722.37
574.52	45478.95
574.68	45483.63
574.84	45741.09
575.01	46050.04
575.17	45301.07
575.33	45844.07
575.49	45413.41
575.65	46110.89
575.82	45844.07
575.98	45815.99
576.14	45930.67
576.30	46108.55
576.46	46031.32
576.62	45682.58
576.79	45467.25
576.95	45839.39
577.11	45748.11
577.27	45698.96
577.43	45839.39
577.59	45607.68
577.75	45350.22
577.92	45144.25
578.08	45390.01
578.24	45340.86
578.40	45729.39
578.56	45724.71
578.72	45989.19
578.88	46117.92
579.04	45923.65
579.21	45495.33
579.37	45645.13
579.53	45886.20
579.69	45560.87
579.85	45794.92
580.01	46138.98
580.17	45881.52
580.33	45991.53
580.49	46333.24
580.65	45593.64
580.82	45837.05
580.98	46038.34
581.14	45436.82
581.30	46127.28
581.46	46061.74
581.62	46113.23
581.78	45525.76
581.94	46483.04
582.10	45865.14
582.26	46260.69
582.42	45860.46
582.58	46244.30
582.74	45645.13
582.90	45455.54
583.06	46014.93
583.22	45769.18
583.38	46054.72
583.54	45741.09
583.70	46253.67
583.86	46003.23
584.02	45827.69
584.18	45993.87
584.34	45830.03
584.50	46150.68
584.66	46396.44
584.82	45757.47
584.98	45897.91
585.14	45968.12
585.30	45453.20
585.46	45921.31
585.62	45745.77
585.78	46026.63
585.94	45242.56
586.10	45848.75
586.26	46045.36
586.42	45848.75
586.58	45748.11
586.74	46211.54
586.90	45804.28
587.06	45610.02
587.22	45895.56
587.38	46099.19
587.54	46380.06
587.70	46073.45
587.86	45743.43
588.02	46185.79
588.18	46040.68
588.34	45635.77
588.49	45453.20
588.65	45308.09
588.81	45759.81
588.97	45703.64
589.13	45436.82
589.29	45432.14
589.45	45617.04
589.61	45820.67
589.77	46211.54
589.93	46260.69
590.08	46199.83
590.24	46178.77
590.40	46089.83
590.56	46532.19
590.72	46347.29
590.88	46003.23
591.04	45989.19
591.20	46576.66
591.35	45923.65
591.51	46459.63
591.67	45972.80
591.83	45897.91
591.99	45792.58
592.15	45785.56
592.31	45989.19
592.46	45998.55
592.62	46108.55
592.78	46024.29
592.94	46499.42
593.10	46188.13
593.26	46330.90
593.41	45975.14
593.57	45813.65
593.73	46078.13
593.89	46036.00
594.05	45869.82
594.20	46078.13
594.36	45970.46
594.52	45984.51
594.68	46314.52
594.84	45759.81
594.99	46061.74
595.15	45539.80
595.31	45998.55
595.47	46124.94
595.62	45991.53
595.78	46141.32
595.94	46532.19
596.10	46115.58
596.25	46021.95
596.41	45989.19
596.57	45404.05
596.73	46101.53
596.88	45682.58
597.04	46389.42
597.20	46314.52
597.36	46206.86
597.51	46321.54
597.67	46351.97
597.83	46110.89
597.99	46164.73
598.14	46202.18
598.30	45914.29
598.46	46036.00
598.61	46508.79
598.77	45567.89
598.93	45607.68
599.09	46436.23
599.24	46358.99
599.40	46387.08
599.56	46387.08
599.71	46424.53
599.87	46351.97
600.03	45897.91
600.18	46340.27
600.34	45914.29
600.50	46162.39
600.65	45764.49
600.81	45921.31
600.97	46368.35
601.12	45741.09
601.28	46071.10
601.44	45921.31
601.59	46071.10
601.75	45844.07
601.91	46160.05
602.06	46204.52
602.22	45947.06
602.37	46043.02
602.53	46213.88
602.69	46328.56
602.84	46267.71
603.00	46066.42
603.16	46274.73
603.31	45867.48
603.47	46340.27
603.62	45801.94
603.78	46218.56
603.94	46305.16
604.09	46323.88
604.25	46087.49
604.40	45848.75
604.56	46209.20
604.71	46433.89
604.87	45909.61
605.03	45830.03
605.18	45902.59
605.34	45745.77
605.49	45734.07
605.65	46153.02
605.80	45982.16
605.96	45860.46
606.12	46270.05
606.27	46136.64
606.43	45879.18
606.58	46162.39
606.74	45727.05
606.89	45951.74
607.05	45923.65
607.20	45785.56
607.36	45940.04
607.51	45935.35
607.67	46064.08
607.82	45717.68
607.98	45766.84
608.13	45675.55
608.29	45476.61
608.44	45429.80
608.60	45015.52
608.75	46288.77
608.91	45986.85
609.06	45624.06
609.22	45764.49
609.37	45605.34
609.53	45886.20
609.68	45497.67
609.84	45153.62
609.99	45488.31
610.15	45200.43
610.30	45640.45
610.46	45579.59
610.61	45191.06
610.76	45340.86
610.92	45752.79
611.07	45893.22
611.23	45628.74
611.38	45975.14
611.54	45354.90
611.69	45233.19
611.84	45099.78
612.00	45027.23
612.15	44964.03
612.31	45113.83
612.46	45413.41
612.62	45317.45
612.77	45003.82
612.92	45535.12
613.08	45099.78
613.23	44889.13
613.39	44610.61
613.54	44776.79
613.69	45024.89
613.85	44734.66
614.00	45095.10
614.15	44980.42
614.31	45296.39
614.46	45184.04
614.62	45305.75
614.77	45146.59
614.92	44460.82
615.08	44985.10
615.23	44996.80
615.38	44882.11
615.54	44608.27
615.69	44919.56
615.84	44818.92
616.00	44444.43
616.15	44568.48
616.30	44858.71
616.46	44467.84
616.61	44353.15
616.76	44507.63
616.92	44011.43
617.07	44540.39
617.22	44671.46
617.37	44538.05
617.53	44526.35
617.68	44449.11
617.83	44406.98
617.99	44449.11
618.14	44282.94
618.29	44076.97
618.45	44406.98
618.60	44128.46
618.75	44027.82
618.90	44318.04
619.06	44409.32
619.21	44081.65
619.36	44268.89
619.51	44198.68
619.67	43772.70
619.82	44058.24
619.97	44076.97
620.12	44037.18
620.28	43821.85
620.43	43936.54
620.58	44069.95
620.73	43969.30
620.89	44009.09
621.04	43812.49
621.19	43842.92
621.34	43840.57
621.49	43501.20
621.65	43828.87
621.80	44154.21
621.95	43447.36
622.10	43859.30
622.25	43779.72
622.41	43576.09
622.56	43634.61
622.71	43564.39
622.86	43409.92
623.01	43180.54
623.16	43316.29
623.32	43704.82
623.47	43526.94
623.62	43454.39
623.77	43519.92
623.92	43292.89
624.07	43196.93
624.23	43168.84
624.38	43227.35
624.53	43583.12
624.68	43194.59
624.83	43524.60
624.98	42920.74
625.13	43173.52
625.29	42789.67
625.44	42787.33
625.59	42590.73
625.74	42794.36
625.89	42981.60
626.04	42628.18
626.19	42817.76
626.34	42852.87
626.49	42841.17
626.65	42590.73
626.80	43124.37
626.95	42595.41
627.10	42375.40
627.25	42590.73
627.40	42485.40
627.55	42218.58
627.70	42054.75
627.85	42632.86
628.00	42579.03
628.15	42925.42
628.30	42499.45
628.45	42384.76
628.60	42349.65
628.76	42560.30
628.91	42714.78
629.06	42408.17
629.21	42429.23
629.36	42639.88
629.51	42120.28
629.66	42323.91
629.81	42000.91
629.96	42026.66
630.11	42230.29
630.26	42356.67
630.41	42157.73
630.56	42073.47
630.71	42267.73
630.86	42162.41
631.01	41675.58
631.16	41677.92
631.31	41698.98
631.46	41518.76
631.61	41921.34
631.76	41734.09
631.91	41993.89
632.06	41834.74
632.21	42157.73
632.36	41979.85
632.51	41523.44
632.66	41897.93
632.81	41736.43
632.96	41710.69
633.10	41689.62
633.25	41736.43
633.40	41490.68
633.55	42174.11
633.70	41450.89
633.85	41230.88
634.00	41394.71
634.15	41390.03
634.30	41612.38
634.45	41373.65
634.60	41305.77
634.75	41453.23
634.90	41158.32
635.05	41399.40
635.19	41329.18
635.34	41478.97
635.49	40931.29
635.64	41062.36
635.79	41127.89
635.94	40730.00
636.09	40694.89
636.24	40968.74
636.39	40608.29
636.53	41216.83
636.68	41184.07
636.83	41139.60
636.98	40912.56
637.13	41111.51
637.28	41291.73
637.43	41296.41
637.57	40891.50
637.72	40748.73
637.87	41406.42
638.02	40732.34
638.17	40973.42
638.32	40804.90
638.46	41081.08
638.61	39990.39
638.76	40542.76
638.91	40877.46
639.06	40659.79
639.20	40840.01
639.35	41074.06
639.50	40521.69
639.65	40116.78
639.80	40341.47
639.94	40268.92
640.09	40308.71
640.24	40399.99
640.39	39959.97
640.54	40030.18
640.68	40577.87
640.83	40060.61
640.98	39988.05
641.13	39777.40
641.27	40119.12
641.42	40512.33
641.57	40477.22
641.72	40215.08
641.86	39833.58
642.01	39854.64
642.16	39749.32
642.31	39721.23
642.45	40116.78
642.60	39702.51
642.75	40062.95
642.90	40161.25
643.04	39929.54
643.19	39735.27
643.34	39962.31
643.48	39611.23
643.63	39835.92
643.78	39763.36
643.93	39807.83
644.07	39248.44
644.22	39782.09
644.37	39491.86
644.51	39555.05
644.66	39770.38
644.81	39524.63
644.95	39431.01
645.10	39529.31
645.25	39922.52
645.39	39608.89
645.54	39419.30
645.69	39281.21
645.83	38925.45
645.98	39414.62
646.13	39672.08
646.27	39215.68
646.42	39225.04
646.57	39082.27
646.71	39030.77
646.86	39477.82
647.00	39313.98
647.15	39222.70
647.30	39557.39
647.44	39274.19
647.59	38993.32
647.74	39047.16
647.88	38412.87
648.03	38824.81
648.17	38834.17
648.32	38349.68
648.47	38969.92
648.61	38457.34
648.76	39215.68
648.90	38485.43
649.05	38808.42
649.20	38665.65
649.34	38667.99
649.49	38628.20
649.63	38447.98
649.78	38419.89
649.92	38462.02
650.07	38550.96
650.21	38595.43
650.36	38691.40
650.51	38380.10
650.65	38569.69
650.80	39105.67
650.94	38609.48
651.09	38260.74
651.23	38345.00
651.38	37886.25
651.52	37930.72
651.67	38085.20
651.81	38057.11
651.96	38459.68
652.10	38293.50
652.25	38089.88
652.39	38586.07
652.54	38050.09
652.68	38291.16
652.83	37825.40
652.97	38597.77
653.12	38050.09
653.26	37720.07
653.41	38164.78
653.55	38047.75
653.70	38192.86
653.84	38043.07
653.99	38059.45
654.13	37830.08
654.27	37961.15
654.42	37839.44
654.56	37916.68
654.71	38052.43
654.85	37841.78
655.00	37933.06
655.14	37696.67
655.29	37366.65
655.43	37160.69
655.57	36950.04
655.72	36947.70
655.86	36870.46
656.01	37223.88
656.15	37024.93
656.30	36886.84
656.44	37116.22
656.58	36996.85
656.73	37153.66
656.87	36643.43
657.01	36950.04
657.16	36980.46
657.30	36605.98
657.45	36573.21
657.59	37053.02
657.73	36730.03
657.88	37200.47
658.02	37280.05
658.16	37188.77
658.31	36837.69
658.45	36870.46
658.60	36809.61
658.74	37251.97
658.88	37282.39
659.03	36788.54
659.17	36818.97
659.31	36556.83
659.46	36222.13
659.60	36458.52
659.74	36449.16
659.89	36577.89
660.03	36215.11
660.17	36479.59
660.32	36591.94
660.46	36840.03
660.60	36381.29
660.74	36315.75
660.89	36336.82
661.03	36156.60
661.17	36318.09
661.32	36114.47
661.46	36334.48
661.60	35892.12
661.74	35498.91
661.89	35782.11
662.03	36369.58
662.17	35885.09
662.31	36163.62
662.46	36147.23
662.60	35878.07
662.74	35704.87
662.88	35831.26
663.03	35470.82
663.17	35534.01
663.31	35201.66
663.45	35763.39
663.60	35871.05
663.74	35414.65
663.88	35248.47
664.02	35264.85
664.17	35332.73
664.31	35063.57
664.45	34892.71
664.59	34822.49
664.73	34986.33
664.88	34888.03
665.02	34747.59
665.16	34726.53
665.30	34246.72
665.44	34345.02
665.59	34639.93
665.73	34824.83
665.87	34073.52
666.01	34403.53
666.15	34459.71
666.29	34747.59
666.44	34422.26
666.58	34541.63
666.72	34242.04
666.86	34380.13
667.00	34202.25
667.14	33900.32
667.28	33951.81
667.43	34300.55
667.57	34085.22
667.71	33883.94
667.85	33776.27
667.99	34199.91
668.13	34082.88
668.27	34096.92
668.41	33951.81
668.56	33282.42
668.70	33670.95
668.84	33680.31
668.98	33158.37
669.12	33439.23
669.26	33057.73
669.40	33383.06
669.54	33020.28
669.68	33095.18
669.82	33008.58
669.96	32734.73
670.10	33060.07
670.25	33057.73
670.39	32570.90
670.53	32561.53
670.67	32828.35
670.81	32723.03
670.95	32818.99
671.09	32306.41
671.23	32472.59
671.37	32685.58
671.51	32641.11
671.65	32229.18
671.79	32016.19
671.93	31915.54
672.07	32107.47
672.21	31833.63
672.35	31880.44
672.49	31814.90
672.63	32198.75
672.77	32027.89
672.91	31620.64
673.05	32055.98
673.19	31522.34
673.33	31576.17
673.47	31484.89
673.61	31419.35
673.75	31140.83
673.89	30969.97
674.03	31197.00
674.17	31229.77
674.31	31255.51
674.45	30972.31
674.59	31243.81
674.73	30941.88
674.87	30792.09
675.01	30630.59
675.15	30567.40
675.29	30866.98
675.43	30866.98
675.56	30270.15
675.70	30522.93
675.84	30731.23
675.98	29362.02
676.12	30054.82
676.26	30209.29
676.40	30228.02
676.54	29975.24
676.68	29895.66
676.82	29844.17
676.96	29116.26
677.10	29745.87
677.23	29495.43
677.37	29710.76
677.51	29535.22
677.65	29301.17
677.79	28830.72
677.93	29230.95
678.07	28903.28
678.21	28266.65
678.34	28896.25
678.48	28343.89
678.62	28685.61
678.76	28554.54
678.90	27962.38
679.04	28226.86
679.18	28299.42
679.31	28238.56
679.45	27611.30
679.59	28257.29
679.73	27807.90
679.87	27686.20
680.00	27751.73
680.14	28168.35
680.28	28048.98
680.42	27548.11
680.56	27440.44
680.70	27433.42
680.83	27318.73
680.97	27016.80
681.11	27480.23
681.25	27583.21
681.39	27112.77
681.52	27005.10
681.66	26707.85
681.80	26876.37
681.94	26434.01
682.07	26494.86
682.21	26113.36
682.35	26511.25
682.49	26450.39
682.62	26132.08
682.76	25898.03
682.90	26125.06
683.04	26059.52
683.17	25633.55
683.31	25593.76
683.45	25553.97
683.59	25287.15
683.72	25773.98
683.86	25577.37
684.00	25509.50
684.13	25219.27
684.27	24704.35
684.41	24968.84
684.55	24744.14
684.68	24896.28
684.82	24608.39
684.96	24458.60
685.09	24599.03
685.23	24507.75
685.37	24559.24
685.50	24250.29
685.64	24322.85
685.78	24151.99
685.91	24037.30
686.05	23931.98
686.19	23456.85
686.32	23742.39
686.46	23367.91
686.60	23250.88
686.73	23396.00
686.87	23009.81
687.01	23005.13
687.14	22738.30
687.28	22937.25
687.42	22895.12
687.55	22623.62
687.69	22719.58
687.82	22576.81
687.96	23096.41
688.10	22590.85
688.23	23035.55
688.37	22132.11
688.50	22583.83
688.64	22450.42
688.78	22134.45
688.91	22111.04
689.05	21858.26
689.18	21671.02
689.32	21631.23
689.46	22040.82
689.59	22256.15
689.73	22012.74
689.86	21766.98
690.00	21553.99
690.13	21734.21
690.27	21280.15
690.41	21336.32
690.54	21135.04
690.68	21282.49
690.81	20985.24
690.95	21015.67
691.08	20830.77
691.22	20788.64
691.35	20917.37
691.49	20903.32
691.62	20776.94
691.76	20652.89
691.89	20615.44
692.03	20695.02
692.16	20510.11
692.30	20311.17
692.43	20343.94
692.57	20229.25
692.70	19941.36
692.84	19955.41
692.97	19985.83
693.11	19379.64
693.24	19812.63
693.38	19594.96
693.51	19489.64
693.65	19440.49
693.78	19386.66
693.92	19407.72
694.05	19321.12
694.19	19215.80
694.32	19033.24
694.45	19021.53
694.59	19040.26
694.72	18878.76
694.86	18714.92
694.99	18649.39
695.13	18750.03
695.26	18300.65
695.39	18649.39
695.53	18855.36
695.66	18349.80
695.80	18527.68
695.93	18321.71
696.07	18291.29
696.20	18295.97
696.33	18090.00
696.47	18005.74
696.60	18183.62
696.73	17944.89
696.87	17759.98
697.00	17528.27
697.14	17034.42
697.27	17394.86
697.40	17329.33
697.54	17322.30
697.67	17149.11
697.80	17167.83
697.94	17209.96
698.07	17015.69
698.21	17050.80
698.34	17130.38
698.47	16868.24
698.61	16767.60
698.74	16699.72
698.87	16486.73
699.01	16346.30
699.14	16130.97
699.27	16350.98
699.40	16271.40
699.54	16322.90
699.67	16149.70
699.80	15861.81
699.94	15899.26
700.07	16376.73
700.20	15730.74
700.34	15925.00
700.47	15637.12
700.60	16013.95
700.73	15829.04
700.87	15707.34
701.00	15529.45
701.13	15318.81
701.26	15218.16
701.40	15482.64
701.53	15040.28
701.66	15054.33
701.79	15183.06
701.93	15225.18
702.06	14668.14
702.19	14883.47
702.32	14640.05
702.46	15049.64
702.59	14787.50
702.72	14640.05
702.85	14733.67
702.99	14724.31
703.12	14384.93
703.25	14200.03
703.38	14600.26
703.51	14518.34
703.65	14012.79
703.78	13806.82
703.91	13905.12
704.04	13846.61
704.17	13855.97
704.31	13893.42
704.44	13860.65
704.57	13769.37
704.70	13694.47
704.83	13757.67
704.96	13558.72
705.10	13369.14
705.23	13701.50
>>>>>End Processed Spectral Data<<<<<
