SpectraSuite Data File
++++++++++++++++++++++++++++++++++++
Date: Fri Oct 25 11:34:08 EDT 2013
User: price-jones
Dark Spectrum Present: No
Reference Spectrum Present: No
Number of Sampled Component Spectra: 1
Spectrometers: USB2+H05261
Integration Time (usec): 100000 (USB2+H05261)
Spectra Averaged: 1 (USB2+H05261)
Boxcar Smoothing: 0 (USB2+H05261)
Correct for Electrical Dark: No (USB2+H05261)
Strobe/Lamp Enabled: No (USB2+H05261)
Correct for Detector Non-linearity: No (USB2+H05261)
Correct for Stray Light: No (USB2+H05261)
Number of Pixels in Processed Spectrum: 2048
>>>>>Begin Processed Spectral Data<<<<<
365.73	294.91
365.92	294.91
366.12	294.91
366.32	184.90
366.52	238.73
366.72	241.08
366.91	154.48
367.11	210.65
367.31	121.71
367.51	292.57
367.70	220.01
367.90	170.86
368.10	184.90
368.30	180.22
368.49	98.30
368.69	257.46
368.89	210.65
369.09	182.56
369.28	145.11
369.48	203.63
369.68	201.29
369.87	250.44
370.07	299.59
370.27	264.48
370.47	322.99
370.66	416.62
370.86	594.50
371.06	512.58
371.25	568.75
371.45	484.49
371.65	613.22
371.84	524.28
372.04	564.07
372.24	543.00
372.44	540.66
372.63	538.32
372.83	636.63
373.03	688.12
373.22	557.05
373.42	552.37
373.62	575.77
373.81	561.73
374.01	669.39
374.21	615.56
374.40	622.58
374.60	669.39
374.79	655.35
374.99	711.52
375.19	763.01
375.38	671.73
375.58	720.88
375.78	681.10
375.97	695.14
376.17	725.57
376.37	706.84
376.56	599.18
376.76	692.80
376.95	746.63
377.15	704.50
377.35	676.41
377.54	631.94
377.74	629.60
377.93	634.29
378.13	653.01
378.33	634.29
378.52	763.01
378.72	645.99
378.91	748.97
379.11	653.01
379.31	699.82
379.50	706.84
379.70	723.23
379.89	667.05
380.09	697.48
380.28	704.50
380.48	716.20
380.68	678.76
380.87	744.29
381.07	763.01
381.26	767.70
381.46	802.80
381.65	809.83
381.85	702.16
382.04	753.65
382.24	844.93
382.43	779.40
382.63	798.12
382.83	777.06
383.02	835.57
383.22	763.01
383.41	772.38
383.61	812.17
383.80	833.23
384.00	718.54
384.19	744.29
384.39	791.10
384.58	781.74
384.78	805.14
384.97	856.64
385.17	763.01
385.36	863.66
385.56	784.08
385.75	826.21
385.95	795.78
386.14	858.98
386.34	837.91
386.53	835.57
386.72	826.21
386.92	826.21
387.11	868.34
387.31	800.46
387.50	889.40
387.70	905.79
387.89	905.79
388.09	915.15
388.28	924.51
388.48	833.23
388.67	858.98
388.86	875.36
389.06	901.11
389.25	877.70
389.45	915.15
389.64	964.30
389.84	954.94
390.03	966.64
390.22	847.27
390.42	929.19
390.61	1027.50
390.81	966.64
391.00	1004.09
391.19	1036.86
391.39	931.53
391.58	903.45
391.78	1050.90
391.97	957.28
392.16	961.96
392.36	1153.88
392.55	1036.86
392.75	1020.47
392.94	1048.56
393.13	1071.97
393.33	992.39
393.52	990.05
393.71	1048.56
393.91	1008.77
394.10	1088.35
394.29	1107.07
394.49	1078.99
394.68	1118.78
394.88	1158.57
395.07	1139.84
395.26	1153.88
395.46	1128.14
395.65	1203.04
395.84	1170.27
396.04	1235.80
396.23	1109.41
396.42	1184.31
396.62	1158.57
396.81	1214.74
397.00	1116.44
397.19	1139.84
397.39	1121.12
397.58	1256.87
397.77	1259.21
397.97	1252.19
398.16	1177.29
398.35	1273.25
398.55	1245.16
398.74	1217.08
398.93	1263.89
399.12	1320.06
399.32	1249.85
399.51	1273.25
399.70	1299.00
399.90	1315.38
400.09	1287.29
400.28	1315.38
400.47	1387.94
400.67	1397.30
400.86	1343.47
401.05	1437.09
401.24	1413.68
401.44	1418.36
401.63	1467.52
401.82	1549.43
402.01	1439.43
402.21	1401.98
402.40	1350.49
402.59	1376.24
402.78	1483.90
402.97	1441.77
403.17	1572.84
403.36	1514.33
403.55	1490.92
403.74	1521.35
403.93	1547.09
404.13	1591.56
404.32	1554.12
404.51	1577.52
404.70	1638.38
404.89	1586.88
405.09	1645.40
405.28	1631.35
405.47	1563.48
405.66	1813.92
405.85	1703.91
406.05	1771.79
406.24	1753.06
406.43	1724.97
406.62	1715.61
406.81	1715.61
407.00	1710.93
407.20	1788.17
407.39	1837.32
407.58	1851.36
407.77	1863.07
407.96	1746.04
408.15	1940.30
408.34	1961.37
408.54	1839.66
408.73	1783.49
408.92	1858.39
409.11	2003.50
409.30	1968.39
409.49	1928.60
409.68	1851.36
409.87	2071.37
410.07	1977.75
410.26	1921.58
410.45	1977.75
410.64	2029.24
410.83	2113.50
411.02	2136.91
411.21	2090.10
411.40	2008.18
411.59	2235.21
411.78	2062.01
411.98	2157.97
412.17	2120.53
412.36	2200.10
412.55	2265.64
412.74	2293.72
412.93	2413.09
413.12	2282.02
413.31	2410.75
413.50	2298.41
413.69	2366.28
413.88	2487.99
414.07	2525.44
414.26	2399.05
414.45	2396.71
414.64	2495.01
414.83	2548.84
415.02	2462.24
415.22	2595.65
415.41	2534.80
415.60	2576.93
415.79	2743.11
415.98	2656.51
416.17	2626.08
416.36	2675.23
416.55	2719.70
416.74	2754.81
416.93	2663.53
417.12	2633.10
417.31	2733.75
417.50	2747.79
417.69	2895.24
417.88	3016.95
418.07	2991.20
418.26	2864.82
418.45	3000.57
418.64	2946.73
418.83	2958.44
419.02	3005.25
419.21	3122.27
419.39	3098.87
419.58	3005.25
419.77	3049.72
419.96	3094.19
420.15	3232.28
420.34	3225.26
420.53	3246.32
420.72	3133.98
420.91	3103.55
421.10	3269.73
421.29	3173.77
421.48	3248.66
421.67	3222.92
421.86	3197.17
422.05	3145.68
422.24	3283.77
422.43	3332.92
422.61	3267.39
422.80	3286.11
422.99	3328.24
423.18	3407.82
423.37	3475.70
423.56	3391.44
423.75	3442.93
423.94	3206.53
424.13	3014.61
424.32	3258.03
424.50	3339.94
424.69	3576.34
424.88	3463.99
425.07	3274.41
425.26	3363.35
425.45	3428.88
425.64	3335.26
425.83	3281.43
426.01	3433.57
426.20	3379.73
426.39	3452.29
426.58	3389.10
426.77	3581.02
426.96	3440.59
427.15	3506.12
427.33	3482.72
427.52	3492.08
427.71	3578.68
427.90	3592.72
428.09	3578.68
428.28	3541.23
428.46	3646.55
428.65	3557.61
428.84	3681.66
429.03	3801.03
429.22	3665.28
429.40	3702.73
429.59	3562.30
429.78	3576.34
429.97	3508.46
430.16	3609.11
430.34	3723.79
430.53	3782.31
430.72	3765.92
430.91	3826.78
431.10	3751.88
431.28	3831.46
431.47	3836.14
431.66	3976.57
431.85	3971.89
432.03	3962.53
432.22	3946.14
432.41	3889.97
432.60	4128.70
432.79	3936.78
432.97	4051.47
433.16	4093.60
433.35	3997.64
433.54	4004.66
433.72	4117.00
433.91	4215.30
434.10	4100.62
434.28	4088.92
434.47	4180.20
434.66	4229.35
434.85	4358.08
435.03	4234.03
435.22	4126.36
435.41	4348.72
435.59	4243.39
435.78	4184.88
435.97	4236.37
436.16	4301.90
436.34	4255.09
436.53	4180.20
436.72	4414.25
436.90	4381.48
437.09	4484.47
437.28	4472.76
437.46	4557.02
437.65	4463.40
437.84	4414.25
438.02	4397.87
438.21	4606.17
438.40	4599.15
438.58	4732.56
438.77	4730.22
438.96	4517.23
439.14	4748.95
439.33	4807.46
439.52	4739.58
439.70	4760.65
439.89	4943.21
440.08	4985.34
440.26	4884.70
440.45	4880.02
440.63	4992.36
440.82	5069.60
441.01	5097.69
441.19	5114.07
441.38	5046.20
441.57	5195.99
441.75	5205.35
441.94	5252.16
442.12	5217.05
442.31	5378.55
442.50	5399.62
442.68	5345.78
442.87	5362.17
443.05	5298.97
443.24	5582.18
443.43	5350.46
443.61	5418.34
443.80	5490.90
443.98	5486.22
444.17	5252.16
444.35	5533.03
444.54	5359.83
444.73	5483.88
444.91	5472.17
445.10	5603.24
445.28	5544.73
445.47	5554.09
445.65	5523.66
445.84	5673.46
446.02	5736.65
446.21	5624.31
446.39	5423.02
446.58	5619.63
446.77	5603.24
446.95	5432.38
447.14	5636.01
447.32	5734.31
447.51	5713.25
447.69	5640.69
447.88	5689.84
448.06	5729.63
448.25	5554.09
448.43	5650.05
448.62	5851.34
448.80	5724.95
448.99	5781.12
449.17	5891.13
449.36	5799.85
449.54	5823.25
449.73	5863.04
449.91	5881.77
450.10	5888.79
450.28	5940.28
450.46	6047.94
450.65	6019.86
450.83	6026.88
451.02	6029.22
451.20	6066.67
451.39	5949.64
451.57	6047.94
451.76	5849.00
451.94	6104.12
452.13	6256.25
452.31	6122.84
452.49	6019.86
452.68	6169.65
452.86	6171.99
453.05	6223.48
453.23	6289.02
453.42	6143.91
453.60	6221.14
453.78	6274.98
453.97	6207.10
454.15	6122.84
454.34	6193.06
454.52	6300.72
454.70	6473.92
454.89	6478.60
455.07	6277.32
455.26	6558.18
455.44	6665.85
455.62	6588.61
455.81	6380.30
455.99	6520.73
456.17	6427.11
456.36	6691.59
456.54	6595.63
456.73	6839.05
456.91	7035.65
457.09	6853.09
457.28	6979.48
457.46	6815.64
457.64	6960.75
457.83	6953.73
458.01	6911.60
458.19	6956.07
458.38	6920.96
458.56	6993.52
458.74	6839.05
458.93	6911.60
459.11	6920.96
459.29	6953.73
459.48	7171.40
459.66	6944.37
459.84	7232.26
460.03	7173.74
460.21	7311.83
460.39	7344.60
460.57	7197.15
460.76	7283.75
460.94	7463.97
461.12	7382.05
461.31	7339.92
461.49	7276.73
461.67	7201.83
461.85	7604.40
462.04	7501.42
462.22	7971.86
462.40	7735.47
462.59	7552.91
462.77	7407.80
462.95	7604.40
463.13	7529.50
463.32	7674.62
463.50	7740.15
463.68	7714.41
463.86	7782.28
464.05	7585.68
464.23	7749.51
464.41	7735.47
464.59	7651.21
464.78	7903.99
464.96	7810.37
465.14	7672.28
465.32	7880.58
465.50	7981.23
465.69	8042.08
465.87	7981.23
466.05	7974.21
466.23	7999.95
466.41	8140.38
466.60	8093.57
466.78	7992.93
466.96	7978.89
467.14	7920.37
467.32	8170.81
467.51	8037.40
467.69	7936.76
467.87	7943.78
468.05	8119.32
468.23	8107.62
468.41	8152.09
468.60	8219.96
468.78	8112.30
468.96	8236.35
469.14	8301.88
469.32	8418.91
469.50	8217.62
469.69	8397.84
469.87	8564.02
470.05	8372.10
470.23	8667.00
470.41	8657.64
470.59	8674.03
470.77	8676.37
470.95	8606.15
471.14	8844.88
471.32	8594.45
471.50	8858.93
471.68	8762.97
471.86	8882.33
472.04	8891.70
472.22	8999.36
472.40	9043.83
472.58	8931.48
472.77	9165.54
472.95	8982.98
473.13	9497.89
473.31	9238.09
473.49	9193.62
473.67	9167.88
473.85	9427.68
474.03	9724.93
474.21	9479.17
474.39	9509.60
474.57	9523.64
474.75	9809.19
474.93	9680.46
475.12	9664.07
475.30	9668.75
475.48	9738.97
475.66	9717.90
475.84	9659.39
476.02	9991.75
476.20	10017.49
476.38	10200.05
476.56	10303.04
476.74	10232.82
476.92	10289.00
477.10	10136.86
477.28	10434.11
477.46	10485.60
477.64	10480.92
477.82	10815.62
478.00	11119.89
478.18	11122.23
478.36	10862.43
478.54	11016.90
478.72	10916.26
478.90	11096.48
479.08	11375.00
479.26	11353.94
479.44	11414.79
479.62	11524.80
479.80	11660.55
479.98	11808.00
480.16	12018.65
480.34	11901.62
480.52	12046.74
480.70	12147.38
480.88	11749.49
481.06	11997.59
481.24	12322.92
481.41	12119.29
481.59	12491.44
481.77	12453.99
481.95	12894.01
482.13	12711.45
482.31	12458.67
482.49	12989.97
482.67	13270.84
482.85	13025.08
483.03	13387.86
483.21	13593.83
483.39	13472.12
483.57	13277.86
483.74	13654.69
483.92	13760.01
484.10	13806.82
484.28	14052.58
484.46	13884.06
484.64	14508.98
484.82	14178.97
485.00	14293.65
485.18	14710.27
485.35	14918.57
485.53	14520.68
485.71	14801.55
485.89	15154.97
486.07	14881.13
486.25	15073.05
486.43	15199.44
486.61	15166.67
486.78	15424.13
486.96	15585.63
487.14	15618.39
487.32	15817.34
487.50	15943.73
487.68	15882.88
487.85	16145.02
488.03	16350.98
488.21	16706.74
488.39	16500.78
488.57	16479.71
488.75	16812.07
488.92	16776.96
489.10	17114.00
489.28	16982.93
489.46	17504.87
489.64	17118.68
489.81	17783.39
489.99	17657.00
490.17	17657.00
490.35	18143.83
490.53	18099.36
490.70	18302.99
490.88	18368.52
491.06	18724.29
491.24	18506.62
491.41	18518.32
491.59	18827.27
491.77	18572.15
491.95	18902.17
492.13	19229.84
492.30	19269.63
492.48	19124.52
492.66	19332.82
492.84	19777.53
493.01	19950.73
493.19	19424.11
493.37	20053.71
493.54	19658.16
493.72	20339.26
493.90	20348.62
494.08	20182.44
494.25	20542.88
494.43	20442.24
494.61	20528.84
494.79	20627.14
494.96	20809.70
495.14	20863.54
495.32	21291.85
495.49	21378.45
495.67	21579.74
495.85	21432.29
496.02	21771.66
496.20	21710.81
496.38	21968.27
496.55	21949.54
496.73	22314.67
496.91	22396.59
497.09	22073.59
497.26	22684.47
497.44	22111.04
497.62	22520.63
497.79	22995.76
497.97	22457.44
498.14	23070.66
498.32	23435.78
498.50	23264.92
498.67	23578.56
498.85	23353.87
499.03	23634.73
499.20	23646.43
499.38	23538.77
499.56	23894.53
499.73	23948.36
499.91	24058.37
500.08	24318.17
500.26	23880.49
500.44	24105.18
500.61	24254.97
500.79	24308.80
500.97	24400.08
501.14	24423.49
501.32	24666.91
501.49	24725.42
501.67	24592.01
501.84	24748.82
502.02	25025.01
502.20	25092.88
502.37	25305.87
502.55	25113.95
502.72	25544.61
502.90	25453.33
503.07	25450.99
503.25	25422.90
503.43	25366.73
503.60	25804.41
503.78	25816.11
503.95	25619.50
504.13	25553.97
504.30	26036.12
504.48	25926.11
504.65	26092.29
504.83	26059.52
505.01	26279.54
505.18	26616.57
505.36	26665.72
505.53	26515.93
505.71	27040.21
505.88	26845.94
506.06	27009.78
506.23	27105.74
506.41	26541.68
506.58	27225.11
506.76	27377.25
506.93	27840.67
507.11	27454.48
507.28	27178.30
507.46	27648.75
507.63	27447.46
507.81	27922.59
507.98	27901.53
508.16	27676.83
508.33	28025.57
508.50	28013.87
508.68	28095.79
508.85	28198.77
509.03	28259.63
509.20	28631.77
509.38	28914.98
509.55	28896.25
509.73	28821.36
509.90	28627.09
510.08	28610.71
510.25	28606.03
510.42	29060.09
510.60	29006.26
510.77	28945.41
510.95	29546.92
511.12	29158.39
511.30	29277.76
511.47	29575.01
511.64	29219.25
511.82	30089.93
511.99	29610.12
512.17	29659.27
512.34	29860.55
512.51	30157.80
512.69	30445.69
512.86	29907.37
513.04	30188.23
513.21	30218.66
513.38	30394.20
513.56	30408.24
513.73	30178.87
513.90	30649.32
514.08	30380.15
514.25	30752.30
514.43	30993.37
514.60	30878.69
514.77	30773.36
514.95	30646.97
515.12	30731.23
515.29	31140.83
515.47	31351.48
515.64	31550.42
515.81	31058.91
515.99	31222.75
516.16	31405.31
516.33	31615.96
516.51	31321.05
516.68	31321.05
516.85	31814.90
517.03	31915.54
517.20	32315.78
517.37	32048.96
517.54	31945.97
517.72	31772.77
517.89	32140.24
518.06	32053.64
518.24	32362.59
518.41	32271.31
518.58	32271.31
518.75	32327.48
518.93	32823.67
519.10	32568.55
519.27	32837.72
519.45	32933.68
519.62	33205.18
519.79	32854.10
519.96	32790.91
520.14	33132.62
520.31	32720.69
520.48	33191.14
520.65	33151.35
520.83	33617.11
521.00	33582.01
521.17	33532.86
521.34	33579.67
521.52	33633.50
521.69	33497.75
521.86	33926.07
522.03	34394.17
522.20	33834.78
522.38	34120.33
522.55	33935.43
522.72	33928.41
522.89	34169.48
523.07	34506.52
523.24	34375.45
523.41	34897.39
523.58	33832.44
523.75	34127.35
523.92	34780.36
524.10	34560.35
524.27	34932.50
524.44	34937.18
524.61	35014.41
524.78	35192.30
524.96	35393.58
525.13	35084.63
525.30	34991.01
525.47	35337.41
525.64	35086.97
525.81	35913.18
525.98	35442.73
526.16	35344.43
526.33	35241.45
526.50	35613.59
526.67	35278.89
526.84	35548.06
527.01	35314.00
527.18	35889.77
527.36	35901.48
527.53	35739.98
527.70	36357.88
527.87	36376.61
528.04	35964.67
528.21	35765.73
528.38	36240.86
528.55	36577.89
528.72	36180.00
528.89	36723.01
529.07	36135.53
529.24	36259.58
529.41	36706.62
529.58	36685.56
529.75	36390.65
529.92	36875.14
530.09	36737.05
530.26	36802.58
530.43	36856.42
530.60	36715.98
530.77	36498.31
530.94	37266.01
531.11	36725.35
531.28	37209.84
531.46	37053.02
531.63	37628.79
531.80	37212.18
531.97	37600.71
532.14	37771.57
532.31	37371.33
532.48	37780.93
532.65	37902.64
532.82	37965.83
532.99	37612.41
533.16	37184.09
533.33	38251.38
533.50	37790.29
533.67	37963.49
533.84	37553.90
534.01	37687.31
534.18	38033.71
534.35	38754.59
534.52	38384.79
534.69	38576.71
534.86	38153.07
535.03	38541.60
535.20	38478.41
535.37	38436.28
535.54	38602.46
535.71	38515.86
535.88	38988.64
536.05	38630.54
536.22	38836.51
536.38	38639.90
536.55	38630.54
536.72	38859.91
536.89	39093.97
537.06	38845.87
537.23	39061.20
537.40	39248.44
537.57	38754.59
537.74	39311.64
537.91	39370.15
538.08	39136.10
538.25	38862.26
538.42	39236.74
538.59	39592.50
538.75	38998.01
538.92	39501.22
539.09	39452.07
539.26	39271.85
539.43	39360.79
539.60	39679.10
539.77	39723.57
539.94	40048.91
540.11	40208.06
540.28	39646.33
540.44	39739.96
540.61	39779.74
540.78	40018.48
540.95	39845.28
541.12	39674.42
541.29	39751.66
541.46	40114.44
541.62	40182.32
541.79	40034.86
541.96	39796.13
542.13	40095.72
542.30	40198.70
542.47	40240.83
542.63	40664.47
542.80	40634.04
542.97	40690.21
543.14	40271.26
543.31	40533.40
543.48	41069.38
543.64	40797.88
543.81	41179.39
543.98	40828.30
544.15	41067.04
544.32	40877.46
544.48	41254.28
544.65	41024.91
544.82	41172.36
544.99	41029.59
545.16	41261.30
545.32	41565.57
545.49	41493.02
545.66	41785.58
545.83	41762.18
546.00	41853.46
546.16	41408.76
546.33	41237.90
546.50	41195.77
546.67	42045.38
546.83	40989.80
547.00	41603.02
547.17	41429.82
547.34	41895.59
547.50	41860.48
547.67	42003.25
547.84	41984.53
548.00	42246.67
548.17	42438.59
548.34	42174.11
548.51	42197.52
548.67	42120.28
548.84	42295.82
549.01	42316.89
549.18	42284.12
549.34	42239.65
549.51	42801.38
549.68	42534.56
549.84	42438.59
550.01	42670.31
550.18	41951.76
550.34	42515.83
550.51	42567.32
550.68	42677.33
550.84	42408.17
551.01	42457.32
551.18	42295.82
551.34	42644.56
551.51	42855.21
551.68	42658.60
551.84	43086.92
552.01	42483.06
552.18	42773.29
552.34	42476.04
552.51	42794.36
552.68	42813.08
552.84	43086.92
553.01	43477.79
553.18	43283.53
553.34	43349.06
553.51	43309.27
553.67	43033.09
553.84	43344.38
554.01	43449.70
554.17	43676.74
554.34	43559.71
554.51	43370.13
554.67	43803.13
554.84	43604.18
555.00	43566.73
555.17	43688.44
555.33	43716.53
555.50	43304.59
555.67	43751.63
555.83	43966.96
556.00	44002.07
556.16	44088.67
556.33	43894.41
556.50	44079.31
556.66	43863.98
556.83	43997.39
556.99	44144.84
557.16	44509.97
557.32	44018.46
557.49	44336.77
557.65	43763.34
557.82	44416.35
557.98	43852.28
558.15	44039.52
558.32	44528.69
558.48	44107.40
558.65	44194.00
558.81	43447.36
558.98	44203.36
559.14	43828.87
559.31	44301.66
559.47	44201.02
559.64	44215.06
559.80	44612.95
559.97	44524.01
560.13	44439.75
560.30	44587.21
560.46	44500.61
560.63	44847.00
560.79	44701.89
560.96	44467.84
561.12	44172.93
561.29	44446.77
561.45	44575.50
561.61	44732.32
561.78	44524.01
561.94	44500.61
562.11	44350.81
562.27	44598.91
562.44	44861.05
562.60	44992.12
562.77	44957.01
562.93	44751.04
563.10	45155.96
563.26	44797.85
563.42	45244.90
563.59	44811.90
563.75	44912.54
563.92	44692.53
564.08	44762.75
564.24	45401.71
564.41	45017.86
564.57	45158.30
564.74	44898.50
564.90	44807.22
565.07	45158.30
565.23	44800.19
565.39	44891.48
565.56	45394.69
565.72	44924.24
565.88	44835.30
566.05	45404.05
566.21	45652.15
566.38	44994.46
566.54	45132.55
566.70	45287.03
566.87	45113.83
567.03	44713.59
567.19	44989.78
567.36	45654.49
567.52	45151.27
567.68	45488.31
567.85	45626.40
568.01	45443.84
568.17	45170.00
568.34	45434.48
568.50	45553.85
568.66	45099.78
568.83	45228.51
568.99	45933.01
569.15	45427.46
569.32	45228.51
569.48	45815.99
569.64	45546.82
569.81	45949.40
569.97	45352.56
570.13	45549.17
570.30	45172.34
570.46	45289.37
570.62	45954.08
570.78	45195.74
570.95	45443.84
571.11	46122.60
571.27	45415.76
571.43	45911.95
571.60	45645.13
571.76	45474.27
571.92	45483.63
572.09	45373.63
572.25	45411.07
572.41	45287.03
572.57	45893.22
572.74	45900.25
572.90	45528.10
573.06	45979.82
573.22	45876.84
573.38	46260.69
573.55	46028.98
573.71	46153.02
573.87	46026.63
574.03	45502.35
574.20	46274.73
574.36	46075.79
574.52	45694.28
574.68	46052.38
574.84	46415.16
575.01	46326.22
575.17	45865.14
575.33	45958.76
575.49	45911.95
575.65	45851.09
575.82	45890.88
575.98	45815.99
576.14	46005.57
576.30	46277.07
576.46	45982.16
576.62	45715.34
576.79	46155.36
576.95	45790.24
577.11	45638.11
577.27	45900.25
577.43	46160.05
577.59	46286.43
577.75	45801.94
577.92	45895.56
578.08	45832.37
578.24	46110.89
578.40	46342.61
578.56	46248.99
578.72	45815.99
578.88	46529.85
579.04	46344.95
579.21	45771.52
579.37	46312.18
579.53	45928.33
579.69	46138.98
579.85	45872.16
580.01	46501.76
580.17	46045.36
580.33	46284.09
580.49	46096.85
580.65	46305.16
580.82	46337.93
580.98	45977.48
581.14	45830.03
581.30	46094.51
581.46	46014.93
581.62	45720.02
581.78	45909.61
581.94	46714.75
582.10	46330.90
582.26	46192.81
582.42	46251.33
582.58	46209.20
582.74	46239.62
582.90	46071.10
583.06	46469.00
583.22	46094.51
583.38	46597.73
583.54	45965.78
583.70	46782.63
583.86	46478.36
584.02	46377.72
584.18	46684.33
584.34	46454.95
584.50	46169.41
584.66	46756.88
584.82	46656.24
584.98	46747.52
585.14	46747.52
585.30	46169.41
585.46	46429.21
585.62	46183.45
585.78	46115.58
585.94	45841.73
586.10	46349.63
586.26	46384.74
586.42	45977.48
586.58	46277.07
586.74	46447.93
586.90	46431.55
587.06	45785.56
587.22	46480.70
587.38	46124.94
587.54	46396.44
587.70	46408.14
587.86	46314.52
588.02	46361.33
588.18	46342.61
588.34	46131.96
588.49	46515.81
588.65	46323.88
588.81	46408.14
588.97	46705.39
589.13	46382.40
589.29	45947.06
589.45	46834.12
589.61	46511.13
589.77	46941.78
589.93	46586.02
590.08	46113.23
590.24	46492.40
590.40	46681.98
590.56	46939.44
590.72	46653.90
590.88	46483.04
591.04	46534.53
591.20	46799.01
591.35	46939.44
591.51	47332.65
591.67	46646.88
591.83	46979.23
591.99	47189.88
592.15	46660.92
592.31	46831.78
592.46	46791.99
592.62	46656.24
592.78	46653.90
592.94	47084.56
593.10	47093.92
593.26	46852.84
593.41	47091.58
593.57	47414.57
593.73	46932.42
593.89	47285.84
594.05	47246.05
594.20	47131.37
594.36	47388.83
594.52	47157.11
594.68	47281.16
594.84	46815.40
594.99	47547.98
595.15	46799.01
595.31	47217.97
595.47	47330.31
595.62	47019.02
595.78	46904.34
595.94	47058.81
596.10	47377.12
596.25	47042.43
596.41	47100.94
596.57	46894.97
596.73	47327.97
596.88	46902.00
597.04	47334.99
597.20	47068.17
597.36	47236.69
597.51	47199.24
597.67	47042.43
597.83	47096.26
597.99	47019.02
598.14	47243.71
598.30	47068.17
598.46	46930.08
598.61	47374.78
598.77	47482.45
598.93	47129.03
599.09	46707.73
599.24	47576.07
599.40	47269.46
599.56	47543.30
599.71	47459.04
599.87	48037.16
600.03	47334.99
600.18	47182.86
600.34	47260.10
600.50	46808.37
600.65	47384.15
600.81	47344.36
600.97	47730.54
601.12	47327.97
601.28	47178.18
601.44	47171.16
601.59	47049.45
601.75	47325.63
601.91	47505.85
602.06	47154.77
602.22	47208.61
602.37	47107.96
602.53	47475.43
602.69	46974.55
602.84	47318.61
603.00	47189.88
603.16	47143.07
603.31	47262.44
603.47	47484.79
603.62	47241.37
603.78	47227.33
603.94	47349.04
604.09	47234.35
604.25	47124.35
604.40	47278.82
604.56	47494.15
604.71	47779.70
604.87	47346.70
605.03	47056.47
605.18	47239.03
605.34	47327.97
605.49	46925.40
605.65	47463.72
605.80	47295.21
605.96	47175.84
606.12	47229.67
606.27	47281.16
606.43	47208.61
606.58	47269.46
606.74	47012.00
606.89	47484.79
607.05	47655.65
607.20	47299.89
607.36	47058.81
607.51	47126.69
607.67	46681.98
607.82	47309.25
607.98	47061.15
608.13	47091.58
608.29	47145.41
608.44	47086.90
608.60	46740.50
608.75	47035.41
608.91	46892.63
609.06	46777.95
609.22	47337.33
609.37	47028.38
609.53	47026.04
609.68	47126.69
609.84	47061.15
609.99	47386.49
610.15	47119.66
610.30	47042.43
610.46	46749.86
610.61	46754.54
610.76	46937.10
610.92	46829.44
611.07	46298.14
611.23	46698.37
611.38	46836.46
611.54	46745.18
611.69	46763.90
611.84	47028.38
612.00	46843.48
612.15	46459.63
612.31	46733.48
612.46	46101.53
612.62	46789.65
612.77	46330.90
612.92	46763.90
613.08	46679.64
613.23	46756.88
613.39	46328.56
613.54	46707.73
613.69	46689.01
613.85	46838.80
614.00	46293.46
614.15	46824.76
614.31	46258.35
614.46	46719.43
614.62	46075.79
614.77	46534.53
614.92	46337.93
615.08	46082.81
615.23	46457.29
615.38	46602.41
615.54	46897.31
615.69	46057.06
615.84	46724.11
616.00	46894.97
616.15	46469.00
616.30	46710.07
616.46	46050.04
616.61	46710.07
616.76	46028.98
616.92	45895.56
617.07	46815.40
617.22	46356.65
617.37	45736.41
617.53	46178.77
617.68	46380.06
617.83	46251.33
617.99	46555.60
618.14	46033.66
618.29	46120.26
618.45	45897.91
618.60	45949.40
618.75	45617.04
618.90	46080.47
619.06	45848.75
619.21	46218.56
619.36	46096.85
619.51	45783.22
619.67	46071.10
619.82	45970.46
619.97	46291.12
620.12	45544.48
620.28	45544.48
620.43	46188.13
620.58	46181.11
620.73	46225.58
620.89	46099.19
621.04	46031.32
621.19	45815.99
621.34	46148.34
621.49	45766.84
621.65	45469.59
621.80	46300.48
621.95	46110.89
622.10	45794.92
622.25	45336.18
622.41	45682.58
622.56	45490.65
622.71	45790.24
622.86	45773.86
623.01	45453.20
623.16	45509.38
623.32	45516.40
623.47	45792.58
623.62	45216.81
623.77	45450.86
623.92	45408.73
624.07	45556.19
624.23	45694.28
624.38	45375.97
624.53	45427.46
624.68	45315.11
624.83	45413.41
624.98	45397.03
625.13	45160.64
625.29	45088.08
625.44	45158.30
625.59	45415.76
625.74	45382.99
625.89	44748.70
626.04	45059.99
626.19	44973.39
626.34	44875.09
626.49	44814.24
626.65	44657.42
626.80	44858.71
626.95	44708.91
627.10	44739.34
627.25	44772.11
627.40	44797.85
627.55	44893.82
627.70	44208.04
627.85	45184.04
628.00	44999.14
628.15	45034.25
628.30	44528.69
628.45	44755.72
628.60	44226.76
628.76	44442.09
628.91	45118.51
629.06	44357.83
629.21	44428.05
629.36	44610.61
629.51	44224.42
629.66	44690.19
629.81	44369.54
629.96	44706.57
630.11	44514.65
630.26	44388.26
630.41	44381.24
630.56	44472.52
630.71	44402.30
630.86	44252.51
631.01	43777.38
631.16	44208.04
631.31	44114.42
631.46	44041.86
631.61	44666.78
631.76	44406.98
631.91	44327.41
632.06	44423.37
632.21	44161.23
632.36	44411.67
632.51	43971.64
632.66	43922.49
632.81	44196.34
632.96	44259.53
633.10	44041.86
633.25	43576.09
633.40	43894.41
633.55	44161.23
633.70	44156.55
633.85	43555.03
634.00	43707.16
634.15	43835.89
634.30	43899.09
634.45	43871.00
634.60	44128.46
634.75	43798.44
634.90	43351.40
635.05	44009.09
635.19	43957.60
635.34	44222.08
635.49	44060.58
635.64	43955.26
635.79	43749.29
635.94	43571.41
636.09	43807.81
636.24	43377.15
636.39	43435.66
636.53	43014.37
636.68	43210.97
636.83	43604.18
636.98	43124.37
637.13	43192.25
637.28	43086.92
637.43	43538.65
637.57	43091.60
637.72	43332.68
637.87	43367.79
638.02	43009.68
638.17	43253.10
638.32	42810.74
638.46	42614.13
638.61	42862.23
638.76	43110.33
638.91	42948.83
639.06	42976.92
639.20	42787.33
639.35	42937.13
639.50	42731.16
639.65	42834.14
639.80	42796.70
639.94	43398.21
640.09	43260.12
640.24	42691.37
640.39	42218.58
640.54	42188.16
640.68	42520.51
640.83	42990.96
640.98	42424.55
641.13	42462.00
641.27	42850.53
641.42	42272.42
641.57	42618.81
641.72	42859.89
641.86	42412.85
642.01	42026.66
642.16	42735.84
642.31	42031.34
642.45	42314.55
642.60	42436.25
642.75	42181.13
642.90	42490.09
643.04	42256.03
643.19	41982.19
643.34	42150.71
643.48	41961.12
643.63	42586.05
643.78	41937.72
643.93	42314.55
644.07	42316.89
644.22	42211.56
644.37	42218.58
644.51	42103.90
644.66	42031.34
644.81	42094.53
644.95	42183.48
645.10	42066.45
645.25	42108.58
645.39	41755.16
645.54	42000.91
645.69	41486.00
645.83	41743.45
645.98	41677.92
646.13	41371.31
646.27	41729.41
646.42	41588.98
646.57	41785.58
646.71	41649.83
646.86	41986.87
647.00	41687.28
647.15	41553.87
647.30	41729.41
647.44	41563.23
647.59	41741.11
647.74	41670.90
647.88	41893.25
648.03	41841.76
648.17	41722.39
648.32	41886.23
648.47	41820.69
648.61	41455.57
648.76	41289.39
648.90	41298.75
649.05	41338.54
649.20	41305.77
649.34	41385.35
649.49	41319.82
649.63	41392.37
649.78	41207.47
649.92	41427.48
650.07	41333.86
650.21	41340.88
650.36	41284.71
650.51	41064.70
650.65	41228.54
650.80	41223.86
650.94	41462.59
651.09	40718.30
651.23	40921.93
651.38	41170.02
651.52	40753.41
651.67	40854.05
651.81	41060.02
651.96	40896.18
652.10	40615.32
652.25	40872.78
652.39	40488.93
652.54	40769.79
652.68	40781.49
652.83	40807.24
652.97	40966.40
653.12	40622.34
653.26	40830.65
653.41	40498.29
653.55	41111.51
653.70	40875.12
653.84	41163.00
653.99	40879.80
654.13	40629.36
654.27	40828.30
654.42	40453.82
654.56	40486.59
654.71	41057.68
654.85	40739.36
655.00	40449.14
655.14	40648.08
655.29	40795.54
655.43	40552.12
655.57	40397.65
655.72	40407.01
655.86	40091.04
656.01	39990.39
656.15	39707.19
656.30	40421.05
656.44	40011.46
656.58	40114.44
656.73	40231.47
656.87	39798.47
657.01	40018.48
657.16	39974.01
657.30	39835.92
657.45	39885.07
657.59	39969.33
657.73	39491.86
657.88	39751.66
658.02	39754.00
658.16	40271.26
658.31	39648.68
658.45	39683.78
658.60	39955.29
658.74	39789.11
658.88	40058.27
659.03	39786.77
659.17	39372.49
659.31	39257.81
659.46	39157.16
659.60	39538.67
659.74	39157.16
659.89	38895.02
660.03	38843.53
660.17	39009.71
660.32	39012.05
660.46	38986.30
660.60	38848.21
660.74	39248.44
660.89	38876.30
661.03	38719.48
661.17	38447.98
661.32	38642.24
661.46	38557.99
661.60	38330.95
661.74	38815.44
661.89	38007.96
662.03	38244.35
662.17	38588.41
662.31	38426.92
662.46	38838.85
662.60	38305.21
662.74	37532.83
662.88	37961.15
663.03	38003.28
663.17	37937.74
663.31	38129.67
663.45	37961.15
663.60	38223.29
663.74	38099.24
663.88	37998.60
664.02	37839.44
664.17	38492.45
664.31	37956.47
664.45	37532.83
664.59	37603.05
664.73	37481.34
664.88	37617.09
665.02	37275.37
665.16	37425.17
665.30	37282.39
665.44	37654.54
665.59	37408.78
665.73	36879.82
665.87	36765.14
666.01	37156.00
666.15	37394.74
666.29	36833.01
666.44	37460.27
666.58	37055.36
666.72	36664.49
666.86	36442.14
667.00	36643.43
667.14	36840.03
667.28	36952.38
667.43	36837.69
667.57	36645.77
667.71	36610.66
667.85	36680.88
667.99	36708.96
668.13	36477.25
668.27	36013.82
668.41	36367.24
668.56	35543.38
668.70	35672.10
668.84	35679.13
668.98	35915.52
669.12	35964.67
669.26	35833.60
669.40	35889.77
669.54	36119.15
669.68	35894.46
669.82	35632.32
669.96	35323.36
670.10	35030.80
670.25	35402.94
670.39	35250.81
670.53	35381.88
670.67	35147.82
670.81	35283.58
670.95	34803.77
671.09	35365.49
671.23	34815.47
671.37	34897.39
671.51	34724.19
671.65	34665.67
671.79	34698.44
671.93	34689.08
672.07	34665.67
672.21	34785.04
672.35	34307.57
672.49	34560.35
672.63	34574.39
672.77	33659.24
672.91	34227.99
673.05	33961.17
673.19	33783.29
673.33	34010.32
673.47	33656.90
673.61	33593.71
673.75	33254.33
673.89	33680.31
674.03	33359.66
674.17	33111.56
674.31	32896.23
674.45	33134.96
674.59	33399.44
674.73	33149.01
674.87	32945.38
675.01	32680.90
675.15	32692.60
675.29	32348.54
675.43	32535.79
675.56	32917.29
675.70	32680.90
675.84	32610.68
675.98	31175.94
676.12	32226.84
676.26	32060.66
676.40	32060.66
676.54	31850.01
676.68	32032.57
676.82	31433.39
676.96	31737.66
677.10	31503.61
677.23	31367.86
677.37	31601.91
677.51	31468.50
677.65	31583.19
677.79	31658.09
677.93	31171.25
678.07	31236.79
678.21	30965.29
678.34	30932.52
678.48	30759.32
678.62	30415.26
678.76	30382.49
678.90	30211.64
679.04	30263.13
679.18	30272.49
679.31	30457.39
679.45	29928.43
679.59	29673.31
679.73	30082.91
679.87	29687.36
680.00	29858.21
680.14	30211.64
680.28	29991.62
680.42	29848.85
680.56	29380.74
680.70	29324.57
680.83	28802.63
680.97	29205.20
681.11	28982.85
681.25	28783.91
681.39	28489.00
681.52	28711.35
681.66	28594.32
681.80	28297.08
681.94	27929.61
682.07	27990.47
682.21	28128.56
682.35	27943.66
682.49	27810.25
682.62	27669.81
682.76	28156.64
682.90	28095.79
683.04	27821.95
683.17	27681.52
683.31	27391.29
683.45	27487.25
683.59	26871.69
683.72	26974.67
683.86	27197.02
684.00	26752.32
684.13	26754.66
684.27	26483.16
684.41	26607.21
684.55	26852.97
684.68	26338.05
684.82	25876.96
684.96	26265.49
685.09	26288.90
685.23	26221.02
685.37	26583.80
685.50	26682.11
685.64	25914.41
685.78	26045.48
685.91	25715.47
686.05	25376.09
686.19	25071.82
686.32	25088.20
686.46	25069.48
686.60	24996.92
686.73	25364.39
686.87	24753.51
687.01	24943.09
687.14	25336.30
687.28	24741.80
687.42	24648.18
687.55	24067.73
687.69	24479.66
687.82	24301.78
687.96	24030.28
688.10	24322.85
688.23	24091.13
688.37	24130.92
688.50	24072.41
688.64	23941.34
688.78	24074.75
688.91	23854.74
689.05	23800.91
689.18	23592.60
689.32	23190.03
689.46	22963.00
689.59	23154.92
689.73	23255.56
689.86	23073.00
690.00	22946.61
690.13	23241.52
690.27	22766.39
690.41	23183.01
690.54	22441.06
690.68	22436.38
690.81	22242.11
690.95	22204.66
691.08	22015.08
691.22	22207.00
691.35	22038.48
691.49	22197.64
691.62	21823.16
691.76	21364.41
691.89	21598.46
692.03	21355.05
692.16	21245.04
692.30	20996.95
692.43	21275.47
692.57	21268.45
692.70	20975.88
692.84	21106.95
692.97	20807.36
693.11	20582.67
693.24	20383.73
693.38	20781.62
693.51	20503.09
693.65	20601.40
693.78	20442.24
693.92	19927.32
694.05	20262.02
694.19	19908.60
694.32	20004.56
694.45	20147.33
694.59	20156.69
694.72	20177.76
694.86	19744.76
694.99	19667.52
695.13	19510.71
695.26	19168.99
695.39	19204.10
695.53	19407.72
695.66	19421.77
695.80	19185.37
695.93	19042.60
696.07	18698.54
696.20	18562.79
696.33	18656.41
696.47	18546.40
696.60	18501.93
696.73	18843.65
696.87	18731.31
697.00	18558.11
697.14	18160.22
697.27	17984.68
697.40	18073.62
697.54	18061.91
697.67	17923.82
697.80	17734.24
697.94	17888.71
698.07	17701.47
698.21	17642.96
698.34	17518.91
698.47	17109.32
698.61	16985.27
698.74	16957.18
698.87	17020.38
699.01	16968.88
699.14	17062.51
699.27	17088.25
699.40	16922.07
699.54	16662.27
699.67	16833.13
699.80	16727.81
699.94	16498.44
700.07	16575.67
700.20	16524.18
700.34	16360.34
700.47	16336.94
700.60	16432.90
700.73	16194.17
700.87	15915.64
701.00	15641.80
701.13	15730.74
701.26	15880.53
701.40	15632.44
701.53	15358.60
701.66	15440.51
701.79	15564.56
701.93	15110.50
702.06	15346.89
702.19	15264.97
702.32	15269.66
702.46	15145.61
702.59	15197.10
702.72	15054.33
702.85	15234.55
702.99	14998.15
703.12	14717.29
703.25	14579.20
703.38	14768.78
703.51	14754.74
703.65	14490.26
703.78	14335.78
703.91	14382.59
704.04	14059.60
704.17	13942.57
704.31	14143.86
704.44	13947.25
704.57	14129.81
704.70	13886.40
704.83	13710.86
704.96	13486.17
705.10	13626.60
705.23	13420.63
>>>>>End Processed Spectral Data<<<<<
