SpectraSuite Data File
++++++++++++++++++++++++++++++++++++
Date: Fri Oct 25 10:47:29 EDT 2013
User: price-jones
Dark Spectrum Present: No
Reference Spectrum Present: No
Number of Sampled Component Spectra: 1
Spectrometers: USB2+H05261
Integration Time (usec): 100000 (USB2+H05261)
Spectra Averaged: 1 (USB2+H05261)
Boxcar Smoothing: 0 (USB2+H05261)
Correct for Electrical Dark: No (USB2+H05261)
Strobe/Lamp Enabled: No (USB2+H05261)
Correct for Detector Non-linearity: No (USB2+H05261)
Correct for Stray Light: No (USB2+H05261)
Number of Pixels in Processed Spectrum: 2048
>>>>>Begin Processed Spectral Data<<<<<
365.73	119.37
365.92	119.37
366.12	119.37
366.32	79.58
366.52	105.32
366.72	102.98
366.91	9.36
367.11	79.58
367.31	121.71
367.51	84.26
367.70	84.26
367.90	56.17
368.10	53.83
368.30	53.83
368.49	0.00
368.69	46.81
368.89	152.13
369.09	25.75
369.28	42.13
369.48	100.64
369.68	88.94
369.87	124.05
370.07	70.22
370.27	77.24
370.47	208.31
370.66	346.40
370.86	395.55
371.06	482.15
371.25	451.72
371.45	402.57
371.65	503.22
371.84	465.77
372.04	444.70
372.24	458.74
372.44	423.64
372.63	491.51
372.83	531.30
373.03	491.51
373.22	402.57
373.42	437.68
373.62	484.49
373.81	533.64
374.01	587.47
374.21	610.88
374.40	479.81
374.60	568.75
374.79	594.50
374.99	624.92
375.19	521.94
375.38	528.96
375.58	531.30
375.78	561.73
375.97	575.77
376.17	627.26
376.37	510.24
376.56	601.52
376.76	503.22
376.95	507.90
377.15	519.60
377.35	601.52
377.54	615.56
377.74	629.60
377.93	589.82
378.13	580.45
378.33	638.97
378.52	650.67
378.72	599.18
378.91	580.45
379.11	601.52
379.31	634.29
379.50	650.67
379.70	601.52
379.89	641.31
380.09	706.84
380.28	594.50
380.48	634.29
380.68	664.71
380.87	599.18
381.07	704.50
381.26	681.10
381.46	615.56
381.65	613.22
381.85	674.07
382.04	643.65
382.24	648.33
382.43	615.56
382.63	627.26
382.83	695.14
383.02	678.76
383.22	662.37
383.41	685.78
383.61	641.31
383.80	767.70
384.00	734.93
384.19	711.52
384.39	683.44
384.58	662.37
384.78	704.50
384.97	737.27
385.17	730.25
385.36	765.36
385.56	779.40
385.75	723.23
385.95	751.31
386.14	760.67
386.34	777.06
386.53	727.91
386.72	748.97
386.92	786.42
387.11	795.78
387.31	758.33
387.50	770.04
387.70	847.27
387.89	774.72
388.09	734.93
388.28	873.02
388.48	837.91
388.67	873.02
388.86	826.21
389.06	858.98
389.25	884.72
389.45	875.36
389.64	812.17
389.84	880.04
390.03	858.98
390.22	912.81
390.42	884.72
390.61	863.66
390.81	943.24
391.00	915.15
391.19	866.00
391.39	926.85
391.58	959.62
391.78	961.96
391.97	952.60
392.16	875.36
392.36	1088.35
392.55	912.81
392.75	919.83
392.94	919.83
393.13	1004.09
393.33	1041.54
393.52	950.26
393.71	1041.54
393.91	992.39
394.10	1074.31
394.29	1046.22
394.49	1078.99
394.68	1015.79
394.88	1095.37
395.07	1067.28
395.26	1121.12
395.46	1008.77
395.65	1170.27
395.84	1135.16
396.04	1181.97
396.23	1109.41
396.42	1062.60
396.62	1088.35
396.81	1090.69
397.00	1160.91
397.19	1151.54
397.39	1163.25
397.58	1149.20
397.77	1174.95
397.97	1139.84
398.16	1172.61
398.35	1263.89
398.55	1233.46
398.74	1301.34
398.93	1301.34
399.12	1327.08
399.32	1362.19
399.51	1256.87
399.70	1301.34
399.90	1287.29
400.09	1380.92
400.28	1334.11
400.47	1336.45
400.67	1406.66
400.86	1423.05
401.05	1486.24
401.24	1511.99
401.44	1465.18
401.63	1399.64
401.82	1458.15
402.01	1488.58
402.21	1486.24
402.40	1446.45
402.59	1439.43
402.78	1493.26
402.97	1497.94
403.17	1607.95
403.36	1488.58
403.55	1509.65
403.74	1600.93
403.93	1582.20
404.13	1614.97
404.32	1603.27
404.51	1598.59
404.70	1652.42
404.89	1596.25
405.09	1638.38
405.28	1629.01
405.47	1650.08
405.66	1652.42
405.85	1748.38
406.05	1678.16
406.24	1764.76
406.43	1755.40
406.62	1818.60
406.81	1769.44
407.00	1769.44
407.20	1778.81
407.39	1809.23
407.58	1991.80
407.77	1788.17
407.96	1860.73
408.15	1893.49
408.34	1898.17
408.54	2031.58
408.73	1949.67
408.92	1933.28
409.11	2104.14
409.30	1912.22
409.49	1942.64
409.68	1968.39
409.87	2036.27
410.07	1926.26
410.26	1982.43
410.45	2090.10
410.64	2157.97
410.83	2115.84
411.02	2066.69
411.21	2162.66
411.40	2190.74
411.59	2202.44
411.78	2321.81
411.98	2186.06
412.17	2207.13
412.36	2333.51
412.55	2396.71
412.74	2403.73
412.93	2382.67
413.12	2356.92
413.31	2487.99
413.50	2392.03
413.69	2429.48
413.88	2455.22
414.07	2506.71
414.26	2520.76
414.45	2628.42
414.64	2595.65
414.83	2621.40
415.02	2605.02
415.22	2663.53
415.41	2775.88
415.60	2703.32
415.79	2717.36
415.98	2787.58
416.17	2892.90
416.36	2710.34
416.55	2906.95
416.74	2827.37
416.93	2848.43
417.12	2937.37
417.31	2881.20
417.50	2818.00
417.69	2918.65
417.88	2963.12
418.07	3049.72
418.26	2935.03
418.45	3035.67
418.64	3197.17
418.83	3070.78
419.02	3141.00
419.21	3063.76
419.39	3164.40
419.58	3119.93
419.77	3328.24
419.96	3225.26
420.15	3192.49
420.34	3220.58
420.53	3073.12
420.72	3293.13
420.91	3307.18
421.10	3351.65
421.29	3421.86
421.48	3288.45
421.67	3407.82
421.86	3410.16
422.05	3332.92
422.24	3335.26
422.43	3194.83
422.61	3260.37
422.80	3456.97
422.99	3349.31
423.18	3372.71
423.37	3545.91
423.56	3578.68
423.75	3456.97
423.94	3419.52
424.13	3094.19
424.32	3400.80
424.50	3510.80
424.69	3480.38
424.88	3534.21
425.07	3559.95
425.26	3417.18
425.45	3398.46
425.64	3445.27
425.83	3541.23
426.01	3414.84
426.20	3506.12
426.39	3480.38
426.58	3361.01
426.77	3384.41
426.96	3496.76
427.15	3534.21
427.33	3583.36
427.52	3592.72
427.71	3627.83
427.90	3681.66
428.09	3616.13
428.28	3723.79
428.46	3726.13
428.65	3634.85
428.84	3702.73
429.03	3740.18
429.22	3625.49
429.40	3679.32
429.59	3693.37
429.78	3513.14
429.97	3590.38
430.16	3672.30
430.34	3707.41
430.53	3756.56
430.72	3904.01
430.91	3894.65
431.10	3735.50
431.28	3866.56
431.47	3988.27
431.66	4084.23
431.85	3908.69
432.03	4014.02
432.22	4175.52
432.41	4102.96
432.60	4077.21
432.79	4098.28
432.97	4203.60
433.16	4105.30
433.35	4135.73
433.54	4114.66
433.72	4140.41
433.91	4154.45
434.10	4091.26
434.28	4266.80
434.47	4259.78
434.66	4404.89
434.85	4332.33
435.03	4290.20
435.22	4304.25
435.41	4301.90
435.59	4416.59
435.78	4468.08
435.97	4491.49
436.16	4465.74
436.34	4411.91
436.53	4496.17
436.72	4643.62
436.90	4430.63
437.09	4592.13
437.28	4503.19
437.46	4547.66
437.65	4657.67
437.84	4510.21
438.02	4542.98
438.21	4608.51
438.40	4526.60
438.58	4615.54
438.77	4660.01
438.96	4720.86
439.14	4772.35
439.33	4748.95
439.52	5025.13
439.70	5076.62
439.89	4940.87
440.08	4994.70
440.26	5116.41
440.45	4924.49
440.63	5179.61
440.82	5188.97
441.01	5256.84
441.19	5383.23
441.38	5245.14
441.57	5151.52
441.75	5341.10
441.94	5348.12
442.12	5614.95
442.31	5504.94
442.50	5509.62
442.68	5444.09
442.87	5624.31
443.05	5600.90
443.24	5596.22
443.43	5673.46
443.61	5621.97
443.80	5659.42
443.98	5584.52
444.17	5359.83
444.35	5687.50
444.54	5951.98
444.73	5802.19
444.91	5537.71
445.10	5682.82
445.28	5706.23
445.47	5458.13
445.65	5563.45
445.84	5575.16
446.02	5839.64
446.21	5811.55
446.39	5614.95
446.58	5530.69
446.77	5753.04
446.95	5762.40
447.14	5746.02
447.32	5806.87
447.51	5727.29
447.69	5823.25
447.88	5823.25
448.06	5935.60
448.25	5966.03
448.43	5806.87
448.62	5907.51
448.80	5874.74
448.99	5879.43
449.17	6026.88
449.36	5879.43
449.54	6174.33
449.73	6225.82
449.91	6169.65
450.10	6293.70
450.28	6139.23
450.46	6225.82
450.65	6270.30
450.83	6452.86
451.02	6230.51
451.20	6382.64
451.39	6328.81
451.57	6307.74
451.76	6143.91
451.94	6312.42
452.13	6342.85
452.31	6326.47
452.49	6331.15
452.68	6525.41
452.86	6382.64
453.05	6436.47
453.23	6553.50
453.42	6157.95
453.60	6328.81
453.78	6457.54
453.97	6473.92
454.15	6347.53
454.34	6279.66
454.52	6480.94
454.70	6649.46
454.89	6656.48
455.07	6483.28
455.26	6806.28
455.44	6771.17
455.62	6623.72
455.81	6647.12
455.99	6789.89
456.17	6689.25
456.36	6780.53
456.54	6902.24
456.73	6902.24
456.91	7129.27
457.09	7133.95
457.28	7159.70
457.46	7033.31
457.64	7019.27
457.83	7225.23
458.01	7000.54
458.19	7250.98
458.38	7241.62
458.56	7173.74
458.74	7098.84
458.93	7117.57
459.11	7279.07
459.29	7201.83
459.48	7190.13
459.66	7370.35
459.84	7332.90
460.03	7550.57
460.21	7358.64
460.39	7386.73
460.57	7410.14
460.76	7447.58
460.94	7520.14
461.12	7644.19
461.31	7445.24
461.49	7552.91
461.67	7606.74
461.85	7562.27
462.04	7665.25
462.22	8184.85
462.40	7864.20
462.59	7838.45
462.77	7845.48
462.95	7866.54
463.13	7854.84
463.32	7826.75
463.50	7777.60
463.68	7847.82
463.86	7892.29
464.05	7950.80
464.23	7990.59
464.41	7978.89
464.59	7864.20
464.78	8013.99
464.96	7953.14
465.14	7932.08
465.32	7922.71
465.50	8255.07
465.69	8140.38
465.87	8163.79
466.05	8028.04
466.23	8252.73
466.41	8046.76
466.60	8294.86
466.78	8210.60
466.96	8114.64
467.14	8077.19
467.32	8149.75
467.51	8479.76
467.69	8145.06
467.87	8468.06
468.05	8344.01
468.23	8205.92
468.41	8402.52
468.60	8322.94
468.78	8500.83
468.96	8425.93
469.14	8458.70
469.32	8528.91
469.50	8285.50
469.69	8933.82
469.87	8716.16
470.05	8879.99
470.23	8912.76
470.41	8629.56
470.59	8748.92
470.77	8767.65
470.95	9053.19
471.14	8784.03
471.32	8681.05
471.50	9149.15
471.68	9109.36
471.86	8964.25
472.04	9076.60
472.22	9149.15
472.40	9202.99
472.58	9202.99
472.77	9355.12
472.95	9385.55
473.13	9638.33
473.31	9483.85
473.49	9231.07
473.67	9401.93
473.85	9273.20
474.03	9724.93
474.21	9717.90
474.39	9689.82
474.57	9694.50
474.75	9846.63
474.93	9872.38
475.12	9870.04
475.30	10125.16
475.48	9891.10
475.66	10083.03
475.84	10033.88
476.02	10218.78
476.20	10380.28
476.38	10300.70
476.56	10562.84
476.74	10525.39
476.92	10427.09
477.10	10382.62
477.28	10593.26
477.46	10619.01
477.64	10700.93
477.82	11012.22
478.00	11173.72
478.18	11236.91
478.36	11332.87
478.54	11243.93
478.72	11349.26
478.90	11396.07
479.08	11730.76
479.26	11653.53
479.44	11571.61
479.62	11768.21
479.80	11618.42
479.98	11903.96
480.16	11915.67
480.34	11936.73
480.52	11995.25
480.70	12292.49
480.88	12182.49
481.06	12257.39
481.24	12444.63
481.41	12404.84
481.59	12685.70
481.77	12798.05
481.95	12741.88
482.13	13015.72
482.31	13076.57
482.49	13151.47
482.67	13268.50
482.85	13446.38
483.03	13556.38
483.21	13654.69
483.39	13664.05
483.57	13523.62
483.74	14047.90
483.92	14132.15
484.10	14134.50
484.28	13968.32
484.46	14525.36
484.64	14546.43
484.82	14300.67
485.00	14565.15
485.18	14808.57
485.35	14918.57
485.53	14846.02
485.71	15002.83
485.89	15014.54
486.07	15115.18
486.25	14892.83
486.43	15157.31
486.61	15248.59
486.78	15566.90
486.96	15695.63
487.14	16060.76
487.32	15805.64
487.50	16161.40
487.68	16336.94
487.85	16524.18
488.03	16638.87
488.21	16858.88
488.39	16989.95
488.57	16650.57
488.75	16872.92
488.92	17521.25
489.10	17329.33
489.28	17483.80
489.46	17472.10
489.64	17460.40
489.81	17996.38
489.99	17994.04
490.17	18108.72
490.35	18434.06
490.53	18132.13
490.70	18150.85
490.88	18616.62
491.06	18670.45
491.24	18483.21
491.41	18810.89
491.59	18773.44
491.77	18693.86
491.95	19108.13
492.13	19271.97
492.30	19428.79
492.48	19342.19
492.66	19414.74
492.84	19700.29
493.01	20177.76
493.19	19517.73
493.37	20196.48
493.54	20191.80
493.72	20315.85
493.90	20463.30
494.08	20767.57
494.25	20774.60
494.43	20617.78
494.61	21046.10
494.79	21078.86
494.96	20919.71
495.14	21018.01
495.32	21502.50
495.49	21420.58
495.67	21633.57
495.85	21738.90
496.02	21874.65
496.20	21804.43
496.38	22335.73
496.55	22005.72
496.73	22450.42
496.91	21982.31
497.09	22511.27
497.26	22389.56
497.44	22340.41
497.62	22625.96
497.79	23112.79
497.97	22808.52
498.14	22911.50
498.32	23367.91
498.50	23007.47
498.67	23285.99
498.85	23590.26
499.03	23927.30
499.20	23896.87
499.38	23632.39
499.56	24056.03
499.73	23833.68
499.91	24037.30
500.08	24149.65
500.26	24112.20
500.44	24217.52
500.61	24287.74
500.79	24032.62
500.97	24622.44
501.14	24573.28
501.32	24634.14
501.49	24334.55
501.67	25015.65
501.84	25062.46
502.02	24893.94
502.20	25085.86
502.37	25153.74
502.55	24840.11
502.72	25252.04
502.90	25867.60
503.07	25490.77
503.25	25685.04
503.43	25610.14
503.60	25649.93
503.78	25792.70
503.95	25682.70
504.13	25912.07
504.30	26118.04
504.48	26040.80
504.65	26328.69
504.83	26253.79
505.01	26548.70
505.18	26412.95
505.36	26885.73
505.53	26721.90
505.71	26817.86
505.88	27297.67
506.06	26654.02
506.23	26876.37
506.41	27000.42
506.58	27185.32
506.76	27208.73
506.93	27260.22
507.11	27342.14
507.28	27321.07
507.46	27103.40
507.63	27580.87
507.81	27484.91
507.98	27360.86
508.16	27873.44
508.33	27641.73
508.50	27922.59
508.68	27985.79
508.85	28254.95
509.03	28081.75
509.20	28386.02
509.38	28374.31
509.55	28535.81
509.73	28591.98
509.90	28779.23
510.08	28400.06
510.25	28489.00
510.42	28856.46
510.60	28687.95
510.77	28772.21
510.95	28936.04
511.12	28769.86
511.30	29034.35
511.47	29490.75
511.64	29692.04
511.82	29701.40
511.99	29640.54
512.17	29654.59
512.34	29315.21
512.51	29752.89
512.69	29853.53
512.86	30286.53
513.04	30221.00
513.21	30052.48
513.38	30253.76
513.56	30270.15
513.73	30293.55
513.90	30693.79
514.08	30340.36
514.25	30883.37
514.43	30422.28
514.60	30572.08
514.77	30389.52
514.95	31370.20
515.12	31089.34
515.29	30815.49
515.47	30948.90
515.64	31377.22
515.81	31056.57
515.99	31075.29
516.16	31307.01
516.33	31452.12
516.51	31419.35
516.68	30972.31
516.85	30962.95
517.03	31187.64
517.20	31201.68
517.37	31494.25
517.54	31840.65
517.72	32058.32
517.89	31740.00
518.06	31566.81
518.24	32088.74
518.41	31669.79
518.58	31864.05
518.75	32011.51
518.93	32357.91
519.10	32065.34
519.27	32460.89
519.45	32280.67
519.62	32266.63
519.79	32353.23
519.96	32491.32
520.14	33193.48
520.31	32807.29
520.48	32863.46
520.65	32975.81
520.83	33567.96
521.00	32996.87
521.17	32804.95
521.34	32868.14
521.52	33464.98
521.69	33294.12
521.86	33200.50
522.03	33235.61
522.20	33741.16
522.38	33432.21
522.55	33680.31
522.72	33677.97
522.89	33483.70
523.07	33717.76
523.24	33535.20
523.41	33979.90
523.58	33890.96
523.75	34185.86
523.92	34075.86
524.10	34174.16
524.27	34506.52
524.44	34298.21
524.61	34230.33
524.78	35030.80
524.96	34895.05
525.13	34906.75
525.30	35040.16
525.47	34986.33
525.64	34785.04
525.81	35086.97
525.98	34953.56
526.16	34782.70
526.33	34616.52
526.50	35409.96
526.67	35271.87
526.84	34911.43
527.01	34866.96
527.18	35330.39
527.36	35276.55
527.53	35711.89
527.70	36020.84
527.87	35934.24
528.04	35433.37
528.21	35627.63
528.38	35695.51
528.55	35660.40
528.72	35754.02
528.89	36002.12
529.07	35744.66
529.24	35686.15
529.41	36128.51
529.58	36027.87
529.75	36425.76
529.92	35976.37
530.09	36149.57
530.26	36135.53
530.43	36938.33
530.60	36149.57
530.77	36587.25
530.94	36430.44
531.11	36236.17
531.28	36369.58
531.46	36804.92
531.63	36591.94
531.80	36673.85
531.97	36512.36
532.14	36800.24
532.31	36575.55
532.48	36828.33
532.65	36800.24
532.82	36634.06
532.99	36999.19
533.16	36397.67
533.33	37120.90
533.50	37338.57
533.67	37315.16
533.84	36856.42
534.01	37406.44
534.18	37240.26
534.35	37809.01
534.52	37230.90
534.69	37434.53
534.86	37670.92
535.03	37333.89
535.20	37687.31
535.37	37944.76
535.54	37951.79
535.71	38061.79
535.88	37872.21
536.05	37886.25
536.22	37970.51
536.38	38052.43
536.55	38373.08
536.72	38129.67
536.89	37865.19
537.06	37703.69
537.23	38455.00
537.40	38087.54
537.57	38298.19
537.74	38581.39
537.91	38759.27
538.08	38703.10
538.25	38478.41
538.42	38377.76
538.59	38572.03
538.75	38377.76
538.92	38263.08
539.09	38906.73
539.26	38838.85
539.43	38316.91
539.60	38946.51
539.77	38513.52
539.94	39056.52
540.11	39002.69
540.28	39426.32
540.44	38742.89
540.61	39021.41
540.78	38906.73
540.95	38934.81
541.12	38916.09
541.29	38752.25
541.46	38873.96
541.62	39784.43
541.79	39208.65
541.96	38742.89
542.13	39040.14
542.30	39566.76
542.47	39461.43
542.63	39784.43
542.80	39651.02
542.97	39976.35
543.14	39873.37
543.31	39934.22
543.48	39672.08
543.64	40395.31
543.81	39978.69
543.98	40032.52
544.15	40318.07
544.32	40383.60
544.48	40467.86
544.65	40114.44
544.82	40065.29
544.99	39938.90
545.16	40362.54
545.32	40147.21
545.49	40825.96
545.66	40699.58
545.83	40088.70
546.00	40779.15
546.16	40402.33
546.33	40629.36
546.50	40308.71
546.67	40549.78
546.83	40072.31
547.00	40580.21
547.17	40645.74
547.34	40741.71
547.50	40711.28
547.67	41368.97
547.84	40872.78
548.00	41263.64
548.17	41331.52
548.34	41163.00
548.51	41057.68
548.67	41368.97
548.84	41198.11
549.01	41181.73
549.18	40957.03
549.34	41029.59
549.51	41322.16
549.68	41221.52
549.84	41137.26
550.01	41745.80
550.18	40973.42
550.34	40837.67
550.51	41001.50
550.68	41141.94
550.84	41464.93
551.01	41420.46
551.18	41404.08
551.34	41635.79
551.51	41626.43
551.68	41502.38
551.84	41860.48
552.01	41750.48
552.18	41881.55
552.34	41453.23
552.51	42370.72
552.68	41944.74
552.84	41785.58
553.01	41972.83
553.18	41596.00
553.34	42127.30
553.51	41546.85
553.67	41926.02
553.84	42188.16
554.01	41968.15
554.17	42623.50
554.34	42270.08
554.51	42452.64
554.67	42508.81
554.84	42237.31
555.00	42167.09
555.17	42438.59
555.33	42270.08
555.50	42288.80
555.67	42300.50
555.83	42232.63
556.00	42295.82
556.16	42557.96
556.33	42572.00
556.50	42609.45
556.66	42494.77
556.83	42469.02
556.99	42546.26
557.16	42784.99
557.32	43007.34
557.49	43009.68
557.65	42485.40
557.82	42738.18
557.98	42682.01
558.15	42735.84
558.32	42590.73
558.48	42955.85
558.65	42902.02
558.81	42724.14
558.98	42841.17
559.14	43033.09
559.31	42623.50
559.47	42773.29
559.64	43037.77
559.80	43171.18
559.97	43044.79
560.13	43012.02
560.30	43014.37
560.46	43005.00
560.63	43086.92
560.79	43225.01
560.96	43051.81
561.12	43363.11
561.29	43306.93
561.45	43248.42
561.61	43367.79
561.78	43077.56
561.94	42871.59
562.11	43351.40
562.27	43140.75
562.44	43569.07
562.60	43402.89
562.77	43636.95
562.93	43674.40
563.10	43564.39
563.26	42820.10
563.42	43576.09
563.59	43325.66
563.75	43438.00
563.92	43583.12
564.08	43629.93
564.24	43814.83
564.41	43459.07
564.57	43529.28
564.74	43688.44
564.90	43665.03
565.07	43676.74
565.23	43508.22
565.39	43658.01
565.56	43269.48
565.72	43456.73
565.88	43585.46
566.05	43496.52
566.21	43697.80
566.38	43012.02
566.54	43557.37
566.70	43922.49
566.87	43985.69
567.03	44184.63
567.19	43636.95
567.36	43650.99
567.52	43772.70
567.68	44151.87
567.85	43735.25
568.01	43164.16
568.17	43419.28
568.34	43746.95
568.50	43976.33
568.66	43765.68
568.83	44062.93
568.99	43409.92
569.15	43620.56
569.32	43772.70
569.48	43402.89
569.64	43863.98
569.81	43908.45
569.97	43990.37
570.13	43957.60
570.30	43737.59
570.46	43735.25
570.62	43580.78
570.78	43416.94
570.95	43426.30
571.11	44339.11
571.27	44191.65
571.43	43765.68
571.60	44247.83
571.76	44039.52
571.92	44051.22
572.09	44100.37
572.25	43992.71
572.41	43667.37
572.57	43847.60
572.74	44191.65
572.90	43688.44
573.06	44179.95
573.22	43859.30
573.38	44121.44
573.55	43938.88
573.71	44233.78
573.87	44002.07
574.03	43597.16
574.20	43775.04
574.36	44165.91
574.52	43660.35
574.68	44053.56
574.84	44449.11
575.01	44208.04
575.17	44114.42
575.33	44116.76
575.49	43688.44
575.65	44011.43
575.82	44065.27
575.98	44095.69
576.14	44236.12
576.30	44116.76
576.46	43842.92
576.62	43952.92
576.79	44388.26
576.95	43920.15
577.11	44357.83
577.27	44053.56
577.43	43971.64
577.59	44144.84
577.75	43856.96
577.92	44301.66
578.08	43793.76
578.24	43658.01
578.40	43753.97
578.56	44203.36
578.72	44371.88
578.88	44772.11
579.04	44332.09
579.21	44100.37
579.37	44142.50
579.53	43840.57
579.69	44119.10
579.85	44299.32
580.01	44313.36
580.17	44451.45
580.33	44259.53
580.49	43981.01
580.65	44559.12
580.82	44182.29
580.98	44191.65
581.14	44486.56
581.30	44095.69
581.46	44587.21
581.62	44486.56
581.78	44018.46
581.94	44765.09
582.10	44430.39
582.26	44158.89
582.42	44406.98
582.58	44446.77
582.74	44170.59
582.90	44378.90
583.06	44341.45
583.22	44147.18
583.38	44479.54
583.54	44552.10
583.70	44371.88
583.86	44114.42
584.02	43990.37
584.18	44495.92
584.34	44617.63
584.50	44123.78
584.66	44257.19
584.82	44252.51
584.98	44353.15
585.14	44528.69
585.30	44477.20
585.46	44397.62
585.62	44406.98
585.78	44381.24
585.94	44051.22
586.10	44109.74
586.26	44079.31
586.42	44243.15
586.58	44404.64
586.74	44301.66
586.90	44165.91
587.06	44196.34
587.22	44325.07
587.38	44048.88
587.54	44758.06
587.70	45010.84
587.86	44275.91
588.02	44694.87
588.18	44451.45
588.34	43878.02
588.49	44165.91
588.65	43737.59
588.81	44055.90
588.97	44327.41
589.13	44156.55
589.29	43997.39
589.45	44257.19
589.61	44404.64
589.77	44383.58
589.93	44266.55
590.08	44697.21
590.24	44818.92
590.40	44917.22
590.56	44481.88
590.72	44814.24
590.88	44484.22
591.04	44233.78
591.20	45184.04
591.35	44659.76
591.51	45017.86
591.67	44919.56
591.83	45198.09
591.99	44903.18
592.15	44271.23
592.31	44474.86
592.46	44186.97
592.62	44582.52
592.78	44591.89
592.94	45158.30
593.10	45020.20
593.26	44994.46
593.41	44467.84
593.57	44603.59
593.73	44587.21
593.89	45003.82
594.05	44294.64
594.20	44486.56
594.36	44985.10
594.52	44741.68
594.68	44882.11
594.84	44774.45
594.99	45280.00
595.15	44720.62
595.31	44966.37
595.47	44699.55
595.62	44779.13
595.78	44823.60
595.94	45074.04
596.10	44776.79
596.25	45200.43
596.41	44886.79
596.57	44858.71
596.73	44795.51
596.88	44271.23
597.04	44912.54
597.20	44835.30
597.36	44685.51
597.51	45015.52
597.67	44376.56
597.83	44975.73
597.99	44842.32
598.14	44856.37
598.30	44783.81
598.46	44720.62
598.61	44912.54
598.77	44502.95
598.93	44744.02
599.09	44914.88
599.24	45272.98
599.40	45001.48
599.56	44491.24
599.71	44795.51
599.87	45139.57
600.03	45127.87
600.18	44917.22
600.34	44741.68
600.50	45291.71
600.65	44748.70
600.81	44659.76
600.97	45312.77
601.12	45457.88
601.28	44921.90
601.44	44533.37
601.59	44835.30
601.75	44552.10
601.91	44893.82
602.06	44626.99
602.22	44746.36
602.37	45095.10
602.53	44739.34
602.69	45352.56
602.84	44554.44
603.00	44624.65
603.16	44594.23
603.31	44027.82
603.47	44481.88
603.62	44755.72
603.78	44935.95
603.94	44746.36
604.09	45027.23
604.25	45368.94
604.40	44535.71
604.56	45249.58
604.71	45043.61
604.87	44573.16
605.03	44474.86
605.18	44727.64
605.34	44612.95
605.49	44514.65
605.65	45006.16
605.80	44847.00
605.96	44765.09
606.12	44744.02
606.27	44746.36
606.43	44879.77
606.58	44966.37
606.74	44449.11
606.89	44622.31
607.05	44655.08
607.20	44451.45
607.36	44584.86
607.51	45015.52
607.67	44945.31
607.82	44559.12
607.98	44676.15
608.13	44430.39
608.29	44575.50
608.44	44488.90
608.60	44011.43
608.75	44308.68
608.91	44332.09
609.06	44194.00
609.22	44587.21
609.37	44421.03
609.53	44093.35
609.68	44612.95
609.84	44463.16
609.99	44165.91
610.15	44617.63
610.30	44327.41
610.46	44060.58
610.61	44156.55
610.76	44135.48
610.92	44292.30
611.07	44179.95
611.23	44058.24
611.38	44423.37
611.54	44278.25
611.69	44067.61
611.84	43999.73
612.00	44388.26
612.15	44231.44
612.31	43941.22
612.46	43938.88
612.62	44175.27
612.77	44156.55
612.92	43845.26
613.08	44088.67
613.23	44037.18
613.39	44020.80
613.54	43339.70
613.69	44062.93
613.85	43716.53
614.00	44004.41
614.15	44655.08
614.31	43875.68
614.46	44229.10
614.62	43866.32
614.77	44013.77
614.92	43702.48
615.08	43779.72
615.23	43562.05
615.38	43449.70
615.54	43545.67
615.69	43863.98
615.84	43445.02
616.00	43426.30
616.15	43559.71
616.30	43683.76
616.46	43419.28
616.61	43255.44
616.76	43470.77
616.92	43110.33
617.07	43576.09
617.22	43503.54
617.37	43030.75
617.53	43704.82
617.68	43487.15
617.83	43962.28
617.99	43665.03
618.14	43784.40
618.29	43115.01
618.45	42895.00
618.60	43171.18
618.75	43723.55
618.90	43526.94
619.06	43225.01
619.21	43229.69
619.36	43229.69
619.51	43475.45
619.67	43180.54
619.82	42988.62
619.97	43285.87
620.12	42623.50
620.28	42646.90
620.43	42780.31
620.58	42754.57
620.73	43210.97
620.89	43033.09
621.04	43311.61
621.19	43337.36
621.34	42766.27
621.49	42937.13
621.65	42595.41
621.80	42913.72
621.95	42770.95
622.10	42724.14
622.25	42855.21
622.41	42284.12
622.56	42529.87
622.71	42579.03
622.86	42522.85
623.01	42747.54
623.16	42766.27
623.32	42827.12
623.47	42621.16
623.62	42646.90
623.77	42602.43
623.92	42410.51
624.07	42438.59
624.23	42384.76
624.38	42274.76
624.53	42171.77
624.68	42616.47
624.83	42450.30
624.98	42061.77
625.13	42019.64
625.29	42190.50
625.44	42412.85
625.59	42103.90
625.74	42043.04
625.89	41727.07
626.04	41666.22
626.19	41991.55
626.34	42096.88
626.49	41895.59
626.65	42050.06
626.80	41778.56
626.95	42197.52
627.10	41734.09
627.25	41698.98
627.40	41811.33
627.55	41556.21
627.70	41729.41
627.85	41839.42
628.00	41535.15
628.15	41996.23
628.30	41820.69
628.45	41904.95
628.60	41673.24
628.76	41883.89
628.91	41652.17
629.06	41504.72
629.21	41448.55
629.36	41394.71
629.51	41179.39
629.66	41067.04
629.81	41193.43
629.96	41544.51
630.11	41535.15
630.26	41074.06
630.41	41694.30
630.56	40931.29
630.71	41151.30
630.86	41172.36
631.01	41516.42
631.16	41436.84
631.31	41265.99
631.46	40907.88
631.61	40947.67
631.76	41631.11
631.91	41015.55
632.06	40842.35
632.21	40996.82
632.36	41401.74
632.51	40739.36
632.66	40769.79
632.81	40182.32
632.96	40690.21
633.10	40282.96
633.25	40605.95
633.40	40706.60
633.55	41177.04
633.70	41191.09
633.85	40842.35
634.00	40748.73
634.15	40699.58
634.30	40858.73
634.45	40776.81
634.60	40292.32
634.75	40858.73
634.90	40142.53
635.05	40554.46
635.19	40765.11
635.34	40832.99
635.49	40231.47
635.64	39915.50
635.79	40325.09
635.94	40245.51
636.09	40470.20
636.24	40250.19
636.39	40411.69
636.53	40095.72
636.68	40058.27
636.83	40079.33
636.98	40327.43
637.13	40144.87
637.28	40701.92
637.43	39988.05
637.57	40371.90
637.72	40311.05
637.87	40282.96
638.02	39856.98
638.17	39931.88
638.32	40011.46
638.46	39690.80
638.61	39695.49
638.76	39791.45
638.91	40229.13
639.06	40161.25
639.20	39679.10
639.35	40058.27
639.50	39880.39
639.65	40404.67
639.80	40332.11
639.94	39536.33
640.09	39475.48
640.24	39297.59
640.39	39243.76
640.54	39349.09
640.68	39232.06
640.83	39627.61
640.98	39697.83
641.13	39550.37
641.27	39945.92
641.42	39428.66
641.57	39592.50
641.72	39274.19
641.86	39068.22
642.01	39126.74
642.16	39398.24
642.31	38932.47
642.45	39145.46
642.60	39033.11
642.75	39035.45
642.90	39269.51
643.04	39330.36
643.19	39592.50
643.34	39035.45
643.48	39398.24
643.63	38986.30
643.78	38883.32
643.93	38902.04
644.07	38850.55
644.22	38838.85
644.37	38820.13
644.51	38660.97
644.66	38794.38
644.81	39021.41
644.95	39171.21
645.10	38822.47
645.25	39515.26
645.39	38983.96
645.54	39459.09
645.69	38728.84
645.83	38469.04
645.98	38925.45
646.13	38768.63
646.27	38974.60
646.42	38621.18
646.57	38660.97
646.71	38597.77
646.86	38522.88
647.00	38981.62
647.15	38429.26
647.30	38906.73
647.44	38752.25
647.59	38550.96
647.74	38553.30
647.88	38429.26
648.03	38026.68
648.17	38113.28
648.32	38237.33
648.47	38312.23
648.61	38136.69
648.76	38513.52
648.90	37947.11
649.05	38204.56
649.20	38188.18
649.34	38600.12
649.49	37862.85
649.63	38349.68
649.78	37989.24
649.92	38045.41
650.07	38419.89
650.21	37916.68
650.36	38263.08
650.51	38178.82
650.65	38312.23
650.80	38312.23
650.94	38962.90
651.09	38265.42
651.23	37804.33
651.38	37701.35
651.52	37521.13
651.67	37867.53
651.81	37986.89
651.96	37586.66
652.10	37750.50
652.25	37790.29
652.39	37046.00
652.54	37408.78
652.68	37661.56
652.83	37549.21
652.97	37951.79
653.12	37680.28
653.26	37530.49
653.41	37844.12
653.55	37617.09
653.70	37619.43
653.84	37294.10
653.99	37446.23
654.13	37495.38
654.27	37701.35
654.42	37546.87
654.56	37221.54
654.71	37537.51
654.85	37818.38
655.00	36734.71
655.14	37270.69
655.29	37177.07
655.43	37092.81
655.57	36594.28
655.72	36301.71
655.86	36704.28
656.01	36746.41
656.15	36669.17
656.30	37148.98
656.44	37102.17
656.58	36594.28
656.73	36636.41
656.87	36814.29
657.01	36500.65
657.16	36605.98
657.30	36580.23
657.45	36325.11
657.59	36428.10
657.73	36271.28
657.88	36999.19
658.02	36776.84
658.16	36528.74
658.31	36919.61
658.45	36877.48
658.60	36428.10
658.74	36538.10
658.88	36566.19
659.03	36481.93
659.17	36013.82
659.31	36163.62
659.46	36149.57
659.60	36224.47
659.74	35807.86
659.89	36037.23
660.03	36023.19
660.17	35967.01
660.32	35704.87
660.46	35934.24
660.60	36180.00
660.74	36453.84
660.89	36135.53
661.03	35695.51
661.17	35849.99
661.32	35213.36
661.46	35810.20
661.60	35419.33
661.74	35482.52
661.89	35534.01
662.03	35737.64
662.17	35072.93
662.31	35428.69
662.46	35763.39
662.60	35124.42
662.74	35063.57
662.88	34892.71
663.03	34810.79
663.17	35000.37
663.31	35089.31
663.45	35159.53
663.60	34983.99
663.74	34565.03
663.88	34906.75
664.02	34682.06
664.17	34897.39
664.31	34778.02
664.45	34588.44
664.59	34696.10
664.73	34419.92
664.88	34623.54
665.02	34003.30
665.16	34129.69
665.30	34190.55
665.44	34300.55
665.59	33895.64
665.73	33851.17
665.87	33631.16
666.01	34197.57
666.15	34157.78
666.29	33813.72
666.44	34330.98
666.58	33720.10
666.72	33809.04
666.86	34092.24
667.00	33919.04
667.14	33844.15
667.28	33603.07
667.43	33319.87
667.57	33200.50
667.71	33474.34
667.85	33439.23
667.99	33378.38
668.13	32786.22
668.27	33603.07
668.41	33441.57
668.56	33256.67
668.70	33153.69
668.84	33230.93
668.98	32999.21
669.12	33090.49
669.26	33008.58
669.40	32678.56
669.54	32772.18
669.68	32973.47
669.82	32863.46
669.96	32844.74
670.10	32622.39
670.25	32648.13
670.39	32601.32
670.53	32144.92
670.67	32205.77
670.81	32669.20
670.95	32500.68
671.09	32811.97
671.23	32545.15
671.37	32367.27
671.51	32393.01
671.65	31903.84
671.79	31896.82
671.93	31784.48
672.07	32210.45
672.21	32126.19
672.35	31283.60
672.49	31789.16
672.63	31892.14
672.77	31512.97
672.91	31470.84
673.05	31555.10
673.19	31194.66
673.33	31274.24
673.47	31108.06
673.61	31023.80
673.75	30850.60
673.89	31143.17
674.03	30930.18
674.17	30396.54
674.31	30792.09
674.45	30782.73
674.59	30836.56
674.73	30925.50
674.87	30691.44
675.01	30696.13
675.15	30623.57
675.29	30522.93
675.43	30455.05
675.56	30525.27
675.70	30153.12
675.84	29750.55
675.98	29111.58
676.12	30066.52
676.26	30033.75
676.40	29619.48
676.54	29736.51
676.68	29881.62
676.82	28680.92
676.96	29647.57
677.10	29319.89
677.23	29230.95
677.37	29259.04
677.51	29006.26
677.65	29057.75
677.79	28737.10
677.93	28489.00
678.07	28563.90
678.21	28526.45
678.34	28563.90
678.48	28362.61
678.62	28709.01
678.76	28245.58
678.90	28245.58
679.04	28364.95
679.18	28402.40
679.31	27817.27
679.45	27658.11
679.59	27606.62
679.73	27667.47
679.87	27681.52
680.00	27637.05
680.14	27304.69
680.28	27175.96
680.42	27098.72
680.56	27152.55
680.70	27311.71
680.83	26979.36
680.97	26944.25
681.11	26951.27
681.25	26536.99
681.39	26511.25
681.52	26529.97
681.66	26623.59
681.80	26717.22
681.94	26618.91
682.07	26293.58
682.21	26263.15
682.35	26459.76
682.49	26228.04
682.62	26387.20
682.76	25905.05
682.90	25921.43
683.04	25876.96
683.17	25668.66
683.31	25572.69
683.45	25696.74
683.59	25621.84
683.72	24898.62
683.86	25048.41
684.00	24746.48
684.13	25111.61
684.27	25158.42
684.41	25032.03
684.55	24891.60
684.68	24751.17
684.82	24570.94
684.96	24259.65
685.09	24552.22
685.23	24240.93
685.37	24493.71
685.50	24357.96
685.64	24334.55
685.78	24166.03
685.91	24194.12
686.05	23878.15
686.19	23552.81
686.32	23817.29
686.46	23683.88
686.60	23630.05
686.73	23410.04
686.87	23307.05
687.01	23218.11
687.14	23248.54
687.28	23016.83
687.42	23119.81
687.55	23019.17
687.69	22757.03
687.82	22600.21
687.96	22686.81
688.10	22710.22
688.23	22511.27
688.37	22251.47
688.50	22342.75
688.64	22223.39
688.78	22363.82
688.91	21982.31
689.05	21977.63
689.18	22279.56
689.32	21411.22
689.46	22104.02
689.59	21968.27
689.73	22101.68
689.86	21516.54
690.00	21319.94
690.13	21507.18
690.27	21495.48
690.41	21483.78
690.54	21200.57
690.68	20872.90
690.81	20732.47
690.95	21181.85
691.08	20872.90
691.22	21064.82
691.35	20823.75
691.49	20706.72
691.62	20634.16
691.76	20683.31
691.89	20636.50
692.03	20465.64
692.16	20205.84
692.30	20060.73
692.43	20032.65
692.57	19894.55
692.70	20025.62
692.84	19983.49
692.97	19838.38
693.11	19690.93
693.24	19627.73
693.38	19438.15
693.51	19576.24
693.65	19590.28
693.78	19447.51
693.92	19403.04
694.05	19150.26
694.19	19330.48
694.32	18794.50
694.45	18899.83
694.59	18895.14
694.72	19033.24
694.86	19040.26
694.99	18527.68
695.13	18523.00
695.26	18345.12
695.39	18494.91
695.53	18029.15
695.66	18167.24
695.80	17984.68
695.93	17989.36
696.07	18148.51
696.20	18017.44
696.33	17839.56
696.47	17809.14
696.60	18087.66
696.73	18019.78
696.87	17345.71
697.00	17771.69
697.14	17448.69
697.27	17680.41
697.40	17135.06
697.54	17214.64
697.67	17378.48
697.80	17177.19
697.94	17216.98
698.07	17137.40
698.21	16943.14
698.34	16999.31
698.47	16690.36
698.61	16201.19
698.74	16472.69
698.87	16636.53
699.01	16032.67
699.14	16093.52
699.27	16362.69
699.40	16187.14
699.54	15744.78
699.67	15955.43
699.80	16079.48
699.94	16077.14
700.07	15864.15
700.20	15840.75
700.34	15822.02
700.47	15829.04
700.60	15892.24
700.73	15452.22
700.87	15632.44
701.00	15487.32
701.13	15459.24
701.26	15264.97
701.40	15288.38
701.53	15356.25
701.66	15136.24
701.79	15119.86
701.93	14860.06
702.06	14843.68
702.19	14670.48
702.32	14801.55
702.46	14644.73
702.59	14382.59
702.72	14824.95
702.85	14532.39
702.99	14719.63
703.12	14637.71
703.25	14504.30
703.38	14581.54
703.51	14207.05
703.65	14237.48
703.78	14139.18
703.91	13900.44
704.04	13853.63
704.17	13806.82
704.31	13799.80
704.44	13481.49
704.57	13619.58
704.70	13603.19
704.83	13373.82
704.96	13727.24
705.10	13600.85
705.23	13551.70
>>>>>End Processed Spectral Data<<<<<
