SpectraSuite Data File
++++++++++++++++++++++++++++++++++++
Date: Fri Oct 25 10:48:23 EDT 2013
User: price-jones
Dark Spectrum Present: No
Reference Spectrum Present: No
Number of Sampled Component Spectra: 1
Spectrometers: USB2+H05261
Integration Time (usec): 100000 (USB2+H05261)
Spectra Averaged: 1 (USB2+H05261)
Boxcar Smoothing: 0 (USB2+H05261)
Correct for Electrical Dark: No (USB2+H05261)
Strobe/Lamp Enabled: No (USB2+H05261)
Correct for Detector Non-linearity: No (USB2+H05261)
Correct for Stray Light: No (USB2+H05261)
Number of Pixels in Processed Spectrum: 2048
>>>>>Begin Processed Spectral Data<<<<<
365.73	145.11
365.92	145.11
366.12	145.11
366.32	65.54
366.52	28.09
366.72	67.88
366.91	0.00
367.11	21.06
367.31	2.34
367.51	46.81
367.70	18.72
367.90	58.51
368.10	88.94
368.30	21.06
368.49	9.36
368.69	4.68
368.89	35.11
369.09	37.45
369.28	142.77
369.48	25.75
369.68	95.96
369.87	53.83
370.07	133.41
370.27	135.75
370.47	227.03
370.66	414.27
370.86	489.17
371.06	465.77
371.25	514.92
371.45	430.66
371.65	557.05
371.84	479.81
372.04	437.68
372.24	505.56
372.44	514.92
372.63	571.09
372.83	620.24
373.03	510.24
373.22	496.19
373.42	582.79
373.62	484.49
373.81	582.79
374.01	594.50
374.21	624.92
374.40	585.13
374.60	566.41
374.79	547.69
374.99	596.84
375.19	561.73
375.38	580.45
375.58	699.82
375.78	685.78
375.97	645.99
376.17	648.33
376.37	603.86
376.56	596.84
376.76	596.84
376.95	653.01
377.15	634.29
377.35	695.14
377.54	631.94
377.74	585.13
377.93	578.11
378.13	706.84
378.33	753.65
378.52	699.82
378.72	711.52
378.91	683.44
379.11	653.01
379.31	713.86
379.50	657.69
379.70	760.67
379.89	667.05
380.09	650.67
380.28	725.57
380.48	739.61
380.68	629.60
380.87	737.27
381.07	744.29
381.26	734.93
381.46	713.86
381.65	739.61
381.85	697.48
382.04	603.86
382.24	737.27
382.43	662.37
382.63	788.76
382.83	692.80
383.02	648.33
383.22	807.48
383.41	751.31
383.61	716.20
383.80	830.89
384.00	823.87
384.19	823.87
384.39	805.14
384.58	784.08
384.78	793.44
384.97	800.46
385.17	882.38
385.36	863.66
385.56	851.96
385.75	833.23
385.95	800.46
386.14	924.51
386.34	805.14
386.53	774.72
386.72	772.38
386.92	882.38
387.11	891.74
387.31	844.93
387.50	877.70
387.70	861.32
387.89	901.11
388.09	877.70
388.28	858.98
388.48	919.83
388.67	947.92
388.86	894.08
389.06	961.96
389.25	980.68
389.45	1020.47
389.64	936.21
389.84	994.73
390.03	959.62
390.22	964.30
390.42	1109.41
390.61	985.37
390.81	1078.99
391.00	1055.58
391.19	1081.33
391.39	999.41
391.58	964.30
391.78	1076.65
391.97	1076.65
392.16	1071.97
392.36	1060.26
392.55	1090.69
392.75	1067.28
392.94	964.30
393.13	992.39
393.33	952.60
393.52	978.34
393.71	1074.31
393.91	1050.90
394.10	1125.80
394.29	1104.73
394.49	1228.78
394.68	1146.86
394.88	1261.55
395.07	1242.82
395.26	1254.53
395.46	1219.42
395.65	1177.29
395.84	1268.57
396.04	1179.63
396.23	1196.01
396.42	1184.31
396.62	1177.29
396.81	1268.57
397.00	1214.74
397.19	1256.87
397.39	1334.11
397.58	1336.45
397.77	1289.64
397.97	1341.13
398.16	1406.66
398.35	1378.58
398.55	1453.47
398.74	1476.88
398.93	1476.88
399.12	1533.05
399.32	1394.96
399.51	1458.15
399.70	1598.59
399.90	1570.50
400.09	1565.82
400.28	1703.91
400.47	1540.07
400.67	1682.85
400.86	1668.80
401.05	1680.50
401.24	1626.67
401.44	1617.31
401.63	1734.34
401.82	1764.76
402.01	1654.76
402.21	1736.68
402.40	1727.32
402.59	1741.36
402.78	1741.36
402.97	1715.61
403.17	1760.08
403.36	1891.15
403.55	1682.85
403.74	1703.91
403.93	1717.95
404.13	1933.28
404.32	1827.96
404.51	1839.66
404.70	1881.79
404.89	1921.58
405.09	1959.03
405.28	1900.52
405.47	1811.57
405.66	1834.98
405.85	1952.01
406.05	1952.01
406.24	1902.86
406.43	2136.91
406.62	2003.50
406.81	2167.34
407.00	2146.27
407.20	2069.03
407.39	2050.31
407.58	2038.61
407.77	2148.61
407.96	2083.08
408.15	2122.87
408.34	2143.93
408.54	2209.47
408.73	2225.85
408.92	2181.38
409.11	2314.79
409.30	2270.32
409.49	2258.62
409.68	2270.32
409.87	2286.70
410.07	2377.98
410.26	2361.60
410.45	2321.81
410.64	2431.82
410.83	2516.08
411.02	2476.29
411.21	2497.35
411.40	2551.18
411.59	2590.97
411.78	2546.50
411.98	2483.31
412.17	2544.16
412.36	2649.49
412.55	2628.42
412.74	2796.94
412.93	2642.46
413.12	2640.12
413.31	2834.39
413.50	2752.47
413.69	2780.56
413.88	2911.63
414.07	2981.84
414.26	2937.37
414.45	2874.18
414.64	2909.29
414.83	2946.73
415.02	2970.14
415.22	3052.06
415.41	3166.74
415.60	3103.55
415.79	3218.24
415.98	3274.41
416.17	3110.57
416.36	3173.77
416.55	3215.90
416.74	3241.64
416.93	3164.40
417.12	3229.94
417.31	3269.73
417.50	3272.07
417.69	3382.07
417.88	3361.01
418.07	3480.38
418.26	3445.27
418.45	3466.33
418.64	3459.31
418.83	3527.19
419.02	3499.10
419.21	3452.29
419.39	3522.51
419.58	3473.36
419.77	3456.97
419.96	3602.08
420.15	3667.62
420.34	3681.66
420.53	3695.71
420.72	3758.90
420.91	3894.65
421.10	3763.58
421.29	3712.09
421.48	3840.82
421.67	3751.88
421.86	3782.31
422.05	3810.39
422.24	3707.41
422.43	3754.22
422.61	3777.62
422.80	3901.67
422.99	3878.27
423.18	4014.02
423.37	3953.16
423.56	3899.33
423.75	3911.04
423.94	4074.87
424.13	3597.40
424.32	3735.50
424.50	3868.91
424.69	4009.34
424.88	3967.21
425.07	3955.51
425.26	3721.45
425.45	3838.48
425.64	3889.97
425.83	4030.40
426.01	3904.01
426.20	3875.93
426.39	3896.99
426.58	3985.93
426.77	3915.72
426.96	4079.55
427.15	4147.43
427.33	4018.70
427.52	3948.48
427.71	3946.14
427.90	4081.89
428.09	4016.36
428.28	4257.43
428.46	4025.72
428.65	4126.36
428.84	4262.12
429.03	4166.15
429.22	4007.00
429.40	4067.85
429.59	4219.99
429.78	3971.89
429.97	3824.44
430.16	4051.47
430.34	4269.14
430.53	4191.90
430.72	4245.73
430.91	4219.99
431.10	4255.09
431.28	4376.80
431.47	4620.22
431.66	4631.92
431.85	4355.74
432.03	4606.17
432.22	4685.75
432.41	4519.57
432.60	4571.07
432.79	4650.64
432.97	4695.11
433.16	4718.52
433.35	4807.46
433.54	4592.13
433.72	4575.75
433.91	4615.54
434.10	4807.46
434.28	4674.05
434.47	4688.09
434.66	5022.79
434.85	4887.04
435.03	4837.89
435.22	4887.04
435.41	4865.97
435.59	5029.81
435.78	4957.25
435.97	5036.83
436.16	5013.43
436.34	4985.34
436.53	5088.32
436.72	5144.50
436.90	5001.72
437.09	5165.56
437.28	4891.72
437.46	5046.20
437.65	5167.90
437.84	5055.56
438.02	5195.99
438.21	5090.67
438.40	5062.58
438.58	5336.42
438.77	5233.44
438.96	5329.40
439.14	5605.58
439.33	5533.03
439.52	5621.97
439.70	5554.09
439.89	5734.31
440.08	5497.92
440.26	5692.18
440.45	5631.33
440.63	5631.33
440.82	5867.72
441.01	5849.00
441.19	5956.66
441.38	6012.84
441.57	6047.94
441.75	6085.39
441.94	6235.19
442.12	6113.48
442.31	6485.62
442.50	6235.19
442.68	6174.33
442.87	6202.42
443.05	6296.04
443.24	6324.13
443.43	6408.39
443.61	6384.98
443.80	6312.42
443.98	6392.00
444.17	6207.10
444.35	6490.31
444.54	6537.12
444.73	6410.73
444.91	6291.36
445.10	6466.90
445.28	6443.49
445.47	6300.72
445.65	6534.78
445.84	6441.15
446.02	6656.48
446.21	6480.94
446.39	6408.39
446.58	6497.33
446.77	6614.35
446.95	6457.54
447.14	6698.61
447.32	6656.48
447.51	6604.99
447.69	6626.06
447.88	6466.90
448.06	6546.48
448.25	6504.35
448.43	6738.40
448.62	6663.51
448.80	6689.25
448.99	6729.04
449.17	6743.08
449.36	6715.00
449.54	6958.41
449.73	6974.80
449.91	7061.40
450.10	7129.27
450.28	7124.59
450.46	7028.63
450.65	7101.19
450.83	7136.29
451.02	7016.93
451.20	7171.40
451.39	7073.10
451.57	7169.06
451.76	7211.19
451.94	7059.06
452.13	7126.93
452.31	6991.18
452.49	6988.84
452.68	7190.13
452.86	7054.37
453.05	7122.25
453.23	7286.09
453.42	7183.10
453.60	7241.62
453.78	7269.70
453.97	7316.51
454.15	7342.26
454.34	7276.73
454.52	7527.16
454.70	7433.54
454.89	7611.42
455.07	7566.95
455.26	7508.44
455.44	7531.84
455.62	7669.94
455.81	7705.04
455.99	7679.30
456.17	7789.30
456.36	7772.92
456.54	7749.51
456.73	7779.94
456.91	8077.19
457.09	8049.10
457.28	8280.82
457.46	7908.67
457.64	7990.59
457.83	8098.25
458.01	7772.92
458.19	8072.51
458.38	8102.93
458.56	8133.36
458.74	8252.73
458.93	8046.76
459.11	8234.00
459.29	8344.01
459.48	8393.16
459.66	8241.03
459.84	8212.94
460.03	8304.22
460.21	8334.65
460.39	8451.67
460.57	8140.38
460.76	8367.42
460.94	8554.66
461.12	8524.23
461.31	8458.70
461.49	8486.78
461.67	8496.14
461.85	8816.80
462.04	8557.00
462.22	8856.59
462.40	8961.91
462.59	8879.99
462.77	8692.75
462.95	8667.00
463.13	8837.86
463.32	8755.94
463.50	8851.91
463.68	8917.44
463.86	8982.98
464.05	8879.99
464.23	8765.31
464.41	9057.87
464.59	8765.31
464.78	9062.55
464.96	9163.20
465.14	8734.88
465.32	9081.28
465.50	9186.60
465.69	9439.38
465.87	9104.68
466.05	9137.45
466.23	8957.23
466.41	9071.92
466.60	9336.40
466.78	8992.34
466.96	9308.31
467.14	9200.65
467.32	9259.16
467.51	9565.77
467.69	9057.87
467.87	9373.85
468.05	9359.80
468.23	9242.78
468.41	9483.85
468.60	9254.48
468.78	9483.85
468.96	9425.34
469.14	9462.79
469.32	9738.97
469.50	9301.29
469.69	9504.92
469.87	9465.13
470.05	9605.56
470.23	9685.14
470.41	9619.60
470.59	9696.84
470.77	9729.61
470.95	9884.08
471.14	10148.56
471.32	9596.20
471.50	10157.92
471.68	10127.50
471.86	10183.67
472.04	10363.89
472.22	10335.81
472.40	10122.82
472.58	10300.70
472.77	10225.80
472.95	10406.02
473.13	10698.59
473.31	10197.71
473.49	10391.98
473.67	10499.64
473.85	10478.58
474.03	10918.60
474.21	10848.38
474.39	10965.41
474.57	10977.11
474.75	11054.35
474.93	10956.05
475.12	11019.24
475.30	11066.05
475.48	11056.69
475.66	11138.61
475.84	11410.11
476.02	11290.74
476.20	11169.04
476.38	11489.69
476.56	11852.47
476.74	11576.29
476.92	11672.25
477.10	11602.04
477.28	11955.46
477.46	11950.78
477.64	12327.60
477.82	12311.22
478.00	12521.87
478.18	12332.28
478.36	12669.32
478.54	12683.36
478.72	12655.28
478.90	12819.11
479.08	13104.66
479.26	12933.80
479.44	12826.14
479.62	13013.38
479.80	13107.00
479.98	13221.69
480.16	13696.82
480.34	13310.63
480.52	13497.87
480.70	13678.09
480.88	13624.26
481.06	13607.87
481.24	13685.11
481.41	13881.72
481.59	14122.79
481.77	14031.51
481.95	14352.16
482.13	14288.97
482.31	14267.91
482.49	14789.85
482.67	14607.28
482.85	14827.29
483.03	14881.13
483.21	15105.82
483.39	15459.24
483.57	15335.19
483.74	15426.47
483.92	15403.07
484.10	15225.18
484.28	15779.89
484.46	16006.92
484.64	16304.17
484.82	15730.74
485.00	16020.97
485.18	16102.89
485.35	16346.30
485.53	16046.71
485.71	16184.80
485.89	16589.72
486.07	16430.56
486.25	16723.13
486.43	16868.24
486.61	16856.54
486.78	17048.46
486.96	17174.85
487.14	17523.59
487.32	17563.38
487.50	17668.70
487.68	18066.60
487.85	18026.81
488.03	18141.49
488.21	18274.90
488.39	18473.85
488.57	18333.42
488.75	18260.86
488.92	19110.47
489.10	19264.95
489.28	19211.12
489.46	19510.71
489.64	19491.98
489.81	19999.88
489.99	19681.56
490.17	19807.95
490.35	20173.08
490.53	20046.69
490.70	20402.45
490.88	20210.53
491.06	20800.34
491.24	20446.92
491.41	20507.77
491.59	20643.52
491.77	20767.57
491.95	20886.94
492.13	21394.84
492.30	21525.91
492.48	21694.43
492.66	21750.60
492.84	21839.54
493.01	21848.90
493.19	21593.78
493.37	22059.55
493.54	22370.84
493.72	22497.23
493.90	22312.33
494.08	22551.06
494.25	23096.41
494.43	22948.95
494.61	23276.63
494.79	23250.88
494.96	23204.07
495.14	22852.99
495.32	23571.54
495.49	23587.92
495.67	23709.63
495.85	23697.92
496.02	24402.43
496.20	24341.57
496.38	24325.19
496.55	24329.87
496.73	24746.48
496.91	24390.72
497.09	24898.62
497.26	24819.04
497.44	24624.78
497.62	25015.65
497.79	25490.77
497.97	25404.17
498.14	25324.60
498.32	25853.56
498.50	25413.54
498.67	25984.63
498.85	25624.18
499.03	26031.44
499.20	26122.72
499.38	26302.94
499.56	26356.77
499.73	26202.30
499.91	26649.34
500.08	26195.28
500.26	26120.38
500.44	26529.97
500.61	26792.11
500.79	26536.99
500.97	26951.27
501.14	26740.62
501.32	27206.39
501.49	26855.31
501.67	26890.41
501.84	27307.03
502.02	27452.14
502.20	27735.35
502.37	27735.35
502.55	27505.98
502.72	27950.68
502.90	27824.29
503.07	27969.40
503.25	28086.43
503.43	27751.73
503.60	28039.62
503.78	28137.92
503.95	27999.83
504.13	28676.24
504.30	28252.61
504.48	28533.47
504.65	28533.47
504.83	28811.99
505.01	29301.17
505.18	29149.03
505.36	29062.43
505.53	29418.19
505.71	29692.04
505.88	29827.79
506.06	29380.74
506.23	29160.73
506.41	29322.23
506.58	29366.70
506.76	29713.10
506.93	29902.68
507.11	29401.81
507.28	30277.17
507.46	29900.34
507.63	29984.60
507.81	29827.79
507.98	30096.95
508.16	30354.41
508.33	30366.11
508.50	30312.28
508.68	30976.99
508.85	30845.92
509.03	30848.26
509.20	31405.31
509.38	30881.03
509.55	31131.47
509.73	31400.63
509.90	31625.32
510.08	31182.96
510.25	31274.24
510.42	31370.20
510.60	31475.52
510.77	31800.86
510.95	31798.52
511.12	31646.38
511.30	32327.48
511.47	32142.58
511.64	32332.16
511.82	32063.00
511.99	32098.11
512.17	32261.94
512.34	32208.11
512.51	32830.69
512.69	32430.46
512.86	33392.42
513.04	32741.75
513.21	33146.67
513.38	32961.76
513.56	32826.01
513.73	32657.49
513.90	33069.43
514.08	32877.51
514.25	33331.57
514.43	33455.62
514.60	32898.57
514.77	33469.66
514.95	33677.97
515.12	33727.12
515.29	33450.94
515.47	33862.87
515.64	33844.15
515.81	33542.22
515.99	33717.76
516.16	33383.06
516.33	33530.51
516.51	33998.62
516.68	33331.57
516.85	33123.26
517.03	33373.70
517.20	33818.40
517.37	34036.07
517.54	34291.19
517.72	34281.83
517.89	34403.53
518.06	34242.04
518.24	33940.11
518.41	34312.25
518.58	34330.98
518.75	34361.40
518.93	34705.46
519.10	34525.24
519.27	34974.63
519.45	35363.15
519.62	35421.67
519.79	35330.39
519.96	35723.60
520.14	35473.16
520.31	35302.30
520.48	35220.38
520.65	35435.71
520.83	35557.42
521.00	35538.69
521.17	35929.56
521.34	36210.43
521.52	35833.60
521.69	36381.29
521.86	36442.14
522.03	36187.02
522.20	36428.10
522.38	36507.68
522.55	36409.37
522.72	36051.27
522.89	36198.73
523.07	36517.04
523.24	36107.44
523.41	36825.99
523.58	36151.91
523.75	37212.18
523.92	37083.45
524.10	37235.58
524.27	37392.40
524.44	37610.07
524.61	37558.58
524.78	37497.72
524.96	37546.87
525.13	37542.19
525.30	38103.92
525.47	38143.71
525.64	37441.55
525.81	37406.44
525.98	37404.10
526.16	37221.54
526.33	37844.12
526.50	37921.36
526.67	37291.76
526.84	37516.45
527.01	37263.67
527.18	38148.39
527.36	38103.92
527.53	38518.20
527.70	38396.49
527.87	38279.46
528.04	37993.92
528.21	38333.29
528.38	38082.86
528.55	38504.15
528.72	38913.75
528.89	38817.78
529.07	39208.65
529.24	39026.09
529.41	39061.20
529.58	38705.44
529.75	38770.97
529.92	39194.61
530.09	39260.15
530.26	39124.40
530.43	39423.98
530.60	38939.49
530.77	39285.89
530.94	39510.58
531.11	39131.42
531.28	39290.57
531.46	39419.30
531.63	40107.42
531.80	39421.64
531.97	39791.45
532.14	39653.36
532.31	39164.18
532.48	39625.27
532.65	39601.86
532.82	39442.71
532.99	39779.74
533.16	40072.31
533.33	39941.24
533.50	39885.07
533.67	40076.99
533.84	39957.63
534.01	39526.97
534.18	40278.28
534.35	40552.12
534.52	40282.96
534.69	40119.12
534.86	40800.22
535.03	40718.30
535.20	40872.78
535.37	41273.01
535.54	40952.35
535.71	40416.37
535.88	40886.82
536.05	40673.83
536.22	40596.59
536.38	40769.79
536.55	41001.50
536.72	40568.51
536.89	40655.11
537.06	40924.27
537.23	41132.57
537.40	40706.60
537.57	40912.56
537.74	40898.52
537.91	41816.01
538.08	41663.88
538.25	41151.30
538.42	41371.31
538.59	41354.93
538.75	40910.22
538.92	40641.06
539.09	41502.38
539.26	41645.15
539.43	41277.69
539.60	41460.25
539.77	41443.87
539.94	41846.44
540.11	41560.89
540.28	41504.72
540.44	41647.49
540.61	41546.85
540.78	41500.04
540.95	41738.77
541.12	41640.47
541.29	41724.73
541.46	41696.64
541.62	41535.15
541.79	42181.13
541.96	42277.10
542.13	41736.43
542.30	42188.16
542.47	42141.35
542.63	41771.54
542.80	42724.14
542.97	42841.17
543.14	43056.50
543.31	43002.66
543.48	42719.46
543.64	43208.63
543.81	43136.07
543.98	43122.03
544.15	42597.75
544.32	43201.61
544.48	43227.35
544.65	43239.06
544.82	43133.73
544.99	42721.80
545.16	43236.72
545.32	42997.98
545.49	43435.66
545.66	42983.94
545.83	43084.58
546.00	43606.52
546.16	43461.41
546.33	43274.16
546.50	42859.89
546.67	43438.00
546.83	42852.87
547.00	43306.93
547.17	43704.82
547.34	43276.51
547.50	43957.60
547.67	43742.27
547.84	43770.36
548.00	43871.00
548.17	43854.62
548.34	44189.31
548.51	44163.57
548.67	43894.41
548.84	44172.93
549.01	43985.69
549.18	43889.73
549.34	44126.12
549.51	43964.62
549.68	44100.37
549.84	44037.18
550.01	44755.72
550.18	43948.24
550.34	44011.43
550.51	44062.93
550.68	44229.10
550.84	44011.43
551.01	44020.80
551.18	44013.77
551.34	44098.03
551.51	43903.77
551.68	44428.05
551.84	44439.75
552.01	44542.74
552.18	44032.50
552.34	44083.99
552.51	44491.24
552.68	44315.70
552.84	44648.06
553.01	44800.19
553.18	44442.09
553.34	44371.88
553.51	44439.75
553.67	44643.38
553.84	44713.59
554.01	44947.65
554.17	44931.26
554.34	44917.22
554.51	45202.77
554.67	45067.02
554.84	44947.65
555.00	44821.26
555.17	45029.57
555.33	45127.87
555.50	45092.76
555.67	44652.74
555.83	44940.63
556.00	45406.39
556.16	45471.93
556.33	45521.08
556.50	45357.24
556.66	45214.47
556.83	45130.21
556.99	45242.56
557.16	45422.78
557.32	45413.41
557.49	45745.77
557.65	45174.68
557.82	44877.43
557.98	45127.87
558.15	45490.65
558.32	45010.84
558.48	45191.06
558.65	45034.25
558.81	45146.59
558.98	45177.02
559.14	45366.60
559.31	45109.14
559.47	45523.42
559.64	45638.11
559.80	45858.12
559.97	45832.37
560.13	45188.72
560.30	45359.58
560.46	45216.81
560.63	45940.04
560.79	45846.41
560.96	45705.98
561.12	45516.40
561.29	45659.17
561.45	45750.45
561.61	45549.17
561.78	45116.17
561.94	45289.37
562.11	45968.12
562.27	45188.72
562.44	46010.25
562.60	46174.09
562.77	46045.36
562.93	45862.80
563.10	46230.26
563.26	45357.24
563.42	45883.86
563.59	45680.24
563.75	45773.86
563.92	45872.16
564.08	45886.20
564.24	46113.23
564.41	46314.52
564.57	46230.26
564.74	45593.64
564.90	46026.63
565.07	45783.22
565.23	46000.89
565.39	45764.49
565.56	46061.74
565.72	45982.16
565.88	46153.02
566.05	45537.46
566.21	46188.13
566.38	45902.59
566.54	46167.07
566.70	46028.98
566.87	46396.44
567.03	46010.25
567.19	46281.75
567.36	46279.41
567.52	45844.07
567.68	46138.98
567.85	45720.02
568.01	46253.67
568.17	45748.11
568.34	46342.61
568.50	46401.12
568.66	45762.15
568.83	46298.14
568.99	45975.14
569.15	46230.26
569.32	46351.97
569.48	46167.07
569.64	46632.83
569.81	45851.09
569.97	46260.69
570.13	45977.48
570.30	45645.13
570.46	46321.54
570.62	46012.59
570.78	46052.38
570.95	46274.73
571.11	46326.22
571.27	46082.81
571.43	46576.66
571.60	46534.53
571.76	45876.84
571.92	45823.01
572.09	46241.96
572.25	45904.93
572.41	46036.00
572.57	46181.11
572.74	46873.91
572.90	46492.40
573.06	46342.61
573.22	46424.53
573.38	46436.23
573.55	45914.29
573.71	46412.82
573.87	46124.94
574.03	46248.99
574.20	46410.48
574.36	46377.72
574.52	46204.52
574.68	46031.32
574.84	46471.34
575.01	46415.16
575.17	46293.46
575.33	46050.04
575.49	46469.00
575.65	46387.08
575.82	46094.51
575.98	46202.18
576.14	46813.05
576.30	46408.14
576.46	46176.43
576.62	45942.38
576.79	46017.27
576.95	46174.09
577.11	46426.87
577.27	46305.16
577.43	46553.26
577.59	46588.36
577.75	46557.94
577.92	45818.33
578.08	46162.39
578.24	45942.38
578.40	46546.23
578.56	46272.39
578.72	46571.98
578.88	46595.38
579.04	46564.96
579.21	46096.85
579.37	46005.57
579.53	46389.42
579.69	45900.25
579.85	46377.72
580.01	46698.37
580.17	46445.59
580.33	46754.54
580.49	46717.09
580.65	46665.60
580.82	46717.09
580.98	45979.82
581.14	46387.08
581.30	46469.00
581.46	46286.43
581.62	46761.56
581.78	46431.55
581.94	46885.61
582.10	46251.33
582.26	46749.86
582.42	46513.47
582.58	46803.69
582.74	46408.14
582.90	46295.80
583.06	46014.93
583.22	46679.64
583.38	46225.58
583.54	46553.26
583.70	46609.43
583.86	46295.80
584.02	46452.61
584.18	46653.90
584.34	46796.67
584.50	45942.38
584.66	46164.73
584.82	46464.32
584.98	46782.63
585.14	46368.35
585.30	46532.19
585.46	46569.64
585.62	46007.91
585.78	46326.22
585.94	46483.04
586.10	46288.77
586.26	46157.70
586.42	46155.36
586.58	46628.15
586.74	46691.35
586.90	46520.49
587.06	46122.60
587.22	46934.76
587.38	46522.83
587.54	46843.48
587.70	46450.27
587.86	46754.54
588.02	46480.70
588.18	46705.39
588.34	46443.25
588.49	46227.92
588.65	46124.94
588.81	46047.70
588.97	46216.22
589.13	46131.96
589.29	46358.99
589.45	46267.71
589.61	46017.27
589.77	46443.25
589.93	46761.56
590.08	46824.76
590.24	46497.08
590.40	46841.14
590.56	46965.19
590.72	46784.97
590.88	46726.46
591.04	46878.59
591.20	47138.39
591.35	47215.63
591.51	47327.97
591.67	47117.32
591.83	46349.63
591.99	46225.58
592.15	46494.74
592.31	47100.94
592.46	46871.57
592.62	46681.98
592.78	46403.46
592.94	46965.19
593.10	46457.29
593.26	46773.27
593.41	46885.61
593.57	46902.00
593.73	46387.08
593.89	46983.91
594.05	46705.39
594.20	46775.61
594.36	47049.45
594.52	46932.42
594.68	46869.23
594.84	46583.68
594.99	46824.76
595.15	46735.82
595.31	47042.43
595.47	46433.89
595.62	47044.77
595.78	46930.08
595.94	46972.21
596.10	47180.52
596.25	46993.28
596.41	47089.24
596.57	46464.32
596.73	47255.42
596.88	46485.38
597.04	46417.50
597.20	47061.15
597.36	46696.03
597.51	47079.88
597.67	46660.92
597.83	46843.48
597.99	47012.00
598.14	46946.47
598.30	46782.63
598.46	46213.88
598.61	46735.82
598.77	46492.40
598.93	46745.18
599.09	46557.94
599.24	47320.95
599.40	47091.58
599.56	47325.63
599.71	47136.05
599.87	46869.23
600.03	46637.51
600.18	46899.65
600.34	46927.74
600.50	46789.65
600.65	46480.70
600.81	46974.55
600.97	47199.24
601.12	47168.82
601.28	46789.65
601.44	46873.91
601.59	46925.40
601.75	46424.53
601.91	46920.72
602.06	46759.22
602.22	46777.95
602.37	46466.66
602.53	47019.02
602.69	47136.05
602.84	46796.67
603.00	46965.19
603.16	46749.86
603.31	46600.07
603.47	46787.31
603.62	46586.02
603.78	46298.14
603.94	46684.33
604.09	46965.19
604.25	46955.83
604.40	47105.62
604.56	47026.04
604.71	47107.96
604.87	46405.80
605.03	46789.65
605.18	46611.77
605.34	46677.30
605.49	46473.68
605.65	47173.50
605.80	46677.30
605.96	46827.10
606.12	46733.48
606.27	46653.90
606.43	46466.66
606.58	46761.56
606.74	46286.43
606.89	46827.10
607.05	46419.84
607.20	46700.71
607.36	46424.53
607.51	46630.49
607.67	46827.10
607.82	46684.33
607.98	46726.46
608.13	46335.59
608.29	46373.03
608.44	46078.13
608.60	45930.67
608.75	45876.84
608.91	45972.80
609.06	46316.86
609.22	46190.47
609.37	46155.36
609.53	46586.02
609.68	46569.64
609.84	46403.46
609.99	45918.97
610.15	46197.49
610.30	45874.50
610.46	46066.42
610.61	46167.07
610.76	46199.83
610.92	45970.46
611.07	46068.76
611.23	46199.83
611.38	46267.71
611.54	45846.41
611.69	45876.84
611.84	45745.77
612.00	45729.39
612.15	45717.68
612.31	45844.07
612.46	45972.80
612.62	46050.04
612.77	45729.39
612.92	46178.77
613.08	46253.67
613.23	46408.14
613.39	45916.63
613.54	45432.14
613.69	46106.21
613.85	46092.17
614.00	45825.35
614.15	45993.87
614.31	45738.75
614.46	45818.33
614.62	46012.59
614.77	46007.91
614.92	45296.39
615.08	45619.38
615.23	45593.64
615.38	45432.14
615.54	45095.10
615.69	45305.75
615.84	45085.74
616.00	45619.38
616.15	45081.06
616.30	45523.42
616.46	44954.67
616.61	45034.25
616.76	45097.44
616.92	45198.09
617.07	44856.37
617.22	44821.26
617.37	45415.76
617.53	45532.78
617.68	45064.67
617.83	45490.65
617.99	45811.31
618.14	45385.33
618.29	45382.99
618.45	45172.34
618.60	45043.61
618.75	45076.38
618.90	45031.91
619.06	45752.79
619.21	45092.76
619.36	45385.33
619.51	45118.51
619.67	45137.23
619.82	44882.11
619.97	45160.64
620.12	44582.52
620.28	44509.97
620.43	44491.24
620.58	44793.17
620.73	45085.74
620.89	44589.55
621.04	45017.86
621.19	44678.49
621.34	44781.47
621.49	44217.40
621.65	44444.43
621.80	44788.49
621.95	44477.20
622.10	44830.62
622.25	44264.21
622.41	44179.95
622.56	44116.76
622.71	44533.37
622.86	43966.96
623.01	44339.11
623.16	44491.24
623.32	44748.70
623.47	44699.55
623.62	44751.04
623.77	44081.65
623.92	44091.01
624.07	43899.09
624.23	43945.90
624.38	43807.81
624.53	43868.66
624.68	43981.01
624.83	44491.24
624.98	43765.68
625.13	44367.20
625.29	43768.02
625.44	43950.58
625.59	43763.34
625.74	43217.99
625.89	43639.29
626.04	43452.05
626.19	43313.95
626.34	43934.20
626.49	43679.08
626.65	43880.36
626.80	43849.94
626.95	43697.80
627.10	43358.42
627.25	43182.88
627.40	43482.47
627.55	42934.79
627.70	42993.30
627.85	43028.41
628.00	43201.61
628.15	43498.86
628.30	42997.98
628.45	43267.14
628.60	43407.58
628.76	42911.38
628.91	43257.78
629.06	43391.19
629.21	42880.95
629.36	42899.68
629.51	43229.69
629.66	42508.81
629.81	42993.30
629.96	43082.24
630.11	42958.19
630.26	42920.74
630.41	43152.46
630.56	42696.05
630.71	43009.68
630.86	42667.97
631.01	42763.93
631.16	42525.19
631.31	42483.06
631.46	41979.85
631.61	42801.38
631.76	42689.03
631.91	42965.21
632.06	43070.54
632.21	42464.34
632.36	43042.45
632.51	42438.59
632.66	42808.40
632.81	42403.49
632.96	42691.37
633.10	42103.90
633.25	42270.08
633.40	42450.30
633.55	42480.72
633.70	42759.25
633.85	42323.91
634.00	42143.69
634.15	41982.19
634.30	42473.70
634.45	42689.03
634.60	42234.97
634.75	42478.38
634.90	42122.62
635.05	42256.03
635.19	42295.82
635.34	42567.32
635.49	42361.36
635.64	41996.23
635.79	41743.45
635.94	41614.72
636.09	42370.72
636.24	41837.08
636.39	41947.08
636.53	41881.55
636.68	41596.00
636.83	41757.50
636.98	41663.88
637.13	41392.37
637.28	41830.05
637.43	41563.23
637.57	41991.55
637.72	41998.57
637.87	41429.82
638.02	41560.89
638.17	41808.99
638.32	41869.84
638.46	41853.46
638.61	41729.41
638.76	41076.40
638.91	41127.89
639.06	41640.47
639.20	41174.70
639.35	41755.16
639.50	41464.93
639.65	41511.74
639.80	41151.30
639.94	41544.51
640.09	41434.50
640.24	41350.24
640.39	41294.07
640.54	41315.14
640.68	40774.47
640.83	41177.04
640.98	41116.19
641.13	40865.75
641.27	40964.06
641.42	41064.70
641.57	41195.77
641.72	41015.55
641.86	40357.86
642.01	40753.41
642.16	40594.25
642.31	40610.64
642.45	41081.08
642.60	40280.62
642.75	40233.81
642.90	40282.96
643.04	40151.89
643.19	40507.65
643.34	40673.83
643.48	40053.59
643.63	40655.11
643.78	40444.46
643.93	40432.75
644.07	40512.33
644.22	40524.04
644.37	40065.29
644.51	40531.06
644.66	40226.79
644.81	40404.67
644.95	40531.06
645.10	40371.90
645.25	40231.47
645.39	40486.59
645.54	40552.12
645.69	40381.26
645.83	39999.76
645.98	40229.13
646.13	39971.67
646.27	39978.69
646.42	40460.84
646.57	39875.71
646.71	39842.94
646.86	40074.65
647.00	39765.70
647.15	40081.67
647.30	40247.85
647.44	39643.99
647.59	40011.46
647.74	40123.80
647.88	39721.23
648.03	39697.83
648.17	39496.54
648.32	39569.10
648.47	39784.43
648.61	39484.84
648.76	39845.28
648.90	39742.30
649.05	39948.26
649.20	39379.51
649.34	39871.03
649.49	39695.49
649.63	39573.78
649.78	40081.67
649.92	39173.55
650.07	39772.72
650.21	39548.03
650.36	39419.30
650.51	39112.69
650.65	39819.53
650.80	39871.03
650.94	39735.27
651.09	39255.46
651.23	38988.64
651.38	39285.89
651.52	38735.87
651.67	39108.01
651.81	39309.30
651.96	38923.11
652.10	39592.50
652.25	38696.08
652.39	38731.18
652.54	38862.26
652.68	39311.64
652.83	39323.34
652.97	39009.71
653.12	39318.66
653.26	39016.73
653.41	39042.48
653.55	38873.96
653.70	38726.50
653.84	38731.18
653.99	38845.87
654.13	38754.59
654.27	38698.42
654.42	38665.65
654.56	38738.21
654.71	39009.71
654.85	38703.10
655.00	38850.55
655.14	38579.05
655.29	38316.91
655.43	38153.07
655.57	38010.30
655.72	37965.83
655.86	37617.09
656.01	38185.84
656.15	37874.55
656.30	37996.26
656.44	37783.27
656.58	38169.46
656.73	38000.94
656.87	37818.38
657.01	37661.56
657.16	37867.53
657.30	37731.78
657.45	37748.16
657.59	37853.48
657.73	37624.11
657.88	38038.39
658.02	37830.08
658.16	38087.54
658.31	38459.68
658.45	37972.85
658.60	38183.50
658.74	37837.10
658.88	37750.50
659.03	37230.90
659.17	37710.71
659.31	37577.30
659.46	37509.43
659.60	37226.22
659.74	37347.93
659.89	36917.27
660.03	37340.91
660.17	37357.29
660.32	37397.08
660.46	37666.24
660.60	37450.91
660.74	36999.19
660.89	37411.12
661.03	36898.55
661.17	36926.63
661.32	36723.01
661.46	36788.54
661.60	36931.31
661.74	36837.69
661.89	36613.00
662.03	36889.18
662.17	36608.32
662.31	36823.65
662.46	36914.93
662.60	36781.52
662.74	36620.02
662.88	36383.63
663.03	36610.66
663.17	36226.81
663.31	36109.78
663.45	36718.32
663.60	36364.90
663.74	35840.62
663.88	36041.91
664.02	36133.19
664.17	36486.61
664.31	35562.10
664.45	35651.04
664.59	35983.40
664.73	35913.18
664.88	35667.42
665.02	35407.62
665.16	35658.06
665.30	35557.42
665.44	35608.91
665.59	35384.22
665.73	35302.30
665.87	35428.69
666.01	35119.74
666.15	35248.47
666.29	35344.43
666.44	34848.24
666.58	35395.92
666.72	35091.65
666.86	35777.43
667.00	35302.30
667.14	34878.66
667.28	34614.18
667.43	35276.55
667.57	34948.88
667.71	34993.35
667.85	34923.13
667.99	34401.19
668.13	34497.16
668.27	34342.68
668.41	34855.26
668.56	34211.61
668.70	34712.49
668.84	34389.49
668.98	34157.78
669.12	34518.22
669.26	34679.72
669.40	34260.76
669.54	33954.15
669.68	33603.07
669.82	33769.25
669.96	33570.30
670.10	33553.92
670.25	33624.14
670.39	34157.78
670.53	33736.48
670.67	33673.29
670.81	33584.35
670.95	33600.73
671.09	33387.74
671.23	33684.99
671.37	33404.13
671.51	33326.89
671.65	33223.90
671.79	32987.51
671.93	33219.22
672.07	33109.22
672.21	33270.72
672.35	32800.27
672.49	32802.61
672.63	33064.75
672.77	32418.76
672.91	32563.87
673.05	32746.44
673.19	32650.47
673.33	32613.02
673.47	32238.54
673.61	31964.70
673.75	32187.05
673.89	31828.95
674.03	31634.68
674.17	31552.76
674.31	31648.72
674.45	31660.43
674.59	31779.79
674.73	31971.72
674.87	31894.48
675.01	31639.36
675.15	31697.88
675.29	31906.18
675.43	31292.96
675.56	31789.16
675.70	30874.01
675.84	31194.66
675.98	30082.91
676.12	30892.73
676.26	30937.20
676.40	31014.44
676.54	30747.62
676.68	30766.34
676.82	30132.06
676.96	30370.79
677.10	30316.96
677.23	29944.81
677.37	30108.65
677.51	30005.67
677.65	30113.33
677.79	29788.00
677.93	29832.47
678.07	29682.67
678.21	29773.95
678.34	29392.45
678.48	29317.55
678.62	29207.55
678.76	29343.30
678.90	29156.05
679.04	29207.55
679.18	29425.22
679.31	29085.84
679.45	28800.29
679.59	28322.82
679.73	28706.67
679.87	28877.53
680.00	28662.20
680.14	28414.10
680.28	28381.34
680.42	28252.61
680.56	28339.21
680.70	27990.47
680.83	27995.15
680.97	27681.52
681.11	27735.35
681.25	27695.56
681.39	27571.51
681.52	27779.82
681.66	27510.66
681.80	27637.05
681.94	27653.43
682.07	27318.73
682.21	27241.50
682.35	27070.64
682.49	26984.04
682.62	27101.06
682.76	26658.70
682.90	26714.87
683.04	27051.91
683.17	26757.00
683.31	26745.30
683.45	26532.31
683.59	25771.64
683.72	26546.36
683.86	25778.66
684.00	25888.67
684.13	26096.97
684.27	26225.70
684.41	26019.74
684.55	25806.75
684.68	25710.78
684.82	25528.22
684.96	25773.98
685.09	25151.40
685.23	25277.79
685.37	24954.79
685.50	25020.33
685.64	25179.48
685.78	24870.53
685.91	24978.20
686.05	24676.27
686.19	24374.34
686.32	25076.50
686.46	24318.17
686.60	24006.87
686.73	24081.77
686.87	23697.92
687.01	23639.41
687.14	23700.26
687.28	23323.44
687.42	23541.11
687.55	23503.66
687.69	23646.43
687.82	23293.01
687.96	23119.81
688.10	23285.99
688.23	22939.59
688.37	22869.37
688.50	23033.21
688.64	22787.46
688.78	22499.57
688.91	22864.69
689.05	22899.80
689.18	22527.66
689.32	22436.38
689.46	22434.03
689.59	22803.84
689.73	22508.93
689.86	22270.20
690.00	22473.82
690.13	22312.33
690.27	22223.39
690.41	21872.31
690.54	21596.12
690.68	21813.79
690.81	21572.72
690.95	21563.36
691.08	21472.07
691.22	21462.71
691.35	21343.35
691.49	21467.39
691.62	21399.52
691.76	21451.01
691.89	21277.81
692.03	21020.35
692.16	20767.57
692.30	20601.40
692.43	20786.30
692.57	20695.02
692.70	20793.32
692.84	20467.98
692.97	20507.77
693.11	20285.42
693.24	20372.02
693.38	19800.93
693.51	20231.59
693.65	19922.64
693.78	20044.35
693.92	20088.82
694.05	19817.32
694.19	19999.88
694.32	19660.50
694.45	19484.96
694.59	19634.75
694.72	19253.25
694.86	19452.19
694.99	19016.85
695.13	18941.96
695.26	18789.82
695.39	18637.69
695.53	18895.14
695.66	18726.63
695.80	18824.93
695.93	18649.39
696.07	18817.91
696.20	18614.28
696.33	18602.58
696.47	18251.50
696.60	18300.65
696.73	18324.05
696.87	18340.44
697.00	18459.81
697.14	18022.12
697.27	17994.04
697.40	18019.78
697.54	17858.29
697.67	17745.94
697.80	17989.36
697.94	17642.96
698.07	17619.55
698.21	17439.33
698.34	17446.35
698.47	17439.33
698.61	16924.41
698.74	17085.91
698.87	17109.32
699.01	16779.30
699.14	16821.43
699.27	16917.39
699.40	16657.59
699.54	16540.57
699.67	16233.96
699.80	16568.65
699.94	16451.63
700.07	16524.18
700.20	16180.12
700.34	16095.86
700.47	16266.72
700.60	16095.86
700.73	16126.29
700.87	16004.58
701.00	15819.68
701.13	16173.10
701.26	15967.13
701.40	15758.83
701.53	15243.91
701.66	15447.54
701.79	15391.36
701.93	15330.51
702.06	15367.96
702.19	15208.80
702.32	15417.11
702.46	15262.63
702.59	15206.46
702.72	15161.99
702.85	15246.25
702.99	15323.49
703.12	14963.04
703.25	14621.33
703.38	14888.15
703.51	14656.43
703.65	14696.22
703.78	14691.54
703.91	14499.62
704.04	14504.30
704.17	14406.00
704.31	14038.53
704.44	14237.48
704.57	13893.42
704.70	14040.87
704.83	13830.23
704.96	14064.28
705.10	13998.74
705.23	13996.40
>>>>>End Processed Spectral Data<<<<<
