SpectraSuite Data File
++++++++++++++++++++++++++++++++++++
Date: Fri Oct 25 10:43:23 EDT 2013
User: price-jones
Dark Spectrum Present: No
Reference Spectrum Present: No
Number of Sampled Component Spectra: 1
Spectrometers: USB2+H05261
Integration Time (usec): 100000 (USB2+H05261)
Spectra Averaged: 1 (USB2+H05261)
Boxcar Smoothing: 0 (USB2+H05261)
Correct for Electrical Dark: No (USB2+H05261)
Strobe/Lamp Enabled: No (USB2+H05261)
Correct for Detector Non-linearity: No (USB2+H05261)
Correct for Stray Light: No (USB2+H05261)
Number of Pixels in Processed Spectrum: 2048
>>>>>Begin Processed Spectral Data<<<<<
365.73	112.35
365.92	112.35
366.12	112.35
366.32	39.79
366.52	72.56
366.72	28.09
366.91	46.81
367.11	9.36
367.31	0.00
367.51	42.13
367.70	0.00
367.90	42.13
368.10	67.88
368.30	95.96
368.49	0.00
368.69	42.13
368.89	21.06
369.09	46.81
369.28	63.19
369.48	21.06
369.68	79.58
369.87	9.36
370.07	93.62
370.27	128.73
370.47	168.52
370.66	444.70
370.86	454.06
371.06	461.09
371.25	486.83
371.45	451.72
371.65	500.87
371.84	435.34
372.04	573.43
372.24	531.30
372.44	451.72
372.63	540.66
372.83	493.85
373.03	533.64
373.22	402.57
373.42	512.58
373.62	533.64
373.81	528.96
374.01	547.69
374.21	615.56
374.40	540.66
374.60	521.94
374.79	582.79
374.99	594.50
375.19	650.67
375.38	716.20
375.58	580.45
375.78	594.50
375.97	587.47
376.17	648.33
376.37	601.52
376.56	669.39
376.76	617.90
376.95	648.33
377.15	660.03
377.35	685.78
377.54	688.12
377.74	627.26
377.93	653.01
378.13	613.22
378.33	671.73
378.52	638.97
378.72	669.39
378.91	599.18
379.11	660.03
379.31	645.99
379.50	645.99
379.70	741.95
379.89	653.01
380.09	650.67
380.28	650.67
380.48	809.83
380.68	629.60
380.87	657.69
381.07	648.33
381.26	643.65
381.46	718.54
381.65	699.82
381.85	699.82
382.04	713.86
382.24	716.20
382.43	629.60
382.63	706.84
382.83	688.12
383.02	765.36
383.22	786.42
383.41	739.61
383.61	791.10
383.80	755.99
384.00	758.33
384.19	746.63
384.39	737.27
384.58	760.67
384.78	835.57
384.97	823.87
385.17	802.80
385.36	816.85
385.56	788.76
385.75	828.55
385.95	770.04
386.14	851.96
386.34	802.80
386.53	791.10
386.72	781.74
386.92	908.13
387.11	837.91
387.31	809.83
387.50	823.87
387.70	828.55
387.89	847.27
388.09	828.55
388.28	887.06
388.48	849.61
388.67	856.64
388.86	873.02
389.06	950.26
389.25	924.51
389.45	997.07
389.64	976.00
389.84	1041.54
390.03	976.00
390.22	1048.56
390.42	1043.88
390.61	1083.67
390.81	987.71
391.00	1025.15
391.19	1118.78
391.39	1060.26
391.58	1100.05
391.78	1046.22
391.97	1041.54
392.16	1050.90
392.36	1043.88
392.55	966.64
392.75	1018.13
392.94	992.39
393.13	957.28
393.33	964.30
393.52	1008.77
393.71	1095.37
393.91	1179.63
394.10	1081.33
394.29	1142.18
394.49	1090.69
394.68	1097.71
394.88	1193.67
395.07	1296.66
395.26	1261.55
395.46	1275.59
395.65	1268.57
395.84	1207.72
396.04	1228.78
396.23	1132.82
396.42	1240.48
396.62	1188.99
396.81	1212.40
397.00	1210.06
397.19	1238.14
397.39	1362.19
397.58	1413.68
397.77	1409.00
397.97	1401.98
398.16	1444.11
398.35	1423.05
398.55	1476.88
398.74	1493.26
398.93	1526.03
399.12	1472.20
399.32	1490.92
399.51	1488.58
399.70	1589.22
399.90	1486.24
400.09	1530.71
400.28	1640.72
400.47	1682.85
400.67	1657.10
400.86	1678.16
401.05	1640.72
401.24	1715.61
401.44	1703.91
401.63	1596.25
401.82	1799.87
402.01	1732.00
402.21	1692.21
402.40	1717.95
402.59	1771.79
402.78	1834.98
402.97	1804.55
403.17	1792.85
403.36	1823.28
403.55	1867.75
403.74	1921.58
403.93	1926.26
404.13	1942.64
404.32	1874.77
404.51	1940.30
404.70	1919.24
404.89	1968.39
405.09	1977.75
405.28	2092.44
405.47	2012.86
405.66	1937.96
405.85	1970.73
406.05	1954.35
406.24	1919.24
406.43	2092.44
406.62	2085.42
406.81	2139.25
407.00	2146.27
407.20	2113.50
407.39	2038.61
407.58	2174.36
407.77	2279.68
407.96	2167.34
408.15	2251.60
408.34	2169.68
408.54	2335.85
408.73	2310.11
408.92	2303.09
409.11	2296.07
409.30	2270.32
409.49	2305.43
409.68	2239.89
409.87	2363.94
410.07	2431.82
410.26	2373.30
410.45	2448.20
410.64	2504.37
410.83	2504.37
411.02	2635.44
411.21	2579.27
411.40	2562.89
411.59	2672.89
411.78	2597.99
411.98	2651.83
412.17	2576.93
412.36	2719.70
412.55	2647.15
412.74	2705.66
412.93	2808.64
413.12	2724.38
413.31	2843.75
413.50	2789.92
413.69	2743.11
413.88	2965.46
414.07	2843.75
414.26	2815.66
414.45	2902.26
414.64	2899.92
414.83	3126.96
415.02	2984.18
415.22	3054.40
415.41	3112.91
415.60	3059.08
415.79	3288.45
415.98	3339.94
416.17	3190.15
416.36	3283.77
416.55	3290.79
416.74	3232.28
416.93	3361.01
417.12	3342.28
417.31	3304.84
417.50	3281.43
417.69	3471.01
417.88	3393.78
418.07	3449.95
418.26	3581.02
418.45	3522.51
418.64	3639.53
418.83	3538.89
419.02	3588.04
419.21	3609.11
419.39	3564.64
419.58	3515.48
419.77	3534.21
419.96	3669.96
420.15	3798.69
420.34	3756.56
420.53	3845.50
420.72	3803.37
420.91	3716.77
421.10	3761.24
421.29	3925.08
421.48	3845.50
421.67	3852.52
421.86	3854.86
422.05	3744.86
422.24	3831.46
422.43	3749.54
422.61	3932.10
422.80	3889.97
422.99	3892.31
423.18	3971.89
423.37	3927.42
423.56	3864.22
423.75	3878.27
423.94	3852.52
424.13	3700.39
424.32	3712.09
424.50	4051.47
424.69	3927.42
424.88	3908.69
425.07	3948.48
425.26	3976.57
425.45	3941.46
425.64	4011.68
425.83	3868.91
426.01	4004.66
426.20	4205.94
426.39	3992.95
426.58	3946.14
426.77	3964.87
426.96	3925.08
427.15	4124.02
427.33	4037.42
427.52	4124.02
427.71	4252.75
427.90	4212.96
428.09	4081.89
428.28	4142.75
428.46	4269.14
428.65	4273.82
428.84	4152.11
429.03	4138.07
429.22	4044.45
429.40	4187.22
429.59	4219.99
429.78	4063.17
429.97	3981.25
430.16	4002.32
430.34	4252.75
430.53	4074.87
430.72	4198.92
430.91	4248.07
431.10	4365.10
431.28	4594.47
431.47	4634.26
431.66	4655.33
431.85	4645.96
432.03	4723.20
432.22	4641.28
432.41	4692.77
432.60	4758.31
432.79	4807.46
432.97	4858.95
433.16	4699.80
433.35	4706.82
433.54	4767.67
433.72	4575.75
433.91	4770.01
434.10	4652.98
434.28	4732.56
434.47	4624.90
434.66	4929.17
434.85	4891.72
435.03	5018.11
435.22	5095.35
435.41	5053.22
435.59	5179.61
435.78	5006.41
435.97	5097.69
436.16	5170.24
436.34	5071.94
436.53	5144.50
436.72	5191.31
436.90	5146.84
437.09	5221.74
437.28	5060.24
437.46	5282.59
437.65	5104.71
437.84	5207.69
438.02	5191.31
438.21	5186.63
438.40	5142.16
438.58	5289.61
438.77	5462.81
438.96	5427.70
439.14	5474.51
439.33	5589.20
439.52	5596.22
439.70	5605.58
439.89	5694.52
440.08	5724.95
440.26	5673.46
440.45	5668.78
440.63	5902.83
440.82	5863.04
441.01	5898.15
441.19	6022.20
441.38	6188.38
441.57	6223.48
441.75	6193.06
441.94	6396.68
442.12	6361.58
442.31	6483.28
442.50	6441.15
442.68	6305.40
442.87	6513.71
443.05	6483.28
443.24	6539.46
443.43	6530.09
443.61	6464.56
443.80	6607.33
443.98	6347.53
444.17	6282.00
444.35	6579.25
444.54	6614.35
444.73	6595.63
444.91	6562.86
445.10	6459.88
445.28	6487.96
445.47	6366.26
445.65	6469.24
445.84	6504.35
446.02	6628.40
446.21	6511.37
446.39	6497.33
446.58	6633.08
446.77	6661.16
446.95	6509.03
447.14	6679.89
447.32	6918.62
447.51	6939.69
447.69	6602.65
447.88	6834.36
448.06	6729.04
448.25	6883.52
448.43	6745.42
448.62	6808.62
448.80	6738.40
448.99	7075.44
449.17	6719.68
449.36	6817.98
449.54	7052.03
449.73	6979.48
449.91	7187.79
450.10	7122.25
450.28	7330.56
450.46	7166.72
450.65	7176.08
450.83	7328.22
451.02	7098.84
451.20	7349.28
451.39	7400.77
451.57	7218.21
451.76	7293.11
451.94	7428.86
452.13	7342.26
452.31	7211.19
452.49	7138.63
452.68	7293.11
452.86	7155.02
453.05	7391.41
453.23	7534.18
453.42	7344.60
453.60	7309.49
453.78	7445.24
453.97	7410.14
454.15	7426.52
454.34	7506.10
454.52	7571.63
454.70	7492.05
454.89	7655.89
455.07	7641.85
455.26	7597.38
455.44	7786.96
455.62	7829.09
455.81	7887.61
455.99	7765.90
456.17	7936.76
456.36	7957.82
456.54	8109.96
456.73	8074.85
456.91	8145.06
457.09	8152.09
457.28	8407.20
457.46	8077.19
457.64	8219.96
457.83	8072.51
458.01	8243.37
458.19	8379.12
458.38	8252.73
458.56	8538.27
458.74	8262.09
458.93	8423.59
459.11	8215.28
459.29	8205.92
459.48	8524.23
459.66	8318.26
459.84	8400.18
460.03	8695.09
460.21	8688.07
460.39	8737.22
460.57	8557.00
460.76	8512.53
460.94	8931.48
461.12	8545.30
461.31	8842.54
461.49	8795.73
461.67	8727.86
461.85	8816.80
462.04	8882.33
462.22	9228.73
462.40	8957.23
462.59	8894.04
462.77	8922.12
462.95	9217.03
463.13	9146.81
463.32	8971.27
463.50	8975.95
463.68	8889.35
463.86	9160.86
464.05	8908.08
464.23	9071.92
464.41	9071.92
464.59	8816.80
464.78	9102.34
464.96	9111.71
465.14	8973.61
465.32	9109.36
465.50	9324.69
465.69	9303.63
465.87	9298.95
466.05	9502.58
466.23	9247.46
466.41	9252.14
466.60	9369.16
466.78	9153.84
466.96	9481.51
467.14	9425.34
467.32	9547.05
467.51	9675.77
467.69	9198.31
467.87	9413.63
468.05	9551.73
468.23	9692.16
468.41	9437.04
468.60	9387.89
468.78	9694.50
468.96	9643.01
469.14	9703.86
469.32	9980.04
469.50	9605.56
469.69	9694.50
469.87	9818.55
470.05	10054.94
470.23	9961.32
470.41	9699.18
470.59	10202.40
470.77	9879.40
470.95	9881.74
471.14	10169.63
471.32	10076.01
471.50	10473.90
471.68	10073.67
471.86	10272.61
472.04	10448.15
472.22	10534.75
472.40	10403.68
472.58	10567.52
472.77	10501.98
472.95	10867.11
473.13	10817.96
473.31	10546.45
473.49	10597.95
473.67	10630.71
473.85	10619.01
474.03	11103.50
474.21	10951.37
474.39	11197.12
474.57	11253.30
474.75	11300.11
474.93	11316.49
475.12	11096.48
475.30	11253.30
475.48	11508.41
475.66	11302.45
475.84	11267.34
476.02	11487.35
476.20	11520.12
476.38	11805.66
476.56	11988.22
476.74	12140.36
476.92	11908.65
477.10	11896.94
477.28	12238.66
477.46	12243.34
477.64	12285.47
477.82	12379.09
478.00	12374.41
478.18	12664.64
478.36	12805.07
478.54	12762.94
478.72	12945.50
478.90	13034.44
479.08	13055.51
479.26	13469.78
479.44	13296.58
479.62	13170.19
479.80	13514.25
479.98	13495.53
480.16	13664.05
480.34	13549.36
480.52	13795.12
480.70	13884.06
480.88	13839.59
481.06	14052.58
481.24	13987.04
481.41	14295.99
481.59	14253.86
481.77	14207.05
481.95	14429.40
482.13	14478.55
482.31	14370.89
482.49	14944.32
482.67	14988.79
482.85	15112.84
483.03	15047.30
483.21	15391.36
483.39	15571.58
483.57	15302.42
483.74	15405.41
483.92	15569.24
484.10	15541.16
484.28	15899.26
484.46	16086.50
484.64	16304.17
484.82	16201.19
485.00	15967.13
485.18	16615.46
485.35	16592.06
485.53	16388.43
485.71	16020.97
485.89	16716.11
486.07	16594.40
486.25	16556.95
486.43	17074.21
486.61	17034.42
486.78	17181.87
486.96	17406.56
487.14	17848.93
487.32	17757.64
487.50	17755.30
487.68	18375.55
487.85	18321.71
488.03	18590.88
488.21	18785.14
488.39	18897.49
488.57	18698.54
488.75	18869.40
488.92	19054.30
489.10	19503.68
489.28	19215.80
489.46	19845.40
489.64	19520.07
489.81	20212.87
489.99	20428.20
490.17	20386.07
490.35	20706.72
490.53	20428.20
490.70	20383.73
490.88	20599.05
491.06	20929.07
491.24	20760.55
491.41	20514.80
491.59	20833.11
491.77	20987.58
491.95	21343.35
492.13	21603.14
492.30	21823.16
492.48	21788.05
492.66	22029.12
492.84	22169.55
493.01	22071.25
493.19	21708.47
493.37	22499.57
493.54	22443.40
493.72	22642.34
493.90	22693.83
494.08	22934.91
494.25	23009.81
494.43	23037.89
494.61	23887.51
494.79	23515.36
494.96	23489.62
495.14	23630.05
495.32	23859.42
495.49	23751.76
495.67	24091.13
495.85	24226.89
496.02	24416.47
496.20	24526.47
496.38	24531.15
496.55	24517.11
496.73	25179.48
496.91	24758.19
497.09	25085.86
497.26	25511.84
497.44	25090.54
497.62	25280.13
497.79	25666.31
497.97	25493.12
498.14	25329.28
498.32	26012.71
498.50	25528.22
498.67	26185.91
498.85	25848.88
499.03	26738.28
499.20	26419.97
499.38	26382.52
499.56	26415.29
499.73	26515.93
499.91	26796.79
500.08	26855.31
500.26	26284.22
500.44	26555.72
500.61	26625.93
500.79	26642.32
500.97	26712.53
501.14	27283.62
501.32	26876.37
501.49	27276.60
501.67	27091.70
501.84	27515.34
502.02	27545.76
502.20	27590.24
502.37	27906.21
502.55	27711.94
502.72	27931.95
502.90	28283.03
503.07	27864.08
503.25	28737.10
503.43	27843.01
503.60	28154.30
503.78	27850.03
503.95	28278.35
504.13	28549.85
504.30	28631.77
504.48	29003.92
504.65	29111.58
504.83	29188.82
505.01	29261.38
505.18	29315.21
505.36	29986.94
505.53	29450.96
505.71	29717.78
505.88	29769.27
506.06	29731.83
506.23	29940.13
506.41	29743.53
506.58	29890.98
506.76	30244.40
506.93	29979.92
507.11	30251.42
507.28	30045.46
507.46	30003.33
507.63	30129.72
507.81	30326.32
507.98	30242.06
508.16	30487.82
508.33	31028.48
508.50	30803.79
508.68	30749.96
508.85	30986.35
509.03	30759.32
509.20	31428.71
509.38	31182.96
509.55	31311.69
509.73	31157.21
509.90	31339.77
510.08	31442.76
510.25	31564.46
510.42	31716.60
510.60	31477.86
510.77	32060.66
510.95	32046.62
511.12	31842.99
511.30	32334.50
511.47	32198.75
511.64	32259.60
511.82	32535.79
511.99	32446.85
512.17	32458.55
512.34	32463.23
512.51	32720.69
512.69	32989.85
512.86	32772.18
513.04	32959.42
513.21	33296.46
513.38	32957.08
513.56	32828.35
513.73	32648.13
513.90	33067.09
514.08	33041.34
514.25	33380.72
514.43	33303.48
514.60	33359.66
514.77	33518.81
514.95	33598.39
515.12	33560.94
515.29	33488.38
515.47	33921.38
515.64	34455.03
515.81	33834.78
515.99	33603.07
516.16	33785.63
516.33	33450.94
516.51	33832.44
516.68	33034.32
516.85	33174.75
517.03	33741.16
517.20	33893.30
517.37	34471.41
517.54	34597.80
517.72	34295.87
517.89	34162.46
518.06	33977.56
518.24	34487.79
518.41	34433.96
518.58	34270.12
518.75	34239.70
518.93	35040.16
519.10	34930.16
519.27	35112.72
519.45	35400.60
519.62	35253.15
519.79	35489.54
519.96	35082.29
520.14	35847.64
520.31	34885.68
520.48	35658.06
520.65	35426.35
520.83	36229.15
521.00	35934.24
521.17	35569.12
521.34	35955.31
521.52	36088.72
521.69	36081.70
521.86	36334.48
522.03	36079.36
522.20	36271.28
522.38	36203.41
522.55	36879.82
522.72	36264.26
522.89	36357.88
523.07	36732.37
523.24	36664.49
523.41	37163.03
523.58	36591.94
523.75	37144.30
523.92	37291.76
524.10	37294.10
524.27	37364.31
524.44	37223.88
524.61	37434.53
524.78	37240.26
524.96	37752.84
525.13	37610.07
525.30	38050.09
525.47	38103.92
525.64	37661.56
525.81	37827.74
525.98	37539.85
526.16	37481.34
526.33	37511.77
526.50	37408.78
526.67	37324.52
526.84	37579.64
527.01	37635.81
527.18	37872.21
527.36	38440.96
527.53	38597.77
527.70	38602.46
527.87	38092.22
528.04	37940.08
528.21	38354.36
528.38	38611.82
528.55	38869.28
528.72	39110.35
528.89	39007.37
529.07	39047.16
529.24	38792.04
529.41	38785.02
529.58	38593.09
529.75	38593.09
529.92	39227.38
530.09	39435.69
530.26	39555.05
530.43	39445.05
530.60	38635.22
530.77	39321.00
530.94	39042.48
531.11	39812.51
531.28	39690.80
531.46	39384.19
531.63	39442.71
531.80	39824.22
531.97	39505.90
532.14	39489.52
532.31	38756.93
532.48	39189.93
532.65	39831.24
532.82	39730.59
532.99	40093.38
533.16	40184.66
533.33	39578.46
533.50	39924.86
533.67	39981.03
533.84	39966.99
534.01	40018.48
534.18	40189.34
534.35	40388.28
534.52	40231.47
534.69	40168.27
534.86	40701.92
535.03	40385.94
535.20	41139.60
535.37	41123.21
535.54	40720.64
535.71	40388.28
535.88	40825.96
536.05	40547.44
536.22	40840.01
536.38	40570.85
536.55	40802.56
536.72	40851.71
536.89	40360.20
537.06	41001.50
537.23	41102.15
537.40	40875.12
537.57	41586.64
537.74	41078.74
537.91	41158.32
538.08	41249.60
538.25	40832.99
538.42	41123.21
538.59	41450.89
538.75	41273.01
538.92	41514.08
539.09	41488.34
539.26	41083.42
539.43	41958.78
539.60	41640.47
539.77	41287.05
539.94	41258.96
540.11	41258.96
540.28	41092.79
540.44	41081.08
540.61	41399.40
540.78	41825.37
540.95	41935.38
541.12	41446.21
541.29	41680.26
541.46	42249.01
541.62	41514.08
541.79	42131.98
541.96	41490.68
542.13	41614.72
542.30	42316.89
542.47	41645.15
542.63	42155.39
542.80	42029.00
542.97	42316.89
543.14	42787.33
543.31	42408.17
543.48	42410.51
543.64	42843.51
543.81	42660.94
543.98	42817.76
544.15	42710.10
544.32	42916.06
544.48	43285.87
544.65	42794.36
544.82	43091.60
544.99	42548.60
545.16	42902.02
545.32	43077.56
545.49	43412.26
545.66	43395.87
545.83	43449.70
546.00	43421.62
546.16	43335.02
546.33	43103.31
546.50	42918.40
546.67	43260.12
546.83	42951.17
547.00	43344.38
547.17	43096.28
547.34	43213.31
547.50	43225.01
547.67	43325.66
547.84	43332.68
548.00	43388.85
548.17	43761.00
548.34	44194.00
548.51	43962.28
548.67	43885.04
548.84	43938.88
549.01	43842.92
549.18	43878.02
549.34	43629.93
549.51	43639.29
549.68	43775.04
549.84	43709.50
550.01	44170.59
550.18	43737.59
550.34	44048.88
550.51	43969.30
550.68	43798.44
550.84	43332.68
551.01	43924.83
551.18	43859.30
551.34	44037.18
551.51	44322.72
551.68	44076.97
551.84	43992.71
552.01	43871.00
552.18	44388.26
552.34	44119.10
552.51	44238.47
552.68	43995.05
552.84	44643.38
553.01	44594.23
553.18	44280.60
553.34	44638.70
553.51	44512.31
553.67	44404.64
553.84	44830.62
554.01	44760.40
554.17	44790.83
554.34	44676.15
554.51	44601.25
554.67	44772.11
554.84	44666.78
555.00	44772.11
555.17	44779.13
555.33	44889.13
555.50	44783.81
555.67	44807.22
555.83	44355.49
556.00	44727.64
556.16	45111.49
556.33	44744.02
556.50	44746.36
556.66	45043.61
556.83	44676.15
556.99	44940.63
557.16	45029.57
557.32	44872.75
557.49	45390.01
557.65	44765.09
557.82	45052.97
557.98	45153.62
558.15	44893.82
558.32	45212.13
558.48	44612.95
558.65	44910.20
558.81	45137.23
558.98	45031.91
559.14	45043.61
559.31	45052.97
559.47	45074.04
559.64	45256.60
559.80	45088.08
559.97	45441.50
560.13	45085.74
560.30	45097.44
560.46	45399.37
560.63	45530.44
560.79	45371.28
560.96	45687.26
561.12	45193.40
561.29	45172.34
561.45	45474.27
561.61	45251.92
561.78	45411.07
561.94	45174.68
562.11	45310.43
562.27	45567.89
562.44	45478.95
562.60	45691.94
562.77	45567.89
562.93	45385.33
563.10	45837.05
563.26	45514.06
563.42	45895.56
563.59	45441.50
563.75	45322.13
563.92	46010.25
564.08	45631.08
564.24	45478.95
564.41	45638.11
564.57	45626.40
564.74	45160.64
564.90	45705.98
565.07	45858.12
565.23	45560.87
565.39	45766.84
565.56	45986.85
565.72	45483.63
565.88	45298.73
566.05	45343.20
566.21	45343.20
566.38	45006.16
566.54	45808.96
566.70	46108.55
566.87	46068.76
567.03	45624.06
567.19	45998.55
567.36	46103.87
567.52	45792.58
567.68	46019.61
567.85	45954.08
568.01	45811.31
568.17	45787.90
568.34	45949.40
568.50	45413.41
568.66	45808.96
568.83	45624.06
568.99	45544.48
569.15	45820.67
569.32	46101.53
569.48	45617.04
569.64	46356.65
569.81	45930.67
569.97	45624.06
570.13	45722.37
570.30	45186.38
570.46	45593.64
570.62	45544.48
570.78	45476.61
570.95	45193.40
571.11	45617.04
571.27	45783.22
571.43	45727.05
571.60	45900.25
571.76	45645.13
571.92	45617.04
572.09	46286.43
572.25	46164.73
572.41	46464.32
572.57	46113.23
572.74	46155.36
572.90	46291.12
573.06	46209.20
573.22	45595.98
573.38	45689.60
573.55	45757.47
573.71	46220.90
573.87	46047.70
574.03	45783.22
574.20	45911.95
574.36	45837.05
574.52	46014.93
574.68	46342.61
574.84	46064.08
575.01	45778.54
575.17	46031.32
575.33	45717.68
575.49	45696.62
575.65	46438.57
575.82	45787.90
575.98	45764.49
576.14	46005.57
576.30	46298.14
576.46	45832.37
576.62	45762.15
576.79	45808.96
576.95	45815.99
577.11	45904.93
577.27	46176.43
577.43	46085.15
577.59	45705.98
577.75	46033.66
577.92	45305.75
578.08	45347.88
578.24	45422.78
578.40	45815.99
578.56	45668.53
578.72	45895.56
578.88	46532.19
579.04	46012.59
579.21	45759.81
579.37	45673.21
579.53	46036.00
579.69	45832.37
579.85	46003.23
580.01	46185.79
580.17	45713.00
580.33	46424.53
580.49	46258.35
580.65	46415.16
580.82	46351.97
580.98	46085.15
581.14	45462.57
581.30	46115.58
581.46	46260.69
581.62	45858.12
581.78	45614.70
581.94	46293.46
582.10	46209.20
582.26	46089.83
582.42	46429.21
582.58	46087.49
582.74	46129.62
582.90	46333.24
583.06	46330.90
583.22	46057.06
583.38	46576.66
583.54	45904.93
583.70	46115.58
583.86	46005.57
584.02	46047.70
584.18	46010.25
584.34	45951.74
584.50	46621.13
584.66	46272.39
584.82	46274.73
584.98	46553.26
585.14	45872.16
585.30	45844.07
585.46	45925.99
585.62	45425.12
585.78	46019.61
585.94	45867.48
586.10	46218.56
586.26	46358.99
586.42	45993.87
586.58	46354.31
586.74	46000.89
586.90	46375.37
587.06	46103.87
587.22	46136.64
587.38	46115.58
587.54	46183.45
587.70	46391.76
587.86	46101.53
588.02	46366.01
588.18	46033.66
588.34	45968.12
588.49	45631.08
588.65	45265.96
588.81	45507.04
588.97	45769.18
589.13	45570.23
589.29	45951.74
589.45	46007.91
589.61	45404.05
589.77	46012.59
589.93	46211.54
590.08	45799.60
590.24	46363.67
590.40	46431.55
590.56	46263.03
590.72	46129.62
590.88	45832.37
591.04	46171.75
591.20	46539.21
591.35	46415.16
591.51	47075.19
591.67	46199.83
591.83	46436.23
591.99	46485.38
592.15	45860.46
592.31	46366.01
592.46	46483.04
592.62	46279.41
592.78	45965.78
592.94	46564.96
593.10	46068.76
593.26	46471.34
593.41	46366.01
593.57	45949.40
593.73	46408.14
593.89	46017.27
594.05	46433.89
594.20	46082.81
594.36	46188.13
594.52	46529.85
594.68	46176.43
594.84	45979.82
594.99	46469.00
595.15	46234.94
595.31	46244.30
595.47	45972.80
595.62	46368.35
595.78	46342.61
595.94	46817.74
596.10	46415.16
596.25	46370.69
596.41	46478.36
596.57	45853.44
596.73	46155.36
596.88	46075.79
597.04	46274.73
597.20	45794.92
597.36	46253.67
597.51	46958.17
597.67	46319.20
597.83	46347.29
597.99	46368.35
598.14	46064.08
598.30	46054.72
598.46	46141.32
598.61	46431.55
598.77	46092.17
598.93	46897.31
599.09	46153.02
599.24	46356.65
599.40	46571.98
599.56	46391.76
599.71	45984.51
599.87	46609.43
600.03	46188.13
600.18	46539.21
600.34	46103.87
600.50	46239.62
600.65	46003.23
600.81	46401.12
600.97	46691.35
601.12	46932.42
601.28	46342.61
601.44	45888.54
601.59	45993.87
601.75	45998.55
601.91	46050.04
602.06	46251.33
602.22	46897.31
602.37	46443.25
602.53	46665.60
602.69	46349.63
602.84	46157.70
603.00	46532.19
603.16	45961.10
603.31	46497.08
603.47	46124.94
603.62	46344.95
603.78	46146.00
603.94	46649.22
604.09	46461.97
604.25	46525.17
604.40	46698.37
604.56	46270.05
604.71	46286.43
604.87	46085.15
605.03	46211.54
605.18	45972.80
605.34	46012.59
605.49	46103.87
605.65	45940.04
605.80	45900.25
605.96	46312.18
606.12	45968.12
606.27	46251.33
606.43	45521.08
606.58	46291.12
606.74	46529.85
606.89	45649.81
607.05	45874.50
607.20	45918.97
607.36	46204.52
607.51	46108.55
607.67	46054.72
607.82	45607.68
607.98	46082.81
608.13	45528.10
608.29	45687.26
608.44	45595.98
608.60	45879.18
608.75	45776.20
608.91	45741.09
609.06	45635.77
609.22	45902.59
609.37	45818.33
609.53	46101.53
609.68	45698.96
609.84	45642.79
609.99	45853.44
610.15	45481.29
610.30	45874.50
610.46	45717.68
610.61	45301.07
610.76	45944.72
610.92	45745.77
611.07	45794.92
611.23	45628.74
611.38	45518.74
611.54	45460.23
611.69	44999.14
611.84	45654.49
612.00	45338.52
612.15	45427.46
612.31	45539.80
612.46	45766.84
612.62	45476.61
612.77	44879.77
612.92	45614.70
613.08	44837.64
613.23	45214.47
613.39	44884.45
613.54	44849.35
613.69	45081.06
613.85	44884.45
614.00	45230.85
614.15	44994.46
614.31	45287.03
614.46	45427.46
614.62	45085.74
614.77	45350.22
614.92	45013.18
615.08	45240.21
615.23	45167.66
615.38	44961.69
615.54	44875.09
615.69	44863.39
615.84	44910.20
616.00	44928.92
616.15	44788.49
616.30	44638.70
616.46	44531.03
616.61	44729.98
616.76	44926.58
616.92	44201.02
617.07	44514.65
617.22	44535.71
617.37	44634.02
617.53	44947.65
617.68	44957.01
617.83	44671.46
617.99	44598.91
618.14	44619.97
618.29	44715.93
618.45	44357.83
618.60	44247.83
618.75	44247.83
618.90	44395.28
619.06	44395.28
619.21	44027.82
619.36	44477.20
619.51	44552.10
619.67	44491.24
619.82	44325.07
619.97	44458.48
620.12	44088.67
620.28	43267.14
620.43	43828.87
620.58	44308.68
620.73	44203.36
620.89	44055.90
621.04	44126.12
621.19	44128.46
621.34	43721.21
621.49	44102.71
621.65	43821.85
621.80	43887.39
621.95	43517.58
622.10	43868.66
622.25	43952.92
622.41	43744.61
622.56	43594.82
622.71	43594.82
622.86	43363.11
623.01	43246.08
623.16	44072.29
623.32	43515.24
623.47	43632.27
623.62	43763.34
623.77	43426.30
623.92	43709.50
624.07	43203.95
624.23	42862.23
624.38	43295.23
624.53	43302.25
624.68	43269.48
624.83	43398.21
624.98	43276.51
625.13	42808.40
625.29	43033.09
625.44	43496.52
625.59	43119.69
625.74	43210.97
625.89	42731.16
626.04	42925.42
626.19	42829.46
626.34	42775.63
626.49	43065.86
626.65	43140.75
626.80	43351.40
626.95	43124.37
627.10	42934.79
627.25	43126.71
627.40	42497.11
627.55	42557.96
627.70	42658.60
627.85	42747.54
628.00	42717.12
628.15	42672.65
628.30	42728.82
628.45	42562.64
628.60	42649.24
628.76	42328.59
628.91	42546.26
629.06	42574.34
629.21	42337.95
629.36	42504.13
629.51	42344.97
629.66	42218.58
629.81	42349.65
629.96	42164.75
630.11	42279.44
630.26	42864.57
630.41	42253.69
630.56	42061.77
630.71	42260.71
630.86	42153.05
631.01	41736.43
631.16	42405.83
631.31	41586.64
631.46	41591.32
631.61	42415.19
631.76	42169.43
631.91	41874.52
632.06	42359.02
632.21	42162.41
632.36	42312.20
632.51	41546.85
632.66	42110.92
632.81	41642.81
632.96	41825.37
633.10	41715.37
633.25	41581.96
633.40	41785.58
633.55	42115.60
633.70	42019.64
633.85	41710.69
634.00	41586.64
634.15	41591.32
634.30	41537.49
634.45	41483.66
634.60	41706.01
634.75	41420.46
634.90	41670.90
635.05	41429.82
635.19	41373.65
635.34	41273.01
635.49	41514.08
635.64	41235.56
635.79	40980.44
635.94	41195.77
636.09	41277.69
636.24	40842.35
636.39	41097.47
636.53	41113.85
636.68	40961.72
636.83	41141.94
636.98	40720.64
637.13	40807.24
637.28	41560.89
637.43	41357.27
637.57	41081.08
637.72	40912.56
637.87	40992.14
638.02	40980.44
638.17	41165.34
638.32	40828.30
638.46	40882.14
638.61	40779.15
638.76	40755.75
638.91	40659.79
639.06	40804.90
639.20	40779.15
639.35	40896.18
639.50	40793.20
639.65	40849.37
639.80	40292.32
639.94	40683.19
640.09	40655.11
640.24	40219.77
640.39	40149.55
640.54	40217.43
640.68	40027.84
640.83	40210.40
640.98	40477.22
641.13	40360.20
641.27	40788.52
641.42	40095.72
641.57	40292.32
641.72	40341.47
641.86	39817.19
642.01	39878.05
642.16	40041.88
642.31	39800.81
642.45	40194.02
642.60	39648.68
642.75	40257.21
642.90	40175.30
643.04	40095.72
643.19	39526.97
643.34	40322.75
643.48	39665.06
643.63	40013.80
643.78	39557.39
643.93	40058.27
644.07	39756.34
644.22	39866.34
644.37	39332.70
644.51	39913.16
644.66	39686.12
644.81	39597.18
644.95	40100.40
645.10	39606.55
645.25	39894.43
645.39	39966.99
645.54	39543.35
645.69	39473.13
645.83	39264.83
645.98	39103.33
646.13	39269.51
646.27	39246.10
646.42	39098.65
646.57	39447.39
646.71	39732.93
646.86	39730.59
647.00	39367.81
647.15	39271.85
647.30	39445.05
647.44	38773.31
647.59	39548.03
647.74	39409.94
647.88	38836.51
648.03	39115.03
648.17	38834.17
648.32	38902.04
648.47	38866.94
648.61	38897.36
648.76	39208.65
648.90	38955.88
649.05	38820.13
649.20	38836.51
649.34	39091.63
649.49	38330.95
649.63	38813.10
649.78	38759.27
649.92	38560.33
650.07	38890.34
650.21	38693.74
650.36	38686.71
650.51	38656.29
650.65	39416.96
650.80	39260.15
650.94	38787.36
651.09	38249.03
651.23	38527.56
651.38	38738.21
651.52	38110.94
651.67	38333.29
651.81	38419.89
651.96	38127.33
652.10	38419.89
652.25	38377.76
652.39	38642.24
652.54	38527.56
652.68	38349.68
652.83	38609.48
652.97	38534.58
653.12	38689.06
653.26	37865.19
653.41	37865.19
653.55	38218.61
653.70	38012.64
653.84	38417.55
653.99	37993.92
654.13	37912.00
654.27	37713.05
654.42	37748.16
654.56	38029.02
654.71	37998.60
654.85	37661.56
655.00	37970.51
655.14	38068.81
655.29	37385.38
655.43	37380.70
655.57	37223.88
655.72	37413.46
655.86	37408.78
656.01	37017.91
656.15	36652.79
656.30	37163.03
656.44	37207.50
656.58	37301.12
656.73	37427.51
656.87	37228.56
657.01	37364.31
657.16	37289.42
657.30	37085.79
657.45	36968.76
657.59	37249.63
657.73	36973.44
657.88	37600.71
658.02	36905.57
658.16	37427.51
658.31	37373.67
658.45	37165.37
658.60	36734.71
658.74	37495.38
658.88	37188.77
659.03	36928.97
659.17	36975.78
659.31	36844.71
659.46	36510.02
659.60	36638.75
659.74	36622.36
659.89	36528.74
660.03	36395.33
660.17	36842.37
660.32	36521.72
660.46	36512.36
660.60	36687.90
660.74	36479.59
660.89	36477.25
661.03	36479.59
661.17	36439.80
661.32	36297.03
661.46	36236.17
661.60	35920.20
661.74	35929.56
661.89	35604.23
662.03	36048.93
662.17	36121.49
662.31	36339.16
662.46	36250.22
662.60	36184.68
662.74	35737.64
662.88	35957.65
663.03	35505.93
663.17	35634.66
663.31	35276.55
663.45	35620.61
663.60	35292.94
663.74	35494.22
663.88	35213.36
664.02	35459.12
664.17	35316.34
664.31	35117.40
664.45	34962.92
664.59	34796.74
664.73	35028.46
664.88	35599.55
665.02	34735.89
665.16	34492.47
665.30	34752.27
665.44	34656.31
665.59	34321.62
665.73	34822.49
665.87	34440.98
666.01	34501.84
666.15	34703.12
666.29	34562.69
666.44	35028.46
666.58	34398.85
666.72	34560.35
666.86	34682.06
667.00	34511.20
667.14	33883.94
667.28	34078.20
667.43	33883.94
667.57	34293.53
667.71	33589.03
667.85	33855.85
667.99	34089.90
668.13	34000.96
668.27	34211.61
668.41	33902.66
668.56	33958.83
668.70	33369.02
668.84	33839.47
668.98	33446.26
669.12	33022.62
669.26	33666.27
669.40	33078.79
669.54	33174.75
669.68	33324.55
669.82	33287.10
669.96	33071.77
670.10	32919.63
670.25	33090.49
670.39	33046.02
670.53	32790.91
670.67	32795.59
670.81	32573.24
670.95	32444.51
671.09	32636.43
671.23	32484.30
671.37	32449.19
671.51	32217.47
671.65	32292.37
671.79	32011.51
671.93	32219.81
672.07	32161.30
672.21	31693.19
672.35	32184.71
672.49	32165.98
672.63	31868.73
672.77	31751.71
672.91	31859.37
673.05	31732.98
673.19	31452.12
673.33	31447.44
673.47	31615.96
673.61	31426.37
673.75	31199.34
673.89	31126.78
674.03	31152.53
674.17	31295.30
674.31	31440.42
674.45	31480.21
674.59	31519.99
674.73	31522.34
674.87	31517.65
675.01	31407.65
675.15	30960.61
675.29	30745.28
675.43	30871.67
675.56	30342.70
675.70	30799.11
675.84	30923.16
675.98	29626.50
676.12	30087.59
676.26	30661.02
676.40	30272.49
676.54	30157.80
676.68	29586.71
676.82	30122.69
676.96	29818.42
677.10	30078.22
677.23	29844.17
677.37	29577.35
677.51	29799.70
677.65	29010.94
677.79	28971.15
677.93	29149.03
678.07	28851.78
678.21	28603.69
678.34	28755.82
678.48	28652.84
678.62	28634.11
678.76	28362.61
678.90	28243.24
679.04	28348.57
679.18	28348.57
679.31	27896.85
679.45	28173.03
679.59	28039.62
679.73	28121.54
679.87	27885.14
680.00	27435.76
680.14	27683.86
680.28	27566.83
680.42	27360.86
680.56	27620.66
680.70	27274.26
680.83	27669.81
680.97	27410.01
681.11	27470.87
681.25	27255.54
681.39	27115.11
681.52	26962.97
681.66	26965.31
681.80	26838.92
681.94	26677.43
682.07	26249.11
682.21	26356.77
682.35	26352.09
682.49	26335.71
682.62	26026.76
682.76	25736.53
682.90	26244.43
683.04	26022.08
683.17	26064.21
683.31	25551.63
683.45	25795.04
683.59	25898.03
683.72	25575.03
683.86	25752.91
684.00	25376.09
684.13	25415.88
684.27	25228.63
684.41	24584.99
684.55	25013.31
684.68	24584.99
684.82	25032.03
684.96	24746.48
685.09	24634.14
685.23	24943.09
685.37	24772.23
685.50	24725.42
685.64	24615.41
685.78	24287.74
685.91	24369.66
686.05	24299.44
686.19	23723.67
686.32	23625.37
686.46	23426.42
686.60	22810.86
686.73	23356.21
686.87	23000.44
687.01	23405.36
687.14	22960.66
687.28	23012.15
687.42	23147.90
687.55	22984.06
687.69	22958.31
687.82	22972.36
687.96	23098.75
688.10	22586.17
688.23	22726.60
688.37	22291.26
688.50	22831.93
688.64	22075.93
688.78	22246.79
688.91	22204.66
689.05	21949.54
689.18	21928.48
689.32	21902.73
689.46	22335.73
689.59	22071.25
689.73	22122.74
689.86	21366.75
690.00	21736.56
690.13	21392.50
690.27	21551.65
690.41	21289.51
690.54	21242.70
690.68	21268.45
690.81	21123.33
690.95	21039.08
691.08	21097.59
691.22	20755.87
691.35	20898.64
691.49	21156.10
691.62	20741.83
691.76	20837.79
691.89	20716.08
692.03	20489.05
692.16	20606.08
692.30	20229.25
692.43	20365.00
692.57	20067.75
692.70	20123.93
692.84	19960.09
692.97	19789.23
693.11	19585.60
693.24	19363.25
693.38	19733.06
693.51	19679.22
693.65	19756.46
693.78	19435.81
693.92	19424.11
694.05	19267.29
694.19	19234.52
694.32	19410.06
694.45	19236.86
694.59	19122.18
694.72	18981.74
694.86	18923.23
694.99	18857.70
695.13	19129.20
695.26	18534.70
695.39	18483.21
695.53	18721.95
695.66	18466.83
695.80	18237.45
695.93	18302.99
696.07	17980.00
696.20	18047.87
696.33	18356.82
696.47	17937.87
696.60	17872.33
696.73	17776.37
696.87	17699.13
697.00	17631.26
697.14	17434.65
697.27	17476.78
697.40	17252.09
697.54	17261.45
697.67	17242.73
697.80	17137.40
697.94	17422.95
698.07	17214.64
698.21	16877.60
698.34	17338.69
698.47	17142.08
698.61	16769.94
698.74	16877.60
698.87	16915.05
699.01	16266.72
699.14	16278.43
699.27	16470.35
699.40	16505.46
699.54	15871.17
699.67	15899.26
699.80	15697.97
699.94	16046.71
700.07	16180.12
700.20	15887.56
700.34	15719.04
700.47	15805.64
700.60	15932.03
700.73	16023.31
700.87	15599.67
701.00	15763.51
701.13	15269.66
701.26	15417.11
701.40	15119.86
701.53	15232.21
701.66	15087.09
701.79	15047.30
701.93	15026.24
702.06	14991.13
702.19	14843.68
702.32	14974.75
702.46	15091.77
702.59	14972.41
702.72	14686.86
702.85	14810.91
702.99	14621.33
703.12	14546.43
703.25	14459.83
703.38	14497.28
703.51	14567.49
703.65	14223.44
703.78	13841.93
703.91	13902.78
704.04	14071.30
704.17	13947.25
704.31	13870.01
704.44	13748.31
704.57	13448.72
704.70	13380.84
704.83	13708.52
704.96	13596.17
705.10	13488.51
705.23	13654.69
>>>>>End Processed Spectral Data<<<<<
