SpectraSuite Data File
++++++++++++++++++++++++++++++++++++
Date: Fri Oct 25 10:46:54 EDT 2013
User: price-jones
Dark Spectrum Present: No
Reference Spectrum Present: No
Number of Sampled Component Spectra: 1
Spectrometers: USB2+H05261
Integration Time (usec): 100000 (USB2+H05261)
Spectra Averaged: 1 (USB2+H05261)
Boxcar Smoothing: 0 (USB2+H05261)
Correct for Electrical Dark: No (USB2+H05261)
Strobe/Lamp Enabled: No (USB2+H05261)
Correct for Detector Non-linearity: No (USB2+H05261)
Correct for Stray Light: No (USB2+H05261)
Number of Pixels in Processed Spectrum: 2048
>>>>>Begin Processed Spectral Data<<<<<
365.73	135.75
365.92	135.75
366.12	135.75
366.32	0.00
366.52	0.00
366.72	74.90
366.91	0.00
367.11	58.51
367.31	21.06
367.51	65.54
367.70	39.79
367.90	53.83
368.10	14.04
368.30	0.00
368.49	58.51
368.69	42.13
368.89	23.41
369.09	30.43
369.28	4.68
369.48	39.79
369.68	112.35
369.87	39.79
370.07	95.96
370.27	93.62
370.47	170.86
370.66	344.06
370.86	451.72
371.06	437.68
371.25	505.56
371.45	503.22
371.65	479.81
371.84	526.62
372.04	454.06
372.24	493.85
372.44	482.15
372.63	519.60
372.83	571.09
373.03	442.36
373.22	454.06
373.42	491.51
373.62	461.09
373.81	580.45
374.01	540.66
374.21	578.11
374.40	557.05
374.60	634.29
374.79	587.47
374.99	594.50
375.19	657.69
375.38	566.41
375.58	667.05
375.78	695.14
375.97	655.35
376.17	650.67
376.37	582.79
376.56	587.47
376.76	592.16
376.95	669.39
377.15	582.79
377.35	606.20
377.54	688.12
377.74	629.60
377.93	631.94
378.13	669.39
378.33	655.35
378.52	660.03
378.72	653.01
378.91	732.59
379.11	734.93
379.31	615.56
379.50	620.24
379.70	638.97
379.89	622.58
380.09	685.78
380.28	730.25
380.48	755.99
380.68	805.14
380.87	627.26
381.07	755.99
381.26	748.97
381.46	648.33
381.65	732.59
381.85	713.86
382.04	657.69
382.24	725.57
382.43	648.33
382.63	781.74
382.83	653.01
383.02	781.74
383.22	697.48
383.41	725.57
383.61	866.00
383.80	798.12
384.00	697.48
384.19	727.91
384.39	819.19
384.58	896.43
384.78	784.08
384.97	760.67
385.17	807.48
385.36	819.19
385.56	795.78
385.75	849.61
385.95	840.25
386.14	924.51
386.34	826.21
386.53	833.23
386.72	835.57
386.92	929.19
387.11	868.34
387.31	898.77
387.50	926.85
387.70	887.06
387.89	929.19
388.09	866.00
388.28	931.53
388.48	901.11
388.67	877.70
388.86	877.70
389.06	985.37
389.25	947.92
389.45	894.08
389.64	964.30
389.84	938.55
390.03	973.66
390.22	952.60
390.42	1001.75
390.61	966.64
390.81	1043.88
391.00	1004.09
391.19	1071.97
391.39	1118.78
391.58	1107.07
391.78	1078.99
391.97	1006.43
392.16	1036.86
392.36	1039.20
392.55	990.05
392.75	1041.54
392.94	983.02
393.13	997.07
393.33	1034.52
393.52	1109.41
393.71	1041.54
393.91	1109.41
394.10	1088.35
394.29	1130.48
394.49	1144.52
394.68	1256.87
394.88	1193.67
395.07	1158.57
395.26	1221.76
395.46	1153.88
395.65	1137.50
395.84	1130.48
396.04	1277.93
396.23	1165.59
396.42	1170.27
396.62	1128.14
396.81	1247.51
397.00	1249.85
397.19	1254.53
397.39	1289.64
397.58	1329.42
397.77	1308.36
397.97	1338.79
398.16	1507.30
398.35	1467.52
398.55	1348.15
398.74	1448.79
398.93	1488.58
399.12	1474.54
399.32	1465.18
399.51	1434.75
399.70	1502.62
399.90	1519.01
400.09	1593.90
400.28	1521.35
400.47	1598.59
400.67	1652.42
400.86	1558.80
401.05	1547.09
401.24	1671.14
401.44	1682.85
401.63	1671.14
401.82	1769.44
402.01	1699.23
402.21	1706.25
402.40	1666.46
402.59	1631.35
402.78	1713.27
402.97	1734.34
403.17	1753.06
403.36	1753.06
403.55	1661.78
403.74	1743.70
403.93	1853.70
404.13	1802.21
404.32	1802.21
404.51	1921.58
404.70	1809.23
404.89	1739.02
405.09	1937.96
405.28	1858.39
405.47	1944.99
405.66	1940.30
405.85	1914.56
406.05	1973.07
406.24	1970.73
406.43	1961.37
406.62	2005.84
406.81	2101.80
407.00	2029.24
407.20	2031.58
407.39	1942.64
407.58	2062.01
407.77	2073.71
407.96	2230.53
408.15	2167.34
408.34	2183.72
408.54	2209.47
408.73	2228.19
408.92	2162.66
409.11	2253.94
409.30	2211.81
409.49	2275.00
409.68	2282.02
409.87	2279.68
410.07	2253.94
410.26	2282.02
410.45	2370.96
410.64	2389.69
410.83	2314.79
411.02	2450.54
411.21	2541.82
411.40	2551.18
411.59	2595.65
411.78	2574.59
411.98	2602.68
412.17	2595.65
412.36	2502.03
412.55	2595.65
412.74	2691.62
412.93	2640.12
413.12	2799.28
413.31	2825.03
413.50	2757.15
413.69	2715.02
413.88	2888.22
414.07	2820.35
414.26	2832.05
414.45	2899.92
414.64	2897.58
414.83	2979.50
415.02	3105.89
415.22	3049.72
415.41	3112.91
415.60	3082.49
415.79	3110.57
415.98	3117.59
416.17	3199.51
416.36	3187.81
416.55	3164.40
416.74	3236.96
416.93	3155.04
417.12	3232.28
417.31	3300.16
417.50	3225.26
417.69	3377.39
417.88	3358.67
418.07	3372.71
418.26	3393.78
418.45	3309.52
418.64	3459.31
418.83	3501.44
419.02	3604.42
419.21	3407.82
419.39	3501.44
419.58	3485.06
419.77	3531.87
419.96	3543.57
420.15	3644.21
420.34	3609.11
420.53	3737.84
420.72	3754.22
420.91	3669.96
421.10	3730.81
421.29	3815.07
421.48	3803.37
421.67	3730.81
421.86	3747.20
422.05	3693.37
422.24	3779.97
422.43	3709.75
422.61	3735.50
422.80	3775.28
422.99	3932.10
423.18	3794.01
423.37	3899.33
423.56	3894.65
423.75	3964.87
423.94	3796.35
424.13	3606.77
424.32	3723.79
424.50	3836.14
424.69	4018.70
424.88	3999.98
425.07	3971.89
425.26	3833.80
425.45	3833.80
425.64	3838.48
425.83	3831.46
426.01	3920.40
426.20	3899.33
426.39	3915.72
426.58	3988.27
426.77	3854.86
426.96	3957.85
427.15	4112.32
427.33	3990.61
427.52	4056.15
427.71	4037.42
427.90	4184.88
428.09	4102.96
428.28	4032.74
428.46	4161.47
428.65	4102.96
428.84	4217.65
429.03	4259.78
429.22	4053.81
429.40	4070.19
429.59	4088.92
429.78	3967.21
429.97	3892.31
430.16	4007.00
430.34	4112.32
430.53	4086.58
430.72	4002.32
430.91	4126.36
431.10	4313.61
431.28	4437.66
431.47	4531.28
431.66	4592.13
431.85	4486.81
432.03	4559.36
432.22	4678.73
432.41	4629.58
432.60	4535.96
432.79	4645.96
432.97	4772.35
433.16	4667.03
433.35	4573.41
433.54	4566.39
433.72	4683.41
433.91	4645.96
434.10	4690.43
434.28	4615.54
434.47	4631.92
434.66	4713.84
434.85	4816.82
435.03	4779.37
435.22	4945.55
435.41	5149.18
435.59	4983.00
435.78	5093.01
435.97	5102.37
436.16	4887.04
436.34	4950.23
436.53	5043.85
436.72	5188.97
436.90	5104.71
437.09	5085.98
437.28	5137.48
437.46	5130.45
437.65	5165.56
437.84	5263.86
438.02	5013.43
438.21	5233.44
438.40	5198.33
438.58	5479.19
438.77	5317.70
438.96	5441.75
439.14	5497.92
439.33	5671.12
439.52	5444.09
439.70	5474.51
439.89	5507.28
440.08	5357.49
440.26	5710.91
440.45	5720.27
440.63	5743.67
440.82	5729.63
441.01	5825.59
441.19	5947.30
441.38	5865.38
441.57	6064.33
441.75	6059.65
441.94	6303.06
442.12	6174.33
442.31	6204.76
442.50	6307.74
442.68	6303.06
442.87	6251.57
443.05	6162.63
443.24	6263.27
443.43	6450.52
443.61	6499.67
443.80	6452.86
443.98	6111.14
444.17	6043.26
444.35	6321.79
444.54	6450.52
444.73	6469.24
444.91	6399.02
445.10	6317.11
445.28	6544.14
445.47	6317.11
445.65	6321.79
445.84	6509.03
446.02	6490.31
446.21	6359.24
446.39	6480.94
446.58	6649.46
446.77	6462.22
446.95	6401.37
447.14	6609.67
447.32	6630.74
447.51	6626.06
447.69	6422.43
447.88	6761.81
448.06	6649.46
448.25	6705.63
448.43	6612.01
448.62	6736.06
448.80	6509.03
448.99	6672.87
449.17	6649.46
449.36	6628.40
449.54	6944.37
449.73	6981.82
449.91	6991.18
450.10	7042.67
450.28	6970.12
450.46	7016.93
450.65	7026.29
450.83	7061.40
451.02	7082.46
451.20	7140.97
451.39	7190.13
451.57	7110.55
451.76	7073.10
451.94	7068.42
452.13	7119.91
452.31	6963.09
452.49	7112.89
452.68	7007.56
452.86	7002.88
453.05	7265.02
453.23	7382.05
453.42	7150.34
453.60	7143.32
453.78	7353.96
453.97	7307.15
454.15	7183.10
454.34	7211.19
454.52	7346.94
454.70	7435.88
454.89	7267.36
455.07	7258.00
455.26	7358.64
455.44	7740.15
455.62	7576.31
455.81	7529.50
455.99	7599.72
456.17	7672.28
456.36	7688.66
456.54	7744.83
456.73	7613.76
456.91	8013.99
457.09	7939.10
457.28	8100.59
457.46	7943.78
457.64	8194.22
457.83	7861.86
458.01	8030.38
458.19	8131.02
458.38	7889.95
458.56	8074.85
458.74	8070.17
458.93	8318.26
459.11	8367.42
459.29	8049.10
459.48	8198.90
459.66	8154.43
459.84	8311.24
460.03	8409.54
460.21	8212.94
460.39	8442.31
460.57	8299.54
460.76	8381.46
460.94	8674.03
461.12	8395.50
461.31	8592.11
461.49	8402.52
461.67	8482.10
461.85	8636.58
462.04	8589.77
462.22	9200.65
462.40	8617.85
462.59	8683.39
462.77	8774.67
462.95	8863.61
463.13	8746.58
463.32	8716.16
463.50	8732.54
463.68	8741.90
463.86	8835.52
464.05	8697.43
464.23	8936.17
464.41	8765.31
464.59	8826.16
464.78	9114.05
464.96	9071.92
465.14	8973.61
465.32	9188.94
465.50	9191.28
465.69	9308.31
465.87	9217.03
466.05	8999.36
466.23	8997.02
466.41	9172.56
466.60	9277.88
466.78	8931.48
466.96	9193.62
467.14	9142.13
467.32	9268.52
467.51	9502.58
467.69	9153.84
467.87	9165.54
468.05	9474.49
468.23	9153.84
468.41	9188.94
468.60	9270.86
468.78	9392.57
468.96	9451.08
469.14	9640.67
469.32	9764.72
469.50	9437.04
469.69	9626.62
469.87	9516.62
470.05	9741.31
470.23	9813.87
470.41	9584.49
470.59	9909.83
470.77	9944.94
470.95	9902.81
471.14	9753.01
471.32	9736.63
471.50	10097.07
471.68	10242.18
471.86	10237.50
472.04	9977.70
472.22	10548.79
472.40	10195.37
472.58	10424.75
472.77	10420.06
472.95	10420.06
473.13	10642.42
473.31	10317.08
473.49	10377.94
473.67	10370.91
473.85	10607.31
474.03	10946.69
474.21	10764.12
474.39	10771.15
474.57	10846.04
474.75	10956.05
474.93	10916.26
475.12	11042.65
475.30	11105.84
475.48	10942.00
475.66	10920.94
475.84	10918.60
476.02	11206.48
476.20	11330.53
476.38	11480.33
476.56	11744.81
476.74	11662.89
476.92	11620.76
477.10	11646.51
477.28	11997.59
477.46	11843.11
477.64	12016.31
477.82	12044.40
478.00	12507.82
478.18	12063.12
478.36	12430.59
478.54	12517.18
478.72	12453.99
478.90	12678.68
479.08	12844.86
479.26	12877.63
479.44	13074.23
479.62	13027.42
479.80	13291.90
479.98	13270.84
480.16	13631.28
480.34	13521.27
480.52	13748.31
480.70	13486.17
480.88	13277.86
481.06	13837.25
481.24	13745.97
481.41	13830.23
481.59	13940.23
481.77	14284.29
481.95	14288.97
482.13	14335.78
482.31	14483.24
482.49	14728.99
482.67	14897.51
482.85	14675.16
483.03	14906.87
483.21	15169.01
483.39	15136.24
483.57	15084.75
483.74	15522.43
483.92	15382.00
484.10	15447.54
484.28	15644.14
484.46	15866.49
484.64	16217.57
484.82	15840.75
485.00	16011.60
485.18	16341.62
485.35	16383.75
485.53	15892.24
485.71	16130.97
485.89	16409.50
486.07	16519.50
486.25	16421.20
486.43	16475.03
486.61	16585.04
486.78	16933.78
486.96	17139.74
487.14	17425.29
487.32	17598.49
487.50	17516.57
487.68	17818.50
487.85	18178.94
488.03	18087.66
488.21	18443.42
488.39	18200.01
488.57	18607.26
488.75	18600.24
488.92	18977.06
489.10	19040.26
489.28	19154.94
489.46	19318.78
489.64	19419.42
489.81	19988.18
489.99	20098.18
490.17	19903.92
490.35	20390.75
490.53	20264.36
490.70	20002.22
490.88	20350.96
491.06	20772.25
491.24	20414.15
491.41	20741.83
491.59	20414.15
491.77	20402.45
491.95	20786.30
492.13	21270.79
492.30	21216.96
492.48	21205.25
492.66	21687.40
492.84	21436.97
493.01	21797.41
493.19	21511.86
493.37	21979.97
493.54	22040.82
493.72	22284.24
493.90	22082.95
494.08	22504.25
494.25	23028.53
494.43	22747.67
494.61	23276.63
494.79	22991.08
494.96	23115.13
495.14	23304.71
495.32	23700.26
495.49	22920.87
495.67	23520.04
495.85	23960.06
496.02	24130.92
496.20	23859.42
496.38	24329.87
496.55	24372.00
496.73	24622.44
496.91	24498.39
497.09	24835.42
497.26	25106.93
497.44	24503.07
497.62	25008.62
497.79	25083.52
497.97	24767.55
498.14	25106.93
498.32	25245.02
498.50	25699.08
498.67	25638.23
498.85	25734.19
499.03	25961.22
499.20	25891.01
499.38	25914.41
499.56	26443.37
499.73	26792.11
499.91	25947.18
500.08	26532.31
500.26	25986.97
500.44	26621.25
500.61	26471.46
500.79	26052.50
500.97	26441.03
501.14	27072.98
501.32	26960.63
501.49	26670.40
501.67	26972.33
501.84	27370.22
502.02	27063.61
502.20	27388.95
502.37	27625.34
502.55	27213.41
502.72	27641.73
502.90	27843.01
503.07	27587.89
503.25	28006.85
503.43	27906.21
503.60	27798.54
503.78	28065.36
503.95	27924.93
504.13	28507.72
504.30	28451.55
504.48	28222.18
504.65	28652.84
504.83	29127.97
505.01	28781.57
505.18	28517.09
505.36	29205.20
505.53	29055.41
505.71	29046.05
505.88	29741.19
506.06	29336.27
506.23	29151.37
506.41	29252.02
506.58	29298.83
506.76	29427.56
506.93	29647.57
507.11	29670.97
507.28	29663.95
507.46	29474.37
507.63	29778.64
507.81	30146.10
507.98	30143.76
508.16	30195.25
508.33	30387.18
508.50	30328.66
508.68	30448.03
508.85	30976.99
509.03	30462.07
509.20	30679.74
509.38	30984.01
509.55	31035.50
509.73	31133.81
509.90	30810.81
510.08	30892.73
510.25	30803.79
510.42	31248.49
510.60	31569.15
510.77	31625.32
510.95	31737.66
511.12	31707.24
511.30	31594.89
511.47	32371.95
511.64	31908.52
511.82	32006.83
511.99	32133.21
512.17	31735.32
512.34	32093.43
512.51	32180.03
512.69	32669.20
512.86	32699.62
513.04	32446.85
513.21	32685.58
513.38	32360.25
513.56	32563.87
513.73	32458.55
513.90	32833.04
514.08	32708.99
514.25	33120.92
514.43	32889.21
514.60	33120.92
514.77	33055.39
514.95	33017.94
515.12	33294.12
515.29	33539.88
515.47	34246.72
515.64	33900.32
515.81	33235.61
515.99	33722.44
516.16	32926.66
516.33	33387.74
516.51	33729.46
516.68	33223.90
516.85	33113.90
517.03	33446.26
517.20	33858.19
517.37	34115.65
517.54	34281.83
517.72	34080.54
517.89	33699.03
518.06	33663.93
518.24	33890.96
518.41	34419.92
518.58	34389.49
518.75	33991.60
518.93	34644.61
519.10	34394.17
519.27	34969.94
519.45	34796.74
519.62	35271.87
519.79	35009.73
519.96	35370.18
520.14	35931.90
520.31	35466.14
520.48	35229.74
520.65	35065.91
520.83	35321.02
521.00	35431.03
521.17	35852.33
521.34	35477.84
521.52	35873.39
521.69	36486.61
521.86	36098.08
522.03	36147.23
522.20	36151.91
522.38	36060.63
522.55	36444.48
522.72	35999.78
522.89	36224.47
523.07	36322.77
523.24	36346.18
523.41	36725.35
523.58	36364.90
523.75	36786.20
523.92	37144.30
524.10	36980.46
524.27	37181.75
524.44	36753.43
524.61	37038.98
524.78	37006.21
524.96	37570.28
525.13	37050.68
525.30	37699.01
525.47	37801.99
525.64	37596.03
525.81	37773.91
525.98	37233.24
526.16	36643.43
526.33	37516.45
526.50	37429.85
526.67	37406.44
526.84	37560.92
527.01	37312.82
527.18	37673.26
527.36	37717.73
527.53	38036.05
527.70	38494.79
527.87	38527.56
528.04	38157.75
528.21	38476.07
528.38	38148.39
528.55	38705.44
528.72	38813.10
528.89	38852.89
529.07	38653.95
529.24	37827.74
529.41	38539.26
529.58	38431.60
529.75	38218.61
529.92	38562.67
530.09	38445.64
530.26	38888.00
530.43	38754.59
530.60	38787.36
530.77	39009.71
530.94	39138.44
531.11	39016.73
531.28	39164.18
531.46	39363.13
531.63	39075.24
531.80	39325.68
531.97	39351.43
532.14	39459.09
532.31	39012.05
532.48	39419.30
532.65	39634.63
532.82	39924.86
532.99	39828.90
533.16	39641.65
533.33	39597.18
533.50	40149.55
533.67	39428.66
533.84	39569.10
534.01	39519.95
534.18	39950.60
534.35	40371.90
534.52	39959.97
534.69	40231.47
534.86	40399.99
535.03	39959.97
535.20	40605.95
535.37	40741.71
535.54	40797.88
535.71	40362.54
535.88	40868.09
536.05	40570.85
536.22	40472.54
536.38	40203.38
536.55	40755.75
536.72	40320.41
536.89	40711.28
537.06	40589.57
537.23	41326.84
537.40	40893.84
537.57	41010.87
537.74	40898.52
537.91	41518.76
538.08	41045.97
538.25	40865.75
538.42	40538.08
538.59	41518.76
538.75	41013.21
538.92	41095.13
539.09	41228.54
539.26	41420.46
539.43	41532.81
539.60	41104.49
539.77	41076.40
539.94	41343.22
540.11	41607.70
540.28	41237.90
540.44	41432.16
540.61	41326.84
540.78	41642.81
540.95	41467.27
541.12	41443.87
541.29	41212.15
541.46	41380.67
541.62	41635.79
541.79	42094.53
541.96	41343.22
542.13	41680.26
542.30	41811.33
542.47	42185.82
542.63	42089.85
542.80	41909.63
542.97	42749.88
543.14	42705.41
543.31	42251.35
543.48	42749.88
543.64	43152.46
543.81	42773.29
543.98	42398.80
544.15	42866.91
544.32	42703.07
544.48	42862.23
544.65	42777.97
544.82	42927.77
544.99	42658.60
545.16	42773.29
545.32	42682.01
545.49	42939.47
545.66	43075.22
545.83	42983.94
546.00	43187.56
546.16	43189.91
546.33	42674.99
546.50	42944.15
546.67	43505.88
546.83	43217.99
547.00	43627.59
547.17	42939.47
547.34	43316.29
547.50	43171.18
547.67	43557.37
547.84	43061.18
548.00	43557.37
548.17	43768.02
548.34	43646.31
548.51	43337.36
548.67	43669.72
548.84	43735.25
549.01	43548.01
549.18	43985.69
549.34	43742.27
549.51	44018.46
549.68	43945.90
549.84	43494.18
550.01	44189.31
550.18	43400.55
550.34	44119.10
550.51	44013.77
550.68	43985.69
550.84	43821.85
551.01	44371.88
551.18	43777.38
551.34	44006.75
551.51	44004.41
551.68	44285.28
551.84	44332.09
552.01	44041.86
552.18	44294.64
552.34	44018.46
552.51	44006.75
552.68	44694.87
552.84	44299.32
553.01	44631.68
553.18	44208.04
553.34	44105.06
553.51	44144.84
553.67	44584.86
553.84	44767.43
554.01	44818.92
554.17	45050.63
554.34	44690.19
554.51	44732.32
554.67	44552.10
554.84	44985.10
555.00	44477.20
555.17	45050.63
555.33	44844.66
555.50	44493.58
555.67	44676.15
555.83	44842.32
556.00	44872.75
556.16	44865.73
556.33	44980.42
556.50	45315.11
556.66	45270.64
556.83	44856.37
556.99	45432.14
557.16	45373.63
557.32	44828.28
557.49	45317.45
557.65	44971.05
557.82	44767.43
557.98	45170.00
558.15	44741.68
558.32	44788.49
558.48	45104.46
558.65	45373.63
558.81	44919.56
558.98	44971.05
559.14	45689.60
559.31	45001.48
559.47	45378.31
559.64	45811.31
559.80	45177.02
559.97	45331.50
560.13	44924.24
560.30	44910.20
560.46	45214.47
560.63	45329.16
560.79	45544.48
560.96	45916.63
561.12	45357.24
561.29	45539.80
561.45	45422.78
561.61	45207.45
561.78	45324.47
561.94	45134.89
562.11	45265.96
562.27	45207.45
562.44	45668.53
562.60	45359.58
562.77	45570.23
562.93	45666.19
563.10	45907.27
563.26	45336.18
563.42	45778.54
563.59	45862.80
563.75	45586.61
563.92	45656.83
564.08	45476.61
564.24	45968.12
564.41	45780.88
564.57	45727.05
564.74	45794.92
564.90	45757.47
565.07	45811.31
565.23	45574.91
565.39	45336.18
565.56	46211.54
565.72	45375.97
565.88	45471.93
566.05	45790.24
566.21	45474.27
566.38	45652.15
566.54	46138.98
566.70	46085.15
566.87	46087.49
567.03	45848.75
567.19	45916.63
567.36	46298.14
567.52	45448.52
567.68	46216.22
567.85	45689.60
568.01	45893.22
568.17	45876.84
568.34	46326.22
568.50	45886.20
568.66	46047.70
568.83	46157.70
568.99	45584.27
569.15	46321.54
569.32	45549.17
569.48	45446.18
569.64	45872.16
569.81	45855.78
569.97	46000.89
570.13	45940.04
570.30	45546.82
570.46	45720.02
570.62	45626.40
570.78	45752.79
570.95	45834.71
571.11	45965.78
571.27	45659.17
571.43	45886.20
571.60	45874.50
571.76	45918.97
571.92	46101.53
572.09	45947.06
572.25	45907.27
572.41	46248.99
572.57	45645.13
572.74	46705.39
572.90	46103.87
573.06	45947.06
573.22	45918.97
573.38	45635.77
573.55	45766.84
573.71	46241.96
573.87	45911.95
574.03	45764.49
574.20	46007.91
574.36	45790.24
574.52	46220.90
574.68	46295.80
574.84	46286.43
575.01	46461.97
575.17	45808.96
575.33	45918.97
575.49	46218.56
575.65	46412.82
575.82	46759.22
575.98	45975.14
576.14	46363.67
576.30	46141.32
576.46	46272.39
576.62	45984.51
576.79	46410.48
576.95	46078.13
577.11	45979.82
577.27	46256.01
577.43	45921.31
577.59	46380.06
577.75	46167.07
577.92	45951.74
578.08	45958.76
578.24	46094.51
578.40	45841.73
578.56	46230.26
578.72	45778.54
578.88	46389.42
579.04	46560.28
579.21	46366.01
579.37	46384.74
579.53	46019.61
579.69	46033.66
579.85	46167.07
580.01	46124.94
580.17	45989.19
580.33	46630.49
580.49	46576.66
580.65	46087.49
580.82	46309.84
580.98	46410.48
581.14	45841.73
581.30	46618.79
581.46	46113.23
581.62	46436.23
581.78	46333.24
581.94	46808.37
582.10	46246.65
582.26	46431.55
582.42	46295.80
582.58	46471.34
582.74	46146.00
582.90	46169.41
583.06	46370.69
583.22	46326.22
583.38	46555.60
583.54	46506.44
583.70	46611.77
583.86	46712.41
584.02	45956.42
584.18	46539.21
584.34	46377.72
584.50	46307.50
584.66	46466.66
584.82	46164.73
584.98	46504.10
585.14	46277.07
585.30	46223.24
585.46	46445.59
585.62	46230.26
585.78	46054.72
585.94	45691.94
586.10	46412.82
586.26	46305.16
586.42	46211.54
586.58	46614.11
586.74	46604.75
586.90	46141.32
587.06	46024.29
587.22	46562.62
587.38	45947.06
587.54	46176.43
587.70	46225.58
587.86	46347.29
588.02	45677.90
588.18	46478.36
588.34	46064.08
588.49	46099.19
588.65	45502.35
588.81	46094.51
588.97	45797.26
589.13	45717.68
589.29	45778.54
589.45	46234.94
589.61	46532.19
589.77	46349.63
589.93	46520.49
590.08	46632.83
590.24	46513.47
590.40	46464.32
590.56	46850.50
590.72	46373.03
590.88	46375.37
591.04	46363.67
591.20	46873.91
591.35	46529.85
591.51	46466.66
591.67	46597.73
591.83	46745.18
591.99	46190.47
592.15	46501.76
592.31	46770.93
592.46	46562.62
592.62	46445.59
592.78	46478.36
592.94	46953.49
593.10	46548.57
593.26	46239.62
593.41	46937.10
593.57	46288.77
593.73	46492.40
593.89	46520.49
594.05	46492.40
594.20	46560.28
594.36	46749.86
594.52	46424.53
594.68	46799.01
594.84	46850.50
594.99	46883.27
595.15	46354.31
595.31	46653.90
595.47	46546.23
595.62	46312.18
595.78	46536.87
595.94	46855.18
596.10	47054.13
596.25	46724.11
596.41	46909.02
596.57	46838.80
596.73	46689.01
596.88	46323.88
597.04	46391.76
597.20	46827.10
597.36	46476.02
597.51	46571.98
597.67	46782.63
597.83	46850.50
597.99	46679.64
598.14	46532.19
598.30	46894.97
598.46	46960.51
598.61	46689.01
598.77	46473.68
598.93	46883.27
599.09	46471.34
599.24	47192.22
599.40	47157.11
599.56	46930.08
599.71	46827.10
599.87	46534.53
600.03	46658.58
600.18	46838.80
600.34	46955.83
600.50	46630.49
600.65	46258.35
600.81	46653.90
600.97	46836.46
601.12	46848.16
601.28	46923.06
601.44	46827.10
601.59	46742.84
601.75	46501.76
601.91	46588.36
602.06	46347.29
602.22	46747.52
602.37	46602.41
602.53	46492.40
602.69	47159.45
602.84	46866.89
603.00	46555.60
603.16	46415.16
603.31	46358.99
603.47	46099.19
603.62	46206.86
603.78	46717.09
603.94	46712.41
604.09	46794.33
604.25	46595.38
604.40	46307.50
604.56	46813.05
604.71	46649.22
604.87	46611.77
605.03	46693.69
605.18	46635.17
605.34	46660.92
605.49	46101.53
605.65	46604.75
605.80	46485.38
605.96	46263.03
606.12	46581.34
606.27	46841.14
606.43	46279.41
606.58	46478.36
606.74	46387.08
606.89	46424.53
607.05	46410.48
607.20	46693.69
607.36	46679.64
607.51	46478.36
607.67	46204.52
607.82	46330.90
607.98	46258.35
608.13	46150.68
608.29	45914.29
608.44	45869.82
608.60	45853.44
608.75	45595.98
608.91	45748.11
609.06	45722.37
609.22	46351.97
609.37	46241.96
609.53	46330.90
609.68	46347.29
609.84	46012.59
609.99	46033.66
610.15	46028.98
610.30	46176.43
610.46	45600.66
610.61	45998.55
610.76	46361.33
610.92	45933.01
611.07	45844.07
611.23	45858.12
611.38	45703.64
611.54	45937.69
611.69	45485.97
611.84	45907.27
612.00	45532.78
612.15	45294.05
612.31	45324.47
612.46	45804.28
612.62	45345.54
612.77	45846.41
612.92	46021.95
613.08	45937.69
613.23	45921.31
613.39	45542.14
613.54	45478.95
613.69	46000.89
613.85	45504.70
614.00	45848.75
614.15	45743.43
614.31	45291.71
614.46	45752.79
614.62	45521.08
614.77	45722.37
614.92	45570.23
615.08	45249.58
615.23	45078.72
615.38	45167.66
615.54	45076.38
615.69	45485.97
615.84	45322.13
616.00	45237.87
616.15	45380.65
616.30	45268.30
616.46	44921.90
616.61	44779.13
616.76	45057.65
616.92	44870.41
617.07	45230.85
617.22	44823.60
617.37	44685.51
617.53	45170.00
617.68	45268.30
617.83	44964.03
617.99	45198.09
618.14	45272.98
618.29	45057.65
618.45	44641.04
618.60	44964.03
618.75	44882.11
618.90	44807.22
619.06	44790.83
619.21	45184.04
619.36	44769.77
619.51	44722.96
619.67	44786.15
619.82	44797.85
619.97	44975.73
620.12	44786.15
620.28	44839.98
620.43	44477.20
620.58	44350.81
620.73	44605.93
620.89	44605.93
621.04	44685.51
621.19	44615.29
621.34	44334.43
621.49	44254.85
621.65	44435.07
621.80	44547.42
621.95	44362.51
622.10	44046.54
622.25	44278.25
622.41	44343.79
622.56	44175.27
622.71	44381.24
622.86	44177.61
623.01	44245.49
623.16	44273.57
623.32	44186.97
623.47	44161.23
623.62	44144.84
623.77	44093.35
623.92	43969.30
624.07	44266.55
624.23	43330.34
624.38	43557.37
624.53	43580.78
624.68	44320.38
624.83	43683.76
624.98	43503.54
625.13	43828.87
625.29	43849.94
625.44	44013.77
625.59	43278.85
625.74	43210.97
625.89	43210.97
626.04	43508.22
626.19	43941.22
626.34	43398.21
626.49	43997.39
626.65	43716.53
626.80	43566.73
626.95	43161.82
627.10	43320.98
627.25	42796.70
627.40	42827.12
627.55	42574.34
627.70	42679.67
627.85	43112.67
628.00	42951.17
628.15	43157.14
628.30	43122.03
628.45	43674.40
628.60	42932.45
628.76	43065.86
628.91	43587.80
629.06	43157.14
629.21	43107.99
629.36	42787.33
629.51	42452.64
629.66	42604.77
629.81	42775.63
629.96	42579.03
630.11	42719.46
630.26	42969.90
630.41	43210.97
630.56	42721.80
630.71	42916.06
630.86	42895.00
631.01	42429.23
631.16	42391.78
631.31	42576.69
631.46	41832.39
631.61	42497.11
631.76	42527.53
631.91	42689.03
632.06	42457.32
632.21	42576.69
632.36	42653.92
632.51	42417.53
632.66	42298.16
632.81	42005.59
632.96	42176.45
633.10	42204.54
633.25	42103.90
633.40	42382.42
633.55	42333.27
633.70	41680.26
633.85	42410.51
634.00	42085.17
634.15	42012.62
634.30	42288.80
634.45	42141.35
634.60	42078.15
634.75	41954.10
634.90	41816.01
635.05	41783.24
635.19	42150.71
635.34	41958.78
635.49	42038.36
635.64	41888.57
635.79	41890.91
635.94	41717.71
636.09	41596.00
636.24	41759.84
636.39	41219.17
636.53	41415.78
636.68	41202.79
636.83	41888.57
636.98	41998.57
637.13	41483.66
637.28	41509.40
637.43	41455.57
637.57	41897.93
637.72	41729.41
637.87	41581.96
638.02	41696.64
638.17	41710.69
638.32	41516.42
638.46	41123.21
638.61	41291.73
638.76	40641.06
638.91	41230.88
639.06	41085.76
639.20	41200.45
639.35	41359.61
639.50	41610.04
639.65	41350.24
639.80	41120.87
639.94	41509.40
640.09	40868.09
640.24	40737.02
640.39	40732.34
640.54	40692.55
640.68	41015.55
640.83	41123.21
640.98	40467.86
641.13	41366.63
641.27	41064.70
641.42	40751.07
641.57	41141.94
641.72	40491.27
641.86	40629.36
642.01	40453.82
642.16	40208.06
642.31	39927.20
642.45	40444.46
642.60	40711.28
642.75	40238.49
642.90	40439.78
643.04	40203.38
643.19	40304.02
643.34	40135.51
643.48	40264.24
643.63	40423.39
643.78	40453.82
643.93	40383.60
644.07	39948.26
644.22	40304.02
644.37	40362.54
644.51	40275.94
644.66	40484.25
644.81	40203.38
644.95	40154.23
645.10	40074.65
645.25	40931.29
645.39	40357.86
645.54	40062.95
645.69	39845.28
645.83	39840.60
645.98	39683.78
646.13	40114.44
646.27	40208.06
646.42	39784.43
646.57	39920.18
646.71	40165.93
646.86	39700.17
647.00	39658.04
647.15	39716.55
647.30	39819.53
647.44	39370.15
647.59	39543.35
647.74	39519.95
647.88	39985.71
648.03	39688.46
648.17	40018.48
648.32	39187.59
648.47	39426.32
648.61	39206.31
648.76	39653.36
648.90	39531.65
649.05	39234.40
649.20	39562.08
649.34	39421.64
649.49	39281.21
649.63	39428.66
649.78	39283.55
649.92	39110.35
650.07	39936.56
650.21	39131.42
650.36	39409.94
650.51	39044.82
650.65	39466.11
650.80	39358.45
650.94	39421.64
651.09	39332.70
651.23	39269.51
651.38	39016.73
651.52	38684.37
651.67	39220.36
651.81	38902.04
651.96	39068.22
652.10	38913.75
652.25	38794.38
652.39	38923.11
652.54	38682.03
652.68	38852.89
652.83	38873.96
652.97	39042.48
653.12	38990.98
653.26	38466.70
653.41	38604.80
653.55	38792.04
653.70	38312.23
653.84	38658.63
653.99	38841.19
654.13	38382.45
654.27	38735.87
654.42	38134.35
654.56	38377.76
654.71	38281.80
654.85	38534.58
655.00	38508.83
655.14	37769.22
655.29	38087.54
655.43	37940.08
655.57	37928.38
655.72	38103.92
655.86	37841.78
656.01	37759.86
656.15	37029.62
656.30	37565.60
656.44	37523.47
656.58	37816.04
656.73	37741.14
656.87	37734.12
657.01	37989.24
657.16	37720.07
657.30	37670.92
657.45	37228.56
657.59	37598.37
657.73	37436.87
657.88	37401.76
658.02	37443.89
658.16	37673.26
658.31	37799.65
658.45	37895.61
658.60	37872.21
658.74	37607.73
658.88	37738.80
659.03	37029.62
659.17	37436.87
659.31	37383.04
659.46	36748.75
659.60	37481.34
659.74	37195.79
659.89	36891.52
660.03	36926.63
660.17	37214.52
660.32	36980.46
660.46	37376.01
660.60	36921.95
660.74	36945.36
660.89	36966.42
661.03	36732.37
661.17	36573.21
661.32	36547.47
661.46	36800.24
661.60	36961.74
661.74	36512.36
661.89	36589.59
662.03	36924.29
662.17	36547.47
662.31	36613.00
662.46	36517.04
662.60	36643.43
662.74	36444.48
662.88	36282.98
663.03	36624.70
663.17	36170.64
663.31	35653.38
663.45	36205.75
663.60	36306.39
663.74	36107.44
663.88	36065.31
664.02	35765.73
664.17	36215.11
664.31	35498.91
664.45	35510.61
664.59	35660.40
664.73	35742.32
664.88	35714.23
665.02	35459.12
665.16	35662.74
665.30	35328.05
665.44	35290.60
665.59	35349.11
665.73	35196.98
665.87	35409.96
666.01	35683.81
666.15	35131.44
666.29	35075.27
666.44	35168.89
666.58	34494.82
666.72	34735.89
666.86	35189.95
667.00	35143.14
667.14	34735.89
667.28	34869.30
667.43	34579.07
667.57	34455.03
667.71	34455.03
667.85	34242.04
667.99	34408.22
668.13	34710.14
668.27	34272.46
668.41	34359.06
668.56	34740.57
668.70	34499.50
668.84	34464.39
668.98	33860.53
669.12	34094.58
669.26	34548.65
669.40	33940.11
669.54	33652.22
669.68	33724.78
669.82	33708.40
669.96	33947.13
670.10	33577.33
670.25	33844.15
670.39	34047.77
670.53	33633.50
670.67	33266.03
670.81	33638.18
670.95	33153.69
671.09	33530.51
671.23	33507.11
671.37	33654.56
671.51	33141.99
671.65	32947.72
671.79	32510.04
671.93	32858.78
672.07	32706.65
672.21	33244.97
672.35	32854.10
672.49	32573.24
672.63	33160.71
672.77	32404.72
672.91	32418.76
673.05	32374.29
673.19	31985.76
673.33	32121.51
673.47	32135.56
673.61	32004.49
673.75	32046.62
673.89	31592.55
674.03	31590.21
674.17	31835.97
674.31	31983.42
674.45	31435.74
674.59	31278.92
674.73	31978.74
674.87	31543.40
675.01	30913.80
675.15	31814.90
675.29	31208.70
675.43	31246.15
675.56	31421.69
675.70	31082.31
675.84	31009.76
675.98	30106.31
676.12	30817.83
676.26	30518.25
676.40	30972.31
676.54	30202.27
676.68	30752.30
676.82	29621.82
676.96	30213.98
677.10	29853.53
677.23	30110.99
677.37	30043.12
677.51	30211.64
677.65	29696.72
677.79	29500.11
677.93	29570.33
678.07	29699.06
678.21	29369.04
678.34	29715.44
678.48	29289.46
678.62	29144.35
678.76	29242.65
678.90	28961.79
679.04	29237.97
679.18	29132.65
679.31	28961.79
679.45	28699.65
679.59	28034.94
679.73	28130.90
679.87	28301.76
680.00	28325.16
680.14	28528.79
680.28	28245.58
680.42	27779.82
680.56	28081.75
680.70	28018.55
680.83	27950.68
680.97	27672.15
681.11	27800.88
681.25	27358.52
681.39	27948.34
681.52	27915.57
681.66	27665.13
681.80	27477.89
681.94	27180.64
682.07	27241.50
682.21	27288.31
682.35	27175.96
682.49	27269.58
682.62	27089.36
682.76	26768.71
682.90	26485.50
683.04	26398.90
683.17	26190.59
683.31	26466.78
683.45	26108.68
683.59	26396.56
683.72	26012.71
683.86	26139.10
684.00	25235.66
684.13	25841.85
684.27	26019.74
684.41	25766.96
684.55	25516.52
684.68	25736.53
684.82	25420.56
684.96	25413.54
685.09	25207.57
685.23	25216.93
685.37	25338.64
685.50	25060.12
685.64	25062.46
685.78	24673.93
685.91	24959.47
686.05	24458.60
686.19	24507.75
686.32	24367.32
686.46	24088.79
686.60	23850.06
686.73	24135.60
686.87	23644.09
687.01	23721.33
687.14	23473.23
687.28	23234.50
687.42	23456.85
687.55	23494.30
687.69	23440.47
687.82	23309.40
687.96	23342.16
688.10	23051.94
688.23	23178.33
688.37	23089.38
688.50	22527.66
688.64	23098.75
688.78	22560.42
688.91	22808.52
689.05	22735.96
689.18	22951.29
689.32	22099.34
689.46	22242.11
689.59	22644.68
689.73	22207.00
689.86	22331.05
690.00	21689.74
690.13	21984.65
690.27	22022.10
690.41	21979.97
690.54	21443.99
690.68	21549.31
690.81	21582.08
690.95	21273.13
691.08	21336.32
691.22	21446.33
691.35	21502.50
691.49	21523.57
691.62	21561.02
691.76	21188.87
691.89	21399.52
692.03	20601.40
692.16	20418.83
692.30	20676.29
692.43	20695.02
692.57	20482.03
692.70	20573.31
692.84	20383.73
692.97	20128.61
693.11	20315.85
693.24	20034.99
693.38	20128.61
693.51	19775.19
693.65	19985.83
693.78	20126.27
693.92	20168.40
694.05	19779.87
694.19	19840.72
694.32	19814.98
694.45	19499.00
694.59	19283.67
694.72	19225.16
694.86	19246.23
694.99	19342.19
695.13	19131.54
695.26	19023.87
695.39	18916.21
695.53	18932.59
695.66	18637.69
695.80	18373.21
695.93	18305.33
696.07	18523.00
696.20	18604.92
696.33	18340.44
696.47	18377.89
696.60	18106.38
696.73	18181.28
696.87	18073.62
697.00	18080.64
697.14	17907.44
697.27	18050.21
697.40	17926.16
697.54	17954.25
697.67	17664.02
697.80	17886.37
697.94	17563.38
698.07	17249.75
698.21	17561.04
698.34	17530.61
698.47	17338.69
698.61	17043.78
698.74	16989.95
698.87	16886.97
699.01	16751.21
699.14	16556.95
699.27	16744.19
699.40	16386.09
699.54	16451.63
699.67	16343.96
699.80	16486.73
699.94	16222.25
700.07	16098.20
700.20	16325.24
700.34	16142.67
700.47	16119.27
700.60	16269.06
700.73	16407.16
700.87	16039.69
701.00	16039.69
701.13	15962.45
701.26	15915.64
701.40	15513.07
701.53	15449.88
701.66	15344.55
701.79	15454.56
701.93	15229.87
702.06	15358.60
702.19	15236.89
702.32	15438.17
702.46	15138.58
702.59	15084.75
702.72	15033.26
702.85	14913.89
702.99	14958.36
703.12	14974.75
703.25	14736.01
703.38	14532.39
703.51	14689.20
703.65	14499.62
703.78	14698.56
703.91	14518.34
704.04	14698.56
704.17	14389.61
704.31	14235.14
704.44	14136.84
704.57	13937.89
704.70	14127.47
704.83	14038.53
704.96	14019.81
705.10	14059.60
705.23	14141.52
>>>>>End Processed Spectral Data<<<<<
