SpectraSuite Data File
++++++++++++++++++++++++++++++++++++
Date: Fri Oct 25 11:33:17 EDT 2013
User: price-jones
Dark Spectrum Present: No
Reference Spectrum Present: No
Number of Sampled Component Spectra: 1
Spectrometers: USB2+H05261
Integration Time (usec): 100000 (USB2+H05261)
Spectra Averaged: 1 (USB2+H05261)
Boxcar Smoothing: 0 (USB2+H05261)
Correct for Electrical Dark: No (USB2+H05261)
Strobe/Lamp Enabled: No (USB2+H05261)
Correct for Detector Non-linearity: No (USB2+H05261)
Correct for Stray Light: No (USB2+H05261)
Number of Pixels in Processed Spectrum: 2048
>>>>>Begin Processed Spectral Data<<<<<
365.73	229.37
365.92	229.37
366.12	229.37
366.32	184.90
366.52	175.54
366.72	234.05
366.91	159.16
367.11	161.50
367.31	149.79
367.51	79.58
367.70	147.45
367.90	156.82
368.10	145.11
368.30	168.52
368.49	128.73
368.69	189.58
368.89	215.33
369.09	205.97
369.28	166.18
369.48	203.63
369.68	215.33
369.87	287.89
370.07	259.80
370.27	301.93
370.47	294.91
370.66	447.04
370.86	585.13
371.06	568.75
371.25	552.37
371.45	547.69
371.65	568.75
371.84	545.34
372.04	603.86
372.24	503.22
372.44	554.71
372.63	709.18
372.83	624.92
373.03	596.84
373.22	564.07
373.42	543.00
373.62	716.20
373.81	589.82
374.01	620.24
374.21	608.54
374.40	645.99
374.60	596.84
374.79	685.78
374.99	629.60
375.19	627.26
375.38	676.41
375.58	645.99
375.78	664.71
375.97	674.07
376.17	589.82
376.37	699.82
376.56	699.82
376.76	681.10
376.95	650.67
377.15	657.69
377.35	702.16
377.54	695.14
377.74	664.71
377.93	650.67
378.13	748.97
378.33	734.93
378.52	678.76
378.72	732.59
378.91	655.35
379.11	697.48
379.31	753.65
379.50	704.50
379.70	709.18
379.89	755.99
380.09	690.46
380.28	706.84
380.48	725.57
380.68	695.14
380.87	746.63
381.07	786.42
381.26	812.17
381.46	823.87
381.65	737.27
381.85	748.97
382.04	786.42
382.24	706.84
382.43	807.48
382.63	685.78
382.83	751.31
383.02	828.55
383.22	784.08
383.41	697.48
383.61	791.10
383.80	938.55
384.00	788.76
384.19	835.57
384.39	823.87
384.58	772.38
384.78	812.17
384.97	844.93
385.17	802.80
385.36	741.95
385.56	739.61
385.75	819.19
385.95	800.46
386.14	887.06
386.34	816.85
386.53	854.30
386.72	870.68
386.92	896.43
387.11	887.06
387.31	887.06
387.50	882.38
387.70	903.45
387.89	915.15
388.09	887.06
388.28	954.94
388.48	882.38
388.67	901.11
388.86	943.24
389.06	1022.81
389.25	929.19
389.45	950.26
389.64	889.40
389.84	1025.15
390.03	924.51
390.22	994.73
390.42	980.68
390.61	1004.09
390.81	964.30
391.00	1008.77
391.19	1055.58
391.39	983.02
391.58	1039.20
391.78	1064.94
391.97	1006.43
392.16	1025.15
392.36	1095.37
392.55	1060.26
392.75	1118.78
392.94	1001.75
393.13	1053.24
393.33	1111.75
393.52	1086.01
393.71	1069.62
393.91	1116.44
394.10	1008.77
394.29	994.73
394.49	1078.99
394.68	1095.37
394.88	1107.07
395.07	1167.93
395.26	1111.75
395.46	1132.82
395.65	1191.33
395.84	1219.42
396.04	1263.89
396.23	1210.06
396.42	1210.06
396.62	1296.66
396.81	1221.76
397.00	1212.40
397.19	1228.78
397.39	1303.68
397.58	1399.64
397.77	1249.85
397.97	1275.59
398.16	1320.06
398.35	1294.32
398.55	1219.42
398.74	1289.64
398.93	1338.79
399.12	1294.32
399.32	1270.91
399.51	1306.02
399.70	1430.07
399.90	1380.92
400.09	1369.21
400.28	1357.51
400.47	1362.19
400.67	1373.89
400.86	1434.75
401.05	1444.11
401.24	1383.26
401.44	1458.15
401.63	1467.52
401.82	1430.07
402.01	1432.41
402.21	1497.94
402.40	1577.52
402.59	1458.15
402.78	1551.78
402.97	1392.62
403.17	1605.61
403.36	1537.73
403.55	1544.75
403.74	1610.29
403.93	1685.19
404.13	1664.12
404.32	1673.48
404.51	1626.67
404.70	1694.55
404.89	1701.57
405.09	1666.46
405.28	1640.72
405.47	1570.50
405.66	1851.36
405.85	1685.19
406.05	1654.76
406.24	1753.06
406.43	1816.26
406.62	1809.23
406.81	1802.21
407.00	1792.85
407.20	1785.83
407.39	1809.23
407.58	1898.17
407.77	1872.43
407.96	1909.88
408.15	1905.20
408.34	1874.77
408.54	1877.11
408.73	1872.43
408.92	1989.46
409.11	2008.18
409.30	1921.58
409.49	1989.46
409.68	1973.07
409.87	1956.69
410.07	2062.01
410.26	2113.50
410.45	2066.69
410.64	2036.27
410.83	2214.15
411.02	2207.13
411.21	2202.44
411.40	2195.42
411.59	2202.44
411.78	2134.57
411.98	2260.96
412.17	2218.83
412.36	2298.41
412.55	2270.32
412.74	2263.30
412.93	2324.15
413.12	2253.94
413.31	2485.65
413.50	2431.82
413.69	2443.52
413.88	2450.54
414.07	2520.76
414.26	2576.93
414.45	2551.18
414.64	2530.12
414.83	2553.52
415.02	2626.08
415.22	2602.68
415.41	2717.36
415.60	2672.89
415.79	2808.64
415.98	2818.00
416.17	2752.47
416.36	2825.03
416.55	2736.09
416.74	2792.26
416.93	2766.51
417.12	2827.37
417.31	2803.96
417.50	2892.90
417.69	3068.44
417.88	2860.13
418.07	2825.03
418.26	3049.72
418.45	2972.48
418.64	3052.06
418.83	3103.55
419.02	3229.94
419.21	3251.00
419.39	3197.17
419.58	3040.36
419.77	3112.91
419.96	3199.51
420.15	3126.96
420.34	3293.13
420.53	3232.28
420.72	3248.66
420.91	3222.92
421.10	3316.54
421.29	3222.92
421.48	3417.18
421.67	3424.20
421.86	3281.43
422.05	3346.97
422.24	3232.28
422.43	3279.09
422.61	3321.22
422.80	3321.22
422.99	3375.05
423.18	3398.46
423.37	3522.51
423.56	3407.82
423.75	3478.04
423.94	3255.69
424.13	3225.26
424.32	3159.72
424.50	3377.39
424.69	3616.13
424.88	3485.06
425.07	3449.95
425.26	3463.99
425.45	3496.76
425.64	3463.99
425.83	3421.86
426.01	3452.29
426.20	3506.12
426.39	3606.77
426.58	3592.72
426.77	3487.40
426.96	3538.89
427.15	3613.79
427.33	3646.55
427.52	3646.55
427.71	3632.51
427.90	3590.38
428.09	3698.05
428.28	3808.05
428.46	3747.20
428.65	3655.92
428.84	3824.44
429.03	3768.26
429.22	3754.22
429.40	3728.47
429.59	3812.73
429.78	3627.83
429.97	3646.55
430.16	3763.58
430.34	3845.50
430.53	3878.27
430.72	3913.38
430.91	3922.74
431.10	3974.23
431.28	3878.27
431.47	3969.55
431.66	4070.19
431.85	3946.14
432.03	3960.19
432.22	4105.30
432.41	4182.54
432.60	4037.42
432.79	4067.85
432.97	4107.64
433.16	4109.98
433.35	4098.28
433.54	4191.90
433.72	4280.84
433.91	4212.96
434.10	4315.95
434.28	4131.05
434.47	4149.77
434.66	4205.94
434.85	4327.65
435.03	4358.08
435.22	4421.27
435.41	4589.79
435.59	4447.02
435.78	4383.82
435.97	4557.02
436.16	4355.74
436.34	4346.37
436.53	4575.75
436.72	4592.13
436.90	4404.89
437.09	4493.83
437.28	4496.17
437.46	4379.14
437.65	4575.75
437.84	4795.76
438.02	4732.56
438.21	4772.35
438.40	4606.17
438.58	4826.18
438.77	4919.81
438.96	4730.22
439.14	4805.12
439.33	4849.59
439.52	4945.55
439.70	5078.96
439.89	5032.15
440.08	5048.54
440.26	5111.73
440.45	5083.64
440.63	5156.20
440.82	5252.16
441.01	5275.57
441.19	5231.10
441.38	5249.82
441.57	5280.25
441.75	5280.25
441.94	5357.49
442.12	5401.96
442.31	5495.58
442.50	5397.28
442.68	5397.28
442.87	5416.00
443.05	5603.24
443.24	5610.26
443.43	5636.01
443.61	5586.86
443.80	5795.17
443.98	5451.11
444.17	5341.10
444.35	5479.19
444.54	5673.46
444.73	5760.06
444.91	5668.78
445.10	5657.07
445.28	5776.44
445.47	5680.48
445.65	5591.54
445.84	5701.54
446.02	5818.57
446.21	5710.91
446.39	5839.64
446.58	5804.53
446.77	5760.06
446.95	5785.80
447.14	5654.73
447.32	5905.17
447.51	5874.74
447.69	5802.19
447.88	5790.49
448.06	5682.82
448.25	5743.67
448.43	5804.53
448.62	5874.74
448.80	5905.17
448.99	5806.87
449.17	6047.94
449.36	5937.94
449.54	6087.73
449.73	6146.25
449.91	6235.19
450.10	6040.92
450.28	6239.87
450.46	6225.82
450.65	6101.78
450.83	6195.40
451.02	6183.70
451.20	6136.88
451.39	6146.25
451.57	6162.63
451.76	6174.33
451.94	6314.77
452.13	6333.49
452.31	6314.77
452.49	6260.93
452.68	6436.47
452.86	6347.53
453.05	6520.73
453.23	6413.07
453.42	6349.87
453.60	6321.79
453.78	6441.15
453.97	6457.54
454.15	6499.67
454.34	6457.54
454.52	6700.95
454.70	6682.23
454.89	6588.61
455.07	6750.10
455.26	6633.08
455.44	6820.32
455.62	6670.53
455.81	6609.67
455.99	6876.49
456.17	6768.83
456.36	6885.86
456.54	6909.26
456.73	6874.15
456.91	7054.37
457.09	7248.64
457.28	7187.79
457.46	6956.07
457.64	6984.16
457.83	7080.12
458.01	7166.72
458.19	7192.47
458.38	7157.36
458.56	7353.96
458.74	7297.79
458.93	7037.99
459.11	7328.22
459.29	7243.96
459.48	7421.84
459.66	7246.30
459.84	7398.43
460.03	7386.73
460.21	7442.90
460.39	7433.54
460.57	7552.91
460.76	7569.29
460.94	7573.97
461.12	7801.01
461.31	7669.94
461.49	7480.35
461.67	7522.48
461.85	7761.22
462.04	7583.34
462.22	7873.56
462.40	7808.03
462.59	7761.22
462.77	7868.88
462.95	7943.78
463.13	7943.78
463.32	7999.95
463.50	8035.06
463.68	8049.10
463.86	8065.49
464.05	8056.12
464.23	8044.42
464.41	7964.84
464.59	8114.64
464.78	8224.64
464.96	7943.78
465.14	7929.74
465.32	8191.88
465.50	8184.85
465.69	8243.37
465.87	8119.32
466.05	8283.16
466.23	8248.05
466.41	8238.69
466.60	8276.13
466.78	8252.73
466.96	8304.22
467.14	8367.42
467.32	8243.37
467.51	8402.52
467.69	8189.53
467.87	8498.49
468.05	8561.68
468.23	8524.23
468.41	8358.05
468.60	8545.30
468.78	8652.96
468.96	8582.74
469.14	8449.33
469.32	8837.86
469.50	8643.60
469.69	8739.56
469.87	8844.88
470.05	8779.35
470.23	8842.54
470.41	8774.67
470.59	9046.17
470.77	8706.79
470.95	8964.25
471.14	9100.00
471.32	8833.18
471.50	9261.50
471.68	9102.34
471.86	9210.01
472.04	9245.12
472.22	9256.82
472.40	8978.30
472.58	9270.86
472.77	9420.66
472.95	9390.23
473.13	9743.65
473.31	9348.10
473.49	9502.58
473.67	9516.62
473.85	9872.38
474.03	9713.22
474.21	9783.44
474.39	9762.37
474.57	9788.12
474.75	9966.00
474.93	10052.60
475.12	10068.98
475.30	9956.64
475.48	9982.38
475.66	10090.05
475.84	10162.61
476.02	10214.10
476.20	10279.63
476.38	10581.56
476.56	10647.10
476.74	10871.79
476.92	10616.67
477.10	10436.45
477.28	10586.24
477.46	10881.15
477.64	10892.85
477.82	11021.58
478.00	11112.86
478.18	11398.41
478.36	11222.87
478.54	11346.92
478.72	11587.99
478.90	11403.09
479.08	11576.29
479.26	11950.78
479.44	11885.24
479.62	11719.06
479.80	12159.08
479.98	11906.31
480.16	12269.09
480.34	12156.74
480.52	12306.54
480.70	12741.88
480.88	12395.48
481.06	12461.01
481.24	12685.70
481.41	12842.52
481.59	12809.75
481.77	13004.02
481.95	13027.42
482.13	13142.11
482.31	13170.19
482.49	13509.57
482.67	13715.54
482.85	13472.12
483.03	13582.13
483.21	13645.32
483.39	13942.57
483.57	14031.51
483.74	14328.76
483.92	14305.35
484.10	14162.58
484.28	14366.21
484.46	14576.86
484.64	14836.66
484.82	14754.74
485.00	14782.82
485.18	15000.49
485.35	15002.83
485.53	14848.36
485.71	15302.42
485.89	15386.68
486.07	15304.76
486.25	15578.61
486.43	15943.73
486.61	15946.07
486.78	16170.76
486.96	16051.39
487.14	16343.96
487.32	16313.53
487.50	16500.78
487.68	16456.31
487.85	16971.22
488.03	16783.98
488.21	16915.05
488.39	16987.61
488.57	17130.38
488.75	17277.83
488.92	17322.30
489.10	17837.22
489.28	17748.28
489.46	18113.41
489.64	17909.78
489.81	18391.93
489.99	18363.84
490.17	18225.75
490.35	18726.63
490.53	18558.11
490.70	18698.54
490.88	18487.89
491.06	19012.17
491.24	19304.74
491.41	19218.14
491.59	19309.42
491.77	19304.74
491.95	19662.84
492.13	19711.99
492.30	19747.10
492.48	19829.02
492.66	20102.86
492.84	20236.27
493.01	20334.57
493.19	20716.08
493.37	20524.16
493.54	20425.86
493.72	20966.52
493.90	20872.90
494.08	20891.62
494.25	21383.13
494.43	21027.37
494.61	21607.83
494.79	21563.36
494.96	21750.60
495.14	21708.47
495.32	21968.27
495.49	21928.48
495.67	21954.22
495.85	22403.61
496.02	22373.18
496.20	22689.15
496.38	22455.10
496.55	22731.28
496.73	22958.31
496.91	22806.18
497.09	22876.40
497.26	23080.02
497.44	23328.12
497.62	23396.00
497.79	23742.39
497.97	23555.15
498.14	23426.42
498.32	24159.01
498.50	23915.59
498.67	24446.90
498.85	24608.39
499.03	24149.65
499.20	24292.42
499.38	24395.40
499.56	24645.84
499.73	24364.98
499.91	24711.38
500.08	24926.71
500.26	24854.15
500.44	25242.68
500.61	25263.74
500.79	25034.37
500.97	25458.01
501.14	25722.49
501.32	25310.55
501.49	25851.22
501.67	25593.76
501.84	25853.56
502.02	25755.26
502.20	25825.47
502.37	26120.38
502.55	25785.68
502.72	26195.28
502.90	26043.14
503.07	25750.57
503.25	26441.03
503.43	26567.42
503.60	26263.15
503.78	26773.39
503.95	26490.18
504.13	27026.17
504.30	26822.54
504.48	26918.50
504.65	27199.37
504.83	27351.50
505.01	27651.09
505.18	27417.04
505.36	27896.85
505.53	27440.44
505.71	27489.59
505.88	27899.19
506.06	27632.36
506.23	27913.23
506.41	27733.01
506.58	27889.82
506.76	28060.68
506.93	28313.46
507.11	28137.92
507.28	28727.74
507.46	28280.69
507.63	28596.67
507.81	28978.17
507.98	28362.61
508.16	28842.42
508.33	29032.00
508.50	28830.72
508.68	28833.06
508.85	29104.56
509.03	29525.86
509.20	29064.77
509.38	29319.89
509.55	29579.69
509.73	29628.84
509.90	29596.07
510.08	29502.45
510.25	29500.11
510.42	29926.09
510.60	29689.70
510.77	30459.73
510.95	30494.84
511.12	30230.36
511.30	30513.56
511.47	30494.84
511.64	30541.65
511.82	30834.22
511.99	30621.23
512.17	30616.55
512.34	30742.94
512.51	31204.02
512.69	31056.57
512.86	30962.95
513.04	31283.60
513.21	31466.16
513.38	31613.62
513.56	31075.29
513.73	31304.67
513.90	30948.90
514.08	31360.84
514.25	31882.78
514.43	32013.85
514.60	31821.92
514.77	31470.84
514.95	32158.96
515.12	32023.21
515.29	31931.93
515.47	32098.11
515.64	32437.48
515.81	32109.81
515.99	32114.49
516.16	32924.32
516.33	32514.72
516.51	32938.36
516.68	32500.68
516.85	32741.75
517.03	32730.05
517.20	33102.20
517.37	33015.60
517.54	32917.29
517.72	33205.18
517.89	33053.05
518.06	33188.80
518.24	33462.64
518.41	33249.65
518.58	33399.44
518.75	33401.79
518.93	33528.17
519.10	33572.64
519.27	33902.66
519.45	33762.23
519.62	34043.09
519.79	34293.53
519.96	34066.50
520.14	34075.86
520.31	33858.19
520.48	33905.00
520.65	34326.30
520.83	34747.59
521.00	35054.20
521.17	34611.84
521.34	34822.49
521.52	34728.87
521.69	34890.37
521.86	35016.75
522.03	35314.00
522.20	35201.66
522.38	35208.68
522.55	35386.56
522.72	35388.90
522.89	35470.82
523.07	35615.93
523.24	35295.28
523.41	35400.60
523.58	35515.29
523.75	35646.36
523.92	35784.45
524.10	35990.42
524.27	36020.84
524.44	35852.33
524.61	35995.10
524.78	36392.99
524.96	35995.10
525.13	36343.84
525.30	36498.31
525.47	36514.70
525.64	36713.64
525.81	36371.92
525.98	36793.22
526.16	36954.72
526.33	36732.37
526.50	36807.26
526.67	36931.31
526.84	37029.62
527.01	36804.92
527.18	36907.91
527.36	36825.99
527.53	37214.52
527.70	37818.38
527.87	37324.52
528.04	37703.69
528.21	37127.92
528.38	37413.46
528.55	37628.79
528.72	37577.30
528.89	37261.33
529.07	37642.84
529.24	37174.73
529.41	37958.81
529.58	37888.59
529.75	37357.29
529.92	38026.68
530.09	38206.90
530.26	38005.62
530.43	37926.04
530.60	37867.53
530.77	38047.75
530.94	38499.47
531.11	38045.41
531.28	38375.42
531.46	38204.56
531.63	38621.18
531.80	38698.42
531.97	38471.39
532.14	38637.56
532.31	38759.27
532.48	38866.94
532.65	39026.09
532.82	38965.24
532.99	39342.06
533.16	39014.39
533.33	39234.40
533.50	39037.80
533.67	38972.26
533.84	39402.92
534.01	39143.12
534.18	39187.59
534.35	39615.91
534.52	39299.94
534.69	39545.69
534.86	39496.54
535.03	39587.82
535.20	40116.78
535.37	39641.65
535.54	39913.16
535.71	39803.15
535.88	40151.89
536.05	39718.89
536.22	40301.68
536.38	39803.15
536.55	39878.05
536.72	40212.74
536.89	39971.67
537.06	40170.61
537.23	40540.42
537.40	39821.87
537.57	40285.30
537.74	40051.25
537.91	40879.80
538.08	40507.65
538.25	40313.39
538.42	40442.12
538.59	41207.47
538.75	40414.03
538.92	40849.37
539.09	41083.42
539.26	40776.81
539.43	40772.13
539.60	40786.18
539.77	41111.51
539.94	41500.04
540.11	40996.82
540.28	41280.03
540.44	41130.23
540.61	40849.37
540.78	41163.00
540.95	41186.41
541.12	41528.13
541.29	41209.81
541.46	41596.00
541.62	41352.58
541.79	41584.30
541.96	41167.68
542.13	41127.89
542.30	41764.52
542.47	41680.26
542.63	41750.48
542.80	41811.33
542.97	42848.19
543.14	42314.55
543.31	42101.56
543.48	42401.14
543.64	42600.09
543.81	42478.38
543.98	42302.84
544.15	42405.83
544.32	42604.77
544.48	42747.54
544.65	42258.37
544.82	43098.62
544.99	42408.17
545.16	43042.45
545.32	42714.78
545.49	43199.27
545.66	43215.65
545.83	43187.56
546.00	43592.48
546.16	42604.77
546.33	42944.15
546.50	42508.81
546.67	43175.86
546.83	42981.60
547.00	43019.05
547.17	43070.54
547.34	43295.23
547.50	43283.53
547.67	43814.83
547.84	43313.95
548.00	43695.46
548.17	43892.07
548.34	43353.74
548.51	43625.25
548.67	43615.88
548.84	43447.36
549.01	43889.73
549.18	43585.46
549.34	44051.22
549.51	44002.07
549.68	43660.35
549.84	43669.72
550.01	44098.03
550.18	43449.70
550.34	43814.83
550.51	44491.24
550.68	44238.47
550.84	43672.06
551.01	44144.84
551.18	44175.27
551.34	43840.57
551.51	44339.11
551.68	44268.89
551.84	44421.03
552.01	44112.08
552.18	44147.18
552.34	44179.95
552.51	44329.75
552.68	44247.83
552.84	44568.48
553.01	44942.97
553.18	44605.93
553.34	44854.03
553.51	44699.55
553.67	44945.31
553.84	45116.17
554.01	44615.29
554.17	44842.32
554.34	45062.33
554.51	44903.18
554.67	44954.67
554.84	45364.26
555.00	44968.71
555.17	45233.19
555.33	45034.25
555.50	45233.19
555.67	45106.80
555.83	44968.71
556.00	45223.83
556.16	45806.62
556.33	44938.29
556.50	45223.83
556.66	45118.51
556.83	45277.66
556.99	45668.53
557.16	45256.60
557.32	45565.55
557.49	45776.20
557.65	45497.67
557.82	45305.75
557.98	45457.88
558.15	45560.87
558.32	45521.08
558.48	45504.70
558.65	45799.60
558.81	45638.11
558.98	45296.39
559.14	45682.58
559.31	45663.85
559.47	45743.43
559.64	46078.13
559.80	46155.36
559.97	46068.76
560.13	45558.53
560.30	45745.77
560.46	46089.83
560.63	46192.81
560.79	46110.89
560.96	46253.67
561.12	46169.41
561.29	46188.13
561.45	46155.36
561.61	46223.24
561.78	45703.64
561.94	45916.63
562.11	46138.98
562.27	46293.46
562.44	46094.51
562.60	46108.55
562.77	46024.29
562.93	46103.87
563.10	46607.09
563.26	46354.31
563.42	46930.08
563.59	46450.27
563.75	45942.38
563.92	45883.86
564.08	45998.55
564.24	46705.39
564.41	46536.87
564.57	46562.62
564.74	46686.67
564.90	46340.27
565.07	46366.01
565.23	45961.10
565.39	46487.72
565.56	46075.79
565.72	46731.14
565.88	46550.91
566.05	46644.54
566.21	46845.82
566.38	46546.23
566.54	46593.04
566.70	46836.46
566.87	46789.65
567.03	46459.63
567.19	46557.94
567.36	46473.68
567.52	46686.67
567.68	47220.31
567.85	46969.87
568.01	47367.76
568.17	47253.08
568.34	46873.91
568.50	46972.21
568.66	46532.19
568.83	46787.31
568.99	47147.75
569.15	46862.21
569.32	46588.36
569.48	47140.73
569.64	47288.18
569.81	47012.00
569.97	46838.80
570.13	46967.53
570.30	46658.58
570.46	46871.57
570.62	47356.06
570.78	47253.08
570.95	46920.72
571.11	47028.38
571.27	46913.70
571.43	47351.38
571.60	47037.75
571.76	47129.03
571.92	47213.29
572.09	47173.50
572.25	47033.07
572.41	46979.23
572.57	47112.64
572.74	47519.90
572.90	47416.91
573.06	47260.10
573.22	47267.12
573.38	47316.27
573.55	47332.65
573.71	47217.97
573.87	47229.67
574.03	47510.53
574.20	47620.54
574.36	47381.80
574.52	47325.63
574.68	47475.43
574.84	47334.99
575.01	47728.20
575.17	47557.35
575.33	47402.87
575.49	46932.42
575.65	47395.85
575.82	47271.80
575.98	47192.22
576.14	47718.84
576.30	48032.47
576.46	47353.72
576.62	47152.43
576.79	47452.02
576.95	47182.86
577.11	46981.57
577.27	47494.15
577.43	47452.02
577.59	47636.92
577.75	47061.15
577.92	46983.91
578.08	47487.13
578.24	47611.18
578.40	47697.78
578.56	47393.51
578.72	47292.86
578.88	47505.85
579.04	47866.30
579.21	47370.10
579.37	47852.25
579.53	47718.84
579.69	47360.74
579.85	47480.11
580.01	47805.44
580.17	48034.81
580.33	47782.04
580.49	47917.79
580.65	47693.10
580.82	47653.31
580.98	47381.80
581.14	47522.24
581.30	47735.23
581.46	47503.51
581.62	47653.31
581.78	47728.20
581.94	47665.01
582.10	47437.98
582.26	47690.76
582.42	47723.52
582.58	47657.99
582.74	48044.18
582.90	47796.08
583.06	47753.95
583.22	47599.47
583.38	47524.58
583.54	47625.22
583.70	47613.52
583.86	47302.23
584.02	47540.96
584.18	47695.44
584.34	47791.40
584.50	47995.03
584.66	47868.64
584.82	47650.97
584.98	48212.70
585.14	47660.33
585.30	47735.23
585.46	47978.64
585.62	47775.02
585.78	47870.98
585.94	47758.63
586.10	47866.30
586.26	47540.96
586.42	47377.12
586.58	47669.69
586.74	47798.42
586.90	47753.95
587.06	47763.31
587.22	47732.89
587.38	47594.79
587.54	48086.31
587.70	47978.64
587.86	48215.04
588.02	47908.43
588.18	47878.00
588.34	47854.59
588.49	47943.53
588.65	47992.68
588.81	48020.77
588.97	48041.84
589.13	47636.92
589.29	47697.78
589.45	48404.62
589.61	47922.47
589.77	48364.83
589.93	47927.15
590.08	48257.17
590.24	48222.06
590.40	48563.78
590.56	48439.73
590.72	48229.08
590.88	48123.75
591.04	47922.47
591.20	48278.23
591.35	48107.37
591.51	48617.61
591.67	48631.65
591.83	48938.26
591.99	48254.82
592.15	48222.06
592.31	47962.26
592.46	48318.02
592.62	48439.73
592.78	48535.69
592.94	48446.75
593.10	48411.64
593.26	48362.49
593.41	48673.78
593.57	48411.64
593.73	48175.25
593.89	48556.75
594.05	48767.40
594.20	48650.38
594.36	48956.99
594.52	48477.18
594.68	48547.39
594.84	48198.65
594.99	48526.33
595.15	48320.36
595.31	48823.58
595.47	48205.67
595.62	48762.72
595.78	48355.47
595.94	48589.52
596.10	48332.06
596.25	48243.12
596.41	48341.42
596.57	48219.72
596.73	48704.21
596.88	48423.34
597.04	48575.48
597.20	48582.50
597.36	48816.55
597.51	48755.70
597.67	48591.86
597.83	48371.85
597.99	48879.75
598.14	48495.90
598.30	48435.05
598.46	48554.41
598.61	48753.36
598.77	48893.79
598.93	48535.69
599.09	48760.38
599.24	49165.29
599.40	48718.25
599.56	48669.10
599.71	49055.29
599.87	48973.37
600.03	48919.54
600.18	49001.46
600.34	48545.05
600.50	48722.93
600.65	48879.75
600.81	48751.02
600.97	49336.15
601.12	48783.79
601.28	48844.64
601.44	48673.78
601.59	48463.13
601.75	48638.67
601.91	48875.07
602.06	48617.61
602.22	48493.56
602.37	48680.80
602.53	48931.24
602.69	48720.59
602.84	48762.72
603.00	48500.58
603.16	48662.08
603.31	48828.26
603.47	48652.72
603.62	48907.83
603.78	48968.69
603.94	48809.53
604.09	48643.35
604.25	48776.76
604.40	48371.85
604.56	48509.94
604.71	49261.26
604.87	48327.38
605.03	48362.49
605.18	48643.35
605.34	49059.97
605.49	48587.18
605.65	48474.84
605.80	48502.92
605.96	48303.98
606.12	48367.17
606.27	49055.29
606.43	48296.95
606.58	48575.48
606.74	48559.09
606.89	49066.99
607.05	48673.78
607.20	48933.58
607.36	48437.39
607.51	48149.50
607.67	48348.45
607.82	48458.45
607.98	48376.53
608.13	48655.06
608.29	48460.79
608.44	48369.51
608.60	48320.36
608.75	48765.06
608.91	48648.03
609.06	47758.63
609.22	48406.96
609.37	48435.05
609.53	48718.25
609.68	48442.07
609.84	48430.36
609.99	48488.88
610.15	48481.86
610.30	48877.41
610.46	48577.82
610.61	48423.34
610.76	48425.68
610.92	47985.66
611.07	48182.27
611.23	48226.74
611.38	48137.80
611.54	48285.25
611.69	48531.01
611.84	48378.87
612.00	48158.86
612.15	48067.58
612.31	48196.31
612.46	47828.85
612.62	48076.94
612.77	48055.88
612.92	48362.49
613.08	48093.33
613.23	48559.09
613.39	48011.41
613.54	47540.96
613.69	48135.46
613.85	48311.00
614.00	48332.06
614.15	48236.10
614.31	48095.67
614.46	47892.04
614.62	47950.56
614.77	47995.03
614.92	48280.57
615.08	47826.51
615.23	48186.95
615.38	48526.33
615.54	47730.54
615.69	48156.52
615.84	48051.20
616.00	48493.56
616.15	47980.98
616.30	48074.60
616.46	47793.74
616.61	47615.86
616.76	47873.32
616.92	47833.53
617.07	47995.03
617.22	47470.75
617.37	47269.46
617.53	47531.60
617.68	47824.17
617.83	47742.25
617.99	47945.87
618.14	48076.94
618.29	47585.43
618.45	47269.46
618.60	47826.51
618.75	47681.39
618.90	47152.43
619.06	47440.32
619.21	47264.78
619.36	48013.75
619.51	47377.12
619.67	47278.82
619.82	47674.37
619.97	47665.01
620.12	47463.72
620.28	47026.04
620.43	47515.22
620.58	47536.28
620.73	47224.99
620.89	47643.94
621.04	47737.57
621.19	47426.28
621.34	47278.82
621.49	47543.30
621.65	47208.61
621.80	47152.43
621.95	47356.06
622.10	47334.99
622.25	46934.76
622.41	47030.72
622.56	47269.46
622.71	47538.62
622.86	46817.74
623.01	47058.81
623.16	46777.95
623.32	47042.43
623.47	47147.75
623.62	47124.35
623.77	46976.89
623.92	46857.52
624.07	46972.21
624.23	47002.64
624.38	47147.75
624.53	46906.68
624.68	46511.13
624.83	46286.43
624.98	46972.21
625.13	46721.77
625.29	46696.03
625.44	46621.13
625.59	46700.71
625.74	46319.20
625.89	46461.97
626.04	46663.26
626.19	46443.25
626.34	46391.76
626.49	45989.19
626.65	45745.77
626.80	46291.12
626.95	46560.28
627.10	46344.95
627.25	46937.10
627.40	46106.21
627.55	46401.12
627.70	46209.20
627.85	46241.96
628.00	46389.42
628.15	46616.45
628.30	46021.95
628.45	45806.62
628.60	45727.05
628.76	46176.43
628.91	46424.53
629.06	45645.13
629.21	46021.95
629.36	45523.42
629.51	46071.10
629.66	46307.50
629.81	46036.00
629.96	46141.32
630.11	45989.19
630.26	45930.67
630.41	46024.29
630.56	45277.66
630.71	45808.96
630.86	45989.19
631.01	45642.79
631.16	45748.11
631.31	45701.30
631.46	45607.68
631.61	45951.74
631.76	45528.10
631.91	45825.35
632.06	45921.31
632.21	45659.17
632.36	45956.42
632.51	45537.46
632.66	45834.71
632.81	45881.52
632.96	45713.00
633.10	45343.20
633.25	45345.54
633.40	45769.18
633.55	45766.84
633.70	45411.07
633.85	45490.65
634.00	45202.77
634.15	44886.79
634.30	44905.52
634.45	45347.88
634.60	45284.68
634.75	45240.21
634.90	45373.63
635.05	45291.71
635.19	45272.98
635.34	45319.79
635.49	45319.79
635.64	44727.64
635.79	45059.99
635.94	45373.63
636.09	45284.68
636.24	45146.59
636.39	45216.81
636.53	44996.80
636.68	44753.38
636.83	44360.17
636.98	44683.17
637.13	44552.10
637.28	44725.30
637.43	45064.67
637.57	44685.51
637.72	44669.12
637.87	44732.32
638.02	44566.14
638.17	44531.03
638.32	44484.22
638.46	44535.71
638.61	44491.24
638.76	44208.04
638.91	44495.92
639.06	44519.33
639.20	44289.96
639.35	44626.99
639.50	44172.93
639.65	44215.06
639.80	44264.21
639.94	44423.37
640.09	44479.54
640.24	45102.12
640.39	44306.34
640.54	44025.48
640.68	44250.17
640.83	44105.06
640.98	44100.37
641.13	43765.68
641.27	44402.30
641.42	44591.89
641.57	44142.50
641.72	44196.34
641.86	43793.76
642.01	43531.62
642.16	43583.12
642.31	43545.67
642.45	44023.14
642.60	43749.29
642.75	43517.58
642.90	44116.76
643.04	43739.93
643.19	43835.89
643.34	43922.49
643.48	43229.69
643.63	43342.04
643.78	43611.20
643.93	43643.97
644.07	43784.40
644.22	43154.80
644.37	43812.49
644.51	43676.74
644.66	43519.92
644.81	44086.33
644.95	43555.03
645.10	43477.79
645.25	43021.39
645.39	43267.14
645.54	43515.24
645.69	42930.11
645.83	42845.85
645.98	43002.66
646.13	43332.68
646.27	43012.02
646.42	43089.26
646.57	43295.23
646.71	43388.85
646.86	43440.34
647.00	43599.50
647.15	43157.14
647.30	43384.17
647.44	43232.04
647.59	42932.45
647.74	42836.48
647.88	43442.68
648.03	43009.68
648.17	43234.38
648.32	43313.95
648.47	43255.44
648.61	42719.46
648.76	43210.97
648.90	42733.50
649.05	42667.97
649.20	43356.08
649.34	42569.66
649.49	43091.60
649.63	42817.76
649.78	42756.91
649.92	43126.71
650.07	43299.91
650.21	43065.86
650.36	43079.90
650.51	42724.14
650.65	43192.25
650.80	42731.16
650.94	42623.50
651.09	42298.16
651.23	42019.64
651.38	42089.85
651.52	42103.90
651.67	42483.06
651.81	42464.34
651.96	42529.87
652.10	41680.26
652.25	41904.95
652.39	42129.64
652.54	42155.39
652.68	42050.06
652.83	42267.73
652.97	42539.24
653.12	42445.62
653.26	42337.95
653.41	42101.56
653.55	42335.61
653.70	42546.26
653.84	42202.20
653.99	42038.36
654.13	42038.36
654.27	41986.87
654.42	41940.06
654.56	41745.80
654.71	42185.82
654.85	41872.18
655.00	41996.23
655.14	41858.14
655.29	42405.83
655.43	41984.53
655.57	41759.84
655.72	41518.76
655.86	41511.74
656.01	41326.84
656.15	41034.27
656.30	41399.40
656.44	41715.37
656.58	41759.84
656.73	41652.17
656.87	41282.37
657.01	41343.22
657.16	41202.79
657.30	41799.63
657.45	41390.03
657.59	41099.81
657.73	41277.69
657.88	41191.09
658.02	41282.37
658.16	41354.93
658.31	41450.89
658.45	41219.17
658.60	40692.55
658.74	41076.40
658.88	41287.05
659.03	41067.04
659.17	40837.67
659.31	40666.81
659.46	40605.95
659.60	41017.89
659.74	40435.10
659.89	40589.57
660.03	40257.21
660.17	40858.73
660.32	40580.21
660.46	40715.96
660.60	40231.47
660.74	40374.24
660.89	40718.30
661.03	40210.40
661.17	40130.83
661.32	39924.86
661.46	40533.40
661.60	40238.49
661.74	40018.48
661.89	39880.39
662.03	39983.37
662.17	39835.92
662.31	39959.97
662.46	40123.80
662.60	39697.83
662.74	39496.54
662.88	39388.88
663.03	39522.29
663.17	39407.60
663.31	39192.27
663.45	39840.60
663.60	40397.65
663.74	39428.66
663.88	39667.40
664.02	39100.99
664.17	39363.13
664.31	39295.25
664.45	39086.95
664.59	38890.34
664.73	38735.87
664.88	38937.15
665.02	38330.95
665.16	38813.10
665.30	38557.99
665.44	38642.24
665.59	38389.47
665.73	38541.60
665.87	38141.37
666.01	38132.01
666.15	38663.31
666.29	38546.28
666.44	38527.56
666.58	38326.27
666.72	38078.18
666.86	38139.03
667.00	37869.87
667.14	37689.65
667.28	37933.06
667.43	38185.84
667.57	38597.77
667.71	37921.36
667.85	38047.75
667.99	37832.42
668.13	37310.48
668.27	37191.11
668.41	37263.67
668.56	36793.22
668.70	37146.64
668.84	37156.00
668.98	37081.11
669.12	37062.38
669.26	37120.90
669.40	37092.81
669.54	37242.60
669.68	37282.39
669.82	37013.23
669.96	36779.18
670.10	36465.55
670.25	36751.09
670.39	36322.77
670.53	36917.27
670.67	36460.87
670.81	36795.56
670.95	36676.19
671.09	35814.88
671.23	36250.22
671.37	36210.43
671.51	36079.36
671.65	36250.22
671.79	36294.69
671.93	36287.67
672.07	36444.48
672.21	35807.86
672.35	35454.44
672.49	35849.99
672.63	35927.22
672.77	35416.99
672.91	35770.41
673.05	35573.80
673.19	35044.84
673.33	34948.88
673.47	35063.57
673.61	34759.30
673.75	34885.68
673.89	35122.08
674.03	34794.40
674.17	34515.88
674.31	35171.23
674.45	34349.70
674.59	34349.70
674.73	34789.72
674.87	34417.58
675.01	34054.79
675.15	33900.32
675.29	33640.52
675.43	33902.66
675.56	34300.55
675.70	33977.56
675.84	33366.68
675.98	32367.27
676.12	33661.58
676.26	33642.86
676.40	33649.88
676.54	32896.23
676.68	33191.14
676.82	32788.56
676.96	32842.40
677.10	32861.12
677.23	32727.71
677.37	33109.22
677.51	32484.30
677.65	32671.54
677.79	32671.54
677.93	32065.34
678.07	32315.78
678.21	31997.46
678.34	31592.55
678.48	31805.54
678.62	32020.87
678.76	31517.65
678.90	31571.49
679.04	31730.64
679.18	31655.75
679.31	31339.77
679.45	31349.14
679.59	31559.78
679.73	31145.51
679.87	31089.34
680.00	30934.86
680.14	30532.29
680.28	30955.93
680.42	30684.42
680.56	31019.12
680.70	30134.40
680.83	30195.25
680.97	30309.94
681.11	30387.18
681.25	29474.37
681.39	29633.52
681.52	29610.12
681.66	29968.22
681.80	29322.23
681.94	29039.03
682.07	29060.09
682.21	28725.39
682.35	29244.99
682.49	29350.32
682.62	28664.54
682.76	29289.46
682.90	29078.82
683.04	28779.23
683.17	28774.55
683.31	28685.61
683.45	28348.57
683.59	28070.04
683.72	28095.79
683.86	28243.24
684.00	28025.57
684.13	28177.71
684.27	27735.35
684.41	27885.14
684.55	27618.32
684.68	27365.54
684.82	27159.58
684.96	27349.16
685.09	27161.92
685.23	27239.15
685.37	27850.03
685.50	27461.51
685.64	27353.84
685.78	26859.99
685.91	26258.47
686.05	26403.58
686.19	26136.76
686.32	26476.14
686.46	25790.36
686.60	25942.50
686.73	26249.11
686.87	26001.01
687.01	26354.43
687.14	25888.67
687.28	25502.48
687.42	25790.36
687.55	25179.48
687.69	25277.79
687.82	25195.87
687.96	24999.26
688.10	25195.87
688.23	25151.40
688.37	25125.65
688.50	25104.59
688.64	25146.72
688.78	24926.71
688.91	24889.26
689.05	24931.39
689.18	24400.08
689.32	23726.01
689.46	23751.76
689.59	24091.13
689.73	24077.09
689.86	24243.27
690.00	23920.28
690.13	23688.56
690.27	24039.64
690.41	23805.59
690.54	23367.91
690.68	23555.15
690.81	23201.73
690.95	23342.16
691.08	23091.73
691.22	23122.15
691.35	22951.29
691.49	23236.84
691.62	22745.33
691.76	22384.88
691.89	22132.11
692.03	22443.40
692.16	21984.65
692.30	22317.01
692.43	22431.69
692.57	21738.90
692.70	21661.66
692.84	21893.37
692.97	21621.87
693.11	21652.30
693.24	21575.06
693.38	21469.73
693.51	21294.19
693.65	21500.16
693.78	21195.89
693.92	21118.65
694.05	20870.56
694.19	21001.63
694.32	20917.37
694.45	20875.24
694.59	21062.48
694.72	20755.87
694.86	20603.74
694.99	20432.88
695.13	20397.77
695.26	20086.48
695.39	20077.12
695.53	20196.48
695.66	20393.09
695.80	19803.27
695.93	19716.67
696.07	19468.58
696.20	19623.05
696.33	19342.19
696.47	18850.67
696.60	18979.40
696.73	19445.17
696.87	19161.97
697.00	19098.77
697.14	19061.32
697.27	18630.66
697.40	18808.54
697.54	18637.69
697.67	18490.23
697.80	19016.85
697.94	18635.35
698.07	18380.23
698.21	18209.37
698.34	18251.50
698.47	18075.96
698.61	17855.95
698.74	17855.95
698.87	18012.76
699.01	17743.60
699.14	17764.67
699.27	17774.03
699.40	17511.89
699.54	17083.57
699.67	17099.95
699.80	17568.06
699.94	17198.26
700.07	17233.36
700.20	17266.13
700.34	16933.78
700.47	16989.95
700.60	16842.50
700.73	16737.17
700.87	16540.57
701.00	16500.78
701.13	16208.21
701.26	16592.06
701.40	16327.58
701.53	16217.57
701.66	16086.50
701.79	16114.59
701.93	15864.15
702.06	15667.55
702.19	15704.99
702.32	15735.42
702.46	15889.90
702.59	15990.54
702.72	16081.82
702.85	15824.36
702.99	15672.23
703.12	15344.55
703.25	14984.11
703.38	15208.80
703.51	15040.28
703.65	14941.98
703.78	14829.63
703.91	14700.90
704.04	14794.53
704.17	14635.37
704.31	14539.41
704.44	14464.51
704.57	14361.53
704.70	14303.01
704.83	14504.30
704.96	14160.24
705.10	13909.80
705.23	14202.37
>>>>>End Processed Spectral Data<<<<<
