SpectraSuite Data File
++++++++++++++++++++++++++++++++++++
Date: Fri Oct 25 10:44:13 EDT 2013
User: price-jones
Dark Spectrum Present: No
Reference Spectrum Present: No
Number of Sampled Component Spectra: 1
Spectrometers: USB2+H05261
Integration Time (usec): 100000 (USB2+H05261)
Spectra Averaged: 1 (USB2+H05261)
Boxcar Smoothing: 0 (USB2+H05261)
Correct for Electrical Dark: No (USB2+H05261)
Strobe/Lamp Enabled: No (USB2+H05261)
Correct for Detector Non-linearity: No (USB2+H05261)
Correct for Stray Light: No (USB2+H05261)
Number of Pixels in Processed Spectrum: 2048
>>>>>Begin Processed Spectral Data<<<<<
365.73	74.90
365.92	74.90
366.12	74.90
366.32	63.19
366.52	51.49
366.72	28.09
366.91	18.72
367.11	23.41
367.31	21.06
367.51	0.00
367.70	14.04
367.90	81.92
368.10	91.28
368.30	23.41
368.49	0.00
368.69	86.60
368.89	91.28
369.09	37.45
369.28	102.98
369.48	107.66
369.68	44.47
369.87	135.75
370.07	135.75
370.27	117.03
370.47	217.67
370.66	379.17
370.86	416.62
371.06	489.17
371.25	414.27
371.45	390.87
371.65	503.22
371.84	465.77
372.04	447.04
372.24	425.98
372.44	442.36
372.63	500.87
372.83	517.26
373.03	578.11
373.22	463.43
373.42	472.79
373.62	571.09
373.81	498.53
374.01	540.66
374.21	582.79
374.40	561.73
374.60	638.97
374.79	510.24
374.99	641.31
375.19	608.54
375.38	566.41
375.58	599.18
375.78	631.94
375.97	645.99
376.17	606.20
376.37	594.50
376.56	596.84
376.76	603.86
376.95	650.67
377.15	685.78
377.35	636.63
377.54	634.29
377.74	608.54
377.93	688.12
378.13	690.46
378.33	688.12
378.52	690.46
378.72	641.31
378.91	653.01
379.11	678.76
379.31	664.71
379.50	524.28
379.70	685.78
379.89	697.48
380.09	746.63
380.28	610.88
380.48	688.12
380.68	748.97
380.87	716.20
381.07	730.25
381.26	657.69
381.46	737.27
381.65	751.31
381.85	620.24
382.04	704.50
382.24	795.78
382.43	741.95
382.63	709.18
382.83	702.16
383.02	741.95
383.22	718.54
383.41	688.12
383.61	702.16
383.80	713.86
384.00	784.08
384.19	795.78
384.39	777.06
384.58	786.42
384.78	725.57
384.97	800.46
385.17	840.25
385.36	816.85
385.56	688.12
385.75	795.78
385.95	753.65
386.14	915.15
386.34	889.40
386.53	798.12
386.72	821.53
386.92	896.43
387.11	889.40
387.31	891.74
387.50	819.19
387.70	870.68
387.89	866.00
388.09	826.21
388.28	875.36
388.48	882.38
388.67	830.89
388.86	912.81
389.06	917.49
389.25	1025.15
389.45	994.73
389.64	901.11
389.84	1034.52
390.03	987.71
390.22	992.39
390.42	1022.81
390.61	997.07
390.81	985.37
391.00	1004.09
391.19	1036.86
391.39	985.37
391.58	1125.80
391.78	971.32
391.97	980.68
392.16	1027.50
392.36	1095.37
392.55	1022.81
392.75	1078.99
392.94	1004.09
393.13	1011.11
393.33	968.98
393.52	1074.31
393.71	1074.31
393.91	1086.01
394.10	1067.28
394.29	1118.78
394.49	1181.97
394.68	1235.80
394.88	1158.57
395.07	1203.04
395.26	1268.57
395.46	1210.06
395.65	1242.82
395.84	1287.29
396.04	1303.68
396.23	1221.76
396.42	1116.44
396.62	1144.52
396.81	1219.42
397.00	1221.76
397.19	1275.59
397.39	1308.36
397.58	1448.79
397.77	1348.15
397.97	1437.09
398.16	1362.19
398.35	1413.68
398.55	1387.94
398.74	1488.58
398.93	1479.22
399.12	1420.71
399.32	1406.66
399.51	1556.46
399.70	1607.95
399.90	1469.86
400.09	1493.26
400.28	1617.31
400.47	1481.56
400.67	1666.46
400.86	1624.33
401.05	1636.03
401.24	1650.08
401.44	1708.59
401.63	1734.34
401.82	1795.19
402.01	1722.63
402.21	1774.13
402.40	1724.97
402.59	1795.19
402.78	1724.97
402.97	1703.91
403.17	1748.38
403.36	1870.09
403.55	1947.33
403.74	1849.02
403.93	1806.89
404.13	1834.98
404.32	1842.00
404.51	1818.60
404.70	1909.88
404.89	1881.79
405.09	1980.09
405.28	1940.30
405.47	1905.20
405.66	1947.33
405.85	1973.07
406.05	1949.67
406.24	1923.92
406.43	2050.31
406.62	2127.55
406.81	2179.04
407.00	2008.18
407.20	1902.86
407.39	2092.44
407.58	2165.00
407.77	2160.31
407.96	2155.63
408.15	2244.57
408.34	2263.30
408.54	2310.11
408.73	2136.91
408.92	2211.81
409.11	2277.34
409.30	2188.40
409.49	2286.70
409.68	2251.60
409.87	2310.11
410.07	2298.41
410.26	2335.85
410.45	2359.26
410.64	2399.05
410.83	2455.22
411.02	2487.99
411.21	2619.06
411.40	2614.38
411.59	2448.20
411.78	2495.01
411.98	2607.36
412.17	2633.10
412.36	2593.31
412.55	2579.27
412.74	2818.00
412.93	2822.69
413.12	2637.78
413.31	2888.22
413.50	2656.51
413.69	2754.81
413.88	2918.65
414.07	2736.09
414.26	2904.60
414.45	3082.49
414.64	2843.75
414.83	3005.25
415.02	2977.16
415.22	3056.74
415.41	3035.67
415.60	3148.02
415.79	3178.45
415.98	3241.64
416.17	3138.66
416.36	3197.17
416.55	3180.79
416.74	3302.50
416.93	3176.11
417.12	3276.75
417.31	3220.58
417.50	3290.79
417.69	3478.04
417.88	3492.08
418.07	3368.03
418.26	3328.24
418.45	3412.50
418.64	3557.61
418.83	3496.76
419.02	3433.57
419.21	3602.08
419.39	3604.42
419.58	3344.63
419.77	3529.53
419.96	3557.61
420.15	3655.92
420.34	3524.85
420.53	3761.24
420.72	3735.50
420.91	3674.64
421.10	3845.50
421.29	3840.82
421.48	3723.79
421.67	3894.65
421.86	3889.97
422.05	3730.81
422.24	3723.79
422.43	3904.01
422.61	3789.33
422.80	3957.85
422.99	3702.73
423.18	3948.48
423.37	3908.69
423.56	3838.48
423.75	3838.48
423.94	3826.78
424.13	3667.62
424.32	3714.43
424.50	3981.25
424.69	3957.85
424.88	3985.93
425.07	3887.63
425.26	3777.62
425.45	3840.82
425.64	3981.25
425.83	4091.26
426.01	4128.70
426.20	3906.35
426.39	3985.93
426.58	3880.61
426.77	3936.78
426.96	3864.22
427.15	3950.82
427.33	4009.34
427.52	4011.68
427.71	4063.17
427.90	4037.42
428.09	4175.52
428.28	4194.24
428.46	4121.68
428.65	4070.19
428.84	4339.35
429.03	4161.47
429.22	4128.70
429.40	4095.94
429.59	4140.41
429.78	3953.16
429.97	3843.16
430.16	4084.23
430.34	4046.79
430.53	4119.34
430.72	4163.81
430.91	4297.22
431.10	4341.69
431.28	4463.40
431.47	4484.47
431.66	4737.24
431.85	4472.76
432.03	4575.75
432.22	4573.41
432.41	4678.73
432.60	4671.71
432.79	4734.90
432.97	4781.71
433.16	4641.28
433.35	4594.47
433.54	4585.11
433.72	4655.33
433.91	4573.41
434.10	4746.61
434.28	4622.56
434.47	4746.61
434.66	4875.34
434.85	4957.25
435.03	4975.98
435.22	4973.64
435.41	5137.48
435.59	5081.30
435.78	5179.61
435.97	5139.82
436.16	4968.96
436.34	5046.20
436.53	5193.65
436.72	5219.39
436.90	5114.07
437.09	5273.23
437.28	5270.89
437.46	5203.01
437.65	5083.64
437.84	5195.99
438.02	5259.18
438.21	5137.48
438.40	5179.61
438.58	5348.12
438.77	5301.31
438.96	5376.21
439.14	5605.58
439.33	5687.50
439.52	5710.91
439.70	5692.18
439.89	5650.05
440.08	5612.60
440.26	5701.54
440.45	5593.88
440.63	5846.66
440.82	5959.00
441.01	5727.29
441.19	5856.02
441.38	5961.34
441.57	5973.05
441.75	6373.28
441.94	6169.65
442.12	6136.88
442.31	6157.95
442.50	6349.87
442.68	6246.89
442.87	6239.87
443.05	6270.30
443.24	6417.75
443.43	6413.07
443.61	6324.13
443.80	6422.43
443.98	6310.08
444.17	6134.54
444.35	6384.98
444.54	6726.70
444.73	6469.24
444.91	6502.01
445.10	6366.26
445.28	6469.24
445.47	6478.60
445.65	6494.99
445.84	6499.67
446.02	6523.07
446.21	6544.14
446.39	6420.09
446.58	6665.85
446.77	6661.16
446.95	6352.21
447.14	6530.09
447.32	6696.27
447.51	6717.34
447.69	6612.01
447.88	6553.50
448.06	6558.18
448.25	6502.01
448.43	6644.78
448.62	6644.78
448.80	6722.02
448.99	6747.76
449.17	6956.07
449.36	6815.64
449.54	6986.50
449.73	6974.80
449.91	7026.29
450.10	6930.33
450.28	7140.97
450.46	7094.16
450.65	7133.95
450.83	7192.47
451.02	7119.91
451.20	7117.57
451.39	7342.26
451.57	7208.85
451.76	6967.77
451.94	7056.72
452.13	7241.62
452.31	7136.29
452.49	7007.56
452.68	7215.87
452.86	7070.76
453.05	7328.22
453.23	7316.51
453.42	7138.63
453.60	7117.57
453.78	7492.05
453.97	7262.68
454.15	7281.41
454.34	7267.36
454.52	7393.75
454.70	7468.65
454.89	7459.29
455.07	7501.42
455.26	7522.48
455.44	7772.92
455.62	7506.10
455.81	7644.19
455.99	7749.51
456.17	7822.07
456.36	7822.07
456.54	7719.09
456.73	7985.91
456.91	8119.32
457.09	8028.04
457.28	8126.34
457.46	7995.27
457.64	8175.49
457.83	8028.04
458.01	7864.20
458.19	8035.06
458.38	7974.21
458.56	8294.86
458.74	8168.47
458.93	7941.44
459.11	8093.57
459.29	8205.92
459.48	8374.44
459.66	8063.15
459.84	8418.91
460.03	8505.51
460.21	8390.82
460.39	8442.31
460.57	8283.16
460.76	8638.92
460.94	8416.57
461.12	8521.89
461.31	8777.01
461.49	8564.02
461.67	8655.30
461.85	8720.84
462.04	8489.12
462.22	9008.72
462.40	8809.78
462.59	8688.07
462.77	8784.03
462.95	8795.73
463.13	8737.22
463.32	8980.64
463.50	9118.73
463.68	9011.06
463.86	9062.55
464.05	8816.80
464.23	8954.89
464.41	8784.03
464.59	8793.39
464.78	9123.41
464.96	9025.11
465.14	9015.74
465.32	9177.24
465.50	9167.88
465.69	9345.76
465.87	9268.52
466.05	9282.56
466.23	8982.98
466.41	8987.66
466.60	9200.65
466.78	9165.54
466.96	9146.81
467.14	9413.63
467.32	9205.33
467.51	9556.41
467.69	9163.20
467.87	9240.44
468.05	9329.38
468.23	9090.64
468.41	9413.63
468.60	9376.19
468.78	9554.07
468.96	9444.06
469.14	9750.67
469.32	9628.96
469.50	9210.01
469.69	9666.41
469.87	9776.42
470.05	9598.54
470.23	9797.48
470.41	9926.21
470.59	9923.87
470.77	9769.40
470.95	9750.67
471.14	9998.77
471.32	9961.32
471.50	10136.86
471.68	10183.67
471.86	10251.55
472.04	10331.12
472.22	10548.79
472.40	10314.74
472.58	10349.85
472.77	10272.61
472.95	10462.19
473.13	10780.51
473.31	10487.94
473.49	10492.62
473.67	10501.98
473.85	10583.90
474.03	10951.37
474.21	10829.66
474.39	10974.77
474.57	11016.90
474.75	10972.43
474.93	11152.65
475.12	11145.63
475.30	11091.80
475.48	11304.79
475.66	11220.53
475.84	10991.16
476.02	11297.77
476.20	11250.96
476.38	11461.60
476.56	11761.19
476.74	11770.55
476.92	11627.78
477.10	11808.00
477.28	11822.05
477.46	12109.93
477.64	12016.31
477.82	12079.50
478.00	12287.81
478.18	12395.48
478.36	12360.37
478.54	12287.81
478.72	12503.14
478.90	12805.07
479.08	12879.97
479.26	12856.56
479.44	13034.44
479.62	13050.83
479.80	13090.62
479.98	13348.08
480.16	13317.65
480.34	13624.26
480.52	13844.27
480.70	13818.52
480.88	13411.27
481.06	13652.34
481.24	13926.19
481.41	14012.79
481.59	14398.98
481.77	14398.98
481.95	14487.92
482.13	14595.58
482.31	14478.55
482.49	14637.71
482.67	15077.73
482.85	14913.89
483.03	14923.26
483.21	15068.37
483.39	15332.85
483.57	15204.12
483.74	15501.37
483.92	15522.43
484.10	15257.95
484.28	15695.63
484.46	16102.89
484.64	16325.24
484.82	15812.66
485.00	16037.35
485.18	16116.93
485.35	16449.28
485.53	16030.33
485.71	16109.91
485.89	16465.67
486.07	16212.89
486.25	16430.56
486.43	16650.57
486.61	16901.01
486.78	16814.41
486.96	17525.93
487.14	17713.17
487.32	17633.60
487.50	18211.71
487.68	17994.04
487.85	18141.49
488.03	18450.44
488.21	18523.00
488.39	18438.74
488.57	18466.83
488.75	18661.09
488.92	18967.70
489.10	19253.25
489.28	19176.01
489.46	19793.91
489.64	19414.74
489.81	20336.91
489.99	19845.40
490.17	20088.82
490.35	20229.25
490.53	20088.82
490.70	20491.39
490.88	20147.33
491.06	20467.98
491.24	20549.90
491.41	20645.87
491.59	21074.18
491.77	20643.52
491.95	20730.12
492.13	21263.77
492.30	21441.65
492.48	21649.96
492.66	21909.75
492.84	21472.07
493.01	22075.93
493.19	21858.26
493.37	21958.91
493.54	21935.50
493.72	22148.49
493.90	22483.19
494.08	22434.03
494.25	22930.23
494.43	23124.49
494.61	23438.12
494.79	23204.07
494.96	23168.96
495.14	23229.82
495.32	23580.90
495.49	23466.21
495.67	23466.21
495.85	23819.63
496.02	24147.31
496.20	24322.85
496.38	24381.36
496.55	24257.31
496.73	24762.87
496.91	24500.73
497.09	25050.75
497.26	24985.22
497.44	25053.09
497.62	24828.40
497.79	25158.42
497.97	25015.65
498.14	25305.87
498.32	25324.60
498.50	25598.44
498.67	25788.02
498.85	25797.38
499.03	25872.28
499.20	25947.18
499.38	25984.63
499.56	26312.30
499.73	26143.78
499.91	26204.64
500.08	26403.58
500.26	26178.89
500.44	26494.86
500.61	26726.58
500.79	26621.25
500.97	26693.81
501.14	26719.56
501.32	26749.98
501.49	26841.26
501.67	26670.40
501.84	27091.70
502.02	27412.35
502.20	27618.32
502.37	27744.71
502.55	27484.91
502.72	27651.09
502.90	28041.96
503.07	27953.02
503.25	28325.16
503.43	27751.73
503.60	28011.53
503.78	28079.41
503.95	28191.75
504.13	28107.49
504.30	28580.28
504.48	28573.26
504.65	28797.95
504.83	29193.50
505.01	28896.25
505.18	28900.94
505.36	29516.50
505.53	29420.53
505.71	29373.72
505.88	29841.83
506.06	29191.16
506.23	29392.45
506.41	29191.16
506.58	29975.24
506.76	29790.34
506.93	30033.75
507.11	29783.32
507.28	30015.03
507.46	29738.85
507.63	29841.83
507.81	30110.99
507.98	29956.52
508.16	30174.19
508.33	30300.58
508.50	30335.68
508.68	30967.63
508.85	31241.47
509.03	30728.89
509.20	31033.16
509.38	31105.72
509.55	31285.94
509.73	31332.75
509.90	31161.89
510.08	31225.09
510.25	31417.01
510.42	31082.31
510.60	31744.69
510.77	31641.70
510.95	32301.73
511.12	31508.29
511.30	31873.42
511.47	32538.13
511.64	31962.36
511.82	32247.90
511.99	32271.31
512.17	32507.70
512.34	31974.06
512.51	32177.68
512.69	32620.05
512.86	32886.87
513.04	32807.29
513.21	32224.50
513.38	32552.17
513.56	32716.01
513.73	32470.25
513.90	32734.73
514.08	32957.08
514.25	33127.94
514.43	33340.93
514.60	33212.20
514.77	32947.72
514.95	33525.83
515.12	33195.82
515.29	33928.41
515.47	33902.66
515.64	33912.02
515.81	33570.30
515.99	33495.41
516.16	33455.62
516.33	33230.93
516.51	33951.81
516.68	33291.78
516.85	33144.33
517.03	33722.44
517.20	33872.23
517.37	34188.21
517.54	34307.57
517.72	34239.70
517.89	33769.25
518.06	34078.20
518.24	34024.37
518.41	34092.24
518.58	34232.68
518.75	34195.23
518.93	34771.00
519.10	34899.73
519.27	35297.62
519.45	34955.90
519.62	35440.39
519.79	34869.30
519.96	35068.25
520.14	35332.73
520.31	35014.41
520.48	35311.66
520.65	35484.86
520.83	35854.67
521.00	35873.39
521.17	35421.67
521.34	35754.02
521.52	35964.67
521.69	36203.41
521.86	35974.03
522.03	36018.50
522.20	36292.35
522.38	35831.26
522.55	36151.91
522.72	36231.49
522.89	36306.39
523.07	36561.51
523.24	36467.89
523.41	37008.55
523.58	36734.71
523.75	36989.83
523.92	36814.29
524.10	37006.21
524.27	37006.21
524.44	37219.20
524.61	37266.01
524.78	37404.10
524.96	37376.01
525.13	37471.98
525.30	37546.87
525.47	37738.80
525.64	37670.92
525.81	37137.28
525.98	37406.44
526.16	37163.03
526.33	36926.63
526.50	37427.51
526.67	37198.13
526.84	37223.88
527.01	36971.10
527.18	37825.40
527.36	37982.21
527.53	38129.67
527.70	38281.80
527.87	38183.50
528.04	38064.13
528.21	38363.72
528.38	38403.51
528.55	38321.59
528.72	38738.21
528.89	38838.85
529.07	38808.42
529.24	38897.36
529.41	38611.82
529.58	38745.23
529.75	38953.54
529.92	38820.13
530.09	38918.43
530.26	39133.76
530.43	39133.76
530.60	38925.45
530.77	39129.08
530.94	39442.71
531.11	39250.78
531.28	39164.18
531.46	39573.78
531.63	39309.30
531.80	38967.58
531.97	38979.28
532.14	39138.44
532.31	39288.23
532.48	39433.35
532.65	39264.83
532.82	39433.35
532.99	39660.38
533.16	39646.33
533.33	39578.46
533.50	40343.81
533.67	39775.06
533.84	39571.44
534.01	39901.45
534.18	39711.87
534.35	40205.72
534.52	39878.05
534.69	40149.55
534.86	40451.48
535.03	40524.04
535.20	40388.28
535.37	40282.96
535.54	40868.09
535.71	40549.78
535.88	40430.41
536.05	40453.82
536.22	40285.30
536.38	40598.93
536.55	41050.66
536.72	40381.26
536.89	40767.45
537.06	40620.00
537.23	41048.32
537.40	40898.52
537.57	40900.86
537.74	41027.25
537.91	41296.41
538.08	40886.82
538.25	41099.81
538.42	41165.34
538.59	41125.55
538.75	41015.55
538.92	40636.38
539.09	41275.35
539.26	41326.84
539.43	41074.06
539.60	41467.27
539.77	41071.72
539.94	41240.24
540.11	40877.46
540.28	41237.90
540.44	41684.94
540.61	41399.40
540.78	41240.24
540.95	41209.81
541.12	41289.39
541.29	41612.38
541.46	41841.76
541.62	41663.88
541.79	41865.16
541.96	41638.13
542.13	41596.00
542.30	41680.26
542.47	41769.20
542.63	41467.27
542.80	42089.85
542.97	42611.79
543.14	42574.34
543.31	42583.71
543.48	42710.10
543.64	42880.95
543.81	42829.46
543.98	42600.09
544.15	42714.78
544.32	42932.45
544.48	43412.26
544.65	42642.22
544.82	42754.57
544.99	42621.16
545.16	42838.83
545.32	42703.07
545.49	43196.93
545.66	43206.29
545.83	43021.39
546.00	43611.20
546.16	43278.85
546.33	42689.03
546.50	42773.29
546.67	43377.15
546.83	42808.40
547.00	43328.00
547.17	43133.73
547.34	43372.47
547.50	43215.65
547.67	43440.34
547.84	43122.03
548.00	43620.56
548.17	43648.65
548.34	43545.67
548.51	43690.78
548.67	43880.36
548.84	43407.58
549.01	43449.70
549.18	43356.08
549.34	43557.37
549.51	44025.48
549.68	43915.47
549.84	43927.17
550.01	44165.91
550.18	43620.56
550.34	43875.68
550.51	43536.30
550.68	43793.76
550.84	43519.92
551.01	43583.12
551.18	44589.55
551.34	43749.29
551.51	43842.92
551.68	44296.98
551.84	44306.34
552.01	44186.97
552.18	44194.00
552.34	43964.62
552.51	44278.25
552.68	43838.23
552.84	44325.07
553.01	44584.86
553.18	44540.39
553.34	44935.95
553.51	44177.61
553.67	44222.08
553.84	44350.81
554.01	44559.12
554.17	44570.82
554.34	44680.83
554.51	44973.39
554.67	45132.55
554.84	44737.00
555.00	44524.01
555.17	44362.51
555.33	44907.86
555.50	44236.12
555.67	44556.78
555.83	44479.54
556.00	45085.74
556.16	44933.60
556.33	44362.51
556.50	44589.55
556.66	44893.82
556.83	44545.08
556.99	44957.01
557.16	45123.19
557.32	45375.97
557.49	45162.98
557.65	44795.51
557.82	44851.69
557.98	45162.98
558.15	45265.96
558.32	44617.63
558.48	45535.12
558.65	44907.86
558.81	44947.65
558.98	44919.56
559.14	44959.35
559.31	44788.49
559.47	44779.13
559.64	45354.90
559.80	45392.35
559.97	45354.90
560.13	44755.72
560.30	44856.37
560.46	45368.94
560.63	45226.17
560.79	45476.61
560.96	45701.30
561.12	45326.81
561.29	45748.11
561.45	45303.41
561.61	45462.57
561.78	44722.96
561.94	45373.63
562.11	45191.06
562.27	45099.78
562.44	45516.40
562.60	45546.82
562.77	45165.32
562.93	45455.54
563.10	45830.03
563.26	44973.39
563.42	45546.82
563.59	45336.18
563.75	45373.63
563.92	45694.28
564.08	45347.88
564.24	45921.31
564.41	45350.22
564.57	45282.34
564.74	45603.00
564.90	45553.85
565.07	45502.35
565.23	45649.81
565.39	45214.47
565.56	45614.70
565.72	45254.26
565.88	45773.86
566.05	45565.55
566.21	45556.19
566.38	45481.29
566.54	45694.28
566.70	45631.08
566.87	45979.82
567.03	45951.74
567.19	46302.82
567.36	45741.09
567.52	45324.47
567.68	46012.59
567.85	45610.02
568.01	45872.16
568.17	45521.08
568.34	45879.18
568.50	45497.67
568.66	45860.46
568.83	45752.79
568.99	45345.54
569.15	45923.65
569.32	45633.42
569.48	45490.65
569.64	46092.17
569.81	46026.63
569.97	45663.85
570.13	45558.53
570.30	45874.50
570.46	45677.90
570.62	46028.98
570.78	45495.33
570.95	45750.45
571.11	46061.74
571.27	46162.39
571.43	45663.85
571.60	45535.12
571.76	45434.48
571.92	46036.00
572.09	45818.33
572.25	45797.26
572.41	46167.07
572.57	45823.01
572.74	46265.37
572.90	46028.98
573.06	46197.49
573.22	45991.53
573.38	45677.90
573.55	46120.26
573.71	46136.64
573.87	45799.60
574.03	45504.70
574.20	45731.73
574.36	45923.65
574.52	45874.50
574.68	46064.08
574.84	45867.48
575.01	46061.74
575.17	45633.42
575.33	45853.44
575.49	45397.03
575.65	46052.38
575.82	46153.02
575.98	45930.67
576.14	46021.95
576.30	46150.68
576.46	46061.74
576.62	46014.93
576.79	45902.59
576.95	45628.74
577.11	46148.34
577.27	46263.03
577.43	45940.04
577.59	46515.81
577.75	46108.55
577.92	45956.42
578.08	45579.59
578.24	45397.03
578.40	45666.19
578.56	45888.54
578.72	45490.65
578.88	45935.35
579.04	46440.91
579.21	46351.97
579.37	45918.97
579.53	45951.74
579.69	45855.78
579.85	46138.98
580.01	46071.10
580.17	45984.51
580.33	46293.46
580.49	46010.25
580.65	46155.36
580.82	46019.61
580.98	46251.33
581.14	46291.12
581.30	46031.32
581.46	46469.00
581.62	46007.91
581.78	46101.53
581.94	46426.87
582.10	45940.04
582.26	46412.82
582.42	46183.45
582.58	45909.61
582.74	45914.29
582.90	46162.39
583.06	45853.44
583.22	46164.73
583.38	46768.58
583.54	46092.17
583.70	46272.39
583.86	46522.83
584.02	46003.23
584.18	46211.54
584.34	46291.12
584.50	46433.89
584.66	46337.93
584.82	46298.14
584.98	46185.79
585.14	46241.96
585.30	45689.60
585.46	46293.46
585.62	45951.74
585.78	46447.93
585.94	45806.62
586.10	45752.79
586.26	46211.54
586.42	46464.32
586.58	46588.36
586.74	46391.76
586.90	45975.14
587.06	45925.99
587.22	46120.26
587.38	45455.54
587.54	46218.56
587.70	46286.43
587.86	46237.28
588.02	46300.48
588.18	46520.49
588.34	45902.59
588.49	45954.08
588.65	45572.57
588.81	45457.88
588.97	45446.18
589.13	45794.92
589.29	45806.62
589.45	45977.48
589.61	46080.47
589.77	46354.31
589.93	46253.67
590.08	46351.97
590.24	46384.74
590.40	46866.89
590.56	46422.19
590.72	46389.42
590.88	45935.35
591.04	46202.18
591.20	46672.62
591.35	46466.66
591.51	46347.29
591.67	46644.54
591.83	46211.54
591.99	46021.95
592.15	46646.88
592.31	46635.17
592.46	46028.98
592.62	46190.47
592.78	46593.04
592.94	46553.26
593.10	46218.56
593.26	46347.29
593.41	46138.98
593.57	46260.69
593.73	46127.28
593.89	46190.47
594.05	46293.46
594.20	46405.80
594.36	46574.32
594.52	45584.27
594.68	46052.38
594.84	46101.53
594.99	46532.19
595.15	46848.16
595.31	47021.36
595.47	46082.81
595.62	46436.23
595.78	46171.75
595.94	46691.35
596.10	46567.30
596.25	46349.63
596.41	46248.99
596.57	46616.45
596.73	46810.71
596.88	46646.88
597.04	46569.64
597.20	46646.88
597.36	46361.33
597.51	46747.52
597.67	46770.93
597.83	46550.91
597.99	46660.92
598.14	46469.00
598.30	46405.80
598.46	46253.67
598.61	46256.01
598.77	46099.19
598.93	46223.24
599.09	46387.08
599.24	47110.30
599.40	46651.56
599.56	46541.55
599.71	46059.40
599.87	46153.02
600.03	46143.66
600.18	46494.74
600.34	45996.21
600.50	46546.23
600.65	46356.65
600.81	46548.57
600.97	46389.42
601.12	46696.03
601.28	46445.59
601.44	46445.59
601.59	45902.59
601.75	45979.82
601.91	46038.34
602.06	46183.45
602.22	46525.17
602.37	46185.79
602.53	46398.78
602.69	46405.80
602.84	46574.32
603.00	46476.02
603.16	46373.03
603.31	46033.66
603.47	46511.13
603.62	46726.46
603.78	46944.12
603.94	45890.88
604.09	46625.81
604.25	46660.92
604.40	46241.96
604.56	46478.36
604.71	46052.38
604.87	45727.05
605.03	46464.32
605.18	45865.14
605.34	46218.56
605.49	45787.90
605.65	46265.37
605.80	46263.03
605.96	46670.28
606.12	46246.65
606.27	46429.21
606.43	46375.37
606.58	46059.40
606.74	45975.14
606.89	46047.70
607.05	46417.50
607.20	46043.02
607.36	45750.45
607.51	46188.13
607.67	46277.07
607.82	45979.82
607.98	45581.93
608.13	45710.66
608.29	46171.75
608.44	45502.35
608.60	45317.45
608.75	45799.60
608.91	45617.04
609.06	45804.28
609.22	45724.71
609.37	45759.81
609.53	45720.02
609.68	45687.26
609.84	45977.48
609.99	45495.33
610.15	45324.47
610.30	45607.68
610.46	45780.88
610.61	45780.88
610.76	45860.46
610.92	45549.17
611.07	45989.19
611.23	46272.39
611.38	45647.47
611.54	45574.91
611.69	45429.80
611.84	45172.34
612.00	45750.45
612.15	45179.36
612.31	45607.68
612.46	45240.21
612.62	46024.29
612.77	45474.27
612.92	46007.91
613.08	45251.92
613.23	45385.33
613.39	45958.76
613.54	45069.36
613.69	45390.01
613.85	45312.77
614.00	45109.14
614.15	45415.76
614.31	45371.28
614.46	45469.59
614.62	45317.45
614.77	45090.42
614.92	45390.01
615.08	44783.81
615.23	44758.06
615.38	45212.13
615.54	44978.07
615.69	44926.58
615.84	45003.82
616.00	45268.30
616.15	44933.60
616.30	45277.66
616.46	44968.71
616.61	44914.88
616.76	44818.92
616.92	44451.45
617.07	44526.35
617.22	44559.12
617.37	44119.10
617.53	44634.02
617.68	44474.86
617.83	45181.70
617.99	44992.12
618.14	44512.31
618.29	44935.95
618.45	44161.23
618.60	44687.85
618.75	44252.51
618.90	44619.97
619.06	44739.34
619.21	44720.62
619.36	45312.77
619.51	44793.17
619.67	44095.69
619.82	44907.86
619.97	44573.16
620.12	44163.57
620.28	44126.12
620.43	44170.59
620.58	44404.64
620.73	43948.24
620.89	44198.68
621.04	44105.06
621.19	44177.61
621.34	44598.91
621.49	44060.58
621.65	43838.23
621.80	44683.17
621.95	43725.89
622.10	44194.00
622.25	43459.07
622.41	43957.60
622.56	43583.12
622.71	43948.24
622.86	43999.73
623.01	43782.06
623.16	44205.70
623.32	44133.14
623.47	43786.74
623.62	43849.94
623.77	43627.59
623.92	43634.61
624.07	43707.16
624.23	43203.95
624.38	43707.16
624.53	43545.67
624.68	43409.92
624.83	43416.94
624.98	43278.85
625.13	43199.27
625.29	43098.62
625.44	43335.02
625.59	43119.69
625.74	42742.86
625.89	43346.72
626.04	42848.19
626.19	43384.17
626.34	43140.75
626.49	43082.24
626.65	43227.35
626.80	43564.39
626.95	43028.41
627.10	43187.56
627.25	42674.99
627.40	42773.29
627.55	42593.07
627.70	42183.48
627.85	42969.90
628.00	42644.56
628.15	42567.32
628.30	42635.20
628.45	42782.65
628.60	42721.80
628.76	42649.24
628.91	42703.07
629.06	42768.61
629.21	42487.74
629.36	42417.53
629.51	42459.66
629.66	42309.86
629.81	42501.79
629.96	42335.61
630.11	42391.78
630.26	42305.18
630.41	42279.44
630.56	42127.30
630.71	42412.85
630.86	42724.14
631.01	42389.44
631.16	42209.22
631.31	42120.28
631.46	41869.84
631.61	42216.24
631.76	42258.37
631.91	42040.70
632.06	41984.53
632.21	42546.26
632.36	42347.31
632.51	42031.34
632.66	41708.35
632.81	41680.26
632.96	41701.32
633.10	42213.90
633.25	41893.25
633.40	42590.73
633.55	42232.63
633.70	41923.68
633.85	41883.89
634.00	41858.14
634.15	42124.96
634.30	41879.21
634.45	41724.73
634.60	41668.56
634.75	41418.12
634.90	41729.41
635.05	41322.16
635.19	41102.15
635.34	41893.25
635.49	41230.88
635.64	41097.47
635.79	41308.11
635.94	41500.04
636.09	41310.46
636.24	41439.18
636.39	41558.55
636.53	41429.82
636.68	40694.89
636.83	41029.59
636.98	41441.53
637.13	41078.74
637.28	41373.65
637.43	41331.52
637.57	41450.89
637.72	41055.34
637.87	41099.81
638.02	41146.62
638.17	41242.58
638.32	41048.32
638.46	40978.10
638.61	41085.76
638.76	40704.26
638.91	41357.27
639.06	40851.71
639.20	40315.73
639.35	40837.67
639.50	41045.97
639.65	41146.62
639.80	41064.70
639.94	40517.01
640.09	40975.76
640.24	40364.88
640.39	40498.29
640.54	40594.25
640.68	40343.81
640.83	40554.46
640.98	40795.54
641.13	39889.75
641.27	40467.86
641.42	39842.94
641.57	40259.55
641.72	40388.28
641.86	40226.79
642.01	39988.05
642.16	40051.25
642.31	40041.88
642.45	40376.58
642.60	40121.46
642.75	39985.71
642.90	40081.67
643.04	40133.17
643.19	40301.68
643.34	40137.85
643.48	40074.65
643.63	39761.02
643.78	39941.24
643.93	39880.39
644.07	40018.48
644.22	39662.72
644.37	39379.51
644.51	39847.62
644.66	39501.22
644.81	39480.16
644.95	39908.47
645.10	39777.40
645.25	39730.59
645.39	39622.93
645.54	39732.93
645.69	39185.25
645.83	39903.79
645.98	39517.60
646.13	39798.47
646.27	39894.43
646.42	40018.48
646.57	39480.16
646.71	39178.23
646.86	39475.48
647.00	39721.23
647.15	39590.16
647.30	39765.70
647.44	39391.22
647.59	39040.14
647.74	39398.24
647.88	39709.53
648.03	39475.48
648.17	39480.16
648.32	39201.63
648.47	39512.92
648.61	38817.78
648.76	39047.16
648.90	38930.13
649.05	39700.17
649.20	38944.17
649.34	39447.39
649.49	39021.41
649.63	38646.93
649.78	38665.65
649.92	38763.95
650.07	39295.25
650.21	39054.18
650.36	39157.16
650.51	38656.29
650.65	39419.30
650.80	39122.05
650.94	39210.99
651.09	38897.36
651.23	38742.89
651.38	38843.53
651.52	38426.92
651.67	38281.80
651.81	38778.00
651.96	38763.95
652.10	38686.71
652.25	37888.59
652.39	38490.11
652.54	38782.68
652.68	38267.76
652.83	38880.98
652.97	38693.74
653.12	38965.24
653.26	38099.24
653.41	37862.85
653.55	38359.04
653.70	38127.33
653.84	38572.03
653.99	38113.28
654.13	38511.17
654.27	38555.64
654.42	38024.34
654.56	37874.55
654.71	37689.65
654.85	37844.12
655.00	38031.36
655.14	37865.19
655.29	37867.53
655.43	37413.46
655.57	37448.57
655.72	37483.68
655.86	37151.32
656.01	37284.73
656.15	37186.43
656.30	37439.21
656.44	37088.13
656.58	36849.39
656.73	37549.21
656.87	37589.00
657.01	37556.24
657.16	37310.48
657.30	37343.25
657.45	37411.12
657.59	37282.39
657.73	37282.39
657.88	37469.64
658.02	37773.91
658.16	37741.14
658.31	37331.54
658.45	37240.26
658.60	37188.77
658.74	37191.11
658.88	37390.06
659.03	37029.62
659.17	36994.51
659.31	36933.65
659.46	37139.62
659.60	37184.09
659.74	36802.58
659.89	36500.65
660.03	36392.99
660.17	36727.69
660.32	37191.11
660.46	36912.59
660.60	36409.37
660.74	36442.14
660.89	36774.50
661.03	36177.66
661.17	36884.50
661.32	36320.43
661.46	36400.01
661.60	36196.38
661.74	36208.09
661.89	36254.90
662.03	36378.95
662.17	36233.83
662.31	36488.95
662.46	36278.30
662.60	36245.54
662.74	35945.95
662.88	35782.11
663.03	35498.91
663.17	36077.02
663.31	35681.47
663.45	35770.41
663.60	35768.07
663.74	35962.33
663.88	35463.80
664.02	35861.69
664.17	35522.31
664.31	35278.89
664.45	35529.33
664.59	34792.06
664.73	35548.06
664.88	35349.11
665.02	34927.81
665.16	35391.24
665.30	34972.28
665.44	34927.81
665.59	34691.42
665.73	34895.05
665.87	34941.86
666.01	34998.03
666.15	34843.56
666.29	35021.44
666.44	34813.13
666.58	34522.90
666.72	34602.48
666.86	34675.04
667.00	34515.88
667.14	34160.12
667.28	33954.15
667.43	34319.28
667.57	34333.32
667.71	33813.72
667.85	34197.57
667.99	34356.72
668.13	34291.19
668.27	34174.16
668.41	34511.20
668.56	34045.43
668.70	34190.55
668.84	33741.16
668.98	33319.87
669.12	33455.62
669.26	33563.28
669.40	33366.68
669.54	33703.71
669.68	33528.17
669.82	33350.29
669.96	33081.13
670.10	33216.88
670.25	33111.56
670.39	33298.80
670.53	32811.97
670.67	33053.05
670.81	33191.14
670.95	33354.97
671.09	32893.89
671.23	32645.79
671.37	32446.85
671.51	32737.07
671.65	32713.67
671.79	32198.75
671.93	32194.07
672.07	32615.37
672.21	32488.98
672.35	32439.82
672.49	32252.58
672.63	32388.33
672.77	32369.61
672.91	32151.94
673.05	31903.84
673.19	31943.63
673.33	31702.56
673.47	31550.42
673.61	31812.56
673.75	31517.65
673.89	31522.34
674.03	31323.39
674.17	31482.55
674.31	31501.27
674.45	31613.62
674.59	30712.51
674.73	31505.95
674.87	31426.37
675.01	31035.50
675.15	31419.35
675.29	30972.31
675.43	30972.31
675.56	30960.61
675.70	30590.80
675.84	30656.34
675.98	29586.71
676.12	30478.46
676.26	30515.90
676.40	30504.20
676.54	30778.04
676.68	30588.46
676.82	29898.00
676.96	29759.91
677.10	29947.15
677.23	30082.91
677.37	29888.64
677.51	29188.82
677.65	29717.78
677.79	29156.05
677.93	29301.17
678.07	29357.34
678.21	28774.55
678.34	28809.65
678.48	28669.22
678.62	28250.27
678.76	28379.00
678.90	28278.35
679.04	28163.67
679.18	28507.72
679.31	28151.96
679.45	28353.25
679.59	28006.85
679.73	27974.08
679.87	27936.63
680.00	27786.84
680.14	27882.80
680.28	27854.72
680.42	28093.45
680.56	27690.88
680.70	27845.35
680.83	27716.62
680.97	27175.96
681.11	27466.19
681.25	26883.39
681.39	27225.11
681.52	27559.81
681.66	27442.78
681.80	27105.74
681.94	26995.74
682.07	26902.12
682.21	26665.72
682.35	26721.90
682.49	26586.15
682.62	26593.17
682.76	26436.35
682.90	26490.18
683.04	26319.32
683.17	26024.42
683.31	26066.55
683.45	26136.76
683.59	25949.52
683.72	25678.02
683.86	25671.00
684.00	25450.99
684.13	25570.35
684.27	25525.88
684.41	25392.47
684.55	25378.43
684.68	25511.84
684.82	25235.66
684.96	25212.25
685.09	24716.06
685.23	24577.97
685.37	24746.48
685.50	25165.44
685.64	24751.17
685.78	24446.90
685.91	24065.39
686.05	24306.46
686.19	24245.61
686.32	23578.56
686.46	24002.19
686.60	23623.03
686.73	23590.26
686.87	23257.90
687.01	22944.27
687.14	23110.45
687.28	22895.12
687.42	23073.00
687.55	23080.02
687.69	23241.52
687.82	23157.26
687.96	23304.71
688.10	23014.49
688.23	22616.60
688.37	22754.69
688.50	22560.42
688.64	22513.61
688.78	22382.54
688.91	21919.12
689.05	22656.39
689.18	22066.57
689.32	22164.87
689.46	22115.72
689.59	22291.26
689.73	22260.84
689.86	22150.83
690.00	21907.41
690.13	21869.97
690.27	21621.87
690.41	21305.90
690.54	21465.05
690.68	20996.95
690.81	21195.89
690.95	21500.16
691.08	20978.22
691.22	21488.46
691.35	20971.20
691.49	21329.30
691.62	21088.23
691.76	20877.58
691.89	20830.77
692.03	20772.25
692.16	20451.60
692.30	20489.05
692.43	20093.50
692.57	20184.78
692.70	20446.92
692.84	20449.26
692.97	20006.90
693.11	20023.28
693.24	19758.80
693.38	19807.95
693.51	19611.35
693.65	19861.79
693.78	19800.93
693.92	19768.16
694.05	19363.25
694.19	19728.38
694.32	19396.02
694.45	19307.08
694.59	18965.36
694.72	19061.32
694.86	19023.87
694.99	19084.73
695.13	19030.90
695.26	18878.76
695.39	18628.32
695.53	18984.09
695.66	18885.78
695.80	18548.75
695.93	18515.98
696.07	18150.85
696.20	18389.59
696.33	17977.65
696.47	18197.67
696.60	18328.74
696.73	18251.50
696.87	17881.69
697.00	17996.38
697.14	17977.65
697.27	17935.53
697.40	17628.92
697.54	17544.66
697.67	17128.04
697.80	17467.42
697.94	17104.64
698.07	17022.72
698.21	17170.17
698.34	16950.16
698.47	16816.75
698.61	16585.04
698.74	16599.08
698.87	16556.95
699.01	16601.42
699.14	16374.39
699.27	16500.78
699.40	16395.45
699.54	16276.09
699.67	16224.59
699.80	15929.69
699.94	16320.56
700.07	16088.84
700.20	16142.67
700.34	15936.71
700.47	15913.30
700.60	16009.26
700.73	16152.04
700.87	15740.10
701.00	15679.25
701.13	15594.99
701.26	15559.88
701.40	15276.68
701.53	15183.06
701.66	15225.18
701.79	15138.58
701.93	15183.06
702.06	15037.94
702.19	14738.35
702.32	15117.52
702.46	14759.42
702.59	14799.21
702.72	15019.22
702.85	14890.49
702.99	14675.16
703.12	14494.94
703.25	14422.38
703.38	14593.24
703.51	14209.39
703.65	14668.14
703.78	14258.54
703.91	14328.76
704.04	14267.91
704.17	14434.08
704.31	14295.99
704.44	13806.82
704.57	14024.49
704.70	13706.18
704.83	13867.67
704.96	13898.10
705.10	13930.87
705.23	13813.84
>>>>>End Processed Spectral Data<<<<<
