SpectraSuite Data File
++++++++++++++++++++++++++++++++++++
Date: Fri Oct 25 11:33:18 EDT 2013
User: price-jones
Dark Spectrum Present: No
Reference Spectrum Present: No
Number of Sampled Component Spectra: 1
Spectrometers: USB2+H05261
Integration Time (usec): 100000 (USB2+H05261)
Spectra Averaged: 1 (USB2+H05261)
Boxcar Smoothing: 0 (USB2+H05261)
Correct for Electrical Dark: No (USB2+H05261)
Strobe/Lamp Enabled: No (USB2+H05261)
Correct for Detector Non-linearity: No (USB2+H05261)
Correct for Stray Light: No (USB2+H05261)
Number of Pixels in Processed Spectrum: 2048
>>>>>Begin Processed Spectral Data<<<<<
365.73	306.61
365.92	306.61
366.12	306.61
366.32	205.97
366.52	189.58
366.72	140.43
366.91	159.16
367.11	196.60
367.31	149.79
367.51	187.24
367.70	215.33
367.90	189.58
368.10	177.88
368.30	170.86
368.49	191.92
368.69	245.76
368.89	229.37
369.09	170.86
369.28	262.14
369.48	227.03
369.68	259.80
369.87	259.80
370.07	255.12
370.27	236.39
370.47	362.78
370.66	489.17
370.86	489.17
371.06	557.05
371.25	561.73
371.45	477.47
371.65	582.79
371.84	552.37
372.04	561.73
372.24	531.30
372.44	580.45
372.63	596.84
372.83	589.82
373.03	573.43
373.22	524.28
373.42	601.52
373.62	566.41
373.81	653.01
374.01	718.54
374.21	627.26
374.40	601.52
374.60	683.44
374.79	671.73
374.99	629.60
375.19	629.60
375.38	662.37
375.58	613.22
375.78	678.76
375.97	664.71
376.17	713.86
376.37	631.94
376.56	727.91
376.76	624.92
376.95	660.03
377.15	690.46
377.35	725.57
377.54	730.25
377.74	667.05
377.93	732.59
378.13	648.33
378.33	662.37
378.52	704.50
378.72	695.14
378.91	702.16
379.11	760.67
379.31	688.12
379.50	690.46
379.70	751.31
379.89	657.69
380.09	688.12
380.28	676.41
380.48	741.95
380.68	718.54
380.87	702.16
381.07	713.86
381.26	828.55
381.46	823.87
381.65	772.38
381.85	685.78
382.04	695.14
382.24	840.25
382.43	706.84
382.63	788.76
382.83	765.36
383.02	805.14
383.22	760.67
383.41	819.19
383.61	830.89
383.80	851.96
384.00	849.61
384.19	739.61
384.39	814.51
384.58	870.68
384.78	835.57
384.97	905.79
385.17	777.06
385.36	699.82
385.56	809.83
385.75	809.83
385.95	814.51
386.14	877.70
386.34	873.02
386.53	910.47
386.72	748.97
386.92	894.08
387.11	901.11
387.31	917.49
387.50	889.40
387.70	898.77
387.89	912.81
388.09	851.96
388.28	798.12
388.48	870.68
388.67	961.96
388.86	912.81
389.06	945.58
389.25	943.24
389.45	945.58
389.64	926.85
389.84	898.77
390.03	1018.13
390.22	987.71
390.42	973.66
390.61	917.49
390.81	978.34
391.00	929.19
391.19	1006.43
391.39	966.64
391.58	987.71
391.78	1060.26
391.97	976.00
392.16	990.05
392.36	1100.05
392.55	1039.20
392.75	1064.94
392.94	1086.01
393.13	1174.95
393.33	1074.31
393.52	1036.86
393.71	1046.22
393.91	1043.88
394.10	1032.18
394.29	1083.67
394.49	1107.07
394.68	1095.37
394.88	1151.54
395.07	1163.25
395.26	1153.88
395.46	1146.86
395.65	1163.25
395.84	1149.20
396.04	1238.14
396.23	1259.21
396.42	1200.69
396.62	1186.65
396.81	1186.65
397.00	1165.59
397.19	1247.51
397.39	1198.35
397.58	1249.85
397.77	1299.00
397.97	1301.34
398.16	1259.21
398.35	1296.66
398.55	1219.42
398.74	1303.68
398.93	1392.62
399.12	1313.04
399.32	1294.32
399.51	1352.83
399.70	1252.19
399.90	1273.25
400.09	1427.73
400.28	1399.64
400.47	1329.42
400.67	1387.94
400.86	1476.88
401.05	1460.49
401.24	1437.09
401.44	1418.36
401.63	1418.36
401.82	1465.18
402.01	1369.21
402.21	1481.56
402.40	1521.35
402.59	1418.36
402.78	1509.65
402.97	1509.65
403.17	1582.20
403.36	1425.39
403.55	1638.38
403.74	1528.37
403.93	1544.75
404.13	1671.14
404.32	1584.54
404.51	1668.80
404.70	1624.33
404.89	1621.99
405.09	1703.91
405.28	1619.65
405.47	1572.84
405.66	1610.29
405.85	1736.68
406.05	1626.67
406.24	1626.67
406.43	1753.06
406.62	1849.02
406.81	1891.15
407.00	1844.34
407.20	1767.10
407.39	1713.27
407.58	1879.45
407.77	1820.94
407.96	1865.41
408.15	1919.24
408.34	1823.28
408.54	1916.90
408.73	1970.73
408.92	1952.01
409.11	2026.90
409.30	2054.99
409.49	1914.56
409.68	1973.07
409.87	2071.37
410.07	2071.37
410.26	2125.21
410.45	2085.42
410.64	2054.99
410.83	2122.87
411.02	2165.00
411.21	2108.82
411.40	2211.81
411.59	2193.08
411.78	2172.02
411.98	2228.19
412.17	2188.40
412.36	2209.47
412.55	2225.85
412.74	2218.83
412.93	2441.18
413.12	2279.68
413.31	2448.20
413.50	2356.92
413.69	2413.09
413.88	2492.67
414.07	2511.39
414.26	2490.33
414.45	2593.31
414.64	2574.59
414.83	2579.27
415.02	2693.96
415.22	2642.46
415.41	2586.29
415.60	2705.66
415.79	2700.98
415.98	2654.17
416.17	2766.51
416.36	2726.72
416.55	2733.75
416.74	2825.03
416.93	2991.20
417.12	2782.90
417.31	2902.26
417.50	2899.92
417.69	2897.58
417.88	2981.84
418.07	2977.16
418.26	2960.78
418.45	2967.80
418.64	3061.42
418.83	3038.02
419.02	3038.02
419.21	3105.89
419.39	3173.77
419.58	3026.31
419.77	3105.89
419.96	3045.04
420.15	3290.79
420.34	3101.21
420.53	3229.94
420.72	3208.87
420.91	3108.23
421.10	3372.71
421.29	3279.09
421.48	3375.05
421.67	3332.92
421.86	3344.63
422.05	3332.92
422.24	3215.90
422.43	3330.58
422.61	3412.50
422.80	3424.20
422.99	3424.20
423.18	3550.59
423.37	3433.57
423.56	3461.65
423.75	3459.31
423.94	3489.74
424.13	3309.52
424.32	3379.73
424.50	3428.88
424.69	3489.74
424.88	3510.80
425.07	3295.47
425.26	3375.05
425.45	3398.46
425.64	3522.51
425.83	3431.23
426.01	3562.30
426.20	3599.74
426.39	3611.45
426.58	3571.66
426.77	3424.20
426.96	3492.08
427.15	3555.27
427.33	3595.06
427.52	3552.93
427.71	3611.45
427.90	3712.09
428.09	3747.20
428.28	3714.43
428.46	3756.56
428.65	3655.92
428.84	3845.50
429.03	3796.35
429.22	3660.60
429.40	3714.43
429.59	3749.54
429.78	3810.39
429.97	3576.34
430.16	3758.90
430.34	3798.69
430.53	3810.39
430.72	3955.51
430.91	3974.23
431.10	3920.40
431.28	4030.40
431.47	4037.42
431.66	4114.66
431.85	3946.14
432.03	4060.83
432.22	4093.60
432.41	4170.83
432.60	3904.01
432.79	4004.66
432.97	4133.39
433.16	4079.55
433.35	4156.79
433.54	4107.64
433.72	4283.18
433.91	4381.48
434.10	4273.82
434.28	4119.34
434.47	4241.05
434.66	4236.37
434.85	4236.37
435.03	4168.49
435.22	4292.54
435.41	4390.84
435.59	4479.79
435.78	4271.48
435.97	4414.25
436.16	4409.57
436.34	4320.63
436.53	4376.80
436.72	4638.94
436.90	4716.18
437.09	4606.17
437.28	4461.06
437.46	4627.24
437.65	4535.96
437.84	4596.81
438.02	4683.41
438.21	4671.71
438.40	4510.21
438.58	4809.80
438.77	5027.47
438.96	4718.52
439.14	4994.70
439.33	4884.70
439.52	4922.15
439.70	4973.64
439.89	5128.11
440.08	5006.41
440.26	4966.62
440.45	4931.51
440.63	5083.64
440.82	5207.69
441.01	5186.63
441.19	5275.57
441.38	5240.46
441.57	5343.44
441.75	5383.23
441.94	5385.57
442.12	5593.88
442.31	5331.74
442.50	5408.98
442.68	5497.92
442.87	5488.56
443.05	5355.15
443.24	5537.71
443.43	5610.26
443.61	5682.82
443.80	5818.57
443.98	5380.89
444.17	5542.39
444.35	5619.63
444.54	5600.90
444.73	5633.67
444.91	5518.98
445.10	5731.97
445.28	5774.10
445.47	5797.51
445.65	5680.48
445.84	5774.10
446.02	5666.44
446.21	5877.09
446.39	5589.20
446.58	5746.02
446.77	5989.43
446.95	5657.07
447.14	5748.36
447.32	5893.47
447.51	5804.53
447.69	5930.92
447.88	5956.66
448.06	5724.95
448.25	5650.05
448.43	5837.30
448.62	5914.53
448.80	5844.32
448.99	5778.78
449.17	5874.74
449.36	6031.56
449.54	6064.33
449.73	6076.03
449.91	6176.67
450.10	6073.69
450.28	6179.01
450.46	6207.10
450.65	6150.93
450.83	6183.70
451.02	6218.80
451.20	6174.33
451.39	6225.82
451.57	6235.19
451.76	6155.61
451.94	6232.85
452.13	6244.55
452.31	6291.36
452.49	6052.63
452.68	6382.64
452.86	6317.11
453.05	6345.19
453.23	6583.93
453.42	6401.37
453.60	6487.96
453.78	6630.74
453.97	6349.87
454.15	6469.24
454.34	6279.66
454.52	6586.27
454.70	6551.16
454.89	6612.01
455.07	6567.54
455.26	6654.14
455.44	6747.76
455.62	6677.55
455.81	6700.95
455.99	6740.74
456.17	6689.25
456.36	6733.72
456.54	6698.61
456.73	6906.92
456.91	7288.43
457.09	7016.93
457.28	7089.48
457.46	6993.52
457.64	7105.87
457.83	7162.04
458.01	6860.11
458.19	7232.26
458.38	6937.35
458.56	7178.42
458.74	7185.44
458.93	7206.51
459.11	7258.00
459.29	7339.92
459.48	7260.34
459.66	7276.73
459.84	7400.77
460.03	7562.27
460.21	7527.16
460.39	7456.95
460.57	7342.26
460.76	7637.17
460.94	7492.05
461.12	7515.46
461.31	7417.16
461.49	7463.97
461.67	7454.61
461.85	7786.96
462.04	7679.30
462.22	7978.89
462.40	7859.52
462.59	7726.11
462.77	7772.92
462.95	7908.67
463.13	7716.75
463.32	7899.31
463.50	7892.29
463.68	7770.58
463.86	7861.86
464.05	7983.57
464.23	7885.26
464.41	8212.94
464.59	7833.77
464.78	8194.22
464.96	8215.28
465.14	8147.40
465.32	8163.79
465.50	8290.18
465.69	8226.98
465.87	8248.05
466.05	8283.16
466.23	8131.02
466.41	8011.65
466.60	8334.65
466.78	8278.47
466.96	8121.66
467.14	8194.22
467.32	8318.26
467.51	8372.10
467.69	8152.09
467.87	8397.84
468.05	8423.59
468.23	8353.37
468.41	8458.70
468.60	8437.63
468.78	8475.08
468.96	8475.08
469.14	8496.14
469.32	8781.69
469.50	8484.44
469.69	8760.63
469.87	8842.54
470.05	8791.05
470.23	8683.39
470.41	8847.22
470.59	8961.91
470.77	8662.32
470.95	8919.78
471.14	9191.28
471.32	8842.54
471.50	9144.47
471.68	9081.28
471.86	9219.37
472.04	9261.50
472.22	9507.26
472.40	9378.53
472.58	9228.73
472.77	9259.16
472.95	9355.12
473.13	9940.26
473.31	9584.49
473.49	9509.60
473.67	9577.47
473.85	9628.96
474.03	9598.54
474.21	9820.89
474.39	9998.77
474.57	10059.62
474.75	10064.30
474.93	10061.96
475.12	9736.63
475.30	10118.14
475.48	10232.82
475.66	10101.75
475.84	9977.70
476.02	10267.93
476.20	10415.38
476.38	10473.90
476.56	10707.95
476.74	10562.84
476.92	10485.60
477.10	10427.09
477.28	10764.12
477.46	10752.42
477.64	10726.68
477.82	11110.52
478.00	11318.83
478.18	11265.00
478.36	11248.61
478.54	11389.05
478.72	11709.70
478.90	11431.18
479.08	11564.59
479.26	11646.51
479.44	11899.28
479.62	11871.20
479.80	11929.71
479.98	11913.33
480.16	12006.95
480.34	12210.57
480.52	12203.55
480.70	12273.77
480.88	12325.26
481.06	12292.49
481.24	12596.76
481.41	12594.42
481.59	12636.55
481.77	13039.12
481.95	12856.56
482.13	12994.65
482.31	13107.00
482.49	13497.87
482.67	13062.53
482.85	13591.49
483.03	13624.26
483.21	13802.14
483.39	13891.08
483.57	13858.31
483.74	14209.39
483.92	14113.43
484.10	14146.20
484.28	14356.85
484.46	14647.07
484.64	15084.75
484.82	14480.89
485.00	14813.25
485.18	14918.57
485.35	15077.73
485.53	15225.18
485.71	15398.38
485.89	15297.74
486.07	15442.85
486.25	15543.50
486.43	15707.34
486.61	15648.82
486.78	15936.71
486.96	16126.29
487.14	16248.00
487.32	16297.15
487.50	16470.35
487.68	16676.32
487.85	16762.92
488.03	16762.92
488.21	17181.87
488.39	17099.95
488.57	17062.51
488.75	17291.88
488.92	17675.73
489.10	17841.90
489.28	18059.57
489.46	17884.03
489.64	17891.06
489.81	18143.83
489.99	18249.16
490.17	18469.17
490.35	18651.73
490.53	18794.50
490.70	18911.53
490.88	18412.99
491.06	18829.61
491.24	19033.24
491.41	19054.30
491.59	19536.45
491.77	19679.22
491.95	19501.34
492.13	19913.28
492.30	19618.37
492.48	19789.23
492.66	19751.78
492.84	20070.09
493.01	20290.10
493.19	20123.93
493.37	20491.39
493.54	20507.77
493.72	20807.36
493.90	20666.93
494.08	21256.75
494.25	21287.17
494.43	21006.31
494.61	21341.00
494.79	21539.95
494.96	21401.86
495.14	21617.19
495.32	22115.72
495.49	21762.30
495.67	22052.53
495.85	21937.84
496.02	22586.17
496.20	22635.32
496.38	22459.78
496.55	22799.16
496.73	23110.45
496.91	22892.78
497.09	23145.56
497.26	23122.15
497.44	22932.57
497.62	23541.11
497.79	23388.97
497.97	23473.23
498.14	23880.49
498.32	23988.15
498.50	23756.44
498.67	24446.90
498.85	24159.01
499.03	23868.78
499.20	24231.57
499.38	24343.91
499.56	24435.19
499.73	24713.72
499.91	24753.51
500.08	24865.85
500.26	24697.33
500.44	25195.87
500.61	24987.56
500.79	24903.30
500.97	25284.81
501.14	25310.55
501.32	25352.68
501.49	25523.54
501.67	25638.23
501.84	25759.94
502.02	25869.94
502.20	25766.96
502.37	25977.61
502.55	26141.44
502.72	26206.98
502.90	26080.59
503.07	25869.94
503.25	26455.08
503.43	26312.30
503.60	26604.87
503.78	26754.66
503.95	26742.96
504.13	26794.45
504.30	27051.91
504.48	26918.50
504.65	27016.80
504.83	27103.40
505.01	27281.28
505.18	27454.48
505.36	27447.46
505.53	27517.68
505.71	27716.62
505.88	27775.14
506.06	27372.57
506.23	27796.20
506.41	27669.81
506.58	28098.13
506.76	27908.55
506.93	28180.05
507.11	28091.11
507.28	28116.86
507.46	28648.16
507.63	28348.57
507.81	28741.78
507.98	28446.87
508.16	28776.89
508.33	28411.76
508.50	28861.15
508.68	28854.12
508.85	29259.04
509.03	29207.55
509.20	29050.73
509.38	29324.57
509.55	29467.34
509.73	29661.61
509.90	29795.02
510.08	29572.67
510.25	29429.90
510.42	29977.58
510.60	30216.32
510.77	30171.85
510.95	30473.78
511.12	30087.59
511.30	30225.68
511.47	30441.01
511.64	30195.25
511.82	30387.18
511.99	30525.27
512.17	30801.45
512.34	30649.32
512.51	30906.77
512.69	31168.91
512.86	31101.04
513.04	31463.82
513.21	31388.92
513.38	31211.04
513.56	31330.41
513.73	31241.47
513.90	31398.29
514.08	31358.50
514.25	31346.79
514.43	31697.88
514.60	32072.36
514.77	31988.10
514.95	32133.21
515.12	32020.87
515.29	31990.44
515.47	32189.39
515.64	32114.49
515.81	32048.96
515.99	32474.93
516.16	32449.19
516.33	32449.19
516.51	32290.03
516.68	32484.30
516.85	32620.05
517.03	33106.88
517.20	32931.34
517.37	33095.18
517.54	33095.18
517.72	32987.51
517.89	33139.65
518.06	33008.58
518.24	33649.88
518.41	33315.19
518.58	33624.14
518.75	33352.63
518.93	33762.23
519.10	33254.33
519.27	33919.04
519.45	33769.25
519.62	34108.63
519.79	33965.85
519.96	33893.30
520.14	34125.01
520.31	34047.77
520.48	34431.62
520.65	34295.87
520.83	34457.37
521.00	34579.07
521.17	34646.95
521.34	34515.88
521.52	34780.36
521.69	34515.88
521.86	34916.11
522.03	35042.50
522.20	34988.67
522.38	35424.01
522.55	35101.01
522.72	35330.39
522.89	35454.44
523.07	35622.95
523.24	35505.93
523.41	35424.01
523.58	35295.28
523.75	35606.57
523.92	35817.22
524.10	35552.74
524.27	35716.58
524.44	36032.55
524.61	36411.71
524.78	36189.36
524.96	36741.73
525.13	36243.20
525.30	36259.58
525.47	36376.61
525.64	36453.84
525.81	36643.43
525.98	36730.03
526.16	36872.80
526.33	36793.22
526.50	36807.26
526.67	36144.89
526.84	36800.24
527.01	36671.51
527.18	36669.17
527.36	37392.40
527.53	37041.32
527.70	37319.84
527.87	37455.59
528.04	37088.13
528.21	37589.00
528.38	37214.52
528.55	37565.60
528.72	37523.47
528.89	37677.94
529.07	37401.76
529.24	37713.05
529.41	38040.73
529.58	37858.17
529.75	37626.45
529.92	37965.83
530.09	38085.20
530.26	38094.56
530.43	38160.09
530.60	37797.31
530.77	38014.98
530.94	37731.78
531.11	38345.00
531.28	38103.92
531.46	38342.66
531.63	38553.30
531.80	38176.48
531.97	38752.25
532.14	38822.47
532.31	38520.54
532.48	38841.19
532.65	39210.99
532.82	38829.49
532.99	38792.04
533.16	38548.62
533.33	38714.80
533.50	39431.01
533.67	38967.58
533.84	38492.45
534.01	39150.14
534.18	38747.57
534.35	39189.93
534.52	39431.01
534.69	39318.66
534.86	39625.27
535.03	39250.78
535.20	39454.41
535.37	39601.86
535.54	40135.51
535.71	39927.20
535.88	39903.79
536.05	39431.01
536.22	40311.05
536.38	40165.93
536.55	39653.36
536.72	40095.72
536.89	40093.38
537.06	40287.64
537.23	40474.88
537.40	40018.48
537.57	40135.51
537.74	40119.12
537.91	40556.80
538.08	40825.96
538.25	39969.33
538.42	40383.60
538.59	40722.98
538.75	40385.94
538.92	40886.82
539.09	40919.59
539.26	40762.77
539.43	40987.46
539.60	40886.82
539.77	41099.81
539.94	41261.30
540.11	41144.28
540.28	41359.61
540.44	40959.38
540.61	41340.88
540.78	40835.33
540.95	41556.21
541.12	40783.83
541.29	41371.31
541.46	41392.37
541.62	41235.56
541.79	41710.69
541.96	41076.40
542.13	41207.47
542.30	41792.61
542.47	41542.17
542.63	42099.22
542.80	41354.93
542.97	42106.24
543.14	42572.00
543.31	42066.45
543.48	42305.18
543.64	42246.67
543.81	42396.46
543.98	42672.65
544.15	42649.24
544.32	42597.75
544.48	42740.52
544.65	42513.49
544.82	42705.41
544.99	42784.99
545.16	42373.06
545.32	42426.89
545.49	43014.37
545.66	42747.54
545.83	43049.47
546.00	43328.00
546.16	43021.39
546.33	42368.38
546.50	42375.40
546.67	42843.51
546.83	42653.92
547.00	42763.93
547.17	43138.41
547.34	43210.97
547.50	43234.38
547.67	43707.16
547.84	43494.18
548.00	43805.47
548.17	43812.49
548.34	43309.27
548.51	43732.91
548.67	43583.12
548.84	43648.65
549.01	43548.01
549.18	43861.64
549.34	43838.23
549.51	43709.50
549.68	43873.34
549.84	43590.14
550.01	44257.19
550.18	43894.41
550.34	43973.98
550.51	44123.78
550.68	44027.82
550.84	43899.09
551.01	44451.45
551.18	44250.17
551.34	44051.22
551.51	44573.16
551.68	43756.32
551.84	44079.31
552.01	44102.71
552.18	44439.75
552.34	44240.81
552.51	44334.43
552.68	43936.54
552.84	44348.47
553.01	44713.59
553.18	43957.60
553.34	44619.97
553.51	44343.79
553.67	44453.79
553.84	44594.23
554.01	44996.80
554.17	44844.66
554.34	44533.37
554.51	44708.91
554.67	44940.63
554.84	45109.14
555.00	44645.72
555.17	44713.59
555.33	45008.50
555.50	45031.91
555.67	44835.30
555.83	44851.69
556.00	45221.49
556.16	45710.66
556.33	45181.70
556.50	45408.73
556.66	45303.41
556.83	45359.58
556.99	45413.41
557.16	45186.38
557.32	45359.58
557.49	45265.96
557.65	45097.44
557.82	45617.04
557.98	45687.26
558.15	45546.82
558.32	45696.62
558.48	45219.15
558.65	45668.53
558.81	45792.58
558.98	45067.02
559.14	45717.68
559.31	45436.82
559.47	45198.09
559.64	45839.39
559.80	45787.90
559.97	45453.20
560.13	45549.17
560.30	45741.09
560.46	45797.26
560.63	45834.71
560.79	46089.83
560.96	46529.85
561.12	45804.28
561.29	46351.97
561.45	46106.21
561.61	46021.95
561.78	45535.12
561.94	45975.14
562.11	45502.35
562.27	46003.23
562.44	46178.77
562.60	46349.63
562.77	45930.67
562.93	45986.85
563.10	46546.23
563.26	46089.83
563.42	46298.14
563.59	45895.56
563.75	46122.60
563.92	46248.99
564.08	45776.20
564.24	46677.30
564.41	45986.85
564.57	46461.97
564.74	46478.36
564.90	46064.08
565.07	46457.29
565.23	46265.37
565.39	46487.72
565.56	46918.38
565.72	46447.93
565.88	46115.58
566.05	46564.96
566.21	46653.90
566.38	46597.73
566.54	46550.91
566.70	46834.12
566.87	46768.58
567.03	46452.61
567.19	47026.04
567.36	46836.46
567.52	46918.38
567.68	47098.60
567.85	47033.07
568.01	46981.57
568.17	46548.57
568.34	47110.30
568.50	47100.94
568.66	46705.39
568.83	46316.86
568.99	46567.30
569.15	46848.16
569.32	46717.09
569.48	46983.91
569.64	46777.95
569.81	46674.96
569.97	46773.27
570.13	47234.35
570.30	47091.58
570.46	47058.81
570.62	47323.29
570.78	46766.24
570.95	46862.21
571.11	46937.10
571.27	46878.59
571.43	46845.82
571.60	46696.03
571.76	46972.21
571.92	46981.57
572.09	47030.72
572.25	46747.52
572.41	46726.46
572.57	47147.75
572.74	47709.48
572.90	47196.90
573.06	47061.15
573.22	47367.76
573.38	47395.85
573.55	47009.66
573.71	47480.11
573.87	47531.60
574.03	47028.38
574.20	47760.97
574.36	47302.23
574.52	47222.65
574.68	47536.28
574.84	47452.02
575.01	47491.81
575.17	47412.23
575.33	47215.63
575.49	47037.75
575.65	47353.72
575.82	47587.77
575.98	47461.38
576.14	47936.51
576.30	47613.52
576.46	47234.35
576.62	47323.29
576.79	47409.89
576.95	47657.99
577.11	47449.68
577.27	47241.37
577.43	47201.58
577.59	47381.80
577.75	47213.29
577.92	46890.29
578.08	47201.58
578.24	47515.22
578.40	47564.37
578.56	47346.70
578.72	47367.76
578.88	47728.20
579.04	47107.96
579.21	47264.78
579.37	47585.43
579.53	47882.68
579.69	47334.99
579.85	47203.92
580.01	47285.84
580.17	47412.23
580.33	48109.71
580.49	47407.55
580.65	47716.50
580.82	47442.66
580.98	47496.49
581.14	47194.56
581.30	47789.06
581.46	47894.38
581.62	47552.66
581.78	47522.24
581.94	47672.03
582.10	47192.22
582.26	47667.35
582.42	47353.72
582.58	47906.08
582.74	47995.03
582.90	47693.10
583.06	47363.08
583.22	47620.54
583.38	47786.72
583.54	47538.62
583.70	47723.52
583.86	47592.45
584.02	47414.57
584.18	47674.37
584.34	47496.49
584.50	48229.08
584.66	47700.12
584.82	47519.90
584.98	48065.24
585.14	47824.17
585.30	47442.66
585.46	47753.95
585.62	47515.22
585.78	47690.76
585.94	47269.46
586.10	47531.60
586.26	47430.96
586.42	47679.05
586.58	47831.19
586.74	47569.05
586.90	47828.85
587.06	47901.40
587.22	47903.74
587.38	47859.27
587.54	48006.73
587.70	48079.28
587.86	47980.98
588.02	47969.28
588.18	47466.06
588.34	47454.36
588.49	47753.95
588.65	47627.56
588.81	47863.96
588.97	48048.86
589.13	47533.94
589.29	47889.70
589.45	48509.94
589.61	48222.06
589.77	48121.41
589.93	47835.87
590.08	48404.62
590.24	48102.69
590.40	48421.00
590.56	47950.56
590.72	48090.99
590.88	48058.22
591.04	47870.98
591.20	48186.95
591.35	48315.68
591.51	48814.21
591.67	48357.81
591.83	48538.03
591.99	48161.20
592.15	48083.97
592.31	47988.00
592.46	48114.39
592.62	48353.13
592.78	48395.26
592.94	48626.97
593.10	48240.78
593.26	48182.27
593.41	48573.14
593.57	48098.01
593.73	48442.07
593.89	48788.47
594.05	48346.11
594.20	48474.84
594.36	48638.67
594.52	48809.53
594.68	48383.55
594.84	48341.42
594.99	48598.88
595.15	48940.60
595.31	48577.82
595.47	48413.98
595.62	48299.30
595.78	48460.79
595.94	48678.46
596.10	48182.27
596.25	48236.10
596.41	48851.66
596.57	47962.26
596.73	48816.55
596.88	48371.85
597.04	48460.79
597.20	48683.14
597.36	48580.16
597.51	48697.19
597.67	48563.78
597.83	48514.62
597.99	48498.24
598.14	48711.23
598.30	48898.47
598.46	48535.69
598.61	48849.32
598.77	48484.20
598.93	48591.86
599.09	48648.03
599.24	48954.64
599.40	48687.82
599.56	48507.60
599.71	48643.35
599.87	48722.93
600.03	48884.43
600.18	48626.97
600.34	48655.06
600.50	48498.24
600.65	48577.82
600.81	48512.28
600.97	49083.37
601.12	48928.90
601.28	48158.86
601.44	48720.59
601.59	48683.14
601.75	48348.45
601.91	48662.08
602.06	48404.62
602.22	48523.99
602.37	48626.97
602.53	48910.17
602.69	48685.48
602.84	48582.50
603.00	48521.65
603.16	48996.77
603.31	48320.36
603.47	49083.37
603.62	48746.34
603.78	48409.30
603.94	48477.18
604.09	48736.98
604.25	48390.58
604.40	48638.67
604.56	48720.59
604.71	48811.87
604.87	48626.97
605.03	48381.21
605.18	48311.00
605.34	48280.57
605.49	48327.38
605.65	48694.85
605.80	48303.98
605.96	48137.80
606.12	48416.32
606.27	48872.73
606.43	48425.68
606.58	48807.19
606.74	48428.02
606.89	48418.66
607.05	48711.23
607.20	48662.08
607.36	48086.31
607.51	48533.35
607.67	48308.66
607.82	48598.88
607.98	48411.64
608.13	48200.99
608.29	48208.01
608.44	48797.83
608.60	48142.48
608.75	48545.05
608.91	48275.89
609.06	48053.54
609.22	48676.12
609.37	48168.22
609.53	48446.75
609.68	48722.93
609.84	48622.29
609.99	48509.94
610.15	48559.09
610.30	48629.31
610.46	48320.36
610.61	48156.52
610.76	48348.45
610.92	47840.55
611.07	48098.01
611.23	48355.47
611.38	48184.61
611.54	48287.59
611.69	48105.03
611.84	48390.58
612.00	47585.43
612.15	47941.19
612.31	48196.31
612.46	47667.35
612.62	48154.18
612.77	48165.88
612.92	48388.24
613.08	47929.49
613.23	47913.11
613.39	47852.25
613.54	48163.54
613.69	48215.04
613.85	48168.22
614.00	47814.80
614.15	48069.92
614.31	47798.42
614.46	47690.76
614.62	47819.49
614.77	48086.31
614.92	47402.87
615.08	47519.90
615.23	47870.98
615.38	48060.56
615.54	47672.03
615.69	48203.33
615.84	48034.81
616.00	48055.88
616.15	48076.94
616.30	48275.89
616.46	47512.88
616.61	47564.37
616.76	47749.27
616.92	47538.62
617.07	47894.38
617.22	47697.78
617.37	47154.77
617.53	47470.75
617.68	47327.97
617.83	47779.70
617.99	47880.34
618.14	48065.24
618.29	47182.86
618.45	47725.86
618.60	47482.45
618.75	47222.65
618.90	47562.03
619.06	47496.49
619.21	47203.92
619.36	47681.39
619.51	47374.78
619.67	47217.97
619.82	47281.16
619.97	47538.62
620.12	47316.27
620.28	47180.52
620.43	47550.32
620.58	47660.33
620.73	47363.08
620.89	47700.12
621.04	47484.79
621.19	47093.92
621.34	47189.88
621.49	46974.55
621.65	47028.38
621.80	47728.20
621.95	47220.31
622.10	47278.82
622.25	47012.00
622.41	46808.37
622.56	47138.39
622.71	47274.14
622.86	46480.70
623.01	47117.32
623.16	47033.07
623.32	47122.01
623.47	47147.75
623.62	46571.98
623.77	46997.96
623.92	46689.01
624.07	47112.64
624.23	47337.33
624.38	46768.58
624.53	47082.22
624.68	46550.91
624.83	46838.80
624.98	46796.67
625.13	46447.93
625.29	46174.09
625.44	46911.36
625.59	46349.63
625.74	46410.48
625.89	46307.50
626.04	46469.00
626.19	46171.75
626.34	46108.55
626.49	46291.12
626.65	45886.20
626.80	46101.53
626.95	46394.10
627.10	45984.51
627.25	46316.86
627.40	46511.13
627.55	46579.00
627.70	46356.65
627.85	46773.27
628.00	46576.66
628.15	45986.85
628.30	46277.07
628.45	45448.52
628.60	45743.43
628.76	45930.67
628.91	46288.77
629.06	45654.49
629.21	45989.19
629.36	45801.94
629.51	45970.46
629.66	46253.67
629.81	46174.09
629.96	46197.49
630.11	45675.55
630.26	45710.66
630.41	46232.60
630.56	45769.18
630.71	46237.28
630.86	45748.11
631.01	45595.98
631.16	45432.14
631.31	45471.93
631.46	45638.11
631.61	46335.59
631.76	45879.18
631.91	45839.39
632.06	45827.69
632.21	45872.16
632.36	45925.99
632.51	44971.05
632.66	45603.00
632.81	45481.29
632.96	45659.17
633.10	45160.64
633.25	45221.49
633.40	45471.93
633.55	45469.59
633.70	45549.17
633.85	45345.54
634.00	44856.37
634.15	44947.65
634.30	45375.97
634.45	44828.28
634.60	44821.26
634.75	45120.85
634.90	44919.56
635.05	45275.32
635.19	44996.80
635.34	45291.71
635.49	45340.86
635.64	45120.85
635.79	45258.94
635.94	45310.43
636.09	45074.04
636.24	44884.45
636.39	44947.65
636.53	45017.86
636.68	44737.00
636.83	44692.53
636.98	44374.22
637.13	44442.09
637.28	44437.41
637.43	44334.43
637.57	44823.60
637.72	44414.01
637.87	44734.66
638.02	45064.67
638.17	44626.99
638.32	44500.61
638.46	44231.44
638.61	44318.04
638.76	44786.15
638.91	44608.27
639.06	44198.68
639.20	44320.38
639.35	44219.74
639.50	43887.39
639.65	44516.99
639.80	44264.21
639.94	44872.75
640.09	44507.63
640.24	44044.20
640.39	43920.15
640.54	43831.21
640.68	43913.13
640.83	44385.92
640.98	43501.20
641.13	44109.74
641.27	44343.79
641.42	44278.25
641.57	43718.87
641.72	44088.67
641.86	44041.86
642.01	43700.14
642.16	43569.07
642.31	43358.42
642.45	43983.35
642.60	43531.62
642.75	44114.42
642.90	44058.24
643.04	43381.83
643.19	43540.99
643.34	43873.34
643.48	43126.71
643.63	43210.97
643.78	43501.20
643.93	43360.76
644.07	43924.83
644.22	43283.53
644.37	43578.43
644.51	43702.48
644.66	43571.41
644.81	43571.41
644.95	43714.19
645.10	43269.48
645.25	43510.56
645.39	42808.40
645.54	43243.74
645.69	43217.99
645.83	42925.42
645.98	43044.79
646.13	43386.51
646.27	42822.44
646.42	42632.86
646.57	43557.37
646.71	43318.64
646.86	43456.73
647.00	43594.82
647.15	43168.84
647.30	43400.55
647.44	43232.04
647.59	42855.21
647.74	42595.41
647.88	43119.69
648.03	43185.22
648.17	43058.84
648.32	43068.20
648.47	42890.32
648.61	42686.69
648.76	42941.81
648.90	42689.03
649.05	42457.32
649.20	42682.01
649.34	42756.91
649.49	42899.68
649.63	42808.40
649.78	42988.62
649.92	42651.58
650.07	42672.65
650.21	42876.27
650.36	42700.73
650.51	42871.59
650.65	43009.68
650.80	42887.98
650.94	42651.58
651.09	42609.45
651.23	41799.63
651.38	42115.60
651.52	41975.17
651.67	42431.57
651.81	42593.07
651.96	42483.06
652.10	41879.21
652.25	42120.28
652.39	42265.39
652.54	42394.12
652.68	42260.71
652.83	42403.49
652.97	42553.28
653.12	42480.72
653.26	41656.85
653.41	41720.05
653.55	41982.19
653.70	42256.03
653.84	42176.45
653.99	42234.97
654.13	41928.36
654.27	41937.72
654.42	41640.47
654.56	41766.86
654.71	41940.06
654.85	41633.45
655.00	41787.92
655.14	41785.58
655.29	42040.70
655.43	42227.95
655.57	41584.30
655.72	41785.58
655.86	41226.20
656.01	41495.36
656.15	41567.91
656.30	41420.46
656.44	41567.91
656.58	41357.27
656.73	41670.90
656.87	41364.29
657.01	41085.76
657.16	41422.80
657.30	41256.62
657.45	40968.74
657.59	41347.90
657.73	41022.57
657.88	41155.98
658.02	41181.73
658.16	41380.67
658.31	40914.90
658.45	41383.01
658.60	40584.89
658.74	40935.97
658.88	40879.80
659.03	40921.93
659.17	40807.24
659.31	40210.40
659.46	40308.71
659.60	40786.18
659.74	40634.04
659.89	40472.54
660.03	40568.51
660.17	40538.08
660.32	40479.57
660.46	40505.31
660.60	40123.80
660.74	40350.84
660.89	40107.42
661.03	40037.20
661.17	39899.11
661.32	40257.21
661.46	40357.86
661.60	39718.89
661.74	40044.23
661.89	39917.84
662.03	39903.79
662.17	39768.04
662.31	40081.67
662.46	40488.93
662.60	39718.89
662.74	39344.41
662.88	39234.40
663.03	39210.99
663.17	39524.63
663.31	39014.39
663.45	39225.04
663.60	39330.36
663.74	39660.38
663.88	39311.64
664.02	39002.69
664.17	39110.35
664.31	38941.83
664.45	39201.63
664.59	39503.56
664.73	38658.63
664.88	39180.57
665.02	38494.79
665.16	38766.29
665.30	38656.29
665.44	38768.63
665.59	38295.85
665.73	37991.58
665.87	37928.38
666.01	38300.53
666.15	38494.79
666.29	38185.84
666.44	38663.31
666.58	38436.28
666.72	38204.56
666.86	38052.43
667.00	37970.51
667.14	38218.61
667.28	37738.80
667.43	37961.15
667.57	38394.15
667.71	38466.70
667.85	37895.61
667.99	37923.70
668.13	37617.09
668.27	37464.96
668.41	37471.98
668.56	37212.18
668.70	36905.57
668.84	37013.23
668.98	37006.21
669.12	37312.82
669.26	37006.21
669.40	37006.21
669.54	37212.18
669.68	37404.10
669.82	36950.04
669.96	36847.05
670.10	36376.61
670.25	36893.86
670.39	36376.61
670.53	36699.60
670.67	36526.40
670.81	37226.22
670.95	36575.55
671.09	36282.98
671.23	36210.43
671.37	36257.24
671.51	36126.17
671.65	35831.26
671.79	36077.02
671.93	35995.10
672.07	36041.91
672.21	35974.03
672.35	35543.38
672.49	35496.56
672.63	35608.91
672.77	34820.15
672.91	35629.98
673.05	35330.39
673.19	35445.07
673.33	35278.89
673.47	35040.16
673.61	34625.89
673.75	34986.33
673.89	34492.47
674.03	35143.14
674.17	34426.94
674.31	34132.03
674.45	34209.27
674.59	34153.10
674.73	34291.19
674.87	34305.23
675.01	33558.60
675.15	33970.54
675.29	33242.63
675.43	33813.72
675.56	33415.83
675.70	34071.18
675.84	33792.65
675.98	32837.72
676.12	33659.24
676.26	33476.68
676.40	33385.40
676.54	33502.43
676.68	33074.11
676.82	32570.90
676.96	32685.58
677.10	32931.34
677.23	32397.70
677.37	32797.93
677.51	32332.16
677.65	32339.18
677.79	32566.21
677.93	32512.38
678.07	32343.86
678.21	32044.27
678.34	31395.95
678.48	31983.42
678.62	31751.71
678.76	31889.80
678.90	31613.62
679.04	31400.63
679.18	31786.82
679.31	31473.18
679.45	31180.62
679.59	31110.40
679.73	30852.94
679.87	31072.95
680.00	30902.09
680.14	30714.85
680.28	30962.95
680.42	31002.74
680.56	30588.46
680.70	30529.95
680.83	30520.59
680.97	29855.87
681.11	30047.80
681.25	29958.86
681.39	29666.29
681.52	29853.53
681.66	29390.11
681.80	29385.43
681.94	29184.14
682.07	29170.10
682.21	28957.11
682.35	29036.69
682.49	28821.36
682.62	29015.62
682.76	29462.66
682.90	28863.49
683.04	28664.54
683.17	28868.17
683.31	28617.73
683.45	28016.21
683.59	28276.01
683.72	28250.27
683.86	28439.85
684.00	28121.54
684.13	27887.48
684.27	27915.57
684.41	27360.86
684.55	27351.50
684.68	27300.01
684.82	27314.05
684.96	27213.41
685.09	27494.27
685.23	27426.40
685.37	27545.76
685.50	27276.60
685.64	26974.67
685.78	26656.36
685.91	26541.68
686.05	26520.61
686.19	26263.15
686.32	26384.86
686.46	25727.17
686.60	25846.54
686.73	26059.52
686.87	25626.53
687.01	26235.06
687.14	25844.20
687.28	25858.24
687.42	25635.89
687.55	25607.80
687.69	25523.54
687.82	25139.69
687.96	24898.62
688.10	25010.96
688.23	25209.91
688.37	25238.00
688.50	24992.24
688.64	25135.01
688.78	24802.66
688.91	24734.78
689.05	24912.66
689.18	24149.65
689.32	24044.32
689.46	23854.74
689.59	24238.59
689.73	24556.90
689.86	24187.10
690.00	23817.29
690.13	23868.78
690.27	23697.92
690.41	23796.23
690.54	23407.70
690.68	23304.71
690.81	23166.62
690.95	22883.42
691.08	23239.18
691.22	22984.06
691.35	22492.55
691.49	22848.31
691.62	23136.20
691.76	22576.81
691.89	22211.68
692.03	22221.05
692.16	22218.71
692.30	22073.59
692.43	22085.30
692.57	21647.61
692.70	22043.17
692.84	21961.25
692.97	21394.84
693.11	21633.57
693.24	21453.35
693.38	21256.75
693.51	21287.17
693.65	21170.15
693.78	21099.93
693.92	21010.99
694.05	20870.56
694.19	20858.85
694.32	20711.40
694.45	20573.31
694.59	20854.17
694.72	20767.57
694.86	20669.27
694.99	20154.35
695.13	20198.82
695.26	20166.06
695.39	19906.26
695.53	19932.00
695.66	19967.11
695.80	19714.33
695.93	19744.76
696.07	19447.51
696.20	19208.78
696.33	19089.41
696.47	19197.07
696.60	19290.70
696.73	19325.80
696.87	18960.68
697.00	19044.94
697.14	18979.40
697.27	18553.43
697.40	18878.76
697.54	18834.29
697.67	18562.79
697.80	18527.68
697.94	18134.47
698.07	18312.35
698.21	17951.91
698.34	18377.89
698.47	18366.18
698.61	17319.96
698.74	17734.24
698.87	17605.51
699.01	17198.26
699.14	17649.98
699.27	17722.54
699.40	17551.68
699.54	17406.56
699.67	17228.68
699.80	17481.46
699.94	17530.61
700.07	17132.72
700.20	16954.84
700.34	16737.17
700.47	17060.16
700.60	17104.64
700.73	16842.50
700.87	16652.91
701.00	16379.07
701.13	16390.77
701.26	16456.31
701.40	16210.55
701.53	16355.66
701.66	16140.33
701.79	16133.31
701.93	15796.28
702.06	15660.52
702.19	15534.14
702.32	15887.56
702.46	15793.94
702.59	15510.73
702.72	15826.70
702.85	15538.82
702.99	15477.96
703.12	15161.99
703.25	15255.61
703.38	15054.33
703.51	15150.29
703.65	14815.59
703.78	14785.16
703.91	14747.72
704.04	14675.16
704.17	14413.02
704.31	14618.99
704.44	14513.66
704.57	14574.52
704.70	14574.52
704.83	14272.59
704.96	14223.44
705.10	14104.07
705.23	13991.72
>>>>>End Processed Spectral Data<<<<<
