SpectraSuite Data File
++++++++++++++++++++++++++++++++++++
Date: Fri Oct 25 10:47:15 EDT 2013
User: price-jones
Dark Spectrum Present: No
Reference Spectrum Present: No
Number of Sampled Component Spectra: 1
Spectrometers: USB2+H05261
Integration Time (usec): 100000 (USB2+H05261)
Spectra Averaged: 1 (USB2+H05261)
Boxcar Smoothing: 0 (USB2+H05261)
Correct for Electrical Dark: No (USB2+H05261)
Strobe/Lamp Enabled: No (USB2+H05261)
Correct for Detector Non-linearity: No (USB2+H05261)
Correct for Stray Light: No (USB2+H05261)
Number of Pixels in Processed Spectrum: 2048
>>>>>Begin Processed Spectral Data<<<<<
365.73	154.48
365.92	154.48
366.12	154.48
366.32	65.54
366.52	0.00
366.72	0.00
366.91	65.54
367.11	53.83
367.31	72.56
367.51	0.00
367.70	67.88
367.90	88.94
368.10	14.04
368.30	9.36
368.49	25.75
368.69	119.37
368.89	77.24
369.09	65.54
369.28	117.03
369.48	84.26
369.68	70.22
369.87	166.18
370.07	53.83
370.27	156.82
370.47	149.79
370.66	330.02
370.86	393.21
371.06	421.30
371.25	388.53
371.45	400.23
371.65	388.53
371.84	491.51
372.04	484.49
372.24	470.45
372.44	411.93
372.63	397.89
372.83	458.74
373.03	498.53
373.22	491.51
373.42	414.27
373.62	475.13
373.81	554.71
374.01	582.79
374.21	454.06
374.40	552.37
374.60	552.37
374.79	559.39
374.99	491.51
375.19	582.79
375.38	519.60
375.58	451.72
375.78	596.84
375.97	493.85
376.17	615.56
376.37	573.43
376.56	524.28
376.76	575.77
376.95	526.62
377.15	599.18
377.35	540.66
377.54	582.79
377.74	643.65
377.93	540.66
378.13	585.13
378.33	634.29
378.52	566.41
378.72	561.73
378.91	564.07
379.11	596.84
379.31	557.05
379.50	510.24
379.70	617.90
379.89	608.54
380.09	620.24
380.28	599.18
380.48	582.79
380.68	617.90
380.87	575.77
381.07	629.60
381.26	676.41
381.46	669.39
381.65	697.48
381.85	674.07
382.04	589.82
382.24	678.76
382.43	678.76
382.63	702.16
382.83	650.67
383.02	755.99
383.22	671.73
383.41	674.07
383.61	676.41
383.80	678.76
384.00	718.54
384.19	709.18
384.39	760.67
384.58	697.48
384.78	788.76
384.97	781.74
385.17	699.82
385.36	741.95
385.56	812.17
385.75	765.36
385.95	709.18
386.14	767.70
386.34	765.36
386.53	688.12
386.72	725.57
386.92	802.80
387.11	713.86
387.31	807.48
387.50	706.84
387.70	748.97
387.89	725.57
388.09	755.99
388.28	755.99
388.48	812.17
388.67	786.42
388.86	786.42
389.06	896.43
389.25	861.32
389.45	908.13
389.64	777.06
389.84	959.62
390.03	894.08
390.22	891.74
390.42	905.79
390.61	847.27
390.81	887.06
391.00	943.24
391.19	947.92
391.39	877.70
391.58	856.64
391.78	936.21
391.97	929.19
392.16	971.32
392.36	940.90
392.55	929.19
392.75	961.96
392.94	976.00
393.13	926.85
393.33	940.90
393.52	938.55
393.71	1064.94
393.91	990.05
394.10	966.64
394.29	1043.88
394.49	1015.79
394.68	1015.79
394.88	1083.67
395.07	1055.58
395.26	954.94
395.46	1081.33
395.65	1102.39
395.84	1074.31
396.04	1104.73
396.23	1135.16
396.42	1149.20
396.62	1053.24
396.81	1090.69
397.00	1177.29
397.19	1121.12
397.39	1064.94
397.58	1060.26
397.77	1188.99
397.97	1184.31
398.16	1217.08
398.35	1165.59
398.55	1196.01
398.74	1273.25
398.93	1348.15
399.12	1247.51
399.32	1313.04
399.51	1280.27
399.70	1334.11
399.90	1430.07
400.09	1336.45
400.28	1275.59
400.47	1299.00
400.67	1345.81
400.86	1409.00
401.05	1394.96
401.24	1455.81
401.44	1416.02
401.63	1476.88
401.82	1427.73
402.01	1458.15
402.21	1434.75
402.40	1448.79
402.59	1448.79
402.78	1430.07
402.97	1523.69
403.17	1476.88
403.36	1486.24
403.55	1537.73
403.74	1554.12
403.93	1481.56
404.13	1603.27
404.32	1661.78
404.51	1549.43
404.70	1591.56
404.89	1490.92
405.09	1678.16
405.28	1528.37
405.47	1650.08
405.66	1657.10
405.85	1643.06
406.05	1577.52
406.24	1568.16
406.43	1607.95
406.62	1675.82
406.81	1839.66
407.00	1664.12
407.20	1734.34
407.39	1757.74
407.58	1827.96
407.77	1781.15
407.96	1846.68
408.15	1947.33
408.34	1834.98
408.54	1944.99
408.73	1849.02
408.92	1898.17
409.11	1914.56
409.30	1944.99
409.49	1893.49
409.68	1973.07
409.87	2015.20
410.07	2005.84
410.26	2052.65
410.45	2005.84
410.64	1949.67
410.83	2017.54
411.02	2064.35
411.21	2188.40
411.40	2155.63
411.59	2225.85
411.78	2183.72
411.98	2169.68
412.17	2286.70
412.36	2235.21
412.55	2202.44
412.74	2347.56
412.93	2195.42
413.12	2265.64
413.31	2438.84
413.50	2385.01
413.69	2480.97
413.88	2473.95
414.07	2438.84
414.26	2513.74
414.45	2490.33
414.64	2513.74
414.83	2520.76
415.02	2541.82
415.22	2581.61
415.41	2576.93
415.60	2574.59
415.79	2665.87
415.98	2740.77
416.17	2689.28
416.36	2757.15
416.55	2862.48
416.74	2806.30
416.93	2637.78
417.12	2738.43
417.31	2808.64
417.50	2754.81
417.69	2979.50
417.88	2862.48
418.07	2906.95
418.26	2974.82
418.45	2939.71
418.64	3028.65
418.83	2998.23
419.02	2986.52
419.21	3185.47
419.39	3084.83
419.58	3063.76
419.77	3016.95
419.96	3023.97
420.15	3030.99
420.34	3143.34
420.53	3094.19
420.72	3190.15
420.91	3087.17
421.10	3260.37
421.29	3346.97
421.48	3164.40
421.67	3297.81
421.86	3379.73
422.05	3241.64
422.24	3269.73
422.43	3258.03
422.61	3206.53
422.80	3403.14
422.99	3321.22
423.18	3368.03
423.37	3456.97
423.56	3412.50
423.75	3449.95
423.94	3417.18
424.13	3190.15
424.32	3239.30
424.50	3368.03
424.69	3475.70
424.88	3428.88
425.07	3332.92
425.26	3300.16
425.45	3377.39
425.64	3496.76
425.83	3414.84
426.01	3414.84
426.20	3386.76
426.39	3496.76
426.58	3405.48
426.77	3510.80
426.96	3506.12
427.15	3454.63
427.33	3375.05
427.52	3471.01
427.71	3564.64
427.90	3662.94
428.09	3709.75
428.28	3674.64
428.46	3686.34
428.65	3721.45
428.84	3676.98
429.03	3838.48
429.22	3623.15
429.40	3784.65
429.59	3667.62
429.78	3604.42
429.97	3531.87
430.16	3602.08
430.34	3758.90
430.53	3735.50
430.72	3763.58
430.91	3747.20
431.10	3637.19
431.28	3976.57
431.47	3927.42
431.66	4016.36
431.85	3995.29
432.03	4145.09
432.22	4091.26
432.41	4028.06
432.60	3936.78
432.79	4016.36
432.97	4107.64
433.16	4105.30
433.35	4037.42
433.54	4030.40
433.72	4184.88
433.91	4189.56
434.10	4107.64
434.28	4098.28
434.47	4210.62
434.66	4194.24
434.85	4271.48
435.03	4379.14
435.22	4327.65
435.41	4269.14
435.59	4250.41
435.78	4367.44
435.97	4325.31
436.16	4388.50
436.34	4418.93
436.53	4468.08
436.72	4514.89
436.90	4327.65
437.09	4411.91
437.28	4292.54
437.46	4547.66
437.65	4505.53
437.84	4554.68
438.02	4435.32
438.21	4461.06
438.40	4545.32
438.58	4631.92
438.77	4863.63
438.96	4652.98
439.14	4774.69
439.33	4798.10
439.52	4833.21
439.70	4896.40
439.89	4964.28
440.08	4849.59
440.26	4945.55
440.45	5090.67
440.63	5191.31
440.82	5097.69
441.01	5001.72
441.19	4994.70
441.38	5453.45
441.57	5242.80
441.75	5315.36
441.94	5373.87
442.12	5207.69
442.31	5547.07
442.50	5298.97
442.68	5483.88
442.87	5369.19
443.05	5516.64
443.24	5596.22
443.43	5579.84
443.61	5645.37
443.80	5542.39
443.98	5476.85
444.17	5308.34
444.35	5643.03
444.54	5720.27
444.73	5781.12
444.91	5404.30
445.10	5537.71
445.28	5626.65
445.47	5570.48
445.65	5483.88
445.84	5678.14
446.02	5727.29
446.21	5645.37
446.39	5572.82
446.58	5563.45
446.77	5624.31
446.95	5715.59
447.14	5767.08
447.32	5823.25
447.51	5760.06
447.69	5579.84
447.88	5692.18
448.06	5715.59
448.25	5809.21
448.43	5827.93
448.62	5769.42
448.80	5727.29
448.99	5973.05
449.17	5811.55
449.36	5783.46
449.54	6026.88
449.73	5912.19
449.91	6033.90
450.10	6064.33
450.28	6141.57
450.46	5930.92
450.65	6176.67
450.83	6272.64
451.02	5935.60
451.20	6267.95
451.39	6214.12
451.57	6141.57
451.76	5994.11
451.94	6129.86
452.13	6183.70
452.31	6265.61
452.49	6195.40
452.68	6253.91
452.86	6232.85
453.05	6164.97
453.23	6338.17
453.42	6342.85
453.60	6314.77
453.78	6392.00
453.97	6380.30
454.15	6483.28
454.34	6410.73
454.52	6434.13
454.70	6499.67
454.89	6464.56
455.07	6483.28
455.26	6602.65
455.44	6516.05
455.62	6612.01
455.81	6740.74
455.99	6712.66
456.17	6649.46
456.36	6565.20
456.54	6757.13
456.73	6820.32
456.91	6974.80
457.09	6848.41
457.28	7063.74
457.46	6869.47
457.64	6988.84
457.83	6946.71
458.01	7133.95
458.19	7283.75
458.38	6810.96
458.56	7290.77
458.74	7166.72
458.93	7028.63
459.11	7255.66
459.29	7236.94
459.48	7201.83
459.66	7190.13
459.84	7307.15
460.03	7473.33
460.21	7349.28
460.39	7281.41
460.57	7412.48
460.76	7478.01
460.94	7428.86
461.12	7360.98
461.31	7417.16
461.49	7396.09
461.67	7452.27
461.85	7641.85
462.04	7445.24
462.22	7990.59
462.40	7625.47
462.59	7667.60
462.77	7557.59
462.95	7854.84
463.13	7613.76
463.32	7651.21
463.50	7627.81
463.68	7768.24
463.86	7918.03
464.05	7737.81
464.23	7831.43
464.41	7756.54
464.59	7442.90
464.78	7967.18
464.96	7946.12
465.14	7747.17
465.32	8004.63
465.50	7943.78
465.69	8035.06
465.87	7997.61
466.05	8070.17
466.23	8067.83
466.41	7962.50
466.60	8205.92
466.78	7908.67
466.96	8095.91
467.14	8109.96
467.32	8212.94
467.51	8145.06
467.69	8065.49
467.87	8290.18
468.05	8238.69
468.23	8063.15
468.41	8030.38
468.60	8369.76
468.78	8514.87
468.96	8397.84
469.14	8503.17
469.32	8461.04
469.50	8201.24
469.69	8564.02
469.87	8491.46
470.05	8655.30
470.23	8741.90
470.41	8711.47
470.59	8734.88
470.77	8791.05
470.95	8746.58
471.14	8652.96
471.32	8638.92
471.50	9022.77
471.68	8894.04
471.86	9029.79
472.04	9022.77
472.22	9142.13
472.40	8978.30
472.58	9008.72
472.77	9078.94
472.95	9116.39
473.13	9591.52
473.31	9172.56
473.49	9327.03
473.67	9444.06
473.85	9275.54
474.03	9486.19
474.21	9401.93
474.39	9469.81
474.57	9509.60
474.75	9734.29
474.93	9626.62
475.12	9865.36
475.30	9963.66
475.48	9694.50
475.66	9977.70
475.84	9762.37
476.02	10167.29
476.20	10244.52
476.38	10249.21
476.56	10387.30
476.74	10263.25
476.92	10436.45
477.10	10501.98
477.28	10317.08
477.46	10684.55
477.64	10590.92
477.82	10686.89
478.00	10885.83
478.18	10862.43
478.36	11028.60
478.54	11321.17
478.72	11089.46
478.90	11365.64
479.08	11197.12
479.26	11400.75
479.44	11424.15
479.62	11587.99
479.80	11672.25
479.98	11749.49
480.16	12011.63
480.34	11955.46
480.52	12042.06
480.70	12025.67
480.88	12074.82
481.06	12098.23
481.24	12182.49
481.41	12444.63
481.59	12465.69
481.77	12617.83
481.95	12697.41
482.13	12828.48
482.31	12798.05
482.49	12940.82
482.67	13034.44
482.85	13090.62
483.03	13099.98
483.21	13502.55
483.39	13631.28
483.57	13310.63
483.74	13474.46
483.92	13731.92
484.10	13666.39
484.28	14073.64
484.46	14270.25
484.64	14464.51
484.82	14288.97
485.00	14401.32
485.18	14438.76
485.35	14885.81
485.53	14757.08
485.71	14630.69
485.89	14829.63
486.07	14815.59
486.25	14984.11
486.43	15171.35
486.61	15204.12
486.78	15396.04
486.96	15288.38
487.14	15522.43
487.32	15749.46
487.50	15690.95
487.68	16299.49
487.85	16369.71
488.03	16264.38
488.21	16690.36
488.39	16315.87
488.57	16475.03
488.75	16858.88
488.92	17006.33
489.10	17282.52
489.28	17436.99
489.46	17362.09
489.64	17193.58
489.81	17717.86
489.99	17701.47
490.17	18003.40
490.35	17869.99
490.53	18054.89
490.70	18185.96
490.88	18150.85
491.06	18277.24
491.24	18101.70
491.41	18410.65
491.59	18270.22
491.77	18845.99
491.95	18712.58
492.13	19033.24
492.30	18981.74
492.48	19089.41
492.66	19531.77
492.84	19304.74
493.01	19550.49
493.19	19363.25
493.37	19761.14
493.54	19999.88
493.72	20032.65
493.90	20156.69
494.08	20152.01
494.25	20369.68
494.43	20519.48
494.61	20489.05
494.79	21006.31
494.96	20629.48
495.14	20858.85
495.32	20936.09
495.49	20790.98
495.67	20964.18
495.85	21219.30
496.02	21369.09
496.20	21802.09
496.38	21626.55
496.55	21860.60
496.73	22192.96
496.91	22008.06
497.09	22061.89
497.26	22380.20
497.44	22075.93
497.62	22015.08
497.79	22775.75
497.97	22471.48
498.14	22845.97
498.32	22918.53
498.50	23117.47
498.67	23367.91
498.85	23197.05
499.03	23550.47
499.20	23161.94
499.38	23592.60
499.56	23901.55
499.73	23775.16
499.91	23957.72
500.08	23864.10
500.26	23744.73
500.44	23644.09
500.61	24318.17
500.79	23735.37
500.97	24594.35
501.14	24563.92
501.32	24486.68
501.49	24320.51
501.67	24858.83
501.84	24641.16
502.02	24702.01
502.20	24929.05
502.37	24692.65
502.55	24816.70
502.72	25001.60
502.90	25439.28
503.07	24943.09
503.25	25427.58
503.43	25177.14
503.60	25488.43
503.78	25619.50
503.95	25472.05
504.13	25844.20
504.30	25731.85
504.48	25481.41
504.65	25876.96
504.83	26228.04
505.01	26118.04
505.18	25951.86
505.36	26356.77
505.53	26169.53
505.71	26553.38
505.88	26492.52
506.06	26338.05
506.23	26867.01
506.41	26668.06
506.58	26590.83
506.76	26838.92
506.93	27105.74
507.11	26733.60
507.28	27349.16
507.46	26913.82
507.63	27154.90
507.81	27592.58
507.98	27248.52
508.16	27555.13
508.33	27501.29
508.50	27623.00
508.68	27777.48
508.85	27929.61
509.03	27552.79
509.20	27676.83
509.38	28086.43
509.55	28584.96
509.73	28364.95
509.90	28170.69
510.08	28404.74
510.25	28458.57
510.42	28430.49
510.60	28411.76
510.77	28603.69
510.95	29001.58
511.12	28500.70
511.30	28954.77
511.47	28929.02
511.64	29394.79
511.82	29378.40
511.99	28933.70
512.17	29235.63
512.34	29123.29
512.51	29729.48
512.69	29855.87
512.86	29422.87
513.04	30010.35
513.21	29846.51
513.38	30190.57
513.56	29743.53
513.73	29907.37
513.90	29982.26
514.08	29898.00
514.25	30274.83
514.43	30008.01
514.60	30373.13
514.77	30712.51
514.95	30747.62
515.12	30349.73
515.29	30904.43
515.47	30539.31
515.64	30890.39
515.81	30448.03
515.99	30733.57
516.16	30799.11
516.33	30412.92
516.51	31166.57
516.68	30913.80
516.85	31096.36
517.03	31084.65
517.20	31007.42
517.37	31433.39
517.54	31487.23
517.72	31536.38
517.89	31473.18
518.06	31395.95
518.24	31288.28
518.41	31534.04
518.58	31468.50
518.75	32011.51
518.93	31957.67
519.10	32018.53
519.27	32119.17
519.45	32051.30
519.62	32205.77
519.79	31819.58
519.96	32261.94
520.14	32301.73
520.31	31950.65
520.48	32514.72
520.65	32540.47
520.83	32872.82
521.00	32907.93
521.17	33120.92
521.34	33139.65
521.52	32957.08
521.69	32844.74
521.86	33010.92
522.03	32973.47
522.20	33259.01
522.38	33439.23
522.55	33357.32
522.72	33364.34
522.89	33266.03
523.07	33661.58
523.24	33497.75
523.41	33572.64
523.58	33544.56
523.75	34061.82
523.92	33872.23
524.10	34099.26
524.27	34244.38
524.44	33708.40
524.61	34061.82
524.78	34330.98
524.96	34003.30
525.13	33968.19
525.30	34604.82
525.47	34808.45
525.64	34501.84
525.81	34735.89
525.98	35014.41
526.16	34075.86
526.33	34504.18
526.50	34775.68
526.67	34464.39
526.84	34925.47
527.01	34471.41
527.18	35061.22
527.36	34941.86
527.53	35391.24
527.70	35372.52
527.87	35424.01
528.04	35206.34
528.21	35391.24
528.38	35246.13
528.55	35442.73
528.72	35454.44
528.89	35606.57
529.07	35716.58
529.24	35131.44
529.41	35491.88
529.58	35786.79
529.75	35480.18
529.92	35679.13
530.09	35814.88
530.26	36278.30
530.43	36343.84
530.60	36165.96
530.77	35747.00
530.94	36072.34
531.11	36374.27
531.28	35945.95
531.46	35915.52
531.63	36479.59
531.80	36411.71
531.97	36348.52
532.14	36327.45
532.31	36383.63
532.48	36882.16
532.65	36582.57
532.82	36524.06
532.99	36889.18
533.16	36266.60
533.33	36945.36
533.50	37125.58
533.67	37125.58
533.84	36676.19
534.01	37076.43
534.18	37130.26
534.35	37600.71
534.52	37422.83
534.69	37635.81
534.86	37287.07
535.03	37078.77
535.20	37469.64
535.37	37769.22
535.54	37888.59
535.71	37401.76
535.88	37675.60
536.05	37675.60
536.22	37521.13
536.38	37497.72
536.55	37514.11
536.72	37464.96
536.89	37825.40
537.06	37631.13
537.23	37916.68
537.40	37743.48
537.57	38239.67
537.74	37851.14
537.91	38272.44
538.08	38314.57
538.25	37738.80
538.42	38143.71
538.59	38073.49
538.75	37759.86
538.92	38174.14
539.09	38429.26
539.26	38534.58
539.43	38415.21
539.60	38157.75
539.77	38691.40
539.94	39049.50
540.11	38389.47
540.28	38691.40
540.44	38850.55
540.61	38501.81
540.78	38646.93
540.95	38756.93
541.12	38712.46
541.29	38560.33
541.46	38789.70
541.62	38930.13
541.79	39115.03
541.96	38740.55
542.13	39126.74
542.30	38873.96
542.47	38927.79
542.63	39218.02
542.80	39566.76
542.97	39864.00
543.14	39716.55
543.31	39761.02
543.48	39597.18
543.64	40055.93
543.81	40002.10
543.98	40011.46
544.15	39426.32
544.32	39945.92
544.48	39889.75
544.65	40168.27
544.82	40311.05
544.99	40079.33
545.16	39908.47
545.32	39484.84
545.49	40081.67
545.66	40266.58
545.83	40208.06
546.00	40362.54
546.16	40189.34
546.33	40327.43
546.50	39936.56
546.67	40236.15
546.83	39669.74
547.00	40247.85
547.17	40591.91
547.34	40378.92
547.50	40477.22
547.67	40505.31
547.84	40725.32
548.00	40795.54
548.17	40580.21
548.34	40760.43
548.51	40891.50
548.67	40952.35
548.84	40753.41
549.01	40694.89
549.18	40652.76
549.34	40907.88
549.51	41221.52
549.68	41429.82
549.84	40919.59
550.01	41146.62
550.18	41076.40
550.34	40816.60
550.51	40978.10
550.68	40823.62
550.84	41045.97
551.01	41097.47
551.18	41282.37
551.34	41258.96
551.51	41542.17
551.68	41633.45
551.84	41375.99
552.01	41074.06
552.18	41310.46
552.34	41366.63
552.51	42178.79
552.68	41806.65
552.84	41858.14
553.01	41818.35
553.18	41558.55
553.34	41897.93
553.51	41378.33
553.67	41497.70
553.84	41794.95
554.01	41961.12
554.17	42265.39
554.34	42150.71
554.51	41844.10
554.67	42073.47
554.84	41621.75
555.00	41574.94
555.17	41818.35
555.33	42017.30
555.50	42389.44
555.67	42351.99
555.83	42089.85
556.00	42195.18
556.16	42398.80
556.33	42220.92
556.50	41825.37
556.66	42579.03
556.83	41890.91
556.99	42447.96
557.16	42382.42
557.32	42288.80
557.49	42543.92
557.65	41900.27
557.82	42220.92
557.98	42148.37
558.15	42284.12
558.32	42581.37
558.48	42651.58
558.65	42635.20
558.81	42052.41
558.98	42967.55
559.14	42684.35
559.31	42560.30
559.47	42700.73
559.64	42909.04
559.80	42878.61
559.97	43030.75
560.13	42763.93
560.30	42850.53
560.46	42691.37
560.63	43152.46
560.79	42815.42
560.96	42651.58
561.12	43063.52
561.29	43063.52
561.45	42756.91
561.61	42965.21
561.78	42440.93
561.94	42672.65
562.11	42988.62
562.27	42792.01
562.44	43084.58
562.60	42890.32
562.77	43445.02
562.93	42682.01
563.10	42932.45
563.26	42614.13
563.42	43192.25
563.59	42607.11
563.75	42700.73
563.92	43367.79
564.08	43335.02
564.24	43423.96
564.41	43276.51
564.57	43168.84
564.74	43122.03
564.90	43023.73
565.07	43746.95
565.23	43433.32
565.39	43428.64
565.56	43550.35
565.72	42906.70
565.88	42834.14
566.05	42897.34
566.21	43220.33
566.38	43353.74
566.54	43096.28
566.70	43550.35
566.87	43875.68
567.03	43199.27
567.19	43683.76
567.36	43571.41
567.52	43622.90
567.68	43702.48
567.85	43426.30
568.01	43267.14
568.17	43400.55
568.34	43262.46
568.50	43629.93
568.66	43615.88
568.83	43278.85
568.99	43187.56
569.15	43449.70
569.32	43615.88
569.48	43562.05
569.64	43714.19
569.81	43868.66
569.97	43430.98
570.13	43569.07
570.30	43335.02
570.46	43337.36
570.62	43456.73
570.78	43370.13
570.95	43634.61
571.11	43117.35
571.27	43789.08
571.43	43599.50
571.60	43480.13
571.76	43573.75
571.92	43732.91
572.09	43356.08
572.25	43456.73
572.41	43814.83
572.57	43449.70
572.74	44516.99
572.90	43753.97
573.06	43753.97
573.22	43658.01
573.38	44013.77
573.55	43512.90
573.71	43936.54
573.87	43999.73
574.03	43304.59
574.20	43969.30
574.36	43611.20
574.52	44046.54
574.68	43655.67
574.84	43800.79
575.01	43730.57
575.17	43852.28
575.33	43693.12
575.49	43751.63
575.65	44294.64
575.82	44289.96
575.98	44034.84
576.14	44069.95
576.30	43854.62
576.46	43753.97
576.62	43856.96
576.79	43775.04
576.95	43763.34
577.11	43459.07
577.27	44360.17
577.43	44009.09
577.59	44219.74
577.75	43913.13
577.92	43861.64
578.08	43564.39
578.24	43807.81
578.40	43707.16
578.56	44219.74
578.72	44048.88
578.88	44423.37
579.04	43924.83
579.21	43765.68
579.37	43831.21
579.53	43746.95
579.69	43482.47
579.85	43962.28
580.01	43662.69
580.17	44030.16
580.33	43913.13
580.49	44172.93
580.65	44027.82
580.82	44411.67
580.98	44037.18
581.14	43564.39
581.30	44566.14
581.46	44240.81
581.62	44013.77
581.78	43901.43
581.94	44484.22
582.10	43959.94
582.26	44245.49
582.42	44027.82
582.58	44210.38
582.74	44308.68
582.90	44100.37
583.06	44458.48
583.22	44662.10
583.38	44299.32
583.54	43798.44
583.70	43847.60
583.86	44119.10
584.02	43835.89
584.18	44142.50
584.34	44243.15
584.50	43973.98
584.66	43934.20
584.82	44055.90
584.98	44327.41
585.14	44226.76
585.30	43906.11
585.46	44067.61
585.62	43686.10
585.78	44425.71
585.94	43779.72
586.10	44357.83
586.26	43812.49
586.42	44116.76
586.58	44261.87
586.74	44500.61
586.90	43718.87
587.06	43658.01
587.22	44289.96
587.38	43838.23
587.54	44266.55
587.70	44694.87
587.86	44170.59
588.02	44072.29
588.18	44589.55
588.34	44039.52
588.49	43821.85
588.65	44025.48
588.81	43896.75
588.97	44023.14
589.13	43552.69
589.29	43936.54
589.45	44041.86
589.61	44137.82
589.77	44362.51
589.93	44570.82
590.08	44282.94
590.24	44222.08
590.40	44421.03
590.56	44416.35
590.72	44346.13
590.88	43948.24
591.04	44294.64
591.20	44858.71
591.35	44339.11
591.51	44409.32
591.67	44268.89
591.83	44198.68
591.99	44208.04
592.15	44287.62
592.31	44231.44
592.46	44219.74
592.62	44212.72
592.78	44594.23
592.94	44205.70
593.10	44453.79
593.26	44584.86
593.41	44470.18
593.57	44168.25
593.73	44378.90
593.89	44502.95
594.05	44271.23
594.20	44343.79
594.36	44669.12
594.52	44254.85
594.68	44528.69
594.84	44655.08
594.99	44837.64
595.15	44928.92
595.31	44811.90
595.47	44868.07
595.62	44397.62
595.78	44807.22
595.94	44437.41
596.10	44734.66
596.25	44746.36
596.41	44580.18
596.57	44327.41
596.73	44402.30
596.88	44098.03
597.04	44514.65
597.20	44395.28
597.36	44816.58
597.51	44545.08
597.67	44552.10
597.83	44891.48
597.99	45265.96
598.14	44858.71
598.30	44472.52
598.46	44638.70
598.61	44811.90
598.77	44383.58
598.93	44437.41
599.09	44226.76
599.24	44732.32
599.40	44910.20
599.56	44818.92
599.71	44935.95
599.87	44706.57
600.03	44900.84
600.18	44638.70
600.34	44940.63
600.50	44591.89
600.65	44353.15
600.81	44861.05
600.97	44795.51
601.12	44924.24
601.28	44444.43
601.44	44762.75
601.59	44966.37
601.75	44418.69
601.91	44339.11
602.06	44308.68
602.22	44521.67
602.37	44472.52
602.53	45247.24
602.69	44800.19
602.84	44538.05
603.00	44411.67
603.16	44481.88
603.31	44425.71
603.47	44072.29
603.62	44509.97
603.78	44514.65
603.94	44425.71
604.09	44739.34
604.25	44626.99
604.40	44678.49
604.56	44631.68
604.71	44322.72
604.87	44381.24
605.03	44540.39
605.18	44505.29
605.34	44641.04
605.49	44254.85
605.65	44786.15
605.80	44343.79
605.96	44715.93
606.12	44753.38
606.27	44907.86
606.43	44311.02
606.58	44226.76
606.74	44781.47
606.89	44514.65
607.05	44526.35
607.20	44067.61
607.36	44091.01
607.51	44542.74
607.67	44432.73
607.82	44161.23
607.98	44608.27
608.13	44411.67
608.29	44236.12
608.44	43873.34
608.60	44088.67
608.75	44481.88
608.91	44421.03
609.06	43906.11
609.22	44666.78
609.37	43634.61
609.53	44201.02
609.68	44313.36
609.84	44334.43
609.99	44479.54
610.15	44030.16
610.30	43938.88
610.46	44034.84
610.61	44229.10
610.76	43768.02
610.92	43854.62
611.07	43786.74
611.23	44126.12
611.38	44030.16
611.54	43880.36
611.69	43718.87
611.84	44069.95
612.00	43948.24
612.15	43695.46
612.31	43903.77
612.46	44114.42
612.62	44034.84
612.77	44039.52
612.92	43676.74
613.08	44112.08
613.23	43899.09
613.39	43655.67
613.54	43594.82
613.69	43421.62
613.85	44095.69
614.00	43868.66
614.15	43899.09
614.31	44156.55
614.46	44636.36
614.62	43962.28
614.77	43948.24
614.92	43482.47
615.08	43522.26
615.23	43117.35
615.38	43695.46
615.54	43002.66
615.69	43653.33
615.84	43166.50
616.00	43590.14
616.15	43459.07
616.30	43868.66
616.46	43225.01
616.61	43093.94
616.76	42817.76
616.92	42920.74
617.07	43274.16
617.22	43199.27
617.37	43353.74
617.53	43260.12
617.68	42906.70
617.83	43276.51
617.99	43271.82
618.14	43353.74
618.29	43440.34
618.45	42560.30
618.60	43199.27
618.75	43047.13
618.90	43365.45
619.06	43035.43
619.21	43349.06
619.36	43040.11
619.51	42887.98
619.67	42969.90
619.82	43349.06
619.97	43419.28
620.12	42490.09
620.28	42415.19
620.43	42506.47
620.58	42710.10
620.73	42745.20
620.89	42801.38
621.04	42665.63
621.19	42536.90
621.34	42307.52
621.49	42288.80
621.65	42333.27
621.80	43215.65
621.95	42157.73
622.10	42651.58
622.25	42583.71
622.41	42347.31
622.56	42546.26
622.71	42527.53
622.86	42396.46
623.01	42380.08
623.16	42997.98
623.32	42555.62
623.47	42426.89
623.62	42454.98
623.77	42234.97
623.92	42628.18
624.07	42227.95
624.23	42052.41
624.38	41532.81
624.53	41741.11
624.68	42164.75
624.83	42546.26
624.98	42267.73
625.13	41965.81
625.29	42642.22
625.44	42506.47
625.59	42141.35
625.74	41677.92
625.89	41663.88
626.04	41375.99
626.19	41572.60
626.34	42162.41
626.49	41862.82
626.65	41890.91
626.80	41935.38
626.95	41495.36
627.10	41523.44
627.25	41570.25
627.40	41319.82
627.55	41268.33
627.70	41504.72
627.85	41476.63
628.00	41750.48
628.15	42052.41
628.30	41687.28
628.45	41982.19
628.60	41326.84
628.76	41673.24
628.91	41366.63
629.06	41879.21
629.21	41652.17
629.36	41469.61
629.51	41191.09
629.66	41067.04
629.81	41076.40
629.96	41062.36
630.11	41450.89
630.26	41057.68
630.41	41420.46
630.56	40910.22
630.71	41315.14
630.86	40999.16
631.01	40816.60
631.16	41127.89
631.31	41202.79
631.46	40362.54
631.61	41677.92
631.76	41013.21
631.91	41031.93
632.06	40781.49
632.21	41144.28
632.36	40935.97
632.51	40856.39
632.66	40942.99
632.81	40453.82
632.96	40741.71
633.10	40706.60
633.25	40598.93
633.40	40645.74
633.55	41146.62
633.70	40861.07
633.85	40603.61
634.00	40730.00
634.15	40332.11
634.30	40467.86
634.45	40306.37
634.60	40928.95
634.75	40638.72
634.90	40517.01
635.05	40388.28
635.19	40084.01
635.34	40535.74
635.49	40435.10
635.64	40407.01
635.79	40034.86
635.94	40144.87
636.09	40257.21
636.24	40156.57
636.39	40161.25
636.53	39702.51
636.68	40137.85
636.83	40147.21
636.98	40678.51
637.13	39510.58
637.28	39718.89
637.43	39810.17
637.57	40222.11
637.72	39892.09
637.87	39716.55
638.02	39952.94
638.17	39779.74
638.32	39842.94
638.46	39459.09
638.61	39571.44
638.76	39033.11
638.91	39541.01
639.06	40292.32
639.20	39695.49
639.35	39772.72
639.50	39667.40
639.65	39805.49
639.80	39463.77
639.94	39372.49
640.09	39395.90
640.24	39393.56
640.39	39140.78
640.54	39400.58
640.68	39189.93
640.83	39161.84
640.98	39108.01
641.13	39484.84
641.27	39627.61
641.42	39136.10
641.57	39182.91
641.72	39503.56
641.86	39206.31
642.01	38995.67
642.16	39154.82
642.31	38785.02
642.45	38909.07
642.60	39290.57
642.75	38625.86
642.90	39070.56
643.04	38696.08
643.19	39143.12
643.34	38756.93
643.48	38955.88
643.63	38925.45
643.78	39072.90
643.93	38665.65
644.07	38850.55
644.22	38567.35
644.37	38377.76
644.51	38246.69
644.66	38684.37
644.81	38820.13
644.95	38852.89
645.10	38686.71
645.25	38960.56
645.39	39082.27
645.54	38883.32
645.69	38745.23
645.83	38660.97
645.98	38541.60
646.13	38555.64
646.27	38677.35
646.42	38719.48
646.57	38452.66
646.71	38780.34
646.86	38972.26
647.00	38190.52
647.15	38796.72
647.30	38775.66
647.44	38581.39
647.59	38153.07
647.74	38218.61
647.88	38050.09
648.03	38092.22
648.17	37883.91
648.32	37811.35
648.47	37989.24
648.61	37970.51
648.76	38682.03
648.90	38244.35
649.05	38373.08
649.20	38494.79
649.34	38319.25
649.49	38150.73
649.63	37921.36
649.78	38199.88
649.92	37963.49
650.07	38494.79
650.21	37837.10
650.36	38003.28
650.51	37979.87
650.65	38033.71
650.80	38426.92
650.94	38368.40
651.09	37982.21
651.23	37923.70
651.38	37778.59
651.52	37518.79
651.67	37713.05
651.81	37413.46
651.96	37565.60
652.10	37352.61
652.25	37467.30
652.39	37427.51
652.54	37268.35
652.68	37083.45
652.83	37546.87
652.97	37551.56
653.12	37560.92
653.26	37647.52
653.41	37556.24
653.55	37308.14
653.70	37394.74
653.84	37408.78
653.99	37486.02
654.13	37188.77
654.27	37537.51
654.42	37191.11
654.56	37617.09
654.71	36718.32
654.85	37301.12
655.00	37251.97
655.14	36795.56
655.29	36587.25
655.43	36708.96
655.57	36814.29
655.72	36477.25
655.86	37237.92
656.01	36945.36
656.15	36584.91
656.30	37038.98
656.44	36751.09
656.58	36538.10
656.73	36194.04
656.87	36821.31
657.01	36479.59
657.16	36549.81
657.30	36524.06
657.45	36149.57
657.59	36580.23
657.73	36357.88
657.88	36449.16
658.02	36123.83
658.16	36629.38
658.31	36830.67
658.45	36191.70
658.60	36378.95
658.74	36449.16
658.88	36156.60
659.03	36264.26
659.17	35929.56
659.31	36217.45
659.46	35796.15
659.60	36027.87
659.74	35695.51
659.89	35534.01
660.03	35927.22
660.17	36170.64
660.32	36205.75
660.46	35948.29
660.60	35716.58
660.74	36130.85
660.89	35576.14
661.03	35674.45
661.17	35346.77
661.32	34904.41
661.46	35255.49
661.60	35152.51
661.74	35274.21
661.89	35391.24
662.03	35459.12
662.17	35351.45
662.31	35180.59
662.46	35108.04
662.60	35175.91
662.74	35264.85
662.88	35063.57
663.03	34941.86
663.17	35147.82
663.31	34969.94
663.45	34855.26
663.60	34548.65
663.74	34567.37
663.88	34918.45
664.02	34539.29
664.17	34967.60
664.31	34483.11
664.45	34478.43
664.59	34422.26
664.73	34789.72
664.88	34787.38
665.02	33699.03
665.16	34450.35
665.30	34078.20
665.44	33905.00
665.59	33940.11
665.73	33797.34
665.87	34272.46
666.01	33930.75
666.15	33905.00
666.29	34244.38
666.44	33872.23
666.58	34015.01
666.72	33488.38
666.86	34068.84
667.00	33663.93
667.14	33343.27
667.28	33539.88
667.43	33479.02
667.57	33792.65
667.71	33472.00
667.85	33560.94
667.99	33422.85
668.13	33235.61
668.27	32833.04
668.41	33455.62
668.56	32999.21
668.70	32828.35
668.84	33249.65
668.98	32732.39
669.12	32835.38
669.26	33048.36
669.40	32716.01
669.54	32755.80
669.68	32690.26
669.82	32828.35
669.96	32755.80
670.10	32404.72
670.25	32348.54
670.39	32868.14
670.53	32418.76
670.67	32217.47
670.81	32224.50
670.95	32268.97
671.09	32055.98
671.23	32203.43
671.37	32283.01
671.51	31709.58
671.65	32208.11
671.79	31674.47
671.93	31634.68
672.07	32030.23
672.21	31747.03
672.35	31732.98
672.49	31665.11
672.63	31494.25
672.77	31484.89
672.91	31463.82
673.05	31267.22
673.19	31321.05
673.33	31033.16
673.47	31138.49
673.61	30955.93
673.75	31063.59
673.89	31269.56
674.03	30916.14
674.17	30834.22
674.31	30670.38
674.45	30759.32
674.59	30773.36
674.73	30745.28
674.87	30698.47
675.01	30677.40
675.15	30686.76
675.29	30813.15
675.43	30326.32
675.56	30335.68
675.70	30120.35
675.84	30071.20
675.98	28994.56
676.12	29923.75
676.26	29558.63
676.40	29373.72
676.54	29579.69
676.68	29853.53
676.82	29553.94
676.96	29036.69
677.10	29015.62
677.23	29158.39
677.37	29022.64
677.51	29102.22
677.65	28954.77
677.79	28451.55
677.93	28217.50
678.07	28655.18
678.21	28549.85
678.34	28439.85
678.48	28030.26
678.62	28374.31
678.76	28030.26
678.90	28056.00
679.04	28325.16
679.18	28023.23
679.31	27852.38
679.45	27772.80
679.59	27728.33
679.73	27257.88
679.87	27531.72
680.00	27623.00
680.14	27461.51
680.28	27192.34
680.42	27185.32
680.56	26899.78
680.70	27484.91
680.83	26480.82
680.97	26707.85
681.11	26984.04
681.25	26457.42
681.39	26490.18
681.52	26834.24
681.66	26654.02
681.80	26157.83
681.94	26431.67
682.07	26490.18
682.21	26047.82
682.35	26087.61
682.49	26251.45
682.62	25935.48
682.76	25666.31
682.90	25788.02
683.04	25841.85
683.17	25781.00
683.31	25891.01
683.45	25722.49
683.59	25172.46
683.72	25544.61
683.86	24737.12
684.00	24620.10
684.13	25268.42
684.27	24926.71
684.41	25092.88
684.55	24690.31
684.68	24603.71
684.82	24505.41
684.96	24755.85
685.09	24402.43
685.23	24276.04
685.37	24407.11
685.50	23901.55
685.64	23995.17
685.78	23847.72
685.91	24460.94
686.05	23798.57
686.19	23559.83
686.32	23894.53
686.46	23538.77
686.60	23489.62
686.73	23271.95
686.87	23328.12
687.01	23248.54
687.14	23328.12
687.28	22857.67
687.42	23105.77
687.55	22647.02
687.69	22815.54
687.82	22836.61
687.96	22632.98
688.10	22675.11
688.23	22534.68
688.37	22590.85
688.50	22265.52
688.64	22143.81
688.78	21806.77
688.91	21994.01
689.05	22040.82
689.18	21956.57
689.32	21521.23
689.46	21963.59
689.59	21979.97
689.73	22005.72
689.86	21619.53
690.00	21399.52
690.13	21741.24
690.27	21329.30
690.41	21612.51
690.54	21305.90
690.68	21001.63
690.81	20842.47
690.95	20765.23
691.08	20486.71
691.22	20702.04
691.35	20645.87
691.49	20727.78
691.62	20594.37
691.76	20889.28
691.89	20725.44
692.03	20353.30
692.16	19936.68
692.30	20224.57
692.43	20133.29
692.57	20018.60
692.70	19878.17
692.84	19943.70
692.97	19517.73
693.11	19751.78
693.24	19527.09
693.38	19286.01
693.51	19543.47
693.65	19499.00
693.78	19580.92
693.92	19379.64
694.05	19173.67
694.19	19410.06
694.32	19007.49
694.45	18965.36
694.59	18995.79
694.72	18656.41
694.86	18541.72
694.99	18602.58
695.13	18466.83
695.26	18260.86
695.39	18258.52
695.53	18223.41
695.66	18082.98
695.80	18160.22
695.93	18188.30
696.07	17895.74
696.20	18092.34
696.33	17858.29
696.47	17752.96
696.60	17745.94
696.73	17767.01
696.87	17598.49
697.00	17472.10
697.14	17542.32
697.27	17315.28
697.40	17586.79
697.54	17291.88
697.67	17067.19
697.80	17329.33
697.94	17036.76
698.07	16699.72
698.21	16765.26
698.34	17039.10
698.47	17104.64
698.61	16692.70
698.74	16484.39
698.87	16463.33
699.01	16266.72
699.14	16255.02
699.27	16264.38
699.40	16187.14
699.54	15688.61
699.67	15815.00
699.80	15847.77
699.94	15969.48
700.07	15962.45
700.20	15831.38
700.34	15576.27
700.47	15658.18
700.60	15620.74
700.73	15775.21
700.87	15669.89
701.00	15201.78
701.13	15435.83
701.26	15344.55
701.40	15407.75
701.53	15101.14
701.66	15211.14
701.79	14981.77
701.93	15044.96
702.06	14820.27
702.19	14602.60
702.32	15049.64
702.46	14604.94
702.59	14541.75
702.72	14590.90
702.85	14621.33
702.99	14670.48
703.12	14565.15
703.25	14609.62
703.38	14370.89
703.51	13984.70
703.65	13914.48
703.78	14115.77
703.91	13724.90
704.04	14277.27
704.17	13937.89
704.31	13727.24
704.44	13682.77
704.57	13633.62
704.70	13205.30
704.83	13401.91
704.96	13408.93
705.10	13650.00
705.23	13488.51
>>>>>End Processed Spectral Data<<<<<
