SpectraSuite Data File
++++++++++++++++++++++++++++++++++++
Date: Fri Oct 25 10:43:16 EDT 2013
User: price-jones
Dark Spectrum Present: No
Reference Spectrum Present: No
Number of Sampled Component Spectra: 1
Spectrometers: USB2+H05261
Integration Time (usec): 100000 (USB2+H05261)
Spectra Averaged: 1 (USB2+H05261)
Boxcar Smoothing: 0 (USB2+H05261)
Correct for Electrical Dark: No (USB2+H05261)
Strobe/Lamp Enabled: No (USB2+H05261)
Correct for Detector Non-linearity: No (USB2+H05261)
Correct for Stray Light: No (USB2+H05261)
Number of Pixels in Processed Spectrum: 2048
>>>>>Begin Processed Spectral Data<<<<<
365.73	107.66
365.92	107.66
366.12	107.66
366.32	65.54
366.52	0.00
366.72	70.22
366.91	0.00
367.11	11.70
367.31	0.00
367.51	21.06
367.70	25.75
367.90	49.15
368.10	14.04
368.30	72.56
368.49	0.00
368.69	0.00
368.89	51.49
369.09	0.00
369.28	98.30
369.48	39.79
369.68	0.00
369.87	91.28
370.07	70.22
370.27	154.48
370.47	173.20
370.66	369.80
370.86	409.59
371.06	482.15
371.25	484.49
371.45	428.32
371.65	496.19
371.84	425.98
372.04	395.55
372.24	416.62
372.44	510.24
372.63	521.94
372.83	477.47
373.03	531.30
373.22	475.13
373.42	437.68
373.62	561.73
373.81	594.50
374.01	543.00
374.21	533.64
374.40	550.03
374.60	559.39
374.79	540.66
374.99	538.32
375.19	538.32
375.38	575.77
375.58	550.03
375.78	524.28
375.97	596.84
376.17	645.99
376.37	512.58
376.56	589.82
376.76	615.56
376.95	566.41
377.15	627.26
377.35	589.82
377.54	596.84
377.74	585.13
377.93	678.76
378.13	648.33
378.33	648.33
378.52	690.46
378.72	727.91
378.91	695.14
379.11	664.71
379.31	634.29
379.50	662.37
379.70	660.03
379.89	720.88
380.09	688.12
380.28	657.69
380.48	711.52
380.68	704.50
380.87	667.05
381.07	734.93
381.26	713.86
381.46	671.73
381.65	608.54
381.85	748.97
382.04	821.53
382.24	755.99
382.43	760.67
382.63	720.88
382.83	650.67
383.02	655.35
383.22	725.57
383.41	692.80
383.61	690.46
383.80	772.38
384.00	732.59
384.19	779.40
384.39	802.80
384.58	830.89
384.78	805.14
384.97	816.85
385.17	880.04
385.36	723.23
385.56	800.46
385.75	706.84
385.95	877.70
386.14	821.53
386.34	896.43
386.53	840.25
386.72	809.83
386.92	833.23
387.11	858.98
387.31	851.96
387.50	903.45
387.70	858.98
387.89	891.74
388.09	837.91
388.28	821.53
388.48	856.64
388.67	950.26
388.86	950.26
389.06	931.53
389.25	929.19
389.45	931.53
389.64	992.39
389.84	1011.11
390.03	959.62
390.22	1029.84
390.42	1027.50
390.61	1060.26
390.81	1025.15
391.00	994.73
391.19	1071.97
391.39	1048.56
391.58	1163.25
391.78	983.02
391.97	1025.15
392.16	971.32
392.36	1114.10
392.55	1022.81
392.75	1013.45
392.94	994.73
393.13	1055.58
393.33	1015.79
393.52	1086.01
393.71	1135.16
393.91	1104.73
394.10	1116.44
394.29	1165.59
394.49	1179.63
394.68	1219.42
394.88	1252.19
395.07	1217.08
395.26	1146.86
395.46	1261.55
395.65	1207.72
395.84	1233.46
396.04	1261.55
396.23	1200.69
396.42	1240.48
396.62	1165.59
396.81	1177.29
397.00	1191.33
397.19	1259.21
397.39	1313.04
397.58	1324.74
397.77	1401.98
397.97	1465.18
398.16	1446.45
398.35	1572.84
398.55	1451.13
398.74	1474.54
398.93	1584.54
399.12	1444.11
399.32	1500.28
399.51	1582.20
399.70	1717.95
399.90	1554.12
400.09	1596.25
400.28	1682.85
400.47	1465.18
400.67	1650.08
400.86	1732.00
401.05	1748.38
401.24	1753.06
401.44	1647.74
401.63	1701.57
401.82	1659.44
402.01	1668.80
402.21	1788.17
402.40	1710.93
402.59	1652.42
402.78	1781.15
402.97	1799.87
403.17	1806.89
403.36	1724.97
403.55	1778.81
403.74	1898.17
403.93	1893.49
404.13	1928.60
404.32	1884.13
404.51	1912.22
404.70	1963.71
404.89	1909.88
405.09	1987.11
405.28	1966.05
405.47	1944.99
405.66	2040.95
405.85	1947.33
406.05	1984.77
406.24	1994.14
406.43	2062.01
406.62	2129.89
406.81	2270.32
407.00	2043.29
407.20	1954.35
407.39	2017.54
407.58	2162.66
407.77	2211.81
407.96	2260.96
408.15	2251.60
408.34	2176.70
408.54	2207.13
408.73	2263.30
408.92	2319.47
409.11	2335.85
409.30	2317.13
409.49	2310.11
409.68	2244.57
409.87	2186.06
410.07	2394.37
410.26	2340.54
410.45	2455.22
410.64	2520.76
410.83	2476.29
411.02	2466.92
411.21	2506.71
411.40	2717.36
411.59	2745.45
411.78	2628.42
411.98	2562.89
412.17	2649.49
412.36	2658.85
412.55	2679.91
412.74	2719.70
412.93	2715.02
413.12	2771.19
413.31	2803.96
413.50	2750.13
413.69	2848.43
413.88	2958.44
414.07	2925.67
414.26	2862.48
414.45	2942.05
414.64	3012.27
414.83	3136.32
415.02	2963.12
415.22	3045.04
415.41	3124.62
415.60	3171.43
415.79	3143.34
415.98	3276.75
416.17	3253.34
416.36	3119.93
416.55	3279.09
416.74	3323.56
416.93	3309.52
417.12	3260.37
417.31	3262.71
417.50	3391.44
417.69	3468.67
417.88	3440.59
418.07	3541.23
418.26	3552.93
418.45	3421.86
418.64	3698.05
418.83	3531.87
419.02	3494.42
419.21	3693.37
419.39	3618.47
419.58	3524.85
419.77	3482.72
419.96	3566.98
420.15	3791.67
420.34	3695.71
420.53	3801.03
420.72	3932.10
420.91	3751.88
421.10	3861.88
421.29	3911.04
421.48	3852.52
421.67	3728.47
421.86	3908.69
422.05	3641.87
422.24	3735.50
422.43	3749.54
422.61	3955.51
422.80	3901.67
422.99	3829.12
423.18	3941.46
423.37	3906.35
423.56	4004.66
423.75	3946.14
423.94	3733.15
424.13	3669.96
424.32	3716.77
424.50	3978.91
424.69	4117.00
424.88	4093.60
425.07	3971.89
425.26	3985.93
425.45	3967.21
425.64	3875.93
425.83	4016.36
426.01	4049.13
426.20	4051.47
426.39	3955.51
426.58	3950.82
426.77	3960.19
426.96	3847.84
427.15	3925.08
427.33	4180.20
427.52	4107.64
427.71	4135.73
427.90	4259.78
428.09	4095.94
428.28	4133.39
428.46	4112.32
428.65	3985.93
428.84	4173.18
429.03	4222.33
429.22	4250.41
429.40	4004.66
429.59	4140.41
429.78	3955.51
429.97	3936.78
430.16	3985.93
430.34	4121.68
430.53	3943.80
430.72	4252.75
430.91	4177.86
431.10	4430.63
431.28	4475.10
431.47	4589.79
431.66	4615.54
431.85	4400.21
432.03	4674.05
432.22	4760.65
432.41	4645.96
432.60	4561.70
432.79	4664.69
432.97	4786.40
433.16	4812.14
433.35	4482.13
433.54	4662.35
433.72	4655.33
433.91	4685.75
434.10	4711.50
434.28	4657.67
434.47	4842.57
434.66	4863.63
434.85	4983.00
435.03	4931.51
435.22	4964.28
435.41	5015.77
435.59	4983.00
435.78	5083.64
435.97	5067.26
436.16	5116.41
436.34	5188.97
436.53	5280.25
436.72	5301.31
436.90	5050.88
437.09	5170.24
437.28	4926.83
437.46	5207.69
437.65	5231.10
437.84	5214.71
438.02	5200.67
438.21	5268.55
438.40	5025.13
438.58	5341.10
438.77	5425.36
438.96	5411.32
439.14	5593.88
439.33	5458.13
439.52	5605.58
439.70	5675.80
439.89	5706.23
440.08	5614.95
440.26	5722.61
440.45	5671.12
440.63	5823.25
440.82	5916.87
441.01	5813.89
441.19	5956.66
441.38	6029.22
441.57	6066.67
441.75	6176.67
441.94	6291.36
442.12	6384.98
442.31	6139.23
442.50	6349.87
442.68	6403.71
442.87	6300.72
443.05	6502.01
443.24	6476.26
443.43	6448.18
443.61	6443.49
443.80	6696.27
443.98	6314.77
444.17	6132.20
444.35	6380.30
444.54	6523.07
444.73	6586.27
444.91	6504.35
445.10	6579.25
445.28	6427.11
445.47	6387.32
445.65	6471.58
445.84	6576.91
446.02	6686.91
446.21	6459.88
446.39	6670.53
446.58	6768.83
446.77	6490.31
446.95	6586.27
447.14	6675.21
447.32	6736.06
447.51	6707.98
447.69	6579.25
447.88	6686.91
448.06	6789.89
448.25	6644.78
448.43	6726.70
448.62	6846.07
448.80	6670.53
448.99	6888.20
449.17	6902.24
449.36	6803.94
449.54	6988.84
449.73	6967.77
449.91	7063.74
450.10	7328.22
450.28	7250.98
450.46	7300.13
450.65	7206.51
450.83	7030.97
451.02	7162.04
451.20	7197.15
451.39	7140.97
451.57	7229.91
451.76	7117.57
451.94	7183.10
452.13	7225.23
452.31	7337.58
452.49	7138.63
452.68	7250.98
452.86	7171.40
453.05	7133.95
453.23	7405.46
453.42	7206.51
453.60	7272.04
453.78	7403.11
453.97	7442.90
454.15	7470.99
454.34	7475.67
454.52	7433.54
454.70	7588.02
454.89	7634.83
455.07	7445.24
455.26	7555.25
455.44	7740.15
455.62	7585.68
455.81	7789.30
455.99	7705.04
456.17	7772.92
456.36	7857.18
456.54	7955.48
456.73	8016.33
456.91	8187.19
457.09	8067.83
457.28	8264.43
457.46	8074.85
457.64	8177.83
457.83	8226.98
458.01	8016.33
458.19	8149.75
458.38	8030.38
458.56	8138.04
458.74	8425.93
458.93	8224.64
459.11	8255.07
459.29	8128.68
459.48	8332.31
459.66	8444.65
459.84	8411.89
460.03	8475.08
460.21	8493.80
460.39	8652.96
460.57	8610.83
460.76	8634.24
460.94	8781.69
461.12	8561.68
461.31	8456.36
461.49	8779.35
461.67	8531.25
461.85	8727.86
462.04	8730.20
462.22	9338.74
462.40	8945.53
462.59	8772.33
462.77	9067.24
462.95	8940.85
463.13	8901.06
463.32	8807.44
463.50	8917.44
463.68	9153.84
463.86	9071.92
464.05	8978.30
464.23	8851.91
464.41	8952.55
464.59	8865.95
464.78	9172.56
464.96	9280.22
465.14	9085.96
465.32	9167.88
465.50	9207.67
465.69	9249.80
465.87	9240.44
466.05	9329.38
466.23	9350.44
466.41	9067.24
466.60	9338.74
466.78	9177.24
466.96	9172.56
467.14	9245.12
467.32	9401.93
467.51	9465.13
467.69	9336.40
467.87	9425.34
468.05	9404.27
468.23	9413.63
468.41	9549.39
468.60	9652.37
468.78	9722.59
468.96	9640.67
469.14	9713.22
469.32	9809.19
469.50	9261.50
469.69	9575.13
469.87	9788.12
470.05	9832.59
470.23	9692.16
470.41	9846.63
470.59	9841.95
470.77	9926.21
470.95	10054.94
471.14	10204.74
471.32	9907.49
471.50	10291.34
471.68	10331.12
471.86	10303.04
472.04	10171.97
472.22	10712.63
472.40	10338.15
472.58	10342.83
472.77	10478.58
472.95	10733.70
473.13	10700.93
473.31	10551.14
473.49	10686.89
473.67	10492.62
473.85	10700.93
474.03	10817.96
474.21	10909.24
474.39	11037.97
474.57	10794.55
474.75	11140.95
474.93	11152.65
475.12	11246.27
475.30	11293.08
475.48	11136.27
475.66	11236.91
475.84	11293.08
476.02	11314.15
476.20	11290.74
476.38	11913.33
476.56	11943.75
476.74	11679.27
476.92	11796.30
477.10	11768.21
477.28	12292.49
477.46	12056.10
477.64	11908.65
477.82	12414.20
478.00	12334.62
478.18	12287.81
478.36	12587.40
478.54	12643.57
478.72	12599.10
478.90	13186.58
479.08	13046.15
479.26	13191.26
479.44	13233.39
479.62	13298.92
479.80	13659.37
479.98	13488.51
480.16	13738.94
480.34	13631.28
480.52	13757.67
480.70	13572.77
480.88	13425.31
481.06	13935.55
481.24	14008.11
481.41	14363.87
481.59	14293.65
481.77	14068.96
481.95	14368.55
482.13	14368.55
482.31	14443.45
482.49	14839.00
482.67	15152.63
482.85	15063.69
483.03	15098.80
483.21	15269.66
483.39	15253.27
483.57	15318.81
483.74	15428.81
483.92	15604.35
484.10	15627.76
484.28	15896.92
484.46	16149.70
484.64	16320.56
484.82	16107.57
485.00	16276.09
485.18	16374.39
485.35	16257.36
485.53	16374.39
485.71	16184.80
485.89	16379.07
486.07	16458.65
486.25	16648.23
486.43	17153.79
486.61	16793.34
486.78	16769.94
486.96	16968.88
487.14	17642.96
487.32	17558.70
487.50	17980.00
487.68	17881.69
487.85	18494.91
488.03	18539.38
488.21	18298.31
488.39	18712.58
488.57	18548.75
488.75	18731.31
488.92	18991.11
489.10	19391.34
489.28	19307.08
489.46	19917.96
489.64	19281.33
489.81	20484.37
489.99	20027.96
490.17	20517.14
490.35	20381.38
490.53	20065.41
490.70	20437.56
490.88	20519.48
491.06	20985.24
491.24	20664.59
491.41	20482.03
491.59	20882.26
491.77	21050.78
491.95	21195.89
492.13	21273.13
492.30	21862.94
492.48	21745.92
492.66	21696.77
492.84	21933.16
493.01	21820.81
493.19	22085.30
493.37	22312.33
493.54	22349.78
493.72	22462.12
493.90	22501.91
494.08	22759.37
494.25	22991.08
494.43	23309.40
494.61	23400.68
494.79	23391.31
494.96	23391.31
495.14	23314.08
495.32	23599.62
495.49	23627.71
495.67	23758.78
495.85	24056.03
496.02	24112.20
496.20	24053.69
496.38	24261.99
496.55	24556.90
496.73	24954.79
496.91	24767.55
497.09	24837.76
497.26	25088.20
497.44	25397.15
497.62	25233.32
497.79	25216.93
497.97	25266.08
498.14	25621.84
498.32	25450.99
498.50	25472.05
498.67	25823.13
498.85	26281.88
499.03	26389.54
499.20	26544.02
499.38	26246.77
499.56	26616.57
499.73	26380.18
499.91	26822.54
500.08	26536.99
500.26	26040.80
500.44	26703.17
500.61	26658.70
500.79	26822.54
500.97	26707.85
501.14	26951.27
501.32	27138.51
501.49	27363.20
501.67	27021.48
501.84	27337.46
502.02	27452.14
502.20	27737.69
502.37	27491.93
502.55	27601.94
502.72	28304.10
502.90	28051.32
503.07	28086.43
503.25	27880.46
503.43	27946.00
503.60	28173.03
503.78	28102.81
503.95	28100.47
504.13	28276.01
504.30	28664.54
504.48	28404.74
504.65	28837.74
504.83	28575.60
505.01	29284.78
505.18	28919.66
505.36	29591.39
505.53	29488.41
505.71	29511.81
505.88	29839.49
506.06	29532.88
506.23	29525.86
506.41	29420.53
506.58	29504.79
506.76	29823.11
506.93	30066.52
507.11	29970.56
507.28	29773.95
507.46	29755.23
507.63	29837.15
507.81	30038.44
507.98	30127.38
508.16	30239.72
508.33	30562.72
508.50	30731.23
508.68	31084.65
508.85	31197.00
509.03	31037.84
509.20	30738.26
509.38	30838.90
509.55	31026.14
509.73	31065.93
509.90	31562.12
510.08	31063.59
510.25	30955.93
510.42	31559.78
510.60	31791.50
510.77	31580.85
510.95	32142.58
511.12	31812.56
511.30	31857.03
511.47	32196.41
511.64	32603.66
511.82	32566.21
511.99	32144.92
512.17	32320.46
512.34	32367.27
512.51	32734.73
512.69	32879.85
512.86	32849.42
513.04	32727.71
513.21	32631.75
513.38	32783.88
513.56	32641.11
513.73	32402.38
513.90	32627.07
514.08	32804.95
514.25	33256.67
514.43	33329.23
514.60	32744.09
514.77	33076.45
514.95	33362.00
515.12	33172.41
515.29	33574.98
515.47	34150.76
515.64	34017.35
515.81	33710.74
515.99	34153.10
516.16	34047.77
516.33	33525.83
516.51	33125.60
516.68	33263.69
516.85	33207.52
517.03	33149.01
517.20	33818.40
517.37	34403.53
517.54	34302.89
517.72	34066.50
517.89	34026.71
518.06	33989.26
518.24	34167.14
518.41	34305.23
518.58	34555.67
518.75	34249.06
518.93	34763.98
519.10	34972.28
519.27	35005.05
519.45	34637.59
519.62	35077.61
519.79	35281.24
519.96	35002.71
520.14	35290.60
520.31	35557.42
520.48	35236.77
520.65	35077.61
520.83	35349.11
521.00	35622.95
521.17	35718.92
521.34	36339.16
521.52	36034.89
521.69	35770.41
521.86	36002.12
522.03	36514.70
522.20	36058.29
522.38	36004.46
522.55	36519.38
522.72	36605.98
522.89	36165.96
523.07	37036.64
523.24	36732.37
523.41	36797.90
523.58	36732.37
523.75	37001.53
523.92	36968.76
524.10	36921.95
524.27	36879.82
524.44	37249.63
524.61	37486.02
524.78	36863.44
524.96	37200.47
525.13	37483.68
525.30	37188.77
525.47	37979.87
525.64	37319.84
525.81	37312.82
525.98	37209.84
526.16	37378.36
526.33	37127.92
526.50	37354.95
526.67	37205.16
526.84	37436.87
527.01	37518.79
527.18	37687.31
527.36	38171.80
527.53	38209.25
527.70	38469.04
527.87	38312.23
528.04	38396.49
528.21	38213.93
528.38	38258.40
528.55	38593.09
528.72	38548.62
528.89	39007.37
529.07	38810.76
529.24	38377.76
529.41	38724.16
529.58	38850.55
529.75	38712.46
529.92	39075.24
530.09	39150.14
530.26	38995.67
530.43	38976.94
530.60	39084.61
530.77	39409.94
530.94	39381.85
531.11	39316.32
531.28	39714.21
531.46	39313.98
531.63	39145.46
531.80	39262.49
531.97	38986.30
532.14	39538.67
532.31	39030.77
532.48	39082.27
532.65	39449.73
532.82	39438.03
532.99	39431.01
533.16	38862.26
533.33	39992.73
533.50	39997.41
533.67	39817.19
533.84	39908.47
534.01	39974.01
534.18	39739.96
534.35	40533.40
534.52	40013.80
534.69	40598.93
534.86	40137.85
535.03	40109.76
535.20	40825.96
535.37	41095.13
535.54	40928.95
535.71	40704.26
535.88	40575.53
536.05	40219.77
536.22	40587.23
536.38	40938.31
536.55	40575.53
536.72	40722.98
536.89	40353.18
537.06	40720.64
537.23	40809.58
537.40	40917.25
537.57	41045.97
537.74	40968.74
537.91	41200.45
538.08	41343.22
538.25	41053.00
538.42	41015.55
538.59	41134.92
538.75	40776.81
538.92	41177.04
539.09	41322.16
539.26	41434.50
539.43	41317.48
539.60	40931.29
539.77	41312.80
539.94	41268.33
540.11	41291.73
540.28	41310.46
540.44	41242.58
540.61	41137.26
540.78	41200.45
540.95	41481.31
541.12	41200.45
541.29	41457.91
541.46	41729.41
541.62	41886.23
541.79	41736.43
541.96	41488.34
542.13	41509.40
542.30	41483.66
542.47	41715.37
542.63	41792.61
542.80	42328.59
542.97	42471.36
543.14	42682.01
543.31	42443.27
543.48	42101.56
543.64	42892.66
543.81	43028.41
543.98	42618.81
544.15	42256.03
544.32	42291.14
544.48	42916.06
544.65	43058.84
544.82	43126.71
544.99	42316.89
545.16	42754.57
545.32	42440.93
545.49	43332.68
545.66	43246.08
545.83	43079.90
546.00	43026.07
546.16	43042.45
546.33	42831.80
546.50	42712.44
546.67	43583.12
546.83	42639.88
547.00	42852.87
547.17	43133.73
547.34	42777.97
547.50	43028.41
547.67	43173.52
547.84	43810.15
548.00	43217.99
548.17	43978.67
548.34	43470.77
548.51	44233.78
548.67	43917.81
548.84	43487.15
549.01	43454.39
549.18	43772.70
549.34	43512.90
549.51	43683.76
549.68	43604.18
549.84	43709.50
550.01	43952.92
550.18	43564.39
550.34	43723.55
550.51	43770.36
550.68	43384.17
550.84	43086.92
551.01	43796.10
551.18	43622.90
551.34	43517.58
551.51	43786.74
551.68	43770.36
551.84	43924.83
552.01	43732.91
552.18	44179.95
552.34	43915.47
552.51	43583.12
552.68	43983.35
552.84	44257.19
553.01	44289.96
553.18	44502.95
553.34	44175.27
553.51	44273.57
553.67	44430.39
553.84	44779.13
554.01	44666.78
554.17	44938.29
554.34	44671.46
554.51	44636.36
554.67	44243.15
554.84	44189.31
555.00	44329.75
555.17	44392.94
555.33	44208.04
555.50	44357.83
555.67	44701.89
555.83	44847.00
556.00	44673.81
556.16	45048.29
556.33	44479.54
556.50	44891.48
556.66	44868.07
556.83	44439.75
556.99	44753.38
557.16	45017.86
557.32	44729.98
557.49	44832.96
557.65	44711.25
557.82	45256.60
557.98	44790.83
558.15	45081.06
558.32	44875.09
558.48	44540.39
558.65	44884.45
558.81	44847.00
558.98	44893.82
559.14	44671.46
559.31	44879.77
559.47	45195.74
559.64	44966.37
559.80	45521.08
559.97	45059.99
560.13	44767.43
560.30	44865.73
560.46	45329.16
560.63	45427.46
560.79	45385.33
560.96	45558.53
561.12	45425.12
561.29	45109.14
561.45	45123.19
561.61	44746.36
561.78	44872.75
561.94	45069.36
562.11	45291.71
562.27	44863.39
562.44	45614.70
562.60	45406.39
562.77	45432.14
562.93	45174.68
563.10	45645.13
563.26	44800.19
563.42	45443.84
563.59	45436.82
563.75	45504.70
563.92	45378.31
564.08	45453.20
564.24	45504.70
564.41	45359.58
564.57	45572.57
564.74	45109.14
564.90	45294.05
565.07	45551.51
565.23	45846.41
565.39	45694.28
565.56	45413.41
565.72	45277.66
565.88	44865.73
566.05	45523.42
566.21	45174.68
566.38	45188.72
566.54	45272.98
566.70	45804.28
566.87	46148.34
567.03	45893.22
567.19	45942.38
567.36	45787.90
567.52	45787.90
567.68	45640.45
567.85	45488.31
568.01	45511.72
568.17	45478.95
568.34	45745.77
568.50	45394.69
568.66	45687.26
568.83	45881.52
568.99	45476.61
569.15	45755.13
569.32	45691.94
569.48	45495.33
569.64	46054.72
569.81	45853.44
569.97	45170.00
570.13	45897.91
570.30	45207.45
570.46	45741.09
570.62	44905.52
570.78	45308.09
570.95	45123.19
571.11	45291.71
571.27	45331.50
571.43	45228.51
571.60	45680.24
571.76	45434.48
571.92	45792.58
572.09	46195.15
572.25	45890.88
572.41	45544.48
572.57	46124.94
572.74	46309.84
572.90	46110.89
573.06	45813.65
573.22	45734.07
573.38	45741.09
573.55	45612.36
573.71	45975.14
573.87	46230.26
574.03	45827.69
574.20	46113.23
574.36	45656.83
574.52	45935.35
574.68	45902.59
574.84	45783.22
575.01	45715.34
575.17	46045.36
575.33	45708.32
575.49	45689.60
575.65	45977.48
575.82	46028.98
575.98	45958.76
576.14	46050.04
576.30	46246.65
576.46	45783.22
576.62	45570.23
576.79	45588.95
576.95	45483.63
577.11	45509.38
577.27	45794.92
577.43	45996.21
577.59	45467.25
577.75	45518.74
577.92	45687.26
578.08	45450.86
578.24	45556.19
578.40	45808.96
578.56	45827.69
578.72	45762.15
578.88	45935.35
579.04	45904.93
579.21	45511.72
579.37	45965.78
579.53	46127.28
579.69	45382.99
579.85	45689.60
580.01	45958.76
580.17	45778.54
580.33	45851.09
580.49	46195.15
580.65	45579.59
580.82	45881.52
580.98	45815.99
581.14	45731.73
581.30	46117.92
581.46	45860.46
581.62	45708.32
581.78	45818.33
581.94	46220.90
582.10	45895.56
582.26	45867.48
582.42	46045.36
582.58	45888.54
582.74	45701.30
582.90	45778.54
583.06	46248.99
583.22	45972.80
583.38	46005.57
583.54	46024.29
583.70	46024.29
583.86	46092.17
584.02	45579.59
584.18	45495.33
584.34	45970.46
584.50	46019.61
584.66	45675.55
584.82	46026.63
584.98	46082.81
585.14	46216.22
585.30	45879.18
585.46	45427.46
585.62	45708.32
585.78	45949.40
585.94	45881.52
586.10	45890.88
586.26	45872.16
586.42	46312.18
586.58	45776.20
586.74	45895.56
586.90	46239.62
587.06	46082.81
587.22	46068.76
587.38	45790.24
587.54	45773.86
587.70	46036.00
587.86	46115.58
588.02	45947.06
588.18	46431.55
588.34	45565.55
588.49	45258.94
588.65	45368.94
588.81	45277.66
588.97	45734.07
589.13	45851.09
589.29	45429.80
589.45	45766.84
589.61	45258.94
589.77	46300.48
589.93	45717.68
590.08	45925.99
590.24	46066.42
590.40	46117.92
590.56	46251.33
590.72	46689.01
590.88	45785.56
591.04	46480.70
591.20	46188.13
591.35	46178.77
591.51	46604.75
591.67	45958.76
591.83	46045.36
591.99	45954.08
592.15	45773.86
592.31	46176.43
592.46	45673.21
592.62	46323.88
592.78	46171.75
592.94	45947.06
593.10	45806.62
593.26	46106.21
593.41	46253.67
593.57	46033.66
593.73	45965.78
593.89	45923.65
594.05	46028.98
594.20	46174.09
594.36	46036.00
594.52	46052.38
594.68	46216.22
594.84	45703.64
594.99	46394.10
595.15	46256.01
595.31	46354.31
595.47	46258.35
595.62	46012.59
595.78	46349.63
595.94	46171.75
596.10	46014.93
596.25	46454.95
596.41	46202.18
596.57	45998.55
596.73	46445.59
596.88	46213.88
597.04	46101.53
597.20	46340.27
597.36	46171.75
597.51	46518.15
597.67	46415.16
597.83	45872.16
597.99	46440.91
598.14	45673.21
598.30	46300.48
598.46	46218.56
598.61	46021.95
598.77	46066.42
598.93	46199.83
599.09	46284.09
599.24	46499.42
599.40	46066.42
599.56	45989.19
599.71	46167.07
599.87	46157.70
600.03	46110.89
600.18	46216.22
600.34	46164.73
600.50	45804.28
600.65	46043.02
600.81	46284.09
600.97	46403.46
601.12	46487.72
601.28	46478.36
601.44	45717.68
601.59	45701.30
601.75	45799.60
601.91	45893.22
602.06	46012.59
602.22	46244.30
602.37	46099.19
602.53	45989.19
602.69	46241.96
602.84	46340.27
603.00	46192.81
603.16	45806.62
603.31	45928.33
603.47	45731.73
603.62	45570.23
603.78	46248.99
603.94	46291.12
604.09	46401.12
604.25	45963.44
604.40	46204.52
604.56	46232.60
604.71	46319.20
604.87	46337.93
605.03	46003.23
605.18	45542.14
605.34	45893.22
605.49	45862.80
605.65	46000.89
605.80	46033.66
605.96	45867.48
606.12	45783.22
606.27	46082.81
606.43	46045.36
606.58	45984.51
606.74	45986.85
606.89	45663.85
607.05	46169.41
607.20	46017.27
607.36	45621.72
607.51	46370.69
607.67	45933.01
607.82	45698.96
607.98	46031.32
608.13	45553.85
608.29	45263.62
608.44	45282.34
608.60	45113.83
608.75	45626.40
608.91	45900.25
609.06	45705.98
609.22	45530.44
609.37	45755.13
609.53	45883.86
609.68	45841.73
609.84	45378.31
609.99	45525.76
610.15	45368.94
610.30	45500.01
610.46	45422.78
610.61	45720.02
610.76	45785.56
610.92	45591.30
611.07	45368.94
611.23	45345.54
611.38	45268.30
611.54	45535.12
611.69	45492.99
611.84	45408.73
612.00	45141.91
612.15	45102.12
612.31	45270.64
612.46	45345.54
612.62	45209.79
612.77	45184.04
612.92	45081.06
613.08	44973.39
613.23	45083.40
613.39	44783.81
613.54	44844.66
613.69	45291.71
613.85	44507.63
614.00	44718.28
614.15	45158.30
614.31	44921.90
614.46	45031.91
614.62	44924.24
614.77	44769.77
614.92	44926.58
615.08	44898.50
615.23	44797.85
615.38	44638.70
615.54	44296.98
615.69	44910.20
615.84	44552.10
616.00	44875.09
616.15	44648.06
616.30	44540.39
616.46	44746.36
616.61	44189.31
616.76	44119.10
616.92	43721.21
617.07	44381.24
617.22	44486.56
617.37	44278.25
617.53	44636.36
617.68	44479.54
617.83	44617.63
617.99	44046.54
618.14	44535.71
618.29	44711.25
618.45	44051.22
618.60	43510.56
618.75	43908.45
618.90	43817.17
619.06	43852.28
619.21	43817.17
619.36	44215.06
619.51	44144.84
619.67	43810.15
619.82	43683.76
619.97	44062.93
620.12	44205.70
620.28	43803.13
620.43	43777.38
620.58	44168.25
620.73	43707.16
620.89	44112.08
621.04	44233.78
621.19	44041.86
621.34	43522.26
621.49	43889.73
621.65	43798.44
621.80	43901.43
621.95	43358.42
622.10	43753.97
622.25	43770.36
622.41	43566.73
622.56	43157.14
622.71	43952.92
622.86	43730.57
623.01	43365.45
623.16	43753.97
623.32	43501.20
623.47	43079.90
623.62	43583.12
623.77	42682.01
623.92	43449.70
624.07	43496.52
624.23	42955.85
624.38	43075.22
624.53	43494.18
624.68	43281.19
624.83	43122.03
624.98	43152.46
625.13	42803.72
625.29	42983.94
625.44	43033.09
625.59	42909.04
625.74	42965.21
625.89	42689.03
626.04	42700.73
626.19	42417.53
626.34	43241.40
626.49	43112.67
626.65	42799.04
626.80	42543.92
626.95	42340.29
627.10	42508.81
627.25	42302.84
627.40	42534.56
627.55	42747.54
627.70	42218.58
627.85	42167.09
628.00	42541.58
628.15	43016.71
628.30	42548.60
628.45	42696.05
628.60	42525.19
628.76	42529.87
628.91	42387.10
629.06	42101.56
629.21	42342.63
629.36	42366.04
629.51	42162.41
629.66	41902.61
629.81	41766.86
629.96	42253.69
630.11	42094.53
630.26	42227.95
630.41	42452.64
630.56	42061.77
630.71	42141.35
630.86	41937.72
631.01	41752.82
631.16	41928.36
631.31	41453.23
631.46	41626.43
631.61	41794.95
631.76	41474.29
631.91	41886.23
632.06	41846.44
632.21	41654.51
632.36	42153.05
632.51	41361.95
632.66	41879.21
632.81	41495.36
632.96	41645.15
633.10	41476.63
633.25	41656.85
633.40	41481.31
633.55	41827.71
633.70	41792.61
633.85	41731.75
634.00	41394.71
634.15	41787.92
634.30	41408.76
634.45	41055.34
634.60	41144.28
634.75	40891.50
634.90	40950.01
635.05	41296.41
635.19	41151.30
635.34	41139.60
635.49	40987.46
635.64	41146.62
635.79	41127.89
635.94	41165.34
636.09	40809.58
636.24	41244.92
636.39	40584.89
636.53	40854.05
636.68	40783.83
636.83	40526.38
636.98	40708.94
637.13	40818.94
637.28	41104.49
637.43	41345.56
637.57	40912.56
637.72	40982.78
637.87	40942.99
638.02	40872.78
638.17	40645.74
638.32	40432.75
638.46	40360.20
638.61	40877.46
638.76	41045.97
638.91	40407.01
639.06	40524.04
639.20	40659.79
639.35	40722.98
639.50	40816.60
639.65	39999.76
639.80	40524.04
639.94	39793.79
640.09	40203.38
640.24	40502.97
640.39	39990.39
640.54	40128.48
640.68	40292.32
640.83	39999.76
640.98	39779.74
641.13	39913.16
641.27	40212.74
641.42	40177.64
641.57	40084.01
641.72	40084.01
641.86	39763.36
642.01	39590.16
642.16	39798.47
642.31	39952.94
642.45	39672.08
642.60	39531.65
642.75	39721.23
642.90	39835.92
643.04	39936.56
643.19	39812.51
643.34	39754.00
643.48	39807.83
643.63	39775.06
643.78	39810.17
643.93	39758.68
644.07	39423.98
644.22	39587.82
644.37	39332.70
644.51	39140.78
644.66	39552.71
644.81	39564.42
644.95	39723.57
645.10	39482.50
645.25	39636.97
645.39	39051.84
645.54	39103.33
645.69	39585.48
645.83	39159.50
645.98	39100.99
646.13	39608.89
646.27	39639.31
646.42	38691.40
646.57	38834.17
646.71	39122.05
646.86	39351.43
647.00	39007.37
647.15	39264.83
647.30	39222.70
647.44	39086.95
647.59	38932.47
647.74	38801.40
647.88	38883.32
648.03	38778.00
648.17	38944.17
648.32	38480.75
648.47	39035.45
648.61	38607.14
648.76	38836.51
648.90	38637.56
649.05	38457.34
649.20	38359.04
649.34	39000.35
649.49	38417.55
649.63	38557.99
649.78	38642.24
649.92	38328.61
650.07	38443.30
650.21	38237.33
650.36	38927.79
650.51	38452.66
650.65	38864.60
650.80	39236.74
650.94	38763.95
651.09	38501.81
651.23	38272.44
651.38	38808.42
651.52	37832.42
651.67	38176.48
651.81	38089.88
651.96	38286.48
652.10	38279.46
652.25	38010.30
652.39	38501.81
652.54	38068.81
652.68	38162.43
652.83	37888.59
652.97	38644.59
653.12	38288.82
653.26	37755.18
653.41	37956.47
653.55	37944.76
653.70	37919.02
653.84	38211.59
653.99	37696.67
654.13	37827.74
654.27	37783.27
654.42	37881.57
654.56	37736.46
654.71	37755.18
654.85	37521.13
655.00	37897.95
655.14	37521.13
655.29	36978.12
655.43	37125.58
655.57	37062.38
655.72	37303.46
655.86	36769.82
656.01	36608.32
656.15	36994.51
656.30	37493.04
656.44	37092.81
656.58	37167.71
656.73	37064.72
656.87	36921.95
657.01	36793.22
657.16	36687.90
657.30	36645.77
657.45	36622.36
657.59	37216.86
657.73	36940.68
657.88	37479.00
658.02	37319.84
658.16	37174.73
658.31	37104.51
658.45	37106.85
658.60	36701.94
658.74	37008.55
658.88	36591.94
659.03	36402.35
659.17	36732.37
659.31	36378.95
659.46	36357.88
659.60	36634.06
659.74	36208.09
659.89	36088.72
660.03	36350.86
660.17	36343.84
660.32	36318.09
660.46	36163.62
660.60	36297.03
660.74	36519.38
660.89	36130.85
661.03	36121.49
661.17	36348.52
661.32	35924.88
661.46	36201.07
661.60	35555.08
661.74	35597.21
661.89	35913.18
662.03	35943.61
662.17	35707.21
662.31	35737.64
662.46	35967.01
662.60	35786.79
662.74	35606.57
662.88	35665.08
663.03	35147.82
663.17	35842.96
663.31	35349.11
663.45	35512.95
663.60	35442.73
663.74	35227.40
663.88	35133.78
664.02	34927.81
664.17	35262.51
664.31	34761.64
664.45	35232.08
664.59	35194.64
664.73	35463.80
664.88	34937.18
665.02	34401.19
665.16	34567.37
665.30	34660.99
665.44	34338.00
665.59	34611.84
665.73	34469.07
665.87	34515.88
666.01	34492.47
666.15	34227.99
666.29	34628.23
666.44	34747.59
666.58	34190.55
666.72	34305.23
666.86	34249.06
667.00	34277.15
667.14	33816.06
667.28	34089.90
667.43	34595.46
667.57	33928.41
667.71	34024.37
667.85	34064.16
667.99	33766.91
668.13	33930.75
668.27	33869.89
668.41	33998.62
668.56	33668.61
668.70	33565.62
668.84	33511.79
668.98	33043.68
669.12	33277.74
669.26	33472.00
669.40	32938.36
669.54	33102.20
669.68	33163.05
669.82	32945.38
669.96	33251.99
670.10	32975.81
670.25	32638.77
670.39	32842.40
670.53	32671.54
670.67	32266.63
670.81	32975.81
670.95	32404.72
671.09	32261.94
671.23	32453.87
671.37	32463.23
671.51	32521.74
671.65	31943.63
671.79	31974.06
671.93	31899.16
672.07	32123.85
672.21	32025.55
672.35	31662.77
672.49	31718.94
672.63	31934.27
672.77	31674.47
672.91	31938.95
673.05	31632.34
673.19	31147.85
673.33	31356.16
673.47	30998.06
673.61	31283.60
673.75	31117.42
673.89	31351.48
674.03	31360.84
674.17	30995.71
674.31	30668.04
674.45	31381.90
674.59	31236.79
674.73	31168.91
674.87	30920.82
675.01	30988.69
675.15	30862.30
675.29	30988.69
675.43	30892.73
675.56	30270.15
675.70	30452.71
675.84	30492.50
675.98	29846.51
676.12	30373.13
676.26	30487.82
676.40	30326.32
676.54	30209.29
676.68	29771.61
676.82	29476.71
676.96	29617.14
677.10	30003.33
677.23	29640.54
677.37	29362.02
677.51	29134.99
677.65	29252.02
677.79	28772.21
677.93	29149.03
678.07	28783.91
678.21	28606.03
678.34	28416.44
678.48	28603.69
678.62	28453.89
678.76	28044.30
678.90	28439.85
679.04	28053.66
679.18	27990.47
679.31	27901.53
679.45	27747.05
679.59	27976.42
679.73	27880.46
679.87	27864.08
680.00	27896.85
680.14	27906.21
680.28	27775.14
680.42	26848.29
680.56	27491.93
680.70	27168.94
680.83	27159.58
680.97	26977.01
681.11	27084.68
681.25	27016.80
681.39	26934.88
681.52	27117.45
681.66	26607.21
681.80	26754.66
681.94	26417.63
682.07	26480.82
682.21	26267.83
682.35	26415.29
682.49	26022.08
682.62	26082.93
682.76	25706.10
682.90	26324.01
683.04	25792.70
683.17	25736.53
683.31	25418.22
683.45	25649.93
683.59	25575.03
683.72	25696.74
683.86	25308.21
684.00	25226.29
684.13	25015.65
684.27	25242.68
684.41	24952.45
684.55	24767.55
684.68	24774.57
684.82	24505.41
684.96	24697.33
685.09	24210.50
685.23	24568.60
685.37	24552.22
685.50	24638.82
685.64	24430.51
685.78	24334.55
685.91	23997.51
686.05	23826.65
686.19	23618.35
686.32	23831.33
686.46	23314.08
686.60	23290.67
686.73	23105.77
686.87	23044.91
687.01	23480.25
687.14	22806.18
687.28	22658.73
687.42	22782.77
687.55	22970.02
687.69	23473.23
687.82	22518.29
687.96	22579.15
688.10	22579.15
688.23	22427.01
688.37	22422.33
688.50	22506.59
688.64	22581.49
688.78	22263.18
688.91	21968.27
689.05	21371.43
689.18	22010.40
689.32	21738.90
689.46	21680.38
689.59	21916.78
689.73	21900.39
689.86	21638.25
690.00	21542.29
690.13	21493.14
690.27	21195.89
690.41	20945.45
690.54	21092.91
690.68	21439.31
690.81	21116.31
690.95	21113.97
691.08	21062.48
691.22	21039.08
691.35	20603.74
691.49	20840.13
691.62	20706.72
691.76	20678.63
691.89	20582.67
692.03	20414.15
692.16	20297.13
692.30	20372.02
692.43	20229.25
692.57	19941.36
692.70	19709.65
692.84	19831.36
692.97	19592.62
693.11	19449.85
693.24	19644.12
693.38	19314.10
693.51	19241.54
693.65	19513.05
693.78	19154.94
693.92	19318.78
694.05	19407.72
694.19	19126.86
694.32	19073.03
694.45	19330.48
694.59	18991.11
694.72	18787.48
694.86	18956.00
694.99	18642.37
695.13	18417.68
695.26	18518.32
695.39	18504.28
695.53	18427.04
695.66	18408.31
695.80	18408.31
695.93	18108.72
696.07	18085.32
696.20	18085.32
696.33	18057.23
696.47	17874.67
696.60	18122.77
696.73	17563.38
696.87	17706.15
697.00	17411.25
697.14	17556.36
697.27	17392.52
697.40	17224.00
697.54	17284.86
697.67	17046.12
697.80	17060.16
697.94	16931.44
698.07	17174.85
698.21	16950.16
698.34	17053.14
698.47	16732.49
698.61	16592.06
698.74	16854.20
698.87	16858.88
699.01	16219.91
699.14	16561.63
699.27	16105.23
699.40	16255.02
699.54	16243.32
699.67	16147.36
699.80	15880.53
699.94	15967.13
700.07	16166.08
700.20	16130.97
700.34	15765.85
700.47	15829.04
700.60	15632.44
700.73	15655.84
700.87	15571.58
701.00	15587.97
701.13	15527.11
701.26	15342.21
701.40	15407.75
701.53	15276.68
701.66	15021.56
701.79	14977.09
701.93	14855.38
702.06	14949.00
702.19	14738.35
702.32	14967.73
702.46	14869.42
702.59	14899.85
702.72	14649.41
702.85	14656.43
702.99	14417.70
703.12	14342.80
703.25	14586.22
703.38	14611.96
703.51	14366.21
703.65	14153.22
703.78	13994.06
703.91	14113.43
704.04	14019.81
704.17	13905.12
704.31	14008.11
704.44	13710.86
704.57	13593.83
704.70	13568.09
704.83	13689.79
704.96	13818.52
705.10	13455.74
705.23	13373.82
>>>>>End Processed Spectral Data<<<<<
