SpectraSuite Data File
++++++++++++++++++++++++++++++++++++
Date: Fri Oct 25 10:47:32 EDT 2013
User: price-jones
Dark Spectrum Present: No
Reference Spectrum Present: No
Number of Sampled Component Spectra: 1
Spectrometers: USB2+H05261
Integration Time (usec): 100000 (USB2+H05261)
Spectra Averaged: 1 (USB2+H05261)
Boxcar Smoothing: 0 (USB2+H05261)
Correct for Electrical Dark: No (USB2+H05261)
Strobe/Lamp Enabled: No (USB2+H05261)
Correct for Detector Non-linearity: No (USB2+H05261)
Correct for Stray Light: No (USB2+H05261)
Number of Pixels in Processed Spectrum: 2048
>>>>>Begin Processed Spectral Data<<<<<
365.73	114.69
365.92	114.69
366.12	114.69
366.32	14.04
366.52	84.26
366.72	95.96
366.91	58.51
367.11	60.85
367.31	46.81
367.51	0.00
367.70	63.19
367.90	65.54
368.10	60.85
368.30	0.00
368.49	0.00
368.69	72.56
368.89	39.79
369.09	63.19
369.28	112.35
369.48	28.09
369.68	133.41
369.87	51.49
370.07	107.66
370.27	126.39
370.47	196.60
370.66	369.80
370.86	433.00
371.06	418.96
371.25	512.58
371.45	409.59
371.65	435.34
371.84	423.64
372.04	461.09
372.24	416.62
372.44	465.77
372.63	554.71
372.83	479.81
373.03	456.40
373.22	463.43
373.42	475.13
373.62	510.24
373.81	510.24
374.01	521.94
374.21	519.60
374.40	608.54
374.60	571.09
374.79	596.84
374.99	568.75
375.19	599.18
375.38	699.82
375.58	552.37
375.78	550.03
375.97	519.60
376.17	589.82
376.37	582.79
376.56	601.52
376.76	613.22
376.95	610.88
377.15	580.45
377.35	505.56
377.54	613.22
377.74	578.11
377.93	573.43
378.13	610.88
378.33	606.20
378.52	554.71
378.72	610.88
378.91	660.03
379.11	557.05
379.31	592.16
379.50	596.84
379.70	634.29
379.89	575.77
380.09	685.78
380.28	571.09
380.48	578.11
380.68	550.03
380.87	716.20
381.07	669.39
381.26	720.88
381.46	688.12
381.65	779.40
381.85	638.97
382.04	690.46
382.24	706.84
382.43	720.88
382.63	671.73
382.83	720.88
383.02	767.70
383.22	697.48
383.41	613.22
383.61	706.84
383.80	702.16
384.00	709.18
384.19	746.63
384.39	730.25
384.58	734.93
384.78	763.01
384.97	734.93
385.17	671.73
385.36	704.50
385.56	725.57
385.75	791.10
385.95	704.50
386.14	781.74
386.34	795.78
386.53	690.46
386.72	744.29
386.92	772.38
387.11	837.91
387.31	716.20
387.50	844.93
387.70	746.63
387.89	770.04
388.09	744.29
388.28	788.76
388.48	816.85
388.67	851.96
388.86	805.14
389.06	863.66
389.25	807.48
389.45	837.91
389.64	903.45
389.84	936.21
390.03	908.13
390.22	875.36
390.42	877.70
390.61	805.14
390.81	875.36
391.00	952.60
391.19	924.51
391.39	936.21
391.58	910.47
391.78	905.79
391.97	994.73
392.16	910.47
392.36	976.00
392.55	933.87
392.75	978.34
392.94	973.66
393.13	908.13
393.33	894.08
393.52	1034.52
393.71	976.00
393.91	1046.22
394.10	1011.11
394.29	1071.97
394.49	1001.75
394.68	1027.50
394.88	1046.22
395.07	1100.05
395.26	1013.45
395.46	1128.14
395.65	1074.31
395.84	1081.33
396.04	1160.91
396.23	1128.14
396.42	1210.06
396.62	1217.08
396.81	1071.97
397.00	1128.14
397.19	1090.69
397.39	1205.38
397.58	1186.65
397.77	1135.16
397.97	1181.97
398.16	1228.78
398.35	1228.78
398.55	1273.25
398.74	1214.74
398.93	1186.65
399.12	1217.08
399.32	1366.87
399.51	1313.04
399.70	1341.13
399.90	1348.15
400.09	1315.38
400.28	1380.92
400.47	1294.32
400.67	1467.52
400.86	1451.13
401.05	1439.43
401.24	1397.30
401.44	1451.13
401.63	1392.62
401.82	1409.00
402.01	1469.86
402.21	1350.49
402.40	1481.56
402.59	1526.03
402.78	1430.07
402.97	1483.90
403.17	1465.18
403.36	1523.69
403.55	1570.50
403.74	1523.69
403.93	1540.07
404.13	1687.53
404.32	1570.50
404.51	1577.52
404.70	1579.86
404.89	1577.52
405.09	1699.23
405.28	1600.93
405.47	1706.25
405.66	1696.89
405.85	1734.34
406.05	1722.63
406.24	1694.55
406.43	1792.85
406.62	1767.10
406.81	1750.72
407.00	1739.02
407.20	1743.70
407.39	1771.79
407.58	1813.92
407.77	1764.76
407.96	1921.58
408.15	1877.11
408.34	1846.68
408.54	1874.77
408.73	1954.35
408.92	1893.49
409.11	2003.50
409.30	2120.53
409.49	1912.22
409.68	2031.58
409.87	2106.48
410.07	1991.80
410.26	1933.28
410.45	2087.76
410.64	2125.21
410.83	2125.21
411.02	2115.84
411.21	2265.64
411.40	2139.25
411.59	2331.17
411.78	2279.68
411.98	2303.09
412.17	2324.15
412.36	2190.74
412.55	2293.72
412.74	2275.00
412.93	2258.62
413.12	2277.34
413.31	2588.63
413.50	2476.29
413.69	2424.80
413.88	2562.89
414.07	2420.11
414.26	2633.10
414.45	2509.05
414.64	2565.23
414.83	2607.36
415.02	2647.15
415.22	2612.04
415.41	2717.36
415.60	2719.70
415.79	2665.87
415.98	2752.47
416.17	2829.71
416.36	2754.81
416.55	2696.30
416.74	2729.06
416.93	2801.62
417.12	2775.88
417.31	2733.75
417.50	2867.16
417.69	2956.10
417.88	3019.29
418.07	3016.95
418.26	3052.06
418.45	2972.48
418.64	3124.62
418.83	3068.44
419.02	3033.33
419.21	3101.21
419.39	3112.91
419.58	3075.46
419.77	3112.91
419.96	3054.40
420.15	3318.88
420.34	3066.10
420.53	3112.91
420.72	3286.11
420.91	3279.09
421.10	3454.63
421.29	3396.12
421.48	3255.69
421.67	3283.77
421.86	3286.11
422.05	3302.50
422.24	3311.86
422.43	3286.11
422.61	3267.39
422.80	3475.70
422.99	3375.05
423.18	3426.54
423.37	3386.76
423.56	3365.69
423.75	3321.22
423.94	3417.18
424.13	3199.51
424.32	3339.94
424.50	3442.93
424.69	3438.25
424.88	3616.13
425.07	3379.73
425.26	3454.63
425.45	3375.05
425.64	3438.25
425.83	3454.63
426.01	3590.38
426.20	3449.95
426.39	3463.99
426.58	3400.80
426.77	3382.07
426.96	3597.40
427.15	3574.00
427.33	3515.48
427.52	3545.91
427.71	3637.19
427.90	3576.34
428.09	3536.55
428.28	3541.23
428.46	3707.41
428.65	3616.13
428.84	3658.26
429.03	3810.39
429.22	3705.07
429.40	3791.67
429.59	3763.58
429.78	3559.95
429.97	3527.19
430.16	3524.85
430.34	3779.97
430.53	3735.50
430.72	3822.09
430.91	3726.13
431.10	3796.35
431.28	3936.78
431.47	4105.30
431.66	4004.66
431.85	4004.66
432.03	4007.00
432.22	4046.79
432.41	3983.59
432.60	4105.30
432.79	4070.19
432.97	4283.18
433.16	4156.79
433.35	3946.14
433.54	4084.23
433.72	4210.62
433.91	3978.91
434.10	4203.60
434.28	4318.29
434.47	4215.30
434.66	4301.90
434.85	4262.12
435.03	4388.50
435.22	4397.87
435.41	4472.76
435.59	4440.00
435.78	4397.87
435.97	4374.46
436.16	4484.47
436.34	4332.33
436.53	4517.23
436.72	4629.58
436.90	4397.87
437.09	4571.07
437.28	4482.13
437.46	4542.98
437.65	4470.42
437.84	4720.86
438.02	4554.68
438.21	4552.34
438.40	4561.70
438.58	4770.01
438.77	4681.07
438.96	4725.54
439.14	4964.28
439.33	4849.59
439.52	4755.97
439.70	4936.19
439.89	4954.91
440.08	5057.90
440.26	4994.70
440.45	5060.24
440.63	5081.30
440.82	5256.84
441.01	5071.94
441.19	5142.16
441.38	5291.95
441.57	5350.46
441.75	5238.12
441.94	5432.38
442.12	5516.64
442.31	5432.38
442.50	5687.50
442.68	5572.82
442.87	5570.48
443.05	5357.49
443.24	5645.37
443.43	5603.24
443.61	5776.44
443.80	5621.97
443.98	5593.88
444.17	5315.36
444.35	5664.10
444.54	5675.80
444.73	5568.13
444.91	5717.93
445.10	5617.29
445.28	5565.79
445.47	5530.69
445.65	5769.42
445.84	5804.53
446.02	5884.11
446.21	5944.96
446.39	5858.36
446.58	5722.61
446.77	5886.45
446.95	5741.33
447.14	5816.23
447.32	5879.43
447.51	5839.64
447.69	5837.30
447.88	5717.93
448.06	5788.14
448.25	5935.60
448.43	5926.24
448.62	5781.12
448.80	5809.21
448.99	6040.92
449.17	5930.92
449.36	6012.84
449.54	5959.00
449.73	6052.63
449.91	6258.59
450.10	6104.12
450.28	6125.18
450.46	6221.14
450.65	6061.99
450.83	6328.81
451.02	6183.70
451.20	6251.57
451.39	6143.91
451.57	6223.48
451.76	6274.98
451.94	6300.72
452.13	6328.81
452.31	6303.06
452.49	6415.41
452.68	6209.44
452.86	6289.02
453.05	6443.49
453.23	6445.84
453.42	6345.19
453.60	6457.54
453.78	6370.94
453.97	6354.55
454.15	6483.28
454.34	6445.84
454.52	6616.69
454.70	6448.18
454.89	6612.01
455.07	6630.74
455.26	6597.97
455.44	6712.66
455.62	6656.48
455.81	6689.25
455.99	6740.74
456.17	6759.47
456.36	6661.16
456.54	6862.45
456.73	6876.49
456.91	6925.65
457.09	7000.54
457.28	7234.60
457.46	7016.93
457.64	7131.61
457.83	7225.23
458.01	7311.83
458.19	7386.73
458.38	7052.03
458.56	7213.53
458.74	7110.55
458.93	7222.89
459.11	7258.00
459.29	7185.44
459.48	7265.02
459.66	7431.20
459.84	7276.73
460.03	7314.17
460.21	7407.80
460.39	7403.11
460.57	7370.35
460.76	7155.02
460.94	7365.67
461.12	7595.04
461.31	7723.77
461.49	7499.08
461.67	7482.69
461.85	7705.04
462.04	7576.31
462.22	8226.98
462.40	7838.45
462.59	7681.64
462.77	7789.30
462.95	7882.92
463.13	7777.60
463.32	7730.79
463.50	7894.63
463.68	7955.48
463.86	7822.07
464.05	7728.45
464.23	7878.24
464.41	7868.88
464.59	7728.45
464.78	8128.68
464.96	8035.06
465.14	8032.72
465.32	7967.18
465.50	8219.96
465.69	8142.72
465.87	8116.98
466.05	8065.49
466.23	8301.88
466.41	7925.05
466.60	8266.77
466.78	8032.72
466.96	8234.00
467.14	8145.06
467.32	8315.92
467.51	8355.71
467.69	8212.94
467.87	8318.26
468.05	8161.45
468.23	8341.67
468.41	8367.42
468.60	8348.69
468.78	8514.87
468.96	8341.67
469.14	8374.44
469.32	8517.21
469.50	8283.16
469.69	8540.61
469.87	8540.61
470.05	8788.71
470.23	8648.28
470.41	8643.60
470.59	8798.07
470.77	8777.01
470.95	8739.56
471.14	8882.33
471.32	8816.80
471.50	9064.89
471.68	8734.88
471.86	9205.33
472.04	9083.62
472.22	9245.12
472.40	9179.58
472.58	9245.12
472.77	9048.51
472.95	9266.18
473.13	9584.49
473.31	9212.35
473.49	9324.69
473.67	9535.34
473.85	9406.61
474.03	9612.58
474.21	9668.75
474.39	9895.78
474.57	9703.86
474.75	9977.70
474.93	9954.30
475.12	10101.75
475.30	10242.18
475.48	10080.69
475.66	9961.32
475.84	10022.17
476.02	10054.94
476.20	10218.78
476.38	10335.81
476.56	10616.67
476.74	10457.51
476.92	10349.85
477.10	10464.54
477.28	10586.24
477.46	10670.50
477.64	10918.60
477.82	10761.78
478.00	11199.46
478.18	11075.42
478.36	11199.46
478.54	11192.44
478.72	11187.76
478.90	11325.85
479.08	11419.47
479.26	11477.99
479.44	11648.85
479.62	11735.45
479.80	11882.90
479.98	11992.90
480.16	12126.32
480.34	11903.96
480.52	12032.69
480.70	12353.35
480.88	12196.53
481.06	12072.48
481.24	12348.67
481.41	12545.27
481.59	12772.30
481.77	12765.28
481.95	13004.02
482.13	12863.58
482.31	12933.80
482.49	13336.37
482.67	13308.29
482.85	13511.91
483.03	13598.51
483.21	13624.26
483.39	13626.60
483.57	13692.13
483.74	13633.62
483.92	13736.60
484.10	14129.81
484.28	14176.62
484.46	14260.88
484.64	14441.11
484.82	14368.55
485.00	14572.18
485.18	14855.38
485.35	14677.50
485.53	14640.05
485.71	14843.68
485.89	15009.86
486.07	14941.98
486.25	15269.66
486.43	14988.79
486.61	15374.98
486.78	15632.44
486.96	15744.78
487.14	15943.73
487.32	15939.05
487.50	15978.84
487.68	16112.25
487.85	16507.80
488.03	16432.90
488.21	16905.69
488.39	16561.63
488.57	16903.35
488.75	17212.30
488.92	17142.08
489.10	17493.16
489.28	17233.36
489.46	17532.95
489.64	17355.07
489.81	17841.90
489.99	17921.48
490.17	17975.31
490.35	18237.45
490.53	18211.71
490.70	18391.93
490.88	18434.06
491.06	18370.86
491.24	18602.58
491.41	18579.17
491.59	18745.35
491.77	18696.20
491.95	18834.29
492.13	19274.31
492.30	19407.72
492.48	19290.70
492.66	19527.09
492.84	19513.05
493.01	19765.82
493.19	19466.24
493.37	20039.67
493.54	20034.99
493.72	20393.09
493.90	20395.43
494.08	20325.21
494.25	20610.76
494.43	21067.16
494.61	20821.41
494.79	21034.39
494.96	20886.94
495.14	21027.37
495.32	21280.15
495.49	21390.16
495.67	21483.78
495.85	21467.39
496.02	21621.87
496.20	21617.19
496.38	21745.92
496.55	22120.40
496.73	22169.55
496.91	22134.45
497.09	22082.95
497.26	22803.84
497.44	22225.73
497.62	22855.33
497.79	22939.59
497.97	22499.57
498.14	23161.94
498.32	23065.98
498.50	23349.18
498.67	23557.49
498.85	23080.02
499.03	23480.25
499.20	23697.92
499.38	23527.06
499.56	24070.07
499.73	23983.47
499.91	23796.23
500.08	24105.18
500.26	23793.89
500.44	24095.82
500.61	24400.08
500.79	24334.55
500.97	24552.22
501.14	24760.53
501.32	24727.76
501.49	24741.80
501.67	25132.67
501.84	25027.35
502.02	24788.61
502.20	25312.89
502.37	25303.53
502.55	25282.47
502.72	25226.29
502.90	25343.32
503.07	25495.46
503.25	25462.69
503.43	25139.69
503.60	25645.25
503.78	25898.03
503.95	25528.22
504.13	26010.37
504.30	25933.14
504.48	25926.11
504.65	25979.95
504.83	26284.22
505.01	26513.59
505.18	26188.25
505.36	26607.21
505.53	26513.59
505.71	26813.18
505.88	27065.96
506.06	26429.33
506.23	26969.99
506.41	26576.78
506.58	26845.94
506.76	27087.02
506.93	27201.71
507.11	27391.29
507.28	27161.92
507.46	27276.60
507.63	27220.43
507.81	27580.87
507.98	27571.51
508.16	27377.25
508.33	27882.80
508.50	27864.08
508.68	27981.10
508.85	28112.17
509.03	28063.02
509.20	28084.09
509.38	28254.95
509.55	28737.10
509.73	28486.66
509.90	28538.15
510.08	28383.68
510.25	28772.21
510.42	28760.50
510.60	29296.49
510.77	29331.59
510.95	28900.94
511.12	29022.64
511.30	29467.34
511.47	29153.71
511.64	29598.41
511.82	29202.86
511.99	29626.50
512.17	29436.92
512.34	28924.34
512.51	29713.10
512.69	29724.80
512.86	29493.09
513.04	30089.93
513.21	30033.75
513.38	30033.75
513.56	30199.93
513.73	30019.71
513.90	30169.51
514.08	30122.69
514.25	30675.06
514.43	30340.36
514.60	30408.24
514.77	30562.72
514.95	30476.12
515.12	30761.66
515.29	30532.29
515.47	31019.12
515.64	30998.06
515.81	30511.22
515.99	31000.40
516.16	30902.09
516.33	31122.10
516.51	31175.94
516.68	31185.30
516.85	30799.11
517.03	31030.82
517.20	31491.91
517.37	31424.03
517.54	31852.35
517.72	31913.20
517.89	31688.51
518.06	31241.47
518.24	31990.44
518.41	31510.63
518.58	31793.84
518.75	31683.83
518.93	32051.30
519.10	32222.16
519.27	32018.53
519.45	32203.43
519.62	32369.61
519.79	32854.10
519.96	32416.42
520.14	33074.11
520.31	32648.13
520.48	32711.33
520.65	32765.16
520.83	33268.37
521.00	33109.22
521.17	32816.65
521.34	33041.34
521.52	33074.11
521.69	33149.01
521.86	33251.99
522.03	33518.81
522.20	33432.21
522.38	33797.34
522.55	33528.17
522.72	33626.48
522.89	33963.51
523.07	33577.33
523.24	33432.21
523.41	34078.20
523.58	33596.05
523.75	34075.86
523.92	34326.30
524.10	34089.90
524.27	34071.18
524.44	34618.86
524.61	34579.07
524.78	34616.52
524.96	34670.36
525.13	34829.51
525.30	34953.56
525.47	34794.40
525.64	34923.13
525.81	34394.17
525.98	35166.55
526.16	34670.36
526.33	34590.78
526.50	35206.34
526.67	34897.39
526.84	34700.78
527.01	35105.70
527.18	35379.54
527.36	35213.36
527.53	35349.11
527.70	35805.52
527.87	35566.78
528.04	35246.13
528.21	35707.21
528.38	35534.01
528.55	35704.87
528.72	35637.00
528.89	36184.68
529.07	36224.47
529.24	35978.72
529.41	35967.01
529.58	36229.15
529.75	35866.37
529.92	36404.69
530.09	36325.11
530.26	36147.23
530.43	36231.49
530.60	36133.19
530.77	36247.88
530.94	36353.20
531.11	36849.39
531.28	36519.38
531.46	36868.12
531.63	36753.43
531.80	36690.24
531.97	36315.75
532.14	36762.79
532.31	36744.07
532.48	36734.71
532.65	37053.02
532.82	36917.27
532.99	37001.53
533.16	36755.77
533.33	37156.00
533.50	37296.44
533.67	37137.28
533.84	36985.15
534.01	37263.67
534.18	37195.79
534.35	37865.19
534.52	37579.64
534.69	37397.08
534.86	37322.18
535.03	37247.29
535.20	37523.47
535.37	37684.97
535.54	37993.92
535.71	38307.55
535.88	38080.52
536.05	38010.30
536.22	37904.98
536.38	37844.12
536.55	37530.49
536.72	37975.19
536.89	38092.22
537.06	37809.01
537.23	38150.73
537.40	37907.32
537.57	38249.03
537.74	38094.56
537.91	38590.75
538.08	38321.59
538.25	37804.33
538.42	38389.47
538.59	38616.50
538.75	38445.64
538.92	38698.42
539.09	38272.44
539.26	38403.51
539.43	39047.16
539.60	38660.97
539.77	38298.19
539.94	39042.48
540.11	38780.34
540.28	38749.91
540.44	38703.10
540.61	38628.20
540.78	38885.66
540.95	38937.15
541.12	39168.87
541.29	39037.80
541.46	38834.17
541.62	39203.97
541.79	39648.68
541.96	39290.57
542.13	39351.43
542.30	39285.89
542.47	39079.92
542.63	39218.02
542.80	39510.58
542.97	39772.72
543.14	39875.71
543.31	39929.54
543.48	39952.94
543.64	40432.75
543.81	39721.23
543.98	39622.93
544.15	39697.83
544.32	40322.75
544.48	40732.34
544.65	39814.85
544.82	40086.36
544.99	39927.20
545.16	40067.63
545.32	40287.64
545.49	40669.15
545.66	40575.53
545.83	40610.64
546.00	40446.80
546.16	40481.91
546.33	40065.29
546.50	40163.59
546.67	40395.31
546.83	39728.25
547.00	40634.04
547.17	40357.86
547.34	40706.60
547.50	40584.89
547.67	41071.72
547.84	40758.09
548.00	40561.48
548.17	40722.98
548.34	40940.65
548.51	41060.02
548.67	41263.64
548.84	41195.77
549.01	40861.07
549.18	40964.06
549.34	41198.11
549.51	41488.34
549.68	41284.71
549.84	41422.80
550.01	41729.41
550.18	41539.83
550.34	41462.59
550.51	41235.56
550.68	41310.46
550.84	41172.36
551.01	41394.71
551.18	41434.50
551.34	41432.16
551.51	41696.64
551.68	41675.58
551.84	41958.78
552.01	41261.30
552.18	41490.68
552.34	41345.56
552.51	41635.79
552.68	41682.60
552.84	41785.58
553.01	42469.02
553.18	41776.22
553.34	41890.91
553.51	42052.41
553.67	41979.85
553.84	42263.05
554.01	42253.69
554.17	42424.55
554.34	42749.88
554.51	42218.58
554.67	42490.09
554.84	42080.49
555.00	42099.22
555.17	41673.24
555.33	42536.90
555.50	42113.26
555.67	42366.04
555.83	42911.38
556.00	42164.75
556.16	42527.53
556.33	42745.20
556.50	42623.50
556.66	42450.30
556.83	42029.00
556.99	42754.57
557.16	42621.16
557.32	42916.06
557.49	42689.03
557.65	42263.05
557.82	42380.08
557.98	42799.04
558.15	42621.16
558.32	42635.20
558.48	42794.36
558.65	42782.65
558.81	42976.92
558.98	42705.41
559.14	42836.48
559.31	42583.71
559.47	42621.16
559.64	43122.03
559.80	43587.80
559.97	43243.74
560.13	42841.17
560.30	43093.94
560.46	42705.41
560.63	42518.17
560.79	43054.15
560.96	42972.24
561.12	42843.51
561.29	43388.85
561.45	43365.45
561.61	43161.82
561.78	43105.65
561.94	43196.93
562.11	43248.42
562.27	43384.17
562.44	43248.42
562.60	43662.69
562.77	43543.33
562.93	43079.90
563.10	43592.48
563.26	42653.92
563.42	43302.25
563.59	43037.77
563.75	43033.09
563.92	43358.42
564.08	43225.01
564.24	43786.74
564.41	43288.21
564.57	43658.01
564.74	43402.89
564.90	43367.79
565.07	43927.17
565.23	43208.63
565.39	43498.86
565.56	44002.07
565.72	43622.90
565.88	43470.77
566.05	43405.23
566.21	43271.82
566.38	43473.11
566.54	43274.16
566.70	43941.22
566.87	43885.04
567.03	43672.06
567.19	44140.16
567.36	43494.18
567.52	43421.62
567.68	43718.87
567.85	43992.71
568.01	43512.90
568.17	43409.92
568.34	43714.19
568.50	44032.50
568.66	43686.10
568.83	43608.86
568.99	43313.95
569.15	43264.80
569.32	43508.22
569.48	43438.00
569.64	43828.87
569.81	43622.90
569.97	43557.37
570.13	43875.68
570.30	43468.43
570.46	43077.56
570.62	43529.28
570.78	43297.57
570.95	43899.09
571.11	43885.04
571.27	43611.20
571.43	43660.35
571.60	43634.61
571.76	43976.33
571.92	44072.29
572.09	43915.47
572.25	43704.82
572.41	43695.46
572.57	44243.15
572.74	44311.02
572.90	44091.01
573.06	44095.69
573.22	43969.30
573.38	44247.83
573.55	44158.89
573.71	43489.49
573.87	43606.52
574.03	43791.42
574.20	43695.46
574.36	43995.05
574.52	43765.68
574.68	43711.84
574.84	44126.12
575.01	43882.70
575.17	44032.50
575.33	43824.19
575.49	44191.65
575.65	44411.67
575.82	44584.86
575.98	44039.52
576.14	44428.05
576.30	43871.00
576.46	43976.33
576.62	43835.89
576.79	44020.80
576.95	43849.94
577.11	43936.54
577.27	43800.79
577.43	44514.65
577.59	43908.45
577.75	44233.78
577.92	43871.00
578.08	44299.32
578.24	43768.02
578.40	43824.19
578.56	44170.59
578.72	44172.93
578.88	44074.63
579.04	44376.56
579.21	43744.61
579.37	43796.10
579.53	44282.94
579.69	43906.11
579.85	44280.60
580.01	43917.81
580.17	44465.50
580.33	44128.46
580.49	44114.42
580.65	44112.08
580.82	44301.66
580.98	43871.00
581.14	43681.42
581.30	43981.01
581.46	44161.23
581.62	44444.43
581.78	43845.26
581.94	44100.37
582.10	44109.74
582.26	44100.37
582.42	44030.16
582.58	44161.23
582.74	43892.07
582.90	44165.91
583.06	44697.21
583.22	44147.18
583.38	44350.81
583.54	44502.95
583.70	44161.23
583.86	44081.65
584.02	43569.07
584.18	44002.07
584.34	44011.43
584.50	44027.82
584.66	43995.05
584.82	43955.26
584.98	44470.18
585.14	44161.23
585.30	44364.85
585.46	44191.65
585.62	43990.37
585.78	44205.70
585.94	43856.96
586.10	44076.97
586.26	44306.34
586.42	44144.84
586.58	44406.98
586.74	44231.44
586.90	44304.00
587.06	44472.52
587.22	44418.69
587.38	44179.95
587.54	44435.07
587.70	44542.74
587.86	44332.09
588.02	44451.45
588.18	44315.70
588.34	44474.86
588.49	44245.49
588.65	43931.86
588.81	44189.31
588.97	44093.35
589.13	43981.01
589.29	43749.29
589.45	44451.45
589.61	44327.41
589.77	44172.93
589.93	44318.04
590.08	44156.55
590.24	44872.75
590.40	44432.73
590.56	44516.99
590.72	44343.79
590.88	44243.15
591.04	44472.52
591.20	44783.81
591.35	44634.02
591.51	44889.13
591.67	44460.82
591.83	44554.44
591.99	43784.40
592.15	44645.72
592.31	44828.28
592.46	43964.62
592.62	44575.50
592.78	44634.02
592.94	44999.14
593.10	44404.64
593.26	44648.06
593.41	44509.97
593.57	44158.89
593.73	44638.70
593.89	44502.95
594.05	44849.35
594.20	44065.27
594.36	44177.61
594.52	44575.50
594.68	44357.83
594.84	44186.97
594.99	44952.33
595.15	44596.57
595.31	44727.64
595.47	44233.78
595.62	44896.16
595.78	44463.16
595.94	44882.11
596.10	45034.25
596.25	44884.45
596.41	44505.29
596.57	44734.66
596.73	45085.74
596.88	44612.95
597.04	44751.04
597.20	44938.29
597.36	44741.68
597.51	44774.45
597.67	44856.37
597.83	44257.19
597.99	45067.02
598.14	44825.94
598.30	44921.90
598.46	44825.94
598.61	44545.08
598.77	44486.56
598.93	44687.85
599.09	44634.02
599.24	45361.92
599.40	44762.75
599.56	44477.20
599.71	44928.92
599.87	44676.15
600.03	44669.12
600.18	44928.92
600.34	44858.71
600.50	44540.39
600.65	44825.94
600.81	45123.19
600.97	44933.60
601.12	44807.22
601.28	44786.15
601.44	44526.35
601.59	44844.66
601.75	44762.75
601.91	44711.25
602.06	44905.52
602.22	44582.52
602.37	44404.64
602.53	44509.97
602.69	45567.89
602.84	44837.64
603.00	45043.61
603.16	44304.00
603.31	44472.52
603.47	44568.48
603.62	44458.48
603.78	44442.09
603.94	44556.78
604.09	44832.96
604.25	44687.85
604.40	44451.45
604.56	44708.91
604.71	44844.66
604.87	44650.40
605.03	44687.85
605.18	44619.97
605.34	44776.79
605.49	44603.59
605.65	45048.29
605.80	44949.99
605.96	44722.96
606.12	45099.78
606.27	45022.54
606.43	44428.05
606.58	44755.72
606.74	44577.84
606.89	44589.55
607.05	44545.08
607.20	44603.59
607.36	44587.21
607.51	44938.29
607.67	44758.06
607.82	44772.11
607.98	44830.62
608.13	44348.47
608.29	44313.36
608.44	44208.04
608.60	44198.68
608.75	44123.78
608.91	44002.07
609.06	44388.26
609.22	44172.93
609.37	44119.10
609.53	44449.11
609.68	44196.34
609.84	44577.84
609.99	44570.82
610.15	44765.09
610.30	44055.90
610.46	43672.06
610.61	43753.97
610.76	44287.62
610.92	44252.51
611.07	44186.97
611.23	44135.48
611.38	44067.61
611.54	43791.42
611.69	43772.70
611.84	43728.23
612.00	43697.80
612.15	43959.94
612.31	44170.59
612.46	44140.16
612.62	44257.19
612.77	44275.91
612.92	44343.79
613.08	43346.72
613.23	43964.62
613.39	43758.66
613.54	43423.96
613.69	43636.95
613.85	43824.19
614.00	43669.72
614.15	44069.95
614.31	44149.53
614.46	44374.22
614.62	44130.80
614.77	44034.84
614.92	43335.02
615.08	43943.56
615.23	43494.18
615.38	43803.13
615.54	43356.08
615.69	43295.23
615.84	43536.30
616.00	43278.85
616.15	43772.70
616.30	43714.19
616.46	43629.93
616.61	43248.42
616.76	43358.42
616.92	43318.64
617.07	43557.37
617.22	43143.09
617.37	43803.13
617.53	43508.22
617.68	43753.97
617.83	43274.16
617.99	43725.89
618.14	43372.47
618.29	43423.96
618.45	43428.64
618.60	42815.42
618.75	42759.25
618.90	43601.84
619.06	43173.52
619.21	43381.83
619.36	43332.68
619.51	42843.51
619.67	43313.95
619.82	43194.59
619.97	42958.19
620.12	42754.57
620.28	42403.49
620.43	42913.72
620.58	42595.41
620.73	42885.64
620.89	43033.09
621.04	42965.21
621.19	42623.50
621.34	42937.13
621.49	42639.88
621.65	42653.92
621.80	42635.20
621.95	42653.92
622.10	42492.43
622.25	42703.07
622.41	42026.66
622.56	42274.76
622.71	42806.06
622.86	43051.81
623.01	42845.85
623.16	42401.14
623.32	42536.90
623.47	42375.40
623.62	42733.50
623.77	42164.75
623.92	42756.91
624.07	42061.77
624.23	42237.31
624.38	42422.21
624.53	42485.40
624.68	42412.85
624.83	42405.83
624.98	42534.56
625.13	42403.49
625.29	42124.96
625.44	42169.43
625.59	41596.00
625.74	42106.24
625.89	41570.25
626.04	41469.61
626.19	42167.09
626.34	42740.52
626.49	42071.13
626.65	42232.63
626.80	42459.66
626.95	41972.83
627.10	41521.10
627.25	41432.16
627.40	41516.42
627.55	41635.79
627.70	41282.37
627.85	41909.63
628.00	41413.44
628.15	42284.12
628.30	41834.74
628.45	41979.85
628.60	41612.38
628.76	41706.01
628.91	41303.43
629.06	41778.56
629.21	41469.61
629.36	41553.87
629.51	41418.12
629.66	41205.13
629.81	41118.53
629.96	41757.50
630.11	41261.30
630.26	41373.65
630.41	41184.07
630.56	41116.19
630.71	40868.09
630.86	41179.39
631.01	41050.66
631.16	41022.57
631.31	40514.67
631.46	40837.67
631.61	40996.82
631.76	40919.59
631.91	41235.56
632.06	40910.22
632.21	40870.43
632.36	41146.62
632.51	40690.21
632.66	40765.11
632.81	40687.87
632.96	40762.77
633.10	40507.65
633.25	40788.52
633.40	40662.13
633.55	40697.24
633.70	40591.91
633.85	40554.46
634.00	40484.25
634.15	40605.95
634.30	40762.77
634.45	40205.72
634.60	40879.80
634.75	40758.09
634.90	40456.16
635.05	40561.48
635.19	40250.19
635.34	40910.22
635.49	40748.73
635.64	40442.12
635.79	39964.65
635.94	40306.37
636.09	39892.09
636.24	39952.94
636.39	39952.94
636.53	39751.66
636.68	40030.18
636.83	39838.26
636.98	39873.37
637.13	39880.39
637.28	40194.02
637.43	40210.40
637.57	39981.03
637.72	40109.76
637.87	39636.97
638.02	40116.78
638.17	39969.33
638.32	39739.96
638.46	39611.23
638.61	39988.05
638.76	39817.19
638.91	39423.98
639.06	39754.00
639.20	39716.55
639.35	40280.62
639.50	39529.31
639.65	40027.84
639.80	39847.62
639.94	39669.74
640.09	40006.78
640.24	39763.36
640.39	39246.10
640.54	39339.72
640.68	39636.97
640.83	39496.54
640.98	39377.17
641.13	39461.43
641.27	39496.54
641.42	39676.76
641.57	39880.39
641.72	39672.08
641.86	39075.24
642.01	39236.74
642.16	39220.36
642.31	38988.64
642.45	38902.04
642.60	38911.41
642.75	38756.93
642.90	39075.24
643.04	39213.34
643.19	38869.28
643.34	38944.17
643.48	38810.76
643.63	39150.14
643.78	38543.94
643.93	38822.47
644.07	38625.86
644.22	38529.90
644.37	38600.12
644.51	38543.94
644.66	38621.18
644.81	38995.67
644.95	39225.04
645.10	38873.96
645.25	38958.22
645.39	39037.80
645.54	38946.51
645.69	38480.75
645.83	38281.80
645.98	38113.28
646.13	38539.26
646.27	38939.49
646.42	38513.52
646.57	38888.00
646.71	38480.75
646.86	38499.47
647.00	38607.14
647.15	38731.18
647.30	38988.64
647.44	38700.76
647.59	38232.65
647.74	38223.29
647.88	38309.89
648.03	38368.40
648.17	38171.80
648.32	38391.81
648.47	37755.18
648.61	38298.19
648.76	38337.98
648.90	38192.86
649.05	38583.73
649.20	38543.94
649.34	38405.85
649.49	38155.41
649.63	37820.72
649.78	37991.58
649.92	37359.63
650.07	37893.27
650.21	37853.48
650.36	37443.89
650.51	38155.41
650.65	38782.68
650.80	38298.19
650.94	38120.31
651.09	38249.03
651.23	37736.46
651.38	37762.20
651.52	38019.66
651.67	37977.53
651.81	37869.87
651.96	37509.43
652.10	37584.32
652.25	37556.24
652.39	37532.83
652.54	37680.28
652.68	37792.63
652.83	37574.96
652.97	37647.52
653.12	37640.50
653.26	37415.80
653.41	37380.70
653.55	37448.57
653.70	37434.53
653.84	37069.40
653.99	37422.83
654.13	37453.25
654.27	37319.84
654.42	37544.53
654.56	36975.78
654.71	37801.99
654.85	37160.69
655.00	37315.16
655.14	37141.96
655.29	36392.99
655.43	36985.15
655.57	36596.62
655.72	36580.23
655.86	36697.26
656.01	36774.50
656.15	36910.25
656.30	36975.78
656.44	36697.26
656.58	37010.89
656.73	36669.17
656.87	36355.54
657.01	36119.15
657.16	36554.49
657.30	36430.44
657.45	36163.62
657.59	36704.28
657.73	36360.22
657.88	36538.10
658.02	36109.78
658.16	36835.35
658.31	35992.76
658.45	36327.45
658.60	36100.42
658.74	36257.24
658.88	36463.21
659.03	36158.94
659.17	36299.37
659.31	36009.14
659.46	35812.54
659.60	36140.21
659.74	35714.23
659.89	35658.06
660.03	35690.83
660.17	36390.65
660.32	36053.61
660.46	36058.29
660.60	35690.83
660.74	35917.86
660.89	35510.61
661.03	35409.96
661.17	35590.19
661.32	35243.79
661.46	35002.71
661.60	35405.28
661.74	35683.81
661.89	35873.39
662.03	35571.46
662.17	35665.08
662.31	35196.98
662.46	35187.61
662.60	35218.04
662.74	35424.01
662.88	35014.41
663.03	34857.60
663.17	35122.08
663.31	35306.98
663.45	34838.87
663.60	34955.90
663.74	34562.69
663.88	34548.65
664.02	34817.81
664.17	34660.99
664.31	34405.88
664.45	34007.98
664.59	34691.42
664.73	34813.13
664.88	34658.65
665.02	33675.63
665.16	34143.74
665.30	34682.06
665.44	34122.67
665.59	33759.89
665.73	33919.04
665.87	34139.05
666.01	34026.71
666.15	33736.48
666.29	34073.52
666.44	34291.19
666.58	34157.78
666.72	33944.79
666.86	34176.50
667.00	33792.65
667.14	33996.28
667.28	33446.26
667.43	33343.27
667.57	33715.42
667.71	32968.79
667.85	33280.08
667.99	33376.04
668.13	33106.88
668.27	33493.07
668.41	33139.65
668.56	33153.69
668.70	32957.08
668.84	32971.13
668.98	33048.36
669.12	32954.74
669.26	32971.13
669.40	32912.61
669.54	32533.45
669.68	32694.94
669.82	32638.77
669.96	32430.46
670.10	32336.84
670.25	32725.37
670.39	32615.37
670.53	32437.48
670.67	32264.28
670.81	32259.60
670.95	32683.24
671.09	32496.00
671.23	32364.93
671.37	32608.34
671.51	31957.67
671.65	31882.78
671.79	31934.27
671.93	31524.68
672.07	32414.08
672.21	31592.55
672.35	31716.60
672.49	31835.97
672.63	31777.45
672.77	31578.51
672.91	31307.01
673.05	31473.18
673.19	31646.38
673.33	31484.89
673.47	31812.56
673.61	30911.46
673.75	30960.61
673.89	30707.83
674.03	30539.31
674.17	30976.99
674.31	30808.47
674.45	30644.63
674.59	30733.57
674.73	30717.19
674.87	30389.52
675.01	30764.00
675.15	30515.90
675.29	30515.90
675.43	30398.88
675.56	30398.88
675.70	30178.87
675.84	29975.24
675.98	29247.33
676.12	29865.24
676.26	30045.46
676.40	29507.13
676.54	29638.20
676.68	29783.32
676.82	29149.03
676.96	29406.49
677.10	28973.49
677.23	29153.71
677.37	29008.60
677.51	28711.35
677.65	29237.97
677.79	28620.07
677.93	28767.52
678.07	28664.54
678.21	28442.19
678.34	28669.22
678.48	28056.00
678.62	28261.97
678.76	27938.97
678.90	28357.93
679.04	28194.09
679.18	27941.32
679.31	27798.54
679.45	27634.71
679.59	27419.38
679.73	27812.59
679.87	27730.67
680.00	27166.60
680.14	27817.27
680.28	27213.41
680.42	27316.39
680.56	26937.23
680.70	27290.65
680.83	27321.07
680.97	26831.90
681.11	26588.49
681.25	26611.89
681.39	26361.45
681.52	26710.19
681.66	26771.05
681.80	26618.91
681.94	26565.08
682.07	26288.90
682.21	26223.36
682.35	26284.22
682.49	26443.37
682.62	26422.31
682.76	26136.76
682.90	26003.35
683.04	25778.66
683.17	25294.17
683.31	25355.02
683.45	25820.79
683.59	25516.52
683.72	25099.90
683.86	24858.83
684.00	25202.89
684.13	25228.63
684.27	25146.72
684.41	24730.10
684.55	25006.28
684.68	24868.19
684.82	24453.92
684.96	24545.20
685.09	24217.52
685.23	24308.80
685.37	24374.34
685.50	24109.86
685.64	24357.96
685.78	24402.43
685.91	24163.69
686.05	24285.40
686.19	23616.01
686.32	23620.69
686.46	23410.04
686.60	23246.20
686.73	23466.21
686.87	23342.16
687.01	23002.78
687.14	23173.64
687.28	23084.70
687.42	22955.97
687.55	22719.58
687.69	22794.48
687.82	22824.90
687.96	22686.81
688.10	22572.13
688.23	22534.68
688.37	22319.35
688.50	21879.33
688.64	22022.10
688.78	22209.34
688.91	21876.99
689.05	22005.72
689.18	21804.43
689.32	21785.71
689.46	21898.05
689.59	21982.31
689.73	21895.71
689.86	21692.08
690.00	21577.40
690.13	21617.19
690.27	21518.89
690.41	20943.11
690.54	21135.04
690.68	21053.12
690.81	21060.14
690.95	20929.07
691.08	20854.17
691.22	20650.55
691.35	20659.91
691.49	21259.09
691.62	20631.82
691.76	20641.18
691.89	20549.90
692.03	20451.60
692.16	20084.14
692.30	20109.88
692.43	20077.12
692.57	19985.83
692.70	19761.14
692.84	19803.27
692.97	19606.67
693.11	19875.83
693.24	19222.82
693.38	19108.13
693.51	19293.04
693.65	19601.99
693.78	19349.21
693.92	19192.39
694.05	19129.20
694.19	19166.65
694.32	19070.68
694.45	19040.26
694.59	18920.89
694.72	18867.06
694.86	18904.51
694.99	18759.39
695.13	18579.17
695.26	18314.69
695.39	18101.70
695.53	18532.36
695.66	18148.51
695.80	18132.13
695.93	18054.89
696.07	17940.21
696.20	18162.56
696.33	18106.38
696.47	17755.30
696.60	17624.23
696.73	17731.90
696.87	17467.42
697.00	17638.28
697.14	17317.62
697.27	17296.56
697.40	17434.65
697.54	17420.61
697.67	16919.73
697.80	16875.26
697.94	16875.26
698.07	16910.37
698.21	17034.42
698.34	16772.28
698.47	16893.99
698.61	16538.23
698.74	16561.63
698.87	16418.86
699.01	16327.58
699.14	16285.45
699.27	16133.31
699.40	16339.28
699.54	15815.00
699.67	16084.16
699.80	15922.66
699.94	15943.73
700.07	15861.81
700.20	15817.34
700.34	15873.51
700.47	15669.89
700.60	15707.34
700.73	15543.50
700.87	15690.95
701.00	15208.80
701.13	15227.53
701.26	15433.49
701.40	15323.49
701.53	15232.21
701.66	15005.17
701.79	14927.94
701.93	15084.75
702.06	14892.83
702.19	14855.38
702.32	14796.87
702.46	14396.64
702.59	14829.63
702.72	14670.48
702.85	14417.70
702.99	14663.46
703.12	14494.94
703.25	14473.87
703.38	14616.65
703.51	14377.91
703.65	14246.84
703.78	14281.95
703.91	14068.96
704.04	14225.78
704.17	13844.27
704.31	13734.26
704.44	13827.88
704.57	13788.10
704.70	13495.53
704.83	13404.25
704.96	13511.91
705.10	13717.88
705.23	13631.28
>>>>>End Processed Spectral Data<<<<<
