SpectraSuite Data File
++++++++++++++++++++++++++++++++++++
Date: Fri Oct 25 10:47:16 EDT 2013
User: price-jones
Dark Spectrum Present: No
Reference Spectrum Present: No
Number of Sampled Component Spectra: 1
Spectrometers: USB2+H05261
Integration Time (usec): 100000 (USB2+H05261)
Spectra Averaged: 1 (USB2+H05261)
Boxcar Smoothing: 0 (USB2+H05261)
Correct for Electrical Dark: No (USB2+H05261)
Strobe/Lamp Enabled: No (USB2+H05261)
Correct for Detector Non-linearity: No (USB2+H05261)
Correct for Stray Light: No (USB2+H05261)
Number of Pixels in Processed Spectrum: 2048
>>>>>Begin Processed Spectral Data<<<<<
365.73	121.71
365.92	121.71
366.12	121.71
366.32	51.49
366.52	0.00
366.72	39.79
366.91	35.11
367.11	46.81
367.31	0.00
367.51	49.15
367.70	79.58
367.90	0.00
368.10	124.05
368.30	32.77
368.49	56.17
368.69	74.90
368.89	32.77
369.09	4.68
369.28	74.90
369.48	60.85
369.68	91.28
369.87	98.30
370.07	98.30
370.27	149.79
370.47	222.35
370.66	341.72
370.86	430.66
371.06	465.77
371.25	486.83
371.45	409.59
371.65	440.02
371.84	418.96
372.04	491.51
372.24	503.22
372.44	482.15
372.63	477.47
372.83	463.43
373.03	472.79
373.22	526.62
373.42	472.79
373.62	519.60
373.81	489.17
374.01	538.32
374.21	517.26
374.40	543.00
374.60	428.32
374.79	498.53
374.99	531.30
375.19	554.71
375.38	559.39
375.58	582.79
375.78	608.54
375.97	571.09
376.17	638.97
376.37	601.52
376.56	559.39
376.76	596.84
376.95	571.09
377.15	571.09
377.35	543.00
377.54	566.41
377.74	519.60
377.93	629.60
378.13	596.84
378.33	645.99
378.52	587.47
378.72	627.26
378.91	573.43
379.11	582.79
379.31	526.62
379.50	545.34
379.70	631.94
379.89	631.94
380.09	613.22
380.28	629.60
380.48	592.16
380.68	561.73
380.87	638.97
381.07	643.65
381.26	627.26
381.46	552.37
381.65	704.50
381.85	627.26
382.04	631.94
382.24	667.05
382.43	713.86
382.63	606.20
382.83	662.37
383.02	641.31
383.22	765.36
383.41	711.52
383.61	767.70
383.80	793.44
384.00	664.71
384.19	741.95
384.39	809.83
384.58	744.29
384.78	826.21
384.97	695.14
385.17	765.36
385.36	697.48
385.56	763.01
385.75	669.39
385.95	751.31
386.14	706.84
386.34	737.27
386.53	720.88
386.72	835.57
386.92	753.65
387.11	774.72
387.31	798.12
387.50	772.38
387.70	760.67
387.89	798.12
388.09	767.70
388.28	816.85
388.48	833.23
388.67	795.78
388.86	880.04
389.06	854.30
389.25	837.91
389.45	908.13
389.64	819.19
389.84	830.89
390.03	856.64
390.22	919.83
390.42	891.74
390.61	875.36
390.81	819.19
391.00	828.55
391.19	880.04
391.39	929.19
391.58	919.83
391.78	973.66
391.97	954.94
392.16	933.87
392.36	978.34
392.55	973.66
392.75	980.68
392.94	910.47
393.13	985.37
393.33	950.26
393.52	1090.69
393.71	915.15
393.91	964.30
394.10	985.37
394.29	1025.15
394.49	1144.52
394.68	1060.26
394.88	1025.15
395.07	983.02
395.26	1153.88
395.46	1123.46
395.65	1083.67
395.84	1067.28
396.04	1135.16
396.23	1118.78
396.42	1027.50
396.62	1137.50
396.81	1097.71
397.00	1135.16
397.19	1071.97
397.39	1198.35
397.58	1217.08
397.77	1144.52
397.97	1196.01
398.16	1172.61
398.35	1266.23
398.55	1240.48
398.74	1252.19
398.93	1224.10
399.12	1282.61
399.32	1380.92
399.51	1322.40
399.70	1341.13
399.90	1362.19
400.09	1289.64
400.28	1371.55
400.47	1336.45
400.67	1313.04
400.86	1404.32
401.05	1423.05
401.24	1373.89
401.44	1373.89
401.63	1425.39
401.82	1352.83
402.01	1406.66
402.21	1427.73
402.40	1453.47
402.59	1394.96
402.78	1486.24
402.97	1516.67
403.17	1504.96
403.36	1540.07
403.55	1514.33
403.74	1582.20
403.93	1460.49
404.13	1514.33
404.32	1589.22
404.51	1561.14
404.70	1572.84
404.89	1570.50
405.09	1659.44
405.28	1732.00
405.47	1612.63
405.66	1666.46
405.85	1692.21
406.05	1666.46
406.24	1654.76
406.43	1717.95
406.62	1813.92
406.81	1853.70
407.00	1750.72
407.20	1790.51
407.39	1692.21
407.58	1792.85
407.77	1853.70
407.96	1830.30
408.15	1870.09
408.34	1872.43
408.54	1877.11
408.73	1914.56
408.92	1954.35
409.11	1891.15
409.30	1947.33
409.49	1949.67
409.68	1989.46
409.87	2045.63
410.07	2064.35
410.26	2071.37
410.45	2097.12
410.64	1973.07
410.83	2071.37
411.02	2141.59
411.21	2181.38
411.40	2176.70
411.59	2176.70
411.78	2242.23
411.98	2216.49
412.17	2244.57
412.36	2246.91
412.55	2260.96
412.74	2275.00
412.93	2317.13
413.12	2279.68
413.31	2562.89
413.50	2389.69
413.69	2415.43
413.88	2396.71
414.07	2492.67
414.26	2539.48
414.45	2424.80
414.64	2429.48
414.83	2560.55
415.02	2609.70
415.22	2649.49
415.41	2616.72
415.60	2654.17
415.79	2696.30
415.98	2747.79
416.17	2729.06
416.36	2663.53
416.55	2782.90
416.74	2813.32
416.93	2722.04
417.12	2743.11
417.31	2860.13
417.50	2836.73
417.69	2895.24
417.88	2928.01
418.07	2892.90
418.26	2911.63
418.45	2986.52
418.64	2963.12
418.83	2972.48
419.02	2972.48
419.21	3117.59
419.39	3171.43
419.58	3052.06
419.77	3021.63
419.96	3152.70
420.15	3019.29
420.34	3040.36
420.53	3190.15
420.72	3206.53
420.91	3098.87
421.10	3227.60
421.29	3328.24
421.48	3197.17
421.67	3201.85
421.86	3311.86
422.05	3279.09
422.24	3166.74
422.43	3267.39
422.61	3396.12
422.80	3377.39
422.99	3361.01
423.18	3459.31
423.37	3478.04
423.56	3473.36
423.75	3262.71
423.94	3300.16
424.13	3229.94
424.32	3265.05
424.50	3370.37
424.69	3370.37
424.88	3356.33
425.07	3293.13
425.26	3328.24
425.45	3382.07
425.64	3386.76
425.83	3382.07
426.01	3508.46
426.20	3520.17
426.39	3346.97
426.58	3520.17
426.77	3421.86
426.96	3433.57
427.15	3445.27
427.33	3508.46
427.52	3459.31
427.71	3527.19
427.90	3534.21
428.09	3581.02
428.28	3665.28
428.46	3662.94
428.65	3496.76
428.84	3719.11
429.03	3761.24
429.22	3658.26
429.40	3672.30
429.59	3672.30
429.78	3581.02
429.97	3501.44
430.16	3517.83
430.34	3672.30
430.53	3737.84
430.72	3801.03
430.91	3829.12
431.10	3803.37
431.28	3857.20
431.47	3943.80
431.66	3932.10
431.85	3936.78
432.03	4028.06
432.22	3969.55
432.41	3948.48
432.60	4079.55
432.79	4145.09
432.97	4152.11
433.16	4124.02
433.35	3964.87
433.54	4074.87
433.72	4077.21
433.91	4145.09
434.10	4208.28
434.28	4107.64
434.47	4198.92
434.66	4212.96
434.85	4273.82
435.03	4187.22
435.22	4397.87
435.41	4496.17
435.59	4355.74
435.78	4372.12
435.97	4531.28
436.16	4292.54
436.34	4388.50
436.53	4526.60
436.72	4463.40
436.90	4325.31
437.09	4465.74
437.28	4311.27
437.46	4514.89
437.65	4517.23
437.84	4711.50
438.02	4376.80
438.21	4580.43
438.40	4477.44
438.58	4648.30
438.77	4643.62
438.96	4695.11
439.14	4945.55
439.33	4793.42
439.52	4730.22
439.70	4802.78
439.89	4861.29
440.08	4786.40
440.26	4957.25
440.45	5032.15
440.63	5064.92
440.82	5128.11
441.01	5046.20
441.19	5053.22
441.38	5198.33
441.57	5249.82
441.75	5221.74
441.94	5282.59
442.12	5366.85
442.31	5383.23
442.50	5390.25
442.68	5313.02
442.87	5401.96
443.05	5401.96
443.24	5558.77
443.43	5558.77
443.61	5516.64
443.80	5645.37
443.98	5495.58
444.17	5401.96
444.35	5526.00
444.54	5685.16
444.73	5640.69
444.91	5568.13
445.10	5729.63
445.28	5659.42
445.47	5467.49
445.65	5586.86
445.84	5687.50
446.02	5788.14
446.21	5813.89
446.39	5666.44
446.58	5741.33
446.77	5490.90
446.95	5544.73
447.14	5619.63
447.32	5741.33
447.51	5680.48
447.69	5624.31
447.88	5722.61
448.06	5703.89
448.25	5706.23
448.43	5781.12
448.62	5696.86
448.80	5689.84
448.99	5919.21
449.17	5795.17
449.36	5865.38
449.54	6071.35
449.73	6111.14
449.91	6104.12
450.10	5991.77
450.28	6167.31
450.46	6136.88
450.65	5970.71
450.83	6125.18
451.02	6193.06
451.20	6249.23
451.39	6148.59
451.57	6104.12
451.76	6092.41
451.94	6253.91
452.13	6012.84
452.31	6122.84
452.49	5926.24
452.68	6284.34
452.86	6258.59
453.05	6370.94
453.23	6384.98
453.42	6415.41
453.60	6347.53
453.78	6345.19
453.97	6310.08
454.15	6445.84
454.34	6225.82
454.52	6380.30
454.70	6574.56
454.89	6457.54
455.07	6649.46
455.26	6597.97
455.44	6499.67
455.62	6499.67
455.81	6780.53
455.99	6677.55
456.17	6817.98
456.36	6745.42
456.54	6906.92
456.73	6963.09
456.91	7101.19
457.09	7014.59
457.28	6977.14
457.46	6796.92
457.64	6906.92
457.83	6986.50
458.01	6892.88
458.19	7148.00
458.38	6984.16
458.56	7021.61
458.74	7112.89
458.93	7140.97
459.11	7232.26
459.29	7117.57
459.48	7171.40
459.66	7157.36
459.84	7300.13
460.03	7332.90
460.21	7323.54
460.39	7428.86
460.57	7342.26
460.76	7262.68
460.94	7478.01
461.12	7531.84
461.31	7501.42
461.49	7379.71
461.67	7466.31
461.85	7461.63
462.04	7634.83
462.22	8011.65
462.40	7824.41
462.59	7801.01
462.77	7777.60
462.95	7911.01
463.13	7838.45
463.32	7772.92
463.50	7880.58
463.68	7749.51
463.86	7681.64
464.05	7716.75
464.23	7779.94
464.41	7859.52
464.59	7943.78
464.78	7962.50
464.96	7943.78
465.14	7728.45
465.32	8063.15
465.50	7871.22
465.69	7960.16
465.87	8039.74
466.05	8187.19
466.23	8060.80
466.41	8021.02
466.60	8297.20
466.78	8051.44
466.96	8156.77
467.14	7990.59
467.32	8196.56
467.51	8358.05
467.69	7948.46
467.87	8079.53
468.05	8327.63
468.23	8224.64
468.41	8203.58
468.60	8255.07
468.78	8454.02
468.96	8388.48
469.14	8435.29
469.32	8720.84
469.50	8105.28
469.69	8706.79
469.87	8772.33
470.05	8461.04
470.23	8631.90
470.41	8575.72
470.59	8533.59
470.77	8613.17
470.95	8655.30
471.14	8898.72
471.32	8599.13
471.50	8882.33
471.68	8786.37
471.86	8896.38
472.04	8964.25
472.22	9268.52
472.40	8877.65
472.58	8926.80
472.77	9385.55
472.95	9259.16
473.13	9593.86
473.31	9111.71
473.49	9160.86
473.67	9380.87
473.85	9418.32
474.03	9621.94
474.21	9605.56
474.39	9469.81
474.57	9724.93
474.75	9509.60
474.93	9682.80
475.12	9701.52
475.30	9816.21
475.48	9675.77
475.66	9820.89
475.84	9769.40
476.02	9839.61
476.20	10113.45
476.38	10134.52
476.56	10431.77
476.74	10267.93
476.92	10310.06
477.10	10265.59
477.28	10485.60
477.46	10167.29
477.64	10633.05
477.82	10766.46
478.00	11154.99
478.18	11070.73
478.36	10965.41
478.54	11143.29
478.72	10888.17
478.90	11367.98
479.08	11431.18
479.26	11358.62
479.44	11534.16
479.62	11503.73
479.80	11690.98
479.98	11679.27
480.16	12044.40
480.34	12044.40
480.52	12088.87
480.70	12077.16
480.88	12084.19
481.06	12037.38
481.24	12159.08
481.41	12318.24
481.59	12821.45
481.77	12442.29
481.95	12526.55
482.13	12791.03
482.31	12751.24
482.49	12842.52
482.67	13043.81
482.85	13200.62
483.03	13425.31
483.21	13327.01
483.39	13577.45
483.57	13500.21
483.74	13610.22
483.92	13734.26
484.10	13399.57
484.28	13980.02
484.46	14391.95
484.64	14300.67
484.82	14614.30
485.00	14246.84
485.18	14635.37
485.35	14698.56
485.53	14483.24
485.71	14597.92
485.89	15042.62
486.07	14855.38
486.25	14906.87
486.43	15103.48
486.61	15080.07
486.78	15550.52
486.96	15492.01
487.14	15594.99
487.32	15665.21
487.50	15843.09
487.68	15899.26
487.85	16123.95
488.03	16519.50
488.21	16336.94
488.39	16641.21
488.57	16517.16
488.75	16580.36
488.92	16889.31
489.10	17060.16
489.28	17116.34
489.46	17404.22
489.64	17287.20
489.81	17577.42
489.99	17621.89
490.17	18174.26
490.35	17942.55
490.53	17884.03
490.70	18157.88
490.88	18094.68
491.06	18583.85
491.24	18597.90
491.41	18546.40
491.59	18759.39
491.77	18523.00
491.95	18843.65
492.13	19117.50
492.30	19028.56
492.48	19426.45
492.66	19309.42
492.84	19236.86
493.01	19658.16
493.19	19557.52
493.37	19676.88
493.54	19964.77
493.72	20025.62
493.90	19896.89
494.08	20182.44
494.25	20524.16
494.43	20589.69
494.61	20973.54
494.79	20842.47
494.96	20620.12
495.14	20940.77
495.32	21174.83
495.49	20957.16
495.67	21050.78
495.85	21151.42
496.02	21745.92
496.20	21654.64
496.38	21647.61
496.55	21724.85
496.73	22148.49
496.91	21816.13
497.09	22073.59
497.26	22258.49
497.44	22398.93
497.62	22611.92
497.79	22647.02
497.97	22307.65
498.14	22623.62
498.32	22771.07
498.50	23089.38
498.67	22970.02
498.85	23101.09
499.03	22967.68
499.20	23267.27
499.38	23627.71
499.56	23419.40
499.73	23751.76
499.91	23807.93
500.08	23840.70
500.26	23730.69
500.44	23924.96
500.61	23978.79
500.79	23805.59
500.97	24381.36
501.14	24730.10
501.32	24517.11
501.49	24514.77
501.67	24704.35
501.84	24556.90
502.02	24570.94
502.20	24643.50
502.37	25069.48
502.55	24613.07
502.72	24903.30
502.90	25078.84
503.07	25266.08
503.25	25172.46
503.43	25261.40
503.60	25530.56
503.78	25376.09
503.95	25312.89
504.13	25734.19
504.30	25764.62
504.48	25912.07
504.65	25619.50
504.83	25989.31
505.01	26579.12
505.18	26366.13
505.36	26714.87
505.53	26195.28
505.71	26705.51
505.88	26780.41
506.06	26658.70
506.23	26525.29
506.41	26319.32
506.58	27096.38
506.76	27096.38
506.93	27030.85
507.11	26878.71
507.28	26897.44
507.46	26888.07
507.63	27323.41
507.81	27597.26
507.98	27173.62
508.16	27690.88
508.33	27861.74
508.50	27447.46
508.68	27775.14
508.85	28084.09
509.03	28128.56
509.20	27789.18
509.38	27946.00
509.55	28224.52
509.73	28397.72
509.90	28158.99
510.08	28311.12
510.25	28238.56
510.42	28325.16
510.60	28994.56
510.77	28620.07
510.95	28987.53
511.12	29036.69
511.30	28870.51
511.47	29111.58
511.64	28924.34
511.82	29432.24
511.99	29165.42
512.17	29640.54
512.34	29331.59
512.51	29579.69
512.69	29738.85
512.86	29371.38
513.04	29493.09
513.21	29544.58
513.38	30003.33
513.56	29780.98
513.73	29851.19
513.90	29977.58
514.08	29572.67
514.25	30326.32
514.43	30043.12
514.60	29900.34
514.77	30148.44
514.95	30639.95
515.12	30302.92
515.29	30382.49
515.47	30962.95
515.64	30871.67
515.81	30293.55
515.99	31199.34
516.16	31101.04
516.33	31042.53
516.51	31061.25
516.68	30834.22
516.85	30969.97
517.03	31461.48
517.20	31351.48
517.37	31189.98
517.54	31381.90
517.72	31419.35
517.89	31220.41
518.06	31622.98
518.24	31292.96
518.41	31363.18
518.58	31700.22
518.75	31763.41
518.93	31983.42
519.10	32053.64
519.27	32039.59
519.45	32004.49
519.62	32297.05
519.79	32231.52
519.96	32175.34
520.14	32643.45
520.31	32002.14
520.48	32346.20
520.65	32552.17
520.83	32999.21
521.00	32767.50
521.17	33160.71
521.34	33074.11
521.52	32900.91
521.69	33001.55
521.86	33043.68
522.03	33254.33
522.20	33050.70
522.38	33289.44
522.55	33455.62
522.72	33420.51
522.89	33113.90
523.07	33795.00
523.24	33085.81
523.41	33961.17
523.58	33897.98
523.75	33778.61
523.92	34127.35
524.10	33818.40
524.27	34469.07
524.44	34230.33
524.61	34330.98
524.78	34363.75
524.96	34518.22
525.13	34866.96
525.30	34785.04
525.47	34440.98
525.64	34513.54
525.81	34625.89
525.98	34359.06
526.16	34642.27
526.33	34532.26
526.50	35058.88
526.67	34904.41
526.84	35047.18
527.01	34689.08
527.18	35014.41
527.36	34986.33
527.53	34653.97
527.70	35234.42
527.87	35295.28
528.04	35129.10
528.21	35648.70
528.38	35187.61
528.55	35555.08
528.72	35314.00
528.89	35676.79
529.07	35770.41
529.24	35384.22
529.41	35517.63
529.58	35379.54
529.75	35817.22
529.92	35559.76
530.09	35484.86
530.26	36201.07
530.43	36268.94
530.60	35931.90
530.77	35864.03
530.94	36350.86
531.11	36016.16
531.28	35957.65
531.46	35964.67
531.63	36486.61
531.80	36451.50
531.97	36353.20
532.14	36048.93
532.31	36306.39
532.48	36484.27
532.65	36917.27
532.82	36959.40
532.99	37184.09
533.16	36507.68
533.33	36517.04
533.50	37315.16
533.67	37528.15
533.84	36865.78
534.01	36992.17
534.18	37240.26
534.35	37376.01
534.52	37062.38
534.69	37715.39
534.86	37415.80
535.03	37347.93
535.20	37436.87
535.37	37317.50
535.54	38094.56
535.71	37640.50
535.88	37170.05
536.05	37507.08
536.22	37642.84
536.38	37387.72
536.55	37972.85
536.72	38206.90
536.89	37361.97
537.06	37500.06
537.23	37876.89
537.40	37970.51
537.57	38190.52
537.74	38218.61
537.91	38419.89
538.08	37937.74
538.25	37942.42
538.42	38314.57
538.59	38101.58
538.75	37755.18
538.92	38234.99
539.09	38455.00
539.26	38391.81
539.43	38251.38
539.60	38408.19
539.77	38190.52
539.94	38705.44
540.11	38127.33
540.28	38733.53
540.44	38747.57
540.61	38422.23
540.78	38499.47
540.95	38962.90
541.12	38583.73
541.29	38892.68
541.46	38618.84
541.62	38801.40
541.79	38920.77
541.96	38667.99
542.13	39047.16
542.30	39229.72
542.47	38782.68
542.63	39426.32
542.80	39370.15
542.97	39634.63
543.14	40004.44
543.31	39494.20
543.48	39398.24
543.64	40233.81
543.81	39618.25
543.98	39878.05
544.15	39920.18
544.32	39864.00
544.48	40046.57
544.65	40533.40
544.82	40311.05
544.99	39379.51
545.16	39957.63
545.32	39833.58
545.49	40762.77
545.66	40385.94
545.83	40076.99
546.00	40371.90
546.16	40512.33
546.33	40084.01
546.50	39648.68
546.67	40542.76
546.83	40158.91
547.00	40208.06
547.17	40390.62
547.34	40074.65
547.50	40465.52
547.67	40666.81
547.84	40381.26
548.00	41034.27
548.17	41010.87
548.34	40701.92
548.51	41174.70
548.67	41041.29
548.84	40875.12
549.01	40973.42
549.18	40641.06
549.34	40552.12
549.51	41333.86
549.68	41153.64
549.84	41280.03
550.01	41319.82
550.18	40751.07
550.34	40814.26
550.51	41067.04
550.68	41038.95
550.84	41139.60
551.01	41418.12
551.18	41600.68
551.34	41102.15
551.51	41090.44
551.68	41422.80
551.84	41736.43
552.01	41792.61
552.18	41525.78
552.34	41270.67
552.51	41691.96
552.68	41495.36
552.84	42160.07
553.01	42181.13
553.18	41696.64
553.34	41958.78
553.51	40985.12
553.67	41762.18
553.84	41708.35
554.01	41858.14
554.17	41675.58
554.34	41818.35
554.51	41872.18
554.67	42270.08
554.84	42204.54
555.00	42019.64
555.17	41404.08
555.33	41911.97
555.50	42141.35
555.67	41907.29
555.83	42000.91
556.00	42241.99
556.16	42366.04
556.33	42333.27
556.50	42241.99
556.66	42391.78
556.83	42129.64
556.99	42394.12
557.16	42326.25
557.32	42658.60
557.49	42272.42
557.65	42513.49
557.82	42656.26
557.98	42195.18
558.15	42759.25
558.32	42557.96
558.48	42473.70
558.65	42548.60
558.81	42309.86
558.98	42696.05
559.14	42398.80
559.31	42471.36
559.47	42454.98
559.64	42930.11
559.80	43051.81
559.97	42705.41
560.13	42459.66
560.30	42742.86
560.46	42782.65
560.63	42817.76
560.79	42611.79
560.96	42953.51
561.12	43026.07
561.29	42794.36
561.45	42784.99
561.61	42890.32
561.78	42960.53
561.94	43000.32
562.11	42890.32
562.27	42429.23
562.44	43042.45
562.60	43182.88
562.77	43175.86
562.93	42906.70
563.10	42810.74
563.26	43049.47
563.42	43639.29
563.59	42777.97
563.75	43082.24
563.92	43257.78
564.08	43138.41
564.24	43295.23
564.41	43033.09
564.57	43063.52
564.74	43438.00
564.90	43016.71
565.07	43035.43
565.23	43548.01
565.39	43299.91
565.56	43540.99
565.72	43339.70
565.88	43232.04
566.05	43168.84
566.21	42930.11
566.38	43576.09
566.54	43189.91
566.70	43725.89
566.87	43449.70
567.03	43360.76
567.19	44083.99
567.36	43203.95
567.52	43192.25
567.68	43625.25
567.85	43430.98
568.01	43442.68
568.17	43484.81
568.34	43739.93
568.50	43667.37
568.66	43330.34
568.83	43845.26
568.99	43349.06
569.15	43447.36
569.32	43318.64
569.48	43576.09
569.64	43882.70
569.81	43831.21
569.97	43435.66
570.13	43496.52
570.30	43241.40
570.46	43033.09
570.62	43208.63
570.78	43246.08
570.95	42834.14
571.11	43627.59
571.27	43842.92
571.43	43466.09
571.60	43667.37
571.76	43531.62
571.92	43419.28
572.09	43456.73
572.25	43817.17
572.41	43435.66
572.57	43662.69
572.74	44177.61
572.90	43868.66
573.06	43627.59
573.22	43845.26
573.38	43531.62
573.55	43311.61
573.71	43686.10
573.87	43791.42
574.03	43611.20
574.20	43583.12
574.36	43643.97
574.52	43983.35
574.68	43746.95
574.84	43976.33
575.01	43840.57
575.17	43618.22
575.33	44009.09
575.49	43398.21
575.65	43868.66
575.82	44151.87
575.98	43985.69
576.14	44217.40
576.30	43793.76
576.46	43650.99
576.62	43803.13
576.79	43587.80
576.95	43494.18
577.11	43620.56
577.27	44142.50
577.43	43945.90
577.59	43915.47
577.75	43885.04
577.92	43569.07
578.08	43590.14
578.24	43824.19
578.40	43995.05
578.56	43997.39
578.72	43878.02
578.88	44315.70
579.04	44112.08
579.21	43959.94
579.37	43653.33
579.53	44109.74
579.69	43920.15
579.85	43693.12
580.01	44037.18
580.17	44023.14
580.33	44535.71
580.49	44002.07
580.65	43936.54
580.82	44081.65
580.98	44196.34
581.14	43667.37
581.30	44392.94
581.46	44411.67
581.62	43821.85
581.78	43929.51
581.94	44320.38
582.10	44526.35
582.26	44133.14
582.42	43700.14
582.58	44004.41
582.74	44163.57
582.90	44011.43
583.06	44179.95
583.22	43990.37
583.38	44575.50
583.54	44203.36
583.70	44233.78
583.86	43856.96
584.02	43838.23
584.18	44013.77
584.34	43927.17
584.50	44645.72
584.66	44079.31
584.82	43917.81
584.98	44088.67
585.14	44116.76
585.30	43709.50
585.46	44175.27
585.62	43889.73
585.78	44292.30
585.94	43999.73
586.10	44231.44
586.26	43805.47
586.42	44493.58
586.58	44037.18
586.74	44011.43
586.90	44140.16
587.06	43938.88
587.22	43868.66
587.38	44182.29
587.54	44367.20
587.70	44425.71
587.86	44168.25
588.02	43873.34
588.18	44481.88
588.34	44313.36
588.49	43847.60
588.65	43983.35
588.81	44224.42
588.97	43828.87
589.13	43751.63
589.29	44034.84
589.45	44116.76
589.61	44509.97
589.77	44273.57
589.93	44641.04
590.08	44264.21
590.24	44645.72
590.40	44362.51
590.56	44900.84
590.72	43929.51
590.88	44210.38
591.04	44058.24
591.20	44582.52
591.35	44095.69
591.51	44882.11
591.67	44830.62
591.83	44708.91
591.99	44339.11
592.15	43992.71
592.31	44196.34
592.46	44341.45
592.62	44194.00
592.78	44587.21
592.94	44699.55
593.10	44332.09
593.26	44706.57
593.41	44502.95
593.57	44196.34
593.73	44278.25
593.89	45003.82
594.05	44315.70
594.20	44341.45
594.36	44299.32
594.52	44783.81
594.68	44114.42
594.84	44236.12
594.99	44786.15
595.15	44559.12
595.31	44839.98
595.47	44444.43
595.62	44453.79
595.78	44245.49
595.94	44554.44
596.10	44961.69
596.25	44617.63
596.41	44690.19
596.57	44435.07
596.73	44671.46
596.88	44397.62
597.04	44481.88
597.20	44783.81
597.36	44608.27
597.51	45017.86
597.67	44561.46
597.83	44697.21
597.99	45106.80
598.14	44629.34
598.30	44018.46
598.46	44765.09
598.61	44257.19
598.77	44201.02
598.93	44561.46
599.09	44559.12
599.24	45067.02
599.40	44610.61
599.56	45017.86
599.71	44751.04
599.87	44601.25
600.03	44739.34
600.18	44903.18
600.34	44713.59
600.50	44814.24
600.65	44694.87
600.81	44868.07
600.97	44900.84
601.12	45134.89
601.28	44975.73
601.44	44601.25
601.59	44683.17
601.75	44449.11
601.91	44734.66
602.06	44437.41
602.22	44559.12
602.37	44739.34
602.53	44425.71
602.69	44947.65
602.84	44512.31
603.00	44430.39
603.16	44601.25
603.31	44392.94
603.47	44601.25
603.62	44268.89
603.78	44669.12
603.94	44275.91
604.09	44463.16
604.25	44851.69
604.40	44837.64
604.56	44924.24
604.71	44851.69
604.87	44477.20
605.03	44760.40
605.18	44273.57
605.34	44727.64
605.49	44292.30
605.65	44481.88
605.80	44495.92
605.96	44329.75
606.12	44629.34
606.27	44734.66
606.43	44528.69
606.58	44533.37
606.74	44343.79
606.89	44666.78
607.05	44332.09
607.20	44516.99
607.36	44233.78
607.51	44650.40
607.67	44467.84
607.82	44339.11
607.98	44381.24
608.13	44364.85
608.29	44182.29
608.44	44041.86
608.60	44121.44
608.75	43927.17
608.91	44067.61
609.06	44409.32
609.22	44683.17
609.37	44470.18
609.53	43711.84
609.68	44217.40
609.84	44381.24
609.99	44311.02
610.15	44083.99
610.30	44425.71
610.46	43744.61
610.61	43772.70
610.76	44257.19
610.92	43648.65
611.07	43913.13
611.23	43737.59
611.38	43903.77
611.54	43957.60
611.69	43950.58
611.84	44065.27
612.00	43796.10
612.15	43693.12
612.31	43882.70
612.46	43950.58
612.62	43927.17
612.77	43482.47
612.92	43744.61
613.08	43903.77
613.23	43824.19
613.39	43838.23
613.54	43370.13
613.69	43807.81
613.85	43903.77
614.00	43821.85
614.15	44219.74
614.31	43536.30
614.46	44130.80
614.62	44027.82
614.77	43796.10
614.92	43803.13
615.08	43370.13
615.23	43428.64
615.38	43597.16
615.54	43253.10
615.69	43236.72
615.84	43585.46
616.00	43370.13
616.15	43400.55
616.30	43433.32
616.46	43016.71
616.61	43138.41
616.76	43655.67
616.92	43117.35
617.07	43466.09
617.22	42841.17
617.37	42794.36
617.53	43044.79
617.68	43243.74
617.83	43065.86
617.99	43445.02
618.14	43585.46
618.29	43243.74
618.45	42911.38
618.60	43021.39
618.75	43222.67
618.90	43082.24
619.06	43058.84
619.21	43367.79
619.36	42829.46
619.51	43098.62
619.67	42792.01
619.82	42850.53
619.97	43119.69
620.12	42770.95
620.28	42674.99
620.43	42504.13
620.58	42796.70
620.73	42712.44
620.89	42377.74
621.04	43335.02
621.19	42564.98
621.34	43075.22
621.49	42494.77
621.65	42333.27
621.80	42817.76
621.95	42092.19
622.10	42534.56
622.25	42609.45
622.41	42263.05
622.56	41926.02
622.71	42869.25
622.86	42494.77
623.01	42724.14
623.16	42586.05
623.32	42494.77
623.47	42899.68
623.62	42588.39
623.77	42120.28
623.92	42344.97
624.07	42319.23
624.23	42408.17
624.38	42054.75
624.53	42171.77
624.68	42045.38
624.83	42122.62
624.98	42300.50
625.13	41769.20
625.29	41827.71
625.44	42052.41
625.59	41949.42
625.74	41563.23
625.89	41909.63
626.04	41830.05
626.19	42064.11
626.34	41918.99
626.49	41619.41
626.65	42054.75
626.80	41865.16
626.95	41862.82
627.10	41687.28
627.25	41488.34
627.40	41563.23
627.55	41258.96
627.70	41256.62
627.85	41471.95
628.00	41511.74
628.15	42340.29
628.30	41165.34
628.45	41497.70
628.60	41383.01
628.76	41387.69
628.91	41441.53
629.06	41434.50
629.21	41289.39
629.36	41326.84
629.51	40950.01
629.66	41146.62
629.81	40767.45
629.96	41167.68
630.11	41125.55
630.26	41296.41
630.41	41605.36
630.56	40989.80
630.71	41301.09
630.86	41221.52
631.01	41322.16
631.16	41184.07
631.31	40718.30
631.46	40428.07
631.61	40767.45
631.76	41024.91
631.91	41111.51
632.06	40886.82
632.21	40811.92
632.36	41008.53
632.51	40896.18
632.66	41010.87
632.81	40264.24
632.96	40605.95
633.10	40479.57
633.25	40430.41
633.40	40746.39
633.55	40730.00
633.70	40512.33
633.85	40730.00
634.00	40959.38
634.15	40648.08
634.30	40250.19
634.45	40545.10
634.60	40177.64
634.75	40479.57
634.90	40322.75
635.05	40844.69
635.19	40559.14
635.34	40517.01
635.49	40617.66
635.64	40254.87
635.79	40151.89
635.94	40294.66
636.09	40495.95
636.24	39910.82
636.39	39658.04
636.53	39849.96
636.68	39597.18
636.83	39775.06
636.98	40264.24
637.13	39873.37
637.28	40364.88
637.43	40519.35
637.57	39566.76
637.72	40011.46
637.87	40112.10
638.02	39952.94
638.17	40095.72
638.32	39758.68
638.46	39445.05
638.61	39482.50
638.76	39014.39
638.91	39800.81
639.06	39456.75
639.20	39466.11
639.35	39580.80
639.50	39845.28
639.65	40072.31
639.80	39772.72
639.94	39688.46
640.09	39421.64
640.24	39189.93
640.39	39541.01
640.54	39456.75
640.68	39388.88
640.83	39290.57
640.98	39218.02
641.13	38998.01
641.27	39681.44
641.42	39145.46
641.57	39344.41
641.72	39440.37
641.86	39049.50
642.01	39325.68
642.16	39295.25
642.31	38541.60
642.45	38759.27
642.60	39019.07
642.75	39246.10
642.90	39264.83
643.04	38518.20
643.19	38836.51
643.34	39349.09
643.48	38960.56
643.63	38759.27
643.78	38370.74
643.93	38660.97
644.07	38677.35
644.22	39033.11
644.37	38630.54
644.51	38586.07
644.66	38511.17
644.81	39173.55
644.95	38906.73
645.10	38539.26
645.25	39194.61
645.39	38958.22
645.54	39007.37
645.69	38801.40
645.83	38014.98
645.98	38525.22
646.13	38796.72
646.27	38843.53
646.42	37860.51
646.57	38703.10
646.71	38611.82
646.86	38789.70
647.00	38565.01
647.15	38342.66
647.30	38272.44
647.44	38712.46
647.59	38005.62
647.74	38087.54
647.88	37783.27
648.03	38258.40
648.17	37867.53
648.32	38036.05
648.47	38291.16
648.61	37787.95
648.76	38497.13
648.90	38391.81
649.05	38110.94
649.20	38136.69
649.34	38256.06
649.49	38295.85
649.63	38061.79
649.78	37649.86
649.92	37717.73
650.07	38628.20
650.21	37904.98
650.36	37710.71
650.51	37652.20
650.65	38061.79
650.80	38101.58
650.94	38384.79
651.09	38054.77
651.23	37570.28
651.38	37801.99
651.52	37390.06
651.67	37305.80
651.81	37422.83
651.96	37179.41
652.10	37937.74
652.25	37628.79
652.39	36961.74
652.54	37530.49
652.68	37539.85
652.83	37553.90
652.97	37488.36
653.12	37525.81
653.26	37401.76
653.41	37481.34
653.55	37376.01
653.70	37361.97
653.84	37448.57
653.99	37811.35
654.13	37535.17
654.27	37504.74
654.42	37794.97
654.56	37181.75
654.71	37125.58
654.85	37064.72
655.00	36788.54
655.14	36744.07
655.29	36751.09
655.43	36804.92
655.57	37247.29
655.72	36348.52
655.86	36905.57
656.01	37111.53
656.15	36893.86
656.30	37006.21
656.44	36739.39
656.58	36563.85
656.73	36524.06
656.87	36023.19
657.01	36451.50
657.16	36694.92
657.30	36133.19
657.45	36746.41
657.59	36308.73
657.73	36238.51
657.88	36627.04
658.02	36397.67
658.16	36409.37
658.31	36463.21
658.45	36760.45
658.60	36177.66
658.74	36271.28
658.88	36318.09
659.03	35831.26
659.17	35974.03
659.31	36030.21
659.46	36025.53
659.60	35959.99
659.74	35676.79
659.89	35496.56
660.03	35716.58
660.17	35957.65
660.32	35604.23
660.46	36107.44
660.60	36023.19
660.74	35494.22
660.89	35835.94
661.03	35573.80
661.17	35571.46
661.32	35323.36
661.46	35548.06
661.60	35133.78
661.74	35377.20
661.89	35157.19
662.03	35824.24
662.17	35147.82
662.31	35159.53
662.46	35501.25
662.60	35236.77
662.74	35332.73
662.88	35145.48
663.03	35335.07
663.17	35014.41
663.31	34682.06
663.45	34897.39
663.60	34951.22
663.74	34768.66
663.88	34763.98
664.02	34572.05
664.17	34684.40
664.31	34342.68
664.45	34618.86
664.59	34452.69
664.73	34761.64
664.88	34909.09
665.02	34033.73
665.16	34342.68
665.30	34087.56
665.44	34382.47
665.59	33661.58
665.73	34031.39
665.87	33605.41
666.01	34127.35
666.15	33996.28
666.29	34323.96
666.44	34022.03
666.58	33701.37
666.72	33640.52
666.86	34010.32
667.00	33965.85
667.14	33701.37
667.28	33233.27
667.43	33242.63
667.57	33640.52
667.71	33319.87
667.85	33074.11
667.99	33773.93
668.13	33160.71
668.27	32996.87
668.41	33369.02
668.56	32877.51
668.70	33230.93
668.84	32795.59
668.98	33036.66
669.12	32929.00
669.26	32868.14
669.40	32837.72
669.54	32528.77
669.68	32744.09
669.82	32355.57
669.96	32526.42
670.10	32535.79
670.25	32741.75
670.39	32587.28
670.53	32421.10
670.67	32378.97
670.81	32346.20
670.95	32149.60
671.09	32259.60
671.23	32643.45
671.37	32416.42
671.51	31960.02
671.65	32182.37
671.79	31702.56
671.93	31564.46
672.07	32175.34
672.21	32013.85
672.35	31538.72
672.49	31690.85
672.63	31763.41
672.77	31250.83
672.91	31969.38
673.05	30986.35
673.19	31094.02
673.33	31061.25
673.47	31021.46
673.61	30738.26
673.75	31103.38
673.89	30754.64
674.03	30452.71
674.17	30845.92
674.31	30892.73
674.45	30731.23
674.59	30754.64
674.73	30855.28
674.87	30817.83
675.01	30705.49
675.15	30682.08
675.29	30794.43
675.43	30607.19
675.56	30087.59
675.70	30127.38
675.84	30031.41
675.98	29532.88
676.12	29486.07
676.26	29673.31
676.40	29612.46
676.54	29589.05
676.68	29706.08
676.82	29163.08
676.96	29343.30
677.10	29240.31
677.23	29179.46
677.37	29179.46
677.51	29053.07
677.65	29205.20
677.79	28463.25
677.93	28615.39
678.07	28720.71
678.21	28458.57
678.34	28615.39
678.48	28549.85
678.62	28549.85
678.76	28367.29
678.90	28009.19
679.04	28287.71
679.18	28119.20
679.31	27714.28
679.45	27491.93
679.59	27477.89
679.73	27590.24
679.87	27477.89
680.00	27630.02
680.14	27129.15
680.28	27489.59
680.42	26932.54
680.56	27365.54
680.70	26991.06
680.83	27051.91
680.97	26876.37
681.11	26927.86
681.25	26593.17
681.39	26621.25
681.52	26342.73
681.66	26686.79
681.80	26455.08
681.94	26572.10
682.07	26487.84
682.21	26352.09
682.35	25984.63
682.49	26148.46
682.62	26038.46
682.76	25886.32
682.90	25717.81
683.04	25853.56
683.17	25443.96
683.31	25355.02
683.45	25661.63
683.59	25748.23
683.72	25142.03
683.86	25123.31
684.00	24938.41
684.13	24966.49
684.27	25020.33
684.41	24966.49
684.55	24875.21
684.68	25010.96
684.82	24767.55
684.96	24542.86
685.09	24624.78
685.23	24252.63
685.37	24547.54
685.50	24133.26
685.64	24341.57
685.78	23920.28
685.91	24077.09
686.05	24002.19
686.19	23473.23
686.32	23838.36
686.46	23559.83
686.60	23365.57
686.73	23126.83
686.87	23356.21
687.01	23346.84
687.14	22888.10
687.28	23019.17
687.42	23028.53
687.55	22778.09
687.69	22827.24
687.82	22616.60
687.96	22902.14
688.10	22698.52
688.23	22593.19
688.37	22199.98
688.50	21865.28
688.64	22001.04
688.78	22146.15
688.91	22136.79
689.05	22132.11
689.18	21752.94
689.32	21673.36
689.46	21741.24
689.59	21764.64
689.73	21710.81
689.86	21722.51
690.00	21420.58
690.13	21607.83
690.27	21530.59
690.41	21523.57
690.54	20989.92
690.68	21113.97
690.81	21010.99
690.95	20879.92
691.08	20896.30
691.22	20617.78
691.35	20746.51
691.49	20812.04
691.62	20772.25
691.76	20643.52
691.89	20559.27
692.03	20182.44
692.16	20084.14
692.30	19735.40
692.43	20074.77
692.57	19646.46
692.70	19873.49
692.84	19632.41
692.97	19751.78
693.11	19377.30
693.24	19484.96
693.38	19555.18
693.51	19414.74
693.65	19456.87
693.78	19428.79
693.92	19129.20
694.05	19133.88
694.19	19105.79
694.32	18883.44
694.45	19028.56
694.59	19068.34
694.72	18635.35
694.86	18728.97
694.99	18609.60
695.13	18712.58
695.26	18480.87
695.39	18263.20
695.53	18120.43
695.66	18239.79
695.80	17984.68
695.93	18185.96
696.07	17944.89
696.20	17790.41
696.33	17699.13
696.47	17539.97
696.60	17776.37
696.73	17619.55
696.87	17589.13
697.00	17455.72
697.14	17539.97
697.27	17696.79
697.40	17451.03
697.54	17455.72
697.67	17474.44
697.80	17097.61
697.94	16877.60
698.07	17139.74
698.21	16950.16
698.34	16891.65
698.47	16786.32
698.61	16657.59
698.74	16582.70
698.87	16652.91
699.01	16252.68
699.14	16402.47
699.27	16276.09
699.40	15929.69
699.54	16126.29
699.67	15882.88
699.80	15983.52
699.94	15983.52
700.07	15920.32
700.20	15913.30
700.34	15903.94
700.47	15576.27
700.60	15487.32
700.73	15822.02
700.87	15398.38
701.00	15578.61
701.13	15590.31
701.26	15384.34
701.40	14941.98
701.53	14986.45
701.66	14953.68
701.79	14923.26
701.93	14759.42
702.06	14890.49
702.19	14806.23
702.32	14939.64
702.46	14569.83
702.59	14506.64
702.72	14611.96
702.85	14640.05
702.99	14705.59
703.12	14759.42
703.25	14534.73
703.38	14171.94
703.51	14160.24
703.65	13980.02
703.78	14054.92
703.91	14029.17
704.04	14169.60
704.17	13860.65
704.31	13610.22
704.44	13621.92
704.57	13572.77
704.70	13593.83
704.83	13446.38
704.96	13738.94
705.10	13764.69
705.23	13741.29
>>>>>End Processed Spectral Data<<<<<
