SpectraSuite Data File
++++++++++++++++++++++++++++++++++++
Date: Fri Oct 25 11:33:19 EDT 2013
User: price-jones
Dark Spectrum Present: No
Reference Spectrum Present: No
Number of Sampled Component Spectra: 1
Spectrometers: USB2+H05261
Integration Time (usec): 100000 (USB2+H05261)
Spectra Averaged: 1 (USB2+H05261)
Boxcar Smoothing: 0 (USB2+H05261)
Correct for Electrical Dark: No (USB2+H05261)
Strobe/Lamp Enabled: No (USB2+H05261)
Correct for Detector Non-linearity: No (USB2+H05261)
Correct for Stray Light: No (USB2+H05261)
Number of Pixels in Processed Spectrum: 2048
>>>>>Begin Processed Spectral Data<<<<<
365.73	245.76
365.92	245.76
366.12	245.76
366.32	175.54
366.52	191.92
366.72	234.05
366.91	135.75
367.11	156.82
367.31	196.60
367.51	180.22
367.70	133.41
367.90	217.67
368.10	173.20
368.30	280.86
368.49	163.84
368.69	255.12
368.89	217.67
369.09	91.28
369.28	271.50
369.48	259.80
369.68	205.97
369.87	318.31
370.07	217.67
370.27	271.50
370.47	344.06
370.66	404.91
370.86	507.90
371.06	526.62
371.25	538.32
371.45	498.53
371.65	512.58
371.84	613.22
372.04	456.40
372.24	580.45
372.44	526.62
372.63	608.54
372.83	634.29
373.03	660.03
373.22	564.07
373.42	601.52
373.62	568.75
373.81	737.27
374.01	660.03
374.21	681.10
374.40	613.22
374.60	636.63
374.79	608.54
374.99	589.82
375.19	678.76
375.38	683.44
375.58	638.97
375.78	669.39
375.97	725.57
376.17	725.57
376.37	636.63
376.56	781.74
376.76	650.67
376.95	741.95
377.15	751.31
377.35	643.65
377.54	716.20
377.74	692.80
377.93	702.16
378.13	674.07
378.33	671.73
378.52	744.29
378.72	660.03
378.91	678.76
379.11	753.65
379.31	678.76
379.50	683.44
379.70	699.82
379.89	767.70
380.09	727.91
380.28	636.63
380.48	758.33
380.68	800.46
380.87	730.25
381.07	692.80
381.26	847.27
381.46	809.83
381.65	814.51
381.85	781.74
382.04	805.14
382.24	802.80
382.43	760.67
382.63	847.27
382.83	781.74
383.02	760.67
383.22	821.53
383.41	833.23
383.61	770.04
383.80	863.66
384.00	837.91
384.19	791.10
384.39	777.06
384.58	919.83
384.78	910.47
384.97	800.46
385.17	919.83
385.36	812.17
385.56	917.49
385.75	870.68
385.95	875.36
386.14	833.23
386.34	875.36
386.53	889.40
386.72	837.91
386.92	919.83
387.11	849.61
387.31	873.02
387.50	882.38
387.70	903.45
387.89	943.24
388.09	858.98
388.28	847.27
388.48	992.39
388.67	884.72
388.86	919.83
389.06	926.85
389.25	947.92
389.45	987.71
389.64	933.87
389.84	1029.84
390.03	957.28
390.22	889.40
390.42	1008.77
390.61	997.07
390.81	894.08
391.00	994.73
391.19	1011.11
391.39	1018.13
391.58	992.39
391.78	968.98
391.97	1043.88
392.16	999.41
392.36	1083.67
392.55	950.26
392.75	1086.01
392.94	1050.90
393.13	1060.26
393.33	1114.10
393.52	1102.39
393.71	1123.46
393.91	1062.60
394.10	1064.94
394.29	1118.78
394.49	1090.69
394.68	1095.37
394.88	1107.07
395.07	1151.54
395.26	1081.33
395.46	1116.44
395.65	1219.42
395.84	1050.90
396.04	1233.46
396.23	1123.46
396.42	1205.38
396.62	1254.53
396.81	1259.21
397.00	1142.18
397.19	1235.80
397.39	1263.89
397.58	1214.74
397.77	1254.53
397.97	1235.80
398.16	1263.89
398.35	1338.79
398.55	1289.64
398.74	1256.87
398.93	1371.55
399.12	1369.21
399.32	1394.96
399.51	1317.72
399.70	1320.06
399.90	1268.57
400.09	1387.94
400.28	1500.28
400.47	1420.71
400.67	1437.09
400.86	1376.24
401.05	1406.66
401.24	1427.73
401.44	1434.75
401.63	1540.07
401.82	1509.65
402.01	1476.88
402.21	1453.47
402.40	1404.32
402.59	1495.60
402.78	1504.96
402.97	1563.48
403.17	1565.82
403.36	1554.12
403.55	1589.22
403.74	1614.97
403.93	1451.13
404.13	1600.93
404.32	1547.09
404.51	1533.05
404.70	1584.54
404.89	1657.10
405.09	1633.69
405.28	1666.46
405.47	1668.80
405.66	1722.63
405.85	1727.32
406.05	1687.53
406.24	1776.47
406.43	1818.60
406.62	1856.04
406.81	1881.79
407.00	1703.91
407.20	1790.51
407.39	1849.02
407.58	1776.47
407.77	1827.96
407.96	1930.94
408.15	1909.88
408.34	1792.85
408.54	1970.73
408.73	1928.60
408.92	1963.71
409.11	1984.77
409.30	1977.75
409.49	1940.30
409.68	2008.18
409.87	2029.24
410.07	2010.52
410.26	1994.14
410.45	2108.82
410.64	2176.70
410.83	2176.70
411.02	2195.42
411.21	2249.25
411.40	2111.16
411.59	2162.66
411.78	2139.25
411.98	2279.68
412.17	2251.60
412.36	2239.89
412.55	2363.94
412.74	2387.35
412.93	2282.02
413.12	2420.11
413.31	2406.07
413.50	2487.99
413.69	2413.09
413.88	2583.95
414.07	2427.14
414.26	2497.35
414.45	2579.27
414.64	2586.29
414.83	2731.41
415.02	2630.76
415.22	2670.55
415.41	2612.04
415.60	2771.19
415.79	2733.75
415.98	2686.94
416.17	2710.34
416.36	2722.04
416.55	2827.37
416.74	2731.41
416.93	2860.13
417.12	2857.79
417.31	2862.48
417.50	2930.35
417.69	2906.95
417.88	2860.13
418.07	2946.73
418.26	3056.74
418.45	2963.12
418.64	3218.24
418.83	3096.53
419.02	3012.27
419.21	3117.59
419.39	3337.60
419.58	3084.83
419.77	2960.78
419.96	3129.30
420.15	3122.27
420.34	3239.30
420.53	3049.72
420.72	3300.16
420.91	3201.85
421.10	3293.13
421.29	3260.37
421.48	3260.37
421.67	3375.05
421.86	3353.99
422.05	3386.76
422.24	3255.69
422.43	3288.45
422.61	3389.10
422.80	3410.16
422.99	3351.65
423.18	3459.31
423.37	3442.93
423.56	3449.95
423.75	3489.74
423.94	3344.63
424.13	3211.22
424.32	3337.60
424.50	3405.48
424.69	3543.57
424.88	3435.91
425.07	3382.07
425.26	3515.48
425.45	3559.95
425.64	3342.28
425.83	3442.93
426.01	3660.60
426.20	3480.38
426.39	3475.70
426.58	3545.91
426.77	3461.65
426.96	3557.61
427.15	3613.79
427.33	3627.83
427.52	3564.64
427.71	3562.30
427.90	3627.83
428.09	3604.42
428.28	3712.09
428.46	3719.11
428.65	3700.39
428.84	3822.09
429.03	3801.03
429.22	3618.47
429.40	3751.88
429.59	3843.16
429.78	3836.14
429.97	3552.93
430.16	3880.61
430.34	3779.97
430.53	3906.35
430.72	3960.19
430.91	3974.23
431.10	3873.59
431.28	4007.00
431.47	3925.08
431.66	3915.72
431.85	3936.78
432.03	4114.66
432.22	4229.35
432.41	4067.85
432.60	4159.13
432.79	4072.53
432.97	4147.43
433.16	4184.88
433.35	4152.11
433.54	4217.65
433.72	4159.13
433.91	4311.27
434.10	4250.41
434.28	4205.94
434.47	4369.78
434.66	4259.78
434.85	4404.89
435.03	4386.16
435.22	4372.12
435.41	4278.50
435.59	4454.04
435.78	4514.89
435.97	4617.88
436.16	4423.61
436.34	4388.50
436.53	4496.17
436.72	4533.62
436.90	4500.85
437.09	4528.94
437.28	4596.81
437.46	4582.77
437.65	4535.96
437.84	4683.41
438.02	4599.15
438.21	4685.75
438.40	4671.71
438.58	4730.22
438.77	4671.71
438.96	4727.88
439.14	4887.04
439.33	4887.04
439.52	4943.21
439.70	4770.01
439.89	4994.70
440.08	5071.94
440.26	4975.98
440.45	5071.94
440.63	5184.29
440.82	5224.08
441.01	5102.37
441.19	5118.75
441.38	5137.48
441.57	5268.55
441.75	5352.81
441.94	5507.28
442.12	5540.05
442.31	5476.85
442.50	5392.59
442.68	5537.71
442.87	5493.24
443.05	5507.28
443.24	5708.57
443.43	5490.90
443.61	5657.07
443.80	5631.33
443.98	5598.56
444.17	5350.46
444.35	5682.82
444.54	5593.88
444.73	5652.39
444.91	5504.94
445.10	5659.42
445.28	5654.73
445.47	5673.46
445.65	5720.27
445.84	5792.83
446.02	5818.57
446.21	5769.42
446.39	5703.89
446.58	5715.59
446.77	5825.59
446.95	5673.46
447.14	5767.08
447.32	5734.31
447.51	5790.49
447.69	5682.82
447.88	5856.02
448.06	5776.44
448.25	5916.87
448.43	5891.13
448.62	5914.53
448.80	5975.39
448.99	5949.64
449.17	5935.60
449.36	6022.20
449.54	6073.69
449.73	6298.38
449.91	6249.23
450.10	6092.41
450.28	6230.51
450.46	6167.31
450.65	6244.55
450.83	6143.91
451.02	6132.20
451.20	6190.72
451.39	6179.01
451.57	6218.80
451.76	6085.39
451.94	6033.90
452.13	6424.77
452.31	6366.26
452.49	6256.25
452.68	6537.12
452.86	6380.30
453.05	6347.53
453.23	6553.50
453.42	6406.05
453.60	6368.60
453.78	6377.96
453.97	6345.19
454.15	6546.48
454.34	6448.18
454.52	6588.61
454.70	6450.52
454.89	6616.69
455.07	6717.34
455.26	6817.98
455.44	6794.58
455.62	6825.00
455.81	6738.40
455.99	6782.87
456.17	6932.67
456.36	6726.70
456.54	6736.06
456.73	7089.48
456.91	7021.61
457.09	7185.44
457.28	7328.22
457.46	7082.46
457.64	7185.44
457.83	7269.70
458.01	7075.44
458.19	7246.30
458.38	7204.17
458.56	7407.80
458.74	7248.64
458.93	7274.38
459.11	7337.58
459.29	7262.68
459.48	7281.41
459.66	7290.77
459.84	7442.90
460.03	7386.73
460.21	7644.19
460.39	7325.88
460.57	7475.67
460.76	7564.61
460.94	7569.29
461.12	7581.00
461.31	7562.27
461.49	7609.08
461.67	7356.30
461.85	7595.04
462.04	7536.52
462.22	7882.92
462.40	7836.11
462.59	7948.46
462.77	7925.05
462.95	7822.07
463.13	7836.11
463.32	7964.84
463.50	7850.16
463.68	7934.42
463.86	8016.33
464.05	7941.44
464.23	7936.76
464.41	7946.12
464.59	7852.50
464.78	8133.36
464.96	7995.27
465.14	7978.89
465.32	8030.38
465.50	8287.84
465.69	8098.25
465.87	8271.45
466.05	8149.75
466.23	8369.76
466.41	8159.11
466.60	8402.52
466.78	8262.09
466.96	8238.69
467.14	8402.52
467.32	8475.08
467.51	8589.77
467.69	8161.45
467.87	8346.35
468.05	8659.98
468.23	8411.89
468.41	8477.42
468.60	8533.59
468.78	8526.57
468.96	8376.78
469.14	8814.46
469.32	8849.57
469.50	8355.71
469.69	8744.24
469.87	8849.57
470.05	8858.93
470.23	8774.67
470.41	9001.70
470.59	9001.70
470.77	8964.25
470.95	8868.29
471.14	9123.41
471.32	8858.93
471.50	9177.24
471.68	9165.54
471.86	9151.49
472.04	9280.22
472.22	9490.87
472.40	9167.88
472.58	9355.12
472.77	9357.46
472.95	9605.56
473.13	9722.59
473.31	9427.68
473.49	9460.45
473.67	9577.47
473.85	9514.28
474.03	9820.89
474.21	9643.01
474.39	9778.76
474.57	9750.67
474.75	9867.70
474.93	10033.88
475.12	9900.47
475.30	10113.45
475.48	10066.64
475.66	10258.57
475.84	10178.99
476.02	10289.00
476.20	10246.87
476.38	10586.24
476.56	10726.68
476.74	10565.18
476.92	10487.94
477.10	10560.50
477.28	10721.99
477.46	10848.38
477.64	10792.21
477.82	10930.30
478.00	11356.28
478.18	11262.66
478.36	11335.21
478.54	11496.71
478.72	11527.14
478.90	11569.27
479.08	11524.80
479.26	11559.91
479.44	12095.89
479.62	11751.83
479.80	11976.52
479.98	12081.85
480.16	12510.16
480.34	12238.66
480.52	12449.31
480.70	12355.69
480.88	12472.71
481.06	12383.77
481.24	12545.27
481.41	12884.65
481.59	12898.69
481.77	12882.31
481.95	12975.93
482.13	13329.35
482.31	13036.78
482.49	13633.62
482.67	13207.64
482.85	13540.00
483.03	13755.33
483.21	13785.76
483.39	14012.79
483.57	13811.50
483.74	13909.80
483.92	14284.29
484.10	14071.30
484.28	14349.82
484.46	14424.72
484.64	14946.66
484.82	14546.43
485.00	14633.03
485.18	15110.50
485.35	15342.21
485.53	15035.60
485.71	15129.22
485.89	15494.35
486.07	15503.71
486.25	15480.30
486.43	15728.40
486.61	15939.05
486.78	16205.87
486.96	15871.17
487.14	16418.86
487.32	15985.86
487.50	16681.00
487.68	16456.31
487.85	16659.93
488.03	16975.91
488.21	16987.61
488.39	17018.04
488.57	17186.55
488.75	17490.82
488.92	17486.14
489.10	17720.20
489.28	17694.45
489.46	17823.18
489.64	17905.10
489.81	18448.10
489.99	18286.61
490.17	18195.32
490.35	18588.53
490.53	18448.10
490.70	18883.44
490.88	18483.21
491.06	18934.93
491.24	19161.97
491.41	19569.22
491.59	19405.38
491.77	19164.31
491.95	19728.38
492.13	19583.26
492.30	19932.00
492.48	19697.95
492.66	20114.56
492.84	20271.38
493.01	20451.60
493.19	20428.20
493.37	20233.93
493.54	20697.36
493.72	20776.94
493.90	20636.50
494.08	21078.86
494.25	21139.72
494.43	21298.88
494.61	21359.73
494.79	21216.96
494.96	21439.31
495.14	21869.97
495.32	21919.12
495.49	21694.43
495.67	21979.97
495.85	22317.01
496.02	22188.28
496.20	22604.89
496.38	22464.46
496.55	22469.14
496.73	22764.05
496.91	22635.32
497.09	23054.28
497.26	22766.39
497.44	22750.01
497.62	23255.56
497.79	23662.82
497.97	23508.34
498.14	23686.22
498.32	23871.12
498.50	23875.80
498.67	24304.12
498.85	23941.34
499.03	24093.47
499.20	24210.50
499.38	24065.39
499.56	24577.97
499.73	24568.60
499.91	24999.26
500.08	25144.38
500.26	24631.80
500.44	24863.51
500.61	25099.90
500.79	24774.57
500.97	25020.33
501.14	25804.41
501.32	25542.27
501.49	25619.50
501.67	25621.84
501.84	25951.86
502.02	25553.97
502.20	26022.08
502.37	26314.64
502.55	25907.39
502.72	25907.39
502.90	26160.17
503.07	25989.31
503.25	26560.40
503.43	26389.54
503.60	26445.71
503.78	26618.91
503.95	26960.63
504.13	27068.30
504.30	27164.26
504.48	26815.52
504.65	27302.35
504.83	27442.78
505.01	27297.67
505.18	27339.80
505.36	27587.89
505.53	27662.79
505.71	27297.67
505.88	27747.05
506.06	27452.14
506.23	27578.53
506.41	27917.91
506.58	28093.45
506.76	27964.72
506.93	28004.51
507.11	27964.72
507.28	28364.95
507.46	28304.10
507.63	28587.30
507.81	28741.78
507.98	28414.10
508.16	28559.22
508.33	29076.48
508.50	29139.67
508.68	29237.97
508.85	29214.57
509.03	29343.30
509.20	29589.05
509.38	29582.03
509.55	29450.96
509.73	29565.65
509.90	29626.50
510.08	30066.52
510.25	29518.84
510.42	29942.47
510.60	30169.51
510.77	30422.28
510.95	30656.34
511.12	30148.44
511.30	30029.07
511.47	30415.26
511.64	30457.39
511.82	30487.82
511.99	30717.19
512.17	30925.50
512.34	30866.98
512.51	31262.54
512.69	31234.45
512.86	31021.46
513.04	31299.98
513.21	31400.63
513.38	31669.79
513.56	31321.05
513.73	31674.47
513.90	31601.91
514.08	31447.44
514.25	31758.73
514.43	32044.27
514.60	31957.67
514.77	31690.85
514.95	32428.12
515.12	31838.31
515.29	32261.94
515.47	32336.84
515.64	32247.90
515.81	32488.98
515.99	32488.98
516.16	32690.26
516.33	32840.06
516.51	32879.85
516.68	32512.38
516.85	32919.63
517.03	33053.05
517.20	33230.93
517.37	32947.72
517.54	33008.58
517.72	33151.35
517.89	33259.01
518.06	33324.55
518.24	33811.38
518.41	33305.82
518.58	33298.80
518.75	33188.80
518.93	33457.96
519.10	33879.25
519.27	33956.49
519.45	34167.14
519.62	34125.01
519.79	33954.15
519.96	34314.59
520.14	34253.74
520.31	33923.72
520.48	34120.33
520.65	34340.34
520.83	34576.73
521.00	34581.42
521.17	34515.88
521.34	34345.02
521.52	35129.10
521.69	35061.22
521.86	34902.07
522.03	35442.73
522.20	34953.56
522.38	35026.12
522.55	35480.18
522.72	35409.96
522.89	35597.21
523.07	35765.73
523.24	35482.52
523.41	35447.41
523.58	35667.42
523.75	35538.69
523.92	35941.27
524.10	36100.42
524.27	36088.72
524.44	35903.82
524.61	35899.14
524.78	36353.20
524.96	36547.47
525.13	36416.40
525.30	36573.21
525.47	36189.36
525.64	36308.73
525.81	36800.24
525.98	36774.50
526.16	36470.23
526.33	36755.77
526.50	37153.66
526.67	36870.46
526.84	36935.99
527.01	37134.94
527.18	36797.90
527.36	37041.32
527.53	37242.60
527.70	37411.12
527.87	37876.89
528.04	37476.66
528.21	37551.56
528.38	37565.60
528.55	37263.67
528.72	37624.11
528.89	37750.50
529.07	37439.21
529.24	37720.07
529.41	38029.02
529.58	38099.24
529.75	37830.08
529.92	38043.07
530.09	37921.36
530.26	38543.94
530.43	37811.35
530.60	37628.79
530.77	38501.81
530.94	37656.88
531.11	38272.44
531.28	38675.01
531.46	37935.40
531.63	38380.10
531.80	38555.64
531.97	39026.09
532.14	38773.31
532.31	38433.94
532.48	38979.28
532.65	38768.63
532.82	38630.54
532.99	39431.01
533.16	38492.45
533.33	39199.29
533.50	39037.80
533.67	38883.32
533.84	39225.04
534.01	39079.92
534.18	39028.43
534.35	39550.37
534.52	39559.73
534.69	39367.81
534.86	39559.73
535.03	39477.82
535.20	39651.02
535.37	39508.24
535.54	39882.73
535.71	40105.08
535.88	40247.85
536.05	39845.28
536.22	40114.44
536.38	40229.13
536.55	39992.73
536.72	40079.33
536.89	40048.91
537.06	40444.46
537.23	40561.48
537.40	40013.80
537.57	40055.93
537.74	40271.26
537.91	40645.74
538.08	40495.95
538.25	40229.13
538.42	40921.93
538.59	40758.09
538.75	40517.01
538.92	40685.53
539.09	41027.25
539.26	40828.30
539.43	40961.72
539.60	40818.94
539.77	41287.05
539.94	41205.13
540.11	40980.44
540.28	40725.32
540.44	41303.43
540.61	41120.87
540.78	41336.20
540.95	41034.27
541.12	41258.96
541.29	41013.21
541.46	41628.77
541.62	41418.12
541.79	41823.03
541.96	41352.58
542.13	41401.74
542.30	41759.84
542.47	41572.60
542.63	41963.46
542.80	41741.11
542.97	42021.98
543.14	42408.17
543.31	41998.57
543.48	42014.96
543.64	42553.28
543.81	42520.51
543.98	42305.18
544.15	42447.96
544.32	42593.07
544.48	42707.76
544.65	42312.20
544.82	43028.41
544.99	42045.38
545.16	42916.06
545.32	42300.50
545.49	42995.64
545.66	42787.33
545.83	42703.07
546.00	43122.03
546.16	43150.12
546.33	43072.88
546.50	43103.31
546.67	43302.25
546.83	43166.50
547.00	42873.93
547.17	42906.70
547.34	43138.41
547.50	43482.47
547.67	43381.83
547.84	43269.48
548.00	43770.36
548.17	43716.53
548.34	43793.76
548.51	43739.93
548.67	43185.22
548.84	43601.84
549.01	43393.53
549.18	43636.95
549.34	43800.79
549.51	44009.09
549.68	43990.37
549.84	44074.63
550.01	43908.45
550.18	43601.84
550.34	43910.79
550.51	44027.82
550.68	43782.06
550.84	43723.55
551.01	44147.18
551.18	43915.47
551.34	43915.47
551.51	44378.90
551.68	44327.41
551.84	44032.50
552.01	43775.04
552.18	44236.12
552.34	44102.71
552.51	44261.87
552.68	44231.44
552.84	44659.76
553.01	44601.25
553.18	44292.30
553.34	44762.75
553.51	44486.56
553.67	44809.56
553.84	44849.35
554.01	44905.52
554.17	44720.62
554.34	44914.88
554.51	44765.09
554.67	45102.12
554.84	44861.05
555.00	45036.59
555.17	44896.16
555.33	45052.97
555.50	45088.08
555.67	44807.22
555.83	45118.51
556.00	45488.31
556.16	45476.61
556.33	45495.33
556.50	44924.24
556.66	45095.10
556.83	44701.89
556.99	45352.56
557.16	45516.40
557.32	45743.43
557.49	45329.16
557.65	45141.91
557.82	45076.38
557.98	45359.58
558.15	45787.90
558.32	45811.31
558.48	45331.50
558.65	45773.86
558.81	45492.99
558.98	45916.63
559.14	45048.29
559.31	45385.33
559.47	45696.62
559.64	45738.75
559.80	45539.80
559.97	45406.39
560.13	45727.05
560.30	46298.14
560.46	45813.65
560.63	46230.26
560.79	46138.98
560.96	45874.50
561.12	45949.40
561.29	46251.33
561.45	46272.39
561.61	46188.13
561.78	46169.41
561.94	46216.22
562.11	45925.99
562.27	46052.38
562.44	46279.41
562.60	46143.66
562.77	46169.41
562.93	46368.35
563.10	46586.02
563.26	46293.46
563.42	46454.95
563.59	46096.85
563.75	46183.45
563.92	46307.50
564.08	46305.16
564.24	45961.10
564.41	46377.72
564.57	46461.97
564.74	46555.60
564.90	45834.71
565.07	46450.27
565.23	46712.41
565.39	46190.47
565.56	46539.21
565.72	46696.03
565.88	46904.34
566.05	46742.84
566.21	46972.21
566.38	46263.03
566.54	46499.42
566.70	46962.85
566.87	47117.32
567.03	46614.11
567.19	46801.35
567.36	46553.26
567.52	46967.53
567.68	46995.62
567.85	47030.72
568.01	46775.61
568.17	46902.00
568.34	46775.61
568.50	46831.78
568.66	46995.62
568.83	46890.29
568.99	46911.36
569.15	47248.39
569.32	46848.16
569.48	46646.88
569.64	47388.83
569.81	47051.79
569.97	47103.28
570.13	46925.40
570.30	46681.98
570.46	47122.01
570.62	46733.48
570.78	47271.80
570.95	46887.95
571.11	47234.35
571.27	47168.82
571.43	47114.98
571.60	47129.03
571.76	46831.78
571.92	47222.65
572.09	47004.98
572.25	46712.41
572.41	46740.50
572.57	47107.96
572.74	47547.98
572.90	46691.35
573.06	47407.55
573.22	47510.53
573.38	47023.70
573.55	47309.25
573.71	47555.00
573.87	47372.44
574.03	47026.04
574.20	47674.37
574.36	47442.66
574.52	47674.37
574.68	47398.19
574.84	47538.62
575.01	47199.24
575.17	47349.04
575.33	47201.58
575.49	46873.91
575.65	47587.77
575.82	47136.05
575.98	47241.37
576.14	47531.60
576.30	47566.71
576.46	47466.06
576.62	47342.02
576.79	47508.19
576.95	47150.09
577.11	47122.01
577.27	47657.99
577.43	47299.89
577.59	47192.22
577.75	47629.90
577.92	46916.04
578.08	47796.08
578.24	47358.40
578.40	47393.51
578.56	47489.47
578.72	47360.74
578.88	47421.59
579.04	47569.05
579.21	47547.98
579.37	47323.29
579.53	47578.41
579.69	47356.06
579.85	47433.30
580.01	47606.50
580.17	47239.03
580.33	47817.14
580.49	47821.83
580.65	47573.73
580.82	47477.77
580.98	47695.44
581.14	47388.83
581.30	47323.29
581.46	46946.47
581.62	47365.42
581.78	47461.38
581.94	47636.92
582.10	47662.67
582.26	47550.32
582.42	47564.37
582.58	47697.78
582.74	47569.05
582.90	47650.97
583.06	47648.63
583.22	47878.00
583.38	47683.73
583.54	47966.94
583.70	47583.09
583.86	47601.82
584.02	47786.72
584.18	48044.18
584.34	47983.32
584.50	47751.61
584.66	47990.34
584.82	47459.04
584.98	47929.49
585.14	47838.21
585.30	47468.40
585.46	47599.47
585.62	47702.46
585.78	47419.25
585.94	47295.21
586.10	47409.89
586.26	47281.16
586.42	47519.90
586.58	47812.46
586.74	47810.12
586.90	47611.18
587.06	47767.99
587.22	47777.36
587.38	47489.47
587.54	47756.29
587.70	47997.37
587.86	47985.66
588.02	47723.52
588.18	47749.27
588.34	47791.40
588.49	47676.71
588.65	47447.34
588.81	47709.48
588.97	48479.52
589.13	47594.79
589.29	47957.58
589.45	47931.83
589.61	48011.41
589.77	48203.33
589.93	47908.43
590.08	48247.80
590.24	48521.65
590.40	48612.93
590.56	48479.52
590.72	48413.98
590.88	47760.97
591.04	48196.31
591.20	48416.32
591.35	48268.87
591.51	48633.99
591.67	48062.90
591.83	48453.77
591.99	48294.61
592.15	48545.05
592.31	48432.71
592.46	48107.37
592.62	47936.51
592.78	48481.86
592.94	48437.39
593.10	48767.40
593.26	48254.82
593.41	48252.48
593.57	48229.08
593.73	48378.87
593.89	48484.20
594.05	48861.02
594.20	48477.18
594.36	48685.48
594.52	48584.84
594.68	48413.98
594.84	48177.59
594.99	48573.14
595.15	48271.21
595.31	48444.41
595.47	48271.21
595.62	48802.51
595.78	48404.62
595.94	48898.47
596.10	48292.27
596.25	48203.33
596.41	48467.81
596.57	48156.52
596.73	48727.61
596.88	48498.24
597.04	48465.47
597.20	48769.74
597.36	48327.38
597.51	48680.80
597.67	48460.79
597.83	48250.14
597.99	48432.71
598.14	48662.08
598.30	48495.90
598.46	48486.54
598.61	48708.89
598.77	48449.09
598.93	48706.55
599.09	48629.31
599.24	48751.02
599.40	48542.71
599.56	48589.52
599.71	48456.11
599.87	49467.22
600.03	48921.88
600.18	48591.86
600.34	48435.05
600.50	48788.47
600.65	48568.46
600.81	48704.21
600.97	49130.19
601.12	48736.98
601.28	48844.64
601.44	48488.88
601.59	48753.36
601.75	48184.61
601.91	48739.32
602.06	48643.35
602.22	48746.34
602.37	48577.82
602.53	48863.36
602.69	48622.29
602.84	48245.46
603.00	48591.86
603.16	48638.67
603.31	48542.71
603.47	48870.39
603.62	48844.64
603.78	49219.13
603.94	48437.39
604.09	48854.00
604.25	48484.20
604.40	48217.38
604.56	48652.72
604.71	48839.96
604.87	48053.54
605.03	48399.94
605.18	48699.53
605.34	48306.32
605.49	48423.34
605.65	48402.28
605.80	48505.26
605.96	48470.15
606.12	48734.63
606.27	48725.27
606.43	48463.13
606.58	48755.70
606.74	48406.96
606.89	48430.36
607.05	48435.05
607.20	48793.15
607.36	48615.27
607.51	48692.50
607.67	47868.64
607.82	48355.47
607.98	48453.77
608.13	48390.58
608.29	48526.33
608.44	48278.23
608.60	48233.76
608.75	48643.35
608.91	47885.02
609.06	47971.62
609.22	48519.31
609.37	48058.22
609.53	48694.85
609.68	48542.71
609.84	48430.36
609.99	48533.35
610.15	48470.15
610.30	48296.95
610.46	48032.47
610.61	48603.56
610.76	48554.41
610.92	48362.49
611.07	48105.03
611.23	48109.71
611.38	48362.49
611.54	48495.90
611.69	47990.34
611.84	48449.09
612.00	48048.86
612.15	48135.46
612.31	48266.53
612.46	47828.85
612.62	47917.79
612.77	48058.22
612.92	48215.04
613.08	48154.18
613.23	48102.69
613.39	47941.19
613.54	47955.24
613.69	48105.03
613.85	48114.39
614.00	47454.36
614.15	48474.84
614.31	48053.54
614.46	47980.98
614.62	47428.62
614.77	47931.83
614.92	47716.50
615.08	48081.63
615.23	47852.25
615.38	48252.48
615.54	47973.96
615.69	47732.89
615.84	47948.21
616.00	48095.67
616.15	48062.90
616.30	48065.24
616.46	47772.67
616.61	47889.70
616.76	47903.74
616.92	47555.00
617.07	47592.45
617.22	47831.19
617.37	47735.23
617.53	47358.40
617.68	47690.76
617.83	47447.34
617.99	48296.95
618.14	47917.79
618.29	47409.89
618.45	47262.44
618.60	47351.38
618.75	47262.44
618.90	46974.55
619.06	47414.57
619.21	47374.78
619.36	47655.65
619.51	47423.93
619.67	47288.18
619.82	47360.74
619.97	47224.99
620.12	47398.19
620.28	47461.38
620.43	47262.44
620.58	47510.53
620.73	47721.18
620.89	47606.50
621.04	47016.68
621.19	47547.98
621.34	47358.40
621.49	47042.43
621.65	46611.77
621.80	47547.98
621.95	47423.93
622.10	47320.95
622.25	47042.43
622.41	47313.93
622.56	46649.22
622.71	47222.65
622.86	47229.67
623.01	47147.75
623.16	46920.72
623.32	47044.77
623.47	46890.29
623.62	47009.66
623.77	47077.54
623.92	47185.20
624.07	47012.00
624.23	46740.50
624.38	47110.30
624.53	46595.38
624.68	46227.92
624.83	46564.96
624.98	46902.00
625.13	46419.84
625.29	46918.38
625.44	46866.89
625.59	46459.63
625.74	46649.22
625.89	46436.23
626.04	46281.75
626.19	46827.10
626.34	46660.92
626.49	46209.20
626.65	46267.71
626.80	46564.96
626.95	46403.46
627.10	45993.87
627.25	46464.32
627.40	46440.91
627.55	46361.33
627.70	46073.45
627.85	46810.71
628.00	46555.60
628.15	46342.61
628.30	45930.67
628.45	45881.52
628.60	45961.10
628.76	46270.05
628.91	45869.82
629.06	45387.67
629.21	45879.18
629.36	45937.69
629.51	45951.74
629.66	46099.19
629.81	46028.98
629.96	45958.76
630.11	45986.85
630.26	45315.11
630.41	46036.00
630.56	45916.63
630.71	45741.09
630.86	45890.88
631.01	45539.80
631.16	45364.26
631.31	45911.95
631.46	45235.53
631.61	45827.69
631.76	45743.43
631.91	45565.55
632.06	45607.68
632.21	45750.45
632.36	45897.91
632.51	45272.98
632.66	45682.58
632.81	45607.68
632.96	45481.29
633.10	45177.02
633.25	45331.50
633.40	45553.85
633.55	45457.88
633.70	45315.11
633.85	44912.54
634.00	45277.66
634.15	45291.71
634.30	45624.06
634.45	44809.56
634.60	45591.30
634.75	45155.96
634.90	45155.96
635.05	45406.39
635.19	45031.91
635.34	44994.46
635.49	45144.25
635.64	45258.94
635.79	45081.06
635.94	45113.83
636.09	45485.97
636.24	44835.30
636.39	45069.36
636.53	44914.88
636.68	45074.04
636.83	44238.47
636.98	44334.43
637.13	44369.54
637.28	44177.61
637.43	45057.65
637.57	44872.75
637.72	44528.69
637.87	44615.29
638.02	44751.04
638.17	44626.99
638.32	44729.98
638.46	44133.14
638.61	44357.83
638.76	44341.45
638.91	44512.31
639.06	44332.09
639.20	43957.60
639.35	44191.65
639.50	43997.39
639.65	44301.66
639.80	44802.53
639.94	44671.46
640.09	44463.16
640.24	44617.63
640.39	44023.14
640.54	43782.06
640.68	44088.67
640.83	44343.79
640.98	44416.35
641.13	43943.56
641.27	44397.62
641.42	44135.48
641.57	44172.93
641.72	44233.78
641.86	44076.97
642.01	43791.42
642.16	44280.60
642.31	43585.46
642.45	44343.79
642.60	43545.67
642.75	43683.76
642.90	44215.06
643.04	43690.78
643.19	43737.59
643.34	43452.05
643.48	43199.27
643.63	43643.97
643.78	43716.53
643.93	43835.89
644.07	43931.86
644.22	43849.94
644.37	43253.10
644.51	43723.55
644.66	43552.69
644.81	43585.46
644.95	43665.03
645.10	43557.37
645.25	43217.99
645.39	43496.52
645.54	43225.01
645.69	43063.52
645.83	43199.27
645.98	43047.13
646.13	43068.20
646.27	43091.60
646.42	42834.14
646.57	43192.25
646.71	43438.00
646.86	43157.14
647.00	43269.48
647.15	43044.79
647.30	42990.96
647.44	42925.42
647.59	42944.15
647.74	43093.94
647.88	43105.65
648.03	43328.00
648.17	43405.23
648.32	42979.26
648.47	43704.82
648.61	42852.87
648.76	42604.77
648.90	42745.20
649.05	42930.11
649.20	42951.17
649.34	42471.36
649.49	42682.01
649.63	43143.09
649.78	42920.74
649.92	42712.44
650.07	43438.00
650.21	43262.46
650.36	42637.54
650.51	42817.76
650.65	42937.13
650.80	42581.37
650.94	42499.45
651.09	42532.22
651.23	42396.46
651.38	42593.07
651.52	42354.33
651.67	42141.35
651.81	42286.46
651.96	42106.24
652.10	41811.33
652.25	41869.84
652.39	42157.73
652.54	42122.62
652.68	42157.73
652.83	42279.44
652.97	42213.90
653.12	42127.30
653.26	42202.20
653.41	42101.56
653.55	42220.92
653.70	42160.07
653.84	42026.66
653.99	42770.95
654.13	41954.10
654.27	41846.44
654.42	42321.57
654.56	41820.69
654.71	41853.46
654.85	42096.88
655.00	41855.80
655.14	42330.93
655.29	41998.57
655.43	42326.25
655.57	41801.97
655.72	41509.40
655.86	41766.86
656.01	41408.76
656.15	41493.02
656.30	41312.80
656.44	41420.46
656.58	41762.18
656.73	42246.67
656.87	41067.04
657.01	41436.84
657.16	41570.25
657.30	41577.28
657.45	41801.97
657.59	40985.12
657.73	41186.41
657.88	41158.32
658.02	41544.51
658.16	41518.76
658.31	40865.75
658.45	41277.69
658.60	40889.16
658.74	41085.76
658.88	41113.85
659.03	41268.33
659.17	40877.46
659.31	40451.48
659.46	40678.51
659.60	41202.79
659.74	40589.57
659.89	40095.72
660.03	40481.91
660.17	40680.85
660.32	40348.50
660.46	40458.50
660.60	40149.55
660.74	40147.21
660.89	40409.35
661.03	40182.32
661.17	39784.43
661.32	40095.72
661.46	39751.66
661.60	40081.67
661.74	39906.13
661.89	39861.66
662.03	40112.10
662.17	39859.32
662.31	40053.59
662.46	39679.10
662.60	39653.36
662.74	39667.40
662.88	39304.62
663.03	39229.72
663.17	39328.02
663.31	39103.33
663.45	39714.21
663.60	39672.08
663.74	39519.95
663.88	39098.65
664.02	39344.41
664.17	39328.02
664.31	39009.71
664.45	38871.62
664.59	39433.35
664.73	39000.35
664.88	39321.00
665.02	38696.08
665.16	38843.53
665.30	38801.40
665.44	39009.71
665.59	38642.24
665.73	38539.26
665.87	38066.47
666.01	38611.82
666.15	38616.50
666.29	38373.08
666.44	38773.31
666.58	38361.38
666.72	38092.22
666.86	38141.37
667.00	37563.26
667.14	37968.17
667.28	37556.24
667.43	37958.81
667.57	37984.55
667.71	38382.45
667.85	38279.46
667.99	37467.30
668.13	37525.81
668.27	37446.23
668.41	37146.64
668.56	36996.85
668.70	36706.62
668.84	36737.05
668.98	37425.17
669.12	37205.16
669.26	36928.97
669.40	37364.31
669.54	37574.96
669.68	36823.65
669.82	36613.00
669.96	36622.36
670.10	36589.59
670.25	36467.89
670.39	36730.03
670.53	36353.20
670.67	36252.56
670.81	37289.42
670.95	36694.92
671.09	36023.19
671.23	36058.29
671.37	36357.88
671.51	35995.10
671.65	35906.16
671.79	35812.54
671.93	36004.46
672.07	35908.50
672.21	36006.80
672.35	35304.64
672.49	35559.76
672.63	35747.00
672.77	35496.56
672.91	35831.26
673.05	35772.75
673.19	35082.29
673.33	35108.04
673.47	34927.81
673.61	34522.90
673.75	34789.72
673.89	34925.47
674.03	34651.63
674.17	34829.51
674.31	34518.22
674.45	34220.97
674.59	34323.96
674.73	34178.84
674.87	33876.91
675.01	33699.03
675.15	34148.42
675.29	33661.58
675.43	33507.11
675.56	34436.30
675.70	33895.64
675.84	33392.42
675.98	32449.19
676.12	33532.86
676.26	33706.05
676.40	33352.63
676.54	33249.65
676.68	32893.89
676.82	32561.53
676.96	33071.77
677.10	33118.58
677.23	32664.52
677.37	32926.66
677.51	32793.25
677.65	32528.77
677.79	32701.96
677.93	32854.10
678.07	32657.49
678.21	32240.88
678.34	31672.13
678.48	31644.04
678.62	31613.62
678.76	31924.91
678.90	31929.59
679.04	31632.34
679.18	31744.69
679.31	31363.18
679.45	31314.03
679.59	31026.14
679.73	31180.62
679.87	30637.61
680.00	30895.07
680.14	31082.31
680.28	30834.22
680.42	30747.62
680.56	30551.01
680.70	30529.95
680.83	30120.35
680.97	30340.36
681.11	30506.54
681.25	29481.39
681.39	29752.89
681.52	29635.86
681.66	29692.04
681.80	29359.68
681.94	28847.10
682.07	28879.87
682.21	28856.46
682.35	29046.05
682.49	28978.17
682.62	29064.77
682.76	29069.45
682.90	28697.31
683.04	28807.31
683.17	28563.90
683.31	28329.84
683.45	28238.56
683.59	28072.39
683.72	28086.43
683.86	28084.09
684.00	28156.64
684.13	28109.83
684.27	27152.55
684.41	27704.92
684.55	27583.21
684.68	27077.66
684.82	27138.51
684.96	27590.24
685.09	27229.79
685.23	27150.21
685.37	27803.22
685.50	27402.99
685.64	27271.92
685.78	26625.93
685.91	26787.43
686.05	26333.37
686.19	26045.48
686.32	26544.02
686.46	26155.49
686.60	25605.46
686.73	25813.77
686.87	25778.66
687.01	25921.43
687.14	25724.83
687.28	25752.91
687.42	25659.29
687.55	25373.75
687.69	25607.80
687.82	24971.18
687.96	25326.94
688.10	25228.63
688.23	25392.47
688.37	24989.90
688.50	25467.37
688.64	25088.20
688.78	24510.09
688.91	24844.79
689.05	24474.98
689.18	24428.17
689.32	24276.04
689.46	24353.27
689.59	23908.57
689.73	24400.08
689.86	24367.32
690.00	24105.18
690.13	23828.99
690.27	23737.71
690.41	23779.84
690.54	23396.00
690.68	23220.45
690.81	23410.04
690.95	23007.47
691.08	22869.37
691.22	22951.29
691.35	22871.72
691.49	23192.37
691.62	23068.32
691.76	22602.55
691.89	22237.43
692.03	22141.47
692.16	22202.32
692.30	22319.35
692.43	22429.35
692.57	21720.17
692.70	21493.14
692.84	21633.57
692.97	21455.69
693.11	21425.26
693.24	21193.55
693.38	21441.65
693.51	21186.53
693.65	21135.04
693.78	21076.52
693.92	20931.41
694.05	20706.72
694.19	20865.88
694.32	20898.64
694.45	20664.59
694.59	20641.18
694.72	20931.41
694.86	20287.76
694.99	20250.32
695.13	20189.46
695.26	19859.45
695.39	19765.82
695.53	19777.53
695.66	20058.39
695.80	19868.81
695.93	19992.86
696.07	19597.31
696.20	19154.94
696.33	19466.24
696.47	19211.12
696.60	19316.44
696.73	19288.35
696.87	19063.66
697.00	19316.44
697.14	18892.80
697.27	18925.57
697.40	18775.78
697.54	18743.01
697.67	18719.60
697.80	18633.00
697.94	18363.84
698.07	18368.52
698.21	18171.92
698.34	18141.49
698.47	18097.02
698.61	17825.52
698.74	17738.92
698.87	17692.11
699.01	17425.29
699.14	17535.29
699.27	17584.44
699.40	17432.31
699.54	17582.10
699.67	17160.81
699.80	17188.89
699.94	17139.74
700.07	17149.11
700.20	16791.00
700.34	16903.35
700.47	16823.77
700.60	16837.81
700.73	16741.85
700.87	16603.76
701.00	16479.71
701.13	16641.21
701.26	16479.71
701.40	16650.57
701.53	16444.60
701.66	16264.38
701.79	16362.69
701.93	16088.84
702.06	15742.44
702.19	15728.40
702.32	15955.43
702.46	15613.71
702.59	15864.15
702.72	15822.02
702.85	15620.74
702.99	15428.81
703.12	15379.66
703.25	15096.46
703.38	15019.22
703.51	15082.41
703.65	14934.96
703.78	14518.34
703.91	14934.96
704.04	14691.54
704.17	14712.61
704.31	14714.95
704.44	14340.46
704.57	14560.47
704.70	14373.23
704.83	14623.67
704.96	14225.78
705.10	14214.07
705.23	13909.80
>>>>>End Processed Spectral Data<<<<<
