SpectraSuite Data File
++++++++++++++++++++++++++++++++++++
Date: Fri Oct 25 11:34:43 EDT 2013
User: price-jones
Dark Spectrum Present: No
Reference Spectrum Present: No
Number of Sampled Component Spectra: 1
Spectrometers: USB2+H05261
Integration Time (usec): 100000 (USB2+H05261)
Spectra Averaged: 1 (USB2+H05261)
Boxcar Smoothing: 0 (USB2+H05261)
Correct for Electrical Dark: No (USB2+H05261)
Strobe/Lamp Enabled: No (USB2+H05261)
Correct for Detector Non-linearity: No (USB2+H05261)
Correct for Stray Light: No (USB2+H05261)
Number of Pixels in Processed Spectrum: 2048
>>>>>Begin Processed Spectral Data<<<<<
365.73	236.39
365.92	236.39
366.12	236.39
366.32	184.90
366.52	205.97
366.72	184.90
366.91	182.56
367.11	154.48
367.31	187.24
367.51	145.11
367.70	257.46
367.90	191.92
368.10	145.11
368.30	189.58
368.49	238.73
368.69	222.35
368.89	220.01
369.09	126.39
369.28	259.80
369.48	182.56
369.68	222.35
369.87	238.73
370.07	299.59
370.27	238.73
370.47	346.40
370.66	531.30
370.86	573.43
371.06	580.45
371.25	540.66
371.45	540.66
371.65	594.50
371.84	528.96
372.04	538.32
372.24	615.56
372.44	554.71
372.63	620.24
372.83	585.13
373.03	631.94
373.22	620.24
373.42	582.79
373.62	624.92
373.81	610.88
374.01	662.37
374.21	706.84
374.40	589.82
374.60	641.31
374.79	622.58
374.99	716.20
375.19	655.35
375.38	688.12
375.58	645.99
375.78	678.76
375.97	678.76
376.17	772.38
376.37	692.80
376.56	660.03
376.76	657.69
376.95	645.99
377.15	645.99
377.35	676.41
377.54	678.76
377.74	660.03
377.93	706.84
378.13	720.88
378.33	720.88
378.52	662.37
378.72	631.94
378.91	683.44
379.11	709.18
379.31	685.78
379.50	674.07
379.70	706.84
379.89	746.63
380.09	744.29
380.28	748.97
380.48	741.95
380.68	697.48
380.87	711.52
381.07	725.57
381.26	748.97
381.46	739.61
381.65	709.18
381.85	683.44
382.04	737.27
382.24	709.18
382.43	699.82
382.63	744.29
382.83	887.06
383.02	767.70
383.22	830.89
383.41	781.74
383.61	727.91
383.80	814.51
384.00	802.80
384.19	795.78
384.39	772.38
384.58	793.44
384.78	791.10
384.97	833.23
385.17	763.01
385.36	816.85
385.56	849.61
385.75	861.32
385.95	901.11
386.14	894.08
386.34	830.89
386.53	828.55
386.72	842.59
386.92	884.72
387.11	903.45
387.31	882.38
387.50	959.62
387.70	863.66
387.89	922.17
388.09	851.96
388.28	903.45
388.48	894.08
388.67	894.08
388.86	866.00
389.06	959.62
389.25	910.47
389.45	901.11
389.64	919.83
389.84	950.26
390.03	912.81
390.22	961.96
390.42	950.26
390.61	917.49
390.81	915.15
391.00	983.02
391.19	978.34
391.39	1057.92
391.58	968.98
391.78	1036.86
391.97	966.64
392.16	987.71
392.36	992.39
392.55	999.41
392.75	997.07
392.94	1081.33
393.13	1086.01
393.33	908.13
393.52	1048.56
393.71	1076.65
393.91	1062.60
394.10	1057.92
394.29	1074.31
394.49	1086.01
394.68	1088.35
394.88	1104.73
395.07	1109.41
395.26	1027.50
395.46	1062.60
395.65	1151.54
395.84	1102.39
396.04	1196.01
396.23	1118.78
396.42	1078.99
396.62	1153.88
396.81	1200.69
397.00	1181.97
397.19	1107.07
397.39	1104.73
397.58	1259.21
397.77	1196.01
397.97	1177.29
398.16	1219.42
398.35	1165.59
398.55	1212.40
398.74	1277.93
398.93	1263.89
399.12	1193.67
399.32	1270.91
399.51	1275.59
399.70	1331.76
399.90	1289.64
400.09	1331.76
400.28	1448.79
400.47	1357.51
400.67	1446.45
400.86	1383.26
401.05	1404.32
401.24	1472.20
401.44	1472.20
401.63	1474.54
401.82	1448.79
402.01	1420.71
402.21	1409.00
402.40	1472.20
402.59	1373.89
402.78	1413.68
402.97	1437.09
403.17	1444.11
403.36	1519.01
403.55	1479.22
403.74	1509.65
403.93	1511.99
404.13	1617.31
404.32	1521.35
404.51	1579.86
404.70	1554.12
404.89	1533.05
405.09	1577.52
405.28	1526.03
405.47	1621.99
405.66	1652.42
405.85	1605.61
406.05	1626.67
406.24	1523.69
406.43	1715.61
406.62	1617.31
406.81	1727.32
407.00	1666.46
407.20	1666.46
407.39	1715.61
407.58	1781.15
407.77	1755.40
407.96	1790.51
408.15	1834.98
408.34	1785.83
408.54	1912.22
408.73	1849.02
408.92	1909.88
409.11	1977.75
409.30	1867.75
409.49	1947.33
409.68	1816.26
409.87	1844.34
410.07	1944.99
410.26	1884.13
410.45	1895.83
410.64	2111.16
410.83	2010.52
411.02	1956.69
411.21	2129.89
411.40	2099.46
411.59	2078.40
411.78	1980.09
411.98	2038.61
412.17	2160.31
412.36	2146.27
412.55	2197.76
412.74	2246.91
412.93	2134.57
413.12	2289.04
413.31	2370.96
413.50	2293.72
413.69	2331.17
413.88	2401.39
414.07	2321.81
414.26	2333.51
414.45	2270.32
414.64	2438.84
414.83	2441.18
415.02	2523.10
415.22	2558.21
415.41	2443.52
415.60	2485.65
415.79	2551.18
415.98	2630.76
416.17	2593.31
416.36	2642.46
416.55	2677.57
416.74	2675.23
416.93	2588.63
417.12	2663.53
417.31	2799.28
417.50	2803.96
417.69	2836.73
417.88	2829.71
418.07	2712.68
418.26	2820.35
418.45	2904.60
418.64	3066.10
418.83	2834.39
419.02	3054.40
419.21	2888.22
419.39	2944.39
419.58	2869.50
419.77	2782.90
419.96	2991.20
420.15	3131.64
420.34	2986.52
420.53	3035.67
420.72	2942.05
420.91	3070.78
421.10	3059.08
421.29	3204.19
421.48	2925.67
421.67	3077.80
421.86	3169.09
422.05	3155.04
422.24	3005.25
422.43	3052.06
422.61	3133.98
422.80	3316.54
422.99	3178.45
423.18	3253.34
423.37	3204.19
423.56	3274.41
423.75	3251.00
423.94	3152.70
424.13	3145.68
424.32	3133.98
424.50	3318.88
424.69	3330.58
424.88	3281.43
425.07	3166.74
425.26	3239.30
425.45	3386.76
425.64	3220.58
425.83	3361.01
426.01	3349.31
426.20	3295.47
426.39	3295.47
426.58	3414.84
426.77	3290.79
426.96	3314.20
427.15	3330.58
427.33	3417.18
427.52	3527.19
427.71	3421.86
427.90	3557.61
428.09	3524.85
428.28	3515.48
428.46	3445.27
428.65	3496.76
428.84	3592.72
429.03	3550.59
429.22	3473.36
429.40	3700.39
429.59	3655.92
429.78	3363.35
429.97	3461.65
430.16	3639.53
430.34	3641.87
430.53	3595.06
430.72	3620.81
430.91	3770.60
431.10	3634.85
431.28	3803.37
431.47	3836.14
431.66	3824.44
431.85	3716.77
432.03	3861.88
432.22	3929.76
432.41	3868.91
432.60	3892.31
432.79	3901.67
432.97	4002.32
433.16	3939.12
433.35	3798.69
433.54	3906.35
433.72	3885.29
433.91	4091.26
434.10	4063.17
434.28	4114.66
434.47	4159.13
434.66	4042.11
434.85	4088.92
435.03	4081.89
435.22	3873.59
435.41	4318.29
435.59	4203.60
435.78	4112.32
435.97	4339.35
436.16	4166.15
436.34	4081.89
436.53	4215.30
436.72	4348.72
436.90	4119.34
437.09	4245.73
437.28	4250.41
437.46	4259.78
437.65	4320.63
437.84	4428.29
438.02	4423.61
438.21	4465.74
438.40	4266.80
438.58	4468.08
438.77	4521.92
438.96	4407.23
439.14	4716.18
439.33	4524.26
439.52	4695.11
439.70	4770.01
439.89	4657.67
440.08	4737.24
440.26	4755.97
440.45	4786.40
440.63	4854.27
440.82	4929.17
441.01	4720.86
441.19	5100.03
441.38	4971.30
441.57	4840.23
441.75	4961.94
441.94	5095.35
442.12	5097.69
442.31	5270.89
442.50	5263.86
442.68	5174.92
442.87	5069.60
443.05	5280.25
443.24	5256.84
443.43	5324.72
443.61	5348.12
443.80	5369.19
443.98	5200.67
444.17	5041.51
444.35	5252.16
444.54	5474.51
444.73	5322.38
444.91	5301.31
445.10	5275.57
445.28	5284.93
445.47	5305.99
445.65	5291.95
445.84	5401.96
446.02	5500.26
446.21	5406.64
446.39	5404.30
446.58	5521.32
446.77	5446.43
446.95	5305.99
447.14	5331.74
447.32	5514.30
447.51	5310.68
447.69	5387.91
447.88	5556.43
448.06	5514.30
448.25	5628.99
448.43	5596.22
448.62	5474.51
448.80	5427.70
448.99	5535.37
449.17	5528.35
449.36	5614.95
449.54	5612.60
449.73	5823.25
449.91	5907.51
450.10	5652.39
450.28	5816.23
450.46	5734.31
450.65	5825.59
450.83	5914.53
451.02	5813.89
451.20	5792.83
451.39	5682.82
451.57	5879.43
451.76	5748.36
451.94	5727.29
452.13	5956.66
452.31	6038.58
452.49	5944.96
452.68	5991.77
452.86	6024.54
453.05	6022.20
453.23	6031.56
453.42	6010.50
453.60	5909.85
453.78	6029.22
453.97	6033.90
454.15	5912.19
454.34	6188.38
454.52	6174.33
454.70	6258.59
454.89	6204.76
455.07	6307.74
455.26	6242.21
455.44	6310.08
455.62	6274.98
455.81	6291.36
455.99	6324.13
456.17	6406.05
456.36	6452.86
456.54	6373.28
456.73	6476.26
456.91	6492.65
457.09	6626.06
457.28	6792.23
457.46	6607.33
457.64	6750.10
457.83	6614.35
458.01	6743.08
458.19	6782.87
458.38	6782.87
458.56	6810.96
458.74	6918.62
458.93	6881.18
459.11	6878.83
459.29	6885.86
459.48	6705.63
459.66	6726.70
459.84	6869.47
460.03	7173.74
460.21	7049.69
460.39	7033.31
460.57	6972.46
460.76	7054.37
460.94	7124.59
461.12	7290.77
461.31	7035.65
461.49	6937.35
461.67	6885.86
461.85	7524.82
462.04	7166.72
462.22	7267.36
462.40	7272.04
462.59	7288.43
462.77	7180.76
462.95	7328.22
463.13	7426.52
463.32	7379.71
463.50	7410.14
463.68	7506.10
463.86	7433.54
464.05	7325.88
464.23	7438.22
464.41	7695.68
464.59	7311.83
464.78	7658.23
464.96	7384.39
465.14	7545.89
465.32	7658.23
465.50	7777.60
465.69	7777.60
465.87	7534.18
466.05	7763.56
466.23	7702.70
466.41	7932.08
466.60	7829.09
466.78	7751.85
466.96	7784.62
467.14	7822.07
467.32	7609.08
467.51	7906.33
467.69	7770.58
467.87	7939.10
468.05	8018.68
468.23	7957.82
468.41	7885.26
468.60	8004.63
468.78	8140.38
468.96	8028.04
469.14	8102.93
469.32	8060.80
469.50	7988.25
469.69	8332.31
469.87	8336.99
470.05	8231.66
470.23	8327.63
470.41	8236.35
470.59	8379.12
470.77	8351.03
470.95	8313.58
471.14	8678.71
471.32	8285.50
471.50	8589.77
471.68	8538.27
471.86	8589.77
472.04	8769.99
472.22	8786.37
472.40	8746.58
472.58	8692.75
472.77	8821.48
472.95	8896.38
473.13	9144.47
473.31	8978.30
473.49	8870.63
473.67	8727.86
473.85	8990.00
474.03	9270.86
474.21	9280.22
474.39	9352.78
474.57	9338.74
474.75	9465.13
474.93	9469.81
475.12	9348.10
475.30	9373.85
475.48	9544.70
475.66	9509.60
475.84	9675.77
476.02	9589.17
476.20	9680.46
476.38	9863.02
476.56	10143.88
476.74	10118.14
476.92	9919.19
477.10	9898.13
477.28	9958.98
477.46	9991.75
477.64	10260.91
477.82	10267.93
478.00	10729.02
478.18	10473.90
478.36	10675.18
478.54	10553.48
478.72	10817.96
478.90	10787.53
479.08	10920.94
479.26	11014.56
479.44	11012.22
479.62	10979.45
479.80	11239.25
479.98	11265.00
480.16	11463.94
480.34	11304.79
480.52	11705.02
480.70	11564.59
480.88	11417.13
481.06	11747.15
481.24	11730.76
481.41	11641.82
481.59	12271.43
481.77	12030.35
481.95	12030.35
482.13	12285.47
482.31	12381.43
482.49	12486.76
482.67	12535.91
482.85	12814.43
483.03	12697.41
483.21	12755.92
483.39	12849.54
483.57	13174.88
483.74	13137.43
483.92	13235.73
484.10	13233.39
484.28	13312.97
484.46	13355.10
484.64	13860.65
484.82	13767.03
485.00	13736.60
485.18	13996.40
485.35	14075.98
485.53	14010.45
485.71	14359.19
485.89	14635.37
486.07	14328.76
486.25	14712.61
486.43	14530.05
486.61	14656.43
486.78	14995.81
486.96	14860.06
487.14	15035.60
487.32	15328.17
487.50	15318.81
487.68	15503.71
487.85	15503.71
488.03	15749.46
488.21	16128.63
488.39	16018.63
488.57	16159.06
488.75	16388.43
488.92	16348.64
489.10	16718.45
489.28	16774.62
489.46	16863.56
489.64	16774.62
489.81	17586.79
489.99	17146.76
490.17	16961.86
490.35	17343.37
490.53	17275.49
490.70	17715.51
490.88	17584.44
491.06	17928.50
491.24	17811.48
491.41	18178.94
491.59	17963.61
491.77	17860.63
491.95	18354.48
492.13	18572.15
492.30	18682.16
492.48	18523.00
492.66	18490.23
492.84	18782.80
493.01	18986.43
493.19	18974.72
493.37	19068.34
493.54	19269.63
493.72	19506.02
493.90	19559.86
494.08	19592.62
494.25	19674.54
494.43	19941.36
494.61	19578.58
494.79	20018.60
494.96	20152.01
495.14	19955.41
495.32	20336.91
495.49	20727.78
495.67	20622.46
495.85	20776.94
496.02	20868.22
496.20	21123.33
496.38	20954.82
496.55	21137.38
496.73	21809.11
496.91	21542.29
497.09	21603.14
497.26	21500.16
497.44	21682.72
497.62	21893.37
497.79	22309.99
497.97	21795.07
498.14	22263.18
498.32	22530.00
498.50	22286.58
498.67	22607.23
498.85	22558.08
499.03	22735.96
499.20	22696.17
499.38	22803.84
499.56	23070.66
499.73	23154.92
499.91	23206.41
500.08	23166.62
500.26	23033.21
500.44	23283.65
500.61	23449.83
500.79	23293.01
500.97	23632.39
501.14	24046.66
501.32	23634.73
501.49	24074.75
501.67	24327.53
501.84	23903.89
502.02	24259.65
502.20	23796.23
502.37	23950.70
502.55	24095.82
502.72	24315.83
502.90	24629.46
503.07	24299.44
503.25	24613.07
503.43	24240.93
503.60	24786.27
503.78	24917.34
503.95	24751.17
504.13	24889.26
504.30	25291.83
504.48	24994.58
504.65	25343.32
504.83	25490.77
505.01	25586.74
505.18	25530.56
505.36	25689.72
505.53	25701.42
505.71	25862.92
505.88	25717.81
506.06	25654.61
506.23	26078.25
506.41	26047.82
506.58	26136.76
506.76	26120.38
506.93	26101.65
507.11	26153.15
507.28	26639.98
507.46	26462.10
507.63	26508.91
507.81	26785.09
507.98	26712.53
508.16	26831.90
508.33	27094.04
508.50	26881.05
508.68	26946.59
508.85	27180.64
509.03	27335.12
509.20	27255.54
509.38	27304.69
509.55	27463.85
509.73	27740.03
509.90	27756.41
510.08	27777.48
510.25	27618.32
510.42	27800.88
510.60	27920.25
510.77	28276.01
510.95	28247.93
511.12	27920.25
511.30	28484.32
511.47	28428.15
511.64	28191.75
511.82	28570.92
511.99	28591.98
512.17	28772.21
512.34	28856.46
512.51	29064.77
512.69	29109.24
512.86	29170.10
513.04	29034.35
513.21	29202.86
513.38	29340.96
513.56	29252.02
513.73	29441.60
513.90	29647.57
514.08	29193.50
514.25	29797.36
514.43	29979.92
514.60	29488.41
514.77	29961.20
514.95	29809.06
515.12	29422.87
515.29	29605.44
515.47	30316.96
515.64	29727.14
515.81	30099.29
515.99	30384.83
516.16	30492.50
516.33	30764.00
516.51	30431.65
516.68	30403.56
516.85	30714.85
517.03	30796.77
517.20	30930.18
517.37	30885.71
517.54	30649.32
517.72	30843.58
517.89	31030.82
518.06	31091.68
518.24	31185.30
518.41	31117.42
518.58	31283.60
518.75	30859.96
518.93	31587.87
519.10	31606.59
519.27	31580.85
519.45	31431.05
519.62	31519.99
519.79	31871.07
519.96	31927.25
520.14	31552.76
520.31	32135.56
520.48	32350.88
520.65	31915.54
520.83	31971.72
521.00	32510.04
521.17	32385.99
521.34	32196.41
521.52	32367.27
521.69	32826.01
521.86	32645.79
522.03	32488.98
522.20	33057.73
522.38	33193.48
522.55	32891.55
522.72	33163.05
522.89	33179.43
523.07	32994.53
523.24	33479.02
523.41	33474.34
523.58	33172.41
523.75	33652.22
523.92	33338.59
524.10	34099.26
524.27	33633.50
524.44	33881.60
524.61	33460.30
524.78	33530.51
524.96	33809.04
525.13	34213.95
525.30	34197.57
525.47	34155.44
525.64	33998.62
525.81	34529.92
525.98	33979.90
526.16	34181.18
526.33	34284.17
526.50	34330.98
526.67	34412.90
526.84	34670.36
527.01	34403.53
527.18	34569.71
527.36	34543.97
527.53	34345.02
527.70	34932.50
527.87	35070.59
528.04	35044.84
528.21	35026.12
528.38	34911.43
528.55	35049.52
528.72	34998.03
528.89	34646.95
529.07	35143.14
529.24	34960.58
529.41	35449.75
529.58	35700.19
529.75	35330.39
529.92	35494.22
530.09	34937.18
530.26	35484.86
530.43	35704.87
530.60	35501.25
530.77	35192.30
530.94	35402.94
531.11	35557.42
531.28	35962.33
531.46	35917.86
531.63	36060.63
531.80	36182.34
531.97	36037.23
532.14	36142.55
532.31	36025.53
532.48	36315.75
532.65	36299.37
532.82	36184.68
532.99	36226.81
533.16	36392.99
533.33	36715.98
533.50	36503.00
533.67	36737.05
533.84	36327.45
534.01	37277.71
534.18	36514.70
534.35	37088.13
534.52	36683.22
534.69	37354.95
534.86	37273.03
535.03	36823.65
535.20	37471.98
535.37	37235.58
535.54	36893.86
535.71	36961.74
535.88	37305.80
536.05	37085.79
536.22	37607.73
536.38	37450.91
536.55	37563.26
536.72	37727.10
536.89	37605.39
537.06	37479.00
537.23	38052.43
537.40	37865.19
537.57	37488.36
537.74	37338.57
537.91	37406.44
538.08	38146.05
538.25	37998.60
538.42	38160.09
538.59	38274.78
538.75	37848.80
538.92	38146.05
539.09	38146.05
539.26	38426.92
539.43	38075.84
539.60	38335.63
539.77	38323.93
539.94	38515.86
540.11	38548.62
540.28	38518.20
540.44	38490.11
540.61	38471.39
540.78	38356.70
540.95	38745.23
541.12	38525.22
541.29	38522.88
541.46	38033.71
541.62	38780.34
541.79	39173.55
541.96	38712.46
542.13	39075.24
542.30	39063.54
542.47	38920.77
542.63	38990.98
542.80	39274.19
542.97	39548.03
543.14	39487.18
543.31	39496.54
543.48	39658.04
543.64	39948.26
543.81	39817.19
543.98	39550.37
544.15	39817.19
544.32	39908.47
544.48	40163.59
544.65	39777.40
544.82	40093.38
544.99	39515.26
545.16	39784.43
545.32	39796.13
545.49	39974.01
545.66	40367.22
545.83	40165.93
546.00	40467.86
546.16	40502.97
546.33	40154.23
546.50	39810.17
546.67	40392.97
546.83	39969.33
547.00	40275.94
547.17	39966.99
547.34	40449.14
547.50	40039.54
547.67	41277.69
547.84	40346.15
548.00	40830.65
548.17	40982.78
548.34	40961.72
548.51	40928.95
548.67	40816.60
548.84	40495.95
549.01	40765.11
549.18	40825.96
549.34	41137.26
549.51	41460.25
549.68	41202.79
549.84	41053.00
550.01	40947.67
550.18	40865.75
550.34	41053.00
550.51	41593.66
550.68	41397.06
550.84	40760.43
551.01	40975.76
551.18	41495.36
551.34	41497.70
551.51	41460.25
551.68	41244.92
551.84	41584.30
552.01	41331.52
552.18	41347.90
552.34	41338.54
552.51	41799.63
552.68	41776.22
552.84	41766.86
553.01	41888.57
553.18	41759.84
553.34	41935.38
553.51	41808.99
553.67	41916.65
553.84	42359.02
554.01	41656.85
554.17	41900.27
554.34	41713.03
554.51	42082.83
554.67	42153.05
554.84	42038.36
555.00	42171.77
555.17	42183.48
555.33	42246.67
555.50	42029.00
555.67	41944.74
555.83	42281.78
556.00	42108.58
556.16	42885.64
556.33	42660.94
556.50	42359.02
556.66	42298.16
556.83	41942.40
556.99	42644.56
557.16	42983.94
557.32	42635.20
557.49	42923.08
557.65	42667.97
557.82	42429.23
557.98	42487.74
558.15	42906.70
558.32	42834.14
558.48	42543.92
558.65	42536.90
558.81	42906.70
558.98	42515.83
559.14	43040.11
559.31	42689.03
559.47	42887.98
559.64	43260.12
559.80	42962.87
559.97	43208.63
560.13	42803.72
560.30	43075.22
560.46	43323.32
560.63	43370.13
560.79	42777.97
560.96	43187.56
561.12	43194.59
561.29	43030.75
561.45	43246.08
561.61	43063.52
561.78	43480.13
561.94	43377.15
562.11	43222.67
562.27	43243.74
562.44	43005.00
562.60	43440.34
562.77	43777.38
562.93	43381.83
563.10	43796.10
563.26	43365.45
563.42	44308.68
563.59	43728.23
563.75	43070.54
563.92	43140.75
564.08	43470.77
564.24	43622.90
564.41	43859.30
564.57	43400.55
564.74	43533.96
564.90	43447.36
565.07	43512.90
565.23	43669.72
565.39	43545.67
565.56	43924.83
565.72	43697.80
565.88	43679.08
566.05	43779.72
566.21	43608.86
566.38	43257.78
566.54	43945.90
566.70	43941.22
566.87	43716.53
567.03	43309.27
567.19	44081.65
567.36	43966.96
567.52	43828.87
567.68	44245.49
567.85	43866.32
568.01	43936.54
568.17	43559.71
568.34	44271.23
568.50	43772.70
568.66	44093.35
568.83	44203.36
568.99	44023.14
569.15	44088.67
569.32	43545.67
569.48	43718.87
569.64	44046.54
569.81	44226.76
569.97	44109.74
570.13	44378.90
570.30	44058.24
570.46	43777.38
570.62	44531.03
570.78	43922.49
570.95	44004.41
571.11	44451.45
571.27	44493.58
571.43	43833.55
571.60	43899.09
571.76	44371.88
571.92	43936.54
572.09	43871.00
572.25	43906.11
572.41	44371.88
572.57	44526.35
572.74	44168.25
572.90	44238.47
573.06	44076.97
573.22	44444.43
573.38	44289.96
573.55	44364.85
573.71	45069.36
573.87	44465.50
574.03	44542.74
574.20	44657.42
574.36	44617.63
574.52	44484.22
574.68	44421.03
574.84	44914.88
575.01	44381.24
575.17	44694.87
575.33	44512.31
575.49	44360.17
575.65	44954.67
575.82	44608.27
575.98	44163.57
576.14	44975.73
576.30	44781.47
576.46	44418.69
576.62	44729.98
576.79	44542.74
576.95	44299.32
577.11	44392.94
577.27	44612.95
577.43	44666.78
577.59	44158.89
577.75	44144.84
577.92	44257.19
578.08	44811.90
578.24	44545.08
578.40	44816.58
578.56	44765.09
578.72	44573.16
578.88	45125.53
579.04	44629.34
579.21	44322.72
579.37	44463.16
579.53	44575.50
579.69	44421.03
579.85	44505.29
580.01	44531.03
580.17	44652.74
580.33	44804.88
580.49	44814.24
580.65	44861.05
580.82	45027.23
580.98	44626.99
581.14	44388.26
581.30	44774.45
581.46	45069.36
581.62	44603.59
581.78	44631.68
581.94	44905.52
582.10	44708.91
582.26	45031.91
582.42	44437.41
582.58	44891.48
582.74	44582.52
582.90	44561.46
583.06	44828.28
583.22	44659.76
583.38	45083.40
583.54	44861.05
583.70	44657.42
583.86	44793.17
584.02	44500.61
584.18	45059.99
584.34	44919.56
584.50	45329.16
584.66	44868.07
584.82	44612.95
584.98	44989.78
585.14	45308.09
585.30	44774.45
585.46	44524.01
585.62	44905.52
585.78	44701.89
585.94	44456.14
586.10	45062.33
586.26	44786.15
586.42	44863.39
586.58	44912.54
586.74	44996.80
586.90	44673.81
587.06	44648.06
587.22	44886.79
587.38	44755.72
587.54	45078.72
587.70	45223.83
587.86	45242.56
588.02	44797.85
588.18	44886.79
588.34	45296.39
588.49	44964.03
588.65	44980.42
588.81	45081.06
588.97	45134.89
589.13	44737.00
589.29	44837.64
589.45	45649.81
589.61	45244.90
589.77	45069.36
589.93	44828.28
590.08	45125.53
590.24	45331.50
590.40	45256.60
590.56	45382.99
590.72	45485.97
590.88	45378.31
591.04	45504.70
591.20	45324.47
591.35	45291.71
591.51	45848.75
591.67	45193.40
591.83	45574.91
591.99	45457.88
592.15	45212.13
592.31	45551.51
592.46	44889.13
592.62	45097.44
592.78	45336.18
592.94	45687.26
593.10	45406.39
593.26	45586.61
593.41	45368.94
593.57	45343.20
593.73	45523.42
593.89	45633.42
594.05	45647.47
594.20	45579.59
594.36	46213.88
594.52	45397.03
594.68	45813.65
594.84	45453.20
594.99	45872.16
595.15	45558.53
595.31	45738.75
595.47	45780.88
595.62	45511.72
595.78	45251.92
595.94	45595.98
596.10	45610.02
596.25	45542.14
596.41	45219.15
596.57	45354.90
596.73	45497.67
596.88	45661.51
597.04	45687.26
597.20	45989.19
597.36	45441.50
597.51	45294.05
597.67	45523.42
597.83	45237.87
597.99	45904.93
598.14	45607.68
598.30	45720.02
598.46	45193.40
598.61	46045.36
598.77	45820.67
598.93	45996.21
599.09	45808.96
599.24	46237.28
599.40	45614.70
599.56	45635.77
599.71	45855.78
599.87	45979.82
600.03	46543.89
600.18	45668.53
600.34	45727.05
600.50	45694.28
600.65	46031.32
600.81	45984.51
600.97	46005.57
601.12	46146.00
601.28	45823.01
601.44	45628.74
601.59	46045.36
601.75	45724.71
601.91	45771.52
602.06	45478.95
602.22	46064.08
602.37	45925.99
602.53	45689.60
602.69	46298.14
602.84	45500.01
603.00	45710.66
603.16	46005.57
603.31	45127.87
603.47	45886.20
603.62	45972.80
603.78	45947.06
603.94	46078.13
604.09	45879.18
604.25	45373.63
604.40	45848.75
604.56	45825.35
604.71	45525.76
604.87	45584.27
605.03	45565.55
605.18	45553.85
605.34	45708.32
605.49	45624.06
605.65	45972.80
605.80	45607.68
605.96	45268.30
606.12	45848.75
606.27	45991.53
606.43	45406.39
606.58	45783.22
606.74	45462.57
606.89	45539.80
607.05	45689.60
607.20	45563.21
607.36	45710.66
607.51	45752.79
607.67	45591.30
607.82	45544.48
607.98	45478.95
608.13	45361.92
608.29	45542.14
608.44	45893.22
608.60	45483.63
608.75	45642.79
608.91	45549.17
609.06	45090.42
609.22	45570.23
609.37	45378.31
609.53	45701.30
609.68	45642.79
609.84	45263.62
609.99	45485.97
610.15	45294.05
610.30	45752.79
610.46	44898.50
610.61	45291.71
610.76	45298.73
610.92	45179.36
611.07	45001.48
611.23	45104.46
611.38	45090.42
611.54	45478.95
611.69	45291.71
611.84	45404.05
612.00	45759.81
612.15	44987.44
612.31	45488.31
612.46	45127.87
612.62	45357.24
612.77	45113.83
612.92	45205.11
613.08	44910.20
613.23	45118.51
613.39	45162.98
613.54	45132.55
613.69	45385.33
613.85	45151.27
614.00	45059.99
614.15	45055.31
614.31	44701.89
614.46	44954.67
614.62	44957.01
614.77	45052.97
614.92	45277.66
615.08	45170.00
615.23	45090.42
615.38	44949.99
615.54	44966.37
615.69	45141.91
615.84	44830.62
616.00	45059.99
616.15	44781.47
616.30	45240.21
616.46	44875.09
616.61	44678.49
616.76	44854.03
616.92	44624.65
617.07	45429.80
617.22	44814.24
617.37	44634.02
617.53	44800.19
617.68	44872.75
617.83	44748.70
617.99	45317.45
618.14	45013.18
618.29	44612.95
618.45	44357.83
618.60	44201.02
618.75	43772.70
618.90	44439.75
619.06	44268.89
619.21	44259.53
619.36	44662.10
619.51	44182.29
619.67	44236.12
619.82	44261.87
619.97	44395.28
620.12	44163.57
620.28	44467.84
620.43	44371.88
620.58	44758.06
620.73	44381.24
620.89	44685.51
621.04	44399.96
621.19	43831.21
621.34	44044.20
621.49	44023.14
621.65	44278.25
621.80	44872.75
621.95	44371.88
622.10	44519.33
622.25	44367.20
622.41	43819.51
622.56	43964.62
622.71	44109.74
622.86	44208.04
623.01	44013.77
623.16	43910.79
623.32	43861.64
623.47	44133.14
623.62	43873.34
623.77	44058.24
623.92	43906.11
624.07	43971.64
624.23	44224.42
624.38	44224.42
624.53	44032.50
624.68	43995.05
624.83	43402.89
624.98	43693.12
625.13	43381.83
625.29	43494.18
625.44	43393.53
625.59	43828.87
625.74	43543.33
625.89	43606.52
626.04	43393.53
626.19	43470.77
626.34	43583.12
626.49	43405.23
626.65	43133.73
626.80	43597.16
626.95	43225.01
627.10	42852.87
627.25	43599.50
627.40	43168.84
627.55	43208.63
627.70	43409.92
627.85	43255.44
628.00	43236.72
628.15	43402.89
628.30	43072.88
628.45	42934.79
628.60	42693.71
628.76	43510.56
628.91	43154.80
629.06	42092.19
629.21	43140.75
629.36	42564.98
629.51	42965.21
629.66	43021.39
629.81	42789.67
629.96	43044.79
630.11	42777.97
630.26	42714.78
630.41	42569.66
630.56	42974.58
630.71	43030.75
630.86	42497.11
631.01	42436.25
631.16	42777.97
631.31	42902.02
631.46	42740.52
631.61	42866.91
631.76	42721.80
631.91	42766.27
632.06	43199.27
632.21	42953.51
632.36	42745.20
632.51	42553.28
632.66	42693.71
632.81	42471.36
632.96	42834.14
633.10	42529.87
633.25	42426.89
633.40	42829.46
633.55	42536.90
633.70	42380.08
633.85	42218.58
634.00	42094.53
634.15	42494.77
634.30	42195.18
634.45	42099.22
634.60	42314.55
634.75	42106.24
634.90	41535.15
635.05	42431.57
635.19	42438.59
635.34	42211.56
635.49	42260.71
635.64	41975.17
635.79	42347.31
635.94	42162.41
636.09	42227.95
636.24	41961.12
636.39	41944.74
636.53	41755.16
636.68	41851.12
636.83	41364.29
636.98	41556.21
637.13	41432.16
637.28	41516.42
637.43	41631.11
637.57	41698.98
637.72	41329.18
637.87	41914.31
638.02	41883.89
638.17	41532.81
638.32	41593.66
638.46	41535.15
638.61	40985.12
638.76	41481.31
638.91	41160.66
639.06	41006.19
639.20	40774.47
639.35	41572.60
639.50	41181.73
639.65	41287.05
639.80	41502.38
639.94	41242.58
640.09	41071.72
640.24	41635.79
640.39	41081.08
640.54	41095.13
640.68	41610.04
640.83	41808.99
640.98	40903.20
641.13	40884.48
641.27	41588.98
641.42	40884.48
641.57	41177.04
641.72	40961.72
641.86	40706.60
642.01	40722.98
642.16	40978.10
642.31	40364.88
642.45	41200.45
642.60	41104.49
642.75	40802.56
642.90	41024.91
643.04	40928.95
643.19	40811.92
643.34	40788.52
643.48	40334.45
643.63	40311.05
643.78	40744.05
643.93	40650.42
644.07	40673.83
644.22	40318.07
644.37	40030.18
644.51	40957.03
644.66	40676.17
644.81	40409.35
644.95	40996.82
645.10	40367.22
645.25	40343.81
645.39	39887.41
645.54	40013.80
645.69	39894.43
645.83	40226.79
645.98	39856.98
646.13	39959.97
646.27	39997.41
646.42	39777.40
646.57	40631.70
646.71	40425.73
646.86	40708.94
647.00	40168.27
647.15	40346.15
647.30	40383.60
647.44	40051.25
647.59	40086.36
647.74	40037.20
647.88	39882.73
648.03	40341.47
648.17	40184.66
648.32	40364.88
648.47	40292.32
648.61	39716.55
648.76	39985.71
648.90	39810.17
649.05	39611.23
649.20	39913.16
649.34	40051.25
649.49	39749.32
649.63	39913.16
649.78	39871.03
649.92	39929.54
650.07	39835.92
650.21	39821.87
650.36	39737.62
650.51	39852.30
650.65	40187.00
650.80	40369.56
650.94	39744.64
651.09	39754.00
651.23	39353.77
651.38	39632.29
651.52	39431.01
651.67	39323.34
651.81	39636.97
651.96	39292.91
652.10	39442.71
652.25	39129.08
652.39	39337.38
652.54	39119.71
652.68	39264.83
652.83	38995.67
652.97	39189.93
653.12	39351.43
653.26	39110.35
653.41	39040.14
653.55	39035.45
653.70	39089.29
653.84	39187.59
653.99	39089.29
654.13	39274.19
654.27	38850.55
654.42	39103.33
654.56	38766.29
654.71	38857.57
654.85	38756.93
655.00	39044.82
655.14	38670.33
655.29	39304.62
655.43	39051.84
655.57	38548.62
655.72	38700.76
655.86	38892.68
656.01	38307.55
656.15	38195.20
656.30	38550.96
656.44	38684.37
656.58	38522.88
656.73	38593.09
656.87	38436.28
657.01	38190.52
657.16	38410.53
657.30	38494.79
657.45	38565.01
657.59	38195.20
657.73	38206.90
657.88	38675.01
658.02	38178.82
658.16	38520.54
658.31	38419.89
658.45	38164.78
658.60	37785.61
658.74	38300.53
658.88	37914.34
659.03	38122.65
659.17	37921.36
659.31	38029.02
659.46	38127.33
659.60	38167.12
659.74	37717.73
659.89	37312.82
660.03	37109.19
660.17	37661.56
660.32	37759.86
660.46	37237.92
660.60	37268.35
660.74	37581.98
660.89	37095.15
661.03	37432.19
661.17	37195.79
661.32	36884.50
661.46	37287.07
661.60	37352.61
661.74	37120.90
661.89	37109.19
662.03	37469.64
662.17	37055.36
662.31	36580.23
662.46	37177.07
662.60	36720.66
662.74	36690.24
662.88	36706.62
663.03	36208.09
663.17	36669.17
663.31	36320.43
663.45	36694.92
663.60	37174.73
663.74	37060.04
663.88	36563.85
664.02	36353.20
664.17	36868.12
664.31	36514.70
664.45	36334.48
664.59	36540.44
664.73	36058.29
664.88	36484.27
665.02	35667.42
665.16	35854.67
665.30	36231.49
665.44	35976.37
665.59	35751.68
665.73	35555.08
665.87	35566.78
666.01	35747.00
666.15	35803.17
666.29	35655.72
666.44	36114.47
666.58	35534.01
666.72	35393.58
666.86	35569.12
667.00	35339.75
667.14	34974.63
667.28	35049.52
667.43	35232.08
667.57	35566.78
667.71	35456.78
667.85	35133.78
667.99	35173.57
668.13	34946.54
668.27	34675.04
668.41	34572.05
668.56	34464.39
668.70	34078.20
668.84	34417.58
668.98	34305.23
669.12	34745.25
669.26	34478.43
669.40	34558.01
669.54	34579.07
669.68	34586.10
669.82	34204.59
669.96	33869.89
670.10	33965.85
670.25	34087.56
670.39	33944.79
670.53	34015.01
670.67	33748.18
670.81	33979.90
670.95	33883.94
671.09	33610.09
671.23	33717.76
671.37	33362.00
671.51	33589.03
671.65	33542.22
671.79	33577.33
671.93	32891.55
672.07	33675.63
672.21	33202.84
672.35	32975.81
672.49	33160.71
672.63	32840.06
672.77	32779.20
672.91	32952.40
673.05	32814.31
673.19	32556.85
673.33	32636.43
673.47	32596.64
673.61	32826.01
673.75	32608.34
673.89	32451.53
674.03	31955.33
674.17	32041.93
674.31	31618.30
674.45	31747.03
674.59	31721.28
674.73	32114.49
674.87	31711.92
675.01	31580.85
675.15	31468.50
675.29	30988.69
675.43	31749.37
675.56	31494.25
675.70	31421.69
675.84	31000.40
675.98	30387.18
676.12	31002.74
676.26	31168.91
676.40	31091.68
676.54	30754.64
676.68	30487.82
676.82	30274.83
676.96	30356.75
677.10	30494.84
677.23	30569.74
677.37	30567.40
677.51	30256.11
677.65	30199.93
677.79	29986.94
677.93	30204.61
678.07	30143.76
678.21	29340.96
678.34	29839.49
678.48	29226.27
678.62	29799.70
678.76	29467.34
678.90	29469.69
679.04	29577.35
679.18	29502.45
679.31	29331.59
679.45	29312.87
679.59	28709.01
679.73	28451.55
679.87	28266.65
680.00	28505.38
680.14	28456.23
680.28	28627.09
680.42	28503.04
680.56	27903.87
680.70	27915.57
680.83	27868.76
680.97	27955.36
681.11	27693.22
681.25	27737.69
681.39	27660.45
681.52	27662.79
681.66	27377.25
681.80	26768.71
681.94	27030.85
682.07	27005.10
682.21	26749.98
682.35	26817.86
682.49	26412.95
682.62	26698.49
682.76	27161.92
682.90	26672.74
683.04	26735.94
683.17	26761.69
683.31	26333.37
683.45	26389.54
683.59	26218.68
683.72	26026.76
683.86	26106.34
684.00	25773.98
684.13	25902.71
684.27	25516.52
684.41	25993.99
684.55	25773.98
684.68	25383.11
684.82	25422.90
684.96	25296.51
685.09	25127.99
685.23	25247.36
685.37	25404.17
685.50	25329.28
685.64	25036.71
685.78	24692.65
685.91	24652.86
686.05	24409.45
686.19	23686.22
686.32	24346.25
686.46	23768.14
686.60	23978.79
686.73	24170.71
686.87	24016.24
687.01	23843.04
687.14	24009.22
687.28	24058.37
687.42	23655.79
687.55	23747.08
687.69	23740.05
687.82	23447.49
687.96	23302.37
688.10	23445.15
688.23	23311.74
688.37	23131.51
688.50	23199.39
688.64	23248.54
688.78	22693.83
688.91	22881.08
689.05	22663.41
689.18	22621.28
689.32	22071.25
689.46	21986.99
689.59	22008.06
689.73	22375.52
689.86	22637.66
690.00	22197.64
690.13	22146.15
690.27	21991.67
690.41	21673.36
690.54	21638.25
690.68	21352.71
690.81	21291.85
690.95	21385.47
691.08	21240.36
691.22	21055.46
691.35	21043.76
691.49	21043.76
691.62	21448.67
691.76	20706.72
691.89	20814.38
692.03	20451.60
692.16	20582.67
692.30	20411.81
692.43	20341.60
692.57	20247.97
692.70	19917.96
692.84	20264.36
692.97	20002.22
693.11	20093.50
693.24	20037.33
693.38	19616.03
693.51	19412.40
693.65	19456.87
693.78	19407.72
693.92	19592.62
694.05	19267.29
694.19	19274.31
694.32	19264.95
694.45	19206.44
694.59	19398.36
694.72	19213.46
694.86	18944.30
694.99	18876.42
695.13	18747.69
695.26	18298.31
695.39	18326.39
695.53	18382.57
695.66	18471.51
695.80	18223.41
695.93	18162.56
696.07	17972.97
696.20	17877.01
696.33	17965.95
696.47	17912.12
696.60	17858.29
696.73	17884.03
696.87	17851.27
697.00	17792.75
697.14	17579.76
697.27	17479.12
697.40	17481.46
697.54	17511.89
697.67	17259.11
697.80	17254.43
697.94	17390.18
698.07	16922.07
698.21	16840.15
698.34	16835.47
698.47	16762.92
698.61	16489.07
698.74	16479.71
698.87	16517.16
699.01	16367.37
699.14	16217.57
699.27	16212.89
699.40	16262.04
699.54	16166.08
699.67	16262.04
699.80	15852.45
699.94	15843.09
700.07	16051.39
700.20	15995.22
700.34	15800.96
700.47	15569.24
700.60	15744.78
700.73	15587.97
700.87	15414.77
701.00	15363.28
701.13	15082.41
701.26	14927.94
701.40	15101.14
701.53	14956.02
701.66	15171.35
701.79	15091.77
701.93	14733.67
702.06	14583.88
702.19	14663.46
702.32	14710.27
702.46	14527.71
702.59	14516.00
702.72	14677.50
702.85	14553.45
702.99	14349.82
703.12	14396.64
703.25	14167.26
703.38	13944.91
703.51	14120.45
703.65	13734.26
703.78	13820.86
703.91	13607.87
704.04	13514.25
704.17	13809.16
704.31	13703.84
704.44	13509.57
704.57	13568.09
704.70	13586.81
704.83	13362.12
704.96	13202.96
705.10	13060.19
705.23	13069.55
>>>>>End Processed Spectral Data<<<<<
