SpectraSuite Data File
++++++++++++++++++++++++++++++++++++
Date: Fri Oct 25 10:48:35 EDT 2013
User: price-jones
Dark Spectrum Present: No
Reference Spectrum Present: No
Number of Sampled Component Spectra: 1
Spectrometers: USB2+H05261
Integration Time (usec): 100000 (USB2+H05261)
Spectra Averaged: 1 (USB2+H05261)
Boxcar Smoothing: 0 (USB2+H05261)
Correct for Electrical Dark: No (USB2+H05261)
Strobe/Lamp Enabled: No (USB2+H05261)
Correct for Detector Non-linearity: No (USB2+H05261)
Correct for Stray Light: No (USB2+H05261)
Number of Pixels in Processed Spectrum: 2048
>>>>>Begin Processed Spectral Data<<<<<
365.73	166.18
365.92	166.18
366.12	166.18
366.32	58.51
366.52	9.36
366.72	86.60
366.91	140.43
367.11	39.79
367.31	112.35
367.51	60.85
367.70	112.35
367.90	32.77
368.10	37.45
368.30	37.45
368.49	16.38
368.69	112.35
368.89	0.00
369.09	21.06
369.28	18.72
369.48	95.96
369.68	67.88
369.87	126.39
370.07	88.94
370.27	147.45
370.47	173.20
370.66	475.13
370.86	423.64
371.06	479.81
371.25	528.96
371.45	526.62
371.65	493.85
371.84	545.34
372.04	496.19
372.24	557.05
372.44	575.77
372.63	578.11
372.83	486.83
373.03	613.22
373.22	547.69
373.42	552.37
373.62	479.81
373.81	552.37
374.01	620.24
374.21	589.82
374.40	631.94
374.60	582.79
374.79	582.79
374.99	557.05
375.19	610.88
375.38	603.86
375.58	613.22
375.78	638.97
375.97	629.60
376.17	674.07
376.37	660.03
376.56	662.37
376.76	575.77
376.95	587.47
377.15	645.99
377.35	622.58
377.54	671.73
377.74	695.14
377.93	777.06
378.13	713.86
378.33	667.05
378.52	678.76
378.72	629.60
378.91	674.07
379.11	594.50
379.31	748.97
379.50	641.31
379.70	730.25
379.89	727.91
380.09	711.52
380.28	695.14
380.48	699.82
380.68	748.97
380.87	744.29
381.07	716.20
381.26	734.93
381.46	800.46
381.65	798.12
381.85	653.01
382.04	755.99
382.24	716.20
382.43	702.16
382.63	795.78
382.83	812.17
383.02	758.33
383.22	847.27
383.41	828.55
383.61	840.25
383.80	751.31
384.00	772.38
384.19	929.19
384.39	784.08
384.58	821.53
384.78	854.30
384.97	884.72
385.17	905.79
385.36	805.14
385.56	828.55
385.75	816.85
385.95	847.27
386.14	903.45
386.34	978.34
386.53	964.30
386.72	875.36
386.92	861.32
387.11	894.08
387.31	994.73
387.50	924.51
387.70	882.38
387.89	971.32
388.09	968.98
388.28	966.64
388.48	1027.50
388.67	1041.54
388.86	978.34
389.06	947.92
389.25	1008.77
389.45	1046.22
389.64	1032.18
389.84	1090.69
390.03	1025.15
390.22	1139.84
390.42	1123.46
390.61	1011.11
390.81	1069.62
391.00	1109.41
391.19	1088.35
391.39	1086.01
391.58	1107.07
391.78	1125.80
391.97	1100.05
392.16	1013.45
392.36	1107.07
392.55	1076.65
392.75	1142.18
392.94	1046.22
393.13	1095.37
393.33	1046.22
393.52	1088.35
393.71	1121.12
393.91	1212.40
394.10	1263.89
394.29	1242.82
394.49	1193.67
394.68	1224.10
394.88	1273.25
395.07	1376.24
395.26	1261.55
395.46	1310.70
395.65	1411.34
395.84	1338.79
396.04	1320.06
396.23	1170.27
396.42	1270.91
396.62	1320.06
396.81	1289.64
397.00	1245.16
397.19	1394.96
397.39	1474.54
397.58	1519.01
397.77	1446.45
397.97	1497.94
398.16	1451.13
398.35	1666.46
398.55	1561.14
398.74	1614.97
398.93	1671.14
399.12	1640.72
399.32	1535.39
399.51	1708.59
399.70	1687.53
399.90	1596.25
400.09	1621.99
400.28	1685.19
400.47	1621.99
400.67	1760.08
400.86	1760.08
401.05	1769.44
401.24	1757.74
401.44	1734.34
401.63	1830.30
401.82	1914.56
402.01	1809.23
402.21	1727.32
402.40	1923.92
402.59	1832.64
402.78	1853.70
402.97	1792.85
403.17	1846.68
403.36	1935.62
403.55	1823.28
403.74	2026.90
403.93	1944.99
404.13	1921.58
404.32	1935.62
404.51	1982.43
404.70	2022.22
404.89	2029.24
405.09	2106.48
405.28	2031.58
405.47	2165.00
405.66	2094.78
405.85	2125.21
406.05	2064.35
406.24	2062.01
406.43	2104.14
406.62	2162.66
406.81	2143.93
407.00	2181.38
407.20	2085.42
407.39	2218.83
407.58	2293.72
407.77	2239.89
407.96	2406.07
408.15	2258.62
408.34	2380.32
408.54	2424.80
408.73	2415.43
408.92	2441.18
409.11	2373.30
409.30	2429.48
409.49	2310.11
409.68	2347.56
409.87	2289.04
410.07	2361.60
410.26	2417.77
410.45	2520.76
410.64	2609.70
410.83	2600.34
411.02	2555.86
411.21	2738.43
411.40	2637.78
411.59	2670.55
411.78	2806.30
411.98	2579.27
412.17	2813.32
412.36	2693.96
412.55	2799.28
412.74	2902.26
412.93	2890.56
413.12	2843.75
413.31	3098.87
413.50	3038.02
413.69	3119.93
413.88	3110.57
414.07	3052.06
414.26	3012.27
414.45	2953.76
414.64	3176.11
414.83	3199.51
415.02	3206.53
415.22	3215.90
415.41	3372.71
415.60	3279.09
415.79	3417.18
415.98	3431.23
416.17	3456.97
416.36	3272.07
416.55	3510.80
416.74	3419.52
416.93	3272.07
417.12	3419.52
417.31	3524.85
417.50	3520.17
417.69	3576.34
417.88	3583.36
418.07	3592.72
418.26	3562.30
418.45	3566.98
418.64	3721.45
418.83	3740.18
419.02	3709.75
419.21	3744.86
419.39	3723.79
419.58	3637.19
419.77	3765.92
419.96	3744.86
420.15	3901.67
420.34	3726.13
420.53	3859.54
420.72	3960.19
420.91	3964.87
421.10	3995.29
421.29	4018.70
421.48	4032.74
421.67	3992.95
421.86	3985.93
422.05	3892.31
422.24	3948.48
422.43	3983.59
422.61	4152.11
422.80	4163.81
422.99	4023.38
423.18	4109.98
423.37	4049.13
423.56	4056.15
423.75	4119.34
423.94	4109.98
424.13	3833.80
424.32	4042.11
424.50	4039.76
424.69	4170.83
424.88	4189.56
425.07	4098.28
425.26	4093.60
425.45	4091.26
425.64	4105.30
425.83	4004.66
426.01	4248.07
426.20	4154.45
426.39	4145.09
426.58	4112.32
426.77	4065.51
426.96	4147.43
427.15	4088.92
427.33	4231.69
427.52	4049.13
427.71	4334.67
427.90	4210.62
428.09	4283.18
428.28	4313.61
428.46	4367.44
428.65	4329.99
428.84	4454.04
429.03	4425.95
429.22	4280.84
429.40	4461.06
429.59	4355.74
429.78	4175.52
429.97	4180.20
430.16	4337.01
430.34	4205.94
430.53	4311.27
430.72	4320.63
430.91	4557.02
431.10	4629.58
431.28	4641.28
431.47	4762.99
431.66	4936.19
431.85	4617.88
432.03	4793.42
432.22	4865.97
432.41	4807.46
432.60	4887.04
432.79	4786.40
432.97	5088.32
433.16	4901.08
433.35	4997.04
433.54	4933.85
433.72	4880.02
433.91	4875.34
434.10	4865.97
434.28	4961.94
434.47	4992.36
434.66	5102.37
434.85	5144.50
435.03	5135.14
435.22	5102.37
435.41	5200.67
435.59	5362.17
435.78	5263.86
435.97	5334.08
436.16	5446.43
436.34	5282.59
436.53	5313.02
436.72	5322.38
436.90	5322.38
437.09	5383.23
437.28	5167.90
437.46	5369.19
437.65	5226.42
437.84	5397.28
438.02	5291.95
438.21	5495.58
438.40	5245.14
438.58	5633.67
438.77	5727.29
438.96	5589.20
439.14	5706.23
439.33	5940.28
439.52	5715.59
439.70	5912.19
439.89	5984.75
440.08	6132.20
440.26	5893.47
440.45	6207.10
440.63	6094.76
440.82	6321.79
441.01	6207.10
441.19	6305.40
441.38	6328.81
441.57	6375.62
441.75	6335.83
441.94	6520.73
442.12	6506.69
442.31	6651.80
442.50	6640.10
442.68	6401.37
442.87	6555.84
443.05	6768.83
443.24	6738.40
443.43	6642.44
443.61	6822.66
443.80	7000.54
443.98	6715.00
444.17	6530.09
444.35	6867.13
444.54	6876.49
444.73	6778.19
444.91	6684.57
445.10	6773.51
445.28	6712.66
445.47	6347.53
445.65	6752.45
445.84	6726.70
446.02	6696.27
446.21	6696.27
446.39	6562.86
446.58	6881.18
446.77	6862.45
446.95	6616.69
447.14	7005.22
447.32	7164.38
447.51	7061.40
447.69	6820.32
447.88	6883.52
448.06	6939.69
448.25	7124.59
448.43	7119.91
448.62	6981.82
448.80	7028.63
448.99	7169.06
449.17	7152.68
449.36	7129.27
449.54	7276.73
449.73	7386.73
449.91	7384.39
450.10	7442.90
450.28	7513.12
450.46	7559.93
450.65	7510.78
450.83	7625.47
451.02	7489.71
451.20	7506.10
451.39	7499.08
451.57	7489.71
451.76	7606.74
451.94	7288.43
452.13	7569.29
452.31	7592.70
452.49	7419.50
452.68	7578.65
452.86	7536.52
453.05	7585.68
453.23	7564.61
453.42	7485.03
453.60	7665.25
453.78	7808.03
453.97	7581.00
454.15	7768.24
454.34	7646.53
454.52	7927.39
454.70	7810.37
454.89	7918.03
455.07	8100.59
455.26	7943.78
455.44	8011.65
455.62	8163.79
455.81	8180.17
455.99	7948.46
456.17	8170.81
456.36	8201.24
456.54	8159.11
456.73	8322.94
456.91	8505.51
457.09	8624.87
457.28	8599.13
457.46	8271.45
457.64	8203.58
457.83	8503.17
458.01	8411.89
458.19	8582.74
458.38	8573.38
458.56	8521.89
458.74	8507.85
458.93	8538.27
459.11	8662.32
459.29	8634.24
459.48	8655.30
459.66	8627.21
459.84	8617.85
460.03	8966.59
460.21	8795.73
460.39	8753.60
460.57	8659.98
460.76	8861.27
460.94	9109.36
461.12	9013.40
461.31	8903.40
461.49	8898.72
461.67	8894.04
461.85	9139.79
462.04	9217.03
462.22	9717.90
462.40	9329.38
462.59	9371.50
462.77	9327.03
462.95	9308.31
463.13	9198.31
463.32	9273.20
463.50	9249.80
463.68	9413.63
463.86	9434.70
464.05	9067.24
464.23	9303.63
464.41	9432.36
464.59	9270.86
464.78	9483.85
464.96	9479.17
465.14	9277.88
465.32	9635.99
465.50	9696.84
465.69	9507.26
465.87	9563.43
466.05	9533.00
466.23	9525.98
466.41	9607.90
466.60	9722.59
466.78	9647.69
466.96	9696.84
467.14	9708.54
467.32	9710.88
467.51	9788.12
467.69	9518.96
467.87	9675.77
468.05	9795.14
468.23	9895.78
468.41	9907.49
468.60	9928.55
468.78	10244.52
468.96	9736.63
469.14	10153.24
469.32	10317.08
469.50	9745.99
469.69	10061.96
469.87	10256.23
470.05	10188.35
470.23	10335.81
470.41	10239.84
470.59	10209.42
470.77	10387.30
470.95	10391.98
471.14	10361.55
471.32	10197.71
471.50	10539.43
471.68	10700.93
471.86	10635.39
472.04	10733.70
472.22	11049.67
472.40	10649.44
472.58	10862.43
472.77	10565.18
472.95	11124.57
473.13	11232.23
473.31	10824.98
473.49	10700.93
473.67	11194.78
473.85	11126.91
474.03	11477.99
474.21	11442.88
474.39	11595.01
474.57	11396.07
474.75	11496.71
474.93	11747.15
475.12	11461.60
475.30	11829.07
475.48	11641.82
475.66	11793.96
475.84	11639.48
476.02	11850.13
476.20	11796.30
476.38	12170.79
476.56	12280.79
476.74	12203.55
476.92	12142.70
477.10	12500.80
477.28	12669.32
477.46	12681.02
477.64	12678.68
477.82	12849.54
478.00	13137.43
478.18	13053.17
478.36	13174.88
478.54	12961.89
478.72	13170.19
478.90	13540.00
479.08	13661.71
479.26	13678.09
479.44	13666.39
479.62	13841.93
479.80	13736.60
479.98	13973.00
480.16	14115.77
480.34	14094.71
480.52	14319.40
480.70	14452.81
480.88	14274.93
481.06	14457.49
481.24	14558.13
481.41	14757.08
481.59	15016.88
481.77	14977.09
481.95	14792.19
482.13	15183.06
482.31	15035.60
482.49	15353.91
482.67	15749.46
482.85	15431.15
483.03	15716.70
483.21	15838.41
483.39	16198.85
483.57	16086.50
483.74	16058.42
483.92	16425.88
484.10	15981.18
484.28	16187.14
484.46	16727.81
484.64	17081.23
484.82	16360.34
485.00	16573.33
485.18	16783.98
485.35	16975.91
485.53	16681.00
485.71	16730.15
485.89	17167.83
486.07	16802.71
486.25	17387.84
486.43	17385.50
486.61	17767.01
486.78	17928.50
486.96	17891.06
487.14	18415.34
487.32	18464.49
487.50	18448.10
487.68	19176.01
487.85	18881.10
488.03	19538.79
488.21	19274.31
488.39	19213.46
488.57	19061.32
488.75	19463.90
488.92	19616.03
489.10	19819.66
489.28	19845.40
489.46	20446.92
489.64	20205.84
489.81	21137.38
489.99	20957.16
490.17	20812.04
490.35	21188.87
490.53	21233.34
490.70	21392.50
490.88	21184.19
491.06	21493.14
491.24	21270.79
491.41	21614.85
491.59	21624.21
491.77	21886.35
491.95	21961.25
492.13	22380.20
492.30	22317.01
492.48	22450.42
492.66	22815.54
492.84	22604.89
493.01	22724.26
493.19	22707.88
493.37	23229.82
493.54	23431.10
493.72	23489.62
493.90	23456.85
494.08	23758.78
494.25	23974.11
494.43	24060.71
494.61	24137.94
494.79	24261.99
494.96	24486.68
495.14	24397.74
495.32	24507.75
495.49	24329.87
495.67	24788.61
495.85	25226.29
496.02	25088.20
496.20	24957.13
496.38	25350.34
496.55	25500.14
496.73	26064.21
496.91	25743.55
497.09	25839.51
497.26	25937.82
497.44	25832.49
497.62	26293.58
497.79	26214.00
497.97	25902.71
498.14	26544.02
498.32	26817.86
498.50	26382.52
498.67	26747.64
498.85	26934.88
499.03	27192.34
499.20	27126.81
499.38	27358.52
499.56	27676.83
499.73	27330.44
499.91	27218.09
500.08	27693.22
500.26	27611.30
500.44	27566.83
500.61	27831.31
500.79	27552.79
500.97	27583.21
501.14	28151.96
501.32	28198.77
501.49	28533.47
501.67	28088.77
501.84	28599.01
502.02	28531.13
502.20	28835.40
502.37	28690.29
502.55	28847.10
502.72	28919.66
502.90	29029.66
503.07	29109.24
503.25	29340.96
503.43	29193.50
503.60	29113.92
503.78	29355.00
503.95	29631.18
504.13	29610.12
504.30	29855.87
504.48	29619.48
504.65	29610.12
504.83	29965.88
505.01	30115.67
505.18	29853.53
505.36	30457.39
505.53	30637.61
505.71	30625.91
505.88	31138.49
506.06	30473.78
506.23	30806.13
506.41	30637.61
506.58	30749.96
506.76	30979.33
506.93	31351.48
507.11	31058.91
507.28	31435.74
507.46	31253.17
507.63	31005.08
507.81	31225.09
507.98	31344.45
508.16	31332.75
508.33	31456.80
508.50	32203.43
508.68	31798.52
508.85	32219.81
509.03	32224.50
509.20	32086.40
509.38	32299.39
509.55	32435.14
509.73	32477.27
509.90	32313.44
510.08	32957.08
510.25	32575.58
510.42	32514.72
510.60	32542.81
510.77	32877.51
510.95	33387.74
511.12	32788.56
511.30	33034.32
511.47	33619.46
511.64	33558.60
511.82	33631.16
511.99	33324.55
512.17	33605.41
512.34	33331.57
512.51	33668.61
512.69	33813.72
512.86	33972.88
513.04	34419.92
513.21	34375.45
513.38	33876.91
513.56	34188.21
513.73	33895.64
513.90	34031.39
514.08	34305.23
514.25	34565.03
514.43	34536.94
514.60	34497.16
514.77	34075.86
514.95	34660.99
515.12	34986.33
515.29	34979.31
515.47	35122.08
515.64	35171.23
515.81	35225.06
515.99	35108.04
516.16	34906.75
516.33	34780.36
516.51	34597.80
516.68	34391.83
516.85	34202.25
517.03	34855.26
517.20	34759.30
517.37	35501.25
517.54	35702.53
517.72	35639.34
517.89	35133.78
518.06	35257.83
518.24	35070.59
518.41	35564.44
518.58	35660.40
518.75	35597.21
518.93	36161.28
519.10	36114.47
519.27	36273.62
519.45	35934.24
519.62	36491.29
519.79	36575.55
519.96	36610.66
520.14	36746.41
520.31	36388.31
520.48	36783.86
520.65	36723.01
520.83	37120.90
521.00	37074.09
521.17	37013.23
521.34	37373.67
521.52	37261.33
521.69	37809.01
521.86	37570.28
522.03	37397.08
522.20	37801.99
522.38	37249.63
522.55	37930.72
522.72	37340.91
522.89	37699.01
523.07	38155.41
523.24	37689.65
523.41	38120.31
523.58	37993.92
523.75	38759.27
523.92	38394.15
524.10	38167.12
524.27	38466.70
524.44	38557.99
524.61	38827.15
524.78	38665.65
524.96	38754.59
525.13	38787.36
525.30	39180.57
525.47	39438.03
525.64	38569.69
525.81	38820.13
525.98	38827.15
526.16	38380.10
526.33	38567.35
526.50	39044.82
526.67	38731.18
526.84	39033.11
527.01	38548.62
527.18	39002.69
527.36	39225.04
527.53	39480.16
527.70	39751.66
527.87	39538.67
528.04	39304.62
528.21	39524.63
528.38	39618.25
528.55	40102.74
528.72	40215.08
528.89	40477.22
529.07	39770.38
529.24	39629.95
529.41	39868.69
529.58	40037.20
529.75	40437.44
529.92	40135.51
530.09	40477.22
530.26	40119.12
530.43	40533.40
530.60	40790.86
530.77	40573.19
530.94	40512.33
531.11	40704.26
531.28	41015.55
531.46	41132.57
531.63	40793.20
531.80	40720.64
531.97	40800.22
532.14	40645.74
532.31	40524.04
532.48	41008.53
532.65	40849.37
532.82	41017.89
532.99	41006.19
533.16	41015.55
533.33	41308.11
533.50	41247.26
533.67	41514.08
533.84	41172.36
534.01	41113.85
534.18	41326.84
534.35	41818.35
534.52	41422.80
534.69	41666.22
534.86	41944.74
535.03	41874.52
535.20	42031.34
535.37	41951.76
535.54	42082.83
535.71	42127.30
535.88	42029.00
536.05	41771.54
536.22	42026.66
536.38	42153.05
536.55	42181.13
536.72	41914.31
536.89	41897.93
537.06	42244.33
537.23	42157.73
537.40	42319.23
537.57	42354.33
537.74	42220.92
537.91	42974.58
538.08	42670.31
538.25	42401.14
538.42	42469.02
538.59	43037.77
538.75	42344.97
538.92	42494.77
539.09	42628.18
539.26	42632.86
539.43	42698.39
539.60	42454.98
539.77	42117.94
539.94	42663.28
540.11	42745.20
540.28	42560.30
540.44	42527.53
540.61	42471.36
540.78	43033.09
540.95	42801.38
541.12	42777.97
541.29	42412.85
541.46	42794.36
541.62	43030.75
541.79	43463.75
541.96	43065.86
542.13	43129.05
542.30	43442.68
542.47	43386.51
542.63	43482.47
542.80	43398.21
542.97	43735.25
543.14	44285.28
543.31	44250.17
543.48	43810.15
543.64	44648.06
543.81	44428.05
543.98	43948.24
544.15	44121.44
544.32	44526.35
544.48	44526.35
544.65	43761.00
544.82	44278.25
544.99	43529.28
545.16	44322.72
545.32	44076.97
545.49	44973.39
545.66	45071.70
545.83	44107.40
546.00	44603.59
546.16	44296.98
546.33	44619.97
546.50	44421.03
546.67	44914.88
546.83	44072.29
547.00	44535.71
547.17	44287.62
547.34	44753.38
547.50	44713.59
547.67	45052.97
547.84	44538.05
548.00	45132.55
548.17	45254.26
548.34	45167.66
548.51	44910.20
548.67	45155.96
548.84	45158.30
549.01	45258.94
549.18	45188.72
549.34	45205.11
549.51	45366.60
549.68	44947.65
549.84	44818.92
550.01	45420.44
550.18	45029.57
550.34	45167.66
550.51	45626.40
550.68	45413.41
550.84	44701.89
551.01	45198.09
551.18	45481.29
551.34	45045.95
551.51	45741.09
551.68	45591.30
551.84	45441.50
552.01	45705.98
552.18	45769.18
552.34	45488.31
552.51	45893.22
552.68	45619.38
552.84	46000.89
553.01	46007.91
553.18	45771.52
553.34	45689.60
553.51	45813.65
553.67	45471.93
553.84	46003.23
554.01	46230.26
554.17	46202.18
554.34	46216.22
554.51	46005.57
554.67	46398.78
554.84	45989.19
555.00	45820.67
555.17	46080.47
555.33	46342.61
555.50	46417.50
555.67	46007.91
555.83	46384.74
556.00	46094.51
556.16	46227.92
556.33	46162.39
556.50	46454.95
556.66	46539.21
556.83	46447.93
556.99	46209.20
557.16	46398.78
557.32	45928.33
557.49	46440.91
557.65	46068.76
557.82	46424.53
557.98	46075.79
558.15	46258.35
558.32	46726.46
558.48	46319.20
558.65	46508.79
558.81	46766.24
558.98	46560.28
559.14	45895.56
559.31	46443.25
559.47	46445.59
559.64	46726.46
559.80	46555.60
559.97	46724.11
560.13	46501.76
560.30	46745.18
560.46	46630.49
560.63	46700.71
560.79	46897.31
560.96	47000.30
561.12	46693.69
561.29	46426.87
561.45	46836.46
561.61	46698.37
561.78	47236.69
561.94	46520.49
562.11	46403.46
562.27	46820.08
562.44	46770.93
562.60	47201.58
562.77	46824.76
562.93	46962.85
563.10	46981.57
563.26	46660.92
563.42	47213.29
563.59	46696.03
563.75	46670.28
563.92	47295.21
564.08	47309.25
564.24	47056.47
564.41	47089.24
564.57	46841.14
564.74	47210.95
564.90	47114.98
565.07	47093.92
565.23	46703.05
565.39	46653.90
565.56	47412.23
565.72	46576.66
565.88	47243.71
566.05	47143.07
566.21	46363.67
566.38	47192.22
566.54	47119.66
566.70	47267.12
566.87	47737.57
567.03	47215.63
567.19	47531.60
567.36	47267.12
567.52	46953.49
567.68	47257.76
567.85	46663.26
568.01	46754.54
568.17	46756.88
568.34	47239.03
568.50	47276.48
568.66	47239.03
568.83	47421.59
568.99	47079.88
569.15	47143.07
569.32	46747.52
569.48	46939.44
569.64	47257.76
569.81	47353.72
569.97	46960.51
570.13	46927.74
570.30	46763.90
570.46	46574.32
570.62	46909.02
570.78	46756.88
570.95	47037.75
571.11	47260.10
571.27	47185.20
571.43	46988.60
571.60	47512.88
571.76	47224.99
571.92	46990.94
572.09	47208.61
572.25	47063.49
572.41	46932.42
572.57	47086.90
572.74	47964.60
572.90	47508.19
573.06	47763.31
573.22	47239.03
573.38	47723.52
573.55	47330.31
573.71	47379.46
573.87	47480.11
574.03	47372.44
574.20	47334.99
574.36	47217.97
574.52	47878.00
574.68	47440.32
574.84	47398.19
575.01	47356.06
575.17	47072.85
575.33	47292.86
575.49	47407.55
575.65	47442.66
575.82	47510.53
575.98	47332.65
576.14	47606.50
576.30	47583.09
576.46	47260.10
576.62	47363.08
576.79	47543.30
576.95	46787.31
577.11	47367.76
577.27	47112.64
577.43	47445.00
577.59	47105.62
577.75	46766.24
577.92	47103.28
578.08	47070.51
578.24	47302.23
578.40	47583.09
578.56	46909.02
578.72	47260.10
578.88	47323.29
579.04	47082.22
579.21	47224.99
579.37	47075.19
579.53	47222.65
579.69	47103.28
579.85	47550.32
580.01	47948.21
580.17	47379.46
580.33	47147.75
580.49	47370.10
580.65	47681.39
580.82	47847.57
580.98	47384.15
581.14	46939.44
581.30	47796.08
581.46	47086.90
581.62	47826.51
581.78	47339.68
581.94	47906.08
582.10	47391.17
582.26	47789.06
582.42	47615.86
582.58	47213.29
582.74	47416.91
582.90	47452.02
583.06	47714.16
583.22	47573.73
583.38	47482.45
583.54	47653.31
583.70	47510.53
583.86	47885.02
584.02	47098.60
584.18	47597.13
584.34	47913.11
584.50	48112.05
584.66	47220.31
584.82	47807.78
584.98	47597.13
585.14	47503.51
585.30	47461.38
585.46	47576.07
585.62	46979.23
585.78	47297.55
585.94	46969.87
586.10	47440.32
586.26	47426.28
586.42	47693.10
586.58	47430.96
586.74	47512.88
586.90	47629.90
587.06	47119.66
587.22	47665.01
587.38	47349.04
587.54	47693.10
587.70	47817.14
587.86	47625.22
588.02	47650.97
588.18	47578.41
588.34	47138.39
588.49	47152.43
588.65	47042.43
588.81	46791.99
588.97	46721.77
589.13	46637.51
589.29	47201.58
589.45	47304.57
589.61	47051.79
589.77	47547.98
589.93	47679.05
590.08	47669.69
590.24	47241.37
590.40	47899.06
590.56	47969.28
590.72	47578.41
590.88	47220.31
591.04	47885.02
591.20	47913.11
591.35	48034.81
591.51	47980.98
591.67	47363.08
591.83	47547.98
591.99	47337.33
592.15	46948.81
592.31	47749.27
592.46	47608.84
592.62	47477.77
592.78	47587.77
592.94	47878.00
593.10	47753.95
593.26	47772.67
593.41	47641.60
593.57	47662.67
593.73	47594.79
593.89	47810.12
594.05	47349.04
594.20	47529.26
594.36	47826.51
594.52	47316.27
594.68	47599.47
594.84	47339.68
594.99	47786.72
595.15	47327.97
595.31	48411.64
595.47	47693.10
595.62	47611.18
595.78	47852.25
595.94	47955.24
596.10	47983.32
596.25	47870.98
596.41	48257.17
596.57	47751.61
596.73	47866.30
596.88	47592.45
597.04	47831.19
597.20	47524.58
597.36	47819.49
597.51	47756.29
597.67	47835.87
597.83	47770.33
597.99	48100.35
598.14	47901.40
598.30	47606.50
598.46	47402.87
598.61	47632.24
598.77	47459.04
598.93	47594.79
599.09	47522.24
599.24	48446.75
599.40	48215.04
599.56	47892.04
599.71	47885.02
599.87	47882.68
600.03	47676.71
600.18	47447.34
600.34	47428.62
600.50	47828.85
600.65	47714.16
600.81	48208.01
600.97	47817.14
601.12	47576.07
601.28	48088.65
601.44	47810.12
601.59	47395.85
601.75	47393.51
601.91	47683.73
602.06	47515.22
602.22	47515.22
602.37	47693.10
602.53	47566.71
602.69	47957.58
602.84	47576.07
603.00	47484.79
603.16	47482.45
603.31	47536.28
603.47	47562.03
603.62	47459.04
603.78	48126.10
603.94	47571.39
604.09	48093.33
604.25	47463.72
604.40	47730.54
604.56	47702.46
604.71	47604.16
604.87	47545.64
605.03	47430.96
605.18	47552.66
605.34	47564.37
605.49	47466.06
605.65	47576.07
605.80	47402.87
605.96	47517.56
606.12	47412.23
606.27	47870.98
606.43	47423.93
606.58	47646.29
606.74	47332.65
606.89	47199.24
607.05	47302.23
607.20	47070.51
607.36	47117.32
607.51	47709.48
607.67	47168.82
607.82	47302.23
607.98	47655.65
608.13	47737.57
608.29	47276.48
608.44	47234.35
608.60	46894.97
608.75	46670.28
608.91	47140.73
609.06	47323.29
609.22	47578.41
609.37	46913.70
609.53	47482.45
609.68	47379.46
609.84	47105.62
609.99	47107.96
610.15	47107.96
610.30	46866.89
610.46	46859.87
610.61	47012.00
610.76	46955.83
610.92	47093.92
611.07	46705.39
611.23	47168.82
611.38	46983.91
611.54	47070.51
611.69	46831.78
611.84	46651.56
612.00	46710.07
612.15	46988.60
612.31	46857.52
612.46	46946.47
612.62	46962.85
612.77	46770.93
612.92	46904.34
613.08	47000.30
613.23	46742.84
613.39	46333.24
613.54	46342.61
613.69	46536.87
613.85	46408.14
614.00	47028.38
614.15	46607.09
614.31	46583.68
614.46	46646.88
614.62	46761.56
614.77	46323.88
614.92	46447.93
615.08	46031.32
615.23	46178.77
615.38	46192.81
615.54	46169.41
615.69	46656.24
615.84	45998.55
616.00	45619.38
616.15	46429.21
616.30	46415.16
616.46	46241.96
616.61	45900.25
616.76	45982.16
616.92	46052.38
617.07	46094.51
617.22	45364.26
617.37	45823.01
617.53	45848.75
617.68	46185.79
617.83	46031.32
617.99	46445.59
618.14	46403.46
618.29	45900.25
618.45	45792.58
618.60	45649.81
618.75	45652.15
618.90	45823.01
619.06	45846.41
619.21	45888.54
619.36	46045.36
619.51	45811.31
619.67	45766.84
619.82	45420.44
619.97	46143.66
620.12	45408.73
620.28	45390.01
620.43	45904.93
620.58	45918.97
620.73	45638.11
620.89	44877.43
621.04	45642.79
621.19	45511.72
621.34	45514.06
621.49	45132.55
621.65	45221.49
621.80	45542.14
621.95	45013.18
622.10	45448.52
622.25	45074.04
622.41	44856.37
622.56	45106.80
622.71	45474.27
622.86	44964.03
623.01	45251.92
623.16	45263.62
623.32	45261.28
623.47	45247.24
623.62	45078.72
623.77	45024.89
623.92	45212.13
624.07	44729.98
624.23	44477.20
624.38	45081.06
624.53	44556.78
624.68	44879.77
624.83	45062.33
624.98	44776.79
625.13	44421.03
625.29	44697.21
625.44	44502.95
625.59	44669.12
625.74	44615.29
625.89	44472.52
626.04	44032.50
626.19	44470.18
626.34	44790.83
626.49	44697.21
626.65	44119.10
626.80	44622.31
626.95	44385.92
627.10	44690.19
627.25	44222.08
627.40	44091.01
627.55	43709.50
627.70	43838.23
627.85	43672.06
628.00	43966.96
628.15	44659.76
628.30	43709.50
628.45	43700.14
628.60	43821.85
628.76	44126.12
628.91	44191.65
629.06	43786.74
629.21	43634.61
629.36	43983.35
629.51	43428.64
629.66	43571.41
629.81	43388.85
629.96	43943.56
630.11	43821.85
630.26	43421.62
630.41	43966.96
630.56	43335.02
630.71	43672.06
630.86	43323.32
631.01	43817.17
631.16	44121.44
631.31	43337.36
631.46	43033.09
631.61	43456.73
631.76	43084.58
631.91	43538.65
632.06	43285.87
632.21	43707.16
632.36	43709.50
632.51	43007.34
632.66	43276.51
632.81	43309.27
632.96	42981.60
633.10	42988.62
633.25	42787.33
633.40	43058.84
633.55	43316.29
633.70	42820.10
633.85	42995.64
634.00	43178.20
634.15	43133.73
634.30	42932.45
634.45	42944.15
634.60	42682.01
634.75	43131.39
634.90	43311.61
635.05	42911.38
635.19	43449.70
635.34	43213.31
635.49	42930.11
635.64	42909.04
635.79	42370.72
635.94	42471.36
636.09	42864.57
636.24	42653.92
636.39	42775.63
636.53	42246.67
636.68	42609.45
636.83	42382.42
636.98	42892.66
637.13	42759.25
637.28	42651.58
637.43	42485.40
637.57	42593.07
637.72	42359.02
637.87	42562.64
638.02	42394.12
638.17	42183.48
638.32	41844.10
638.46	41935.38
638.61	42295.82
638.76	41862.82
638.91	42234.97
639.06	42351.99
639.20	41947.08
639.35	42684.35
639.50	41940.06
639.65	42174.11
639.80	42452.64
639.94	41652.17
640.09	41895.59
640.24	41811.33
640.39	41706.01
640.54	41476.63
640.68	41481.31
640.83	41698.98
640.98	41808.99
641.13	41785.58
641.27	41720.05
641.42	41546.85
641.57	41383.01
641.72	41638.13
641.86	41233.22
642.01	41525.78
642.16	41968.15
642.31	41305.77
642.45	41982.19
642.60	41317.48
642.75	41167.68
642.90	41048.32
643.04	41233.22
643.19	41120.87
643.34	41060.02
643.48	41083.42
643.63	41359.61
643.78	41656.85
643.93	40891.50
644.07	40858.73
644.22	41139.60
644.37	40669.15
644.51	40886.82
644.66	41069.38
644.81	41031.93
644.95	41177.04
645.10	40870.43
645.25	41024.91
645.39	40844.69
645.54	41280.03
645.69	40893.84
645.83	41057.68
645.98	40921.93
646.13	40828.30
646.27	41174.70
646.42	40645.74
646.57	40657.45
646.71	41099.81
646.86	40917.25
647.00	40737.02
647.15	40465.52
647.30	40458.50
647.44	40437.44
647.59	40708.94
647.74	40708.94
647.88	40425.73
648.03	40210.40
648.17	40519.35
648.32	39735.27
648.47	40355.52
648.61	39981.03
648.76	40404.67
648.90	40184.66
649.05	40252.53
649.20	40444.46
649.34	40285.30
649.49	40102.74
649.63	39849.96
649.78	40212.74
649.92	39824.22
650.07	40720.64
650.21	40399.99
650.36	40519.35
650.51	39854.64
650.65	40409.35
650.80	40556.80
650.94	40222.11
651.09	40074.65
651.23	40119.12
651.38	39742.30
651.52	39557.39
651.67	39871.03
651.81	39690.80
651.96	39515.26
652.10	39763.36
652.25	39164.18
652.39	39473.13
652.54	39768.04
652.68	39587.82
652.83	39407.60
652.97	39667.40
653.12	39681.44
653.26	39431.01
653.41	40055.93
653.55	39466.11
653.70	39590.16
653.84	39435.69
653.99	39611.23
654.13	39491.86
654.27	39168.87
654.42	39662.72
654.56	39559.73
654.71	39208.65
654.85	39246.10
655.00	38579.05
655.14	39402.92
655.29	38778.00
655.43	38843.53
655.57	38700.76
655.72	38457.34
655.86	38792.04
656.01	38539.26
656.15	38108.60
656.30	38258.40
656.44	38487.77
656.58	38476.07
656.73	38433.94
656.87	38607.14
657.01	38401.17
657.16	38113.28
657.30	38476.07
657.45	38384.79
657.59	38504.15
657.73	38007.96
657.88	38710.12
658.02	38609.48
658.16	38501.81
658.31	38232.65
658.45	38593.09
658.60	38284.14
658.74	38817.78
658.88	39033.11
659.03	38225.63
659.17	38124.99
659.31	38225.63
659.46	37778.59
659.60	38092.22
659.74	38487.77
659.89	37488.36
660.03	37701.35
660.17	38183.50
660.32	38246.69
660.46	37848.80
660.60	37883.91
660.74	38066.47
660.89	37797.31
661.03	37422.83
661.17	37216.86
661.32	37282.39
661.46	37420.48
661.60	37539.85
661.74	37385.38
661.89	37247.29
662.03	37376.01
662.17	37123.24
662.31	37085.79
662.46	37481.34
662.60	37144.30
662.74	36795.56
662.88	36903.23
663.03	37050.68
663.17	36711.30
663.31	36570.87
663.45	37193.45
663.60	36776.84
663.74	36425.76
663.88	36392.99
664.02	36175.32
664.17	36374.27
664.31	36074.68
664.45	36367.24
664.59	36737.05
664.73	36687.90
664.88	36446.82
665.02	36430.44
665.16	36072.34
665.30	36217.45
665.44	35948.29
665.59	35604.23
665.73	35629.98
665.87	35842.96
666.01	35655.72
666.15	35725.94
666.29	35728.28
666.44	35828.92
666.58	35894.46
666.72	35590.19
666.86	35749.34
667.00	35599.55
667.14	35775.09
667.28	35665.08
667.43	35604.23
667.57	35789.13
667.71	35407.62
667.85	35269.53
667.99	35108.04
668.13	35196.98
668.27	34911.43
668.41	34995.69
668.56	34827.17
668.70	35145.48
668.84	34745.25
668.98	34382.47
669.12	34794.40
669.26	34412.90
669.40	34710.14
669.54	34181.18
669.68	34728.87
669.82	34089.90
669.96	34125.01
670.10	34080.54
670.25	34412.90
670.39	34330.98
670.53	33862.87
670.67	33443.91
670.81	34459.71
670.95	34473.75
671.09	34160.12
671.23	33895.64
671.37	34043.09
671.51	33570.30
671.65	33593.71
671.79	33696.69
671.93	33401.79
672.07	33703.71
672.21	33642.86
672.35	32964.10
672.49	33303.48
672.63	33509.45
672.77	32701.96
672.91	32690.26
673.05	33221.56
673.19	32938.36
673.33	32929.00
673.47	32854.10
673.61	32800.27
673.75	32334.50
673.89	32488.98
674.03	32474.93
674.17	32350.88
674.31	32636.43
674.45	32250.24
674.59	32364.93
674.73	32081.72
674.87	32243.22
675.01	32238.54
675.15	31950.65
675.29	32149.60
675.43	31697.88
675.56	31842.99
675.70	31688.51
675.84	31302.32
675.98	30478.46
676.12	31175.94
676.26	31583.19
676.40	30806.13
676.54	31314.03
676.68	30932.52
676.82	30635.27
676.96	30742.94
677.10	31115.08
677.23	30752.30
677.37	30625.91
677.51	30408.24
677.65	30466.75
677.79	30129.72
677.93	30054.82
678.07	29766.93
678.21	29727.14
678.34	29570.33
678.48	29675.65
678.62	29546.92
678.76	29385.43
678.90	29383.09
679.04	29813.74
679.18	29687.36
679.31	29333.93
679.45	29252.02
679.59	29240.31
679.73	29296.49
679.87	28884.55
680.00	29296.49
680.14	28793.27
680.28	28739.44
680.42	28418.78
680.56	28479.64
680.70	28458.57
680.83	28510.07
680.97	28121.54
681.11	28493.68
681.25	27910.89
681.39	28079.41
681.52	27840.67
681.66	27908.55
681.80	27953.02
681.94	27847.69
682.07	28013.87
682.21	27655.77
682.35	27686.20
682.49	27470.87
682.62	27618.32
682.76	27351.50
682.90	26918.50
683.04	27213.41
683.17	26778.07
683.31	26965.31
683.45	26749.98
683.59	26724.24
683.72	26417.63
683.86	26291.24
684.00	26237.41
684.13	26539.33
684.27	26368.48
684.41	26272.51
684.55	26176.55
684.68	25888.67
684.82	25766.96
684.96	25869.94
685.09	25401.83
685.23	25759.94
685.37	25638.23
685.50	25647.59
685.64	25565.67
685.78	25371.41
685.91	25008.62
686.05	25174.80
686.19	24940.75
686.32	24975.86
686.46	24844.79
686.60	24697.33
686.73	24149.65
686.87	23936.66
687.01	24147.31
687.14	23644.09
687.28	23639.41
687.42	23723.67
687.55	23676.86
687.69	23475.57
687.82	23344.50
687.96	23653.45
688.10	23634.73
688.23	23782.18
688.37	23211.09
688.50	23133.86
688.64	22986.40
688.78	22979.38
688.91	22827.24
689.05	22998.10
689.18	22693.83
689.32	22640.00
689.46	22799.16
689.59	22766.39
689.73	23007.47
689.86	22899.80
690.00	22632.98
690.13	22714.90
690.27	22483.19
690.41	22249.13
690.54	21963.59
690.68	21750.60
690.81	22005.72
690.95	21827.84
691.08	21888.69
691.22	21689.74
691.35	21415.90
691.49	21640.59
691.62	21844.22
691.76	21378.45
691.89	21532.93
692.03	21317.60
692.16	21219.30
692.30	21109.29
692.43	20900.98
692.57	21097.59
692.70	20919.71
692.84	20568.63
692.97	20854.17
693.11	20526.50
693.24	20273.72
693.38	20292.44
693.51	20004.56
693.65	20226.91
693.78	20149.67
693.92	20439.90
694.05	20257.34
694.19	19962.43
694.32	19967.11
694.45	19749.44
694.59	19356.23
694.72	19325.80
694.86	19557.52
694.99	19433.47
695.13	19108.13
695.26	18829.61
695.39	19061.32
695.53	19339.85
695.66	18951.32
695.80	19035.58
695.93	19157.28
696.07	19068.34
696.20	18857.70
696.33	18586.19
696.47	18792.16
696.60	18724.29
696.73	18649.39
696.87	18422.36
697.00	18565.13
697.14	18569.81
697.27	18146.17
697.40	18256.18
697.54	18059.57
697.67	17453.37
697.80	17862.97
697.94	17851.27
698.07	17680.41
698.21	17666.36
698.34	17678.07
698.47	17523.59
698.61	17273.15
698.74	17338.69
698.87	17153.79
699.01	17025.06
699.14	17057.82
699.27	17074.21
699.40	16999.31
699.54	16837.81
699.67	16463.33
699.80	16891.65
699.94	16711.42
700.07	16446.94
700.20	16428.22
700.34	16428.22
700.47	16592.06
700.60	16596.74
700.73	16259.70
700.87	16189.49
701.00	16203.53
701.13	16215.23
701.26	15836.06
701.40	16105.23
701.53	15864.15
701.66	15946.07
701.79	15751.81
701.93	15702.65
702.06	15625.42
702.19	15594.99
702.32	15599.67
702.46	15583.29
702.59	15300.08
702.72	15161.99
702.85	15304.76
702.99	15173.69
703.12	15243.91
703.25	15089.43
703.38	14890.49
703.51	15101.14
703.65	14883.47
703.78	14768.78
703.91	14757.08
704.04	14771.12
704.17	14726.65
704.31	14225.78
704.44	14251.52
704.57	14216.41
704.70	14052.58
704.83	14209.39
704.96	14352.16
705.10	14253.86
705.23	14274.93
>>>>>End Processed Spectral Data<<<<<
