SpectraSuite Data File
++++++++++++++++++++++++++++++++++++
Date: Fri Oct 25 10:43:43 EDT 2013
User: price-jones
Dark Spectrum Present: No
Reference Spectrum Present: No
Number of Sampled Component Spectra: 1
Spectrometers: USB2+H05261
Integration Time (usec): 100000 (USB2+H05261)
Spectra Averaged: 1 (USB2+H05261)
Boxcar Smoothing: 0 (USB2+H05261)
Correct for Electrical Dark: No (USB2+H05261)
Strobe/Lamp Enabled: No (USB2+H05261)
Correct for Detector Non-linearity: No (USB2+H05261)
Correct for Stray Light: No (USB2+H05261)
Number of Pixels in Processed Spectrum: 2048
>>>>>Begin Processed Spectral Data<<<<<
365.73	117.03
365.92	117.03
366.12	117.03
366.32	44.47
366.52	0.00
366.72	44.47
366.91	0.00
367.11	28.09
367.31	28.09
367.51	0.00
367.70	0.00
367.90	46.81
368.10	0.00
368.30	0.00
368.49	0.00
368.69	65.54
368.89	30.43
369.09	0.00
369.28	0.00
369.48	0.00
369.68	21.06
369.87	95.96
370.07	60.85
370.27	124.05
370.47	201.29
370.66	372.15
370.86	393.21
371.06	421.30
371.25	535.98
371.45	447.04
371.65	463.43
371.84	486.83
372.04	500.87
372.24	507.90
372.44	409.59
372.63	589.82
372.83	461.09
373.03	503.22
373.22	496.19
373.42	568.75
373.62	545.34
373.81	559.39
374.01	512.58
374.21	629.60
374.40	557.05
374.60	585.13
374.79	573.43
374.99	547.69
375.19	615.56
375.38	603.86
375.58	688.12
375.78	599.18
375.97	601.52
376.17	690.46
376.37	559.39
376.56	589.82
376.76	676.41
376.95	627.26
377.15	681.10
377.35	617.90
377.54	653.01
377.74	608.54
377.93	662.37
378.13	648.33
378.33	695.14
378.52	596.84
378.72	720.88
378.91	650.67
379.11	589.82
379.31	624.92
379.50	638.97
379.70	697.48
379.89	622.58
380.09	671.73
380.28	683.44
380.48	716.20
380.68	641.31
380.87	699.82
381.07	716.20
381.26	690.46
381.46	688.12
381.65	636.63
381.85	688.12
382.04	690.46
382.24	725.57
382.43	662.37
382.63	697.48
382.83	688.12
383.02	690.46
383.22	699.82
383.41	662.37
383.61	763.01
383.80	770.04
384.00	901.11
384.19	758.33
384.39	767.70
384.58	770.04
384.78	819.19
384.97	781.74
385.17	746.63
385.36	777.06
385.56	805.14
385.75	699.82
385.95	800.46
386.14	873.02
386.34	828.55
386.53	821.53
386.72	844.93
386.92	837.91
387.11	840.25
387.31	861.32
387.50	819.19
387.70	868.34
387.89	966.64
388.09	856.64
388.28	891.74
388.48	929.19
388.67	947.92
388.86	966.64
389.06	961.96
389.25	966.64
389.45	1057.92
389.64	908.13
389.84	1022.81
390.03	1071.97
390.22	1039.20
390.42	966.64
390.61	952.60
390.81	1022.81
391.00	938.55
391.19	1067.28
391.39	1008.77
391.58	999.41
391.78	1025.15
391.97	983.02
392.16	1029.84
392.36	1100.05
392.55	1055.58
392.75	1078.99
392.94	971.32
393.13	1046.22
393.33	1039.20
393.52	1036.86
393.71	1095.37
393.91	1050.90
394.10	1104.73
394.29	1203.04
394.49	1116.44
394.68	1203.04
394.88	1313.04
395.07	1179.63
395.26	1284.95
395.46	1259.21
395.65	1336.45
395.84	1219.42
396.04	1245.16
396.23	1186.65
396.42	1102.39
396.62	1203.04
396.81	1198.35
397.00	1109.41
397.19	1263.89
397.39	1329.42
397.58	1453.47
397.77	1369.21
397.97	1362.19
398.16	1427.73
398.35	1446.45
398.55	1528.37
398.74	1465.18
398.93	1376.24
399.12	1458.15
399.32	1448.79
399.51	1554.12
399.70	1519.01
399.90	1514.33
400.09	1558.80
400.28	1621.99
400.47	1605.61
400.67	1708.59
400.86	1732.00
401.05	1650.08
401.24	1621.99
401.44	1666.46
401.63	1682.85
401.82	1743.70
402.01	1661.78
402.21	1769.44
402.40	1710.93
402.59	1703.91
402.78	1792.85
402.97	1771.79
403.17	1823.28
403.36	1792.85
403.55	1881.79
403.74	1839.66
403.93	1827.96
404.13	1774.13
404.32	1851.36
404.51	1863.07
404.70	1905.20
404.89	1853.70
405.09	1994.14
405.28	1942.64
405.47	1832.64
405.66	1874.77
405.85	1984.77
406.05	1959.03
406.24	2031.58
406.43	2080.74
406.62	2132.23
406.81	2153.29
407.00	2024.56
407.20	1952.01
407.39	2064.35
407.58	2143.93
407.77	2129.89
407.96	2211.81
408.15	2202.44
408.34	2150.95
408.54	2310.11
408.73	2298.41
408.92	2251.60
409.11	2272.66
409.30	2204.78
409.49	2277.34
409.68	2150.95
409.87	2296.07
410.07	2354.58
410.26	2249.25
410.45	2396.71
410.64	2532.46
410.83	2590.97
411.02	2499.69
411.21	2626.08
411.40	2495.01
411.59	2637.78
411.78	2487.99
411.98	2534.80
412.17	2712.68
412.36	2717.36
412.55	2745.45
412.74	2717.36
412.93	2661.19
413.12	2708.00
413.31	2918.65
413.50	2808.64
413.69	2920.99
413.88	2939.71
414.07	2911.63
414.26	2960.78
414.45	2911.63
414.64	2911.63
414.83	3016.95
415.02	3021.63
415.22	3101.21
415.41	3070.78
415.60	3150.36
415.79	3201.85
415.98	3293.13
416.17	3199.51
416.36	3176.11
416.55	3236.96
416.74	3220.58
416.93	3197.17
417.12	3201.85
417.31	3269.73
417.50	3321.22
417.69	3433.57
417.88	3414.84
418.07	3391.44
418.26	3351.65
418.45	3506.12
418.64	3681.66
418.83	3559.95
419.02	3583.36
419.21	3494.42
419.39	3538.89
419.58	3492.08
419.77	3531.87
419.96	3569.32
420.15	3749.54
420.34	3742.52
420.53	3824.44
420.72	3782.31
420.91	3779.97
421.10	3772.94
421.29	3719.11
421.48	3880.61
421.67	3712.09
421.86	3665.28
422.05	3763.58
422.24	3789.33
422.43	3798.69
422.61	3922.74
422.80	3906.35
422.99	3878.27
423.18	3892.31
423.37	4032.74
423.56	4025.72
423.75	3976.57
423.94	3882.95
424.13	3700.39
424.32	3777.62
424.50	3964.87
424.69	4093.60
424.88	4016.36
425.07	3936.78
425.26	3824.44
425.45	3850.18
425.64	3943.80
425.83	3843.16
426.01	4004.66
426.20	3957.85
426.39	4124.02
426.58	3915.72
426.77	3894.65
426.96	3985.93
427.15	3964.87
427.33	3950.82
427.52	3936.78
427.71	4079.55
427.90	4079.55
428.09	4189.56
428.28	4212.96
428.46	4306.59
428.65	3957.85
428.84	4168.49
429.03	4320.63
429.22	4133.39
429.40	4124.02
429.59	4102.96
429.78	3997.64
429.97	3894.65
430.16	3962.53
430.34	4142.75
430.53	4203.60
430.72	4142.75
430.91	4131.05
431.10	4250.41
431.28	4376.80
431.47	4533.62
431.66	4587.45
431.85	4346.37
432.03	4648.30
432.22	4669.37
432.41	4367.44
432.60	4606.17
432.79	4695.11
432.97	4821.50
433.16	4706.82
433.35	4638.94
433.54	4650.64
433.72	4669.37
433.91	4547.66
434.10	4594.47
434.28	4802.78
434.47	4798.10
434.66	4896.40
434.85	4842.57
435.03	4961.94
435.22	4973.64
435.41	5008.75
435.59	5163.22
435.78	5027.47
435.97	5043.85
436.16	5011.09
436.34	5188.97
436.53	5137.48
436.72	5142.16
436.90	5142.16
437.09	5179.61
437.28	5097.69
437.46	5055.56
437.65	5261.52
437.84	5231.10
438.02	5233.44
438.21	5055.56
438.40	5090.67
438.58	5348.12
438.77	5226.42
438.96	5268.55
439.14	5362.17
439.33	5614.95
439.52	5507.28
439.70	5558.77
439.89	5664.10
440.08	5556.43
440.26	5551.75
440.45	5659.42
440.63	5806.87
440.82	5799.85
441.01	5788.14
441.19	5998.79
441.38	5944.96
441.57	5930.92
441.75	6026.88
441.94	6300.72
442.12	6230.51
442.31	6277.32
442.50	6274.98
442.68	6190.72
442.87	6324.13
443.05	6286.68
443.24	6420.09
443.43	6317.11
443.61	6406.05
443.80	6628.40
443.98	6464.56
444.17	6202.42
444.35	6272.64
444.54	6649.46
444.73	6497.33
444.91	6459.88
445.10	6502.01
445.28	6361.58
445.47	6399.02
445.65	6319.45
445.84	6469.24
446.02	6511.37
446.21	6466.90
446.39	6551.16
446.58	6502.01
446.77	6525.41
446.95	6715.00
447.14	6740.74
447.32	6759.47
447.51	6530.09
447.69	6588.61
447.88	6733.72
448.06	6698.61
448.25	6698.61
448.43	6799.26
448.62	6607.33
448.80	6761.81
448.99	6555.84
449.17	6794.58
449.36	6836.70
449.54	6853.09
449.73	6867.13
449.91	7082.46
450.10	7272.04
450.28	7171.40
450.46	7063.74
450.65	7225.23
450.83	7358.64
451.02	7101.19
451.20	7283.75
451.39	7300.13
451.57	6979.48
451.76	7250.98
451.94	7171.40
452.13	7260.34
452.31	7119.91
452.49	7068.42
452.68	7290.77
452.86	7204.17
453.05	7152.68
453.23	7297.79
453.42	7297.79
453.60	7349.28
453.78	7379.71
453.97	7283.75
454.15	7503.76
454.34	7318.86
454.52	7410.14
454.70	7506.10
454.89	7562.27
455.07	7494.40
455.26	7506.10
455.44	7606.74
455.62	7634.83
455.81	7887.61
455.99	7683.98
456.17	7698.02
456.36	7637.17
456.54	7985.91
456.73	7957.82
456.91	7932.08
457.09	8067.83
457.28	8149.75
457.46	8081.87
457.64	8051.44
457.83	8234.00
458.01	8100.59
458.19	8304.22
458.38	8124.00
458.56	8255.07
458.74	8166.13
458.93	8381.46
459.11	8217.62
459.29	8217.62
459.48	8173.15
459.66	8276.13
459.84	8458.70
460.03	8512.53
460.21	8505.51
460.39	8533.59
460.57	8372.10
460.76	8629.56
460.94	8561.68
461.12	8608.49
461.31	8657.64
461.49	8606.15
461.67	8872.97
461.85	9018.08
462.04	8674.03
462.22	9111.71
462.40	8891.70
462.59	8788.71
462.77	8929.14
462.95	8774.67
463.13	8805.10
463.32	8978.30
463.50	9004.04
463.68	9090.64
463.86	8842.54
464.05	8709.13
464.23	8943.19
464.41	9083.62
464.59	8723.18
464.78	9121.07
464.96	9160.86
465.14	8992.34
465.32	9167.88
465.50	9434.70
465.69	9217.03
465.87	9284.91
466.05	8940.85
466.23	9064.89
466.41	9083.62
466.60	9287.25
466.78	9210.01
466.96	9125.75
467.14	9233.41
467.32	9331.72
467.51	9605.56
467.69	9128.09
467.87	9277.88
468.05	9561.09
468.23	9357.46
468.41	9362.14
468.60	9586.83
468.78	9523.64
468.96	9465.13
469.14	9738.97
469.32	9830.25
469.50	9692.16
469.69	9633.64
469.87	9816.21
470.05	9872.38
470.23	9710.88
470.41	9657.05
470.59	9685.14
470.77	9912.17
470.95	10207.08
471.14	10162.61
471.32	9729.61
471.50	9928.55
471.68	10200.05
471.86	10375.59
472.04	10396.66
472.22	10637.73
472.40	10214.10
472.58	10361.55
472.77	10429.43
472.95	10403.68
473.13	10520.71
473.31	10530.07
473.49	10593.26
473.67	10525.39
473.85	10743.06
474.03	10949.03
474.21	10944.34
474.39	10897.53
474.57	11005.20
474.75	11136.27
474.93	11133.93
475.12	11201.80
475.30	11208.83
475.48	11094.14
475.66	11173.72
475.84	11117.54
476.02	11396.07
476.20	11477.99
476.38	11473.31
476.56	11805.66
476.74	11709.70
476.92	11768.21
477.10	11590.33
477.28	11934.39
477.46	11758.85
477.64	12322.92
477.82	12273.77
478.00	12327.60
478.18	12292.49
478.36	12521.87
478.54	12835.50
478.72	12681.02
478.90	12695.07
479.08	12854.22
479.26	13247.43
479.44	13006.36
479.62	13137.43
479.80	13289.56
479.98	13401.91
480.16	13429.99
480.34	13535.32
480.52	13834.91
480.70	13799.80
480.88	13776.39
481.06	13846.61
481.24	13977.68
481.41	14033.85
481.59	14008.11
481.77	14235.14
481.95	14359.19
482.13	14471.53
482.31	14413.02
482.49	14876.44
482.67	14890.49
482.85	15094.11
483.03	14967.73
483.21	15166.67
483.39	15349.23
483.57	15283.70
483.74	15550.52
483.92	15688.61
484.10	15426.47
484.28	15672.23
484.46	15819.68
484.64	16280.77
484.82	15983.52
485.00	16088.84
485.18	16458.65
485.35	16339.28
485.53	16100.55
485.71	16409.50
485.89	16348.64
486.07	16376.73
486.25	16292.47
486.43	16603.76
486.61	16844.84
486.78	17128.04
486.96	17315.28
487.14	17575.08
487.32	17397.20
487.50	17916.80
487.68	17783.39
487.85	18476.19
488.03	18342.78
488.21	18359.16
488.39	18508.96
488.57	18670.45
488.75	18607.26
488.92	19171.33
489.10	19133.88
489.28	19349.21
489.46	19564.54
489.64	19365.59
489.81	19686.25
489.99	19962.43
490.17	20114.56
490.35	19971.79
490.53	20034.99
490.70	20589.69
490.88	20610.76
491.06	20540.54
491.24	20594.37
491.41	20505.43
491.59	20737.15
491.77	20503.09
491.95	20823.75
492.13	21362.07
492.30	21348.03
492.48	21373.77
492.66	21766.98
492.84	21563.36
493.01	22286.58
493.19	21853.58
493.37	21947.20
493.54	22188.28
493.72	22249.13
493.90	22586.17
494.08	23065.98
494.25	23154.92
494.43	23187.69
494.61	23204.07
494.79	23171.30
494.96	23417.06
495.14	23307.05
495.32	23534.09
495.49	23662.82
495.67	23644.09
495.85	24049.00
496.02	24023.26
496.20	23946.02
496.38	24444.56
496.55	24725.42
496.73	24699.67
496.91	25097.56
497.09	25017.99
497.26	25336.30
497.44	24954.79
497.62	24931.39
497.79	25015.65
497.97	25036.71
498.14	25062.46
498.32	25500.14
498.50	25617.16
498.67	25928.45
498.85	25844.20
499.03	26279.54
499.20	26150.81
499.38	26455.08
499.56	26298.26
499.73	26405.92
499.91	26469.12
500.08	26335.71
500.26	26066.55
500.44	26443.37
500.61	26497.20
500.79	26555.72
500.97	26623.59
501.14	27077.66
501.32	26625.93
501.49	27096.38
501.67	26789.77
501.84	26820.20
502.02	27384.27
502.20	27281.28
502.37	27847.69
502.55	27868.76
502.72	27920.25
502.90	27971.74
503.07	27569.17
503.25	27843.01
503.43	27887.48
503.60	28140.26
503.78	28273.67
503.95	28238.56
504.13	28306.44
504.30	28425.81
504.48	28566.24
504.65	28355.59
504.83	28872.85
505.01	29132.65
505.18	29060.09
505.36	29207.55
505.53	29390.11
505.71	29511.81
505.88	29619.48
506.06	29249.67
506.23	29455.64
506.41	29376.06
506.58	29858.21
506.76	29560.97
506.93	29771.61
507.11	29818.42
507.28	30003.33
507.46	29876.94
507.63	29972.90
507.81	30129.72
507.98	30036.09
508.16	30235.04
508.33	30089.93
508.50	30546.33
508.68	30572.08
508.85	30911.46
509.03	30869.33
509.20	31002.74
509.38	31136.15
509.55	31068.27
509.73	31222.75
509.90	31358.50
510.08	31295.30
510.25	31164.23
510.42	31519.99
510.60	31927.25
510.77	31674.47
510.95	31634.68
511.12	31941.29
511.30	31915.54
511.47	31974.06
511.64	32205.77
511.82	32158.96
511.99	32084.06
512.17	31892.14
512.34	32067.68
512.51	32505.36
512.69	32374.29
512.86	32889.21
513.04	32716.01
513.21	32634.09
513.38	32779.20
513.56	32978.15
513.73	32692.60
513.90	33083.47
514.08	32524.08
514.25	32671.54
514.43	32786.22
514.60	33156.03
514.77	33113.90
514.95	33549.24
515.12	33050.70
515.29	33383.06
515.47	34249.06
515.64	33556.26
515.81	33565.62
515.99	33699.03
516.16	33469.66
516.33	33104.54
516.51	33757.55
516.68	32903.25
516.85	33003.89
517.03	33633.50
517.20	33621.80
517.37	34272.46
517.54	34333.32
517.72	34005.64
517.89	33940.11
518.06	34073.52
518.24	33825.42
518.41	34263.10
518.58	34452.69
518.75	34916.11
518.93	34604.82
519.10	34763.98
519.27	34747.59
519.45	35023.78
519.62	35063.57
519.79	34972.28
519.96	35299.96
520.14	35208.68
520.31	35161.87
520.48	35089.31
520.65	35037.82
520.83	35665.08
521.00	35842.96
521.17	35800.83
521.34	35917.86
521.52	35814.88
521.69	36224.47
521.86	36353.20
522.03	36250.22
522.20	36135.53
522.38	36313.41
522.55	36601.30
522.72	35807.86
522.89	36030.21
523.07	36308.73
523.24	36336.82
523.41	36570.87
523.58	36865.78
523.75	37158.34
523.92	37198.13
524.10	37006.21
524.27	36987.49
524.44	37558.58
524.61	37244.94
524.78	37436.87
524.96	37303.46
525.13	37935.40
525.30	37607.73
525.47	37411.12
525.64	37699.01
525.81	37504.74
525.98	37682.62
526.16	37195.79
526.33	37202.82
526.50	37216.86
526.67	37343.25
526.84	37350.27
527.01	37277.71
527.18	37914.34
527.36	37809.01
527.53	38232.65
527.70	38263.08
527.87	38007.96
528.04	38054.77
528.21	38298.19
528.38	38246.69
528.55	38515.86
528.72	38632.88
528.89	38677.35
529.07	38511.17
529.24	38555.64
529.41	38665.65
529.58	38450.32
529.75	38981.62
529.92	38775.66
530.09	38731.18
530.26	39304.62
530.43	38895.02
530.60	38677.35
530.77	39262.49
530.94	39225.04
531.11	38679.69
531.28	39262.49
531.46	39414.62
531.63	39473.13
531.80	39166.52
531.97	39599.52
532.14	39466.11
532.31	38618.84
532.48	39416.96
532.65	39601.86
532.82	39414.62
532.99	39482.50
533.16	39393.56
533.33	39660.38
533.50	39679.10
533.67	39803.15
533.84	39786.77
534.01	39882.73
534.18	40250.19
534.35	40430.41
534.52	40348.50
534.69	40208.06
534.86	40456.16
535.03	40254.87
535.20	40327.43
535.37	40636.38
535.54	41003.85
535.71	40383.60
535.88	40559.14
536.05	40620.00
536.22	40584.89
536.38	40715.96
536.55	40147.21
536.72	40236.15
536.89	40570.85
537.06	40268.92
537.23	41193.43
537.40	40982.78
537.57	40954.69
537.74	41053.00
537.91	41350.24
538.08	41291.73
538.25	40933.63
538.42	41202.79
538.59	41268.33
538.75	41219.17
538.92	41322.16
539.09	41394.71
539.26	41703.67
539.43	41357.27
539.60	41418.12
539.77	41074.06
539.94	40882.14
540.11	41385.35
540.28	40825.96
540.44	41631.11
540.61	41787.92
540.78	41081.08
540.95	41460.25
541.12	41567.91
541.29	41677.92
541.46	41832.39
541.62	41766.86
541.79	41902.61
541.96	41600.68
542.13	41998.57
542.30	41720.05
542.47	41984.53
542.63	41661.54
542.80	42202.20
542.97	42525.19
543.14	42939.47
543.31	42576.69
543.48	42747.54
543.64	42740.52
543.81	42682.01
543.98	42586.05
544.15	42588.39
544.32	42328.59
544.48	42745.20
544.65	42653.92
544.82	42485.40
544.99	42831.80
545.16	42899.68
545.32	42864.57
545.49	43281.19
545.66	43093.94
545.83	43374.81
546.00	43215.65
546.16	43023.73
546.33	43084.58
546.50	42845.85
546.67	43426.30
546.83	42731.16
547.00	42869.25
547.17	42845.85
547.34	43157.14
547.50	43023.73
547.67	43842.92
547.84	43538.65
548.00	43599.50
548.17	43892.07
548.34	43342.04
548.51	43962.28
548.67	43929.51
548.84	43578.43
549.01	43192.25
549.18	43697.80
549.34	43718.87
549.51	43459.07
549.68	43835.89
549.84	43559.71
550.01	44170.59
550.18	43859.30
550.34	44016.11
550.51	44154.21
550.68	44025.48
550.84	43304.59
551.01	43683.76
551.18	44320.38
551.34	44240.81
551.51	43997.39
551.68	44264.21
551.84	44680.83
552.01	43981.01
552.18	43655.67
552.34	44198.68
552.51	44135.48
552.68	43966.96
552.84	44409.32
553.01	44442.09
553.18	44296.98
553.34	44591.89
553.51	44325.07
553.67	44091.01
553.84	44776.79
554.01	44168.25
554.17	44498.26
554.34	44339.11
554.51	44505.29
554.67	44748.70
554.84	44605.93
555.00	44406.98
555.17	44477.20
555.33	44423.37
555.50	44961.69
555.67	44678.49
555.83	44547.42
556.00	44935.95
556.16	45069.36
556.33	44891.48
556.50	44734.66
556.66	44540.39
556.83	44502.95
556.99	44711.25
557.16	45085.74
557.32	45244.90
557.49	45029.57
557.65	44741.68
557.82	44931.26
557.98	44697.21
558.15	45106.80
558.32	44877.43
558.48	44896.16
558.65	44718.28
558.81	44502.95
558.98	45062.33
559.14	44959.35
559.31	44933.60
559.47	45020.20
559.64	45090.42
559.80	45146.59
559.97	45371.28
560.13	44945.31
560.30	44835.30
560.46	44966.37
560.63	45249.58
560.79	45158.30
560.96	45563.21
561.12	45235.53
561.29	44989.78
561.45	45195.74
561.61	44959.35
561.78	45797.26
561.94	45277.66
562.11	45167.66
562.27	45310.43
562.44	45532.78
562.60	45399.37
562.77	45127.87
562.93	45350.22
563.10	45406.39
563.26	45074.04
563.42	45221.49
563.59	45261.28
563.75	45762.15
563.92	46017.27
564.08	45441.50
564.24	45734.07
564.41	45839.39
564.57	45467.25
564.74	45359.58
564.90	45272.98
565.07	45333.84
565.23	45659.17
565.39	45549.17
565.56	45827.69
565.72	45083.40
565.88	45230.85
566.05	45352.56
566.21	45446.18
566.38	45607.68
566.54	45514.06
566.70	46188.13
566.87	45886.20
567.03	45483.63
567.19	45834.71
567.36	46124.94
567.52	45500.01
567.68	45647.47
567.85	45713.00
568.01	45708.32
568.17	45710.66
568.34	46019.61
568.50	45272.98
568.66	45607.68
568.83	46012.59
568.99	45375.97
569.15	45631.08
569.32	45579.59
569.48	45661.51
569.64	45808.96
569.81	45815.99
569.97	45776.20
570.13	45544.48
570.30	45272.98
570.46	45687.26
570.62	45586.61
570.78	45345.54
570.95	45340.86
571.11	45521.08
571.27	45713.00
571.43	45467.25
571.60	45986.85
571.76	45404.05
571.92	46143.66
572.09	45972.80
572.25	45881.52
572.41	45743.43
572.57	46017.27
572.74	46138.98
572.90	46220.90
573.06	46036.00
573.22	45902.59
573.38	45858.12
573.55	45549.17
573.71	46356.65
573.87	46225.58
574.03	46038.34
574.20	45584.27
574.36	46176.43
574.52	45940.04
574.68	45848.75
574.84	46026.63
575.01	45736.41
575.17	46024.29
575.33	45682.58
575.49	45701.30
575.65	46120.26
575.82	46094.51
575.98	45729.39
576.14	46286.43
576.30	46068.76
576.46	46101.53
576.62	45776.20
576.79	45446.18
576.95	45478.95
577.11	46117.92
577.27	45855.78
577.43	46075.79
577.59	45682.58
577.75	45682.58
577.92	45579.59
578.08	45492.99
578.24	45649.81
578.40	45628.74
578.56	45989.19
578.72	46387.08
578.88	46131.96
579.04	46239.62
579.21	45801.94
579.37	45984.51
579.53	45717.68
579.69	45757.47
579.85	45869.82
580.01	45928.33
580.17	45935.35
580.33	46047.70
580.49	46028.98
580.65	45949.40
580.82	45921.31
580.98	45947.06
581.14	45811.31
581.30	46127.28
581.46	45851.09
581.62	45937.69
581.78	46087.49
581.94	46014.93
582.10	46040.68
582.26	46227.92
582.42	45958.76
582.58	46225.58
582.74	45881.52
582.90	46429.21
583.06	46326.22
583.22	45909.61
583.38	46436.23
583.54	46185.79
583.70	46328.56
583.86	46190.47
584.02	45755.13
584.18	46162.39
584.34	46068.76
584.50	45801.94
584.66	45764.49
584.82	45654.49
584.98	46445.59
585.14	46256.01
585.30	45759.81
585.46	46368.35
585.62	45818.33
585.78	45801.94
585.94	45951.74
586.10	45743.43
586.26	45961.10
586.42	46143.66
586.58	46014.93
586.74	45874.50
586.90	45872.16
587.06	46134.30
587.22	46270.05
587.38	45759.81
587.54	45764.49
587.70	46485.38
587.86	46136.64
588.02	46277.07
588.18	46337.93
588.34	45993.87
588.49	45521.08
588.65	45357.24
588.81	45542.14
588.97	45752.79
589.13	45603.00
589.29	45799.60
589.45	45869.82
589.61	45970.46
589.77	46698.37
589.93	46052.38
590.08	46328.56
590.24	46405.80
590.40	46213.88
590.56	46302.82
590.72	46342.61
590.88	46108.55
591.04	45893.22
591.20	46693.69
591.35	46689.01
591.51	46564.96
591.67	46401.12
591.83	45813.65
591.99	46075.79
592.15	46375.37
592.31	45991.53
592.46	46045.36
592.62	46136.64
592.78	46637.51
592.94	46291.12
593.10	46258.35
593.26	46344.95
593.41	46382.40
593.57	45696.62
593.73	45900.25
593.89	46466.66
594.05	46471.34
594.20	45757.47
594.36	46171.75
594.52	46574.32
594.68	46284.09
594.84	46164.73
594.99	46363.67
595.15	45640.45
595.31	46050.04
595.47	46064.08
595.62	46368.35
595.78	46464.32
595.94	46244.30
596.10	46461.97
596.25	46239.62
596.41	46410.48
596.57	46192.81
596.73	46059.40
596.88	46284.09
597.04	46012.59
597.20	46358.99
597.36	46373.03
597.51	46471.34
597.67	45921.31
597.83	46649.22
597.99	46356.65
598.14	46131.96
598.30	46333.24
598.46	46717.09
598.61	46429.21
598.77	46089.83
598.93	46424.53
599.09	46354.31
599.24	47100.94
599.40	45968.12
599.56	46934.76
599.71	45727.05
599.87	46602.41
600.03	46171.75
600.18	46234.94
600.34	46127.28
600.50	46146.00
600.65	46312.18
600.81	46263.03
600.97	46667.94
601.12	46157.70
601.28	46080.47
601.44	46038.34
601.59	46080.47
601.75	46000.89
601.91	45893.22
602.06	46160.05
602.22	46473.68
602.37	46494.74
602.53	46113.23
602.69	46588.36
602.84	46394.10
603.00	46096.85
603.16	45916.63
603.31	46188.13
603.47	46164.73
603.62	46019.61
603.78	46621.13
603.94	46389.42
604.09	46597.73
604.25	46110.89
604.40	46052.38
604.56	45766.84
604.71	46340.27
604.87	46433.89
605.03	46302.82
605.18	46220.90
605.34	46059.40
605.49	45944.72
605.65	45820.67
605.80	46209.20
605.96	46405.80
606.12	46197.49
606.27	46358.99
606.43	46101.53
606.58	45834.71
606.74	46155.36
606.89	46197.49
607.05	46075.79
607.20	46258.35
607.36	46176.43
607.51	46316.86
607.67	46050.04
607.82	45752.79
607.98	45923.65
608.13	45453.20
608.29	45804.28
608.44	45549.17
608.60	45422.78
608.75	45902.59
608.91	45874.50
609.06	45769.18
609.22	46071.10
609.37	45415.76
609.53	45556.19
609.68	45715.34
609.84	45570.23
609.99	45675.55
610.15	45736.41
610.30	45397.03
610.46	45118.51
610.61	45324.47
610.76	45998.55
610.92	45881.52
611.07	45642.79
611.23	45869.82
611.38	45837.05
611.54	45432.14
611.69	45221.49
611.84	45158.30
612.00	45670.87
612.15	45200.43
612.31	45509.38
612.46	45352.56
612.62	45418.10
612.77	45141.91
612.92	45397.03
613.08	45448.52
613.23	45008.50
613.39	44882.11
613.54	45361.92
613.69	45546.82
613.85	44964.03
614.00	44975.73
614.15	45160.64
614.31	45223.83
614.46	45336.18
614.62	45024.89
614.77	45057.65
614.92	45095.10
615.08	45291.71
615.23	44598.91
615.38	45088.08
615.54	44591.89
615.69	44718.28
615.84	44502.95
616.00	45076.38
616.15	45120.85
616.30	45074.04
616.46	44786.15
616.61	44570.82
616.76	44566.14
616.92	44083.99
617.07	44554.44
617.22	44406.98
617.37	44737.00
617.53	44942.97
617.68	45174.68
617.83	44741.68
617.99	44739.34
618.14	44507.63
618.29	44334.43
618.45	44320.38
618.60	44055.90
618.75	44179.95
618.90	44336.77
619.06	44369.54
619.21	44208.04
619.36	44268.89
619.51	44355.49
619.67	43896.75
619.82	44355.49
619.97	44650.40
620.12	43824.19
620.28	43557.37
620.43	44383.58
620.58	44282.94
620.73	44430.39
620.89	44168.25
621.04	44100.37
621.19	44196.34
621.34	44027.82
621.49	43660.35
621.65	43803.13
621.80	44414.01
621.95	44158.89
622.10	43833.55
622.25	43700.14
622.41	43985.69
622.56	43592.48
622.71	44151.87
622.86	44027.82
623.01	43936.54
623.16	43852.28
623.32	43882.70
623.47	43634.61
623.62	44215.06
623.77	43653.33
623.92	43501.20
624.07	43786.74
624.23	43442.68
624.38	43543.33
624.53	43309.27
624.68	43550.35
624.83	43054.15
624.98	43281.19
625.13	43126.71
625.29	43122.03
625.44	43435.66
625.59	42953.51
625.74	42518.17
625.89	43042.45
626.04	43283.53
626.19	43124.37
626.34	43257.78
626.49	43407.58
626.65	42782.65
626.80	43295.23
626.95	42836.48
627.10	42686.69
627.25	42953.51
627.40	42873.93
627.55	42518.17
627.70	42492.43
627.85	42562.64
628.00	42703.07
628.15	42855.21
628.30	43012.02
628.45	42499.45
628.60	42714.78
628.76	42728.82
628.91	42822.44
629.06	42714.78
629.21	42464.34
629.36	42167.09
629.51	42281.78
629.66	42384.76
629.81	41968.15
629.96	42120.28
630.11	42024.32
630.26	43030.75
630.41	42719.46
630.56	42148.37
630.71	42134.32
630.86	42583.71
631.01	41825.37
631.16	42075.81
631.31	41921.34
631.46	41808.99
631.61	41879.21
631.76	42171.77
631.91	41893.25
632.06	42073.47
632.21	42293.48
632.36	42260.71
632.51	41799.63
632.66	41488.34
632.81	41390.03
632.96	42103.90
633.10	41563.23
633.25	41663.88
633.40	41762.18
633.55	42000.91
633.70	41837.08
633.85	41401.74
634.00	41799.63
634.15	41682.60
634.30	41113.85
634.45	41708.35
634.60	41549.19
634.75	41308.11
634.90	41600.68
635.05	41111.51
635.19	41624.09
635.34	41827.71
635.49	41446.21
635.64	41294.07
635.79	41684.94
635.94	41174.70
636.09	40896.18
636.24	41380.67
636.39	40751.07
636.53	41020.23
636.68	41294.07
636.83	41195.77
636.98	41106.83
637.13	40907.88
637.28	41289.39
637.43	41483.66
637.57	41413.44
637.72	40676.17
637.87	41184.07
638.02	40807.24
638.17	41141.94
638.32	40863.41
638.46	40856.39
638.61	40554.46
638.76	40753.41
638.91	40332.11
639.06	40835.33
639.20	41015.55
639.35	41193.43
639.50	41083.42
639.65	40575.53
639.80	40687.87
639.94	40418.71
640.09	40985.12
640.24	40573.19
640.39	40498.29
640.54	40460.84
640.68	40643.40
640.83	40517.01
640.98	40556.80
641.13	40278.28
641.27	40318.07
641.42	40072.31
641.57	40292.32
641.72	40172.96
641.86	39938.90
642.01	39791.45
642.16	40116.78
642.31	39634.63
642.45	40053.59
642.60	39564.42
642.75	39950.60
642.90	39999.76
643.04	39812.51
643.19	39866.34
643.34	39749.32
643.48	39917.84
643.63	40100.40
643.78	40069.97
643.93	40233.81
644.07	39423.98
644.22	39388.88
644.37	39983.37
644.51	39524.63
644.66	39620.59
644.81	40065.29
644.95	39594.84
645.10	39833.58
645.25	39969.33
645.39	40027.84
645.54	39662.72
645.69	40013.80
645.83	39180.57
645.98	39295.25
646.13	39622.93
646.27	39189.93
646.42	39332.70
646.57	39489.52
646.71	39339.72
646.86	39161.84
647.00	39484.84
647.15	38969.92
647.30	39037.80
647.44	39569.10
647.59	39372.49
647.74	38768.63
647.88	39122.05
648.03	39381.85
648.17	39166.52
648.32	38375.42
648.47	39192.27
648.61	38794.38
648.76	39271.85
648.90	38873.96
649.05	39100.99
649.20	39246.10
649.34	39332.70
649.49	38539.26
649.63	38511.17
649.78	39194.61
649.92	38731.18
650.07	39175.89
650.21	38548.62
650.36	39129.08
650.51	39164.18
650.65	39372.49
650.80	39189.93
650.94	38817.78
651.09	39159.50
651.23	38513.52
651.38	38724.16
651.52	38120.31
651.67	37858.17
651.81	38354.36
651.96	38499.47
652.10	38574.37
652.25	38352.02
652.39	38637.56
652.54	38396.49
652.68	38078.18
652.83	38312.23
652.97	38742.89
653.12	38415.21
653.26	38124.99
653.41	38206.90
653.55	38108.60
653.70	37757.52
653.84	38476.07
653.99	37935.40
654.13	38052.43
654.27	37865.19
654.42	37949.45
654.56	37801.99
654.71	38026.68
654.85	37752.84
655.00	37544.53
655.14	37738.80
655.29	37317.50
655.43	37652.20
655.57	37359.63
655.72	37144.30
655.86	37600.71
656.01	36947.70
656.15	36989.83
656.30	37291.76
656.44	37106.85
656.58	37125.58
656.73	37385.38
656.87	37036.64
657.01	36800.24
657.16	37170.05
657.30	36797.90
657.45	37036.64
657.59	37141.96
657.73	37081.11
657.88	37422.83
658.02	36966.42
658.16	37682.62
658.31	37443.89
658.45	37762.20
658.60	37085.79
658.74	36961.74
658.88	36952.38
659.03	37031.96
659.17	36563.85
659.31	36605.98
659.46	36783.86
659.60	36856.42
659.74	36292.35
659.89	36730.03
660.03	36856.42
660.17	36669.17
660.32	36584.91
660.46	36580.23
660.60	36495.97
660.74	36456.18
660.89	36676.19
661.03	36290.01
661.17	36114.47
661.32	36222.13
661.46	36212.77
661.60	36383.63
661.74	36236.17
661.89	36322.77
662.03	36444.48
662.17	36046.59
662.31	36086.38
662.46	36402.35
662.60	36432.78
662.74	35819.56
662.88	35665.08
663.03	35393.58
663.17	35693.17
663.31	35501.25
663.45	35681.47
663.60	35648.70
663.74	35192.30
663.88	35091.65
664.02	35302.30
664.17	35330.39
664.31	35119.74
664.45	34866.96
664.59	34883.34
664.73	35093.99
664.88	34635.25
665.02	35075.27
665.16	35014.41
665.30	34604.82
665.44	35091.65
665.59	34457.37
665.73	34677.38
665.87	34569.71
666.01	34731.21
666.15	34761.64
666.29	34686.74
666.44	34881.00
666.58	34539.29
666.72	34602.48
666.86	34569.71
667.00	34424.60
667.14	34340.34
667.28	33916.70
667.43	34366.09
667.57	34525.24
667.71	34323.96
667.85	34171.82
667.99	33907.34
668.13	34195.23
668.27	34106.29
668.41	34127.35
668.56	33565.62
668.70	33670.95
668.84	33399.44
668.98	33464.98
669.12	33553.92
669.26	33626.48
669.40	33858.19
669.54	33582.01
669.68	33933.09
669.82	32999.21
669.96	33230.93
670.10	32776.86
670.25	33340.93
670.39	32622.39
670.53	33083.47
670.67	33092.83
670.81	33015.60
670.95	32645.79
671.09	32404.72
671.23	32861.12
671.37	32446.85
671.51	33102.20
671.65	32306.41
671.79	32259.60
671.93	32566.21
672.07	32149.60
672.21	32231.52
672.35	32275.99
672.49	32236.20
672.63	32339.18
672.77	31468.50
672.91	32170.66
673.05	31833.63
673.19	31885.12
673.33	31683.83
673.47	31522.34
673.61	31468.50
673.75	31260.20
673.89	31119.76
674.03	31103.38
674.17	31098.70
674.31	31164.23
674.45	31201.68
674.59	31269.56
674.73	31239.13
674.87	31033.16
675.01	30658.68
675.15	30773.36
675.29	30520.59
675.43	30773.36
675.56	30930.18
675.70	30831.88
675.84	30508.88
675.98	29631.18
676.12	30345.05
676.26	30230.36
676.40	30155.46
676.54	30288.87
676.68	30256.11
676.82	29383.09
676.96	30068.86
677.10	29743.53
677.23	29806.72
677.37	29722.46
677.51	29813.74
677.65	29301.17
677.79	28680.92
677.93	29130.31
678.07	28505.38
678.21	28879.87
678.34	28882.21
678.48	28655.18
678.62	28760.50
678.76	28680.92
678.90	28498.36
679.04	28591.98
679.18	28229.20
679.31	27969.40
679.45	28166.01
679.59	27960.04
679.73	28217.50
679.87	28161.33
680.00	28023.23
680.14	27974.08
680.28	28058.34
680.42	27634.71
680.56	27468.53
680.70	27606.62
680.83	27379.59
680.97	27433.42
681.11	27232.13
681.25	27562.15
681.39	26981.70
681.52	27131.49
681.66	26941.91
681.80	26855.31
681.94	26661.04
682.07	26431.67
682.21	26424.65
682.35	26625.93
682.49	26331.03
682.62	26251.45
682.76	26237.41
682.90	25984.63
683.04	26452.73
683.17	25930.80
683.31	25912.07
683.45	25855.90
683.59	25530.56
683.72	25633.55
683.86	25673.34
684.00	25582.06
684.13	25371.41
684.27	25404.17
684.41	25371.41
684.55	24938.41
684.68	25221.61
684.82	24737.12
684.96	24840.11
685.09	24912.66
685.23	24341.57
685.37	24898.62
685.50	24500.73
685.64	24540.52
685.78	24271.36
685.91	24217.52
686.05	24067.73
686.19	23700.26
686.32	23892.19
686.46	23452.17
686.60	23417.06
686.73	23161.94
686.87	23412.38
687.01	23225.14
687.14	23051.94
687.28	22878.74
687.42	22913.84
687.55	22965.34
687.69	22946.61
687.82	22885.76
687.96	22808.52
688.10	22953.63
688.23	22340.41
688.37	22349.78
688.50	22740.64
688.64	22663.41
688.78	22661.07
688.91	22202.32
689.05	22052.53
689.18	21982.31
689.32	21671.02
689.46	22176.58
689.59	22256.15
689.73	22155.51
689.86	21315.26
690.00	21605.49
690.13	21558.67
690.27	21528.25
690.41	21312.92
690.54	21195.89
690.68	21198.23
690.81	21245.04
690.95	21050.78
691.08	21055.46
691.22	20994.61
691.35	21245.04
691.49	21137.38
691.62	20992.26
691.76	20788.64
691.89	20774.60
692.03	20346.28
692.16	20519.48
692.30	20203.50
692.43	19978.81
692.57	20243.29
692.70	20458.62
692.84	20084.14
692.97	19859.45
693.11	19782.21
693.24	19726.04
693.38	19747.10
693.51	19374.95
693.65	19880.51
693.78	19438.15
693.92	19616.03
694.05	19044.94
694.19	19414.74
694.32	19435.81
694.45	19337.51
694.59	18953.66
694.72	19103.45
694.86	18906.85
694.99	18778.12
695.13	18677.48
695.26	18642.37
695.39	18396.61
695.53	18661.09
695.66	18614.28
695.80	18387.25
695.93	18448.10
696.07	18066.60
696.20	18202.35
696.33	18195.32
696.47	18017.44
696.60	18071.28
696.73	17956.59
696.87	17645.30
697.00	17516.57
697.14	17385.50
697.27	17528.27
697.40	17708.49
697.54	17170.17
697.67	17502.53
697.80	17238.05
697.94	16945.48
698.07	17034.42
698.21	17319.96
698.34	17209.96
698.47	16786.32
698.61	16683.34
698.74	16765.26
698.87	16706.74
699.01	16421.20
699.14	16617.80
699.27	16475.03
699.40	16320.56
699.54	16388.43
699.67	16514.82
699.80	15885.22
699.94	15894.58
700.07	15878.19
700.20	16112.25
700.34	15740.10
700.47	16020.97
700.60	15817.34
700.73	15824.36
700.87	15602.01
701.00	15517.75
701.13	15707.34
701.26	15379.66
701.40	15321.15
701.53	15222.84
701.66	15108.16
701.79	15199.44
701.93	15042.62
702.06	14806.23
702.19	14864.74
702.32	14867.08
702.46	14597.92
702.59	14813.25
702.72	15105.82
702.85	14679.84
702.99	14513.66
703.12	14459.83
703.25	14424.72
703.38	14342.80
703.51	14265.57
703.65	14607.28
703.78	14195.35
703.91	13956.61
704.04	13914.48
704.17	14242.16
704.31	13989.38
704.44	13893.42
704.57	13947.25
704.70	13760.01
704.83	13692.13
704.96	13617.24
705.10	13844.27
705.23	13401.91
>>>>>End Processed Spectral Data<<<<<
