SpectraSuite Data File
++++++++++++++++++++++++++++++++++++
Date: Fri Oct 25 11:33:56 EDT 2013
User: price-jones
Dark Spectrum Present: No
Reference Spectrum Present: No
Number of Sampled Component Spectra: 1
Spectrometers: USB2+H05261
Integration Time (usec): 100000 (USB2+H05261)
Spectra Averaged: 1 (USB2+H05261)
Boxcar Smoothing: 0 (USB2+H05261)
Correct for Electrical Dark: No (USB2+H05261)
Strobe/Lamp Enabled: No (USB2+H05261)
Correct for Detector Non-linearity: No (USB2+H05261)
Correct for Stray Light: No (USB2+H05261)
Number of Pixels in Processed Spectrum: 2048
>>>>>Begin Processed Spectral Data<<<<<
365.73	292.57
365.92	292.57
366.12	292.57
366.32	166.18
366.52	191.92
366.72	163.84
366.91	175.54
367.11	166.18
367.31	182.56
367.51	161.50
367.70	154.48
367.90	140.43
368.10	187.24
368.30	236.39
368.49	159.16
368.69	236.39
368.89	196.60
369.09	135.75
369.28	248.10
369.48	159.16
369.68	210.65
369.87	222.35
370.07	248.10
370.27	320.65
370.47	341.72
370.66	435.34
370.86	444.70
371.06	521.94
371.25	500.87
371.45	505.56
371.65	505.56
371.84	575.77
372.04	528.96
372.24	599.18
372.44	559.39
372.63	622.58
372.83	653.01
373.03	580.45
373.22	636.63
373.42	641.31
373.62	622.58
373.81	697.48
374.01	657.69
374.21	624.92
374.40	617.90
374.60	688.12
374.79	538.32
374.99	594.50
375.19	664.71
375.38	683.44
375.58	674.07
375.78	716.20
375.97	641.31
376.17	655.35
376.37	688.12
376.56	697.48
376.76	615.56
376.95	690.46
377.15	648.33
377.35	573.43
377.54	667.05
377.74	688.12
377.93	702.16
378.13	725.57
378.33	704.50
378.52	744.29
378.72	746.63
378.91	669.39
379.11	744.29
379.31	716.20
379.50	688.12
379.70	744.29
379.89	763.01
380.09	718.54
380.28	727.91
380.48	674.07
380.68	713.86
380.87	711.52
381.07	725.57
381.26	805.14
381.46	746.63
381.65	711.52
381.85	760.67
382.04	814.51
382.24	711.52
382.43	765.36
382.63	760.67
382.83	802.80
383.02	812.17
383.22	880.04
383.41	802.80
383.61	784.08
383.80	730.25
384.00	898.77
384.19	791.10
384.39	891.74
384.58	866.00
384.78	870.68
384.97	833.23
385.17	828.55
385.36	751.31
385.56	821.53
385.75	828.55
385.95	805.14
386.14	847.27
386.34	793.44
386.53	915.15
386.72	828.55
386.92	924.51
387.11	828.55
387.31	910.47
387.50	898.77
387.70	840.25
387.89	882.38
388.09	812.17
388.28	954.94
388.48	947.92
388.67	957.28
388.86	964.30
389.06	915.15
389.25	896.43
389.45	978.34
389.64	910.47
389.84	968.98
390.03	971.32
390.22	961.96
390.42	922.17
390.61	926.85
390.81	961.96
391.00	945.58
391.19	973.66
391.39	976.00
391.58	964.30
391.78	973.66
391.97	997.07
392.16	1039.20
392.36	1062.60
392.55	1046.22
392.75	1090.69
392.94	1055.58
393.13	1090.69
393.33	1008.77
393.52	994.73
393.71	1118.78
393.91	1078.99
394.10	1062.60
394.29	1139.84
394.49	1156.22
394.68	1167.93
394.88	1160.91
395.07	1207.72
395.26	1102.39
395.46	1121.12
395.65	1137.50
395.84	1191.33
396.04	1238.14
396.23	1210.06
396.42	1179.63
396.62	1245.16
396.81	1151.54
397.00	1181.97
397.19	1224.10
397.39	1240.48
397.58	1308.36
397.77	1196.01
397.97	1221.76
398.16	1212.40
398.35	1322.40
398.55	1261.55
398.74	1287.29
398.93	1299.00
399.12	1327.08
399.32	1205.38
399.51	1231.12
399.70	1359.85
399.90	1397.30
400.09	1369.21
400.28	1434.75
400.47	1458.15
400.67	1338.79
400.86	1399.64
401.05	1437.09
401.24	1296.66
401.44	1355.17
401.63	1371.55
401.82	1376.24
402.01	1483.90
402.21	1460.49
402.40	1416.02
402.59	1432.41
402.78	1600.93
402.97	1497.94
403.17	1617.31
403.36	1570.50
403.55	1493.26
403.74	1589.22
403.93	1629.01
404.13	1575.18
404.32	1624.33
404.51	1650.08
404.70	1596.25
404.89	1650.08
405.09	1638.38
405.28	1568.16
405.47	1619.65
405.66	1659.44
405.85	1696.89
406.05	1722.63
406.24	1720.29
406.43	1813.92
406.62	1657.10
406.81	1900.52
407.00	1743.70
407.20	1760.08
407.39	1842.00
407.58	1909.88
407.77	1790.51
407.96	1867.75
408.15	1891.15
408.34	1764.76
408.54	1818.60
408.73	1914.56
408.92	1858.39
409.11	2003.50
409.30	2017.54
409.49	1907.54
409.68	2064.35
409.87	2108.82
410.07	1949.67
410.26	2036.27
410.45	2036.27
410.64	2040.95
410.83	2045.63
411.02	2111.16
411.21	2228.19
411.40	2165.00
411.59	2279.68
411.78	2244.57
411.98	2129.89
412.17	2307.77
412.36	2214.15
412.55	2317.13
412.74	2338.20
412.93	2370.96
413.12	2356.92
413.31	2516.08
413.50	2267.98
413.69	2485.65
413.88	2527.78
414.07	2345.22
414.26	2427.14
414.45	2574.59
414.64	2534.80
414.83	2553.52
415.02	2626.08
415.22	2588.63
415.41	2668.21
415.60	2635.44
415.79	2752.47
415.98	2766.51
416.17	2747.79
416.36	2658.85
416.55	2668.21
416.74	2677.57
416.93	2787.58
417.12	2825.03
417.31	2963.12
417.50	2843.75
417.69	2916.31
417.88	2944.39
418.07	2867.16
418.26	3033.33
418.45	2970.14
418.64	3002.91
418.83	3019.29
419.02	3157.38
419.21	3108.23
419.39	3119.93
419.58	3061.42
419.77	3049.72
419.96	3119.93
420.15	3133.98
420.34	3211.22
420.53	3330.58
420.72	3267.39
420.91	3323.56
421.10	3122.27
421.29	3337.60
421.48	3286.11
421.67	3204.19
421.86	3253.34
422.05	3215.90
422.24	3192.49
422.43	3300.16
422.61	3389.10
422.80	3363.35
422.99	3332.92
423.18	3407.82
423.37	3513.14
423.56	3377.39
423.75	3314.20
423.94	3260.37
424.13	3126.96
424.32	3318.88
424.50	3342.28
424.69	3447.61
424.88	3499.10
425.07	3445.27
425.26	3449.95
425.45	3358.67
425.64	3435.91
425.83	3459.31
426.01	3515.48
426.20	3370.37
426.39	3485.06
426.58	3403.14
426.77	3342.28
426.96	3641.87
427.15	3583.36
427.33	3581.02
427.52	3538.89
427.71	3639.53
427.90	3578.68
428.09	3695.71
428.28	3667.62
428.46	3569.32
428.65	3681.66
428.84	3740.18
429.03	3719.11
429.22	3655.92
429.40	3744.86
429.59	3791.67
429.78	3674.64
429.97	3653.58
430.16	3824.44
430.34	3796.35
430.53	3875.93
430.72	3950.82
430.91	3871.25
431.10	3836.14
431.28	3964.87
431.47	3887.63
431.66	4152.11
431.85	3892.31
432.03	4128.70
432.22	4109.98
432.41	4147.43
432.60	4119.34
432.79	4053.81
432.97	4021.04
433.16	4109.98
433.35	4161.47
433.54	4135.73
433.72	4011.68
433.91	4112.32
434.10	4365.10
434.28	4191.90
434.47	4231.69
434.66	4348.72
434.85	4320.63
435.03	4348.72
435.22	4362.76
435.41	4437.66
435.59	4395.53
435.78	4423.61
435.97	4397.87
436.16	4292.54
436.34	4423.61
436.53	4292.54
436.72	4582.77
436.90	4402.55
437.09	4479.79
437.28	4461.06
437.46	4519.57
437.65	4507.87
437.84	4624.90
438.02	4557.02
438.21	4627.24
438.40	4671.71
438.58	4685.75
438.77	4784.06
438.96	4671.71
439.14	4830.87
439.33	4873.00
439.52	4849.59
439.70	4936.19
439.89	4905.76
440.08	4917.47
440.26	4877.68
440.45	5041.51
440.63	5135.14
440.82	5142.16
441.01	5039.17
441.19	5093.01
441.38	5088.32
441.57	5219.39
441.75	5334.08
441.94	5497.92
442.12	5322.38
442.31	5359.83
442.50	5507.28
442.68	5322.38
442.87	5434.72
443.05	5423.02
443.24	5444.09
443.43	5425.36
443.61	5547.07
443.80	5598.56
443.98	5504.94
444.17	5462.81
444.35	5495.58
444.54	5542.39
444.73	5692.18
444.91	5568.13
445.10	5734.31
445.28	5643.03
445.47	5518.98
445.65	5647.71
445.84	5722.61
446.02	5685.16
446.21	5619.63
446.39	5636.01
446.58	5708.57
446.77	5874.74
446.95	5621.97
447.14	5717.93
447.32	5849.00
447.51	5624.31
447.69	5792.83
447.88	5713.25
448.06	5874.74
448.25	5853.68
448.43	5743.67
448.62	5846.66
448.80	5734.31
448.99	5949.64
449.17	5895.81
449.36	5750.70
449.54	5966.03
449.73	6129.86
449.91	6176.67
450.10	6050.28
450.28	6052.63
450.46	6059.65
450.65	6038.58
450.83	6059.65
451.02	6026.88
451.20	6387.32
451.39	6024.54
451.57	5944.96
451.76	6099.44
451.94	6207.10
452.13	6331.15
452.31	6427.11
452.49	6307.74
452.68	6221.14
452.86	6256.25
453.05	6415.41
453.23	6490.31
453.42	6349.87
453.60	6324.13
453.78	6466.90
453.97	6356.90
454.15	6389.66
454.34	6296.04
454.52	6452.86
454.70	6525.41
454.89	6597.97
455.07	6590.95
455.26	6565.20
455.44	6520.73
455.62	6715.00
455.81	6530.09
455.99	6738.40
456.17	6782.87
456.36	6614.35
456.54	6803.94
456.73	7035.65
456.91	6967.77
457.09	6984.16
457.28	7140.97
457.46	7012.24
457.64	7052.03
457.83	6920.96
458.01	6977.14
458.19	7077.78
458.38	7115.23
458.56	7136.29
458.74	6965.43
458.93	7157.36
459.11	7157.36
459.29	7258.00
459.48	7265.02
459.66	7197.15
459.84	7351.62
460.03	7276.73
460.21	7311.83
460.39	7351.62
460.57	7229.91
460.76	7534.18
460.94	7705.04
461.12	7445.24
461.31	7276.73
461.49	7337.58
461.67	7328.22
461.85	7482.69
462.04	7482.69
462.22	8168.47
462.40	7786.96
462.59	7562.27
462.77	7609.08
462.95	7899.31
463.13	7838.45
463.32	7772.92
463.50	7812.71
463.68	7950.80
463.86	7866.54
464.05	7810.37
464.23	7850.16
464.41	7948.46
464.59	7941.44
464.78	8018.68
464.96	7733.13
465.14	7808.03
465.32	8081.87
465.50	7969.52
465.69	8013.99
465.87	8018.68
466.05	7992.93
466.23	8196.56
466.41	8074.85
466.60	8486.78
466.78	8215.28
466.96	8124.00
467.14	8329.97
467.32	8142.72
467.51	8369.76
467.69	8098.25
467.87	8006.97
468.05	8365.07
468.23	8292.52
468.41	8241.03
468.60	8402.52
468.78	8329.97
468.96	8322.94
469.14	8589.77
469.32	8393.16
469.50	8313.58
469.69	8549.98
469.87	8617.85
470.05	8716.16
470.23	8861.27
470.41	8727.86
470.59	8894.04
470.77	8786.37
470.95	8772.33
471.14	8940.85
471.32	8802.75
471.50	8931.48
471.68	8999.36
471.86	9165.54
472.04	9043.83
472.22	9266.18
472.40	9104.68
472.58	9067.24
472.77	9210.01
472.95	9291.93
473.13	9607.90
473.31	9366.82
473.49	9458.10
473.67	9259.16
473.85	9441.72
474.03	9603.22
474.21	9797.48
474.39	9891.10
474.57	9668.75
474.75	9755.35
474.93	9788.12
475.12	9881.74
475.30	10071.33
475.48	10008.13
475.66	10066.64
475.84	9980.04
476.02	10106.43
476.20	10148.56
476.38	10328.78
476.56	10319.42
476.74	10509.01
476.92	10525.39
477.10	10359.21
477.28	10415.38
477.46	10609.65
477.64	10679.86
477.82	10932.64
478.00	11323.51
478.18	10960.73
478.36	10946.69
478.54	11178.40
478.72	11204.14
478.90	11307.13
479.08	11492.03
479.26	11573.95
479.44	11896.94
479.62	11653.53
479.80	11805.66
479.98	12102.91
480.16	12374.41
480.34	12081.85
480.52	12161.42
480.70	12180.15
480.88	12091.21
481.06	12126.32
481.24	12496.12
481.41	12585.06
481.59	12652.94
481.77	12739.54
481.95	12830.82
482.13	13123.38
482.31	13090.62
482.49	13315.31
482.67	13186.58
482.85	13507.23
483.03	13558.72
483.21	13825.54
483.39	13958.96
483.57	13706.18
483.74	13612.56
483.92	13987.04
484.10	14256.20
484.28	14216.41
484.46	14312.38
484.64	14466.85
484.82	14382.59
485.00	14857.72
485.18	14799.21
485.35	15143.27
485.53	14874.10
485.71	15035.60
485.89	15534.14
486.07	15201.78
486.25	15440.51
486.43	15288.38
486.61	15800.96
486.78	15798.62
486.96	15459.24
487.14	15704.99
487.32	16159.06
487.50	16198.85
487.68	16397.79
487.85	16596.74
488.03	16903.35
488.21	16966.54
488.39	16865.90
488.57	17128.04
488.75	17111.66
488.92	17422.95
489.10	17390.18
489.28	17514.23
489.46	17724.88
489.64	17521.25
489.81	18078.30
489.99	18106.38
490.17	18115.75
490.35	18295.97
490.53	18698.54
490.70	18515.98
490.88	18740.67
491.06	19061.32
491.24	18857.70
491.41	18899.83
491.59	19220.48
491.77	19278.99
491.95	19271.97
492.13	19484.96
492.30	19545.81
492.48	19426.45
492.66	19314.10
492.84	19665.18
493.01	19817.32
493.19	20023.28
493.37	20208.19
493.54	20290.10
493.72	20386.07
493.90	20276.06
494.08	20489.05
494.25	21048.44
494.43	20812.04
494.61	20879.92
494.79	21128.02
494.96	21373.77
495.14	21411.22
495.32	21535.27
495.49	21734.21
495.67	21422.92
495.85	21951.88
496.02	21862.94
496.20	21963.59
496.38	22539.36
496.55	22064.23
496.73	22754.69
496.91	22707.88
497.09	22841.29
497.26	22644.68
497.44	22792.14
497.62	22735.96
497.79	23241.52
497.97	23122.15
498.14	23611.32
498.32	23501.32
498.50	23367.91
498.67	23702.61
498.85	23840.70
499.03	24011.56
499.20	24187.10
499.38	23995.17
499.56	24273.70
499.73	24292.42
499.91	24643.50
500.08	24709.04
500.26	24264.33
500.44	24652.86
500.61	24432.85
500.79	24465.62
500.97	25032.03
501.14	25429.92
501.32	25132.67
501.49	25207.57
501.67	25338.64
501.84	25366.73
502.02	25273.10
502.20	25436.94
502.37	25579.71
502.55	25984.63
502.72	25689.72
502.90	25883.98
503.07	25825.47
503.25	25954.20
503.43	25675.68
503.60	26394.22
503.78	25851.22
503.95	26293.58
504.13	26300.60
504.30	26527.63
504.48	26391.88
504.65	26611.89
504.83	26878.71
505.01	27056.59
505.18	27236.81
505.36	27321.07
505.53	27005.10
505.71	27384.27
505.88	27714.28
506.06	27175.96
506.23	27452.14
506.41	27115.11
506.58	27161.92
506.76	27601.94
506.93	28189.41
507.11	27857.06
507.28	28212.82
507.46	27835.99
507.63	28109.83
507.81	28198.77
507.98	28231.54
508.16	28285.37
508.33	28680.92
508.50	28671.56
508.68	28472.62
508.85	28606.03
509.03	28608.37
509.20	28601.35
509.38	28769.86
509.55	29289.46
509.73	28875.19
509.90	29457.98
510.08	29380.74
510.25	29153.71
510.42	29362.02
510.60	29692.04
510.77	29490.75
510.95	29858.21
511.12	29942.47
511.30	29778.64
511.47	29841.83
511.64	29596.07
511.82	30235.04
511.99	30281.85
512.17	30270.15
512.34	30108.65
512.51	30803.79
512.69	30724.21
512.86	30642.29
513.04	30909.11
513.21	31108.06
513.38	31065.93
513.56	30857.62
513.73	30806.13
513.90	30857.62
514.08	30909.11
514.25	31140.83
514.43	31505.95
514.60	31234.45
514.77	31571.49
514.95	31618.30
515.12	31573.83
515.29	31424.03
515.47	31798.52
515.64	31690.85
515.81	31814.90
515.99	32041.93
516.16	32584.94
516.33	32072.36
516.51	32561.53
516.68	32205.77
516.85	32472.59
517.03	32627.07
517.20	32240.88
517.37	32840.06
517.54	32423.44
517.72	32776.86
517.89	32786.22
518.06	32776.86
518.24	32931.34
518.41	32936.02
518.58	32849.42
518.75	32655.15
518.93	32917.29
519.10	33226.24
519.27	33296.46
519.45	33413.49
519.62	33453.28
519.79	33441.57
519.96	33759.89
520.14	33961.17
520.31	33553.92
520.48	34052.45
520.65	33820.74
520.83	33848.83
521.00	34483.11
521.17	34134.37
521.34	34015.01
521.52	34403.53
521.69	34637.59
521.86	33935.43
522.03	34499.50
522.20	34876.32
522.38	34799.08
522.55	35180.59
522.72	34703.12
522.89	34838.87
523.07	35014.41
523.24	35028.46
523.41	35281.24
523.58	34866.96
523.75	35496.56
523.92	35204.00
524.10	35246.13
524.27	35662.74
524.44	35412.31
524.61	35393.58
524.78	35470.82
524.96	35924.88
525.13	35686.15
525.30	35922.54
525.47	36205.75
525.64	35892.12
525.81	35840.62
525.98	36044.25
526.16	35786.79
526.33	36172.98
526.50	36306.39
526.67	36519.38
526.84	36299.37
527.01	36439.80
527.18	36517.04
527.36	36460.87
527.53	36718.32
527.70	36814.29
527.87	36931.31
528.04	36783.86
528.21	37064.72
528.38	37062.38
528.55	37235.58
528.72	37013.23
528.89	37354.95
529.07	36765.14
529.24	37048.34
529.41	37525.81
529.58	37130.26
529.75	37486.02
529.92	37619.43
530.09	37710.71
530.26	37577.30
530.43	37799.65
530.60	37390.06
530.77	37266.01
530.94	37551.56
531.11	37780.93
531.28	37689.65
531.46	38003.28
531.63	38330.95
531.80	37818.38
531.97	37670.92
532.14	38291.16
532.31	38330.95
532.48	38312.23
532.65	38377.76
532.82	38249.03
532.99	38117.96
533.16	38368.40
533.33	38557.99
533.50	38576.71
533.67	38859.91
533.84	38316.91
534.01	38794.38
534.18	38366.06
534.35	39271.85
534.52	38822.47
534.69	38899.70
534.86	39054.18
535.03	38775.66
535.20	39276.53
535.37	39384.19
535.54	39302.28
535.71	39405.26
535.88	39257.81
536.05	39220.36
536.22	39665.06
536.38	39047.16
536.55	39012.05
536.72	39512.92
536.89	39079.92
537.06	39564.42
537.23	39416.96
537.40	39739.96
537.57	39583.14
537.74	39761.02
537.91	40203.38
538.08	39962.31
538.25	39449.73
538.42	40151.89
538.59	40304.02
538.75	39725.91
538.92	40168.27
539.09	40275.94
539.26	40699.58
539.43	40081.67
539.60	40407.01
539.77	40425.73
539.94	40615.32
540.11	40165.93
540.28	40311.05
540.44	40301.68
540.61	40299.34
540.78	40332.11
540.95	40835.33
541.12	40484.25
541.29	40556.80
541.46	40858.73
541.62	40847.03
541.79	41378.33
541.96	40575.53
542.13	40486.59
542.30	40800.22
542.47	41184.07
542.63	41067.04
542.80	41226.20
542.97	41794.95
543.14	41715.37
543.31	41132.57
543.48	41273.01
543.64	41895.59
543.81	41689.62
543.98	41757.50
544.15	41792.61
544.32	41745.80
544.48	42504.13
544.65	42054.75
544.82	42288.80
544.99	41635.79
545.16	41577.28
545.32	41722.39
545.49	42050.06
545.66	42763.93
545.83	42370.72
546.00	42726.48
546.16	42436.25
546.33	42684.35
546.50	41949.42
546.67	42291.14
546.83	42244.33
547.00	41923.68
547.17	42150.71
547.34	42520.51
547.50	42815.42
547.67	42623.50
547.84	42817.76
548.00	43012.02
548.17	43107.99
548.34	42981.60
548.51	42962.87
548.67	43037.77
548.84	42759.25
549.01	42663.28
549.18	43028.41
549.34	43117.35
549.51	43185.22
549.68	43629.93
549.84	43056.50
550.01	43243.74
550.18	43012.02
550.34	42974.58
550.51	43548.01
550.68	43386.51
550.84	43112.67
551.01	43721.21
551.18	43821.85
551.34	43435.66
551.51	43578.43
551.68	43416.94
551.84	43456.73
552.01	43540.99
552.18	43510.56
552.34	43821.85
552.51	43885.04
552.68	43550.35
552.84	44105.06
553.01	43875.68
553.18	43803.13
553.34	43824.19
553.51	43880.36
553.67	43826.53
553.84	44222.08
554.01	44236.12
554.17	43871.00
554.34	43906.11
554.51	43761.00
554.67	44531.03
554.84	44259.53
555.00	44437.41
555.17	44018.46
555.33	44273.57
555.50	44128.46
555.67	44128.46
555.83	44509.97
556.00	44659.76
556.16	45027.23
556.33	44701.89
556.50	44816.58
556.66	44460.82
556.83	44507.63
556.99	44797.85
557.16	44959.35
557.32	45027.23
557.49	44758.06
557.65	45029.57
557.82	44891.48
557.98	44790.83
558.15	44514.65
558.32	45059.99
558.48	44898.50
558.65	44725.30
558.81	45296.39
558.98	45017.86
559.14	44788.49
559.31	44954.67
559.47	45069.36
559.64	44732.32
559.80	45205.11
559.97	45240.21
560.13	44767.43
560.30	44914.88
560.46	45511.72
560.63	45713.00
560.79	45624.06
560.96	45312.77
561.12	45631.08
561.29	45663.85
561.45	45368.94
561.61	45532.78
561.78	44968.71
561.94	45539.80
562.11	45586.61
562.27	45352.56
562.44	45425.12
562.60	45375.97
562.77	45638.11
562.93	45226.17
563.10	45687.26
563.26	45808.96
563.42	45727.05
563.59	45223.83
563.75	45368.94
563.92	45357.24
564.08	45684.92
564.24	45727.05
564.41	45345.54
564.57	45921.31
564.74	45624.06
564.90	45846.41
565.07	45301.07
565.23	46071.10
565.39	45713.00
565.56	45799.60
565.72	46150.68
565.88	45764.49
566.05	45567.89
566.21	45890.88
566.38	45523.42
566.54	45893.22
566.70	46309.84
566.87	46138.98
567.03	45991.53
567.19	46082.81
567.36	46040.68
567.52	45734.07
567.68	46213.88
567.85	46185.79
568.01	46190.47
568.17	45876.84
568.34	46223.24
568.50	46321.54
568.66	46483.04
568.83	45982.16
568.99	46284.09
569.15	46391.76
569.32	45801.94
569.48	46094.51
569.64	46113.23
569.81	46263.03
569.97	46073.45
570.13	46387.08
570.30	46033.66
570.46	46457.29
570.62	46464.32
570.78	46473.68
570.95	45858.12
571.11	46887.95
571.27	46291.12
571.43	46089.83
571.60	46190.47
571.76	46040.68
571.92	46064.08
572.09	46108.55
572.25	46571.98
572.41	46005.57
572.57	46766.24
572.74	46965.19
572.90	46354.31
573.06	46368.35
573.22	46902.00
573.38	46499.42
573.55	46630.49
573.71	46997.96
573.87	46820.08
574.03	46438.57
574.20	46562.62
574.36	46642.20
574.52	46471.34
574.68	46586.02
574.84	46937.10
575.01	46738.16
575.17	46635.17
575.33	46485.38
575.49	46361.33
575.65	46600.07
575.82	46799.01
575.98	46543.89
576.14	46855.18
576.30	47234.35
576.46	46815.40
576.62	46424.53
576.79	46625.81
576.95	46281.75
577.11	46726.46
577.27	46520.49
577.43	46518.15
577.59	46571.98
577.75	46916.04
577.92	46625.81
578.08	46707.73
578.24	46651.56
578.40	47112.64
578.56	46773.27
578.72	46176.43
578.88	47161.79
579.04	46571.98
579.21	46794.33
579.37	46827.10
579.53	46904.34
579.69	46623.47
579.85	46651.56
580.01	47065.83
580.17	46777.95
580.33	47009.66
580.49	47229.67
580.65	47107.96
580.82	46586.02
580.98	46836.46
581.14	46920.72
581.30	46836.46
581.46	47171.16
581.62	46714.75
581.78	46932.42
581.94	47042.43
582.10	47143.07
582.26	46754.54
582.42	47084.56
582.58	46930.08
582.74	46976.89
582.90	46979.23
583.06	47812.46
583.22	46611.77
583.38	46693.69
583.54	46920.72
583.70	47100.94
583.86	47084.56
584.02	46571.98
584.18	47421.59
584.34	46969.87
584.50	47124.35
584.66	47033.07
584.82	46862.21
584.98	47327.97
585.14	47325.63
585.30	46712.41
585.46	47508.19
585.62	47166.48
585.78	46897.31
585.94	46801.35
586.10	47222.65
586.26	46855.18
586.42	46761.56
586.58	47185.20
586.74	46944.12
586.90	46710.07
587.06	46742.84
587.22	47166.48
587.38	46948.81
587.54	47255.42
587.70	47332.65
587.86	47459.04
588.02	47302.23
588.18	46944.12
588.34	47077.54
588.49	47168.82
588.65	47365.42
588.81	47201.58
588.97	47384.15
589.13	47070.51
589.29	47278.82
589.45	47208.61
589.61	47735.23
589.77	47012.00
589.93	47320.95
590.08	47629.90
590.24	47487.13
590.40	47775.02
590.56	47840.55
590.72	47409.89
590.88	47653.31
591.04	47386.49
591.20	47943.53
591.35	47484.79
591.51	47468.40
591.67	47650.97
591.83	47566.71
591.99	47526.92
592.15	47662.67
592.31	47643.94
592.46	47295.21
592.62	47433.30
592.78	47697.78
592.94	47728.20
593.10	48128.44
593.26	47796.08
593.41	47683.73
593.57	47927.15
593.73	47367.76
593.89	48067.58
594.05	48048.86
594.20	47611.18
594.36	48100.35
594.52	48044.18
594.68	47655.65
594.84	47566.71
594.99	47985.66
595.15	47704.80
595.31	48079.28
595.47	47688.42
595.62	47796.08
595.78	47894.38
595.94	48119.07
596.10	47690.76
596.25	47952.90
596.41	48037.16
596.57	47501.17
596.73	47522.24
596.88	48088.65
597.04	47887.36
597.20	48027.79
597.36	47866.30
597.51	47739.91
597.67	47812.46
597.83	47531.60
597.99	47861.61
598.14	47878.00
598.30	47676.71
598.46	48081.63
598.61	47880.34
598.77	47765.65
598.93	47634.58
599.09	48081.63
599.24	48039.50
599.40	47938.85
599.56	47924.81
599.71	48116.73
599.87	48198.65
600.03	48540.37
600.18	48491.22
600.34	47789.06
600.50	47817.14
600.65	48011.41
600.81	48107.37
600.97	47969.28
601.12	48191.63
601.28	48200.99
601.44	48245.46
601.59	47882.68
601.75	47653.31
601.91	48114.39
602.06	47997.37
602.22	48095.67
602.37	47690.76
602.53	47927.15
602.69	48098.01
602.84	47819.49
603.00	48016.09
603.16	47725.86
603.31	47566.71
603.47	48053.54
603.62	48140.14
603.78	48275.89
603.94	48030.13
604.09	47959.92
604.25	47849.91
604.40	47973.96
604.56	48086.31
604.71	48278.23
604.87	47938.85
605.03	47669.69
605.18	47922.47
605.34	48011.41
605.49	47908.43
605.65	47964.60
605.80	47892.04
605.96	48006.73
606.12	48121.41
606.27	48116.73
606.43	47990.34
606.58	48039.50
606.74	48200.99
606.89	47927.15
607.05	47847.57
607.20	47915.45
607.36	47672.03
607.51	47995.03
607.67	47798.42
607.82	47323.29
607.98	47569.05
608.13	48079.28
608.29	47709.48
608.44	47882.68
608.60	47503.51
608.75	47903.74
608.91	47899.06
609.06	47437.98
609.22	47971.62
609.37	47547.98
609.53	48044.18
609.68	47831.19
609.84	47758.63
609.99	47711.82
610.15	47870.98
610.30	47718.84
610.46	47739.91
610.61	47686.07
610.76	47679.05
610.92	47547.98
611.07	47519.90
611.23	47384.15
611.38	47426.28
611.54	47899.06
611.69	48055.88
611.84	47409.89
612.00	47772.67
612.15	47353.72
612.31	47360.74
612.46	47028.38
612.62	47271.80
612.77	47571.39
612.92	47468.40
613.08	47264.78
613.23	47189.88
613.39	47119.66
613.54	47213.29
613.69	47590.11
613.85	47599.47
614.00	47227.33
614.15	47735.23
614.31	46885.61
614.46	47185.20
614.62	47194.56
614.77	47166.48
614.92	47536.28
615.08	47040.09
615.23	47236.69
615.38	47540.96
615.54	47384.15
615.69	47632.24
615.84	47138.39
616.00	47440.32
616.15	47330.31
616.30	47342.02
616.46	47428.62
616.61	47171.16
616.76	47423.93
616.92	47079.88
617.07	47072.85
617.22	46827.10
617.37	46651.56
617.53	46986.25
617.68	46738.16
617.83	46948.81
617.99	47054.13
618.14	47232.01
618.29	46773.27
618.45	46738.16
618.60	46845.82
618.75	46419.84
618.90	46597.73
619.06	46358.99
619.21	46529.85
619.36	46892.63
619.51	46855.18
619.67	46466.66
619.82	46845.82
619.97	46920.72
620.12	46801.35
620.28	46557.94
620.43	46485.38
620.58	46712.41
620.73	46382.40
620.89	46780.29
621.04	46710.07
621.19	46726.46
621.34	46405.80
621.49	46644.54
621.65	46405.80
621.80	46951.15
621.95	46763.90
622.10	46499.42
622.25	46581.34
622.41	46122.60
622.56	46665.60
622.71	46590.70
622.86	46443.25
623.01	46293.46
623.16	46330.90
623.32	46258.35
623.47	46506.44
623.62	46316.86
623.77	46363.67
623.92	46248.99
624.07	46307.50
624.23	46099.19
624.38	46244.30
624.53	46333.24
624.68	45532.78
624.83	46080.47
624.98	46021.95
625.13	45755.13
625.29	45673.21
625.44	46225.58
625.59	45675.55
625.74	46377.72
625.89	45792.58
626.04	45514.06
626.19	45963.44
626.34	45846.41
626.49	45347.88
626.65	45649.81
626.80	45521.08
626.95	45546.82
627.10	45724.71
627.25	45813.65
627.40	45469.59
627.55	45408.73
627.70	45687.26
627.85	45408.73
628.00	45439.16
628.15	45593.64
628.30	45467.25
628.45	45247.24
628.60	44968.71
628.76	45219.15
628.91	45263.62
629.06	45216.81
629.21	45333.84
629.36	45301.07
629.51	45219.15
629.66	45514.06
629.81	45167.66
629.96	45361.92
630.11	45141.91
630.26	44933.60
630.41	44900.84
630.56	44875.09
630.71	44910.20
630.86	45045.95
631.01	44201.02
631.16	44973.39
631.31	44968.71
631.46	44982.76
631.61	45153.62
631.76	44814.24
631.91	45076.38
632.06	45209.79
632.21	44912.54
632.36	45050.63
632.51	44355.49
632.66	45085.74
632.81	44573.16
632.96	44685.51
633.10	44591.89
633.25	44678.49
633.40	44664.44
633.55	44889.13
633.70	44692.53
633.85	44516.99
634.00	44107.40
634.15	44044.20
634.30	44196.34
634.45	44458.48
634.60	44680.83
634.75	44790.83
634.90	44339.11
635.05	44851.69
635.19	44505.29
635.34	44781.47
635.49	44308.68
635.64	44392.94
635.79	44685.51
635.94	44442.09
636.09	44327.41
636.24	44353.15
636.39	44456.14
636.53	44055.90
636.68	44081.65
636.83	44229.10
636.98	43845.26
637.13	43786.74
637.28	43452.05
637.43	43704.82
637.57	43969.30
637.72	43913.13
637.87	44039.52
638.02	44608.27
638.17	43889.73
638.32	43725.89
638.46	43585.46
638.61	43562.05
638.76	43655.67
638.91	43662.69
639.06	43491.83
639.20	43091.60
639.35	43653.33
639.50	42976.92
639.65	43686.10
639.80	43620.56
639.94	43445.02
640.09	43908.45
640.24	43758.66
640.39	43203.95
640.54	43051.81
640.68	43505.88
640.83	43555.03
640.98	43229.69
641.13	43084.58
641.27	43498.86
641.42	43161.82
641.57	43232.04
641.72	43098.62
641.86	43187.56
642.01	43023.73
642.16	42941.81
642.31	42689.03
642.45	43370.13
642.60	42808.40
642.75	43091.60
642.90	43360.76
643.04	43306.93
643.19	42855.21
643.34	42960.53
643.48	42424.55
643.63	42607.11
643.78	43213.31
643.93	43356.08
644.07	43236.72
644.22	43159.48
644.37	42522.85
644.51	42759.25
644.66	43093.94
644.81	42557.96
644.95	42960.53
645.10	43154.80
645.25	43182.88
645.39	42485.40
645.54	42267.73
645.69	42494.77
645.83	42300.50
645.98	42394.12
646.13	42663.28
646.27	42850.53
646.42	42286.46
646.57	42356.67
646.71	42494.77
646.86	43002.66
647.00	42494.77
647.15	42623.50
647.30	42590.73
647.44	42492.43
647.59	42206.88
647.74	42267.73
647.88	42274.76
648.03	42557.96
648.17	42972.24
648.32	42197.52
648.47	42649.24
648.61	42000.91
648.76	42169.43
648.90	41958.78
649.05	42019.64
649.20	42344.97
649.34	42410.51
649.49	42202.20
649.63	42108.58
649.78	42157.73
649.92	41897.93
650.07	42609.45
650.21	41965.81
650.36	42370.72
650.51	42277.10
650.65	42319.23
650.80	41958.78
650.94	41757.50
651.09	41832.39
651.23	41319.82
651.38	41481.31
651.52	41418.12
651.67	41502.38
651.81	41469.61
651.96	41766.86
652.10	41383.01
652.25	41305.77
652.39	41324.50
652.54	41542.17
652.68	41514.08
652.83	41820.69
652.97	41717.71
653.12	41497.70
653.26	41357.27
653.41	41659.20
653.55	41537.49
653.70	41586.64
653.84	41439.18
653.99	41514.08
654.13	41406.42
654.27	41375.99
654.42	41104.49
654.56	40821.28
654.71	41446.21
654.85	41041.29
655.00	41188.75
655.14	41141.94
655.29	41640.47
655.43	41338.54
655.57	40914.90
655.72	40596.59
655.86	40804.90
656.01	40753.41
656.15	40371.90
656.30	40900.86
656.44	41378.33
656.58	40828.30
656.73	41015.55
656.87	40325.09
657.01	40451.48
657.16	40863.41
657.30	40746.39
657.45	40772.13
657.59	40392.97
657.73	40348.50
657.88	40542.76
658.02	40669.15
658.16	40816.60
658.31	40362.54
658.45	40233.81
658.60	40201.04
658.74	40198.70
658.88	40350.84
659.03	40198.70
659.17	40105.08
659.31	40168.27
659.46	39908.47
659.60	39817.19
659.74	40018.48
659.89	39835.92
660.03	39674.42
660.17	40018.48
660.32	39653.36
660.46	39817.19
660.60	39447.39
660.74	39749.32
660.89	39948.26
661.03	38974.60
661.17	39189.93
661.32	39255.46
661.46	39468.45
661.60	39086.95
661.74	39335.04
661.89	39339.72
662.03	39533.99
662.17	39505.90
662.31	39178.23
662.46	39395.90
662.60	38899.70
662.74	38738.21
662.88	38932.47
663.03	38738.21
663.17	38740.55
663.31	38639.90
663.45	39459.09
663.60	38948.85
663.74	38700.76
663.88	38527.56
664.02	38429.26
664.17	38810.76
664.31	38616.50
664.45	38459.68
664.59	38778.00
664.73	38345.00
664.88	38206.90
665.02	37603.05
665.16	38284.14
665.30	38038.39
665.44	38326.27
665.59	37921.36
665.73	37514.11
665.87	37177.07
666.01	37968.17
666.15	37809.01
666.29	37673.26
666.44	37511.77
666.58	37640.50
666.72	36996.85
666.86	37333.89
667.00	37441.55
667.14	37589.00
667.28	37570.28
667.43	37474.32
667.57	37443.89
667.71	37441.55
667.85	36849.39
667.99	37319.84
668.13	37212.18
668.27	36821.31
668.41	36701.94
668.56	36334.48
668.70	36453.84
668.84	35964.67
668.98	36531.08
669.12	36528.74
669.26	36582.57
669.40	36470.23
669.54	36524.06
669.68	36397.67
669.82	36151.91
669.96	35737.64
670.10	35924.88
670.25	36224.47
670.39	36011.48
670.53	35924.88
670.67	35754.02
670.81	36144.89
670.95	35889.77
671.09	36093.40
671.23	35253.15
671.37	35679.13
671.51	35590.19
671.65	35344.43
671.79	35367.84
671.93	35508.27
672.07	35433.37
672.21	35040.16
672.35	34885.68
672.49	35196.98
672.63	34871.64
672.77	35215.70
672.91	34742.91
673.05	34366.09
673.19	34487.79
673.33	34656.31
673.47	34773.34
673.61	34040.75
673.75	34071.18
673.89	34267.78
674.03	34132.03
674.17	33958.83
674.31	33986.92
674.45	33626.48
674.59	33837.12
674.73	33385.40
674.87	33567.96
675.01	33537.54
675.15	32706.65
675.29	32994.53
675.43	32980.49
675.56	33476.68
675.70	33022.62
675.84	32971.13
675.98	32128.53
676.12	32952.40
676.26	33062.41
676.40	32601.32
676.54	32634.09
676.68	31995.12
676.82	32107.47
676.96	32203.43
677.10	32290.03
677.23	32245.56
677.37	32191.73
677.51	31938.95
677.65	31992.78
677.79	31871.07
677.93	31873.42
678.07	31480.21
678.21	31374.88
678.34	31040.18
678.48	31108.06
678.62	31356.16
678.76	31007.42
678.90	30806.13
679.04	31112.74
679.18	30749.96
679.31	30497.18
679.45	30658.68
679.59	30251.42
679.73	30323.98
679.87	30218.66
680.00	30415.26
680.14	30546.33
680.28	30120.35
680.42	29930.77
680.56	30045.46
680.70	29656.93
680.83	29603.10
680.97	29600.76
681.11	29603.10
681.25	29399.47
681.39	29097.54
681.52	29252.02
681.66	28790.93
681.80	28884.55
681.94	28655.18
682.07	28774.55
682.21	28556.88
682.35	28540.49
682.49	28524.11
682.62	28400.06
682.76	28758.16
682.90	28151.96
683.04	28123.88
683.17	28318.14
683.31	27995.15
683.45	27651.09
683.59	27545.76
683.72	27384.27
683.86	27681.52
684.00	27468.53
684.13	27112.77
684.27	27072.98
684.41	27154.90
684.55	26918.50
684.68	26696.15
684.82	26829.56
684.96	26654.02
685.09	26544.02
685.23	26778.07
685.37	27220.43
685.50	26735.94
685.64	26380.18
685.78	26040.80
685.91	26052.50
686.05	25905.05
686.19	25488.43
686.32	25708.44
686.46	25493.12
686.60	25146.72
686.73	25275.45
686.87	25427.58
687.01	25500.14
687.14	25689.72
687.28	25305.87
687.42	24989.90
687.55	25184.16
687.69	24929.05
687.82	24624.78
687.96	24704.35
688.10	24861.17
688.23	24472.64
688.37	24699.67
688.50	24479.66
688.64	24577.97
688.78	24322.85
688.91	24112.20
689.05	24236.25
689.18	24114.54
689.32	23447.49
689.46	23604.30
689.59	23672.18
689.73	23775.16
689.86	23812.61
690.00	23550.47
690.13	23569.19
690.27	23047.26
690.41	23632.39
690.54	22511.27
690.68	22906.82
690.81	22895.12
690.95	23047.26
691.08	22443.40
691.22	22459.78
691.35	22614.26
691.49	22295.94
691.62	22281.90
691.76	22071.25
691.89	21537.61
692.03	21930.82
692.16	21720.17
692.30	21715.49
692.43	21439.31
692.57	21633.57
692.70	21212.28
692.84	21511.86
692.97	21118.65
693.11	21245.04
693.24	20922.05
693.38	21118.65
693.51	20751.19
693.65	20659.91
693.78	20992.26
693.92	20659.91
694.05	20622.46
694.19	20706.72
694.32	20311.17
694.45	20432.88
694.59	20521.82
694.72	20467.98
694.86	20226.91
694.99	19953.07
695.13	19906.26
695.26	19988.18
695.39	19421.77
695.53	19606.67
695.66	19683.91
695.80	19414.74
695.93	19723.69
696.07	19321.12
696.20	18778.12
696.33	18796.84
696.47	18817.91
696.60	18672.79
696.73	18988.77
696.87	18670.45
697.00	18562.79
697.14	18611.94
697.27	18668.11
697.40	18480.87
697.54	18197.67
697.67	18387.25
697.80	18134.47
697.94	18071.28
698.07	18003.40
698.21	17837.22
698.34	17715.51
698.47	17759.98
698.61	17160.81
698.74	17338.69
698.87	17144.42
699.01	17261.45
699.14	17259.11
699.27	17366.78
699.40	17172.51
699.54	17142.08
699.67	17160.81
699.80	17032.08
699.94	16767.60
700.07	16987.61
700.20	16730.15
700.34	17132.72
700.47	16837.81
700.60	16828.45
700.73	16472.69
700.87	16336.94
701.00	16212.89
701.13	16173.10
701.26	15964.79
701.40	16084.16
701.53	15929.69
701.66	15723.72
701.79	16060.76
701.93	15578.61
702.06	15620.74
702.19	15360.94
702.32	15454.56
702.46	15435.83
702.59	15393.70
702.72	15719.04
702.85	15499.03
702.99	15136.24
703.12	15073.05
703.25	15082.41
703.38	14848.36
703.51	14925.60
703.65	14658.78
703.78	14363.87
703.91	14368.55
704.04	14356.85
704.17	14295.99
704.31	14607.28
704.44	14291.31
704.57	14368.55
704.70	14284.29
704.83	14087.68
704.96	13909.80
705.10	13717.88
705.23	14108.75
>>>>>End Processed Spectral Data<<<<<
