SpectraSuite Data File
++++++++++++++++++++++++++++++++++++
Date: Fri Oct 25 10:44:15 EDT 2013
User: price-jones
Dark Spectrum Present: No
Reference Spectrum Present: No
Number of Sampled Component Spectra: 1
Spectrometers: USB2+H05261
Integration Time (usec): 100000 (USB2+H05261)
Spectra Averaged: 1 (USB2+H05261)
Boxcar Smoothing: 0 (USB2+H05261)
Correct for Electrical Dark: No (USB2+H05261)
Strobe/Lamp Enabled: No (USB2+H05261)
Correct for Detector Non-linearity: No (USB2+H05261)
Correct for Stray Light: No (USB2+H05261)
Number of Pixels in Processed Spectrum: 2048
>>>>>Begin Processed Spectral Data<<<<<
365.73	91.28
365.92	91.28
366.12	91.28
366.32	28.09
366.52	39.79
366.72	32.77
366.91	56.17
367.11	0.00
367.31	9.36
367.51	70.22
367.70	86.60
367.90	86.60
368.10	7.02
368.30	0.00
368.49	0.00
368.69	65.54
368.89	0.00
369.09	98.30
369.28	77.24
369.48	98.30
369.68	84.26
369.87	70.22
370.07	128.73
370.27	135.75
370.47	205.97
370.66	365.12
370.86	407.25
371.06	463.43
371.25	514.92
371.45	454.06
371.65	414.27
371.84	493.85
372.04	458.74
372.24	489.17
372.44	503.22
372.63	428.32
372.83	468.11
373.03	472.79
373.22	482.15
373.42	603.86
373.62	538.32
373.81	585.13
374.01	564.07
374.21	561.73
374.40	479.81
374.60	589.82
374.79	624.92
374.99	557.05
375.19	603.86
375.38	596.84
375.58	613.22
375.78	519.60
375.97	589.82
376.17	571.09
376.37	545.34
376.56	578.11
376.76	571.09
376.95	643.65
377.15	615.56
377.35	606.20
377.54	564.07
377.74	645.99
377.93	578.11
378.13	678.76
378.33	636.63
378.52	615.56
378.72	638.97
378.91	709.18
379.11	636.63
379.31	709.18
379.50	580.45
379.70	706.84
379.89	676.41
380.09	631.94
380.28	741.95
380.48	657.69
380.68	662.37
380.87	669.39
381.07	702.16
381.26	800.46
381.46	655.35
381.65	772.38
381.85	704.50
382.04	791.10
382.24	718.54
382.43	702.16
382.63	676.41
382.83	772.38
383.02	725.57
383.22	791.10
383.41	699.82
383.61	770.04
383.80	779.40
384.00	779.40
384.19	828.55
384.39	891.74
384.58	809.83
384.78	816.85
384.97	798.12
385.17	793.44
385.36	774.72
385.56	814.51
385.75	772.38
385.95	847.27
386.14	858.98
386.34	784.08
386.53	697.48
386.72	713.86
386.92	938.55
387.11	896.43
387.31	851.96
387.50	826.21
387.70	901.11
387.89	905.79
388.09	880.04
388.28	898.77
388.48	823.87
388.67	891.74
388.86	952.60
389.06	922.17
389.25	1004.09
389.45	1041.54
389.64	1004.09
389.84	936.21
390.03	973.66
390.22	1015.79
390.42	950.26
390.61	1036.86
390.81	1043.88
391.00	1029.84
391.19	1095.37
391.39	1060.26
391.58	1100.05
391.78	1074.31
391.97	1036.86
392.16	964.30
392.36	1008.77
392.55	1034.52
392.75	1107.07
392.94	985.37
393.13	945.58
393.33	1032.18
393.52	1032.18
393.71	1156.22
393.91	1224.10
394.10	1128.14
394.29	1214.74
394.49	1128.14
394.68	1160.91
394.88	1191.33
395.07	1174.95
395.26	1242.82
395.46	1219.42
395.65	1247.51
395.84	1153.88
396.04	1306.02
396.23	1235.80
396.42	1146.86
396.62	1261.55
396.81	1181.97
397.00	1233.46
397.19	1366.87
397.39	1369.21
397.58	1334.11
397.77	1369.21
397.97	1451.13
398.16	1437.09
398.35	1423.05
398.55	1341.13
398.74	1497.94
398.93	1612.63
399.12	1563.48
399.32	1537.73
399.51	1540.07
399.70	1596.25
399.90	1460.49
400.09	1629.01
400.28	1710.93
400.47	1657.10
400.67	1657.10
400.86	1657.10
401.05	1575.18
401.24	1694.55
401.44	1680.50
401.63	1842.00
401.82	1659.44
402.01	1764.76
402.21	1687.53
402.40	1692.21
402.59	1788.17
402.78	1692.21
402.97	1799.87
403.17	1741.36
403.36	1750.72
403.55	1802.21
403.74	1912.22
403.93	1860.73
404.13	1771.79
404.32	1832.64
404.51	2040.95
404.70	1989.46
404.89	1839.66
405.09	2012.86
405.28	1961.37
405.47	1905.20
405.66	2076.06
405.85	1933.28
406.05	2108.82
406.24	2085.42
406.43	2022.22
406.62	2069.03
406.81	2139.25
407.00	2069.03
407.20	1933.28
407.39	2108.82
407.58	2160.31
407.77	2179.04
407.96	2167.34
408.15	2298.41
408.34	2265.64
408.54	2242.23
408.73	2235.21
408.92	2249.25
409.11	2251.60
409.30	2293.72
409.49	2195.42
409.68	2324.15
409.87	2307.77
410.07	2314.79
410.26	2438.84
410.45	2459.90
410.64	2356.92
410.83	2413.09
411.02	2361.60
411.21	2546.50
411.40	2609.70
411.59	2487.99
411.78	2689.28
411.98	2651.83
412.17	2677.57
412.36	2621.40
412.55	2703.32
412.74	2729.06
412.93	2803.96
413.12	2731.41
413.31	2899.92
413.50	2862.48
413.69	2841.41
413.88	2895.24
414.07	2850.77
414.26	2918.65
414.45	2923.33
414.64	2867.16
414.83	2988.86
415.02	3073.12
415.22	2993.55
415.41	3108.23
415.60	3129.30
415.79	3183.13
415.98	3162.06
416.17	3375.05
416.36	3328.24
416.55	3241.64
416.74	3225.26
416.93	3332.92
417.12	3279.09
417.31	3365.69
417.50	3337.60
417.69	3372.71
417.88	3389.10
418.07	3435.91
418.26	3311.86
418.45	3545.91
418.64	3581.02
418.83	3531.87
419.02	3459.31
419.21	3522.51
419.39	3637.19
419.58	3562.30
419.77	3454.63
419.96	3637.19
420.15	3655.92
420.34	3613.79
420.53	3784.65
420.72	3758.90
420.91	3845.50
421.10	3880.61
421.29	3882.95
421.48	3852.52
421.67	3896.99
421.86	3735.50
422.05	3754.22
422.24	3772.94
422.43	3810.39
422.61	3939.12
422.80	3833.80
422.99	3941.46
423.18	3936.78
423.37	4023.38
423.56	3946.14
423.75	4044.45
423.94	3782.31
424.13	3644.21
424.32	3873.59
424.50	3948.48
424.69	4046.79
424.88	4007.00
425.07	4072.53
425.26	3918.06
425.45	3985.93
425.64	3932.10
425.83	3948.48
426.01	4016.36
426.20	3990.61
426.39	3978.91
426.58	3772.94
426.77	3920.40
426.96	4065.51
427.15	3990.61
427.33	4086.58
427.52	4098.28
427.71	4098.28
427.90	4173.18
428.09	4234.03
428.28	4112.32
428.46	4121.68
428.65	4039.76
428.84	4334.67
429.03	4269.14
429.22	4117.00
429.40	4196.58
429.59	4107.64
429.78	3880.61
429.97	3920.40
430.16	3992.95
430.34	4198.92
430.53	4037.42
430.72	4184.88
430.91	4337.01
431.10	4269.14
431.28	4461.06
431.47	4638.94
431.66	4760.65
431.85	4571.07
432.03	4613.20
432.22	4748.95
432.41	4688.09
432.60	4744.27
432.79	4660.01
432.97	4805.12
433.16	4844.91
433.35	4667.03
433.54	4610.86
433.72	4814.48
433.91	4519.57
434.10	4734.90
434.28	4734.90
434.47	4828.53
434.66	4873.00
434.85	4891.72
435.03	4954.91
435.22	4968.96
435.41	4980.66
435.59	5139.82
435.78	5135.14
435.97	5160.88
436.16	5032.15
436.34	5125.77
436.53	5139.82
436.72	5090.67
436.90	5109.39
437.09	5249.82
437.28	5095.35
437.46	5090.67
437.65	5170.24
437.84	5048.54
438.02	5128.11
438.21	5167.90
438.40	5205.35
438.58	5455.79
438.77	5462.81
438.96	5474.51
439.14	5509.62
439.33	5633.67
439.52	5633.67
439.70	5479.19
439.89	5554.09
440.08	5685.16
440.26	5708.57
440.45	5593.88
440.63	5753.04
440.82	6038.58
441.01	5949.64
441.19	6008.16
441.38	6092.41
441.57	6157.95
441.75	6106.46
441.94	6265.61
442.12	6260.93
442.31	6190.72
442.50	6284.34
442.68	6153.27
442.87	6310.08
443.05	6452.86
443.24	6567.54
443.43	6523.07
443.61	6338.17
443.80	6544.14
443.98	6530.09
444.17	6298.38
444.35	6387.32
444.54	6675.21
444.73	6532.44
444.91	6455.20
445.10	6530.09
445.28	6464.56
445.47	6352.21
445.65	6448.18
445.84	6684.57
446.02	6567.54
446.21	6600.31
446.39	6497.33
446.58	6743.08
446.77	6806.28
446.95	6457.54
447.14	6600.31
447.32	6832.02
447.51	6785.21
447.69	6733.72
447.88	6675.21
448.06	6750.10
448.25	6752.45
448.43	6747.76
448.62	6815.64
448.80	6736.06
448.99	6885.86
449.17	6820.32
449.36	6787.55
449.54	6932.67
449.73	7007.56
449.91	7115.23
450.10	7208.85
450.28	7201.83
450.46	7066.08
450.65	7241.62
450.83	6960.75
451.02	7110.55
451.20	7211.19
451.39	7063.74
451.57	7229.91
451.76	7239.28
451.94	7393.75
452.13	7349.28
452.31	7389.07
452.49	7103.53
452.68	7239.28
452.86	7433.54
453.05	7236.94
453.23	7363.33
453.42	7176.08
453.60	7218.21
453.78	7564.61
453.97	7335.24
454.15	7527.16
454.34	7267.36
454.52	7541.21
454.70	7459.29
454.89	7665.25
455.07	7618.44
455.26	7763.56
455.44	7576.31
455.62	7892.29
455.81	7667.60
455.99	7840.79
456.17	7679.30
456.36	7779.94
456.54	8030.38
456.73	7906.33
456.91	8074.85
457.09	8079.53
457.28	8131.02
457.46	7971.86
457.64	8177.83
457.83	8294.86
458.01	8086.55
458.19	8262.09
458.38	8290.18
458.56	8444.65
458.74	8353.37
458.93	8168.47
459.11	8271.45
459.29	8280.82
459.48	8259.75
459.66	8149.75
459.84	8318.26
460.03	8526.57
460.21	8280.82
460.39	8573.38
460.57	8681.05
460.76	8676.37
460.94	8671.68
461.12	8627.21
461.31	8648.28
461.49	8727.86
461.67	8809.78
461.85	8681.05
462.04	8631.90
462.22	8950.21
462.40	8938.51
462.59	8945.53
462.77	8894.04
462.95	9081.28
463.13	8863.61
463.32	8990.00
463.50	8924.46
463.68	9130.43
463.86	9156.18
464.05	8966.59
464.23	9001.70
464.41	9212.35
464.59	8889.35
464.78	9399.59
464.96	9212.35
465.14	9029.79
465.32	9165.54
465.50	9366.82
465.69	9289.59
465.87	9240.44
466.05	9226.39
466.23	9146.81
466.41	9226.39
466.60	9406.61
466.78	9249.80
466.96	9376.19
467.14	9224.05
467.32	9423.00
467.51	9408.95
467.69	9198.31
467.87	9437.04
468.05	9668.75
468.23	9458.10
468.41	9341.08
468.60	9530.66
468.78	9523.64
468.96	9535.34
469.14	9628.96
469.32	9769.40
469.50	9528.32
469.69	9715.56
469.87	9504.92
470.05	9809.19
470.23	9879.40
470.41	9940.26
470.59	9907.49
470.77	9797.48
470.95	10134.52
471.14	10118.14
471.32	9923.87
471.50	10066.64
471.68	10340.49
471.86	10310.06
472.04	10284.31
472.22	10548.79
472.40	10097.07
472.58	10342.83
472.77	10413.04
472.95	10464.54
473.13	10839.02
473.31	10471.56
473.49	10665.82
473.67	10541.77
473.85	10726.68
474.03	10918.60
474.21	10836.68
474.39	11061.37
474.57	11250.96
474.75	11358.62
474.93	11082.44
475.12	11197.12
475.30	11190.10
475.48	10965.41
475.66	11246.27
475.84	11318.83
476.02	11466.28
476.20	11543.52
476.38	11922.69
476.56	11838.43
476.74	11730.76
476.92	11838.43
477.10	11775.24
477.28	12168.45
477.46	12025.67
477.64	12304.20
477.82	12367.39
478.00	12535.91
478.18	12343.99
478.36	12760.60
478.54	12837.84
478.72	12905.71
478.90	13078.91
479.08	13083.59
479.26	13327.01
479.44	13156.15
479.62	13036.78
479.80	13298.92
479.98	13509.57
480.16	13855.97
480.34	13488.51
480.52	13631.28
480.70	13767.03
480.88	13509.57
481.06	14017.47
481.24	14075.98
481.41	14232.80
481.59	14094.71
481.77	14256.20
481.95	14324.08
482.13	14789.85
482.31	14792.19
482.49	14977.09
482.67	14801.55
482.85	15089.43
483.03	15201.78
483.21	15173.69
483.39	15281.36
483.57	15405.41
483.74	15475.62
483.92	15782.23
484.10	15611.37
484.28	15934.37
484.46	16107.57
484.64	16491.41
484.82	16093.52
485.00	16334.60
485.18	16255.02
485.35	16411.84
485.53	16067.78
485.71	16198.85
485.89	16526.52
486.07	16681.00
486.25	16912.71
486.43	16879.94
486.61	17022.72
486.78	17018.04
486.96	17284.86
487.14	17680.41
487.32	17680.41
487.50	17914.46
487.68	17935.53
487.85	18345.12
488.03	18490.23
488.21	18757.05
488.39	18281.92
488.57	18719.60
488.75	18918.55
488.92	19108.13
489.10	19304.74
489.28	19541.13
489.46	19779.87
489.64	19686.25
489.81	19845.40
489.99	20505.43
490.17	20039.67
490.35	20467.98
490.53	20126.27
490.70	20379.04
490.88	20463.30
491.06	21048.44
491.24	20273.72
491.41	20362.66
491.59	20849.49
491.77	21069.50
491.95	20959.50
492.13	21177.17
492.30	21783.37
492.48	21511.86
492.66	21764.64
492.84	22017.42
493.01	22019.76
493.19	22064.23
493.37	22050.19
493.54	22270.20
493.72	22731.28
493.90	22565.10
494.08	22995.76
494.25	23154.92
494.43	23168.96
494.61	23564.51
494.79	23555.15
494.96	23707.29
495.14	23236.84
495.32	23583.24
495.49	23597.28
495.67	23960.06
495.85	24336.89
496.02	24020.92
496.20	24250.29
496.38	24552.22
496.55	24297.10
496.73	25142.03
496.91	25020.33
497.09	25006.28
497.26	24835.42
497.44	25057.78
497.62	25027.35
497.79	25319.92
497.97	25104.59
498.14	25099.90
498.32	25926.11
498.50	25673.34
498.67	25921.43
498.85	25991.65
499.03	26001.01
499.20	26092.29
499.38	26291.24
499.56	26244.43
499.73	26607.21
499.91	26377.84
500.08	26820.20
500.26	26043.14
500.44	26796.79
500.61	26773.39
500.79	26913.82
500.97	26911.48
501.14	26988.72
501.32	27063.61
501.49	27225.11
501.67	27105.74
501.84	27182.98
502.02	27454.48
502.20	27594.92
502.37	27917.91
502.55	27625.34
502.72	28222.18
502.90	28128.56
503.07	28056.00
503.25	28070.04
503.43	27948.34
503.60	28484.32
503.78	28259.63
503.95	28203.46
504.13	28250.27
504.30	28451.55
504.48	28638.80
504.65	28978.17
504.83	29226.27
505.01	29280.10
505.18	28945.41
505.36	29874.60
505.53	29434.58
505.71	29923.75
505.88	29745.87
506.06	29537.56
506.23	29668.63
506.41	29467.34
506.58	29577.35
506.76	30003.33
506.93	30082.91
507.11	29605.44
507.28	30155.46
507.46	30185.89
507.63	29982.26
507.81	30663.36
507.98	30242.06
508.16	30279.51
508.33	30422.28
508.50	30930.18
508.68	30972.31
508.85	31082.31
509.03	30841.24
509.20	31180.62
509.38	30939.54
509.55	31278.92
509.73	31402.97
509.90	31552.76
510.08	31632.34
510.25	31718.94
510.42	31667.45
510.60	31852.35
510.77	31550.42
510.95	32025.55
511.12	32020.87
511.30	32423.44
511.47	32278.33
511.64	32496.00
511.82	32493.66
511.99	32486.64
512.17	32573.24
512.34	32542.81
512.51	32636.43
512.69	33146.67
512.86	32704.31
513.04	32886.87
513.21	32828.35
513.38	32884.53
513.56	32680.90
513.73	32826.01
513.90	33167.73
514.08	33146.67
514.25	33067.09
514.43	33282.42
514.60	33399.44
514.77	33708.40
514.95	33851.17
515.12	33305.82
515.29	34101.61
515.47	34209.27
515.64	34181.18
515.81	33853.51
515.99	34059.48
516.16	33862.87
516.33	33563.28
516.51	33942.45
516.68	33567.96
516.85	33081.13
517.03	33715.42
517.20	33982.24
517.37	34295.87
517.54	34195.23
517.72	34403.53
517.89	34146.08
518.06	34022.03
518.24	34361.40
518.41	34541.63
518.58	34897.39
518.75	34515.88
518.93	35012.07
519.10	34885.68
519.27	35400.60
519.45	34876.32
519.62	35456.78
519.79	35644.02
519.96	35253.15
520.14	35306.98
520.31	35199.32
520.48	35611.25
520.65	35646.36
520.83	35842.96
521.00	35952.97
521.17	35803.17
521.34	36098.08
521.52	36112.13
521.69	36329.80
521.86	36638.75
522.03	36402.35
522.20	36432.78
522.38	36088.72
522.55	36442.14
522.72	36278.30
522.89	36713.64
523.07	36589.59
523.24	36694.92
523.41	37057.70
523.58	36711.30
523.75	37497.72
523.92	37291.76
524.10	37251.97
524.27	37450.91
524.44	37589.00
524.61	37624.11
524.78	37497.72
524.96	37921.36
525.13	37633.47
525.30	38007.96
525.47	37916.68
525.64	37504.74
525.81	37642.84
525.98	37600.71
526.16	37771.57
526.33	37476.66
526.50	37818.38
526.67	37233.24
526.84	37411.12
527.01	37247.29
527.18	37724.75
527.36	38199.88
527.53	38230.31
527.70	38218.61
527.87	38401.17
528.04	38078.18
528.21	38188.18
528.38	38660.97
528.55	38948.85
528.72	39138.44
528.89	39068.22
529.07	39105.67
529.24	38824.81
529.41	39126.74
529.58	38827.15
529.75	38852.89
529.92	38883.32
530.09	39023.75
530.26	39555.05
530.43	38993.32
530.60	39351.43
530.77	39248.44
530.94	39732.93
531.11	39557.39
531.28	39812.51
531.46	39927.20
531.63	39768.04
531.80	39484.84
531.97	39487.18
532.14	39714.21
532.31	39145.46
532.48	39704.85
532.65	39882.73
532.82	39515.26
532.99	39852.30
533.16	39899.11
533.33	40093.38
533.50	39805.49
533.67	40470.20
533.84	39817.19
534.01	40458.50
534.18	39908.47
534.35	40341.47
534.52	40545.10
534.69	40582.55
534.86	40601.27
535.03	40552.12
535.20	41223.86
535.37	41001.50
535.54	41167.68
535.71	40732.34
535.88	40505.31
536.05	40554.46
536.22	41003.85
536.38	41198.11
536.55	40744.05
536.72	40730.00
536.89	40821.28
537.06	40830.65
537.23	40989.80
537.40	41193.43
537.57	41027.25
537.74	41448.55
537.91	41406.42
538.08	41256.62
538.25	40907.88
538.42	41558.55
538.59	41738.77
538.75	41371.31
538.92	41113.85
539.09	41390.03
539.26	41305.77
539.43	41544.51
539.60	41457.91
539.77	41240.24
539.94	41441.53
540.11	41219.17
540.28	41432.16
540.44	41684.94
540.61	41668.56
540.78	41528.13
540.95	41610.04
541.12	41874.52
541.29	41537.49
541.46	41769.20
541.62	42270.08
541.79	41982.19
541.96	41808.99
542.13	41794.95
542.30	41820.69
542.47	41790.27
542.63	42185.82
542.80	42272.42
542.97	42539.24
543.14	42890.32
543.31	42478.38
543.48	42885.64
543.64	43217.99
543.81	43115.01
543.98	43225.01
544.15	43077.56
544.32	43166.50
544.48	43395.87
544.65	43171.18
544.82	43379.49
544.99	42946.49
545.16	43304.59
545.32	43107.99
545.49	43590.14
545.66	43550.35
545.83	43428.64
546.00	43842.92
546.16	43318.64
546.33	43257.78
546.50	42941.81
546.67	43536.30
546.83	43320.98
547.00	43761.00
547.17	43313.95
547.34	43416.94
547.50	43332.68
547.67	43896.75
547.84	43784.40
548.00	43529.28
548.17	43983.35
548.34	43817.17
548.51	44252.51
548.67	44046.54
548.84	43838.23
549.01	43503.54
549.18	44095.69
549.34	43611.20
549.51	44163.57
549.68	44629.34
549.84	43999.73
550.01	44439.75
550.18	44128.46
550.34	44086.33
550.51	44137.82
550.68	44027.82
550.84	43765.68
551.01	44329.75
551.18	44046.54
551.34	44395.28
551.51	44343.79
551.68	44416.35
551.84	44608.27
552.01	44343.79
552.18	44252.51
552.34	44044.20
552.51	44191.65
552.68	44591.89
552.84	44725.30
553.01	44634.02
553.18	44528.69
553.34	44266.55
553.51	44701.89
553.67	44680.83
553.84	44486.56
554.01	44875.09
554.17	44748.70
554.34	44868.07
554.51	44758.06
554.67	45045.95
554.84	45041.27
555.00	44856.37
555.17	44573.16
555.33	44877.43
555.50	44617.63
555.67	45191.06
555.83	45102.12
556.00	45013.18
556.16	45113.83
556.33	45282.34
556.50	44884.45
556.66	44814.24
556.83	44687.85
556.99	45200.43
557.16	45134.89
557.32	44980.42
557.49	45366.60
557.65	45001.48
557.82	45303.41
557.98	45184.04
558.15	45326.81
558.32	45265.96
558.48	44973.39
558.65	45338.52
558.81	45055.31
558.98	45177.02
559.14	45336.18
559.31	45193.40
559.47	45614.70
559.64	45289.37
559.80	45511.72
559.97	45333.84
560.13	45160.64
560.30	45235.53
560.46	45500.01
560.63	45691.94
560.79	45813.65
560.96	45710.66
561.12	45736.41
561.29	45792.58
561.45	45476.61
561.61	45549.17
561.78	44938.29
561.94	45195.74
562.11	45528.10
562.27	45188.72
562.44	45720.02
562.60	45633.42
562.77	45745.77
562.93	45336.18
563.10	45474.27
563.26	45958.76
563.42	45851.09
563.59	45862.80
563.75	45764.49
563.92	45563.21
564.08	45724.71
564.24	45963.44
564.41	45347.88
564.57	45930.67
564.74	45607.68
564.90	45813.65
565.07	46216.22
565.23	45579.59
565.39	45820.67
565.56	45752.79
565.72	45354.90
565.88	45745.77
566.05	45663.85
566.21	46218.56
566.38	45514.06
566.54	45832.37
566.70	46096.85
566.87	46440.91
567.03	46085.15
567.19	46366.01
567.36	46054.72
567.52	45757.47
567.68	46082.81
567.85	46403.46
568.01	45991.53
568.17	45855.78
568.34	46036.00
568.50	45918.97
568.66	45895.56
568.83	46405.80
568.99	45787.90
569.15	45680.24
569.32	45846.41
569.48	45963.44
569.64	46190.47
569.81	46110.89
569.97	46220.90
570.13	45703.64
570.30	45972.80
570.46	46050.04
570.62	45736.41
570.78	45345.54
570.95	45989.19
571.11	46087.49
571.27	46099.19
571.43	45724.71
571.60	45879.18
571.76	46103.87
571.92	45668.53
572.09	46157.70
572.25	46361.33
572.41	46230.26
572.57	46124.94
572.74	46358.99
572.90	46141.32
573.06	46703.05
573.22	45942.38
573.38	46178.77
573.55	45804.28
573.71	46337.93
573.87	46333.24
574.03	45797.26
574.20	46155.36
574.36	46564.96
574.52	46138.98
574.68	46405.80
574.84	46068.76
575.01	46028.98
575.17	45888.54
575.33	45879.18
575.49	45748.11
575.65	46164.73
575.82	46424.53
575.98	46248.99
576.14	46071.10
576.30	46356.65
576.46	46251.33
576.62	46256.01
576.79	46241.96
576.95	46127.28
577.11	46124.94
577.27	46314.52
577.43	46398.78
577.59	46433.89
577.75	46335.59
577.92	45752.79
578.08	45883.86
578.24	45462.57
578.40	45961.10
578.56	46251.33
578.72	46440.91
578.88	46373.03
579.04	46274.73
579.21	46279.41
579.37	46403.46
579.53	46281.75
579.69	45825.35
579.85	45989.19
580.01	46052.38
580.17	45975.14
580.33	46344.95
580.49	46548.57
580.65	46113.23
580.82	46571.98
580.98	45933.01
581.14	46387.08
581.30	46646.88
581.46	46124.94
581.62	46461.97
581.78	46358.99
581.94	46740.50
582.10	46454.95
582.26	46443.25
582.42	46298.14
582.58	46092.17
582.74	46185.79
582.90	46483.04
583.06	46490.06
583.22	46525.17
583.38	46799.01
583.54	46885.61
583.70	46644.54
583.86	46501.76
584.02	46354.31
584.18	46686.67
584.34	46473.68
584.50	45876.84
584.66	46471.34
584.82	45893.22
584.98	46616.45
585.14	46691.35
585.30	46174.09
585.46	46616.45
585.62	46101.53
585.78	46131.96
585.94	46251.33
586.10	46426.87
586.26	46209.20
586.42	46471.34
586.58	46637.51
586.74	46773.27
586.90	46256.01
587.06	46146.00
587.22	46377.72
587.38	46007.91
587.54	46447.93
587.70	46436.23
587.86	46457.29
588.02	46464.32
588.18	45893.22
588.34	46328.56
588.49	45766.84
588.65	45914.29
588.81	45869.82
588.97	46136.64
589.13	45338.52
589.29	46202.18
589.45	45867.48
589.61	46253.67
589.77	46632.83
589.93	46162.39
590.08	46728.80
590.24	46557.94
590.40	46321.54
590.56	46979.23
590.72	46745.18
590.88	46244.30
591.04	46426.87
591.20	46576.66
591.35	46841.14
591.51	46642.20
591.67	46747.52
591.83	46499.42
591.99	46436.23
592.15	46841.14
592.31	46461.97
592.46	46504.10
592.62	46110.89
592.78	46827.10
592.94	46815.40
593.10	46508.79
593.26	46728.80
593.41	46553.26
593.57	46342.61
593.73	46298.14
593.89	46958.17
594.05	46270.05
594.20	46319.20
594.36	46518.15
594.52	46239.62
594.68	46555.60
594.84	46576.66
594.99	46518.15
595.15	46941.78
595.31	46997.96
595.47	46990.94
595.62	46464.32
595.78	46581.34
595.94	46604.75
596.10	46848.16
596.25	46569.64
596.41	46375.37
596.57	46824.76
596.73	46649.22
596.88	46473.68
597.04	46422.19
597.20	47033.07
597.36	46738.16
597.51	47044.77
597.67	46878.59
597.83	46670.28
597.99	46817.74
598.14	46815.40
598.30	46164.73
598.46	46401.12
598.61	46593.04
598.77	46258.35
598.93	46190.47
599.09	46677.30
599.24	47065.83
599.40	46686.67
599.56	46567.30
599.71	46562.62
599.87	46834.12
600.03	46679.64
600.18	46852.84
600.34	46440.91
600.50	47075.19
600.65	46686.67
600.81	46506.44
600.97	46724.11
601.12	46873.91
601.28	46433.89
601.44	46520.49
601.59	46436.23
601.75	46033.66
601.91	46513.47
602.06	46724.11
602.22	46344.95
602.37	46806.03
602.53	46630.49
602.69	46761.56
602.84	46373.03
603.00	46405.80
603.16	46490.06
603.31	46504.10
603.47	46326.22
603.62	46403.46
603.78	46457.29
603.94	46241.96
604.09	46738.16
604.25	46986.25
604.40	46508.79
604.56	46649.22
604.71	46328.56
604.87	46471.34
605.03	46197.49
605.18	46450.27
605.34	46326.22
605.49	46302.82
605.65	46288.77
605.80	46429.21
605.96	46344.95
606.12	46438.57
606.27	46660.92
606.43	46333.24
606.58	46408.14
606.74	46600.07
606.89	46190.47
607.05	46246.65
607.20	46529.85
607.36	45846.41
607.51	46461.97
607.67	46230.26
607.82	46344.95
607.98	46234.94
608.13	45872.16
608.29	46134.30
608.44	45982.16
608.60	46258.35
608.75	45633.42
608.91	46532.19
609.06	45780.88
609.22	46054.72
609.37	45984.51
609.53	46206.86
609.68	46321.54
609.84	45736.41
609.99	46082.81
610.15	46003.23
610.30	46052.38
610.46	45502.35
610.61	46012.59
610.76	46045.36
610.92	45998.55
611.07	45897.91
611.23	45874.50
611.38	45792.58
611.54	45478.95
611.69	45542.14
611.84	45535.12
612.00	45675.55
612.15	45202.77
612.31	45961.10
612.46	45853.44
612.62	45825.35
612.77	45511.72
612.92	46188.13
613.08	45375.97
613.23	45694.28
613.39	45162.98
613.54	44732.32
613.69	45865.14
613.85	45392.35
614.00	45062.33
614.15	45846.41
614.31	45790.24
614.46	45853.44
614.62	45823.01
614.77	45226.17
614.92	45448.52
615.08	45191.06
615.23	45595.98
615.38	45137.23
615.54	45141.91
615.69	45193.40
615.84	44947.65
616.00	45020.20
616.15	45067.02
616.30	45242.56
616.46	45184.04
616.61	45125.53
616.76	44737.00
616.92	44692.53
617.07	44332.09
617.22	44783.81
617.37	44713.59
617.53	45167.66
617.68	45312.77
617.83	45017.86
617.99	44594.23
618.14	45104.46
618.29	44891.48
618.45	44596.57
618.60	44741.68
618.75	44648.06
618.90	44662.10
619.06	44994.46
619.21	44708.91
619.36	45008.50
619.51	45031.91
619.67	44509.97
619.82	44526.35
619.97	44844.66
620.12	44861.05
620.28	44208.04
620.43	44533.37
620.58	44390.60
620.73	44629.34
620.89	44552.10
621.04	44446.77
621.19	44500.61
621.34	44634.02
621.49	44261.87
621.65	43772.70
621.80	44058.24
621.95	44226.76
622.10	44467.84
622.25	43887.39
622.41	43805.47
622.56	44069.95
622.71	44327.41
622.86	44203.36
623.01	44179.95
623.16	44109.74
623.32	43952.92
623.47	43828.87
623.62	43995.05
623.77	43655.67
623.92	44018.46
624.07	43896.75
624.23	43807.81
624.38	43714.19
624.53	43615.88
624.68	43526.94
624.83	43257.78
624.98	43920.15
625.13	43150.12
625.29	43721.21
625.44	43552.69
625.59	43613.54
625.74	42745.20
625.89	43021.39
626.04	42817.76
626.19	43217.99
626.34	43515.24
626.49	43435.66
626.65	43026.07
626.80	43115.01
626.95	43063.52
627.10	43332.68
627.25	42838.83
627.40	42829.46
627.55	42642.22
627.70	42691.37
627.85	42506.47
628.00	42948.83
628.15	42892.66
628.30	42777.97
628.45	42934.79
628.60	43098.62
628.76	43021.39
628.91	43014.37
629.06	42773.29
629.21	42623.50
629.36	42625.84
629.51	42623.50
629.66	42363.70
629.81	42295.82
629.96	42838.83
630.11	42501.79
630.26	42923.08
630.41	43236.72
630.56	42485.40
630.71	42344.97
630.86	42548.60
631.01	42225.60
631.16	42653.92
631.31	42405.83
631.46	41989.21
631.61	42202.20
631.76	42595.41
631.91	42347.31
632.06	42862.23
632.21	42557.96
632.36	42417.53
632.51	42281.78
632.66	42302.84
632.81	42206.88
632.96	42101.56
633.10	42019.64
633.25	42204.54
633.40	42085.17
633.55	41923.68
633.70	41596.00
633.85	42026.66
634.00	42124.96
634.15	42225.60
634.30	42295.82
634.45	41668.56
634.60	42087.51
634.75	41258.96
634.90	42120.28
635.05	41588.98
635.19	41867.50
635.34	41745.80
635.49	41298.75
635.64	41710.69
635.79	41694.30
635.94	41771.54
636.09	41619.41
636.24	41474.29
636.39	41347.90
636.53	41516.42
636.68	41235.56
636.83	41455.57
636.98	41420.46
637.13	41530.47
637.28	41509.40
637.43	41471.95
637.57	41460.25
637.72	41357.27
637.87	41511.74
638.02	41455.57
638.17	41425.14
638.32	40914.90
638.46	41165.34
638.61	41125.55
638.76	40840.01
638.91	41031.93
639.06	41024.91
639.20	40849.37
639.35	41109.17
639.50	40964.06
639.65	41258.96
639.80	41125.55
639.94	40739.36
640.09	40942.99
640.24	40732.34
640.39	40224.45
640.54	40940.65
640.68	40488.93
640.83	41027.25
640.98	40591.91
641.13	40470.20
641.27	41324.50
641.42	40556.80
641.57	40715.96
641.72	40460.84
641.86	40495.95
642.01	39725.91
642.16	40067.63
642.31	40079.33
642.45	40540.42
642.60	40086.36
642.75	40531.06
642.90	40465.52
643.04	40580.21
643.19	40231.47
643.34	40271.26
643.48	39976.35
643.63	39798.47
643.78	39646.33
643.93	39742.30
644.07	39938.90
644.22	40114.44
644.37	40308.71
644.51	39861.66
644.66	39899.11
644.81	40062.95
644.95	40479.57
645.10	39730.59
645.25	40149.55
645.39	39861.66
645.54	39978.69
645.69	39908.47
645.83	39765.70
645.98	39700.17
646.13	39800.81
646.27	39688.46
646.42	39508.24
646.57	39704.85
646.71	39381.85
646.86	39929.54
647.00	39381.85
647.15	39587.82
647.30	39292.91
647.44	39292.91
647.59	39452.07
647.74	39426.32
647.88	39356.11
648.03	39981.03
648.17	39332.70
648.32	39236.74
648.47	39316.32
648.61	39435.69
648.76	39531.65
648.90	39353.77
649.05	39393.56
649.20	38880.98
649.34	39337.38
649.49	38888.00
649.63	38993.32
649.78	39157.16
649.92	39257.81
650.07	39086.95
650.21	38873.96
650.36	39009.71
650.51	38326.27
650.65	39379.51
650.80	39316.32
650.94	39192.27
651.09	39353.77
651.23	38983.96
651.38	38998.01
651.52	38499.47
651.67	38607.14
651.81	38724.16
651.96	38930.13
652.10	38878.64
652.25	38541.60
652.39	38405.85
652.54	38323.93
652.68	39016.73
652.83	38866.94
652.97	38824.81
653.12	38394.15
653.26	38246.69
653.41	37991.58
653.55	38309.89
653.70	38190.52
653.84	38501.81
653.99	37975.19
654.13	38347.34
654.27	37867.53
654.42	38550.96
654.56	37944.76
654.71	38115.62
654.85	38415.21
655.00	37858.17
655.14	37853.48
655.29	37642.84
655.43	38096.90
655.57	37888.59
655.72	37354.95
655.86	37703.69
656.01	37474.32
656.15	37118.56
656.30	37654.54
656.44	37591.34
656.58	37610.07
656.73	37514.11
656.87	37427.51
657.01	37493.04
657.16	38024.34
657.30	37694.33
657.45	37338.57
657.59	37336.23
657.73	37434.53
657.88	37607.73
658.02	37886.25
658.16	37701.35
658.31	37654.54
658.45	37682.62
658.60	37589.00
658.74	37399.42
658.88	37738.80
659.03	37471.98
659.17	36776.84
659.31	37020.25
659.46	37165.37
659.60	37078.77
659.74	37193.45
659.89	37266.01
660.03	36844.71
660.17	37081.11
660.32	36643.43
660.46	36966.42
660.60	36886.84
660.74	36678.54
660.89	37249.63
661.03	36444.48
661.17	36423.42
661.32	36053.61
661.46	36664.49
661.60	36540.44
661.74	36699.60
661.89	36030.21
662.03	36313.41
662.17	36051.27
662.31	36257.24
662.46	35952.97
662.60	36711.30
662.74	36233.83
662.88	36006.80
663.03	35913.18
663.17	35667.42
663.31	35662.74
663.45	35620.61
663.60	35941.27
663.74	35426.35
663.88	35929.56
664.02	35693.17
664.17	35765.73
664.31	35758.70
664.45	35129.10
664.59	35388.90
664.73	35484.86
664.88	35679.13
665.02	35337.41
665.16	35491.88
665.30	35363.15
665.44	35337.41
665.59	35115.06
665.73	34932.50
665.87	34946.54
666.01	35185.27
666.15	35042.50
666.29	34995.69
666.44	35440.39
666.58	35056.54
666.72	34785.04
666.86	34731.21
667.00	34602.48
667.14	34871.64
667.28	34429.28
667.43	33998.62
667.57	34497.16
667.71	34246.72
667.85	34600.14
667.99	34293.53
668.13	34455.03
668.27	33841.81
668.41	34384.81
668.56	33764.57
668.70	33902.66
668.84	33853.51
668.98	33783.29
669.12	33851.17
669.26	33455.62
669.40	33333.91
669.54	33631.16
669.68	33858.19
669.82	33369.02
669.96	33198.16
670.10	33759.89
670.25	33282.42
670.39	33380.72
670.53	32973.47
670.67	32851.76
670.81	33373.70
670.95	33167.73
671.09	32905.59
671.23	33104.54
671.37	32868.14
671.51	32753.46
671.65	32645.79
671.79	32336.84
671.93	32481.95
672.07	32615.37
672.21	32797.93
672.35	32456.21
672.49	32858.78
672.63	32407.06
672.77	32170.66
672.91	32315.78
673.05	32254.92
673.19	32912.61
673.33	32126.19
673.47	32091.09
673.61	31662.77
673.75	31388.92
673.89	31597.23
674.03	31342.11
674.17	31489.57
674.31	31683.83
674.45	31498.93
674.59	31260.20
674.73	31494.25
674.87	31012.10
675.01	30843.58
675.15	30878.69
675.29	31028.48
675.43	31117.42
675.56	31154.87
675.70	31077.63
675.84	30682.08
675.98	30026.73
676.12	30918.48
676.26	30525.27
676.40	30403.56
676.54	30710.17
676.68	30141.42
676.82	29769.27
676.96	30543.99
677.10	29638.20
677.23	29909.71
677.37	30057.16
677.51	29184.14
677.65	29394.79
677.79	28936.04
677.93	29319.89
678.07	29413.51
678.21	28767.52
678.34	29280.10
678.48	28807.31
678.62	28807.31
678.76	28957.11
678.90	28400.06
679.04	28416.44
679.18	28662.20
679.31	28254.95
679.45	28474.96
679.59	27857.06
679.73	27950.68
679.87	28009.19
680.00	28271.33
680.14	28140.26
680.28	28006.85
680.42	27768.12
680.56	27875.78
680.70	27625.34
680.83	27683.86
680.97	27557.47
681.11	27538.74
681.25	27040.21
681.39	27496.61
681.52	27716.62
681.66	27316.39
681.80	27019.14
681.94	26923.18
682.07	26827.22
682.21	26651.68
682.35	26897.44
682.49	26771.05
682.62	26600.19
682.76	26583.80
682.90	26630.62
683.04	26164.85
683.17	26293.58
683.31	26087.61
683.45	26099.31
683.59	25591.42
683.72	25549.29
683.86	26195.28
684.00	26033.78
684.13	25582.06
684.27	25483.75
684.41	25053.09
684.55	24992.24
684.68	25350.34
684.82	25074.16
684.96	25355.02
685.09	25048.41
685.23	25076.50
685.37	24685.63
685.50	25006.28
685.64	24805.00
685.78	24496.05
685.91	24561.58
686.05	24243.27
686.19	24105.18
686.32	24135.60
686.46	23550.47
686.60	23571.54
686.73	23927.30
686.87	23550.47
687.01	23260.24
687.14	23309.40
687.28	23164.28
687.42	23239.18
687.55	23325.78
687.69	23440.47
687.82	23449.83
687.96	23190.03
688.10	23063.64
688.23	22808.52
688.37	22808.52
688.50	22295.94
688.64	22838.95
688.78	22242.11
688.91	22642.34
689.05	22384.88
689.18	22363.82
689.32	22211.68
689.46	22082.95
689.59	22321.69
689.73	22115.72
689.86	21874.65
690.00	21940.18
690.13	21853.58
690.27	22012.74
690.41	21621.87
690.54	21153.76
690.68	21535.27
690.81	21390.16
690.95	21544.63
691.08	21207.59
691.22	21322.28
691.35	21064.82
691.49	21528.25
691.62	21216.96
691.76	21516.54
691.89	20992.26
692.03	20711.40
692.16	20559.27
692.30	20840.13
692.43	20582.67
692.57	20126.27
692.70	20049.03
692.84	20156.69
692.97	20161.37
693.11	20044.35
693.24	19953.07
693.38	19850.08
693.51	19772.85
693.65	20194.14
693.78	19782.21
693.92	19756.46
694.05	19988.18
694.19	19276.65
694.32	19393.68
694.45	19112.81
694.59	19325.80
694.72	19084.73
694.86	19218.14
694.99	18853.02
695.13	18890.46
695.26	18979.40
695.39	18972.38
695.53	18941.96
695.66	18555.77
695.80	18625.98
695.93	18541.72
696.07	18281.92
696.20	18590.88
696.33	18202.35
696.47	18200.01
696.60	17869.99
696.73	18026.81
696.87	17879.35
697.00	17846.58
697.14	18057.23
697.27	17619.55
697.40	17687.43
697.54	17652.32
697.67	17448.69
697.80	17317.62
697.94	17364.43
698.07	17226.34
698.21	17371.46
698.34	16669.30
698.47	17076.55
698.61	16835.47
698.74	16924.41
698.87	16781.64
699.01	16453.97
699.14	16601.42
699.27	16273.74
699.40	16098.20
699.54	16353.32
699.67	16269.06
699.80	16390.77
699.94	16243.32
700.07	16114.59
700.20	16009.26
700.34	15840.75
700.47	16123.95
700.60	16056.08
700.73	16070.12
700.87	16102.89
701.00	15744.78
701.13	15639.46
701.26	15541.16
701.40	15435.83
701.53	15330.51
701.66	15353.91
701.79	15126.88
701.93	15283.70
702.06	15089.43
702.19	15110.50
702.32	15124.54
702.46	15136.24
702.59	14740.69
702.72	14998.15
702.85	14862.40
702.99	14745.38
703.12	14691.54
703.25	14377.91
703.38	14525.36
703.51	14406.00
703.65	14473.87
703.78	14611.96
703.91	14370.89
704.04	14307.69
704.17	14171.94
704.31	14012.79
704.44	13956.61
704.57	14094.71
704.70	13877.04
704.83	13724.90
704.96	13870.01
705.10	13935.55
705.23	13862.99
>>>>>End Processed Spectral Data<<<<<
