SpectraSuite Data File
++++++++++++++++++++++++++++++++++++
Date: Fri Oct 25 11:34:28 EDT 2013
User: price-jones
Dark Spectrum Present: No
Reference Spectrum Present: No
Number of Sampled Component Spectra: 1
Spectrometers: USB2+H05261
Integration Time (usec): 100000 (USB2+H05261)
Spectra Averaged: 1 (USB2+H05261)
Boxcar Smoothing: 0 (USB2+H05261)
Correct for Electrical Dark: No (USB2+H05261)
Strobe/Lamp Enabled: No (USB2+H05261)
Correct for Detector Non-linearity: No (USB2+H05261)
Correct for Stray Light: No (USB2+H05261)
Number of Pixels in Processed Spectrum: 2048
>>>>>Begin Processed Spectral Data<<<<<
365.73	264.48
365.92	264.48
366.12	264.48
366.32	212.99
366.52	196.60
366.72	131.07
366.91	180.22
367.11	152.13
367.31	95.96
367.51	166.18
367.70	163.84
367.90	227.03
368.10	231.71
368.30	149.79
368.49	182.56
368.69	273.84
368.89	252.78
369.09	227.03
369.28	147.45
369.48	215.33
369.68	255.12
369.87	203.63
370.07	280.86
370.27	238.73
370.47	271.50
370.66	433.00
370.86	524.28
371.06	503.22
371.25	554.71
371.45	559.39
371.65	557.05
371.84	573.43
372.04	550.03
372.24	594.50
372.44	575.77
372.63	582.79
372.83	543.00
373.03	624.92
373.22	512.58
373.42	610.88
373.62	608.54
373.81	578.11
374.01	599.18
374.21	688.12
374.40	641.31
374.60	669.39
374.79	582.79
374.99	641.31
375.19	676.41
375.38	685.78
375.58	596.84
375.78	645.99
375.97	636.63
376.17	748.97
376.37	622.58
376.56	739.61
376.76	718.54
376.95	704.50
377.15	662.37
377.35	676.41
377.54	662.37
377.74	662.37
377.93	627.26
378.13	678.76
378.33	662.37
378.52	697.48
378.72	634.29
378.91	657.69
379.11	681.10
379.31	643.65
379.50	697.48
379.70	746.63
379.89	697.48
380.09	615.56
380.28	634.29
380.48	713.86
380.68	688.12
380.87	732.59
381.07	784.08
381.26	751.31
381.46	777.06
381.65	837.91
381.85	734.93
382.04	730.25
382.24	814.51
382.43	725.57
382.63	706.84
382.83	788.76
383.02	823.87
383.22	837.91
383.41	851.96
383.61	898.77
383.80	901.11
384.00	732.59
384.19	835.57
384.39	887.06
384.58	823.87
384.78	798.12
384.97	784.08
385.17	823.87
385.36	812.17
385.56	842.59
385.75	791.10
385.95	767.70
386.14	800.46
386.34	854.30
386.53	772.38
386.72	870.68
386.92	849.61
387.11	877.70
387.31	844.93
387.50	802.80
387.70	802.80
387.89	875.36
388.09	861.32
388.28	800.46
388.48	908.13
388.67	894.08
388.86	910.47
389.06	964.30
389.25	950.26
389.45	980.68
389.64	908.13
389.84	924.51
390.03	957.28
390.22	936.21
390.42	880.04
390.61	952.60
390.81	912.81
391.00	978.34
391.19	1008.77
391.39	978.34
391.58	978.34
391.78	971.32
391.97	959.62
392.16	997.07
392.36	1008.77
392.55	1032.18
392.75	990.05
392.94	950.26
393.13	1067.28
393.33	1022.81
393.52	1093.03
393.71	1116.44
393.91	1104.73
394.10	994.73
394.29	1074.31
394.49	1095.37
394.68	1069.62
394.88	1064.94
395.07	1167.93
395.26	1132.82
395.46	1064.94
395.65	1137.50
395.84	1111.75
396.04	1200.69
396.23	1191.33
396.42	1203.04
396.62	1263.89
396.81	1296.66
397.00	1198.35
397.19	1184.31
397.39	1144.52
397.58	1240.48
397.77	1256.87
397.97	1240.48
398.16	1203.04
398.35	1303.68
398.55	1233.46
398.74	1205.38
398.93	1263.89
399.12	1324.74
399.32	1322.40
399.51	1277.93
399.70	1383.26
399.90	1352.83
400.09	1317.72
400.28	1390.28
400.47	1252.19
400.67	1355.17
400.86	1378.58
401.05	1420.71
401.24	1343.47
401.44	1411.34
401.63	1352.83
401.82	1327.08
402.01	1420.71
402.21	1416.02
402.40	1418.36
402.59	1434.75
402.78	1497.94
402.97	1507.30
403.17	1617.31
403.36	1483.90
403.55	1514.33
403.74	1526.03
403.93	1519.01
404.13	1600.93
404.32	1502.62
404.51	1570.50
404.70	1472.20
404.89	1558.80
405.09	1509.65
405.28	1603.27
405.47	1586.88
405.66	1579.86
405.85	1781.15
406.05	1717.95
406.24	1657.10
406.43	1666.46
406.62	1764.76
406.81	1806.89
407.00	1685.19
407.20	1687.53
407.39	1734.34
407.58	1739.02
407.77	1825.62
407.96	1806.89
408.15	1746.04
408.34	1827.96
408.54	1851.36
408.73	1762.42
408.92	1872.43
409.11	1923.92
409.30	1839.66
409.49	1851.36
409.68	1905.20
409.87	1898.17
410.07	1966.05
410.26	1984.77
410.45	2017.54
410.64	2066.69
410.83	2054.99
411.02	2120.53
411.21	2066.69
411.40	2064.35
411.59	2066.69
411.78	2111.16
411.98	2179.04
412.17	2141.59
412.36	2181.38
412.55	2181.38
412.74	2352.24
412.93	2186.06
413.12	2321.81
413.31	2317.13
413.50	2307.77
413.69	2232.87
413.88	2349.90
414.07	2314.79
414.26	2366.28
414.45	2307.77
414.64	2307.77
414.83	2527.78
415.02	2455.22
415.22	2600.34
415.41	2492.67
415.60	2502.03
415.79	2492.67
415.98	2597.99
416.17	2731.41
416.36	2621.40
416.55	2640.12
416.74	2672.89
416.93	2665.87
417.12	2782.90
417.31	2768.85
417.50	2860.13
417.69	2827.37
417.88	2855.45
418.07	2883.54
418.26	2731.41
418.45	2855.45
418.64	2881.20
418.83	2874.18
419.02	2871.84
419.21	2883.54
419.39	2913.97
419.58	3014.61
419.77	3023.97
419.96	3033.33
420.15	3030.99
420.34	3016.95
420.53	3122.27
420.72	3112.91
420.91	3122.27
421.10	3084.83
421.29	3164.40
421.48	2986.52
421.67	3173.77
421.86	3155.04
422.05	3129.30
422.24	3180.79
422.43	3246.32
422.61	3180.79
422.80	3225.26
422.99	3159.72
423.18	3323.56
423.37	3353.99
423.56	3255.69
423.75	3398.46
423.94	3232.28
424.13	3103.55
424.32	3019.29
424.50	3260.37
424.69	3393.78
424.88	3311.86
425.07	3206.53
425.26	3241.64
425.45	3337.60
425.64	3246.32
425.83	3213.56
426.01	3426.54
426.20	3365.69
426.39	3309.52
426.58	3368.03
426.77	3398.46
426.96	3370.37
427.15	3379.73
427.33	3361.01
427.52	3426.54
427.71	3520.17
427.90	3517.83
428.09	3585.70
428.28	3522.51
428.46	3543.57
428.65	3522.51
428.84	3552.93
429.03	3583.36
429.22	3496.76
429.40	3545.91
429.59	3625.49
429.78	3494.42
429.97	3578.68
430.16	3735.50
430.34	3667.62
430.53	3763.58
430.72	3770.60
430.91	3775.28
431.10	3665.28
431.28	3749.54
431.47	3772.94
431.66	3859.54
431.85	3950.82
432.03	3918.06
432.22	3992.95
432.41	3852.52
432.60	4025.72
432.79	3927.42
432.97	3932.10
433.16	3990.61
433.35	3918.06
433.54	3943.80
433.72	3960.19
433.91	3976.57
434.10	3962.53
434.28	4023.38
434.47	3948.48
434.66	4098.28
434.85	4070.19
435.03	4159.13
435.22	3992.95
435.41	4276.16
435.59	4269.14
435.78	4262.12
435.97	4156.79
436.16	4250.41
436.34	4287.86
436.53	4276.16
436.72	4252.75
436.90	4278.50
437.09	4416.59
437.28	4283.18
437.46	4327.65
437.65	4236.37
437.84	4458.72
438.02	4393.19
438.21	4456.38
438.40	4360.42
438.58	4531.28
438.77	4514.89
438.96	4538.30
439.14	4592.13
439.33	4798.10
439.52	4610.86
439.70	4718.52
439.89	4849.59
440.08	4887.04
440.26	4809.80
440.45	4828.53
440.63	4933.85
440.82	4889.38
441.01	4952.57
441.19	5006.41
441.38	4873.00
441.57	4999.38
441.75	5273.23
441.94	5179.61
442.12	5163.22
442.31	5146.84
442.50	5226.42
442.68	5221.74
442.87	5172.58
443.05	5296.63
443.24	5418.34
443.43	5249.82
443.61	5245.14
443.80	5380.89
443.98	5268.55
444.17	5039.17
444.35	5303.65
444.54	5497.92
444.73	5387.91
444.91	5303.65
445.10	5289.61
445.28	5327.06
445.47	5378.55
445.65	5282.59
445.84	5563.45
446.02	5497.92
446.21	5692.18
446.39	5416.00
446.58	5535.37
446.77	5544.73
446.95	5308.34
447.14	5469.83
447.32	5657.07
447.51	5481.53
447.69	5486.22
447.88	5350.46
448.06	5547.07
448.25	5647.71
448.43	5584.52
448.62	5624.31
448.80	5462.81
448.99	5596.22
449.17	5612.60
449.36	5488.56
449.54	5837.30
449.73	5717.93
449.91	5792.83
450.10	5802.19
450.28	5902.83
450.46	5959.00
450.65	5706.23
450.83	5919.21
451.02	5741.33
451.20	5975.39
451.39	5949.64
451.57	5795.17
451.76	5841.98
451.94	5863.04
452.13	5998.79
452.31	5912.19
452.49	5930.92
452.68	6108.80
452.86	6071.35
453.05	6143.91
453.23	5982.41
453.42	6050.28
453.60	5980.07
453.78	6160.29
453.97	6031.56
454.15	6186.04
454.34	6085.39
454.52	6230.51
454.70	6209.44
454.89	6232.85
455.07	6384.98
455.26	6272.64
455.44	6310.08
455.62	6335.83
455.81	6513.71
455.99	6370.94
456.17	6518.39
456.36	6387.32
456.54	6492.65
456.73	6502.01
456.91	6689.25
457.09	6733.72
457.28	6857.77
457.46	6588.61
457.64	6841.39
457.83	6768.83
458.01	6736.06
458.19	6867.13
458.38	6745.42
458.56	6817.98
458.74	6970.12
458.93	6855.43
459.11	6946.71
459.29	6841.39
459.48	6885.86
459.66	6939.69
459.84	7035.65
460.03	7241.62
460.21	7152.68
460.39	6981.82
460.57	7344.60
460.76	7180.76
460.94	7080.12
461.12	7279.07
461.31	7148.00
461.49	7126.93
461.67	7110.55
461.85	7499.08
462.04	7375.03
462.22	7653.55
462.40	7356.30
462.59	7300.13
462.77	7424.18
462.95	7470.99
463.13	7328.22
463.32	7466.31
463.50	7503.76
463.68	7611.42
463.86	7660.57
464.05	7506.10
464.23	7588.02
464.41	7625.47
464.59	7590.36
464.78	7627.81
464.96	7740.15
465.14	7611.42
465.32	7723.77
465.50	7779.94
465.69	7749.51
465.87	7911.01
466.05	7681.64
466.23	7815.05
466.41	7915.69
466.60	8025.70
466.78	7602.06
466.96	8025.70
467.14	7705.04
467.32	8051.44
467.51	8023.36
467.69	7630.15
467.87	7901.65
468.05	8039.74
468.23	7889.95
468.41	7978.89
468.60	8095.91
468.78	8058.46
468.96	8072.51
469.14	8189.53
469.32	8353.37
469.50	8187.19
469.69	8152.09
469.87	8465.72
470.05	8243.37
470.23	8341.67
470.41	8465.72
470.59	8463.38
470.77	8573.38
470.95	8489.12
471.14	8734.88
471.32	8189.53
471.50	8573.38
471.68	8769.99
471.86	8657.64
472.04	8819.14
472.22	8908.08
472.40	8643.60
472.58	8624.87
472.77	8812.12
472.95	8896.38
473.13	9336.40
473.31	8952.55
473.49	8971.27
473.67	8877.65
473.85	9170.22
474.03	9327.03
474.21	9406.61
474.39	9437.04
474.57	9441.72
474.75	9518.96
474.93	9640.67
475.12	9643.01
475.30	9687.48
475.48	9518.96
475.66	9750.67
475.84	9736.63
476.02	9902.81
476.20	9799.82
476.38	10057.28
476.56	10122.82
476.74	10153.24
476.92	9811.53
477.10	10101.75
477.28	10040.90
477.46	10094.73
477.64	10186.01
477.82	10506.66
478.00	10579.22
478.18	10824.98
478.36	10670.50
478.54	10822.64
478.72	10920.94
478.90	10874.13
479.08	11026.26
479.26	11082.44
479.44	11178.40
479.62	11396.07
479.80	11243.93
479.98	11199.46
480.16	11686.29
480.34	11480.33
480.52	11667.57
480.70	11674.59
480.88	11489.69
481.06	11934.39
481.24	11784.60
481.41	12203.55
481.59	11969.50
481.77	12262.07
481.95	12388.46
482.13	12444.63
482.31	12126.32
482.49	12695.07
482.67	12624.85
482.85	12936.14
483.03	12835.50
483.21	13001.68
483.39	13060.19
483.57	12975.93
483.74	13334.03
483.92	13282.54
484.10	13532.98
484.28	13666.39
484.46	13891.08
484.64	14080.66
484.82	13764.69
485.00	13839.59
485.18	14328.76
485.35	14331.10
485.53	14356.85
485.71	14338.12
485.89	14771.12
486.07	14703.25
486.25	14829.63
486.43	14972.41
486.61	14991.13
486.78	15147.95
486.96	15119.86
487.14	15304.76
487.32	15501.37
487.50	15751.81
487.68	15559.88
487.85	15768.19
488.03	15962.45
488.21	16559.29
488.39	16107.57
488.57	16414.18
488.75	16350.98
488.92	16482.05
489.10	16905.69
489.28	16465.67
489.46	17003.99
489.64	16800.37
489.81	17261.45
489.99	17516.57
490.17	17490.82
490.35	17359.75
490.53	17687.43
490.70	18057.23
490.88	17738.92
491.06	18106.38
491.24	18057.23
491.41	18298.31
491.59	18185.96
491.77	18672.79
491.95	18459.81
492.13	18623.64
492.30	18904.51
492.48	18768.76
492.66	18579.17
492.84	19192.39
493.01	19197.07
493.19	19398.36
493.37	19440.49
493.54	19412.40
493.72	19946.05
493.90	19496.66
494.08	19726.04
494.25	19805.61
494.43	19885.19
494.61	20009.24
494.79	20259.68
494.96	20416.49
495.14	20238.61
495.32	20814.38
495.49	20856.51
495.67	20606.08
495.85	21200.57
496.02	21184.19
496.20	21123.33
496.38	21034.39
496.55	21476.76
496.73	21673.36
496.91	21652.30
497.09	21619.53
497.26	21668.68
497.44	21818.47
497.62	22033.80
497.79	22377.86
497.97	22221.05
498.14	22457.44
498.32	22661.07
498.50	22752.35
498.67	22878.74
498.85	22693.83
499.03	23073.00
499.20	23103.43
499.38	23232.16
499.56	23332.80
499.73	23192.37
499.91	23213.43
500.08	23672.18
500.26	23300.03
500.44	23456.85
500.61	23775.16
500.79	23484.94
500.97	23946.02
501.14	23882.83
501.32	24521.79
501.49	24079.43
501.67	24156.67
501.84	24594.35
502.02	24411.79
502.20	24414.13
502.37	24608.39
502.55	24666.91
502.72	24783.93
502.90	24685.63
503.07	24627.12
503.25	24863.51
503.43	24809.68
503.60	25359.70
503.78	25022.67
503.95	25266.08
504.13	25556.31
504.30	25488.43
504.48	25558.65
504.65	25738.87
504.83	25816.11
505.01	25755.26
505.18	25703.76
505.36	26146.12
505.53	26094.63
505.71	26401.24
505.88	26232.72
506.06	26136.76
506.23	26541.68
506.41	26609.55
506.58	26286.56
506.76	26810.84
506.93	26513.59
507.11	26810.84
507.28	26595.51
507.46	26639.98
507.63	26705.51
507.81	27498.95
507.98	26906.80
508.16	27349.16
508.33	27070.64
508.50	27606.62
508.68	27456.82
508.85	27740.03
509.03	27915.57
509.20	27517.68
509.38	27833.65
509.55	27887.48
509.73	27901.53
509.90	28292.40
510.08	28098.13
510.25	28060.68
510.42	28409.42
510.60	28371.97
510.77	28456.23
510.95	28687.95
511.12	28233.88
511.30	28552.20
511.47	28828.38
511.64	28514.75
511.82	28952.43
511.99	28737.10
512.17	28961.79
512.34	29273.08
512.51	29518.84
512.69	29261.38
512.86	29296.49
513.04	29347.98
513.21	29788.00
513.38	29900.34
513.56	29532.88
513.73	29455.64
513.90	29921.41
514.08	29579.69
514.25	29858.21
514.43	29956.52
514.60	30235.04
514.77	30204.61
514.95	30478.46
515.12	30167.16
515.29	30682.08
515.47	30265.47
515.64	30661.02
515.81	30368.45
515.99	30698.47
516.16	30822.51
516.33	31370.20
516.51	30939.54
516.68	31023.80
516.85	31056.57
517.03	31316.37
517.20	31101.04
517.37	31175.94
517.54	30946.56
517.72	31243.81
517.89	31571.49
518.06	31644.04
518.24	31625.32
518.41	31332.75
518.58	31505.95
518.75	31697.88
518.93	31948.31
519.10	31934.27
519.27	31983.42
519.45	32105.13
519.62	32093.43
519.79	32308.76
519.96	31740.00
520.14	32332.16
520.31	32259.60
520.48	32297.05
520.65	32418.76
520.83	32666.86
521.00	32945.38
521.17	32582.60
521.34	32704.31
521.52	33010.92
521.69	32741.75
521.86	33113.90
522.03	33228.59
522.20	33362.00
522.38	33237.95
522.55	33820.74
522.72	33399.44
522.89	33450.94
523.07	33780.95
523.24	33366.68
523.41	33888.62
523.58	33500.09
523.75	33919.04
523.92	33666.27
524.10	34260.76
524.27	33816.06
524.44	34108.63
524.61	34235.02
524.78	34150.76
524.96	34347.36
525.13	34567.37
525.30	34906.75
525.47	34602.48
525.64	34396.51
525.81	34546.31
525.98	34733.55
526.16	34424.60
526.33	34513.54
526.50	34698.44
526.67	34794.40
526.84	34920.79
527.01	34763.98
527.18	35049.52
527.36	35414.65
527.53	34881.00
527.70	35285.92
527.87	35442.73
528.04	35164.21
528.21	35585.50
528.38	35761.05
528.55	35550.40
528.72	35672.10
528.89	35702.53
529.07	35763.39
529.24	35283.58
529.41	35920.20
529.58	35569.12
529.75	35999.78
529.92	35644.02
530.09	36282.98
530.26	36280.64
530.43	36231.49
530.60	35812.54
530.77	35859.35
530.94	36210.43
531.11	36062.97
531.28	36151.91
531.46	36259.58
531.63	36613.00
531.80	36378.95
531.97	36734.71
532.14	36402.35
532.31	36940.68
532.48	36828.33
532.65	37074.09
532.82	36725.35
532.99	36503.00
533.16	36591.94
533.33	36498.31
533.50	37247.29
533.67	36840.03
533.84	36676.19
534.01	37289.42
534.18	36858.76
534.35	37743.48
534.52	37371.33
534.69	37647.52
534.86	37682.62
535.03	37413.46
535.20	37801.99
535.37	37631.13
535.54	37867.53
535.71	37448.57
535.88	37933.06
536.05	37663.90
536.22	37677.94
536.38	37893.27
536.55	37839.44
536.72	37654.54
536.89	37780.93
537.06	37799.65
537.23	38167.12
537.40	37804.33
537.57	38178.82
537.74	38064.13
537.91	38192.86
538.08	38141.37
538.25	37912.00
538.42	38108.60
538.59	38686.71
538.75	38270.10
538.92	38770.97
539.09	38705.44
539.26	38419.89
539.43	38424.57
539.60	38698.42
539.77	38796.72
539.94	39021.41
540.11	38855.23
540.28	38787.36
540.44	38906.73
540.61	39030.77
540.78	39051.84
540.95	38829.49
541.12	38403.51
541.29	38747.57
541.46	39208.65
541.62	39028.43
541.79	39192.27
541.96	38792.04
542.13	39005.03
542.30	39218.02
542.47	39594.84
542.63	39655.70
542.80	39955.29
542.97	40023.16
543.14	40179.98
543.31	39690.80
543.48	39885.07
543.64	40130.83
543.81	40612.98
543.98	40135.51
544.15	39952.94
544.32	40301.68
544.48	40591.91
544.65	40013.80
544.82	39950.60
544.99	40371.90
545.16	40460.84
545.32	40418.71
545.49	40474.88
545.66	40156.57
545.83	40624.68
546.00	40526.38
546.16	40486.59
546.33	40720.64
546.50	40559.14
546.67	41422.80
546.83	40414.03
547.00	40797.88
547.17	40676.17
547.34	40987.46
547.50	41095.13
547.67	41439.18
547.84	41088.10
548.00	41088.10
548.17	41354.93
548.34	40746.39
548.51	41490.68
548.67	41364.29
548.84	41106.83
549.01	41200.45
549.18	40978.10
549.34	41490.68
549.51	41607.70
549.68	41357.27
549.84	41621.75
550.01	41481.31
550.18	41195.77
550.34	41647.49
550.51	41605.36
550.68	41853.46
550.84	41745.80
551.01	42246.67
551.18	41617.07
551.34	41741.11
551.51	41928.36
551.68	42047.72
551.84	41509.40
552.01	41879.21
552.18	42415.19
552.34	41830.05
552.51	42024.32
552.68	42113.26
552.84	41897.93
553.01	42476.04
553.18	42085.17
553.34	42249.01
553.51	41979.85
553.67	42525.19
553.84	42504.13
554.01	42803.72
554.17	42721.80
554.34	42686.69
554.51	42373.06
554.67	42518.17
554.84	42539.24
555.00	42476.04
555.17	42586.05
555.33	43126.71
555.50	42487.74
555.67	42843.51
555.83	42623.50
556.00	42754.57
556.16	43023.73
556.33	43227.35
556.50	42941.81
556.66	42988.62
556.83	42639.88
556.99	42965.21
557.16	43330.34
557.32	43166.50
557.49	43175.86
557.65	42728.82
557.82	43079.90
557.98	43419.28
558.15	43173.52
558.32	43232.04
558.48	42979.26
558.65	43442.68
558.81	43122.03
558.98	43145.44
559.14	43129.05
559.31	43409.92
559.47	43154.80
559.64	43480.13
559.80	43126.71
559.97	43648.65
560.13	43115.01
560.30	43299.91
560.46	43573.75
560.63	43606.52
560.79	43559.71
560.96	43194.59
561.12	43931.86
561.29	43622.90
561.45	43749.29
561.61	43997.39
561.78	43505.88
561.94	43529.28
562.11	43772.70
562.27	43615.88
562.44	43606.52
562.60	44109.74
562.77	44186.97
562.93	43821.85
563.10	44041.86
563.26	44044.20
563.42	44240.81
563.59	43966.96
563.75	43976.33
563.92	43845.26
564.08	43917.81
564.24	44105.06
564.41	43849.94
564.57	44088.67
564.74	44126.12
564.90	44009.09
565.07	44095.69
565.23	43995.05
565.39	44135.48
565.56	44439.75
565.72	44360.17
565.88	44362.51
566.05	44395.28
566.21	44428.05
566.38	44533.37
566.54	44638.70
566.70	44102.71
566.87	44278.25
567.03	44301.66
567.19	44877.43
567.36	44184.63
567.52	44189.31
567.68	44697.21
567.85	44996.80
568.01	44402.30
568.17	44320.38
568.34	44603.59
568.50	44608.27
568.66	44304.00
568.83	44545.08
568.99	44355.49
569.15	44500.61
569.32	44083.99
569.48	44467.84
569.64	44758.06
569.81	44502.95
569.97	44786.15
570.13	44804.88
570.30	44631.68
570.46	44320.38
570.62	44552.10
570.78	44631.68
570.95	44498.26
571.11	44825.94
571.27	44999.14
571.43	44432.73
571.60	44732.32
571.76	44542.74
571.92	44229.10
572.09	44900.84
572.25	44500.61
572.41	44495.92
572.57	44725.30
572.74	45186.38
572.90	44540.39
573.06	45017.86
573.22	45137.23
573.38	45008.50
573.55	44837.64
573.71	45291.71
573.87	45132.55
574.03	45294.05
574.20	45059.99
574.36	45022.54
574.52	45067.02
574.68	44783.81
574.84	45373.63
575.01	45076.38
575.17	45045.95
575.33	44692.53
575.49	45031.91
575.65	45439.16
575.82	44863.39
575.98	44893.82
576.14	45270.64
576.30	45361.92
576.46	45013.18
576.62	44727.64
576.79	44676.15
576.95	44486.56
577.11	44701.89
577.27	45200.43
577.43	44823.60
577.59	45415.76
577.75	44999.14
577.92	44849.35
578.08	44952.33
578.24	45069.36
578.40	45048.29
578.56	45621.72
578.72	44973.39
578.88	45687.26
579.04	44935.95
579.21	45216.81
579.37	45113.83
579.53	45474.27
579.69	45219.15
579.85	45366.60
580.01	45280.00
580.17	44795.51
580.33	45116.17
580.49	45574.91
580.65	45516.40
580.82	45202.77
580.98	45294.05
581.14	44713.59
581.30	44891.48
581.46	45144.25
581.62	45425.12
581.78	44994.46
581.94	45834.71
582.10	45237.87
582.26	45492.99
582.42	44938.29
582.58	45022.54
582.74	44964.03
582.90	45483.63
583.06	45469.59
583.22	45357.24
583.38	45537.46
583.54	45291.71
583.70	45684.92
583.86	45703.64
584.02	45216.81
584.18	45886.20
584.34	45446.18
584.50	45638.11
584.66	45771.52
584.82	45469.59
584.98	45530.44
585.14	45502.35
585.30	45523.42
585.46	45284.68
585.62	45406.39
585.78	45219.15
585.94	45331.50
586.10	45329.16
586.26	45319.79
586.42	45277.66
586.58	45626.40
586.74	45525.76
586.90	45357.24
587.06	45614.70
587.22	45546.82
587.38	45148.93
587.54	45212.13
587.70	45670.87
587.86	45205.11
588.02	45333.84
588.18	45888.54
588.34	45532.78
588.49	45151.27
588.65	45345.54
588.81	45528.10
588.97	45455.54
589.13	45411.07
589.29	45418.10
589.45	45399.37
589.61	45357.24
589.77	45511.72
589.93	45755.13
590.08	45811.31
590.24	45886.20
590.40	46272.39
590.56	45837.05
590.72	45762.15
590.88	45640.45
591.04	45577.25
591.20	45909.61
591.35	45851.09
591.51	46469.00
591.67	45951.74
591.83	46539.21
591.99	45551.51
592.15	45703.64
592.31	45928.33
592.46	45708.32
592.62	45546.82
592.78	45928.33
592.94	45855.78
593.10	46340.27
593.26	46506.44
593.41	46106.21
593.57	46230.26
593.73	46068.76
593.89	46054.72
594.05	46174.09
594.20	46220.90
594.36	46354.31
594.52	46363.67
594.68	46115.58
594.84	45975.14
594.99	46405.80
595.15	46419.84
595.31	46202.18
595.47	46117.92
595.62	46197.49
595.78	45640.45
595.94	46405.80
596.10	45776.20
596.25	46153.02
596.41	46377.72
596.57	46181.11
596.73	46347.29
596.88	46637.51
597.04	46110.89
597.20	46583.68
597.36	46351.97
597.51	45996.21
597.67	46012.59
597.83	46096.85
597.99	45883.86
598.14	46028.98
598.30	46298.14
598.46	45996.21
598.61	46342.61
598.77	46162.39
598.93	46291.12
599.09	46426.87
599.24	46436.23
599.40	46010.25
599.56	46403.46
599.71	46571.98
599.87	46660.92
600.03	46611.77
600.18	46490.06
600.34	46312.18
600.50	46218.56
600.65	46312.18
600.81	46906.68
600.97	46415.16
601.12	46110.89
601.28	46316.86
601.44	46209.20
601.59	46525.17
601.75	46335.59
601.91	46232.60
602.06	46581.34
602.22	46672.62
602.37	46110.89
602.53	46286.43
602.69	46387.08
602.84	46293.46
603.00	46363.67
603.16	46602.41
603.31	46473.68
603.47	46171.75
603.62	46534.53
603.78	46536.87
603.94	46148.34
604.09	46789.65
604.25	46415.16
604.40	46412.82
604.56	46181.11
604.71	46564.96
604.87	46110.89
605.03	45846.41
605.18	46370.69
605.34	46438.57
605.49	46103.87
605.65	46277.07
605.80	46244.30
605.96	46218.56
606.12	46176.43
606.27	46389.42
606.43	45965.78
606.58	46370.69
606.74	46153.02
606.89	46447.93
607.05	46295.80
607.20	46131.96
607.36	46361.33
607.51	46351.97
607.67	46000.89
607.82	46150.68
607.98	45993.87
608.13	46129.62
608.29	45778.54
608.44	46323.88
608.60	45832.37
608.75	46040.68
608.91	45933.01
609.06	46195.15
609.22	46483.04
609.37	45839.39
609.53	46033.66
609.68	46026.63
609.84	45762.15
609.99	46204.52
610.15	45813.65
610.30	46256.01
610.46	45792.58
610.61	45895.56
610.76	45991.53
610.92	45858.12
611.07	45710.66
611.23	45359.58
611.38	45940.04
611.54	45921.31
611.69	45989.19
611.84	46419.84
612.00	45380.65
612.15	45535.12
612.31	45865.14
612.46	45113.83
612.62	45923.65
612.77	45235.53
612.92	45762.15
613.08	45406.39
613.23	45682.58
613.39	45940.04
613.54	45425.12
613.69	45783.22
613.85	46101.53
614.00	45535.12
614.15	45521.08
614.31	45205.11
614.46	45607.68
614.62	45457.88
614.77	45521.08
614.92	45443.84
615.08	45574.91
615.23	45567.89
615.38	45717.68
615.54	45368.94
615.69	45310.43
615.84	45755.13
616.00	45361.92
616.15	45715.34
616.30	45294.05
616.46	45296.39
616.61	45539.80
616.76	45556.19
616.92	45476.61
617.07	45752.79
617.22	45027.23
617.37	44872.75
617.53	45450.86
617.68	45420.44
617.83	45029.57
617.99	45624.06
618.14	45598.32
618.29	44856.37
618.45	44898.50
618.60	44971.05
618.75	44889.13
618.90	45097.44
619.06	45090.42
619.21	44900.84
619.36	45591.30
619.51	44870.41
619.67	44737.00
619.82	45333.84
619.97	45471.93
620.12	45373.63
620.28	44669.12
620.43	45132.55
620.58	45067.02
620.73	44814.24
620.89	44999.14
621.04	45352.56
621.19	45272.98
621.34	44994.46
621.49	44884.45
621.65	45249.58
621.80	45172.34
621.95	44619.97
622.10	44858.71
622.25	44814.24
622.41	44737.00
622.56	44781.47
622.71	44643.38
622.86	44720.62
623.01	44631.68
623.16	44364.85
623.32	44762.75
623.47	44493.58
623.62	44460.82
623.77	44734.66
623.92	44217.40
624.07	44376.56
624.23	44535.71
624.38	44130.80
624.53	44364.85
624.68	44444.43
624.83	44437.41
624.98	44376.56
625.13	43936.54
625.29	44016.11
625.44	44151.87
625.59	44734.66
625.74	44034.84
625.89	44336.77
626.04	43735.25
626.19	43786.74
626.34	43915.47
626.49	43943.56
626.65	43665.03
626.80	43856.96
626.95	43456.73
627.10	43971.64
627.25	43878.02
627.40	43632.27
627.55	43690.78
627.70	43358.42
627.85	43632.27
628.00	43805.47
628.15	43892.07
628.30	43749.29
628.45	43697.80
628.60	43086.92
628.76	43187.56
628.91	43566.73
629.06	43316.29
629.21	43065.86
629.36	43484.81
629.51	43658.01
629.66	43718.87
629.81	43517.58
629.96	43985.69
630.11	43143.09
630.26	43225.01
630.41	43540.99
630.56	43140.75
630.71	43442.68
630.86	43201.61
631.01	43182.88
631.16	42906.70
631.31	43283.53
631.46	43058.84
631.61	43405.23
631.76	43138.41
631.91	43367.79
632.06	43650.99
632.21	43529.28
632.36	43262.46
632.51	43309.27
632.66	43484.81
632.81	42857.55
632.96	42988.62
633.10	42939.47
633.25	42773.29
633.40	43063.52
633.55	43367.79
633.70	42965.21
633.85	42401.14
634.00	42590.73
634.15	42632.86
634.30	42632.86
634.45	42494.77
634.60	42843.51
634.75	42953.51
634.90	42850.53
635.05	43154.80
635.19	42679.67
635.34	42546.26
635.49	42721.80
635.64	42576.69
635.79	42696.05
635.94	42174.11
636.09	42394.12
636.24	42667.97
636.39	42628.18
636.53	42298.16
636.68	42239.65
636.83	42003.25
636.98	42213.90
637.13	42230.29
637.28	42171.77
637.43	42110.92
637.57	42124.96
637.72	42188.16
637.87	42237.31
638.02	42185.82
638.17	41926.02
638.32	41874.52
638.46	42103.90
638.61	41954.10
638.76	42054.75
638.91	42288.80
639.06	42136.66
639.20	41689.62
639.35	41834.74
639.50	41366.63
639.65	41741.11
639.80	41956.44
639.94	42106.24
640.09	41886.23
640.24	42183.48
640.39	41720.05
640.54	41254.28
640.68	41596.00
640.83	41881.55
640.98	41549.19
641.13	41223.86
641.27	41888.57
641.42	41785.58
641.57	41818.35
641.72	41666.22
641.86	41390.03
642.01	41308.11
642.16	41298.75
642.31	40919.59
642.45	41467.27
642.60	41031.93
642.75	41179.39
642.90	41581.96
643.04	40617.66
643.19	41069.38
643.34	41132.57
643.48	41090.44
643.63	40992.14
643.78	41247.26
643.93	41317.48
644.07	41153.64
644.22	41081.08
644.37	41029.59
644.51	40872.78
644.66	41493.02
644.81	41036.61
644.95	41003.85
645.10	40856.39
645.25	40830.65
645.39	41130.23
645.54	40645.74
645.69	40533.40
645.83	40872.78
645.98	40762.77
646.13	40809.58
646.27	40858.73
646.42	40781.49
646.57	40521.69
646.71	40861.07
646.86	40900.86
647.00	40942.99
647.15	40704.26
647.30	41148.96
647.44	40666.81
647.59	40430.41
647.74	40851.71
647.88	40603.61
648.03	40652.76
648.17	40568.51
648.32	40552.12
648.47	40620.00
648.61	40282.96
648.76	40765.11
648.90	40371.90
649.05	40100.40
649.20	40264.24
649.34	40512.33
649.49	40194.02
649.63	40369.56
649.78	40112.10
649.92	40362.54
650.07	40856.39
650.21	40556.80
650.36	40561.48
650.51	40079.33
650.65	40275.94
650.80	40594.25
650.94	40388.28
651.09	40247.85
651.23	39538.67
651.38	39807.83
651.52	39533.99
651.67	40205.72
651.81	39889.75
651.96	39828.90
652.10	39983.37
652.25	39931.88
652.39	39882.73
652.54	39938.90
652.68	39896.77
652.83	39812.51
652.97	40009.12
653.12	39861.66
653.26	39531.65
653.41	39599.52
653.55	39416.96
653.70	39913.16
653.84	39709.53
653.99	39810.17
654.13	39910.82
654.27	39538.67
654.42	39864.00
654.56	39409.94
654.71	39234.40
654.85	39552.71
655.00	39669.74
655.14	39377.17
655.29	39754.00
655.43	39690.80
655.57	39164.18
655.72	38965.24
655.86	38920.77
656.01	39213.34
656.15	38925.45
656.30	38981.62
656.44	39021.41
656.58	39381.85
656.73	39206.31
656.87	39405.26
657.01	38820.13
657.16	39210.99
657.30	38792.04
657.45	39189.93
657.59	38859.91
657.73	38794.38
657.88	38892.68
658.02	39175.89
658.16	38855.23
658.31	38794.38
658.45	38541.60
658.60	38637.56
658.74	39005.03
658.88	38628.20
659.03	38501.81
659.17	38366.06
659.31	38195.20
659.46	38026.68
659.60	38672.67
659.74	38190.52
659.89	38188.18
660.03	38103.92
660.17	38209.25
660.32	38417.55
660.46	37900.29
660.60	37879.23
660.74	37801.99
660.89	38211.59
661.03	37951.79
661.17	37706.03
661.32	37797.31
661.46	37488.36
661.60	37680.28
661.74	37778.59
661.89	37656.88
662.03	37680.28
662.17	37453.25
662.31	37743.48
662.46	37731.78
662.60	37567.94
662.74	36868.12
662.88	36870.46
663.03	36912.59
663.17	36865.78
663.31	36872.80
663.45	37219.20
663.60	37240.26
663.74	37034.30
663.88	37046.00
664.02	36973.44
664.17	37263.67
664.31	36535.76
664.45	36507.68
664.59	36875.14
664.73	36982.80
664.88	36992.17
665.02	36453.84
665.16	36423.42
665.30	36411.71
665.44	36308.73
665.59	36102.76
665.73	36259.58
665.87	35896.80
666.01	36149.57
666.15	36004.46
666.29	36018.50
666.44	36133.19
666.58	36610.66
666.72	35842.96
666.86	36072.34
667.00	35747.00
667.14	35730.62
667.28	35749.34
667.43	35487.20
667.57	35730.62
667.71	35887.43
667.85	35543.38
667.99	35534.01
668.13	35229.74
668.27	35342.09
668.41	35124.42
668.56	34712.49
668.70	34848.24
668.84	34998.03
668.98	35192.30
669.12	34960.58
669.26	35122.08
669.40	34944.20
669.54	34803.77
669.68	34871.64
669.82	34918.45
669.96	34176.50
670.10	34309.91
670.25	34665.67
670.39	34302.89
670.53	34277.15
670.67	34691.42
670.81	34579.07
670.95	34532.26
671.09	34419.92
671.23	34253.74
671.37	34199.91
671.51	34167.14
671.65	34108.63
671.79	34038.41
671.93	33481.36
672.07	34007.98
672.21	33378.38
672.35	33598.39
672.49	33940.11
672.63	33752.87
672.77	33120.92
672.91	33570.30
673.05	33076.45
673.19	32985.17
673.33	33429.87
673.47	33132.62
673.61	32788.56
673.75	32479.61
673.89	32821.33
674.03	32786.22
674.17	32376.63
674.31	32484.30
674.45	32196.41
674.59	32306.41
674.73	32074.70
674.87	32027.89
675.01	31730.64
675.15	31861.71
675.29	32156.62
675.43	31992.78
675.56	31929.59
675.70	32002.14
675.84	31381.90
675.98	30787.41
676.12	31555.10
676.26	31761.07
676.40	31150.19
676.54	30981.67
676.68	30955.93
676.82	30546.33
676.96	30806.13
677.10	31559.78
677.23	30792.09
677.37	30588.46
677.51	30820.17
677.65	30490.16
677.79	30176.53
677.93	30511.22
678.07	30293.55
678.21	30232.70
678.34	30164.82
678.48	29806.72
678.62	29626.50
678.76	30148.44
678.90	29717.78
679.04	29806.72
679.18	29797.36
679.31	29556.28
679.45	29216.91
679.59	29123.29
679.73	29071.79
679.87	28968.81
680.00	29174.78
680.14	28748.80
680.28	29029.66
680.42	28524.11
680.56	28858.81
680.70	28711.35
680.83	28400.06
680.97	28229.20
681.11	28369.63
681.25	27828.97
681.39	27835.99
681.52	28142.60
681.66	27667.47
681.80	27363.20
681.94	26944.25
682.07	27737.69
682.21	27597.26
682.35	27620.66
682.49	27608.96
682.62	27061.27
682.76	27257.88
682.90	26927.86
683.04	26951.27
683.17	26974.67
683.31	26742.96
683.45	26817.86
683.59	26469.12
683.72	25965.90
683.86	26286.56
684.00	26188.25
684.13	26080.59
684.27	25891.01
684.41	26050.16
684.55	25757.60
684.68	25750.57
684.82	25598.44
684.96	25511.84
685.09	25469.71
685.23	25633.55
685.37	25701.42
685.50	25518.86
685.64	25649.93
685.78	25518.86
685.91	25434.60
686.05	24510.09
686.19	24414.13
686.32	24582.65
686.46	24180.07
686.60	23929.64
686.73	24313.48
686.87	24299.44
687.01	24484.34
687.14	24098.16
687.28	24081.77
687.42	24049.00
687.55	23791.55
687.69	24006.87
687.82	23346.84
687.96	23751.76
688.10	23793.89
688.23	23679.20
688.37	23620.69
688.50	23728.35
688.64	23452.17
688.78	23309.40
688.91	22986.40
689.05	23269.61
689.18	22764.05
689.32	22204.66
689.46	22801.50
689.59	22796.82
689.73	22733.62
689.86	22623.62
690.00	22469.14
690.13	22169.55
690.27	22164.87
690.41	22061.89
690.54	21891.03
690.68	21998.70
690.81	21867.63
690.95	21757.62
691.08	21664.00
691.22	21654.64
691.35	21322.28
691.49	21507.18
691.62	21387.82
691.76	21294.19
691.89	20898.64
692.03	20734.81
692.16	20622.46
692.30	20617.78
692.43	20732.47
692.57	20463.30
692.70	20496.07
692.84	20680.97
692.97	20390.75
693.11	20067.75
693.24	20126.27
693.38	20208.19
693.51	20149.67
693.65	19915.62
693.78	19932.00
693.92	19676.88
694.05	19433.47
694.19	19665.18
694.32	19557.52
694.45	19887.53
694.59	19391.34
694.72	19690.93
694.86	19183.03
694.99	18953.66
695.13	19009.83
695.26	18466.83
695.39	18600.24
695.53	18810.89
695.66	18515.98
695.80	18499.59
695.93	18576.83
696.07	18340.44
696.20	18129.79
696.33	17844.24
696.47	17930.84
696.60	17841.90
696.73	18052.55
696.87	18085.32
697.00	18129.79
697.14	17776.37
697.27	17436.99
697.40	17551.68
697.54	17706.15
697.67	17614.87
697.80	17582.10
697.94	17336.35
698.07	17062.51
698.21	17179.53
698.34	17249.75
698.47	16695.04
698.61	16173.10
698.74	16814.41
698.87	16615.46
699.01	16662.27
699.14	16493.76
699.27	16575.67
699.40	16224.59
699.54	16369.71
699.67	16437.58
699.80	16236.30
699.94	15948.41
700.07	16091.18
700.20	15852.45
700.34	16037.35
700.47	15950.75
700.60	16145.02
700.73	15854.79
700.87	15616.05
701.00	15316.47
701.13	15096.46
701.26	15508.39
701.40	15339.87
701.53	15000.49
701.66	14963.04
701.79	15213.48
701.93	14939.64
702.06	14665.80
702.19	14817.93
702.32	14548.77
702.46	14923.26
702.59	14794.53
702.72	14752.40
702.85	14780.48
702.99	14384.93
703.12	14270.25
703.25	14382.59
703.38	14129.81
703.51	14164.92
703.65	14043.21
703.78	13884.06
703.91	14031.51
704.04	13973.00
704.17	13858.31
704.31	13561.06
704.44	13558.72
704.57	13851.29
704.70	13523.62
704.83	13558.72
704.96	13083.59
705.10	13191.26
705.23	13359.78
>>>>>End Processed Spectral Data<<<<<
