SpectraSuite Data File
++++++++++++++++++++++++++++++++++++
Date: Fri Oct 25 10:46:56 EDT 2013
User: price-jones
Dark Spectrum Present: No
Reference Spectrum Present: No
Number of Sampled Component Spectra: 1
Spectrometers: USB2+H05261
Integration Time (usec): 100000 (USB2+H05261)
Spectra Averaged: 1 (USB2+H05261)
Boxcar Smoothing: 0 (USB2+H05261)
Correct for Electrical Dark: No (USB2+H05261)
Strobe/Lamp Enabled: No (USB2+H05261)
Correct for Detector Non-linearity: No (USB2+H05261)
Correct for Stray Light: No (USB2+H05261)
Number of Pixels in Processed Spectrum: 2048
>>>>>Begin Processed Spectral Data<<<<<
365.73	124.05
365.92	124.05
366.12	124.05
366.32	39.79
366.52	35.11
366.72	100.64
366.91	0.00
367.11	60.85
367.31	105.32
367.51	58.51
367.70	51.49
367.90	39.79
368.10	7.02
368.30	124.05
368.49	32.77
368.69	42.13
368.89	16.38
369.09	0.00
369.28	39.79
369.48	42.13
369.68	119.37
369.87	126.39
370.07	77.24
370.27	107.66
370.47	208.31
370.66	428.32
370.86	400.23
371.06	521.94
371.25	538.32
371.45	498.53
371.65	421.30
371.84	512.58
372.04	442.36
372.24	454.06
372.44	547.69
372.63	533.64
372.83	559.39
373.03	606.20
373.22	526.62
373.42	566.41
373.62	568.75
373.81	561.73
374.01	601.52
374.21	575.77
374.40	550.03
374.60	533.64
374.79	533.64
374.99	690.46
375.19	589.82
375.38	636.63
375.58	606.20
375.78	674.07
375.97	671.73
376.17	706.84
376.37	645.99
376.56	622.58
376.76	585.13
376.95	660.03
377.15	690.46
377.35	650.67
377.54	631.94
377.74	657.69
377.93	587.47
378.13	697.48
378.33	674.07
378.52	681.10
378.72	638.97
378.91	734.93
379.11	615.56
379.31	678.76
379.50	606.20
379.70	718.54
379.89	711.52
380.09	720.88
380.28	709.18
380.48	634.29
380.68	730.25
380.87	615.56
381.07	678.76
381.26	793.44
381.46	758.33
381.65	774.72
381.85	667.05
382.04	692.80
382.24	760.67
382.43	741.95
382.63	634.29
382.83	681.10
383.02	723.23
383.22	744.29
383.41	798.12
383.61	751.31
383.80	767.70
384.00	751.31
384.19	802.80
384.39	725.57
384.58	826.21
384.78	723.23
384.97	870.68
385.17	851.96
385.36	868.34
385.56	837.91
385.75	898.77
385.95	828.55
386.14	830.89
386.34	887.06
386.53	770.04
386.72	828.55
386.92	849.61
387.11	847.27
387.31	933.87
387.50	844.93
387.70	854.30
387.89	819.19
388.09	882.38
388.28	861.32
388.48	891.74
388.67	926.85
388.86	901.11
389.06	961.96
389.25	1001.75
389.45	959.62
389.64	947.92
389.84	940.90
390.03	997.07
390.22	959.62
390.42	1013.45
390.61	931.53
390.81	1071.97
391.00	1006.43
391.19	1022.81
391.39	1146.86
391.58	1034.52
391.78	1078.99
391.97	1057.92
392.16	1020.47
392.36	1078.99
392.55	1043.88
392.75	983.02
392.94	1071.97
393.13	1034.52
393.33	1022.81
393.52	973.66
393.71	964.30
393.91	1055.58
394.10	1151.54
394.29	1172.61
394.49	1203.04
394.68	1245.16
394.88	1207.72
395.07	1247.51
395.26	1226.44
395.46	1203.04
395.65	1273.25
395.84	1254.53
396.04	1252.19
396.23	1146.86
396.42	1142.18
396.62	1135.16
396.81	1224.10
397.00	1184.31
397.19	1231.12
397.39	1343.47
397.58	1315.38
397.77	1334.11
397.97	1404.32
398.16	1348.15
398.35	1500.28
398.55	1385.60
398.74	1437.09
398.93	1469.86
399.12	1409.00
399.32	1465.18
399.51	1526.03
399.70	1565.82
399.90	1502.62
400.09	1556.46
400.28	1605.61
400.47	1603.27
400.67	1661.78
400.86	1607.95
401.05	1643.06
401.24	1706.25
401.44	1746.04
401.63	1739.02
401.82	1675.82
402.01	1643.06
402.21	1722.63
402.40	1720.29
402.59	1778.81
402.78	1640.72
402.97	1760.08
403.17	1664.12
403.36	1823.28
403.55	1732.00
403.74	1802.21
403.93	1804.55
404.13	1839.66
404.32	1858.39
404.51	1844.34
404.70	1919.24
404.89	1881.79
405.09	1961.37
405.28	1975.41
405.47	1849.02
405.66	1921.58
405.85	2160.31
406.05	1926.26
406.24	1912.22
406.43	1944.99
406.62	1916.90
406.81	2050.31
407.00	1973.07
407.20	1940.30
407.39	2104.14
407.58	2125.21
407.77	2179.04
407.96	2150.95
408.15	2202.44
408.34	2134.57
408.54	2317.13
408.73	2221.17
408.92	2275.00
409.11	2270.32
409.30	2267.98
409.49	2155.63
409.68	2200.10
409.87	2286.70
410.07	2349.90
410.26	2267.98
410.45	2305.43
410.64	2502.03
410.83	2389.69
411.02	2328.83
411.21	2530.12
411.40	2534.80
411.59	2504.37
411.78	2698.64
411.98	2544.16
412.17	2677.57
412.36	2565.23
412.55	2654.17
412.74	2736.09
412.93	2684.59
413.12	2523.10
413.31	2815.66
413.50	2750.13
413.69	2761.83
413.88	2977.16
414.07	2890.56
414.26	2736.09
414.45	2918.65
414.64	2899.92
414.83	2930.35
415.02	3033.33
415.22	2913.97
415.41	3126.96
415.60	3002.91
415.79	3059.08
415.98	3251.00
416.17	3222.92
416.36	3248.66
416.55	3260.37
416.74	3159.72
416.93	3199.51
417.12	3241.64
417.31	3403.14
417.50	3248.66
417.69	3403.14
417.88	3391.44
418.07	3424.20
418.26	3405.48
418.45	3304.84
418.64	3447.61
418.83	3412.50
419.02	3569.32
419.21	3602.08
419.39	3541.23
419.58	3475.70
419.77	3431.23
419.96	3534.21
420.15	3571.66
420.34	3588.04
420.53	3669.96
420.72	3606.77
420.91	3705.07
421.10	3660.60
421.29	3861.88
421.48	3571.66
421.67	3775.28
421.86	3756.56
422.05	3819.75
422.24	3756.56
422.43	3735.50
422.61	3836.14
422.80	3885.29
422.99	3838.48
423.18	3826.78
423.37	3812.73
423.56	3805.71
423.75	3852.52
423.94	3833.80
424.13	3688.68
424.32	3709.75
424.50	3843.16
424.69	3955.51
424.88	4095.94
425.07	3840.82
425.26	3681.66
425.45	3885.29
425.64	3784.65
425.83	3962.53
426.01	3960.19
426.20	3974.23
426.39	3829.12
426.58	3714.43
426.77	3871.25
426.96	3988.27
427.15	3878.27
427.33	4021.04
427.52	4007.00
427.71	4021.04
427.90	4014.02
428.09	4161.47
428.28	4081.89
428.46	3957.85
428.65	4051.47
428.84	4168.49
429.03	4217.65
429.22	4105.30
429.40	4067.85
429.59	4018.70
429.78	3880.61
429.97	3953.16
430.16	4025.72
430.34	4072.53
430.53	4133.39
430.72	4163.81
430.91	4147.43
431.10	4112.32
431.28	4484.47
431.47	4383.82
431.66	4498.51
431.85	4456.38
432.03	4535.96
432.22	4674.05
432.41	4526.60
432.60	4479.79
432.79	4603.83
432.97	4624.90
433.16	4793.42
433.35	4582.77
433.54	4582.77
433.72	4601.49
433.91	4636.60
434.10	4704.48
434.28	4662.35
434.47	4734.90
434.66	4856.61
434.85	4851.93
435.03	4784.06
435.22	4681.07
435.41	5013.43
435.59	4980.66
435.78	4882.36
435.97	4957.25
436.16	4929.17
436.34	5015.77
436.53	5123.43
436.72	5177.26
436.90	5032.15
437.09	5231.10
437.28	4985.34
437.46	5015.77
437.65	5085.98
437.84	5022.79
438.02	5277.91
438.21	5109.39
438.40	5067.26
438.58	5320.04
438.77	5163.22
438.96	5378.55
439.14	5413.66
439.33	5394.93
439.52	5530.69
439.70	5542.39
439.89	5575.16
440.08	5518.98
440.26	5628.99
440.45	5614.95
440.63	5837.30
440.82	5809.21
441.01	5874.74
441.19	5928.58
441.38	5776.44
441.57	6057.31
441.75	5879.43
441.94	6251.57
442.12	6043.26
442.31	6291.36
442.50	6069.01
442.68	6101.78
442.87	6108.80
443.05	6251.57
443.24	6485.62
443.43	6317.11
443.61	6340.51
443.80	6560.52
443.98	6221.14
444.17	5870.06
444.35	6415.41
444.54	6410.73
444.73	6476.26
444.91	6384.98
445.10	6160.29
445.28	6473.92
445.47	6242.21
445.65	6319.45
445.84	6410.73
446.02	6466.90
446.21	6464.56
446.39	6403.71
446.58	6569.88
446.77	6497.33
446.95	6392.00
447.14	6663.51
447.32	6551.16
447.51	6665.85
447.69	6590.95
447.88	6607.33
448.06	6656.48
448.25	6586.27
448.43	6689.25
448.62	6560.52
448.80	6637.76
448.99	6644.78
449.17	6871.81
449.36	6691.59
449.54	6836.70
449.73	7007.56
449.91	6956.07
450.10	6995.86
450.28	7229.91
450.46	7061.40
450.65	7152.68
450.83	6935.01
451.02	7073.10
451.20	7122.25
451.39	7082.46
451.57	7047.35
451.76	7211.19
451.94	7145.66
452.13	7164.38
452.31	7115.23
452.49	7028.63
452.68	7108.21
452.86	7145.66
453.05	7201.83
453.23	7318.86
453.42	7164.38
453.60	7208.85
453.78	7449.93
453.97	7337.58
454.15	7368.01
454.34	7211.19
454.52	7204.17
454.70	7325.88
454.89	7417.16
455.07	7309.49
455.26	7632.49
455.44	7613.76
455.62	7763.56
455.81	7569.29
455.99	7559.93
456.17	7681.64
456.36	7583.34
456.54	7765.90
456.73	7782.28
456.91	8058.46
457.09	8013.99
457.28	8091.23
457.46	8013.99
457.64	7999.95
457.83	7882.92
458.01	7744.83
458.19	8135.70
458.38	7978.89
458.56	8161.45
458.74	8135.70
458.93	8093.57
459.11	8032.72
459.29	8159.11
459.48	8145.06
459.66	8210.60
459.84	8112.30
460.03	8393.16
460.21	8238.69
460.39	8313.58
460.57	8531.25
460.76	8425.93
460.94	8519.55
461.12	8645.94
461.31	8444.65
461.49	8706.79
461.67	8435.29
461.85	8627.21
462.04	8629.56
462.22	9195.96
462.40	8952.55
462.59	8807.44
462.77	8571.04
462.95	8905.74
463.13	8751.26
463.32	8809.78
463.50	8788.71
463.68	8802.75
463.86	8940.85
464.05	8835.52
464.23	8912.76
464.41	8847.22
464.59	8683.39
464.78	8954.89
464.96	8863.61
465.14	8933.82
465.32	8975.95
465.50	9193.62
465.69	9341.08
465.87	9020.42
466.05	8894.04
466.23	8945.53
466.41	9207.67
466.60	9437.04
466.78	9006.38
466.96	9184.26
467.14	9268.52
467.32	9432.36
467.51	9320.01
467.69	8898.72
467.87	9284.91
468.05	9432.36
468.23	9336.40
468.41	9116.39
468.60	9160.86
468.78	9631.30
468.96	9432.36
469.14	9420.66
469.32	9755.35
469.50	9320.01
469.69	9614.92
469.87	9511.94
470.05	9724.93
470.23	9504.92
470.41	9432.36
470.59	9858.34
470.77	9776.42
470.95	9942.60
471.14	9994.09
471.32	9720.24
471.50	9958.98
471.68	10111.11
471.86	10181.33
472.04	10216.44
472.22	10399.00
472.40	10033.88
472.58	10204.74
472.77	10197.71
472.95	10394.32
473.13	10881.15
473.31	10480.92
473.49	10286.65
473.67	10567.52
473.85	10562.84
474.03	10820.30
474.21	10703.27
474.39	10780.51
474.57	10939.66
474.75	10904.56
474.93	10998.18
475.12	11063.71
475.30	10881.15
475.48	11351.60
475.66	11089.46
475.84	11089.46
476.02	11206.48
476.20	11222.87
476.38	11304.79
476.56	11672.25
476.74	11370.32
476.92	11721.40
477.10	11618.42
477.28	11875.88
477.46	11840.77
477.64	12107.59
477.82	12032.69
478.00	12308.88
478.18	12257.39
478.36	12325.26
478.54	12180.15
478.72	12512.50
478.90	12746.56
479.08	12809.75
479.26	12823.80
479.44	12999.34
479.62	13029.76
479.80	13135.09
479.98	13249.77
480.16	13486.17
480.34	13104.66
480.52	13549.36
480.70	13617.24
480.88	13528.30
481.06	13603.19
481.24	13715.54
481.41	13921.51
481.59	14195.35
481.77	14075.98
481.95	14232.80
482.13	14083.00
482.31	14389.61
482.49	14455.15
482.67	14649.41
482.85	14869.42
483.03	14916.23
483.21	15152.63
483.39	15330.51
483.57	15190.08
483.74	15059.01
483.92	15590.31
484.10	15075.39
484.28	15800.96
484.46	15927.35
484.64	16257.36
484.82	15873.51
485.00	16032.67
485.18	16442.26
485.35	16311.19
485.53	16327.58
485.71	16056.08
485.89	16411.84
486.07	16468.01
486.25	16369.71
486.43	16706.74
486.61	16926.75
486.78	16783.98
486.96	17238.05
487.14	17455.72
487.32	17493.16
487.50	17654.66
487.68	17661.68
487.85	18281.92
488.03	18090.00
488.21	18204.69
488.39	18185.96
488.57	18698.54
488.75	18389.59
488.92	19058.98
489.10	19264.95
489.28	19082.39
489.46	19274.31
489.64	19417.08
489.81	19964.77
489.99	19850.08
490.17	19899.23
490.35	20297.13
490.53	19992.86
490.70	20264.36
490.88	20273.72
491.06	20547.56
491.24	20418.83
491.41	20418.83
491.59	20627.14
491.77	20678.63
491.95	20793.32
492.13	20940.77
492.30	21448.67
492.48	21546.97
492.66	21884.01
492.84	21586.76
493.01	21912.10
493.19	21441.65
493.37	22408.29
493.54	22059.55
493.72	22281.90
493.90	22410.63
494.08	22672.77
494.25	23094.07
494.43	22979.38
494.61	23211.09
494.79	23171.30
494.96	22820.22
495.14	23065.98
495.32	23417.06
495.49	23433.44
495.67	23665.16
495.85	23831.33
496.02	23854.74
496.20	24077.09
496.38	24224.54
496.55	24226.89
496.73	24329.87
496.91	24781.59
497.09	24601.37
497.26	25142.03
497.44	24596.69
497.62	25022.67
497.79	25132.67
497.97	24589.67
498.14	25322.26
498.32	25415.88
498.50	25378.43
498.67	25778.66
498.85	26118.04
499.03	25979.95
499.20	26078.25
499.38	26029.10
499.56	26277.19
499.73	26375.50
499.91	26120.38
500.08	26206.98
500.26	26286.56
500.44	26298.26
500.61	26237.41
500.79	26366.13
500.97	26813.18
501.14	26874.03
501.32	26583.80
501.49	27304.69
501.67	27044.89
501.84	27267.24
502.02	27098.72
502.20	27377.25
502.37	27433.42
502.55	27583.21
502.72	27578.53
502.90	28156.64
503.07	27800.88
503.25	27962.38
503.43	27861.74
503.60	27559.81
503.78	28149.62
503.95	27625.34
504.13	28112.17
504.30	28421.13
504.48	28346.23
504.65	28453.89
504.83	28854.12
505.01	28851.78
505.18	28896.25
505.36	29106.90
505.53	29296.49
505.71	29427.56
505.88	29530.54
506.06	29064.77
506.23	29310.53
506.41	29497.77
506.58	29305.85
506.76	29277.76
506.93	30059.50
507.11	30202.27
507.28	29788.00
507.46	29661.61
507.63	29490.75
507.81	30038.44
507.98	30047.80
508.16	30368.45
508.33	30206.95
508.50	30199.93
508.68	30417.60
508.85	30752.30
509.03	30801.45
509.20	30726.55
509.38	31208.70
509.55	30792.09
509.73	31140.83
509.90	31145.51
510.08	31096.36
510.25	30969.97
510.42	31321.05
510.60	31690.85
510.77	31784.48
510.95	31665.11
511.12	31475.52
511.30	31538.72
511.47	31770.43
511.64	32032.57
511.82	32151.94
511.99	31995.12
512.17	32098.11
512.34	32189.39
512.51	32526.42
512.69	32477.27
512.86	32676.22
513.04	32727.71
513.21	32437.48
513.38	32669.20
513.56	32460.89
513.73	32039.59
513.90	32514.72
514.08	32655.15
514.25	32732.39
514.43	33160.71
514.60	33001.55
514.77	33069.43
514.95	33827.76
515.12	33170.07
515.29	33397.10
515.47	33724.78
515.64	33773.93
515.81	33689.67
515.99	33614.77
516.16	33324.55
516.33	33530.51
516.51	33284.76
516.68	33010.92
516.85	33207.52
517.03	33085.81
517.20	33553.92
517.37	33970.54
517.54	33813.72
517.72	33970.54
517.89	33848.83
518.06	33394.76
518.24	33881.60
518.41	33839.47
518.58	34300.55
518.75	34710.14
518.93	34515.88
519.10	34462.05
519.27	34873.98
519.45	34771.00
519.62	35208.68
519.79	35000.37
519.96	35208.68
520.14	35379.54
520.31	35339.75
520.48	35592.53
520.65	35243.79
520.83	35721.26
521.00	35505.93
521.17	35857.01
521.34	35555.08
521.52	35793.81
521.69	35707.21
521.86	36240.86
522.03	35892.12
522.20	36142.55
522.38	35915.52
522.55	36194.04
522.72	36067.66
522.89	36158.94
523.07	36205.75
523.24	36266.60
523.41	36615.34
523.58	36547.47
523.75	37357.29
523.92	36921.95
524.10	37165.37
524.27	37177.07
524.44	37165.37
524.61	37347.93
524.78	37521.13
524.96	37144.30
525.13	37256.65
525.30	37504.74
525.47	37408.78
525.64	37563.26
525.81	37268.35
525.98	37102.17
526.16	37170.05
526.33	36952.38
526.50	37448.57
526.67	36968.76
526.84	37146.64
527.01	37048.34
527.18	37757.52
527.36	38146.05
527.53	38146.05
527.70	38281.80
527.87	38038.39
528.04	38249.03
528.21	38359.04
528.38	38260.74
528.55	38679.69
528.72	38483.09
528.89	38637.56
529.07	39124.40
529.24	38274.78
529.41	38738.21
529.58	38216.27
529.75	38169.46
529.92	38878.64
530.09	39089.29
530.26	39061.20
530.43	38983.96
530.60	39171.21
530.77	38913.75
530.94	39194.61
531.11	39473.13
531.28	38918.43
531.46	39475.48
531.63	39276.53
531.80	39196.95
531.97	39559.73
532.14	39449.73
532.31	39063.54
532.48	39026.09
532.65	39531.65
532.82	39117.37
532.99	39770.38
533.16	39335.04
533.33	39976.35
533.50	40079.33
533.67	40004.44
533.84	40076.99
534.01	39938.90
534.18	39564.42
534.35	39896.77
534.52	39716.55
534.69	40430.41
534.86	40020.82
535.03	40172.96
535.20	40535.74
535.37	40769.79
535.54	40624.68
535.71	40392.97
535.88	40367.22
536.05	40404.67
536.22	40648.08
536.38	40790.86
536.55	40760.43
536.72	40392.97
536.89	40563.82
537.06	40842.35
537.23	41118.53
537.40	40390.62
537.57	40570.85
537.74	40765.11
537.91	41254.28
538.08	41092.79
538.25	41036.61
538.42	40849.37
538.59	40872.78
538.75	40690.21
538.92	41551.53
539.09	40978.10
539.26	41200.45
539.43	41581.96
539.60	40851.71
539.77	41343.22
539.94	41603.02
540.11	41111.51
540.28	41256.62
540.44	41226.20
540.61	41184.07
540.78	41514.08
540.95	41383.01
541.12	41137.26
541.29	41443.87
541.46	41347.90
541.62	41989.21
541.79	41977.51
541.96	41801.97
542.13	41546.85
542.30	41745.80
542.47	41668.56
542.63	41682.60
542.80	42143.69
542.97	42616.47
543.14	42813.08
543.31	42410.51
543.48	42387.10
543.64	43058.84
543.81	42946.49
543.98	42478.38
544.15	42335.61
544.32	42665.63
544.48	43239.06
544.65	42766.27
544.82	42616.47
544.99	42803.72
545.16	43051.81
545.32	42909.04
545.49	43030.75
545.66	42735.84
545.83	42885.64
546.00	43159.48
546.16	43040.11
546.33	42939.47
546.50	42593.07
546.67	43009.68
546.83	42052.41
547.00	43026.07
547.17	43515.24
547.34	42754.57
547.50	43426.30
547.67	43412.26
547.84	43196.93
548.00	43805.47
548.17	43784.40
548.34	44018.46
548.51	43573.75
548.67	43826.53
548.84	43793.76
549.01	43365.45
549.18	43494.18
549.34	43597.16
549.51	44189.31
549.68	43863.98
549.84	43803.13
550.01	43667.37
550.18	43969.30
550.34	44060.58
550.51	43512.90
550.68	44039.52
550.84	43847.60
551.01	44076.97
551.18	43913.13
551.34	43646.31
551.51	44186.97
551.68	44095.69
551.84	44112.08
552.01	44048.88
552.18	43903.77
552.34	43992.71
552.51	44315.70
552.68	43856.96
552.84	44259.53
553.01	44837.64
553.18	44624.65
553.34	44432.73
553.51	44105.06
553.67	44474.86
553.84	44456.14
554.01	44392.94
554.17	44664.44
554.34	44388.26
554.51	44704.23
554.67	44739.34
554.84	44931.26
555.00	44498.26
555.17	44577.84
555.33	44868.07
555.50	44584.86
555.67	44570.82
555.83	44821.26
556.00	45052.97
556.16	45315.11
556.33	45272.98
556.50	44781.47
556.66	45200.43
556.83	44479.54
556.99	44924.24
557.16	45170.00
557.32	44793.17
557.49	45104.46
557.65	44774.45
557.82	45083.40
557.98	44788.49
558.15	44996.80
558.32	44966.37
558.48	45205.11
558.65	44692.53
558.81	45256.60
558.98	44879.77
559.14	44751.04
559.31	45090.42
559.47	45207.45
559.64	45450.86
559.80	45558.53
559.97	45186.38
560.13	45301.07
560.30	44821.26
560.46	45443.84
560.63	45429.80
560.79	45312.77
560.96	45556.19
561.12	45694.28
561.29	45591.30
561.45	45581.93
561.61	44889.13
561.78	45380.65
561.94	45434.48
562.11	45212.13
562.27	45663.85
562.44	45776.20
562.60	45579.59
562.77	45345.54
562.93	45567.89
563.10	45361.92
563.26	45240.21
563.42	46024.29
563.59	45261.28
563.75	45577.25
563.92	45799.60
564.08	45584.27
564.24	45603.00
564.41	45614.70
564.57	45729.39
564.74	45645.13
564.90	45888.54
565.07	45703.64
565.23	45790.24
565.39	45209.79
565.56	46288.77
565.72	45038.93
565.88	45607.68
566.05	45780.88
566.21	46178.77
566.38	45654.49
566.54	45813.65
566.70	45823.01
566.87	45865.14
567.03	46227.92
567.19	46410.48
567.36	45645.13
567.52	45811.31
567.68	46150.68
567.85	45757.47
568.01	46071.10
568.17	45874.50
568.34	46223.24
568.50	46120.26
568.66	46012.59
568.83	46171.75
568.99	45790.24
569.15	45675.55
569.32	45453.20
569.48	45722.37
569.64	45680.24
569.81	45876.84
569.97	46059.40
570.13	45736.41
570.30	45958.76
570.46	45851.09
570.62	45455.54
570.78	45846.41
570.95	45701.30
571.11	46387.08
571.27	45588.95
571.43	46059.40
571.60	45832.37
571.76	45972.80
571.92	45904.93
572.09	46059.40
572.25	46061.74
572.41	46036.00
572.57	45928.33
572.74	46258.35
572.90	45986.85
573.06	45890.88
573.22	45830.03
573.38	46157.70
573.55	45729.39
573.71	46040.68
573.87	46178.77
574.03	46110.89
574.20	46036.00
574.36	45757.47
574.52	46045.36
574.68	45944.72
574.84	46405.80
575.01	45986.85
575.17	45844.07
575.33	46253.67
575.49	46094.51
575.65	46366.01
575.82	46195.15
575.98	46085.15
576.14	46412.82
576.30	46277.07
576.46	46326.22
576.62	45933.01
576.79	45984.51
576.95	45848.75
577.11	46445.59
577.27	46202.18
577.43	46176.43
577.59	46068.76
577.75	46581.34
577.92	45839.39
578.08	45698.96
578.24	46040.68
578.40	46068.76
578.56	46110.89
578.72	45734.07
578.88	46742.84
579.04	46286.43
579.21	45771.52
579.37	45979.82
579.53	45947.06
579.69	45668.53
579.85	46157.70
580.01	46344.95
580.17	46284.09
580.33	46391.76
580.49	46621.13
580.65	46356.65
580.82	46438.57
580.98	46419.84
581.14	46036.00
581.30	46080.47
581.46	46642.20
581.62	46450.27
581.78	45881.52
581.94	46665.60
582.10	46403.46
582.26	46288.77
582.42	46227.92
582.58	46483.04
582.74	46394.10
582.90	46178.77
583.06	46382.40
583.22	46864.55
583.38	46644.54
583.54	46499.42
583.70	46703.05
583.86	46408.14
584.02	46164.73
584.18	46251.33
584.34	46248.99
584.50	46192.81
584.66	46185.79
584.82	45853.44
584.98	46440.91
585.14	46167.07
585.30	46110.89
585.46	46890.29
585.62	46375.37
585.78	46120.26
585.94	46415.16
586.10	46298.14
586.26	46480.70
586.42	46691.35
586.58	46440.91
586.74	46550.91
586.90	46438.57
587.06	46450.27
587.22	46134.30
587.38	46270.05
587.54	46403.46
587.70	46532.19
587.86	46574.32
588.02	46085.15
588.18	46487.72
588.34	46131.96
588.49	46155.36
588.65	45874.50
588.81	45823.01
588.97	46099.19
589.13	46349.63
589.29	45930.67
589.45	46277.07
589.61	46146.00
589.77	46586.02
589.93	46539.21
590.08	46625.81
590.24	46522.83
590.40	46621.13
590.56	46611.77
590.72	46712.41
590.88	46576.66
591.04	46347.29
591.20	46569.64
591.35	46328.56
591.51	46820.08
591.67	46525.17
591.83	46361.33
591.99	46358.99
592.15	46148.34
592.31	46527.51
592.46	46611.77
592.62	46616.45
592.78	46822.42
592.94	46375.37
593.10	46557.94
593.26	46445.59
593.41	46415.16
593.57	46394.10
593.73	46642.20
593.89	46424.53
594.05	46138.98
594.20	46387.08
594.36	46850.50
594.52	46361.33
594.68	46623.47
594.84	46738.16
594.99	46855.18
595.15	46796.67
595.31	46876.25
595.47	46368.35
595.62	46436.23
595.78	46822.42
595.94	47152.43
596.10	46581.34
596.25	46239.62
596.41	47028.38
596.57	46291.12
596.73	46658.58
596.88	46253.67
597.04	47026.04
597.20	46593.04
597.36	46607.09
597.51	46536.87
597.67	46401.12
597.83	46726.46
597.99	46993.28
598.14	46539.21
598.30	46408.14
598.46	46602.41
598.61	46995.62
598.77	46405.80
598.93	46913.70
599.09	46333.24
599.24	47334.99
599.40	46651.56
599.56	46658.58
599.71	46937.10
599.87	46911.36
600.03	46569.64
600.18	46696.03
600.34	46588.36
600.50	46979.23
600.65	46497.08
600.81	46642.20
600.97	46742.84
601.12	46817.74
601.28	46927.74
601.44	46625.81
601.59	46590.70
601.75	46054.72
601.91	46735.82
602.06	46707.73
602.22	46286.43
602.37	46653.90
602.53	46541.55
602.69	46738.16
602.84	46646.88
603.00	46415.16
603.16	46834.12
603.31	46433.89
603.47	46567.30
603.62	46075.79
603.78	46745.18
603.94	46415.16
604.09	46471.34
604.25	46260.69
604.40	46649.22
604.56	46330.90
604.71	46728.80
604.87	46211.54
605.03	46569.64
605.18	46028.98
605.34	46412.82
605.49	46698.37
605.65	46586.02
605.80	46248.99
605.96	46770.93
606.12	46497.08
606.27	46569.64
606.43	46146.00
606.58	46122.60
606.74	45937.69
606.89	46497.08
607.05	46387.08
607.20	46433.89
607.36	46454.95
607.51	47028.38
607.67	46461.97
607.82	46267.71
607.98	46302.82
608.13	45996.21
608.29	46007.91
608.44	45490.65
608.60	45979.82
608.75	45851.09
608.91	45818.33
609.06	45652.15
609.22	46344.95
609.37	46078.13
609.53	46239.62
609.68	46312.18
609.84	46153.02
609.99	46281.75
610.15	45823.01
610.30	46131.96
610.46	45876.84
610.61	46141.32
610.76	45937.69
610.92	46085.15
611.07	45830.03
611.23	46213.88
611.38	45963.44
611.54	45783.22
611.69	45226.17
611.84	45755.13
612.00	45581.93
612.15	45340.86
612.31	46167.07
612.46	45502.35
612.62	45694.28
612.77	45462.57
612.92	45883.86
613.08	46005.57
613.23	45886.20
613.39	45294.05
613.54	45750.45
613.69	45003.82
613.85	45546.82
614.00	45415.76
614.15	45556.19
614.31	45839.39
614.46	45883.86
614.62	45418.10
614.77	45478.95
614.92	45483.63
615.08	45572.57
615.23	45429.80
615.38	45221.49
615.54	45038.93
615.69	45272.98
615.84	44865.73
616.00	45478.95
616.15	45223.83
616.30	45422.78
616.46	45177.02
616.61	45059.99
616.76	45106.80
616.92	44596.57
617.07	44673.81
617.22	44692.53
617.37	44121.44
617.53	45052.97
617.68	44767.43
617.83	45249.58
617.99	44973.39
618.14	45303.41
618.29	45123.19
618.45	44626.99
618.60	44907.86
618.75	45050.63
618.90	45170.00
619.06	45064.67
619.21	45191.06
619.36	44959.35
619.51	44491.24
619.67	44767.43
619.82	44678.49
619.97	44767.43
620.12	44498.26
620.28	44493.58
620.43	44343.79
620.58	44573.16
620.73	44582.52
620.89	44411.67
621.04	44624.65
621.19	44385.92
621.34	44243.15
621.49	44421.03
621.65	44322.72
621.80	44161.23
621.95	44364.85
622.10	43791.42
622.25	44273.57
622.41	43995.05
622.56	43735.25
622.71	44175.27
622.86	44149.53
623.01	44252.51
623.16	44179.95
623.32	44521.67
623.47	44350.81
623.62	44765.09
623.77	43833.55
623.92	44016.11
624.07	44133.14
624.23	43721.21
624.38	43536.30
624.53	43470.77
624.68	44002.07
624.83	44091.01
624.98	43672.06
625.13	43454.39
625.29	43622.90
625.44	43672.06
625.59	43636.95
625.74	43234.38
625.89	43145.44
626.04	42995.64
626.19	43438.00
626.34	43210.97
626.49	43662.69
626.65	43543.33
626.80	43908.45
626.95	43447.36
627.10	43044.79
627.25	42738.18
627.40	43248.42
627.55	42864.57
627.70	42689.03
627.85	42752.23
628.00	42749.88
628.15	43103.31
628.30	42586.05
628.45	43042.45
628.60	43126.71
628.76	43185.22
628.91	43365.45
629.06	42754.57
629.21	43105.65
629.36	42487.74
629.51	42899.68
629.66	42990.96
629.81	42667.97
629.96	43082.24
630.11	42707.76
630.26	42939.47
630.41	43274.16
630.56	42967.55
630.71	43171.18
630.86	42848.19
631.01	42824.78
631.16	42670.31
631.31	42415.19
631.46	41986.87
631.61	42422.21
631.76	42714.78
631.91	42466.68
632.06	42344.97
632.21	42387.10
632.36	42607.11
632.51	42373.06
632.66	42553.28
632.81	41476.63
632.96	42740.52
633.10	42143.69
633.25	42504.13
633.40	42562.64
633.55	42274.76
633.70	42351.99
633.85	42143.69
634.00	42108.58
634.15	42263.05
634.30	41581.96
634.45	41787.92
634.60	41797.29
634.75	42033.68
634.90	42075.81
635.05	41972.83
635.19	41776.22
635.34	42234.97
635.49	41787.92
635.64	42305.18
635.79	41748.14
635.94	42054.75
636.09	42073.47
636.24	41808.99
636.39	41823.03
636.53	41563.23
636.68	41481.31
636.83	41460.25
636.98	41720.05
637.13	41588.98
637.28	41319.82
637.43	41593.66
637.57	41621.75
637.72	41469.61
637.87	41621.75
638.02	41640.47
638.17	41324.50
638.32	41457.91
638.46	41057.68
638.61	41057.68
638.76	40809.58
638.91	41853.46
639.06	40832.99
639.20	41242.58
639.35	41689.62
639.50	41226.20
639.65	41345.56
639.80	40840.01
639.94	41097.47
640.09	40739.36
640.24	40655.11
640.39	40748.73
640.54	40694.89
640.68	41193.43
640.83	41099.81
640.98	40573.19
641.13	40816.60
641.27	41170.02
641.42	40889.16
641.57	40882.14
641.72	40996.82
641.86	40172.96
642.01	39966.99
642.16	40369.56
642.31	40151.89
642.45	40446.80
642.60	40465.52
642.75	40673.83
642.90	40140.19
643.04	40458.50
643.19	40357.86
643.34	40222.11
643.48	40329.77
643.63	40299.34
643.78	40313.39
643.93	39920.18
644.07	40690.21
644.22	40512.33
644.37	39859.32
644.51	40280.62
644.66	40212.74
644.81	39917.84
644.95	40231.47
645.10	40318.07
645.25	40308.71
645.39	40423.39
645.54	39782.09
645.69	39807.83
645.83	39793.79
645.98	39739.96
646.13	40058.27
646.27	39758.68
646.42	39725.91
646.57	39721.23
646.71	40048.91
646.86	39957.63
647.00	40231.47
647.15	39821.87
647.30	39646.33
647.44	39555.05
647.59	39313.98
647.74	39505.90
647.88	39321.00
648.03	39777.40
648.17	39473.13
648.32	39398.24
648.47	39260.15
648.61	39089.29
648.76	39562.08
648.90	39721.23
649.05	39763.36
649.20	39548.03
649.34	39819.53
649.49	39428.66
649.63	39505.90
649.78	39648.68
649.92	39182.91
650.07	39669.74
650.21	39086.95
650.36	39007.37
650.51	39103.33
650.65	39370.15
650.80	39964.65
650.94	40018.48
651.09	39356.11
651.23	39122.05
651.38	39009.71
651.52	38721.82
651.67	39133.76
651.81	38923.11
651.96	39133.76
652.10	39145.46
652.25	38714.80
652.39	38855.23
652.54	39075.24
652.68	39178.23
652.83	38817.78
652.97	39281.21
653.12	38670.33
653.26	38822.47
653.41	38836.51
653.55	38576.71
653.70	38342.66
653.84	38675.01
653.99	38696.08
654.13	38445.64
654.27	38101.58
654.42	38494.79
654.56	37977.53
654.71	38562.67
654.85	38401.17
655.00	38611.82
655.14	38230.31
655.29	37989.24
655.43	38054.77
655.57	37881.57
655.72	38036.05
655.86	37832.42
656.01	37970.51
656.15	37759.86
656.30	37677.94
656.44	38059.45
656.58	37680.28
656.73	37790.29
656.87	37720.07
657.01	37500.06
657.16	37876.89
657.30	37464.96
657.45	37563.26
657.59	38022.00
657.73	37542.19
657.88	37450.91
658.02	37240.26
658.16	37628.79
658.31	38059.45
658.45	37862.85
658.60	37794.97
658.74	37656.88
658.88	37509.43
659.03	37684.97
659.17	37144.30
659.31	37336.23
659.46	36898.55
659.60	37179.41
659.74	37556.24
659.89	37104.51
660.03	36961.74
660.17	37214.52
660.32	36786.20
660.46	37090.47
660.60	36889.18
660.74	36769.82
660.89	36856.42
661.03	36926.63
661.17	36577.89
661.32	36608.32
661.46	36669.17
661.60	37017.91
661.74	36818.97
661.89	36809.61
662.03	36456.18
662.17	36374.27
662.31	36142.55
662.46	36774.50
662.60	36542.78
662.74	37031.96
662.88	36392.99
663.03	35894.46
663.17	35978.72
663.31	36002.12
663.45	35810.20
663.60	36301.71
663.74	36196.38
663.88	36182.34
664.02	35835.94
664.17	35824.24
664.31	35288.26
664.45	35807.86
664.59	35604.23
664.73	35421.67
664.88	35679.13
665.02	35405.28
665.16	35541.03
665.30	35318.68
665.44	35189.95
665.59	35159.53
665.73	35152.51
665.87	34857.60
666.01	35096.33
666.15	35115.06
666.29	34998.03
666.44	34934.84
666.58	34628.23
666.72	34993.35
666.86	35110.38
667.00	35220.38
667.14	34497.16
667.28	35145.48
667.43	34300.55
667.57	34391.83
667.71	34789.72
667.85	34834.19
667.99	34897.39
668.13	34529.92
668.27	34541.63
668.41	34235.02
668.56	34426.94
668.70	34625.89
668.84	34309.91
668.98	33549.24
669.12	33956.49
669.26	33914.36
669.40	34073.52
669.54	33874.57
669.68	33872.23
669.82	33837.12
669.96	33886.28
670.10	34003.30
670.25	34007.98
670.39	33605.41
670.53	33523.49
670.67	33329.23
670.81	33397.10
670.95	33544.56
671.09	33544.56
671.23	33331.57
671.37	33132.62
671.51	32985.17
671.65	33134.96
671.79	32797.93
671.93	32615.37
672.07	33041.34
672.21	32650.47
672.35	32449.19
672.49	32905.59
672.63	32924.32
672.77	32364.93
672.91	32598.98
673.05	32280.67
673.19	32318.12
673.33	32582.60
673.47	32189.39
673.61	32112.15
673.75	31749.37
673.89	31803.20
674.03	31232.11
674.17	31824.26
674.31	31641.70
674.45	31934.27
674.59	31398.29
674.73	31997.46
674.87	31971.72
675.01	31356.16
675.15	31098.70
675.29	31625.32
675.43	31005.08
675.56	31323.39
675.70	31505.95
675.84	30932.52
675.98	30192.91
676.12	30749.96
676.26	30796.77
676.40	30375.47
676.54	31040.18
676.68	30448.03
676.82	29961.20
676.96	30321.64
677.10	30204.61
677.23	30178.87
677.37	29865.24
677.51	29991.62
677.65	29879.28
677.79	29600.76
677.93	29586.71
678.07	29567.99
678.21	29378.40
678.34	29659.27
678.48	29104.56
678.62	29457.98
678.76	29668.63
678.90	29275.42
679.04	28924.34
679.18	28907.96
679.31	28936.04
679.45	28924.34
679.59	28390.70
679.73	28435.17
679.87	28386.02
680.00	28264.31
680.14	28360.27
680.28	27740.03
680.42	28173.03
680.56	28170.69
680.70	27768.12
680.83	27992.81
680.97	27594.92
681.11	27541.08
681.25	27206.39
681.39	27356.18
681.52	27992.81
681.66	27725.99
681.80	26958.29
681.94	27138.51
682.07	27080.00
682.21	26810.84
682.35	27201.71
682.49	27051.91
682.62	26932.54
682.76	26281.88
682.90	26127.40
683.04	26698.49
683.17	26466.78
683.31	26551.04
683.45	26199.96
683.59	26377.84
683.72	26008.03
683.86	25942.50
684.00	25687.38
684.13	25825.47
684.27	25837.17
684.41	25678.02
684.55	25415.88
684.68	25495.46
684.82	25556.31
684.96	25132.67
685.09	25228.63
685.23	25062.46
685.37	25181.82
685.50	24776.91
685.64	24929.05
685.78	24662.22
685.91	24861.17
686.05	25010.96
686.19	24449.24
686.32	24329.87
686.46	23707.29
686.60	23850.06
686.73	23997.51
686.87	23810.27
687.01	23578.56
687.14	23377.27
687.28	23503.66
687.42	23393.65
687.55	23220.45
687.69	23124.49
687.82	23316.42
687.96	23208.75
688.10	23391.31
688.23	23309.40
688.37	23065.98
688.50	22731.28
688.64	22546.38
688.78	22810.86
688.91	22581.49
689.05	22712.56
689.18	22534.68
689.32	22050.19
689.46	22485.53
689.59	22696.17
689.73	22160.19
689.86	22274.88
690.00	22150.83
690.13	22230.41
690.27	22026.78
690.41	21745.92
690.54	21565.70
690.68	21352.71
690.81	21867.63
690.95	21350.37
691.08	21041.42
691.22	21338.66
691.35	21422.92
691.49	21401.86
691.62	21373.77
691.76	21207.59
691.89	21343.35
692.03	20826.09
692.16	20746.51
692.30	20657.57
692.43	20549.90
692.57	20596.71
692.70	20535.86
692.84	20524.16
692.97	20264.36
693.11	20339.26
693.24	20259.68
693.38	20271.38
693.51	20065.41
693.65	19957.75
693.78	20205.84
693.92	19927.32
694.05	19906.26
694.19	19847.74
694.32	19597.31
694.45	19679.22
694.59	19302.40
694.72	19321.12
694.86	19342.19
694.99	19035.58
695.13	19220.48
695.26	18731.31
695.39	18609.60
695.53	19007.49
695.66	18958.34
695.80	18967.70
695.93	18424.70
696.07	18230.43
696.20	18583.85
696.33	18188.30
696.47	18382.57
696.60	18389.59
696.73	17886.37
696.87	18115.75
697.00	18043.19
697.14	17851.27
697.27	17657.00
697.40	17820.84
697.54	17577.42
697.67	17699.13
697.80	17495.50
697.94	17652.32
698.07	17294.22
698.21	17343.37
698.34	17326.99
698.47	17209.96
698.61	16975.91
698.74	16828.45
698.87	17018.04
699.01	16737.17
699.14	16840.15
699.27	16676.32
699.40	16849.52
699.54	16568.65
699.67	16372.05
699.80	16285.45
699.94	16341.62
700.07	16257.36
700.20	16088.84
700.34	16018.63
700.47	16119.27
700.60	16329.92
700.73	16343.96
700.87	15866.49
701.00	15859.47
701.13	16002.24
701.26	16023.31
701.40	15770.53
701.53	15545.84
701.66	15372.64
701.79	15400.72
701.93	15323.49
702.06	15302.42
702.19	15089.43
702.32	15286.04
702.46	15370.30
702.59	15161.99
702.72	14934.96
702.85	14916.23
702.99	15194.76
703.12	14862.40
703.25	14794.53
703.38	14822.61
703.51	14452.81
703.65	14871.76
703.78	14492.60
703.91	14548.77
704.04	14520.68
704.17	14176.62
704.31	14471.53
704.44	14057.26
704.57	13830.23
704.70	14073.64
704.83	13731.92
704.96	13827.88
705.10	14080.66
705.23	13809.16
>>>>>End Processed Spectral Data<<<<<
