SpectraSuite Data File
++++++++++++++++++++++++++++++++++++
Date: Fri Oct 25 10:47:59 EDT 2013
User: price-jones
Dark Spectrum Present: No
Reference Spectrum Present: No
Number of Sampled Component Spectra: 1
Spectrometers: USB2+H05261
Integration Time (usec): 100000 (USB2+H05261)
Spectra Averaged: 1 (USB2+H05261)
Boxcar Smoothing: 0 (USB2+H05261)
Correct for Electrical Dark: No (USB2+H05261)
Strobe/Lamp Enabled: No (USB2+H05261)
Correct for Detector Non-linearity: No (USB2+H05261)
Correct for Stray Light: No (USB2+H05261)
Number of Pixels in Processed Spectrum: 2048
>>>>>Begin Processed Spectral Data<<<<<
365.73	95.96
365.92	95.96
366.12	95.96
366.32	30.43
366.52	77.24
366.72	35.11
366.91	37.45
367.11	39.79
367.31	14.04
367.51	30.43
367.70	9.36
367.90	95.96
368.10	32.77
368.30	70.22
368.49	44.47
368.69	37.45
368.89	88.94
369.09	105.32
369.28	102.98
369.48	91.28
369.68	215.33
369.87	152.13
370.07	149.79
370.27	131.07
370.47	276.18
370.66	351.08
370.86	362.78
371.06	456.40
371.25	414.27
371.45	437.68
371.65	458.74
371.84	477.47
372.04	440.02
372.24	528.96
372.44	477.47
372.63	514.92
372.83	484.49
373.03	489.17
373.22	458.74
373.42	554.71
373.62	540.66
373.81	599.18
374.01	564.07
374.21	582.79
374.40	528.96
374.60	554.71
374.79	594.50
374.99	580.45
375.19	528.96
375.38	557.05
375.58	533.64
375.78	613.22
375.97	634.29
376.17	683.44
376.37	592.16
376.56	531.30
376.76	561.73
376.95	596.84
377.15	587.47
377.35	582.79
377.54	533.64
377.74	566.41
377.93	573.43
378.13	589.82
378.33	627.26
378.52	566.41
378.72	594.50
378.91	657.69
379.11	643.65
379.31	575.77
379.50	592.16
379.70	688.12
379.89	589.82
380.09	603.86
380.28	676.41
380.48	624.92
380.68	648.33
380.87	688.12
381.07	676.41
381.26	594.50
381.46	638.97
381.65	617.90
381.85	676.41
382.04	662.37
382.24	664.71
382.43	688.12
382.63	671.73
382.83	727.91
383.02	781.74
383.22	786.42
383.41	800.46
383.61	678.76
383.80	732.59
384.00	741.95
384.19	793.44
384.39	681.10
384.58	699.82
384.78	748.97
384.97	777.06
385.17	767.70
385.36	774.72
385.56	688.12
385.75	753.65
385.95	823.87
386.14	725.57
386.34	795.78
386.53	842.59
386.72	739.61
386.92	875.36
387.11	777.06
387.31	802.80
387.50	835.57
387.70	793.44
387.89	795.78
388.09	774.72
388.28	840.25
388.48	835.57
388.67	805.14
388.86	830.89
389.06	966.64
389.25	919.83
389.45	877.70
389.64	896.43
389.84	868.34
390.03	884.72
390.22	961.96
390.42	940.90
390.61	837.91
390.81	959.62
391.00	901.11
391.19	922.17
391.39	966.64
391.58	922.17
391.78	938.55
391.97	1004.09
392.16	868.34
392.36	997.07
392.55	980.68
392.75	903.45
392.94	1006.43
393.13	915.15
393.33	901.11
393.52	973.66
393.71	1006.43
393.91	992.39
394.10	994.73
394.29	1074.31
394.49	990.05
394.68	1076.65
394.88	1123.46
395.07	1193.67
395.26	1153.88
395.46	1207.72
395.65	1050.90
395.84	1163.25
396.04	1233.46
396.23	1076.65
396.42	1062.60
396.62	1071.97
396.81	1090.69
397.00	1128.14
397.19	1146.86
397.39	1163.25
397.58	1266.23
397.77	1221.76
397.97	1231.12
398.16	1306.02
398.35	1287.29
398.55	1289.64
398.74	1294.32
398.93	1390.28
399.12	1310.70
399.32	1167.93
399.51	1397.30
399.70	1366.87
399.90	1261.55
400.09	1376.24
400.28	1409.00
400.47	1357.51
400.67	1411.34
400.86	1444.11
401.05	1504.96
401.24	1511.99
401.44	1411.34
401.63	1504.96
401.82	1434.75
402.01	1401.98
402.21	1533.05
402.40	1479.22
402.59	1502.62
402.78	1526.03
402.97	1547.09
403.17	1621.99
403.36	1617.31
403.55	1582.20
403.74	1652.42
403.93	1607.95
404.13	1664.12
404.32	1540.07
404.51	1647.74
404.70	1582.20
404.89	1689.87
405.09	1748.38
405.28	1680.50
405.47	1694.55
405.66	1715.61
405.85	1760.08
406.05	1743.70
406.24	1778.81
406.43	1806.89
406.62	1820.94
406.81	1919.24
407.00	1774.13
407.20	1919.24
407.39	1774.13
407.58	1830.30
407.77	1792.85
407.96	1987.11
408.15	2010.52
408.34	1996.48
408.54	1949.67
408.73	1905.20
408.92	1998.82
409.11	2064.35
409.30	1994.14
409.49	1996.48
409.68	1905.20
409.87	1991.80
410.07	2223.51
410.26	2073.71
410.45	2087.76
410.64	2078.40
410.83	2183.72
411.02	2157.97
411.21	2216.49
411.40	2291.38
411.59	2246.91
411.78	2267.98
411.98	2251.60
412.17	2296.07
412.36	2335.85
412.55	2347.56
412.74	2392.03
412.93	2431.82
413.12	2385.01
413.31	2427.14
413.50	2450.54
413.69	2429.48
413.88	2548.84
414.07	2539.48
414.26	2576.93
414.45	2520.76
414.64	2614.38
414.83	2647.15
415.02	2731.41
415.22	2726.72
415.41	2782.90
415.60	2593.31
415.79	2768.85
415.98	2736.09
416.17	2899.92
416.36	2794.60
416.55	2841.41
416.74	2820.35
416.93	2792.26
417.12	2956.10
417.31	2967.80
417.50	2860.13
417.69	3087.17
417.88	2946.73
418.07	2956.10
418.26	3070.78
418.45	3110.57
418.64	3094.19
418.83	3187.81
419.02	3126.96
419.21	3056.74
419.39	3178.45
419.58	3290.79
419.77	3103.55
419.96	3279.09
420.15	3110.57
420.34	3288.45
420.53	3375.05
420.72	3410.16
420.91	3389.10
421.10	3391.44
421.29	3407.82
421.48	3265.05
421.67	3353.99
421.86	3253.34
422.05	3428.88
422.24	3316.54
422.43	3321.22
422.61	3475.70
422.80	3283.77
422.99	3485.06
423.18	3501.44
423.37	3557.61
423.56	3442.93
423.75	3461.65
423.94	3496.76
424.13	3218.24
424.32	3220.58
424.50	3487.40
424.69	3557.61
424.88	3555.27
425.07	3396.12
425.26	3471.01
425.45	3442.93
425.64	3527.19
425.83	3604.42
426.01	3684.00
426.20	3592.72
426.39	3613.79
426.58	3627.83
426.77	3478.04
426.96	3609.11
427.15	3632.51
427.33	3548.25
427.52	3730.81
427.71	3695.71
427.90	3777.62
428.09	3679.32
428.28	3810.39
428.46	3859.54
428.65	3761.24
428.84	3843.16
429.03	3812.73
429.22	3822.09
429.40	3765.92
429.59	3737.84
429.78	3574.00
429.97	3569.32
430.16	3702.73
430.34	3700.39
430.53	3857.20
430.72	3798.69
430.91	3822.09
431.10	3960.19
431.28	3978.91
431.47	4042.11
431.66	3995.29
431.85	3948.48
432.03	4051.47
432.22	4100.62
432.41	4175.52
432.60	4117.00
432.79	4217.65
432.97	4191.90
433.16	4166.15
433.35	4198.92
433.54	4124.02
433.72	4058.49
433.91	4117.00
434.10	4243.39
434.28	4411.91
434.47	4121.68
434.66	4292.54
434.85	4374.46
435.03	4432.97
435.22	4341.69
435.41	4454.04
435.59	4540.64
435.78	4550.00
435.97	4657.67
436.16	4451.70
436.34	4475.10
436.53	4657.67
436.72	4655.33
436.90	4542.98
437.09	4580.43
437.28	4540.64
437.46	4615.54
437.65	4657.67
437.84	4610.86
438.02	4557.02
438.21	4643.62
438.40	4725.54
438.58	4641.28
438.77	4964.28
438.96	4863.63
439.14	5025.13
439.33	4922.15
439.52	5064.92
439.70	4910.44
439.89	5025.13
440.08	5032.15
440.26	5043.85
440.45	5135.14
440.63	5212.37
440.82	5242.80
441.01	5207.69
441.19	5394.93
441.38	5355.15
441.57	5217.05
441.75	5507.28
441.94	5401.96
442.12	5668.78
442.31	5736.65
442.50	5614.95
442.68	5556.43
442.87	5643.03
443.05	5694.52
443.24	5654.73
443.43	5544.73
443.61	5666.44
443.80	6059.65
443.98	5701.54
444.17	5568.13
444.35	5713.25
444.54	5837.30
444.73	5673.46
444.91	5652.39
445.10	5806.87
445.28	5753.04
445.47	5650.05
445.65	5687.50
445.84	5785.80
446.02	5874.74
446.21	5872.40
446.39	5736.65
446.58	5746.02
446.77	5792.83
446.95	5764.74
447.14	5830.27
447.32	5947.30
447.51	5940.28
447.69	5834.96
447.88	6136.88
448.06	5909.85
448.25	5872.40
448.43	5795.17
448.62	5858.36
448.80	6022.20
448.99	5912.19
449.17	5942.62
449.36	5963.68
449.54	6183.70
449.73	6237.53
449.91	6186.04
450.10	6389.66
450.28	6239.87
450.46	6354.55
450.65	6244.55
450.83	6249.23
451.02	6394.34
451.20	6321.79
451.39	6420.09
451.57	6094.76
451.76	6244.55
451.94	6333.49
452.13	6464.56
452.31	6448.18
452.49	6349.87
452.68	6427.11
452.86	6256.25
453.05	6422.43
453.23	6588.61
453.42	6424.77
453.60	6518.39
453.78	6719.68
453.97	6494.99
454.15	6562.86
454.34	6452.86
454.52	6665.85
454.70	6745.42
454.89	6736.06
455.07	6815.64
455.26	6782.87
455.44	6897.56
455.62	6672.87
455.81	6726.70
455.99	6899.90
456.17	6988.84
456.36	7028.63
456.54	7194.81
456.73	7068.42
456.91	7023.95
457.09	7117.57
457.28	7414.82
457.46	7119.91
457.64	7075.44
457.83	7279.07
458.01	7192.47
458.19	7435.88
458.38	7344.60
458.56	7293.11
458.74	7304.81
458.93	7220.55
459.11	7393.75
459.29	7438.22
459.48	7407.80
459.66	7454.61
459.84	7396.09
460.03	7595.04
460.21	7454.61
460.39	7489.71
460.57	7510.78
460.76	7536.52
460.94	7698.02
461.12	7714.41
461.31	7653.55
461.49	7545.89
461.67	7639.51
461.85	7894.63
462.04	7796.32
462.22	8152.09
462.40	7976.55
462.59	7761.22
462.77	7997.61
462.95	7995.27
463.13	7939.10
463.32	8091.23
463.50	7845.48
463.68	8084.21
463.86	7950.80
464.05	7957.82
464.23	7939.10
464.41	8072.51
464.59	7873.56
464.78	8166.13
464.96	7932.08
465.14	7918.03
465.32	8135.70
465.50	8208.26
465.69	8182.51
465.87	8063.15
466.05	8334.65
466.23	8177.83
466.41	8468.06
466.60	8472.74
466.78	8264.43
466.96	8262.09
467.14	8386.14
467.32	8367.42
467.51	8491.46
467.69	8126.34
467.87	8526.57
468.05	8407.20
468.23	8383.80
468.41	8273.79
468.60	8446.99
468.78	8503.17
468.96	8432.95
469.14	8692.75
469.32	8695.09
469.50	8552.32
469.69	8828.50
469.87	8711.47
470.05	8915.10
470.23	9022.77
470.41	9022.77
470.59	8870.63
470.77	8692.75
470.95	9132.77
471.14	9078.94
471.32	9022.77
471.50	9198.31
471.68	9334.06
471.86	9090.64
472.04	9123.41
472.22	9664.07
472.40	9177.24
472.58	9401.93
472.77	9305.97
472.95	9434.70
473.13	9610.24
473.31	9479.17
473.49	9399.59
473.67	9502.58
473.85	9736.63
474.03	9785.78
474.21	9764.72
474.39	9921.53
474.57	9839.61
474.75	10076.01
474.93	10099.41
475.12	10022.17
475.30	10029.20
475.48	9937.91
475.66	10235.16
475.84	10225.80
476.02	10473.90
476.20	10108.77
476.38	10501.98
476.56	10616.67
476.74	10504.32
476.92	10691.57
477.10	10686.89
477.28	11047.33
477.46	10600.29
477.64	11016.90
477.82	11201.80
478.00	11211.17
478.18	11180.74
478.36	11225.21
478.54	11283.72
478.72	11428.84
478.90	11669.91
479.08	11840.77
479.26	11723.74
479.44	11836.09
479.62	11761.19
479.80	12065.46
479.98	11899.28
480.16	12493.78
480.34	12112.27
480.52	12409.52
480.70	12465.69
480.88	12332.28
481.06	12322.92
481.24	12592.08
481.41	12713.79
481.59	12786.35
481.77	12933.80
481.95	12910.40
482.13	13170.19
482.31	13179.56
482.49	13397.23
482.67	13589.15
482.85	13577.45
483.03	13928.53
483.21	13603.19
483.39	13865.33
483.57	14033.85
483.74	14026.83
483.92	14223.44
484.10	14010.45
484.28	14225.78
484.46	14654.09
484.64	14897.51
484.82	14380.25
485.00	14675.16
485.18	14731.33
485.35	15084.75
485.53	14967.73
485.71	14918.57
485.89	15140.93
486.07	15370.30
486.25	15084.75
486.43	15555.20
486.61	15440.51
486.78	15826.70
486.96	15941.39
487.14	15960.11
487.32	16079.48
487.50	16226.93
487.68	16332.26
487.85	16482.05
488.03	16931.44
488.21	16884.62
488.39	16938.46
488.57	17186.55
488.75	17146.76
488.92	17488.48
489.10	17378.48
489.28	17427.63
489.46	17900.42
489.64	17659.34
489.81	18200.01
489.99	18293.63
490.17	18146.17
490.35	18431.72
490.53	18471.51
490.70	18511.30
490.88	18532.36
491.06	18925.57
491.24	18876.42
491.41	18897.49
491.59	18693.86
491.77	18944.30
491.95	19218.14
492.13	19529.43
492.30	19623.05
492.48	19606.67
492.66	19719.01
492.84	19784.55
493.01	19990.52
493.19	19915.62
493.37	20072.43
493.54	20313.51
493.72	20493.73
493.90	20599.05
494.08	20432.88
494.25	21046.10
494.43	21139.72
494.61	21544.63
494.79	21088.23
494.96	21212.28
495.14	20989.92
495.32	21460.37
495.49	21876.99
495.67	21568.04
495.85	21783.37
496.02	22188.28
496.20	22155.51
496.38	22155.51
496.55	22202.32
496.73	22848.31
496.91	22228.07
497.09	22658.73
497.26	23264.92
497.44	22691.49
497.62	22944.27
497.79	23204.07
497.97	22614.26
498.14	23576.22
498.32	23325.78
498.50	23424.08
498.67	23452.17
498.85	23695.58
499.03	23936.66
499.20	23681.54
499.38	23985.81
499.56	24236.25
499.73	24545.20
499.91	24439.87
500.08	24409.45
500.26	24168.37
500.44	24570.94
500.61	24896.28
500.79	24496.05
500.97	24945.43
501.14	25116.29
501.32	24980.54
501.49	24830.74
501.67	25053.09
501.84	25577.37
502.02	25434.60
502.20	25240.34
502.37	25635.89
502.55	25638.23
502.72	25656.95
502.90	25799.73
503.07	25553.97
503.25	25745.89
503.43	25640.57
503.60	25954.20
503.78	26061.87
503.95	25968.24
504.13	26295.92
504.30	26171.87
504.48	26211.66
504.65	26525.29
504.83	26497.20
505.01	27033.19
505.18	26536.99
505.36	26796.79
505.53	26834.24
505.71	27211.07
505.88	27243.84
506.06	26799.13
506.23	27410.01
506.41	27159.58
506.58	27225.11
506.76	27606.62
506.93	27740.03
507.11	27630.02
507.28	27658.11
507.46	27899.19
507.63	27812.59
507.81	28191.75
507.98	27903.87
508.16	27903.87
508.33	28194.09
508.50	28470.28
508.68	28219.84
508.85	28664.54
509.03	28519.43
509.20	28521.77
509.38	28727.74
509.55	29083.50
509.73	28474.96
509.90	28596.67
510.08	28540.49
510.25	28493.68
510.42	29144.35
510.60	29053.07
510.77	29455.64
510.95	29567.99
511.12	29280.10
511.30	29734.17
511.47	29696.72
511.64	29865.24
511.82	29970.56
511.99	29607.78
512.17	30181.21
512.34	30038.44
512.51	30146.10
512.69	30373.13
512.86	30321.64
513.04	30298.23
513.21	30099.29
513.38	30405.90
513.56	30600.16
513.73	30108.65
513.90	30258.45
514.08	30572.08
514.25	30888.05
514.43	30576.76
514.60	30707.83
514.77	30836.56
514.95	30993.37
515.12	30829.54
515.29	31122.10
515.47	31580.85
515.64	31250.83
515.81	31590.21
515.99	31166.57
516.16	31494.25
516.33	31126.78
516.51	31686.17
516.68	31363.18
516.85	31117.42
517.03	31433.39
517.20	31732.98
517.37	32046.62
517.54	32184.71
517.72	31931.93
517.89	32133.21
518.06	31852.35
518.24	31740.00
518.41	31838.31
518.58	32397.70
518.75	32027.89
518.93	32835.38
519.10	32285.35
519.27	32741.75
519.45	32355.57
519.62	32957.08
519.79	32910.27
519.96	33088.15
520.14	32826.01
520.31	32961.76
520.48	32985.17
520.65	33006.23
520.83	33188.80
521.00	33336.25
521.17	33483.70
521.34	33493.07
521.52	33780.95
521.69	33804.36
521.86	33944.79
522.03	33493.07
522.20	34094.58
522.38	33954.15
522.55	34354.38
522.72	34122.67
522.89	33816.06
523.07	34122.67
523.24	34139.05
523.41	34171.82
523.58	34286.51
523.75	34993.35
523.92	34618.86
524.10	34518.22
524.27	34967.60
524.44	34660.99
524.61	34972.28
524.78	34983.99
524.96	34876.32
525.13	35093.99
525.30	35456.78
525.47	35281.24
525.64	35035.48
525.81	35634.66
525.98	35473.16
526.16	35014.41
526.33	35065.91
526.50	35131.44
526.67	34965.26
526.84	35454.44
527.01	35211.02
527.18	35583.16
527.36	35793.81
527.53	35559.76
527.70	35878.07
527.87	36208.09
528.04	35622.95
528.21	36119.15
528.38	36006.80
528.55	36341.50
528.72	35878.07
528.89	36142.55
529.07	36205.75
529.24	36156.60
529.41	36339.16
529.58	36053.61
529.75	36517.04
529.92	36662.15
530.09	36299.37
530.26	36540.44
530.43	36591.94
530.60	36495.97
530.77	36343.84
530.94	36840.03
531.11	36701.94
531.28	36741.73
531.46	37172.39
531.63	36891.52
531.80	37031.96
531.97	36811.95
532.14	37385.38
532.31	37230.90
532.48	37596.03
532.65	37333.89
532.82	37177.07
532.99	37504.74
533.16	37038.98
533.33	37553.90
533.50	37376.01
533.67	37331.54
533.84	37404.10
534.01	37525.81
534.18	37888.59
534.35	37511.77
534.52	37544.53
534.69	37855.82
534.86	38087.54
535.03	37741.14
535.20	38239.67
535.37	38227.97
535.54	38352.02
535.71	38171.80
535.88	38110.94
536.05	38251.38
536.22	38618.84
536.38	38410.53
536.55	38096.90
536.72	38506.49
536.89	38279.46
537.06	38464.36
537.23	38733.53
537.40	38520.54
537.57	38543.94
537.74	38986.30
537.91	38995.67
538.08	38665.65
538.25	38164.78
538.42	38820.13
538.59	39208.65
538.75	38546.28
538.92	38890.34
539.09	39239.08
539.26	39091.63
539.43	39002.69
539.60	39475.48
539.77	39117.37
539.94	39295.25
540.11	38920.77
540.28	39260.15
540.44	39040.14
540.61	39103.33
540.78	38946.51
540.95	39438.03
541.12	39313.98
541.29	39728.25
541.46	39313.98
541.62	39749.32
541.79	39690.80
541.96	39426.32
542.13	39697.83
542.30	39725.91
542.47	40016.14
542.63	39751.66
542.80	39744.64
542.97	40346.15
543.14	40549.78
543.31	40353.18
543.48	40437.44
543.64	40299.34
543.81	40451.48
543.98	39966.99
544.15	40198.70
544.32	40584.89
544.48	40832.99
544.65	40868.09
544.82	40411.69
544.99	40463.18
545.16	40844.69
545.32	40011.46
545.49	40655.11
545.66	40706.60
545.83	40795.54
546.00	40844.69
546.16	40706.60
546.33	40804.90
546.50	40449.14
546.67	40734.68
546.83	40308.71
547.00	41132.57
547.17	40807.24
547.34	40919.59
547.50	40973.42
547.67	41291.73
547.84	41184.07
548.00	41769.20
548.17	41078.74
548.34	41090.44
548.51	41523.44
548.67	41464.93
548.84	41715.37
549.01	41144.28
549.18	41633.45
549.34	41528.13
549.51	41827.71
549.68	41591.32
549.84	41862.82
550.01	41968.15
550.18	41640.47
550.34	41408.76
550.51	41511.74
550.68	41928.36
550.84	41422.80
551.01	42169.43
551.18	42029.00
551.34	41986.87
551.51	41727.07
551.68	42017.30
551.84	41977.51
552.01	41659.20
552.18	42265.39
552.34	41336.20
552.51	42115.60
552.68	41855.80
552.84	42052.41
553.01	42473.70
553.18	41982.19
553.34	42462.00
553.51	41879.21
553.67	42270.08
553.84	42380.08
554.01	42335.61
554.17	43035.43
554.34	43061.18
554.51	42710.10
554.67	42890.32
554.84	42658.60
555.00	42658.60
555.17	42382.42
555.33	42756.91
555.50	42747.54
555.67	42852.87
555.83	42960.53
556.00	42623.50
556.16	42967.55
556.33	42595.41
556.50	43159.48
556.66	42508.81
556.83	42691.37
556.99	43482.47
557.16	42885.64
557.32	43281.19
557.49	43105.65
557.65	42660.94
557.82	42632.86
557.98	43260.12
558.15	42911.38
558.32	43023.73
558.48	42801.38
558.65	43019.05
558.81	43086.92
558.98	43426.30
559.14	42986.28
559.31	43138.41
559.47	43035.43
559.64	43323.32
559.80	43540.99
559.97	43515.24
560.13	42792.01
560.30	43124.37
560.46	43515.24
560.63	42775.63
560.79	43274.16
560.96	43765.68
561.12	43407.58
561.29	43374.81
561.45	43428.64
561.61	43468.43
561.78	43482.47
561.94	43386.51
562.11	43526.94
562.27	43482.47
562.44	43365.45
562.60	43653.33
562.77	43913.13
562.93	43442.68
563.10	43695.46
563.26	43814.83
563.42	43543.33
563.59	43793.76
563.75	43922.49
563.92	44186.97
564.08	43627.59
564.24	44016.11
564.41	43973.98
564.57	43650.99
564.74	43739.93
564.90	43606.52
565.07	43627.59
565.23	43875.68
565.39	43660.35
565.56	44079.31
565.72	44086.33
565.88	43650.99
566.05	43646.31
566.21	44250.17
566.38	43775.04
566.54	43779.72
566.70	44421.03
566.87	44442.09
567.03	43936.54
567.19	44109.74
567.36	44116.76
567.52	43702.48
567.68	44044.20
567.85	44069.95
568.01	43711.84
568.17	43868.66
568.34	44371.88
568.50	44100.37
568.66	44432.73
568.83	43709.50
568.99	43866.32
569.15	43777.38
569.32	43922.49
569.48	43669.72
569.64	44273.57
569.81	43763.34
569.97	43969.30
570.13	44179.95
570.30	44121.44
570.46	43859.30
570.62	43856.96
570.78	43782.06
570.95	43941.22
571.11	44374.22
571.27	43997.39
571.43	44062.93
571.60	44004.41
571.76	44088.67
571.92	44060.58
572.09	44364.85
572.25	44491.24
572.41	44048.88
572.57	44449.11
572.74	44456.14
572.90	44163.57
573.06	43952.92
573.22	44296.98
573.38	44226.76
573.55	44055.90
573.71	44680.83
573.87	44446.77
574.03	44236.12
574.20	44514.65
574.36	44254.85
574.52	44198.68
574.68	44491.24
574.84	44645.72
575.01	44112.08
575.17	44304.00
575.33	44158.89
575.49	44053.56
575.65	44701.89
575.82	44549.76
575.98	44467.84
576.14	44219.74
576.30	44285.28
576.46	44376.56
576.62	43655.67
576.79	44093.35
576.95	43957.60
577.11	44355.49
577.27	44123.78
577.43	44306.34
577.59	44299.32
577.75	44619.97
577.92	44320.38
578.08	44156.55
578.24	44350.81
578.40	44414.01
578.56	43969.30
578.72	44547.42
578.88	44549.76
579.04	44463.16
579.21	44446.77
579.37	44329.75
579.53	44439.75
579.69	44261.87
579.85	44177.61
580.01	45076.38
580.17	44435.07
580.33	44900.84
580.49	44926.58
580.65	44591.89
580.82	44563.80
580.98	44151.87
581.14	44002.07
581.30	44442.09
581.46	44868.07
581.62	44231.44
581.78	44315.70
581.94	44430.39
582.10	44725.30
582.26	44748.70
582.42	44385.92
582.58	44353.15
582.74	44912.54
582.90	44720.62
583.06	44933.60
583.22	44638.70
583.38	44711.25
583.54	44189.31
583.70	44772.11
583.86	44596.57
584.02	44378.90
584.18	44378.90
584.34	44744.02
584.50	44816.58
584.66	44364.85
584.82	44514.65
584.98	44942.97
585.14	44898.50
585.30	44168.25
585.46	44247.83
585.62	44126.12
585.78	44652.74
585.94	44243.15
586.10	44271.23
586.26	44318.04
586.42	44818.92
586.58	44657.42
586.74	44596.57
586.90	44722.96
587.06	44261.87
587.22	44598.91
587.38	44247.83
587.54	45303.41
587.70	44737.00
587.86	44739.34
588.02	44961.69
588.18	44652.74
588.34	44626.99
588.49	44423.37
588.65	44210.38
588.81	44135.48
588.97	44638.70
589.13	44484.22
589.29	44842.32
589.45	44729.98
589.61	44858.71
589.77	44905.52
589.93	44921.90
590.08	44931.26
590.24	44856.37
590.40	44863.39
590.56	45312.77
590.72	44758.06
590.88	44573.16
591.04	44587.21
591.20	44964.03
591.35	45401.71
591.51	45167.66
591.67	44971.05
591.83	44648.06
591.99	44554.44
592.15	44648.06
592.31	44683.17
592.46	44158.89
592.62	44884.45
592.78	45312.77
592.94	44755.72
593.10	44753.38
593.26	45148.93
593.41	44722.96
593.57	44863.39
593.73	44786.15
593.89	45029.57
594.05	44360.17
594.20	44582.52
594.36	44975.73
594.52	44706.57
594.68	44896.16
594.84	45020.20
594.99	45373.63
595.15	45085.74
595.31	45425.12
595.47	44893.82
595.62	44940.63
595.78	44811.90
595.94	45284.68
596.10	45373.63
596.25	45296.39
596.41	45247.24
596.57	45153.62
596.73	45043.61
596.88	45109.14
597.04	45404.05
597.20	45345.54
597.36	45064.67
597.51	45270.64
597.67	44978.07
597.83	45209.79
597.99	45212.13
598.14	45565.55
598.30	44982.76
598.46	45172.34
598.61	45214.47
598.77	44762.75
598.93	45305.75
599.09	44711.25
599.24	45769.18
599.40	45022.54
599.56	44975.73
599.71	45209.79
599.87	45354.90
600.03	44715.93
600.18	45153.62
600.34	45003.82
600.50	44760.40
600.65	44748.70
600.81	45216.81
600.97	45558.53
601.12	45366.60
601.28	45045.95
601.44	45088.08
601.59	44924.24
601.75	44594.23
601.91	44900.84
602.06	44879.77
602.22	45219.15
602.37	45172.34
602.53	44624.65
602.69	45434.48
602.84	45074.04
603.00	44809.56
603.16	45261.28
603.31	44729.98
603.47	44727.64
603.62	44610.61
603.78	44980.42
603.94	45617.04
604.09	45010.84
604.25	45048.29
604.40	45057.65
604.56	44832.96
604.71	44830.62
604.87	45043.61
605.03	45022.54
605.18	44975.73
605.34	44898.50
605.49	44737.00
605.65	45038.93
605.80	44465.50
605.96	45064.67
606.12	44722.96
606.27	44849.35
606.43	44528.69
606.58	45118.51
606.74	44692.53
606.89	44346.13
607.05	44467.84
607.20	44699.55
607.36	44692.53
607.51	45378.31
607.67	44758.06
607.82	44891.48
607.98	45153.62
608.13	44556.78
608.29	44474.86
608.44	44671.46
608.60	44032.50
608.75	44353.15
608.91	44353.15
609.06	44910.20
609.22	44657.42
609.37	44713.59
609.53	44907.86
609.68	44769.77
609.84	44865.73
609.99	44287.62
610.15	44839.98
610.30	44516.99
610.46	44362.51
610.61	44238.47
610.76	44428.05
610.92	44449.11
611.07	44369.54
611.23	44334.43
611.38	44341.45
611.54	43777.38
611.69	44402.30
611.84	44474.86
612.00	44121.44
612.15	44119.10
612.31	44617.63
612.46	44390.60
612.62	44507.63
612.77	44561.46
612.92	44486.56
613.08	44631.68
613.23	44095.69
613.39	44428.05
613.54	44020.80
613.69	44130.80
613.85	44301.66
614.00	44217.40
614.15	44198.68
614.31	44201.02
614.46	44559.12
614.62	44296.98
614.77	44105.06
614.92	43704.82
615.08	44130.80
615.23	44219.74
615.38	43711.84
615.54	43536.30
615.69	43964.62
615.84	43643.97
616.00	44044.20
616.15	43690.78
616.30	43761.00
616.46	43866.32
616.61	43732.91
616.76	43646.31
616.92	43138.41
617.07	44060.58
617.22	43552.69
617.37	43487.15
617.53	43739.93
617.68	43941.22
617.83	43849.94
617.99	44020.80
618.14	43613.54
618.29	43763.34
618.45	43292.89
618.60	43356.08
618.75	43386.51
618.90	43456.73
619.06	43489.49
619.21	43789.08
619.36	43353.74
619.51	43150.12
619.67	43594.82
619.82	43409.92
619.97	43405.23
620.12	43227.35
620.28	42857.55
620.43	43131.39
620.58	43213.31
620.73	43276.51
620.89	43217.99
621.04	42983.94
621.19	43349.06
621.34	42824.78
621.49	43084.58
621.65	42682.01
621.80	42817.76
621.95	42623.50
622.10	42960.53
622.25	43545.67
622.41	42646.90
622.56	42574.34
622.71	43281.19
622.86	42869.25
623.01	42581.37
623.16	43119.69
623.32	42824.78
623.47	42670.31
623.62	42960.53
623.77	42686.69
623.92	42766.27
624.07	42642.22
624.23	43007.34
624.38	42075.81
624.53	42440.93
624.68	42450.30
624.83	42768.61
624.98	42595.41
625.13	42642.22
625.29	42162.41
625.44	42885.64
625.59	42440.93
625.74	42300.50
625.89	41977.51
626.04	42288.80
626.19	42265.39
626.34	42108.58
626.49	42309.86
626.65	42359.02
626.80	42246.67
626.95	41944.74
627.10	42117.94
627.25	41610.04
627.40	42031.34
627.55	41834.74
627.70	41759.84
627.85	41792.61
628.00	41680.26
628.15	42466.68
628.30	42115.60
628.45	42019.64
628.60	41617.07
628.76	42134.32
628.91	41956.44
629.06	41867.50
629.21	42003.25
629.36	41439.18
629.51	41565.57
629.66	41867.50
629.81	41572.60
629.96	41551.53
630.11	41785.58
630.26	41837.08
630.41	41722.39
630.56	41385.35
630.71	41188.75
630.86	41525.78
631.01	41043.63
631.16	41017.89
631.31	41048.32
631.46	40837.67
631.61	40783.83
631.76	41043.63
631.91	41268.33
632.06	41614.72
632.21	41078.74
632.36	41368.97
632.51	41340.88
632.66	41460.25
632.81	40931.29
632.96	41001.50
633.10	40767.45
633.25	40898.52
633.40	40914.90
633.55	41219.17
633.70	41027.25
633.85	40830.65
634.00	41034.27
634.15	41001.50
634.30	41153.64
634.45	41003.85
634.60	40680.85
634.75	40753.41
634.90	40594.25
635.05	40589.57
635.19	41029.59
635.34	40861.07
635.49	40882.14
635.64	40769.79
635.79	40531.06
635.94	40252.53
636.09	40140.19
636.24	40519.35
636.39	40315.73
636.53	40500.63
636.68	40165.93
636.83	40311.05
636.98	40142.53
637.13	40231.47
637.28	40364.88
637.43	40676.17
637.57	40137.85
637.72	40360.20
637.87	40484.25
638.02	40432.75
638.17	39901.45
638.32	40240.83
638.46	40006.78
638.61	40240.83
638.76	39681.44
638.91	40055.93
639.06	40184.66
639.20	40065.29
639.35	40053.59
639.50	40023.16
639.65	40517.01
639.80	40076.99
639.94	39934.22
640.09	40229.13
640.24	40187.00
640.39	39438.03
640.54	39592.50
640.68	39442.71
640.83	39800.81
640.98	39796.13
641.13	39349.09
641.27	40112.10
641.42	39754.00
641.57	39779.74
641.72	39981.03
641.86	39335.04
642.01	39613.57
642.16	39395.90
642.31	38731.18
642.45	39777.40
642.60	39143.12
642.75	39152.48
642.90	39412.28
643.04	39288.23
643.19	39173.55
643.34	39175.89
643.48	39330.36
643.63	39145.46
643.78	39189.93
643.93	38806.08
644.07	39096.31
644.22	38998.01
644.37	39016.73
644.51	38986.30
644.66	39136.10
644.81	39147.80
644.95	39377.17
645.10	38972.26
645.25	39201.63
645.39	38939.49
645.54	39166.52
645.69	38967.58
645.83	38918.43
645.98	39103.33
646.13	38773.31
646.27	38450.32
646.42	38621.18
646.57	38717.14
646.71	38679.69
646.86	38593.09
647.00	38866.94
647.15	38754.59
647.30	38705.44
647.44	38319.25
647.59	38780.34
647.74	38380.10
647.88	38469.04
648.03	38408.19
648.17	38536.92
648.32	37977.53
648.47	38588.41
648.61	38387.13
648.76	38579.05
648.90	38438.62
649.05	38185.84
649.20	38607.14
649.34	38817.78
649.49	38239.67
649.63	38050.09
649.78	38169.46
649.92	38199.88
650.07	38260.74
650.21	38216.27
650.36	38096.90
650.51	38209.25
650.65	38635.22
650.80	38499.47
650.94	38611.82
651.09	38347.34
651.23	38183.50
651.38	37851.14
651.52	37654.54
651.67	37865.19
651.81	38096.90
651.96	37762.20
652.10	37635.81
652.25	37930.72
652.39	37787.95
652.54	37773.91
652.68	37874.55
652.83	37935.40
652.97	38267.76
653.12	37340.91
653.26	37628.79
653.41	37823.06
653.55	37434.53
653.70	37422.83
653.84	37914.34
653.99	37706.03
654.13	37399.42
654.27	37942.42
654.42	37635.81
654.56	37460.27
654.71	37593.68
654.85	37048.34
655.00	37780.93
655.14	37380.70
655.29	37083.45
655.43	37471.98
655.57	37031.96
655.72	36858.76
655.86	36779.18
656.01	36727.69
656.15	37106.85
656.30	37198.13
656.44	37179.41
656.58	36982.80
656.73	36950.04
656.87	36928.97
657.01	36463.21
657.16	36685.56
657.30	36594.28
657.45	36673.85
657.59	36835.35
657.73	36292.35
657.88	36437.46
658.02	36694.92
658.16	36650.45
658.31	36968.76
658.45	36992.17
658.60	36659.81
658.74	36680.88
658.88	36711.30
659.03	36437.46
659.17	36112.13
659.31	36297.03
659.46	36404.69
659.60	36135.53
659.74	36318.09
659.89	36156.60
660.03	36002.12
660.17	36662.15
660.32	35782.11
660.46	36353.20
660.60	36421.08
660.74	36051.27
660.89	36072.34
661.03	35466.14
661.17	35618.27
661.32	35442.73
661.46	36079.36
661.60	35821.90
661.74	36020.84
661.89	35555.08
662.03	35496.56
662.17	35599.55
662.31	35459.12
662.46	35316.34
662.60	35466.14
662.74	35405.28
662.88	35419.33
663.03	34864.62
663.17	35585.50
663.31	35133.78
663.45	35405.28
663.60	34679.72
663.74	34745.25
663.88	35037.82
664.02	34909.09
664.17	34904.41
664.31	34785.04
664.45	34761.64
664.59	34939.52
664.73	34714.83
664.88	34925.47
665.02	34199.91
665.16	34581.42
665.30	34129.69
665.44	34789.72
665.59	33996.28
665.73	34354.38
665.87	34321.62
666.01	34150.76
666.15	33848.83
666.29	34225.65
666.44	34569.71
666.58	34370.77
666.72	34300.55
666.86	34061.82
667.00	34033.73
667.14	33666.27
667.28	33785.63
667.43	33935.43
667.57	33780.95
667.71	33656.90
667.85	33858.19
667.99	33593.71
668.13	33411.15
668.27	33472.00
668.41	33511.79
668.56	33216.88
668.70	33198.16
668.84	33186.46
668.98	32971.13
669.12	33230.93
669.26	33160.71
669.40	33216.88
669.54	32720.69
669.68	33345.61
669.82	32779.20
669.96	32634.09
670.10	32699.62
670.25	32552.17
670.39	32971.13
670.53	32348.54
670.67	32306.41
670.81	32708.99
670.95	32521.74
671.09	32594.30
671.23	32732.39
671.37	32807.29
671.51	31716.60
671.65	32470.25
671.79	32055.98
671.93	31952.99
672.07	31978.74
672.21	31985.76
672.35	31793.84
672.49	31938.95
672.63	31892.14
672.77	32119.17
672.91	31311.69
673.05	31955.33
673.19	31637.02
673.33	31545.74
673.47	31482.55
673.61	31030.82
673.75	31281.26
673.89	31168.91
674.03	30691.44
674.17	31314.03
674.31	31138.49
674.45	31005.08
674.59	31159.55
674.73	30845.92
674.87	30686.76
675.01	30724.21
675.15	30801.45
675.29	30771.02
675.43	30682.08
675.56	30527.61
675.70	29804.38
675.84	30078.22
675.98	29654.59
676.12	29919.07
676.26	29860.55
676.40	29645.23
676.54	29802.04
676.68	29853.53
676.82	29315.21
676.96	29177.12
677.10	29448.62
677.23	29247.33
677.37	29289.46
677.51	29460.32
677.65	29275.42
677.79	28762.84
677.93	29207.55
678.07	28849.44
678.21	28699.65
678.34	28730.08
678.48	28687.95
678.62	28657.52
678.76	28559.22
678.90	28311.12
679.04	28517.09
679.18	28561.56
679.31	28194.09
679.45	27812.59
679.59	27538.74
679.73	27351.50
679.87	27775.14
680.00	27510.66
680.14	27274.26
680.28	27372.57
680.42	27473.21
680.56	27697.90
680.70	27033.19
680.83	27124.47
680.97	27063.61
681.11	27026.17
681.25	26597.85
681.39	26845.94
681.52	26412.95
681.66	26583.80
681.80	26586.15
681.94	26405.92
682.07	26295.92
682.21	26471.46
682.35	26562.74
682.49	26300.60
682.62	26218.68
682.76	25832.49
682.90	26321.66
683.04	25668.66
683.17	26108.68
683.31	26040.80
683.45	26022.08
683.59	25579.71
683.72	25565.67
683.86	25462.69
684.00	25418.22
684.13	25158.42
684.27	25149.06
684.41	25266.08
684.55	25118.63
684.68	24613.07
684.82	24697.33
684.96	24587.33
685.09	24830.74
685.23	24505.41
685.37	24336.89
685.50	24493.71
685.64	24449.24
685.78	24451.58
685.91	24074.75
686.05	23964.75
686.19	23889.85
686.32	23836.02
686.46	23747.08
686.60	23447.49
686.73	23417.06
686.87	23482.59
687.01	23056.62
687.14	23180.67
687.28	23105.77
687.42	22827.24
687.55	22693.83
687.69	22551.06
687.82	22747.67
687.96	22885.76
688.10	22632.98
688.23	22307.65
688.37	22679.79
688.50	22342.75
688.64	22663.41
688.78	22359.14
688.91	22122.74
689.05	22253.81
689.18	21891.03
689.32	21383.13
689.46	22125.08
689.59	21841.88
689.73	22174.24
689.86	21942.52
690.00	21783.37
690.13	21865.28
690.27	21584.42
690.41	21401.86
690.54	21252.06
690.68	21525.91
690.81	20966.52
690.95	20882.26
691.08	20805.02
691.22	20819.07
691.35	20788.64
691.49	20908.01
691.62	20643.52
691.76	20409.47
691.89	20650.55
692.03	20671.61
692.16	20362.66
692.30	20339.26
692.43	20526.50
692.57	20135.63
692.70	20140.31
692.84	20079.46
692.97	19491.98
693.11	19995.20
693.24	19953.07
693.38	19810.29
693.51	19585.60
693.65	19480.28
693.78	19300.06
693.92	19283.67
694.05	19721.35
694.19	19124.52
694.32	19255.59
694.45	19281.33
694.59	19054.30
694.72	19051.96
694.86	18881.10
694.99	18679.82
695.13	18349.80
695.26	18298.31
695.39	18307.67
695.53	18272.56
695.66	18466.83
695.80	18501.93
695.93	18185.96
696.07	18286.61
696.20	18010.42
696.33	18174.26
696.47	18160.22
696.60	17802.11
696.73	17919.14
696.87	17717.86
697.00	17600.83
697.14	17631.26
697.27	17462.74
697.40	17738.92
697.54	17479.12
697.67	17226.34
697.80	17034.42
697.94	17263.79
698.07	17371.46
698.21	16952.50
698.34	17060.16
698.47	16870.58
698.61	16491.41
698.74	16681.00
698.87	16922.07
699.01	16037.35
699.14	16386.09
699.27	16322.90
699.40	16409.50
699.54	16039.69
699.67	16119.27
699.80	15936.71
699.94	15917.98
700.07	16180.12
700.20	15782.23
700.34	15819.68
700.47	15740.10
700.60	16018.63
700.73	15903.94
700.87	15709.68
701.00	15487.32
701.13	15487.32
701.26	15735.42
701.40	15662.86
701.53	15321.15
701.66	15260.29
701.79	15339.87
701.93	14803.89
702.06	14860.06
702.19	14925.60
702.32	14597.92
702.46	14546.43
702.59	14993.47
702.72	15101.14
702.85	14785.16
702.99	14403.66
703.12	14607.28
703.25	14661.12
703.38	14293.65
703.51	14427.06
703.65	14185.99
703.78	14377.91
703.91	14094.71
704.04	14225.78
704.17	14047.90
704.31	14162.58
704.44	13516.59
704.57	13586.81
704.70	13652.34
704.83	13764.69
704.96	14024.49
705.10	13769.37
705.23	13764.69
>>>>>End Processed Spectral Data<<<<<
