SpectraSuite Data File
++++++++++++++++++++++++++++++++++++
Date: Fri Oct 25 10:43:44 EDT 2013
User: price-jones
Dark Spectrum Present: No
Reference Spectrum Present: No
Number of Sampled Component Spectra: 1
Spectrometers: USB2+H05261
Integration Time (usec): 100000 (USB2+H05261)
Spectra Averaged: 1 (USB2+H05261)
Boxcar Smoothing: 0 (USB2+H05261)
Correct for Electrical Dark: No (USB2+H05261)
Strobe/Lamp Enabled: No (USB2+H05261)
Correct for Detector Non-linearity: No (USB2+H05261)
Correct for Stray Light: No (USB2+H05261)
Number of Pixels in Processed Spectrum: 2048
>>>>>Begin Processed Spectral Data<<<<<
365.73	93.62
365.92	93.62
366.12	93.62
366.32	0.00
366.52	25.75
366.72	56.17
366.91	0.00
367.11	0.00
367.31	0.00
367.51	0.00
367.70	0.00
367.90	42.13
368.10	0.00
368.30	18.72
368.49	46.81
368.69	74.90
368.89	16.38
369.09	84.26
369.28	46.81
369.48	88.94
369.68	30.43
369.87	49.15
370.07	84.26
370.27	49.15
370.47	220.01
370.66	376.83
370.86	395.55
371.06	461.09
371.25	517.26
371.45	463.43
371.65	454.06
371.84	461.09
372.04	491.51
372.24	463.43
372.44	463.43
372.63	531.30
372.83	503.22
373.03	484.49
373.22	503.22
373.42	554.71
373.62	540.66
373.81	566.41
374.01	599.18
374.21	538.32
374.40	613.22
374.60	627.26
374.79	543.00
374.99	566.41
375.19	545.34
375.38	627.26
375.58	526.62
375.78	512.58
375.97	643.65
376.17	636.63
376.37	566.41
376.56	589.82
376.76	603.86
376.95	559.39
377.15	622.58
377.35	678.76
377.54	681.10
377.74	697.48
377.93	650.67
378.13	629.60
378.33	669.39
378.52	751.31
378.72	596.84
378.91	739.61
379.11	634.29
379.31	613.22
379.50	648.33
379.70	636.63
379.89	751.31
380.09	662.37
380.28	706.84
380.48	638.97
380.68	657.69
380.87	643.65
381.07	634.29
381.26	723.23
381.46	669.39
381.65	734.93
381.85	702.16
382.04	653.01
382.24	667.05
382.43	641.31
382.63	697.48
382.83	763.01
383.02	669.39
383.22	798.12
383.41	739.61
383.61	702.16
383.80	709.18
384.00	734.93
384.19	814.51
384.39	793.44
384.58	763.01
384.78	786.42
384.97	844.93
385.17	746.63
385.36	777.06
385.56	748.97
385.75	866.00
385.95	795.78
386.14	856.64
386.34	779.40
386.53	830.89
386.72	812.17
386.92	903.45
387.11	821.53
387.31	840.25
387.50	793.44
387.70	847.27
387.89	882.38
388.09	915.15
388.28	819.19
388.48	814.51
388.67	1018.13
388.86	917.49
389.06	875.36
389.25	957.28
389.45	968.98
389.64	915.15
389.84	910.47
390.03	990.05
390.22	915.15
390.42	964.30
390.61	1039.20
390.81	954.94
391.00	1074.31
391.19	1013.45
391.39	1039.20
391.58	1015.79
391.78	1027.50
391.97	1008.77
392.16	1060.26
392.36	1128.14
392.55	1015.79
392.75	952.60
392.94	1008.77
393.13	1060.26
393.33	1034.52
393.52	1057.92
393.71	1102.39
393.91	1090.69
394.10	1095.37
394.29	1137.50
394.49	1139.84
394.68	1172.61
394.88	1238.14
395.07	1289.64
395.26	1212.40
395.46	1217.08
395.65	1177.29
395.84	1219.42
396.04	1165.59
396.23	1235.80
396.42	1100.05
396.62	1142.18
396.81	1179.63
397.00	1181.97
397.19	1320.06
397.39	1359.85
397.58	1345.81
397.77	1380.92
397.97	1409.00
398.16	1465.18
398.35	1416.02
398.55	1467.52
398.74	1472.20
398.93	1528.37
399.12	1406.66
399.32	1423.05
399.51	1352.83
399.70	1406.66
399.90	1495.60
400.09	1605.61
400.28	1533.05
400.47	1605.61
400.67	1626.67
400.86	1650.08
401.05	1696.89
401.24	1685.19
401.44	1657.10
401.63	1610.29
401.82	1715.61
402.01	1664.12
402.21	1701.57
402.40	1741.36
402.59	1771.79
402.78	1657.10
402.97	1703.91
403.17	1762.42
403.36	1792.85
403.55	1736.68
403.74	1837.32
403.93	1879.45
404.13	1832.64
404.32	1837.32
404.51	1842.00
404.70	1919.24
404.89	1947.33
405.09	1891.15
405.28	1874.77
405.47	1872.43
405.66	1961.37
405.85	2050.31
406.05	1926.26
406.24	2062.01
406.43	1956.69
406.62	2050.31
406.81	2139.25
407.00	1963.71
407.20	2097.12
407.39	2094.78
407.58	2172.02
407.77	2162.66
407.96	2162.66
408.15	2204.78
408.34	2256.28
408.54	2239.89
408.73	2265.64
408.92	2272.66
409.11	2232.87
409.30	2122.87
409.49	2312.45
409.68	2186.06
409.87	2289.04
410.07	2352.24
410.26	2303.09
410.45	2333.51
410.64	2394.37
410.83	2303.09
411.02	2457.56
411.21	2560.55
411.40	2612.04
411.59	2429.48
411.78	2506.71
411.98	2658.85
412.17	2630.76
412.36	2691.62
412.55	2766.51
412.74	2719.70
412.93	2717.36
413.12	2682.25
413.31	2822.69
413.50	2740.77
413.69	2761.83
413.88	2913.97
414.07	2803.96
414.26	3028.65
414.45	2935.03
414.64	2956.10
414.83	2932.69
415.02	2988.86
415.22	3091.85
415.41	3136.32
415.60	3136.32
415.79	3171.43
415.98	3164.40
416.17	3204.19
416.36	3253.34
416.55	3108.23
416.74	3300.16
416.93	3281.43
417.12	3199.51
417.31	3272.07
417.50	3353.99
417.69	3475.70
417.88	3405.48
418.07	3185.47
418.26	3426.54
418.45	3428.88
418.64	3592.72
418.83	3545.91
419.02	3566.98
419.21	3508.46
419.39	3566.98
419.58	3517.83
419.77	3412.50
419.96	3552.93
420.15	3676.98
420.34	3634.85
420.53	3838.48
420.72	3735.50
420.91	3906.35
421.10	3747.20
421.29	3957.85
421.48	3716.77
421.67	3857.20
421.86	3691.02
422.05	3854.86
422.24	3714.43
422.43	3777.62
422.61	3733.15
422.80	3840.82
422.99	3976.57
423.18	3936.78
423.37	3840.82
423.56	3967.21
423.75	3915.72
423.94	3913.38
424.13	3667.62
424.32	3698.05
424.50	3934.44
424.69	3974.23
424.88	3908.69
425.07	3882.95
425.26	3978.91
425.45	3850.18
425.64	3932.10
425.83	3887.63
426.01	3925.08
426.20	4070.19
426.39	4037.42
426.58	3889.97
426.77	3995.29
426.96	3932.10
427.15	4035.08
427.33	4028.06
427.52	4016.36
427.71	4102.96
427.90	4149.77
428.09	4126.36
428.28	4107.64
428.46	4105.30
428.65	4180.20
428.84	4194.24
429.03	4131.05
429.22	4189.56
429.40	4037.42
429.59	3997.64
429.78	3983.59
429.97	3976.57
430.16	3983.59
430.34	4032.74
430.53	4292.54
430.72	4315.95
430.91	4063.17
431.10	4332.33
431.28	4423.61
431.47	4484.47
431.66	4718.52
431.85	4505.53
432.03	4479.79
432.22	4648.30
432.41	4451.70
432.60	4622.56
432.79	4711.50
432.97	4709.16
433.16	4627.24
433.35	4451.70
433.54	4692.77
433.72	4718.52
433.91	4643.62
434.10	4662.35
434.28	4858.95
434.47	4940.87
434.66	4830.87
434.85	4947.89
435.03	4821.50
435.22	4870.65
435.41	5118.75
435.59	4933.85
435.78	5011.09
435.97	5022.79
436.16	5055.56
436.34	5135.14
436.53	5135.14
436.72	5219.39
436.90	5095.35
437.09	5043.85
437.28	5221.74
437.46	5043.85
437.65	5102.37
437.84	5270.89
438.02	5102.37
438.21	5261.52
438.40	5036.83
438.58	5392.59
438.77	5380.89
438.96	5483.88
439.14	5481.53
439.33	5446.43
439.52	5575.16
439.70	5579.84
439.89	5668.78
440.08	5661.76
440.26	5645.37
440.45	5533.03
440.63	5928.58
440.82	5797.51
441.01	5877.09
441.19	5844.32
441.38	6024.54
441.57	6242.21
441.75	6139.23
441.94	6230.51
442.12	6382.64
442.31	6314.77
442.50	6265.61
442.68	6232.85
442.87	6148.59
443.05	6399.02
443.24	6567.54
443.43	6403.71
443.61	6370.94
443.80	6569.88
443.98	6282.00
444.17	6286.68
444.35	6537.12
444.54	6408.39
444.73	6457.54
444.91	6340.51
445.10	6478.60
445.28	6490.31
445.47	6340.51
445.65	6429.45
445.84	6417.75
446.02	6427.11
446.21	6567.54
446.39	6565.20
446.58	6621.38
446.77	6715.00
446.95	6450.52
447.14	6642.44
447.32	6747.76
447.51	6715.00
447.69	6698.61
447.88	6544.14
448.06	6534.78
448.25	6651.80
448.43	6782.87
448.62	6457.54
448.80	6672.87
448.99	6738.40
449.17	6773.51
449.36	6743.08
449.54	6775.85
449.73	6939.69
449.91	7021.61
450.10	7143.32
450.28	7265.02
450.46	7183.10
450.65	7187.79
450.83	7028.63
451.02	7180.76
451.20	7302.47
451.39	7070.76
451.57	7140.97
451.76	7260.34
451.94	7204.17
452.13	7206.51
452.31	7213.53
452.49	7042.67
452.68	7131.61
452.86	7007.56
453.05	7166.72
453.23	7225.23
453.42	7396.09
453.60	7403.11
453.78	7431.20
453.97	7225.23
454.15	7480.35
454.34	7372.69
454.52	7431.20
454.70	7421.84
454.89	7492.05
455.07	7581.00
455.26	7499.08
455.44	7686.32
455.62	7793.98
455.81	7747.17
455.99	7714.41
456.17	7602.06
456.36	7655.89
456.54	7950.80
456.73	7967.18
456.91	7997.61
457.09	8166.13
457.28	8070.17
457.46	7918.03
457.64	8030.38
457.83	7889.95
458.01	7896.97
458.19	8149.75
458.38	8124.00
458.56	8285.50
458.74	8079.53
458.93	8140.38
459.11	8318.26
459.29	8212.94
459.48	8168.47
459.66	8264.43
459.84	8142.72
460.03	8479.76
460.21	8491.46
460.39	8465.72
460.57	8430.61
460.76	8692.75
460.94	8482.10
461.12	8610.83
461.31	8507.85
461.49	8489.12
461.67	8498.49
461.85	8915.10
462.04	8762.97
462.22	9256.82
462.40	8966.59
462.59	8858.93
462.77	8739.56
462.95	9100.00
463.13	8720.84
463.32	9053.19
463.50	8744.24
463.68	9095.32
463.86	8755.94
464.05	8973.61
464.23	8926.80
464.41	8945.53
464.59	8762.97
464.78	9158.52
464.96	8997.02
465.14	9092.98
465.32	9303.63
465.50	9305.97
465.69	9235.75
465.87	9242.78
466.05	9036.81
466.23	9163.20
466.41	9029.79
466.60	9397.25
466.78	9069.58
466.96	9256.82
467.14	9149.15
467.32	9298.95
467.51	9289.59
467.69	9249.80
467.87	9186.60
468.05	9441.72
468.23	9355.12
468.41	9497.89
468.60	9348.10
468.78	9596.20
468.96	9544.70
469.14	9750.67
469.32	9584.49
469.50	9664.07
469.69	9750.67
469.87	9544.70
470.05	9582.15
470.23	9769.40
470.41	9444.06
470.59	9877.06
470.77	9689.82
470.95	9795.14
471.14	9970.68
471.32	9912.17
471.50	10363.89
471.68	10251.55
471.86	10214.10
472.04	10178.99
472.22	10251.55
472.40	10239.84
472.58	10417.72
472.77	10480.92
472.95	10588.58
473.13	10731.36
473.31	10265.59
473.49	10408.36
473.67	10628.37
473.85	10700.93
474.03	10794.55
474.21	10663.48
474.39	10965.41
474.57	10897.53
474.75	11021.58
474.93	11094.14
475.12	10855.40
475.30	11257.98
475.48	11049.67
475.66	11325.85
475.84	11094.14
476.02	11330.53
476.20	11424.15
476.38	11604.38
476.56	11728.42
476.74	11609.06
476.92	11871.20
477.10	11779.92
477.28	12020.99
477.46	11770.55
477.64	12294.83
477.82	12091.21
478.00	12622.51
478.18	12397.82
478.36	12409.52
478.54	12711.45
478.72	12936.14
478.90	12823.80
479.08	12959.55
479.26	13130.41
479.44	13144.45
479.62	13039.12
479.80	13022.74
479.98	13256.79
480.16	13465.10
480.34	13319.99
480.52	13624.26
480.70	13591.49
480.88	13561.06
481.06	13841.93
481.24	13767.03
481.41	14127.47
481.59	14356.85
481.77	14176.62
481.95	14052.58
482.13	14331.10
482.31	14420.04
482.49	14724.31
482.67	14693.88
482.85	14736.01
483.03	15377.32
483.21	15372.64
483.39	15583.29
483.57	15281.36
483.74	15384.34
483.92	15770.53
484.10	15419.45
484.28	15456.90
484.46	15927.35
484.64	16184.80
484.82	16072.46
485.00	16154.38
485.18	16142.67
485.35	16304.17
485.53	15843.09
485.71	15999.90
485.89	16456.31
486.07	16334.60
486.25	16716.11
486.43	16772.28
486.61	16840.15
486.78	17064.85
486.96	16926.75
487.14	17591.47
487.32	17500.19
487.50	17734.24
487.68	17998.72
487.85	18609.60
488.03	18284.26
488.21	18515.98
488.39	18043.19
488.57	18644.71
488.75	18743.01
488.92	18892.80
489.10	19145.58
489.28	19122.18
489.46	19367.93
489.64	19775.19
489.81	19964.77
489.99	19611.35
490.17	20088.82
490.35	20252.66
490.53	20077.12
490.70	20414.15
490.88	20177.76
491.06	20503.09
491.24	20472.67
491.41	20547.56
491.59	20769.91
491.77	20851.83
491.95	21123.33
492.13	21156.10
492.30	21682.72
492.48	21535.27
492.66	21759.96
492.84	21605.49
493.01	21811.45
493.19	21914.44
493.37	22167.21
493.54	22256.15
493.72	22059.55
493.90	22239.77
494.08	22649.36
494.25	22848.31
494.43	23246.20
494.61	23386.63
494.79	23477.91
494.96	23707.29
495.14	23388.97
495.32	23578.56
495.49	23489.62
495.67	23662.82
495.85	23969.43
496.02	24109.86
496.20	24453.92
496.38	24285.40
496.55	24194.12
496.73	24992.24
496.91	24863.51
497.09	24952.45
497.26	24987.56
497.44	24418.81
497.62	25167.78
497.79	25436.94
497.97	24847.13
498.14	25207.57
498.32	25378.43
498.50	25315.23
498.67	25720.15
498.85	25493.12
499.03	26167.19
499.20	26279.54
499.38	26216.34
499.56	26614.23
499.73	26476.14
499.91	26260.81
500.08	26469.12
500.26	26497.20
500.44	26370.82
500.61	26368.48
500.79	26424.65
500.97	26501.89
501.14	27276.60
501.32	26925.52
501.49	27033.19
501.67	26827.22
501.84	27461.51
502.02	27295.33
502.20	27447.46
502.37	27402.99
502.55	27498.95
502.72	27721.30
502.90	28020.89
503.07	27894.50
503.25	27854.72
503.43	27761.09
503.60	27906.21
503.78	27990.47
503.95	28051.32
504.13	28301.76
504.30	28802.63
504.48	28355.59
504.65	28416.44
504.83	28905.62
505.01	28685.61
505.18	29057.75
505.36	29376.06
505.53	29364.36
505.71	29474.37
505.88	29656.93
506.06	29013.28
506.23	29546.92
506.41	29418.19
506.58	29481.39
506.76	29640.54
506.93	29706.08
507.11	30246.74
507.28	29656.93
507.46	29834.81
507.63	29535.22
507.81	30000.99
507.98	29965.88
508.16	29970.56
508.33	30628.25
508.50	30572.08
508.68	30567.40
508.85	31098.70
509.03	31297.64
509.20	31033.16
509.38	31138.49
509.55	30881.03
509.73	31037.84
509.90	31211.04
510.08	31012.10
510.25	31227.43
510.42	31672.13
510.60	31433.39
510.77	31730.64
510.95	31985.76
511.12	31475.52
511.30	31882.78
511.47	32402.38
511.64	31976.40
511.82	32423.44
511.99	32018.53
512.17	32299.39
512.34	32077.04
512.51	32219.81
512.69	32900.91
512.86	32877.51
513.04	32507.70
513.21	32561.53
513.38	32566.21
513.56	32741.75
513.73	32194.07
513.90	32851.76
514.08	32687.92
514.25	32980.49
514.43	32931.34
514.60	32746.44
514.77	33200.50
514.95	33582.01
515.12	33528.17
515.29	33493.07
515.47	34103.95
515.64	33722.44
515.81	33860.53
515.99	33675.63
516.16	33383.06
516.33	33303.48
516.51	33958.83
516.68	33198.16
516.85	33425.19
517.03	33546.90
517.20	33839.47
517.37	34279.49
517.54	33944.79
517.72	33759.89
517.89	33893.30
518.06	33682.65
518.24	33804.36
518.41	34117.99
518.58	34171.82
518.75	34508.86
518.93	34277.15
519.10	34609.50
519.27	34501.84
519.45	34747.59
519.62	35201.66
519.79	35124.42
519.96	34991.01
520.14	35159.53
520.31	35049.52
520.48	35175.91
520.65	35196.98
520.83	35800.83
521.00	35847.64
521.17	35531.67
521.34	35838.28
521.52	36360.22
521.69	35920.20
521.86	36364.90
522.03	35864.03
522.20	36233.83
522.38	36156.60
522.55	36360.22
522.72	35997.44
522.89	36151.91
523.07	36477.25
523.24	36491.29
523.41	37062.38
523.58	36371.92
523.75	37041.32
523.92	36989.83
524.10	36938.33
524.27	37209.84
524.44	37242.60
524.61	37221.54
524.78	36844.71
524.96	36921.95
525.13	37425.17
525.30	37392.40
525.47	37729.44
525.64	37294.10
525.81	37361.97
525.98	37153.66
526.16	36889.18
526.33	37109.19
526.50	37024.93
526.67	36811.95
526.84	37340.91
527.01	37617.09
527.18	37635.81
527.36	37909.66
527.53	37881.57
527.70	38389.47
527.87	38087.54
528.04	38218.61
528.21	38340.32
528.38	38354.36
528.55	38572.03
528.72	38394.15
528.89	38920.77
529.07	38052.43
529.24	38752.25
529.41	38883.32
529.58	38707.78
529.75	38604.80
529.92	38609.48
530.09	38714.80
530.26	38983.96
530.43	39147.80
530.60	38813.10
530.77	38752.25
530.94	39627.61
531.11	39063.54
531.28	39768.04
531.46	39112.69
531.63	39468.45
531.80	38710.12
531.97	39145.46
532.14	39288.23
532.31	39075.24
532.48	39414.62
532.65	39484.84
532.82	39243.76
532.99	39716.55
533.16	39566.76
533.33	39749.32
533.50	39997.41
533.67	39810.17
533.84	39510.58
534.01	39697.83
534.18	39798.47
534.35	40624.68
534.52	40025.50
534.69	40222.11
534.86	40355.52
535.03	40481.91
535.20	40048.91
535.37	40931.29
535.54	40435.10
535.71	40535.74
535.88	40257.21
536.05	40591.91
536.22	40914.90
536.38	40610.64
536.55	40603.61
536.72	40683.19
536.89	40680.85
537.06	40484.25
537.23	40392.97
537.40	40755.75
537.57	40790.86
537.74	40786.18
537.91	41008.53
538.08	41177.04
538.25	41020.23
538.42	41053.00
538.59	41720.05
538.75	40957.03
538.92	40982.78
539.09	41205.13
539.26	40980.44
539.43	41155.98
539.60	41015.55
539.77	41057.68
539.94	40903.20
540.11	41223.86
540.28	41387.69
540.44	41556.21
540.61	41202.79
540.78	41118.53
540.95	41574.94
541.12	41427.48
541.29	41600.68
541.46	41572.60
541.62	41748.14
541.79	41982.19
541.96	41277.69
542.13	41565.57
542.30	41223.86
542.47	41823.03
542.63	42366.04
542.80	42305.18
542.97	42562.64
543.14	42550.94
543.31	42246.67
543.48	42326.25
543.64	42934.79
543.81	42440.93
543.98	42330.93
544.15	42408.17
544.32	42876.27
544.48	42988.62
544.65	42766.27
544.82	42600.09
544.99	42476.04
545.16	42356.67
545.32	42422.21
545.49	43030.75
545.66	43086.92
545.83	42775.63
546.00	43241.40
546.16	42792.01
546.33	43049.47
546.50	42738.18
546.67	43164.16
546.83	42480.72
547.00	42932.45
547.17	43180.54
547.34	42864.57
547.50	43217.99
547.67	43707.16
547.84	43124.37
548.00	43732.91
548.17	43538.65
548.34	43587.80
548.51	43896.75
548.67	43536.30
548.84	43313.95
549.01	43519.92
549.18	43250.76
549.34	43379.49
549.51	43732.91
549.68	43971.64
549.84	43782.06
550.01	43761.00
550.18	43402.89
550.34	43487.15
550.51	43445.02
550.68	43817.17
550.84	43370.13
551.01	44020.80
551.18	43789.08
551.34	43840.57
551.51	44481.88
551.68	44355.49
551.84	43957.60
552.01	43950.58
552.18	43859.30
552.34	43585.46
552.51	44416.35
552.68	44144.84
552.84	44545.08
553.01	44463.16
553.18	44051.22
553.34	44273.57
553.51	44144.84
553.67	44769.77
553.84	44905.52
554.01	44994.46
554.17	44612.95
554.34	44285.28
554.51	44650.40
554.67	44954.67
554.84	45148.93
555.00	44552.10
555.17	44376.56
555.33	44966.37
555.50	44818.92
555.67	44594.23
555.83	44694.87
556.00	44729.98
556.16	45092.76
556.33	44868.07
556.50	44715.93
556.66	44758.06
556.83	44399.96
556.99	44638.70
557.16	44849.35
557.32	44835.30
557.49	44947.65
557.65	44428.05
557.82	44711.25
557.98	44886.79
558.15	44762.75
558.32	44786.15
558.48	44189.31
558.65	44444.43
558.81	45223.83
558.98	44556.78
559.14	45184.04
559.31	44999.14
559.47	44982.76
559.64	45432.14
559.80	45200.43
559.97	44729.98
560.13	44495.92
560.30	44917.22
560.46	45478.95
560.63	45551.51
560.79	45450.86
560.96	45298.73
561.12	45235.53
561.29	45081.06
561.45	45247.24
561.61	45406.39
561.78	45219.15
561.94	45055.31
562.11	45340.86
562.27	45057.65
562.44	45357.24
562.60	45918.97
562.77	45240.21
562.93	45394.69
563.10	45581.93
563.26	45272.98
563.42	45382.99
563.59	45624.06
563.75	45654.49
563.92	45392.35
564.08	45642.79
564.24	45509.38
564.41	45031.91
564.57	45736.41
564.74	45413.41
564.90	45504.70
565.07	45682.58
565.23	45492.99
565.39	45312.77
565.56	45441.50
565.72	45495.33
565.88	45317.45
566.05	45212.13
566.21	45251.92
566.38	45420.44
566.54	45532.78
566.70	45984.51
566.87	46148.34
567.03	45268.30
567.19	45986.85
567.36	45865.14
567.52	45691.94
567.68	45612.36
567.85	45553.85
568.01	45923.65
568.17	45766.84
568.34	45567.89
568.50	45546.82
568.66	45291.71
568.83	45689.60
568.99	45375.97
569.15	45757.47
569.32	45280.00
569.48	45734.07
569.64	45794.92
569.81	45830.03
569.97	45607.68
570.13	45799.60
570.30	45715.34
570.46	45556.19
570.62	45244.90
570.78	45483.63
570.95	45205.11
571.11	45668.53
571.27	45640.45
571.43	45745.77
571.60	45844.07
571.76	45944.72
571.92	45975.14
572.09	45991.53
572.25	45787.90
572.41	45638.11
572.57	45741.09
572.74	46244.30
572.90	45771.52
573.06	45881.52
573.22	45832.37
573.38	45488.31
573.55	45717.68
573.71	46066.42
573.87	46000.89
574.03	45853.44
574.20	46099.19
574.36	45806.62
574.52	45713.00
574.68	45989.19
574.84	45577.25
575.01	45439.16
575.17	45780.88
575.33	45558.53
575.49	45972.80
575.65	46183.45
575.82	46134.30
575.98	45923.65
576.14	46124.94
576.30	46309.84
576.46	45925.99
576.62	45198.09
576.79	45989.19
576.95	45855.78
577.11	45930.67
577.27	46115.58
577.43	45752.79
577.59	45539.80
577.75	45780.88
577.92	45715.34
578.08	45752.79
578.24	45811.31
578.40	45642.79
578.56	45895.56
578.72	46005.57
578.88	46225.58
579.04	45876.84
579.21	45879.18
579.37	45970.46
579.53	45879.18
579.69	45771.52
579.85	45705.98
580.01	46054.72
580.17	45771.52
580.33	45713.00
580.49	46298.14
580.65	45986.85
580.82	46106.21
580.98	45909.61
581.14	45839.39
581.30	46483.04
581.46	46223.24
581.62	46337.93
581.78	46211.54
581.94	46689.01
582.10	45851.09
582.26	46279.41
582.42	46150.68
582.58	45977.48
582.74	45907.27
582.90	46391.76
583.06	46225.58
583.22	46087.49
583.38	46410.48
583.54	46167.07
583.70	46686.67
583.86	46017.27
584.02	45830.03
584.18	46134.30
584.34	45855.78
584.50	45904.93
584.66	45954.08
584.82	46157.70
584.98	46204.52
585.14	45827.69
585.30	46110.89
585.46	46033.66
585.62	45900.25
585.78	45827.69
585.94	45874.50
586.10	45640.45
586.26	45984.51
586.42	46216.22
586.58	45956.42
586.74	46120.26
586.90	45841.73
587.06	46277.07
587.22	45813.65
587.38	45998.55
587.54	45883.86
587.70	46075.79
587.86	45738.75
588.02	46003.23
588.18	46300.48
588.34	45963.44
588.49	45663.85
588.65	45595.98
588.81	45471.93
588.97	45883.86
589.13	45633.42
589.29	45916.63
589.45	45488.31
589.61	46103.87
589.77	46141.32
589.93	46632.83
590.08	46298.14
590.24	46677.30
590.40	46286.43
590.56	46394.10
590.72	46564.96
590.88	45808.96
591.04	46209.20
591.20	46256.01
591.35	46864.55
591.51	46557.94
591.67	46366.01
591.83	46087.49
591.99	46071.10
592.15	45935.35
592.31	46192.81
592.46	46403.46
592.62	46410.48
592.78	46354.31
592.94	46461.97
593.10	46494.74
593.26	46057.06
593.41	46176.43
593.57	46330.90
593.73	46057.06
593.89	46169.41
594.05	46300.48
594.20	46431.55
594.36	46003.23
594.52	45890.88
594.68	46150.68
594.84	45956.42
594.99	46169.41
595.15	46155.36
595.31	46469.00
595.47	46464.32
595.62	46286.43
595.78	46361.33
595.94	46167.07
596.10	46644.54
596.25	46583.68
596.41	46274.73
596.57	45663.85
596.73	46169.41
596.88	46157.70
597.04	46265.37
597.20	45876.84
597.36	46424.53
597.51	46546.23
597.67	46426.87
597.83	45867.48
597.99	46429.21
598.14	45925.99
598.30	45907.27
598.46	45996.21
598.61	46333.24
598.77	46232.60
598.93	46429.21
599.09	46476.02
599.24	46401.12
599.40	46017.27
599.56	46419.84
599.71	46401.12
599.87	46307.50
600.03	46691.35
600.18	46038.34
600.34	45734.07
600.50	46202.18
600.65	46274.73
600.81	46244.30
600.97	46204.52
601.12	46571.98
601.28	46195.15
601.44	46230.26
601.59	45874.50
601.75	46103.87
601.91	46094.51
602.06	46040.68
602.22	46092.17
602.37	46279.41
602.53	46408.14
602.69	46497.08
602.84	46138.98
603.00	46256.01
603.16	46487.72
603.31	46061.74
603.47	46333.24
603.62	46176.43
603.78	46571.98
603.94	46160.05
604.09	46138.98
604.25	46106.21
604.40	45762.15
604.56	46227.92
604.71	46445.59
604.87	46272.39
605.03	46192.81
605.18	45872.16
605.34	46190.47
605.49	45600.66
605.65	46017.27
605.80	45921.31
605.96	46490.06
606.12	45923.65
606.27	46305.16
606.43	45914.29
606.58	46543.89
606.74	45839.39
606.89	46347.29
607.05	46092.17
607.20	46387.08
607.36	45855.78
607.51	46597.73
607.67	46134.30
607.82	45996.21
607.98	45806.62
608.13	45439.16
608.29	45687.26
608.44	45497.67
608.60	45350.22
608.75	45844.07
608.91	45727.05
609.06	45886.20
609.22	46143.66
609.37	45874.50
609.53	45928.33
609.68	46134.30
609.84	45872.16
609.99	45322.13
610.15	45617.04
610.30	45815.99
610.46	45134.89
610.61	45584.27
610.76	46019.61
610.92	45698.96
611.07	46047.70
611.23	45743.43
611.38	45769.18
611.54	45443.84
611.69	45347.88
611.84	45322.13
612.00	44989.78
612.15	45099.78
612.31	45074.04
612.46	45467.25
612.62	45296.39
612.77	45626.40
612.92	45191.06
613.08	45102.12
613.23	45502.35
613.39	45141.91
613.54	44825.94
613.69	45062.33
613.85	44994.46
614.00	45375.97
614.15	44919.56
614.31	45134.89
614.46	45778.54
614.62	45193.40
614.77	45244.90
614.92	45045.95
615.08	44861.05
615.23	44957.01
615.38	45027.23
615.54	44678.49
615.69	44687.85
615.84	44708.91
616.00	45050.63
616.15	44807.22
616.30	45305.75
616.46	44575.50
616.61	44591.89
616.76	44802.53
616.92	44652.74
617.07	44561.46
617.22	44722.96
617.37	44594.23
617.53	44872.75
617.68	44842.32
617.83	44680.83
617.99	44980.42
618.14	44549.76
618.29	44673.81
618.45	43913.13
618.60	44257.19
618.75	43828.87
618.90	44088.67
619.06	44559.12
619.21	44006.75
619.36	44596.57
619.51	44280.60
619.67	44184.63
619.82	44172.93
619.97	44233.78
620.12	43739.93
620.28	43775.04
620.43	44126.12
620.58	44463.16
620.73	44374.22
620.89	43693.12
621.04	43920.15
621.19	44247.83
621.34	44184.63
621.49	43938.88
621.65	43824.19
621.80	44465.50
621.95	44067.61
622.10	43976.33
622.25	44086.33
622.41	43426.30
622.56	43849.94
622.71	44030.16
622.86	43601.84
623.01	43725.89
623.16	44044.20
623.32	43686.10
623.47	43686.10
623.62	43973.98
623.77	43299.91
623.92	43690.78
624.07	43077.56
624.23	43098.62
624.38	43475.45
624.53	43423.96
624.68	43264.80
624.83	43414.60
624.98	43201.61
625.13	42829.46
625.29	43077.56
625.44	43150.12
625.59	42923.08
625.74	42742.86
625.89	42796.70
626.04	42822.44
626.19	43047.13
626.34	42890.32
626.49	42944.15
626.65	43253.10
626.80	43234.38
626.95	42962.87
627.10	42698.39
627.25	42588.39
627.40	42572.00
627.55	42494.77
627.70	42422.21
627.85	42473.70
628.00	42990.96
628.15	42625.84
628.30	42707.76
628.45	42595.41
628.60	42902.02
628.76	42630.52
628.91	42351.99
629.06	42799.04
629.21	42408.17
629.36	42082.83
629.51	42560.30
629.66	42822.44
629.81	42597.75
629.96	42061.77
630.11	42541.58
630.26	42625.84
630.41	42401.14
630.56	42366.04
630.71	42237.31
630.86	42555.62
631.01	42110.92
631.16	42089.85
631.31	41745.80
631.46	41654.51
631.61	42220.92
631.76	41633.45
631.91	41769.20
632.06	42117.94
632.21	42305.18
632.36	42288.80
632.51	41816.01
632.66	41991.55
632.81	41460.25
632.96	41797.29
633.10	41930.70
633.25	41577.28
633.40	41542.17
633.55	41808.99
633.70	41628.77
633.85	41373.65
634.00	41797.29
634.15	41455.57
634.30	41448.55
634.45	41347.90
634.60	41413.44
634.75	40926.61
634.90	41785.58
635.05	41708.35
635.19	41574.94
635.34	41607.70
635.49	41186.41
635.64	41181.73
635.79	41200.45
635.94	41202.79
636.09	41069.38
636.24	41528.13
636.39	40751.07
636.53	41523.44
636.68	40517.01
636.83	41247.26
636.98	41102.15
637.13	41022.57
637.28	41617.07
637.43	41656.85
637.57	41184.07
637.72	40980.44
637.87	41045.97
638.02	41263.64
638.17	40989.80
638.32	41015.55
638.46	41060.02
638.61	40678.51
638.76	40292.32
638.91	41174.70
639.06	41017.89
639.20	40907.88
639.35	41221.52
639.50	40903.20
639.65	41228.54
639.80	40306.37
639.94	40247.85
640.09	40428.07
640.24	40273.60
640.39	40259.55
640.54	40126.14
640.68	40612.98
640.83	40325.09
640.98	40051.25
641.13	40208.06
641.27	40144.87
641.42	40261.90
641.57	40088.70
641.72	40247.85
641.86	39999.76
642.01	40165.93
642.16	39995.07
642.31	39665.06
642.45	40151.89
642.60	40184.66
642.75	39952.94
642.90	40065.29
643.04	40257.21
643.19	40135.51
643.34	39938.90
643.48	40079.33
643.63	40137.85
643.78	39761.02
643.93	39835.92
644.07	39796.13
644.22	39704.85
644.37	39379.51
644.51	39761.02
644.66	39203.97
644.81	40009.12
644.95	39679.10
645.10	39880.39
645.25	39952.94
645.39	39800.81
645.54	39606.55
645.69	39746.98
645.83	39082.27
645.98	39189.93
646.13	39615.91
646.27	39103.33
646.42	38759.27
646.57	39278.87
646.71	38986.30
646.86	39337.38
647.00	39564.42
647.15	39000.35
647.30	38948.85
647.44	38939.49
647.59	39269.51
647.74	38756.93
647.88	39033.11
648.03	39098.65
648.17	39246.10
648.32	38873.96
648.47	38518.20
648.61	38871.62
648.76	39276.53
648.90	38684.37
649.05	39222.70
649.20	39154.82
649.34	38869.28
649.49	38607.14
649.63	38710.12
649.78	38815.44
649.92	38916.09
650.07	39159.50
650.21	38501.81
650.36	39049.50
650.51	39321.00
650.65	39587.82
650.80	39576.12
650.94	38431.60
651.09	38728.84
651.23	38349.68
651.38	38511.17
651.52	38239.67
651.67	38066.47
651.81	38504.15
651.96	38651.61
652.10	38548.62
652.25	38616.50
652.39	38782.68
652.54	38705.44
652.68	38707.78
652.83	38295.85
652.97	38199.88
653.12	38707.78
653.26	37998.60
653.41	38066.47
653.55	38143.71
653.70	38244.35
653.84	38087.54
653.99	38050.09
654.13	38103.92
654.27	37986.89
654.42	37944.76
654.56	38026.68
654.71	38234.99
654.85	38293.50
655.00	37816.04
655.14	37942.42
655.29	37720.07
655.43	37750.50
655.57	37249.63
655.72	37226.22
655.86	37560.92
656.01	37200.47
656.15	37160.69
656.30	37277.71
656.44	37366.65
656.58	37638.15
656.73	37617.09
656.87	37439.21
657.01	37095.15
657.16	36994.51
657.30	36568.53
657.45	36577.89
657.59	37214.52
657.73	37361.97
657.88	37514.11
658.02	37406.44
658.16	37364.31
658.31	37233.24
658.45	37453.25
658.60	37046.00
658.74	36821.31
658.88	36926.63
659.03	36825.99
659.17	36928.97
659.31	36924.29
659.46	36446.82
659.60	36662.15
659.74	36900.89
659.89	36662.15
660.03	36968.76
660.17	36823.65
660.32	36821.31
660.46	36699.60
660.60	36552.15
660.74	36479.59
660.89	36339.16
661.03	36472.57
661.17	36046.59
661.32	36257.24
661.46	36421.08
661.60	36315.75
661.74	35739.98
661.89	36177.66
662.03	36268.94
662.17	35819.56
662.31	35824.24
662.46	36374.27
662.60	36072.34
662.74	36084.04
662.88	35763.39
663.03	35517.63
663.17	35931.90
663.31	35566.78
663.45	35512.95
663.60	35515.29
663.74	35379.54
663.88	35325.71
664.02	35559.76
664.17	35461.46
664.31	34946.54
664.45	34944.20
664.59	35122.08
664.73	35517.63
664.88	35246.13
665.02	34815.47
665.16	34876.32
665.30	34946.54
665.44	34904.41
665.59	34675.04
665.73	34909.09
665.87	34113.31
666.01	34759.30
666.15	34934.84
666.29	34543.97
666.44	34948.88
666.58	34555.67
666.72	34927.81
666.86	34256.08
667.00	34504.18
667.14	34117.99
667.28	34316.93
667.43	34054.79
667.57	34529.92
667.71	34120.33
667.85	33947.13
667.99	34295.87
668.13	33818.40
668.27	34349.70
668.41	34005.64
668.56	33748.18
668.70	33897.98
668.84	33472.00
668.98	32903.25
669.12	33390.08
669.26	33708.40
669.40	33862.87
669.54	33280.08
669.68	33270.72
669.82	32975.81
669.96	32879.85
670.10	32854.10
670.25	32687.92
670.39	33060.07
670.53	32669.20
670.67	32601.32
670.81	33062.41
670.95	32947.72
671.09	32767.50
671.23	32470.25
671.37	32463.23
671.51	32451.53
671.65	32079.38
671.79	32187.05
671.93	32353.23
672.07	32144.92
672.21	32493.66
672.35	32285.35
672.49	32250.24
672.63	32432.80
672.77	31929.59
672.91	31835.97
673.05	32074.70
673.19	31882.78
673.33	31683.83
673.47	31426.37
673.61	31409.99
673.75	31527.02
673.89	31468.50
674.03	31161.89
674.17	31255.51
674.31	31419.35
674.45	31473.18
674.59	31379.56
674.73	31496.59
674.87	31407.65
675.01	30740.60
675.15	31065.93
675.29	30670.38
675.43	30576.76
675.56	30890.39
675.70	30382.49
675.84	30579.10
675.98	29495.43
676.12	30192.91
676.26	30380.15
676.40	30625.91
676.54	30700.81
676.68	30150.78
676.82	29968.22
676.96	29947.15
677.10	30017.37
677.23	29727.14
677.37	29560.97
677.51	30125.04
677.65	29336.27
677.79	28992.22
677.93	29200.52
678.07	29020.30
678.21	28797.95
678.34	28687.95
678.48	28545.17
678.62	28833.06
678.76	28294.74
678.90	28435.17
679.04	28154.30
679.18	28439.85
679.31	27796.20
679.45	28212.82
679.59	28128.56
679.73	28491.34
679.87	28123.88
680.00	27711.94
680.14	27377.25
680.28	27821.95
680.42	27323.41
680.56	27234.47
680.70	27449.80
680.83	27667.47
680.97	27339.80
681.11	27255.54
681.25	27026.17
681.39	26787.43
681.52	27019.14
681.66	27248.52
681.80	26962.97
681.94	26911.48
682.07	26527.63
682.21	26565.08
682.35	26483.16
682.49	26710.19
682.62	26061.87
682.76	26085.27
682.90	26230.38
683.04	26015.05
683.17	25844.20
683.31	26010.37
683.45	25816.11
683.59	25656.95
683.72	25511.84
683.86	25542.27
684.00	25944.84
684.13	25301.19
684.27	25296.51
684.41	25195.87
684.55	24950.11
684.68	24973.52
684.82	25575.03
684.96	24987.56
685.09	24652.86
685.23	24741.80
685.37	25015.65
685.50	24648.18
685.64	24662.22
685.78	24470.30
685.91	24617.75
686.05	24119.22
686.19	23733.03
686.32	23758.78
686.46	23220.45
686.60	23140.88
686.73	23040.23
686.87	23187.69
687.01	23288.33
687.14	22679.79
687.28	22944.27
687.42	23360.89
687.55	23058.96
687.69	23274.29
687.82	23246.20
687.96	22808.52
688.10	22457.44
688.23	22897.46
688.37	22515.95
688.50	22700.86
688.64	22436.38
688.78	22438.72
688.91	22251.47
689.05	22490.21
689.18	22286.58
689.32	21785.71
689.46	21940.18
689.59	22281.90
689.73	22232.75
689.86	21565.70
690.00	21628.89
690.13	21954.22
690.27	21387.82
690.41	21296.53
690.54	21219.30
690.68	21067.16
690.81	21312.92
690.95	21261.43
691.08	20943.11
691.22	21123.33
691.35	21083.55
691.49	20812.04
691.62	20517.14
691.76	20442.24
691.89	20727.78
692.03	20748.85
692.16	20734.81
692.30	20233.93
692.43	20152.01
692.57	20222.23
692.70	20421.17
692.84	20063.07
692.97	19695.61
693.11	19873.49
693.24	19679.22
693.38	19665.18
693.51	19606.67
693.65	19674.54
693.78	19433.47
693.92	19246.23
694.05	19431.13
694.19	19381.98
694.32	19470.92
694.45	19473.26
694.59	19178.35
694.72	19087.07
694.86	19028.56
694.99	18813.23
695.13	18625.98
695.26	18806.20
695.39	18675.13
695.53	18719.60
695.66	18651.73
695.80	18281.92
695.93	18281.92
696.07	18403.63
696.20	18342.78
696.33	18490.23
696.47	18291.29
696.60	17968.29
696.73	17497.84
696.87	17935.53
697.00	17701.47
697.14	17647.64
697.27	17174.85
697.40	17193.58
697.54	17081.23
697.67	17207.62
697.80	17202.94
697.94	17125.70
698.07	16699.72
698.21	16971.22
698.34	17088.25
698.47	16931.44
698.61	16592.06
698.74	16657.59
698.87	16666.95
699.01	16252.68
699.14	16407.16
699.27	16194.17
699.40	16233.96
699.54	16325.24
699.67	16020.97
699.80	16196.51
699.94	16084.16
700.07	15946.07
700.20	15936.71
700.34	16147.36
700.47	15899.26
700.60	15805.64
700.73	15950.75
700.87	15697.97
701.00	15658.18
701.13	15611.37
701.26	15414.77
701.40	15449.88
701.53	15353.91
701.66	15147.95
701.79	15358.60
701.93	14974.75
702.06	14846.02
702.19	15023.90
702.32	14965.39
702.46	14867.08
702.59	14761.76
702.72	14658.78
702.85	14857.72
702.99	14572.18
703.12	14661.12
703.25	14413.02
703.38	14406.00
703.51	14207.05
703.65	14448.13
703.78	14209.39
703.91	13804.48
704.04	13958.96
704.17	14047.90
704.31	13891.08
704.44	13963.64
704.57	13607.87
704.70	13748.31
704.83	13767.03
704.96	13891.08
705.10	13685.11
705.23	13516.59
>>>>>End Processed Spectral Data<<<<<
