SpectraSuite Data File
++++++++++++++++++++++++++++++++++++
Date: Fri Oct 25 11:33:16 EDT 2013
User: price-jones
Dark Spectrum Present: No
Reference Spectrum Present: No
Number of Sampled Component Spectra: 1
Spectrometers: USB2+H05261
Integration Time (usec): 100000 (USB2+H05261)
Spectra Averaged: 1 (USB2+H05261)
Boxcar Smoothing: 0 (USB2+H05261)
Correct for Electrical Dark: No (USB2+H05261)
Strobe/Lamp Enabled: No (USB2+H05261)
Correct for Detector Non-linearity: No (USB2+H05261)
Correct for Stray Light: No (USB2+H05261)
Number of Pixels in Processed Spectrum: 2048
>>>>>Begin Processed Spectral Data<<<<<
365.73	278.52
365.92	278.52
366.12	278.52
366.32	156.82
366.52	175.54
366.72	196.60
366.91	147.45
367.11	189.58
367.31	168.52
367.51	131.07
367.70	154.48
367.90	180.22
368.10	222.35
368.30	166.18
368.49	203.63
368.69	182.56
368.89	191.92
369.09	212.99
369.28	156.82
369.48	217.67
369.68	283.20
369.87	194.26
370.07	280.86
370.27	283.20
370.47	301.93
370.66	528.96
370.86	524.28
371.06	531.30
371.25	582.79
371.45	547.69
371.65	620.24
371.84	543.00
372.04	601.52
372.24	564.07
372.44	573.43
372.63	592.16
372.83	624.92
373.03	554.71
373.22	561.73
373.42	582.79
373.62	540.66
373.81	613.22
374.01	622.58
374.21	674.07
374.40	641.31
374.60	704.50
374.79	627.26
374.99	667.05
375.19	697.48
375.38	702.16
375.58	601.52
375.78	650.67
375.97	638.97
376.17	746.63
376.37	660.03
376.56	613.22
376.76	653.01
376.95	683.44
377.15	706.84
377.35	683.44
377.54	671.73
377.74	699.82
377.93	627.26
378.13	692.80
378.33	695.14
378.52	648.33
378.72	753.65
378.91	645.99
379.11	678.76
379.31	692.80
379.50	725.57
379.70	685.78
379.89	748.97
380.09	748.97
380.28	685.78
380.48	767.70
380.68	746.63
380.87	725.57
381.07	746.63
381.26	837.91
381.46	819.19
381.65	716.20
381.85	767.70
382.04	779.40
382.24	793.44
382.43	793.44
382.63	781.74
382.83	793.44
383.02	758.33
383.22	858.98
383.41	819.19
383.61	774.72
383.80	802.80
384.00	891.74
384.19	791.10
384.39	835.57
384.58	800.46
384.78	781.74
384.97	837.91
385.17	800.46
385.36	849.61
385.56	849.61
385.75	830.89
385.95	910.47
386.14	882.38
386.34	842.59
386.53	903.45
386.72	781.74
386.92	992.39
387.11	896.43
387.31	971.32
387.50	933.87
387.70	903.45
387.89	905.79
388.09	835.57
388.28	929.19
388.48	887.06
388.67	978.34
388.86	880.04
389.06	966.64
389.25	959.62
389.45	985.37
389.64	945.58
389.84	882.38
390.03	931.53
390.22	1060.26
390.42	943.24
390.61	936.21
390.81	945.58
391.00	999.41
391.19	1086.01
391.39	983.02
391.58	1046.22
391.78	940.90
391.97	1053.24
392.16	1083.67
392.36	1116.44
392.55	1050.90
392.75	1041.54
392.94	1071.97
393.13	1111.75
393.33	1041.54
393.52	1076.65
393.71	1048.56
393.91	1032.18
394.10	994.73
394.29	1196.01
394.49	1090.69
394.68	1198.35
394.88	1083.67
395.07	1097.71
395.26	1217.08
395.46	1125.80
395.65	1139.84
395.84	1247.51
396.04	1233.46
396.23	1242.82
396.42	1212.40
396.62	1184.31
396.81	1254.53
397.00	1181.97
397.19	1200.69
397.39	1193.67
397.58	1231.12
397.77	1289.64
397.97	1348.15
398.16	1296.66
398.35	1320.06
398.55	1245.16
398.74	1329.42
398.93	1303.68
399.12	1416.02
399.32	1362.19
399.51	1355.17
399.70	1387.94
399.90	1359.85
400.09	1371.55
400.28	1404.32
400.47	1401.98
400.67	1406.66
400.86	1434.75
401.05	1357.51
401.24	1467.52
401.44	1418.36
401.63	1423.05
401.82	1369.21
402.01	1352.83
402.21	1497.94
402.40	1469.86
402.59	1455.81
402.78	1516.67
402.97	1474.54
403.17	1561.14
403.36	1549.43
403.55	1575.18
403.74	1624.33
403.93	1533.05
404.13	1598.59
404.32	1647.74
404.51	1603.27
404.70	1568.16
404.89	1607.95
405.09	1650.08
405.28	1685.19
405.47	1678.16
405.66	1790.51
405.85	1879.45
406.05	1797.53
406.24	1825.62
406.43	1769.44
406.62	1858.39
406.81	1867.75
407.00	1877.11
407.20	1790.51
407.39	1802.21
407.58	1844.34
407.77	1902.86
407.96	1863.07
408.15	1893.49
408.34	1827.96
408.54	1982.43
408.73	1984.77
408.92	1942.64
409.11	1944.99
409.30	2054.99
409.49	2026.90
409.68	1991.80
409.87	2008.18
410.07	2218.83
410.26	2071.37
410.45	2134.57
410.64	2125.21
410.83	2108.82
411.02	2069.03
411.21	2270.32
411.40	2195.42
411.59	2209.47
411.78	2033.93
411.98	2190.74
412.17	2298.41
412.36	2354.58
412.55	2392.03
412.74	2436.50
412.93	2286.70
413.12	2258.62
413.31	2469.27
413.50	2373.30
413.69	2448.20
413.88	2483.31
414.07	2436.50
414.26	2490.33
414.45	2490.33
414.64	2583.95
414.83	2541.82
415.02	2647.15
415.22	2649.49
415.41	2696.30
415.60	2644.81
415.79	2670.55
415.98	2736.09
416.17	2761.83
416.36	2696.30
416.55	2799.28
416.74	2925.67
416.93	2801.62
417.12	2766.51
417.31	2864.82
417.50	2857.79
417.69	2930.35
417.88	2991.20
418.07	2932.69
418.26	2988.86
418.45	3206.53
418.64	3218.24
418.83	3117.59
419.02	3033.33
419.21	3000.57
419.39	3148.02
419.58	3136.32
419.77	3199.51
419.96	3194.83
420.15	3307.18
420.34	3260.37
420.53	3222.92
420.72	3208.87
420.91	3314.20
421.10	3236.96
421.29	3300.16
421.48	3229.94
421.67	3400.80
421.86	3356.33
422.05	3386.76
422.24	3391.44
422.43	3314.20
422.61	3412.50
422.80	3452.29
422.99	3403.14
423.18	3499.10
423.37	3487.40
423.56	3480.38
423.75	3480.38
423.94	3337.60
424.13	3222.92
424.32	3454.63
424.50	3454.63
424.69	3550.59
424.88	3686.34
425.07	3545.91
425.26	3475.70
425.45	3358.67
425.64	3499.10
425.83	3459.31
426.01	3506.12
426.20	3583.36
426.39	3487.40
426.58	3534.21
426.77	3548.25
426.96	3763.58
427.15	3632.51
427.33	3630.17
427.52	3583.36
427.71	3672.30
427.90	3749.54
428.09	3618.47
428.28	3634.85
428.46	3758.90
428.65	3669.96
428.84	3712.09
429.03	3873.59
429.22	3742.52
429.40	3756.56
429.59	3847.84
429.78	3637.19
429.97	3613.79
430.16	3686.34
430.34	4002.32
430.53	3992.95
430.72	3882.95
430.91	3920.40
431.10	3836.14
431.28	4077.21
431.47	4109.98
431.66	4016.36
431.85	3798.69
432.03	4049.13
432.22	4166.15
432.41	4124.02
432.60	4039.76
432.79	4077.21
432.97	4203.60
433.16	4175.52
433.35	4121.68
433.54	4154.45
433.72	4334.67
433.91	4304.25
434.10	4182.54
434.28	4266.80
434.47	4264.46
434.66	4271.48
434.85	4227.01
435.03	4472.76
435.22	4381.48
435.41	4496.17
435.59	4416.59
435.78	4353.40
435.97	4432.97
436.16	4503.19
436.34	4423.61
436.53	4402.55
436.72	4629.58
436.90	4489.15
437.09	4561.70
437.28	4526.60
437.46	4423.61
437.65	4533.62
437.84	4573.41
438.02	4594.47
438.21	4678.73
438.40	4660.01
438.58	4669.37
438.77	4849.59
438.96	4814.48
439.14	4987.68
439.33	4957.25
439.52	5004.07
439.70	5029.81
439.89	5015.77
440.08	5046.20
440.26	5144.50
440.45	5062.58
440.63	5128.11
440.82	5334.08
441.01	5156.20
441.19	5350.46
441.38	5345.78
441.57	5263.86
441.75	5404.30
441.94	5554.09
442.12	5516.64
442.31	5465.15
442.50	5507.28
442.68	5376.21
442.87	5462.81
443.05	5575.16
443.24	5610.26
443.43	5577.50
443.61	5673.46
443.80	5741.33
443.98	5575.16
444.17	5366.85
444.35	5596.22
444.54	5584.52
444.73	5579.84
444.91	5619.63
445.10	5628.99
445.28	5647.71
445.47	5713.25
445.65	5673.46
445.84	5708.57
446.02	5919.21
446.21	5738.99
446.39	5788.14
446.58	5888.79
446.77	5771.76
446.95	5760.06
447.14	5790.49
447.32	5865.38
447.51	5722.61
447.69	5785.80
447.88	5778.78
448.06	5935.60
448.25	5771.76
448.43	5947.30
448.62	5834.96
448.80	5881.77
448.99	5804.53
449.17	5949.64
449.36	5963.68
449.54	6059.65
449.73	6036.24
449.91	6207.10
450.10	6045.60
450.28	6221.14
450.46	6204.76
450.65	6078.37
450.83	6150.93
451.02	6274.98
451.20	6200.08
451.39	6289.02
451.57	6122.84
451.76	6092.41
451.94	6129.86
452.13	6270.30
452.31	6338.17
452.49	6277.32
452.68	6286.68
452.86	6452.86
453.05	6459.88
453.23	6438.81
453.42	6443.49
453.60	6450.52
453.78	6544.14
453.97	6553.50
454.15	6530.09
454.34	6331.15
454.52	6649.46
454.70	6609.67
454.89	6506.69
455.07	6668.19
455.26	6651.80
455.44	6722.02
455.62	6754.79
455.81	6724.36
455.99	6848.41
456.17	6806.28
456.36	6796.92
456.54	6998.20
456.73	6778.19
456.91	7126.93
457.09	6923.30
457.28	7112.89
457.46	7066.08
457.64	7126.93
457.83	7215.87
458.01	6949.05
458.19	7206.51
458.38	7173.74
458.56	7213.53
458.74	7349.28
458.93	7377.37
459.11	7335.24
459.29	7148.00
459.48	7211.19
459.66	7489.71
459.84	7363.33
460.03	7442.90
460.21	7499.08
460.39	7442.90
460.57	7442.90
460.76	7667.60
460.94	7749.51
461.12	7520.14
461.31	7630.15
461.49	7627.81
461.67	7492.05
461.85	7812.71
462.04	7747.17
462.22	8116.98
462.40	7803.35
462.59	7815.05
462.77	7805.69
462.95	7906.33
463.13	7805.69
463.32	7992.93
463.50	7918.03
463.68	7990.59
463.86	7913.35
464.05	7786.96
464.23	8023.36
464.41	8060.80
464.59	7934.42
464.78	8219.96
464.96	7894.63
465.14	7990.59
465.32	8175.49
465.50	8278.47
465.69	8128.68
465.87	8168.47
466.05	8329.97
466.23	8238.69
466.41	8346.35
466.60	8332.31
466.78	8013.99
466.96	8276.13
467.14	8388.48
467.32	8276.13
467.51	8477.42
467.69	8217.62
467.87	8482.10
468.05	8573.38
468.23	8325.29
468.41	8414.23
468.60	8524.23
468.78	8697.43
468.96	8652.96
469.14	8557.00
469.32	8821.48
469.50	8779.35
469.69	8685.73
469.87	8905.74
470.05	8718.50
470.23	8828.50
470.41	8992.34
470.59	8954.89
470.77	8760.63
470.95	8952.55
471.14	9090.64
471.32	8884.67
471.50	9104.68
471.68	9064.89
471.86	9167.88
472.04	9128.09
472.22	9324.69
472.40	9231.07
472.58	9376.19
472.77	9359.80
472.95	9619.60
473.13	9750.67
473.31	9610.24
473.49	9448.74
473.67	9610.24
473.85	9673.43
474.03	9774.08
474.21	9846.63
474.39	10136.86
474.57	9755.35
474.75	10054.94
474.93	10223.46
475.12	10071.33
475.30	10111.11
475.48	10143.88
475.66	10225.80
475.84	10178.99
476.02	10256.23
476.20	10281.97
476.38	10619.01
476.56	10609.65
476.74	10630.71
476.92	10583.90
477.10	10771.15
477.28	10778.17
477.46	10932.64
477.64	10787.53
477.82	11129.25
478.00	11365.64
478.18	11288.40
478.36	11253.30
478.54	11428.84
478.72	11396.07
478.90	11784.60
479.08	11644.17
479.26	11719.06
479.44	11831.41
479.62	11824.39
479.80	12170.79
479.98	11927.37
480.16	12533.57
480.34	12248.02
480.52	12428.24
480.70	12163.76
480.88	12334.62
481.06	12582.72
481.24	12507.82
481.41	12596.76
481.59	12819.11
481.77	13025.08
481.95	12912.74
482.13	13338.71
482.31	13099.98
482.49	13310.63
482.67	13568.09
482.85	13612.56
483.03	13673.41
483.21	13834.91
483.39	13963.64
483.57	13678.09
483.74	13996.40
483.92	14129.81
484.10	14057.26
484.28	14361.53
484.46	14527.71
484.64	14567.49
484.82	14455.15
485.00	14745.38
485.18	14979.43
485.35	15468.60
485.53	15042.62
485.71	15229.87
485.89	15758.83
486.07	15417.11
486.25	15522.43
486.43	15817.34
486.61	15676.91
486.78	16058.42
486.96	16273.74
487.14	16070.12
487.32	16126.29
487.50	16678.66
487.68	16673.98
487.85	16587.38
488.03	17069.53
488.21	17226.34
488.39	16973.56
488.57	17397.20
488.75	17198.26
488.92	17418.27
489.10	17706.15
489.28	17654.66
489.46	18017.44
489.64	18101.70
489.81	18377.89
489.99	18335.76
490.17	18441.08
490.35	18679.82
490.53	18354.48
490.70	18974.72
490.88	19091.75
491.06	19246.23
491.24	19066.00
491.41	19325.80
491.59	19543.47
491.77	19220.48
491.95	19515.39
492.13	20074.77
492.30	19838.38
492.48	19831.36
492.66	20252.66
492.84	19934.34
493.01	20500.75
493.19	20360.32
493.37	20535.86
493.54	20603.74
493.72	20680.97
493.90	20608.42
494.08	20964.18
494.25	21310.58
494.43	21120.99
494.61	21577.40
494.79	21546.97
494.96	21401.86
495.14	21315.26
495.32	21933.16
495.49	21813.79
495.67	21994.01
495.85	21965.93
496.02	22305.31
496.20	22487.87
496.38	22867.03
496.55	22663.41
496.73	23096.41
496.91	22998.10
497.09	23091.73
497.26	23328.12
497.44	23115.13
497.62	23183.01
497.79	23627.71
497.97	23414.72
498.14	23988.15
498.32	23922.62
498.50	24170.71
498.67	24411.79
498.85	24404.77
499.03	24271.36
499.20	24409.45
499.38	24287.74
499.56	24596.69
499.73	24535.84
499.91	24725.42
500.08	25092.88
500.26	24964.15
500.44	24999.26
500.61	25137.35
500.79	24912.66
500.97	25399.49
501.14	25572.69
501.32	25706.10
501.49	25638.23
501.67	25832.49
501.84	25666.31
502.02	25820.79
502.20	26019.74
502.37	26087.61
502.55	26113.36
502.72	26153.15
502.90	26202.30
503.07	25788.02
503.25	26218.68
503.43	26347.41
503.60	26712.53
503.78	26799.13
503.95	26717.22
504.13	26775.73
504.30	26862.33
504.48	26934.88
504.65	27410.01
504.83	27541.08
505.01	27211.07
505.18	27023.83
505.36	27786.84
505.53	27503.64
505.71	27639.39
505.88	27826.63
506.06	27559.81
506.23	28259.63
506.41	27810.25
506.58	28144.94
506.76	28233.88
506.93	28177.71
507.11	28264.31
507.28	28503.04
507.46	28720.71
507.63	28341.55
507.81	28861.15
507.98	28301.76
508.16	29273.08
508.33	28802.63
508.50	29181.80
508.68	29104.56
508.85	29415.85
509.03	28966.47
509.20	28999.24
509.38	29380.74
509.55	29862.90
509.73	29418.19
509.90	29783.32
510.08	29656.93
510.25	30279.51
510.42	29596.07
510.60	30272.49
510.77	30195.25
510.95	30356.75
511.12	30323.98
511.30	29919.07
511.47	30637.61
511.64	30335.68
511.82	30693.79
511.99	30581.44
512.17	30611.87
512.34	30696.13
512.51	30937.20
512.69	30965.29
512.86	31264.88
513.04	31307.01
513.21	31463.82
513.38	31468.50
513.56	31700.22
513.73	31515.31
513.90	31772.77
514.08	31541.06
514.25	32086.40
514.43	32009.17
514.60	31917.89
514.77	32126.19
514.95	32563.87
515.12	32116.83
515.29	31969.38
515.47	32165.98
515.64	32465.57
515.81	31880.44
515.99	32596.64
516.16	32910.27
516.33	32556.85
516.51	32804.95
516.68	32423.44
516.85	32500.68
517.03	32982.83
517.20	32889.21
517.37	33125.60
517.54	33263.69
517.72	33167.73
517.89	33436.89
518.06	33780.95
518.24	33338.59
518.41	33514.13
518.58	33500.09
518.75	33523.49
518.93	33460.30
519.10	34047.77
519.27	33795.00
519.45	33895.64
519.62	34089.90
519.79	33757.55
519.96	34354.38
520.14	34033.73
520.31	33984.58
520.48	34288.85
520.65	34550.99
520.83	35143.14
521.00	34808.45
521.17	34457.37
521.34	34759.30
521.52	35220.38
521.69	34724.19
521.86	34923.13
522.03	35159.53
522.20	35491.88
522.38	35484.86
522.55	35332.73
522.72	35374.86
522.89	35391.24
523.07	35885.09
523.24	35358.47
523.41	35709.55
523.58	35428.69
523.75	36016.16
523.92	35971.69
524.10	35807.86
524.27	36554.49
524.44	36189.36
524.61	36531.08
524.78	36318.09
524.96	36121.49
525.13	36290.01
525.30	36360.22
525.47	36797.90
525.64	36308.73
525.81	36671.51
525.98	36975.78
526.16	36617.68
526.33	36629.38
526.50	36631.72
526.67	36865.78
526.84	36844.71
527.01	37055.36
527.18	37158.34
527.36	36879.82
527.53	37385.38
527.70	37432.19
527.87	37352.61
528.04	37603.05
528.21	37727.10
528.38	37298.78
528.55	37249.63
528.72	37581.98
528.89	37462.61
529.07	37387.72
529.24	37378.36
529.41	37893.27
529.58	38007.96
529.75	37860.51
529.92	38036.05
530.09	38340.32
530.26	37776.25
530.43	38073.49
530.60	38050.09
530.77	38000.94
530.94	38064.13
531.11	38492.45
531.28	38459.68
531.46	38569.69
531.63	38852.89
531.80	38691.40
531.97	38686.71
532.14	39033.11
532.31	38501.81
532.48	38958.22
532.65	38855.23
532.82	38904.38
532.99	38937.15
533.16	39007.37
533.33	38993.32
533.50	39342.06
533.67	39000.35
533.84	39126.74
534.01	39236.74
534.18	39096.31
534.35	39941.24
534.52	39688.46
534.69	39683.78
534.86	39969.33
535.03	39592.50
535.20	39971.67
535.37	39910.82
535.54	40226.79
535.71	39510.58
535.88	40264.24
536.05	40168.27
536.22	39927.20
536.38	40121.46
536.55	39693.15
536.72	40013.80
536.89	40067.63
537.06	40264.24
537.23	40612.98
537.40	40304.02
537.57	40098.06
537.74	40175.30
537.91	40730.00
538.08	40825.96
538.25	40289.98
538.42	40385.94
538.59	41127.89
538.75	40816.60
538.92	40678.51
539.09	40732.34
539.26	40608.29
539.43	40940.65
539.60	41045.97
539.77	40809.58
539.94	41530.47
540.11	41015.55
540.28	41132.57
540.44	41329.18
540.61	41090.44
540.78	41139.60
540.95	41375.99
541.12	41703.67
541.29	41303.43
541.46	41450.89
541.62	41085.76
541.79	41581.96
541.96	41102.15
542.13	41205.13
542.30	41163.00
542.47	41591.32
542.63	41958.78
542.80	41900.27
542.97	42546.26
543.14	42050.06
543.31	42815.42
543.48	41691.96
543.64	42895.00
543.81	42302.84
543.98	42141.35
544.15	42686.69
544.32	42637.54
544.48	43091.60
544.65	42483.06
544.82	42883.30
544.99	42307.52
545.16	42902.02
545.32	42813.08
545.49	42965.21
545.66	42941.81
545.83	43152.46
546.00	43335.02
546.16	43168.84
546.33	43009.68
546.50	43079.90
546.67	43122.03
546.83	43023.73
547.00	43496.52
547.17	42955.85
547.34	43161.82
547.50	43199.27
547.67	43676.74
547.84	43536.30
548.00	43508.22
548.17	43948.24
548.34	43749.29
548.51	44250.17
548.67	43449.70
548.84	43711.84
549.01	43683.76
549.18	43955.26
549.34	44268.89
549.51	43856.96
549.68	44025.48
549.84	43866.32
550.01	44591.89
550.18	44081.65
550.34	44418.69
550.51	44378.90
550.68	44196.34
550.84	43892.07
551.01	44299.32
551.18	44069.95
551.34	43985.69
551.51	44451.45
551.68	44505.29
551.84	44463.16
552.01	44339.11
552.18	44655.08
552.34	44320.38
552.51	44704.23
552.68	44004.41
552.84	44502.95
553.01	44587.21
553.18	44638.70
553.34	44524.01
553.51	44701.89
553.67	44357.83
553.84	45057.65
554.01	44751.04
554.17	44783.81
554.34	45020.20
554.51	45254.26
554.67	45111.49
554.84	45160.64
555.00	45113.83
555.17	44949.99
555.33	45027.23
555.50	44788.49
555.67	45134.89
555.83	45067.02
556.00	45352.56
556.16	45729.39
556.33	45497.67
556.50	45371.28
556.66	45106.80
556.83	45102.12
556.99	45453.20
557.16	45586.61
557.32	45600.66
557.49	45607.68
557.65	45319.79
557.82	45584.27
557.98	45614.70
558.15	45610.02
558.32	45846.41
558.48	45684.92
558.65	45633.42
558.81	45663.85
558.98	46054.72
559.14	45539.80
559.31	45984.51
559.47	45661.51
559.64	45390.01
559.80	45680.24
559.97	46047.70
560.13	45801.94
560.30	45518.74
560.46	46454.95
560.63	46176.43
560.79	46277.07
560.96	46223.24
561.12	46302.82
561.29	46174.09
561.45	46068.76
561.61	46398.78
561.78	46057.06
561.94	46089.83
562.11	46218.56
562.27	46047.70
562.44	46150.68
562.60	46366.01
562.77	46719.43
562.93	46122.60
563.10	46768.58
563.26	46148.34
563.42	46361.33
563.59	46204.52
563.75	46028.98
563.92	46487.72
564.08	46621.13
564.24	46574.32
564.41	46241.96
564.57	46248.99
564.74	46593.04
564.90	46431.55
565.07	46408.14
565.23	46415.16
565.39	46761.56
565.56	46562.62
565.72	46155.36
565.88	46307.50
566.05	46237.28
566.21	46426.87
566.38	46351.97
566.54	46740.50
566.70	46646.88
566.87	46436.23
567.03	46398.78
567.19	46513.47
567.36	46387.08
567.52	46621.13
567.68	47007.32
567.85	46897.31
568.01	46611.77
568.17	46588.36
568.34	47133.71
568.50	46864.55
568.66	46864.55
568.83	47070.51
568.99	47065.83
569.15	47192.22
569.32	47154.77
569.48	46499.42
569.64	47531.60
569.81	47051.79
569.97	46918.38
570.13	46979.23
570.30	46892.63
570.46	47274.14
570.62	47058.81
570.78	46955.83
570.95	46658.58
571.11	47533.94
571.27	46813.05
571.43	47004.98
571.60	47283.50
571.76	47143.07
571.92	46902.00
572.09	46780.29
572.25	46829.44
572.41	47646.29
572.57	47360.74
572.74	47828.85
572.90	47311.59
573.06	47370.10
573.22	47327.97
573.38	47435.64
573.55	47299.89
573.71	47927.15
573.87	47536.28
574.03	47379.46
574.20	47629.90
574.36	47004.98
574.52	47489.47
574.68	47224.99
574.84	47260.10
575.01	47433.30
575.17	47723.52
575.33	47480.11
575.49	47412.23
575.65	47882.68
575.82	47653.31
575.98	47428.62
576.14	47763.31
576.30	48025.45
576.46	47569.05
576.62	47538.62
576.79	47377.12
576.95	47615.86
577.11	47374.78
577.27	47391.17
577.43	47709.48
577.59	47442.66
577.75	47203.92
577.92	47201.58
578.08	47262.44
578.24	47826.51
578.40	47707.14
578.56	47512.88
578.72	47760.97
578.88	47707.14
579.04	47665.01
579.21	47494.15
579.37	48009.07
579.53	47875.66
579.69	47437.98
579.85	47892.04
580.01	47388.83
580.17	47646.29
580.33	48023.11
580.49	47896.72
580.65	47812.46
580.82	47423.93
580.98	47608.84
581.14	47540.96
581.30	47845.23
581.46	47445.00
581.62	47189.88
581.78	47363.08
581.94	47866.30
582.10	47342.02
582.26	47917.79
582.42	47751.61
582.58	47786.72
582.74	47746.93
582.90	47728.20
583.06	47749.27
583.22	47735.23
583.38	48144.82
583.54	47782.04
583.70	47763.31
583.86	47744.59
584.02	47756.29
584.18	48137.80
584.34	47772.67
584.50	48144.82
584.66	47772.67
584.82	47742.25
584.98	48308.66
585.14	47845.23
585.30	47641.60
585.46	47934.17
585.62	47976.30
585.78	48034.81
585.94	47646.29
586.10	47856.93
586.26	47728.20
586.42	47533.94
586.58	48486.54
586.74	47800.76
586.90	47831.19
587.06	47753.95
587.22	48184.61
587.38	47910.77
587.54	48135.46
587.70	48287.59
587.86	47915.45
588.02	47878.00
588.18	47515.22
588.34	47679.05
588.49	47964.60
588.65	47800.76
588.81	47555.00
588.97	48189.29
589.13	47992.68
589.29	48119.07
589.45	48025.45
589.61	48044.18
589.77	47882.68
589.93	48254.82
590.08	47927.15
590.24	48303.98
590.40	48542.71
590.56	48533.35
590.72	48210.35
590.88	47962.26
591.04	48011.41
591.20	48416.32
591.35	48294.61
591.51	48725.27
591.67	48512.28
591.83	48460.79
591.99	48381.21
592.15	48172.91
592.31	48119.07
592.46	48329.72
592.62	48626.97
592.78	48783.79
592.94	48568.46
593.10	48638.67
593.26	48877.41
593.41	48399.94
593.57	48385.89
593.73	48629.31
593.89	48713.57
594.05	48425.68
594.20	48449.09
594.36	48844.64
594.52	48444.41
594.68	48519.31
594.84	48669.10
594.99	48877.41
595.15	48147.16
595.31	49001.46
595.47	48526.33
595.62	48720.59
595.78	48399.94
595.94	48851.66
596.10	48287.59
596.25	48781.45
596.41	48561.44
596.57	48264.19
596.73	48697.19
596.88	48413.98
597.04	49038.90
597.20	48692.50
597.36	48825.92
597.51	48683.14
597.67	48554.41
597.83	48252.48
597.99	48568.46
598.14	48470.15
598.30	48451.43
598.46	48559.09
598.61	49083.37
598.77	48589.52
598.93	49336.15
599.09	48837.62
599.24	48786.13
599.40	48987.41
599.56	48978.05
599.71	49027.20
599.87	49282.32
600.03	49184.02
600.18	48748.68
600.34	48643.35
600.50	48907.83
600.65	48601.22
600.81	49095.08
600.97	48999.12
601.12	49141.89
601.28	48729.95
601.44	48865.70
601.59	48751.02
601.75	48849.32
601.91	48952.30
602.06	48748.68
602.22	49172.31
602.37	48985.07
602.53	48849.32
602.69	49233.17
602.84	48566.12
603.00	48697.19
603.16	48631.65
603.31	48760.38
603.47	48456.11
603.62	48844.64
603.78	49137.21
603.94	48952.30
604.09	48776.76
604.25	48854.00
604.40	48619.95
604.56	48615.27
604.71	48985.07
604.87	48456.11
605.03	48472.49
605.18	48718.25
605.34	49144.23
605.49	48296.95
605.65	48638.67
605.80	48713.57
605.96	48786.13
606.12	48959.33
606.27	48610.59
606.43	48582.50
606.58	48559.09
606.74	49099.76
606.89	48685.48
607.05	49174.66
607.20	48971.03
607.36	48479.52
607.51	48676.12
607.67	48418.66
607.82	48556.75
607.98	48531.01
608.13	48610.59
608.29	48545.05
608.44	48891.45
608.60	48257.17
608.75	48886.77
608.91	48484.20
609.06	48182.27
609.22	48577.82
609.37	48631.65
609.53	48720.59
609.68	48753.36
609.84	48465.47
609.99	48467.81
610.15	48587.18
610.30	48762.72
610.46	48289.93
610.61	48254.82
610.76	48664.42
610.92	48254.82
611.07	48224.40
611.23	48198.65
611.38	48027.79
611.54	48458.45
611.69	48493.56
611.84	48378.87
612.00	48362.49
612.15	48208.01
612.31	48786.13
612.46	48240.78
612.62	48177.59
612.77	48247.80
612.92	48484.20
613.08	48236.10
613.23	47952.90
613.39	47915.45
613.54	47927.15
613.69	48542.71
613.85	48170.57
614.00	48044.18
614.15	48102.69
614.31	47934.17
614.46	48037.16
614.62	47615.86
614.77	47959.92
614.92	47852.25
615.08	48135.46
615.23	48266.53
615.38	47980.98
615.54	47852.25
615.69	48278.23
615.84	47674.37
616.00	48247.80
616.15	48488.88
616.30	48259.51
616.46	48100.35
616.61	47260.10
616.76	48247.80
616.92	47737.57
617.07	47842.89
617.22	47763.31
617.37	47339.68
617.53	47599.47
617.68	47870.98
617.83	47924.81
617.99	48243.12
618.14	47863.96
618.29	47833.53
618.45	47302.23
618.60	47334.99
618.75	47522.24
618.90	47522.24
619.06	47742.25
619.21	47292.86
619.36	47952.90
619.51	47587.77
619.67	47241.37
619.82	47281.16
619.97	47718.84
620.12	47271.80
620.28	47234.35
620.43	47618.20
620.58	47409.89
620.73	47430.96
620.89	47281.16
621.04	47547.98
621.19	47271.80
621.34	47239.03
621.49	47023.70
621.65	47545.64
621.80	47639.26
621.95	47384.15
622.10	46934.76
622.25	47449.68
622.41	47164.14
622.56	47030.72
622.71	47192.22
622.86	46869.23
623.01	47398.19
623.16	47360.74
623.32	47194.56
623.47	46995.62
623.62	47044.77
623.77	47388.83
623.92	47180.52
624.07	47070.51
624.23	47241.37
624.38	47054.13
624.53	47133.71
624.68	46342.61
624.83	46890.29
624.98	46873.91
625.13	46637.51
625.29	46581.34
625.44	46876.25
625.59	46403.46
625.74	47044.77
625.89	46625.81
626.04	46799.01
626.19	46836.46
626.34	46351.97
626.49	46312.18
626.65	46476.02
626.80	46394.10
626.95	46251.33
627.10	46164.73
627.25	46534.53
627.40	46691.35
627.55	46490.06
627.70	46005.57
627.85	46894.97
628.00	46586.02
628.15	46363.67
628.30	46000.89
628.45	45581.93
628.60	45904.93
628.76	45804.28
628.91	45764.49
629.06	45514.06
629.21	46099.19
629.36	45916.63
629.51	46192.81
629.66	46586.02
629.81	45883.86
629.96	45996.21
630.11	45975.14
630.26	45720.02
630.41	45689.60
630.56	45965.78
630.71	45738.75
630.86	46131.96
631.01	45364.26
631.16	45464.91
631.31	45500.01
631.46	45490.65
631.61	45752.79
631.76	46028.98
631.91	45776.20
632.06	45963.44
632.21	45808.96
632.36	45867.48
632.51	45301.07
632.66	45902.59
632.81	45745.77
632.96	45900.25
633.10	45282.34
633.25	45680.24
633.40	45497.67
633.55	45879.18
633.70	45801.94
633.85	45368.94
634.00	45270.64
634.15	45469.59
634.30	45106.80
634.45	45331.50
634.60	44996.80
634.75	45483.63
634.90	45397.03
635.05	45570.23
635.19	45067.02
635.34	45401.71
635.49	45270.64
635.64	45284.68
635.79	45378.31
635.94	45382.99
636.09	45530.44
636.24	45291.71
636.39	45081.06
636.53	45141.91
636.68	44671.46
636.83	44982.76
636.98	44615.29
637.13	44528.69
637.28	44704.23
637.43	44353.15
637.57	44568.48
637.72	44383.58
637.87	44519.33
638.02	45106.80
638.17	45158.30
638.32	44662.10
638.46	44222.08
638.61	44018.46
638.76	44409.32
638.91	44521.67
639.06	44783.81
639.20	44142.50
639.35	44123.78
639.50	43882.70
639.65	44095.69
639.80	44456.14
639.94	44416.35
640.09	44772.11
640.24	44626.99
640.39	44399.96
640.54	44053.56
640.68	44217.40
640.83	44119.10
640.98	44233.78
641.13	44280.60
641.27	44325.07
641.42	43917.81
641.57	43466.09
641.72	44364.85
641.86	44236.12
642.01	44102.71
642.16	43976.33
642.31	43540.99
642.45	44439.75
642.60	43798.44
642.75	44119.10
642.90	44058.24
643.04	43618.22
643.19	43672.06
643.34	43566.73
643.48	43566.73
643.63	43161.82
643.78	44240.81
643.93	44116.76
644.07	43915.47
644.22	43854.62
644.37	43674.40
644.51	43779.72
644.66	43573.75
644.81	43763.34
644.95	43840.57
645.10	43377.15
645.25	43320.98
645.39	43028.41
645.54	43662.69
645.69	42878.61
645.83	43187.56
645.98	43386.51
646.13	43145.44
646.27	43323.32
646.42	43222.67
646.57	43555.03
646.71	43208.63
646.86	43374.81
647.00	43192.25
647.15	43676.74
647.30	43395.87
647.44	43012.02
647.59	43187.56
647.74	43072.88
647.88	43304.59
648.03	43309.27
648.17	43522.26
648.32	43007.34
648.47	43250.76
648.61	42731.16
648.76	42843.51
648.90	42904.36
649.05	42740.52
649.20	42976.92
649.34	42852.87
649.49	42946.49
649.63	43157.14
649.78	42878.61
649.92	43040.11
650.07	43126.71
650.21	43056.50
650.36	42960.53
650.51	42721.80
650.65	43014.37
650.80	42611.79
650.94	42862.23
651.09	42721.80
651.23	42391.78
651.38	42288.80
651.52	41741.11
651.67	42691.37
651.81	41972.83
651.96	42541.58
652.10	41940.06
652.25	42202.20
652.39	42508.81
652.54	42366.04
652.68	42532.22
652.83	42344.97
652.97	42660.94
653.12	42511.15
653.26	42206.88
653.41	42321.57
653.55	42323.91
653.70	42136.66
653.84	42583.71
653.99	42321.57
654.13	42354.33
654.27	41904.95
654.42	42309.86
654.56	41879.21
654.71	42476.04
654.85	42284.12
655.00	41975.17
655.14	42150.71
655.29	42260.71
655.43	42293.48
655.57	42234.97
655.72	41305.77
655.86	41787.92
656.01	41706.01
656.15	40921.93
656.30	41315.14
656.44	41528.13
656.58	41783.24
656.73	41748.14
656.87	41214.49
657.01	41654.51
657.16	41537.49
657.30	41486.00
657.45	41738.77
657.59	41373.65
657.73	41097.47
657.88	41476.63
658.02	41191.09
658.16	41118.53
658.31	41560.89
658.45	41212.15
658.60	41067.04
658.74	41057.68
658.88	41251.94
659.03	41270.67
659.17	40620.00
659.31	40772.13
659.46	40680.85
659.60	41062.36
659.74	40538.08
659.89	40898.52
660.03	40346.15
660.17	40931.29
660.32	40776.81
660.46	40821.28
660.60	40205.72
660.74	40435.10
660.89	40701.92
661.03	39981.03
661.17	40065.29
661.32	39966.99
661.46	40144.87
661.60	40390.62
661.74	40044.23
661.89	39908.47
662.03	40325.09
662.17	40254.87
662.31	40107.42
662.46	40086.36
662.60	39845.28
662.74	39550.37
662.88	39196.95
663.03	39395.90
663.17	39358.45
663.31	39325.68
663.45	39313.98
663.60	39651.02
663.74	39449.73
663.88	39042.48
664.02	38682.03
664.17	39761.02
664.31	39564.42
664.45	39131.42
664.59	39110.35
664.73	39271.85
664.88	39643.99
665.02	38724.16
665.16	38670.33
665.30	38979.28
665.44	38885.66
665.59	37823.06
665.73	38525.22
665.87	38506.49
666.01	38686.71
666.15	38417.55
666.29	38464.36
666.44	38625.86
666.58	38576.71
666.72	38094.56
666.86	38080.52
667.00	38274.78
667.14	37872.21
667.28	37993.92
667.43	37825.40
667.57	38190.52
667.71	38122.65
667.85	38234.99
667.99	37713.05
668.13	37743.48
668.27	37001.53
668.41	37584.32
668.56	37354.95
668.70	36957.06
668.84	36980.46
668.98	37034.30
669.12	37095.15
669.26	37401.76
669.40	36950.04
669.54	36879.82
669.68	37188.77
669.82	37331.54
669.96	37090.47
670.10	36830.67
670.25	36528.74
670.39	36811.95
670.53	36676.19
670.67	36645.77
670.81	36926.63
670.95	36720.66
671.09	35962.33
671.23	35866.37
671.37	36559.17
671.51	35878.07
671.65	35646.36
671.79	36563.85
671.93	36378.95
672.07	35751.68
672.21	35861.69
672.35	35693.17
672.49	35681.47
672.63	36060.63
672.77	35594.87
672.91	35739.98
673.05	35634.66
673.19	35072.93
673.33	35318.68
673.47	35110.38
673.61	34965.26
673.75	35276.55
673.89	34660.99
674.03	35009.73
674.17	34597.80
674.31	34562.69
674.45	34218.63
674.59	34689.08
674.73	34150.76
674.87	33816.06
675.01	33923.72
675.15	33961.17
675.29	33397.10
675.43	33984.58
675.56	34115.65
675.70	33596.05
675.84	33670.95
675.98	32573.24
676.12	33450.94
676.26	34141.39
676.40	33680.31
676.54	33244.97
676.68	33436.89
676.82	32570.90
676.96	32863.46
677.10	33617.11
677.23	32638.77
677.37	33109.22
677.51	32713.67
677.65	32341.52
677.79	32666.86
677.93	32547.49
678.07	32107.47
678.21	31927.25
678.34	32006.83
678.48	31744.69
678.62	31810.22
678.76	31833.63
678.90	31782.13
679.04	31721.28
679.18	31587.87
679.31	31222.75
679.45	31424.03
679.59	31194.66
679.73	31246.15
679.87	30623.57
680.00	30930.18
680.14	30962.95
680.28	30850.60
680.42	30768.68
680.56	30719.53
680.70	30312.28
680.83	30368.45
680.97	29919.07
681.11	30256.11
681.25	29839.49
681.39	29846.51
681.52	30139.08
681.66	29270.74
681.80	29160.73
681.94	29474.37
682.07	29039.03
682.21	28917.32
682.35	29158.39
682.49	28943.06
682.62	29102.22
682.76	28819.02
682.90	29069.45
683.04	28924.34
683.17	28641.14
683.31	28978.17
683.45	28439.85
683.59	28039.62
683.72	27749.39
683.86	28341.55
684.00	28048.98
684.13	27775.14
684.27	27454.48
684.41	27449.80
684.55	27920.25
684.68	27686.20
684.82	27482.57
684.96	27538.74
685.09	27288.31
685.23	27264.90
685.37	27442.78
685.50	27253.20
685.64	27171.28
685.78	27037.87
685.91	26859.99
686.05	26199.96
686.19	25993.99
686.32	26459.76
686.46	25825.47
686.60	26225.70
686.73	26218.68
686.87	26122.72
687.01	25715.47
687.14	26153.15
687.28	25729.51
687.42	25762.28
687.55	25191.19
687.69	25261.40
687.82	24919.68
687.96	25687.38
688.10	25326.94
688.23	25060.12
688.37	25226.29
688.50	25242.68
688.64	24924.36
688.78	24919.68
688.91	24870.53
689.05	24425.83
689.18	24547.54
689.32	23765.80
689.46	23960.06
689.59	23915.59
689.73	24315.83
689.86	24484.34
690.00	24060.71
690.13	23939.00
690.27	23889.85
690.41	24009.22
690.54	23520.04
690.68	23393.65
690.81	23136.20
690.95	22909.16
691.08	23393.65
691.22	22740.64
691.35	22764.05
691.49	23103.43
691.62	22850.65
691.76	22581.49
691.89	22581.49
692.03	22305.31
692.16	21930.82
692.30	22188.28
692.43	22050.19
692.57	22026.78
692.70	21806.77
692.84	21923.80
692.97	21582.08
693.11	21811.45
693.24	21123.33
693.38	21558.67
693.51	21427.60
693.65	21399.52
693.78	21022.69
693.92	21109.29
694.05	20908.01
694.19	20837.79
694.32	20706.72
694.45	21008.65
694.59	21214.62
694.72	20868.22
694.86	20760.55
694.99	20659.91
695.13	20032.65
695.26	20318.19
695.39	19864.13
695.53	20037.33
695.66	19946.05
695.80	19634.75
695.93	19962.43
696.07	19463.90
696.20	19222.82
696.33	19407.72
696.47	19133.88
696.60	19445.17
696.73	19180.69
696.87	19468.58
697.00	19236.86
697.14	18939.62
697.27	18831.95
697.40	18848.33
697.54	18281.92
697.67	18328.74
697.80	18546.40
697.94	18501.93
698.07	18335.76
698.21	18420.02
698.34	18677.48
698.47	18230.43
698.61	17799.77
698.74	17790.41
698.87	17874.67
699.01	17675.73
699.14	18078.30
699.27	17465.08
699.40	17462.74
699.54	17326.99
699.67	17418.27
699.80	17563.38
699.94	17280.18
700.07	17001.65
700.20	17076.55
700.34	16971.22
700.47	16570.99
700.60	17263.79
700.73	17003.99
700.87	16587.38
701.00	16570.99
701.13	16355.66
701.26	16407.16
701.40	16194.17
701.53	16060.76
701.66	16280.77
701.79	16226.93
701.93	15999.90
702.06	15892.24
702.19	15852.45
702.32	16142.67
702.46	15950.75
702.59	15845.43
702.72	15524.77
702.85	15899.26
702.99	15634.78
703.12	15655.84
703.25	15297.74
703.38	15253.27
703.51	15328.17
703.65	15096.46
703.78	14897.51
703.91	14583.88
704.04	14616.65
704.17	14593.24
704.31	14705.59
704.44	14270.25
704.57	14310.04
704.70	14253.86
704.83	14342.80
704.96	14448.13
705.10	14258.54
705.23	13982.36
>>>>>End Processed Spectral Data<<<<<
