SpectraSuite Data File
++++++++++++++++++++++++++++++++++++
Date: Fri Oct 25 11:34:22 EDT 2013
User: price-jones
Dark Spectrum Present: No
Reference Spectrum Present: No
Number of Sampled Component Spectra: 1
Spectrometers: USB2+H05261
Integration Time (usec): 100000 (USB2+H05261)
Spectra Averaged: 1 (USB2+H05261)
Boxcar Smoothing: 0 (USB2+H05261)
Correct for Electrical Dark: No (USB2+H05261)
Strobe/Lamp Enabled: No (USB2+H05261)
Correct for Detector Non-linearity: No (USB2+H05261)
Correct for Stray Light: No (USB2+H05261)
Number of Pixels in Processed Spectrum: 2048
>>>>>Begin Processed Spectral Data<<<<<
365.73	252.78
365.92	252.78
366.12	252.78
366.32	175.54
366.52	177.88
366.72	229.37
366.91	128.73
367.11	170.86
367.31	210.65
367.51	159.16
367.70	227.03
367.90	245.76
368.10	175.54
368.30	184.90
368.49	173.20
368.69	210.65
368.89	161.50
369.09	173.20
369.28	145.11
369.48	269.16
369.68	222.35
369.87	280.86
370.07	224.69
370.27	252.78
370.47	318.31
370.66	376.83
370.86	554.71
371.06	503.22
371.25	559.39
371.45	423.64
371.65	564.07
371.84	690.46
372.04	578.11
372.24	498.53
372.44	552.37
372.63	566.41
372.83	526.62
373.03	615.56
373.22	568.75
373.42	538.32
373.62	697.48
373.81	653.01
374.01	631.94
374.21	510.24
374.40	636.63
374.60	629.60
374.79	615.56
374.99	601.52
375.19	603.86
375.38	683.44
375.58	653.01
375.78	695.14
375.97	622.58
376.17	660.03
376.37	641.31
376.56	606.20
376.76	638.97
376.95	620.24
377.15	711.52
377.35	760.67
377.54	685.78
377.74	622.58
377.93	638.97
378.13	688.12
378.33	734.93
378.52	636.63
378.72	660.03
378.91	692.80
379.11	629.60
379.31	695.14
379.50	720.88
379.70	760.67
379.89	657.69
380.09	746.63
380.28	723.23
380.48	746.63
380.68	744.29
380.87	723.23
381.07	753.65
381.26	777.06
381.46	788.76
381.65	800.46
381.85	678.76
382.04	763.01
382.24	744.29
382.43	779.40
382.63	732.59
382.83	777.06
383.02	858.98
383.22	763.01
383.41	823.87
383.61	828.55
383.80	788.76
384.00	758.33
384.19	685.78
384.39	767.70
384.58	770.04
384.78	793.44
384.97	887.06
385.17	821.53
385.36	741.95
385.56	866.00
385.75	730.25
385.95	814.51
386.14	802.80
386.34	880.04
386.53	894.08
386.72	755.99
386.92	819.19
387.11	805.14
387.31	905.79
387.50	828.55
387.70	870.68
387.89	793.44
388.09	931.53
388.28	896.43
388.48	922.17
388.67	933.87
388.86	987.71
389.06	910.47
389.25	868.34
389.45	959.62
389.64	884.72
389.84	954.94
390.03	929.19
390.22	926.85
390.42	933.87
390.61	954.94
390.81	814.51
391.00	943.24
391.19	959.62
391.39	999.41
391.58	1025.15
391.78	976.00
391.97	1039.20
392.16	1039.20
392.36	1062.60
392.55	1018.13
392.75	1025.15
392.94	1013.45
393.13	1041.54
393.33	1046.22
393.52	1050.90
393.71	1137.50
393.91	1057.92
394.10	1053.24
394.29	1020.47
394.49	1050.90
394.68	1121.12
394.88	1102.39
395.07	1142.18
395.26	1186.65
395.46	1050.90
395.65	1156.22
395.84	1172.61
396.04	1156.22
396.23	1191.33
396.42	1116.44
396.62	1186.65
396.81	1291.98
397.00	1167.93
397.19	1224.10
397.39	1275.59
397.58	1184.31
397.77	1137.50
397.97	1163.25
398.16	1212.40
398.35	1268.57
398.55	1224.10
398.74	1287.29
398.93	1291.98
399.12	1261.55
399.32	1219.42
399.51	1287.29
399.70	1249.85
399.90	1327.08
400.09	1217.08
400.28	1350.49
400.47	1247.51
400.67	1404.32
400.86	1387.94
401.05	1476.88
401.24	1303.68
401.44	1390.28
401.63	1411.34
401.82	1418.36
402.01	1399.64
402.21	1383.26
402.40	1453.47
402.59	1441.77
402.78	1493.26
402.97	1465.18
403.17	1455.81
403.36	1385.60
403.55	1568.16
403.74	1540.07
403.93	1530.71
404.13	1645.40
404.32	1565.82
404.51	1437.09
404.70	1600.93
404.89	1661.78
405.09	1575.18
405.28	1647.74
405.47	1544.75
405.66	1614.97
405.85	1633.69
406.05	1659.44
406.24	1650.08
406.43	1626.67
406.62	1750.72
406.81	1746.04
407.00	1717.95
407.20	1682.85
407.39	1799.87
407.58	1764.76
407.77	1771.79
407.96	1806.89
408.15	1783.49
408.34	1804.55
408.54	1867.75
408.73	1846.68
408.92	1818.60
409.11	1923.92
409.30	1860.73
409.49	1912.22
409.68	1888.81
409.87	1944.99
410.07	2026.90
410.26	1952.01
410.45	1975.41
410.64	2036.27
410.83	1987.11
411.02	2050.31
411.21	2050.31
411.40	2040.95
411.59	2263.30
411.78	2167.34
411.98	2190.74
412.17	2169.68
412.36	2092.44
412.55	2249.25
412.74	2223.51
412.93	2218.83
413.12	2183.72
413.31	2492.67
413.50	2326.49
413.69	2296.07
413.88	2363.94
414.07	2417.77
414.26	2394.37
414.45	2420.11
414.64	2413.09
414.83	2429.48
415.02	2483.31
415.22	2576.93
415.41	2623.74
415.60	2534.80
415.79	2647.15
415.98	2630.76
416.17	2698.64
416.36	2672.89
416.55	2541.82
416.74	2647.15
416.93	2691.62
417.12	2700.98
417.31	2778.22
417.50	2815.66
417.69	2871.84
417.88	2822.69
418.07	2895.24
418.26	2841.41
418.45	3014.61
418.64	2888.22
418.83	2970.14
419.02	2958.44
419.21	3023.97
419.39	2977.16
419.58	3023.97
419.77	2850.77
419.96	3117.59
420.15	3021.63
420.34	2963.12
420.53	2998.23
420.72	3150.36
420.91	3131.64
421.10	3077.80
421.29	3059.08
421.48	3131.64
421.67	3194.83
421.86	3131.64
422.05	3241.64
422.24	3173.77
422.43	3365.69
422.61	3169.09
422.80	3222.92
422.99	3185.47
423.18	3337.60
423.37	3337.60
423.56	3258.03
423.75	3346.97
423.94	3337.60
424.13	3119.93
424.32	3234.62
424.50	3293.13
424.69	3433.57
424.88	3389.10
425.07	3274.41
425.26	3283.77
425.45	3302.50
425.64	3286.11
425.83	3248.66
426.01	3300.16
426.20	3276.75
426.39	3325.90
426.58	3339.94
426.77	3375.05
426.96	3346.97
427.15	3365.69
427.33	3421.86
427.52	3398.46
427.71	3581.02
427.90	3482.72
428.09	3562.30
428.28	3520.17
428.46	3485.06
428.65	3585.70
428.84	3618.47
429.03	3735.50
429.22	3559.95
429.40	3641.87
429.59	3639.53
429.78	3524.85
429.97	3485.06
430.16	3623.15
430.34	3672.30
430.53	3693.37
430.72	3826.78
430.91	3686.34
431.10	3763.58
431.28	3812.73
431.47	3784.65
431.66	4039.76
431.85	3791.67
432.03	3889.97
432.22	3995.29
432.41	3983.59
432.60	3826.78
432.79	3794.01
432.97	3896.99
433.16	4002.32
433.35	4049.13
433.54	4007.00
433.72	4065.51
433.91	4032.74
434.10	4189.56
434.28	4070.19
434.47	4145.09
434.66	4219.99
434.85	4032.74
435.03	4147.43
435.22	4180.20
435.41	4100.62
435.59	4173.18
435.78	4353.40
435.97	4369.78
436.16	4271.48
436.34	4376.80
436.53	4306.59
436.72	4390.84
436.90	4248.07
437.09	4418.93
437.28	4257.43
437.46	4227.01
437.65	4479.79
437.84	4489.15
438.02	4386.16
438.21	4573.41
438.40	4344.03
438.58	4528.94
438.77	4746.61
438.96	4524.26
439.14	4669.37
439.33	4695.11
439.52	4730.22
439.70	4599.15
439.89	4842.57
440.08	4795.76
440.26	4870.65
440.45	4816.82
440.63	4926.83
440.82	4863.63
441.01	4887.04
441.19	4980.66
441.38	5006.41
441.57	5055.56
441.75	5088.32
441.94	5158.54
442.12	5217.05
442.31	5240.46
442.50	5355.15
442.68	5118.75
442.87	5158.54
443.05	5259.18
443.24	5238.12
443.43	5352.81
443.61	5242.80
443.80	5582.18
443.98	5334.08
444.17	5029.81
444.35	5413.66
444.54	5345.78
444.73	5298.97
444.91	5549.41
445.10	5383.23
445.28	5359.83
445.47	5582.18
445.65	5488.56
445.84	5603.24
446.02	5584.52
446.21	5397.28
446.39	5399.62
446.58	5680.48
446.77	5495.58
446.95	5249.82
447.14	5570.48
447.32	5558.77
447.51	5493.24
447.69	5439.40
447.88	5650.05
448.06	5453.45
448.25	5619.63
448.43	5713.25
448.62	5533.03
448.80	5715.59
448.99	5668.78
449.17	5671.12
449.36	5591.54
449.54	5867.72
449.73	5781.12
449.91	5860.70
450.10	5650.05
450.28	5820.91
450.46	6057.31
450.65	5689.84
450.83	5902.83
451.02	6059.65
451.20	6043.26
451.39	5671.12
451.57	6080.71
451.76	6012.84
451.94	5959.00
452.13	6083.05
452.31	6246.89
452.49	6005.81
452.68	5954.32
452.86	5928.58
453.05	6022.20
453.23	6225.82
453.42	6099.44
453.60	6094.76
453.78	6078.37
453.97	6057.31
454.15	6242.21
454.34	6174.33
454.52	6258.59
454.70	6284.34
454.89	6504.35
455.07	6413.07
455.26	6345.19
455.44	6387.32
455.62	6401.37
455.81	6661.16
455.99	6471.58
456.17	6509.03
456.36	6452.86
456.54	6399.02
456.73	6478.60
456.91	6761.81
457.09	6738.40
457.28	6750.10
457.46	6590.95
457.64	6789.89
457.83	6803.94
458.01	6937.35
458.19	6899.90
458.38	6829.68
458.56	6850.75
458.74	6916.28
458.93	6970.12
459.11	7122.25
459.29	6965.43
459.48	6951.39
459.66	6857.77
459.84	7260.34
460.03	7258.00
460.21	7234.60
460.39	7194.81
460.57	7101.19
460.76	7096.50
460.94	7236.94
461.12	7260.34
461.31	7178.42
461.49	7204.17
461.67	7375.03
461.85	7335.24
462.04	7428.86
462.22	7634.83
462.40	7475.67
462.59	7723.77
462.77	7403.11
462.95	7459.29
463.13	7302.47
463.32	7683.98
463.50	7489.71
463.68	7639.51
463.86	7744.83
464.05	7590.36
464.23	7667.60
464.41	7489.71
464.59	7616.10
464.78	7845.48
464.96	7693.34
465.14	7508.44
465.32	7843.14
465.50	7770.58
465.69	7873.56
465.87	7709.72
466.05	7852.50
466.23	7896.97
466.41	7985.91
466.60	8070.17
466.78	7957.82
466.96	7969.52
467.14	7878.24
467.32	7908.67
467.51	8114.64
467.69	7995.27
467.87	8018.68
468.05	8035.06
468.23	7983.57
468.41	8051.44
468.60	8194.22
468.78	8046.76
468.96	8086.55
469.14	8100.59
469.32	8400.18
469.50	8163.79
469.69	8514.87
469.87	8320.60
470.05	8402.52
470.23	8542.96
470.41	8397.84
470.59	8505.51
470.77	8578.06
470.95	8622.53
471.14	8669.34
471.32	8327.63
471.50	8856.59
471.68	8482.10
471.86	8657.64
472.04	8655.30
472.22	8987.66
472.40	8741.90
472.58	8865.95
472.77	8875.31
472.95	8795.73
473.13	9221.71
473.31	9092.98
473.49	9142.13
473.67	9116.39
473.85	9135.11
474.03	9198.31
474.21	9329.38
474.39	9399.59
474.57	9687.48
474.75	9483.85
474.93	9535.34
475.12	9500.23
475.30	9802.16
475.48	9617.26
475.66	9657.05
475.84	9778.76
476.02	9926.21
476.20	9811.53
476.38	9916.85
476.56	10171.97
476.74	10277.29
476.92	10197.71
477.10	10031.54
477.28	10272.61
477.46	10181.33
477.64	10417.72
477.82	10532.41
478.00	10993.50
478.18	10672.84
478.36	10623.69
478.54	11108.18
478.72	11063.71
478.90	11243.93
479.08	10970.09
479.26	11330.53
479.44	11169.04
479.62	11492.03
479.80	11382.03
479.98	11529.48
480.16	11751.83
480.34	11571.61
480.52	11786.94
480.70	11770.55
480.88	11468.62
481.06	11861.84
481.24	12098.23
481.41	12138.02
481.59	12135.68
481.77	12519.53
481.95	12390.80
482.13	12636.55
482.31	12610.81
482.49	12989.97
482.67	13043.81
482.85	12753.58
483.03	13097.64
483.21	13303.60
483.39	13020.40
483.57	13137.43
483.74	13420.63
483.92	13448.72
484.10	13315.31
484.28	13640.64
484.46	13860.65
484.64	13898.10
484.82	13813.84
485.00	14239.82
485.18	14134.50
485.35	14679.84
485.53	14506.64
485.71	14705.59
485.89	14953.68
486.07	14771.12
486.25	14897.51
486.43	14963.04
486.61	15089.43
486.78	15129.22
486.96	15169.01
487.14	15529.45
487.32	15761.17
487.50	15602.01
487.68	15672.23
487.85	16027.99
488.03	16182.46
488.21	16294.81
488.39	16201.19
488.57	16367.37
488.75	16641.21
488.92	16882.28
489.10	16709.08
489.28	16559.29
489.46	17137.40
489.64	17149.11
489.81	17657.00
489.99	17425.29
490.17	17312.94
490.35	17806.80
490.53	17729.56
490.70	17846.58
490.88	17593.81
491.06	18265.54
491.24	18256.18
491.41	18307.67
491.59	18497.25
491.77	18209.37
491.95	18848.33
492.13	18768.76
492.30	18965.36
492.48	18792.16
492.66	19262.61
492.84	19360.91
493.01	19236.86
493.19	19187.71
493.37	19501.34
493.54	19529.43
493.72	19723.69
493.90	19908.60
494.08	20009.24
494.25	20369.68
494.43	20180.10
494.61	20460.96
494.79	20353.30
494.96	20418.83
495.14	20830.77
495.32	20645.87
495.49	20781.62
495.67	20994.61
495.85	21074.18
496.02	21106.95
496.20	21383.13
496.38	21441.65
496.55	21706.13
496.73	21895.71
496.91	21865.28
497.09	22136.79
497.26	21956.57
497.44	22040.82
497.62	22279.56
497.79	22759.37
497.97	22356.80
498.14	22745.33
498.32	22806.18
498.50	22724.26
498.67	23082.36
498.85	22944.27
499.03	23016.83
499.20	23019.17
499.38	22946.61
499.56	23407.70
499.73	23276.63
499.91	23388.97
500.08	23838.36
500.26	23931.98
500.44	23733.03
500.61	23971.77
500.79	23854.74
500.97	24027.94
501.14	24596.69
501.32	24374.34
501.49	24290.08
501.67	24489.03
501.84	24692.65
502.02	24482.00
502.20	24269.01
502.37	24947.77
502.55	24793.29
502.72	24720.74
502.90	24933.73
503.07	24882.24
503.25	25111.61
503.43	24900.96
503.60	25607.80
503.78	25254.38
503.95	25495.46
504.13	25663.97
504.30	25727.17
504.48	25369.07
504.65	25596.10
504.83	26094.63
505.01	25996.33
505.18	26216.34
505.36	26555.72
505.53	26024.42
505.71	26291.24
505.88	26174.21
506.06	25853.56
506.23	26691.47
506.41	26829.56
506.58	26817.86
506.76	26747.64
506.93	27168.94
507.11	27019.14
507.28	27122.13
507.46	26932.54
507.63	27164.26
507.81	27421.72
507.98	26909.14
508.16	27145.53
508.33	27363.20
508.50	27583.21
508.68	27695.56
508.85	28067.70
509.03	27505.98
509.20	27723.65
509.38	28250.27
509.55	27981.10
509.73	28032.60
509.90	27761.09
510.08	28313.46
510.25	27967.06
510.42	28098.13
510.60	28673.90
510.77	28641.14
510.95	29226.27
511.12	28840.08
511.30	28624.75
511.47	28603.69
511.64	29106.90
511.82	29060.09
511.99	29064.77
512.17	29074.13
512.34	29078.82
512.51	29209.89
512.69	29900.34
512.86	29881.62
513.04	30043.12
513.21	29619.48
513.38	29834.81
513.56	30047.80
513.73	29790.34
513.90	29750.55
514.08	30335.68
514.25	30068.86
514.43	30410.58
514.60	29975.24
514.77	30040.78
514.95	30663.36
515.12	30256.11
515.29	30398.88
515.47	30726.55
515.64	30845.92
515.81	30656.34
515.99	31171.25
516.16	31091.68
516.33	30895.07
516.51	31117.42
516.68	31199.34
516.85	31035.50
517.03	30976.99
517.20	31754.05
517.37	31405.31
517.54	31402.97
517.72	31475.52
517.89	31828.95
518.06	31857.03
518.24	31894.48
518.41	31936.61
518.58	31758.73
518.75	31618.30
518.93	32320.46
519.10	31885.12
519.27	32414.08
519.45	32252.58
519.62	32306.41
519.79	32339.18
519.96	32332.16
520.14	32617.71
520.31	32414.08
520.48	32247.90
520.65	32622.39
520.83	33177.09
521.00	32830.69
521.17	33191.14
521.34	33202.84
521.52	32776.86
521.69	32889.21
521.86	33174.75
522.03	33436.89
522.20	33802.02
522.38	34003.30
522.55	33556.26
522.72	33731.80
522.89	33542.22
523.07	34096.92
523.24	33886.28
523.41	33750.52
523.58	33472.00
523.75	33741.16
523.92	34330.98
524.10	34593.12
524.27	34501.84
524.44	34611.84
524.61	34438.64
524.78	34162.46
524.96	34916.11
525.13	34478.43
525.30	34712.49
525.47	34574.39
525.64	34799.08
525.81	34597.80
525.98	35042.50
526.16	34991.01
526.33	34979.31
526.50	35115.06
526.67	34892.71
526.84	35243.79
527.01	35101.01
527.18	35014.41
527.36	35545.72
527.53	35459.12
527.70	35536.35
527.87	35566.78
528.04	35730.62
528.21	35351.45
528.38	35489.54
528.55	35580.82
528.72	35756.36
528.89	35758.70
529.07	35522.31
529.24	35981.06
529.41	36032.55
529.58	35927.22
529.75	35835.94
529.92	36451.50
530.09	36189.36
530.26	36320.43
530.43	36299.37
530.60	35784.45
530.77	35959.99
530.94	36559.17
531.11	36397.67
531.28	36524.06
531.46	36620.02
531.63	36802.58
531.80	36685.56
531.97	37064.72
532.14	36662.15
532.31	36919.61
532.48	36844.71
532.65	37125.58
532.82	36823.65
532.99	37174.73
533.16	37067.06
533.33	37404.10
533.50	37237.92
533.67	37504.74
533.84	37195.79
534.01	36910.25
534.18	37022.59
534.35	37734.12
534.52	37731.78
534.69	37556.24
534.86	38337.98
535.03	37551.56
535.20	37909.66
535.37	37963.49
535.54	38120.31
535.71	37691.99
535.88	38225.63
536.05	38124.99
536.22	38253.72
536.38	38003.28
536.55	38068.81
536.72	37968.17
536.89	37792.63
537.06	37923.70
537.23	38457.34
537.40	38113.28
537.57	38054.77
537.74	38405.85
537.91	38829.49
538.08	38424.57
538.25	38679.69
538.42	38820.13
538.59	38148.39
538.75	38213.93
538.92	38902.04
539.09	38930.13
539.26	39428.66
539.43	38862.26
539.60	38941.83
539.77	38656.29
539.94	39309.30
540.11	39494.20
540.28	38820.13
540.44	39136.10
540.61	39070.56
540.78	39012.05
540.95	38944.17
541.12	39358.45
541.29	39297.59
541.46	39515.26
541.62	39564.42
541.79	39550.37
541.96	39243.76
542.13	39655.70
542.30	39866.34
542.47	40009.12
542.63	40121.46
542.80	40210.40
542.97	40105.08
543.14	40128.48
543.31	39756.34
543.48	40266.58
543.64	40612.98
543.81	40341.47
543.98	40275.94
544.15	40278.28
544.32	40620.00
544.48	41015.55
544.65	40655.11
544.82	40622.34
544.99	40020.82
545.16	40147.21
545.32	40587.23
545.49	40830.65
545.66	40666.81
545.83	41043.63
546.00	41305.77
546.16	40690.21
546.33	40973.42
546.50	41277.69
546.67	41109.17
546.83	40821.28
547.00	41202.79
547.17	41153.64
547.34	41127.89
547.50	41193.43
547.67	41464.93
547.84	41385.35
548.00	41315.14
548.17	41764.52
548.34	41703.67
548.51	41326.84
548.67	41687.28
548.84	41661.54
549.01	41755.16
549.18	41778.56
549.34	41970.49
549.51	41638.13
549.68	41729.41
549.84	41876.86
550.01	41649.83
550.18	41762.18
550.34	41659.20
550.51	41801.97
550.68	41785.58
550.84	41741.11
551.01	42403.49
551.18	41652.17
551.34	41916.65
551.51	42560.30
551.68	42003.25
551.84	41961.12
552.01	41982.19
552.18	42359.02
552.34	42368.38
552.51	42593.07
552.68	42342.63
552.84	42452.64
553.01	42651.58
553.18	42674.99
553.34	42176.45
553.51	42691.37
553.67	42700.73
553.84	42801.38
554.01	43077.56
554.17	43171.18
554.34	43388.85
554.51	42836.48
554.67	43201.61
554.84	42597.75
555.00	42478.38
555.17	42930.11
555.33	43061.18
555.50	43012.02
555.67	43241.40
555.83	42618.81
556.00	43283.53
556.16	43562.05
556.33	43318.64
556.50	43243.74
556.66	42831.80
556.83	42871.59
556.99	43613.54
557.16	43353.74
557.32	43372.47
557.49	43384.17
557.65	43138.41
557.82	43335.02
557.98	43615.88
558.15	43421.62
558.32	43159.48
558.48	43370.13
558.65	43463.75
558.81	43430.98
558.98	43594.82
559.14	43356.08
559.31	43290.55
559.47	43618.22
559.64	43416.94
559.80	43714.19
559.97	43730.57
560.13	43529.28
560.30	43821.85
560.46	44044.20
560.63	43763.34
560.79	44098.03
560.96	44484.22
561.12	43962.28
561.29	43779.72
561.45	44051.22
561.61	43709.50
561.78	43985.69
561.94	43716.53
562.11	43859.30
562.27	44289.96
562.44	44224.42
562.60	44495.92
562.77	43737.59
562.93	44006.75
563.10	43936.54
563.26	44320.38
563.42	44432.73
563.59	44320.38
563.75	43807.81
563.92	44093.35
564.08	44135.48
564.24	44467.84
564.41	44194.00
564.57	44409.32
564.74	44435.07
564.90	44130.80
565.07	44210.38
565.23	44694.87
565.39	44556.78
565.56	44580.18
565.72	44135.48
565.88	44264.21
566.05	44348.47
566.21	44278.25
566.38	44201.02
566.54	44474.86
566.70	44549.76
566.87	44849.35
567.03	44376.56
567.19	44308.68
567.36	44547.42
567.52	44566.14
567.68	44879.77
567.85	44589.55
568.01	44697.21
568.17	45125.53
568.34	44856.37
568.50	44657.42
568.66	44631.68
568.83	44741.68
568.99	44694.87
569.15	45195.74
569.32	45071.70
569.48	44720.62
569.64	44982.76
569.81	44828.28
569.97	44917.22
570.13	44982.76
570.30	44685.51
570.46	45083.40
570.62	45247.24
570.78	44580.18
570.95	44816.58
571.11	45289.37
571.27	44886.79
571.43	44861.05
571.60	45125.53
571.76	44694.87
571.92	44669.12
572.09	45263.62
572.25	45186.38
572.41	44985.10
572.57	45146.59
572.74	45446.18
572.90	45134.89
573.06	45209.79
573.22	45289.37
573.38	45483.63
573.55	45228.51
573.71	45291.71
573.87	45125.53
574.03	44931.26
574.20	45071.70
574.36	45052.97
574.52	45387.67
574.68	45057.65
574.84	45586.61
575.01	45429.80
575.17	45378.31
575.33	45366.60
575.49	44863.39
575.65	45654.49
575.82	45331.50
575.98	45020.20
576.14	45418.10
576.30	45729.39
576.46	45677.90
576.62	45254.26
576.79	44870.41
576.95	44783.81
577.11	45041.27
577.27	45329.16
577.43	45226.17
577.59	45151.27
577.75	45448.52
577.92	45144.25
578.08	45097.44
578.24	45347.88
578.40	45808.96
578.56	45563.21
578.72	45261.28
578.88	45282.34
579.04	45584.27
579.21	45485.97
579.37	45329.16
579.53	45722.37
579.69	45474.27
579.85	45263.62
580.01	45453.20
580.17	45263.62
580.33	45717.68
580.49	45469.59
580.65	45528.10
580.82	45113.83
580.98	45287.03
581.14	45352.56
581.30	45446.18
581.46	45322.13
581.62	45691.94
581.78	45436.82
581.94	45663.85
582.10	45287.03
582.26	45755.13
582.42	45146.59
582.58	45539.80
582.74	45303.41
582.90	45584.27
583.06	45563.21
583.22	44999.14
583.38	45408.73
583.54	45680.24
583.70	45404.05
583.86	45532.78
584.02	45591.30
584.18	45832.37
584.34	45394.69
584.50	45951.74
584.66	45815.99
584.82	46045.36
584.98	45876.84
585.14	45799.60
585.30	45605.34
585.46	45652.15
585.62	45579.59
585.78	45558.53
585.94	45228.51
586.10	45769.18
586.26	45258.94
586.42	45659.17
586.58	45680.24
586.74	45720.02
586.90	45551.51
587.06	45022.54
587.22	45635.77
587.38	45560.87
587.54	45701.30
587.70	46113.23
587.86	45940.04
588.02	45565.55
588.18	46068.76
588.34	45450.86
588.49	45815.99
588.65	45724.71
588.81	45916.63
588.97	46211.54
589.13	45579.59
589.29	46024.29
589.45	45853.44
589.61	45764.49
589.77	46295.80
589.93	45841.73
590.08	46199.83
590.24	46153.02
590.40	46302.82
590.56	46246.65
590.72	46314.52
590.88	45925.99
591.04	45530.44
591.20	46300.48
591.35	46354.31
591.51	46520.49
591.67	46169.41
591.83	46281.75
591.99	46157.70
592.15	45998.55
592.31	45975.14
592.46	45713.00
592.62	45794.92
592.78	46548.57
592.94	46431.55
593.10	46220.90
593.26	46246.65
593.41	46492.40
593.57	46391.76
593.73	46312.18
593.89	46937.10
594.05	46288.77
594.20	46506.44
594.36	46532.19
594.52	46223.24
594.68	46398.78
594.84	46438.57
594.99	46525.17
595.15	46333.24
595.31	46305.16
595.47	46216.22
595.62	46490.06
595.78	46148.34
595.94	46225.58
596.10	46410.48
596.25	46129.62
596.41	46574.32
596.57	46403.46
596.73	46564.96
596.88	46380.06
597.04	46270.05
597.20	46546.23
597.36	46424.53
597.51	46862.21
597.67	46169.41
597.83	46604.75
597.99	46649.22
598.14	46106.21
598.30	46799.01
598.46	46330.90
598.61	46944.12
598.77	46721.77
598.93	46326.22
599.09	46824.76
599.24	46852.84
599.40	46478.36
599.56	46904.34
599.71	46581.34
599.87	47077.54
600.03	46550.91
600.18	46651.56
600.34	46277.07
600.50	46679.64
600.65	46672.62
600.81	47110.30
600.97	46625.81
601.12	46660.92
601.28	47040.09
601.44	46389.42
601.59	46478.36
601.75	46637.51
601.91	46803.69
602.06	46721.77
602.22	46869.23
602.37	46894.97
602.53	46787.31
602.69	46438.57
602.84	46241.96
603.00	46728.80
603.16	46700.71
603.31	46576.66
603.47	46773.27
603.62	46642.20
603.78	46740.50
603.94	46569.64
604.09	46740.50
604.25	46300.48
604.40	46850.50
604.56	46464.32
604.71	46806.03
604.87	46330.90
605.03	46155.36
605.18	46485.38
605.34	46705.39
605.49	46408.14
605.65	46674.96
605.80	46424.53
605.96	46700.71
606.12	46670.28
606.27	46457.29
606.43	46206.86
606.58	46614.11
606.74	46349.63
606.89	46525.17
607.05	46595.38
607.20	46719.43
607.36	46368.35
607.51	46494.74
607.67	46461.97
607.82	46871.57
607.98	46241.96
608.13	46436.23
608.29	46096.85
608.44	46518.15
608.60	46164.73
608.75	46422.19
608.91	45916.63
609.06	45956.42
609.22	46199.83
609.37	45752.79
609.53	46429.21
609.68	46794.33
609.84	46286.43
609.99	45933.01
610.15	46639.86
610.30	46216.22
610.46	46344.95
610.61	46131.96
610.76	46651.56
610.92	46300.48
611.07	46080.47
611.23	45830.03
611.38	46197.49
611.54	46082.81
611.69	46101.53
611.84	46241.96
612.00	45621.72
612.15	46040.68
612.31	46059.40
612.46	45579.59
612.62	45977.48
612.77	45848.75
612.92	46183.45
613.08	45584.27
613.23	46284.09
613.39	45853.44
613.54	45911.95
613.69	45914.29
613.85	45752.79
614.00	45542.14
614.15	46160.05
614.31	45872.16
614.46	45661.51
614.62	45549.17
614.77	45823.01
614.92	45481.29
615.08	45691.94
615.23	46010.25
615.38	45902.59
615.54	45696.62
615.69	45874.50
615.84	45907.27
616.00	45991.53
616.15	46064.08
616.30	45443.84
616.46	45399.37
616.61	45762.15
616.76	45595.98
616.92	45558.53
617.07	45605.34
617.22	45380.65
617.37	45034.25
617.53	45509.38
617.68	45448.52
617.83	45446.18
617.99	46047.70
618.14	45762.15
618.29	45090.42
618.45	45476.61
618.60	45289.37
618.75	45216.81
618.90	45116.17
619.06	45268.30
619.21	45483.63
619.36	45432.14
619.51	45284.68
619.67	45350.22
619.82	45394.69
619.97	45542.14
620.12	44907.86
620.28	45338.52
620.43	45387.67
620.58	45338.52
620.73	45212.13
620.89	45141.91
621.04	45172.34
621.19	45535.12
621.34	44821.26
621.49	44903.18
621.65	45020.20
621.80	45345.54
621.95	45516.40
622.10	44975.73
622.25	45123.19
622.41	45354.90
622.56	44940.63
622.71	44959.35
622.86	44954.67
623.01	45038.93
623.16	44760.40
623.32	44603.59
623.47	44481.88
623.62	44617.63
623.77	44865.73
623.92	44903.18
624.07	44783.81
624.23	45275.32
624.38	44645.72
624.53	45071.70
624.68	44598.91
624.83	44531.03
624.98	44680.83
625.13	44266.55
625.29	44278.25
625.44	44385.92
625.59	44385.92
625.74	44392.94
625.89	44685.51
626.04	43999.73
626.19	44474.86
626.34	43973.98
626.49	44676.15
626.65	43906.11
626.80	44201.02
626.95	43899.09
627.10	43791.42
627.25	44383.58
627.40	44463.16
627.55	44208.04
627.70	43952.92
627.85	44121.44
628.00	44006.75
628.15	44020.80
628.30	43597.16
628.45	43711.84
628.60	43704.82
628.76	43821.85
628.91	44196.34
629.06	43316.29
629.21	44048.88
629.36	43871.00
629.51	43650.99
629.66	44233.78
629.81	43604.18
629.96	44093.35
630.11	43482.47
630.26	43739.93
630.41	43992.71
630.56	43571.41
630.71	43789.08
630.86	43395.87
631.01	43264.80
631.16	43402.89
631.31	43810.15
631.46	43761.00
631.61	43641.63
631.76	43660.35
631.91	43716.53
632.06	44100.37
632.21	43775.04
632.36	43819.51
632.51	43569.07
632.66	43522.26
632.81	42932.45
632.96	43171.18
633.10	43587.80
633.25	42979.26
633.40	43096.28
633.55	43337.36
633.70	43047.13
633.85	42689.03
634.00	43325.66
634.15	42614.13
634.30	43014.37
634.45	43330.34
634.60	43299.91
634.75	43194.59
634.90	43203.95
635.05	43058.84
635.19	43129.05
635.34	43260.12
635.49	42630.52
635.64	43201.61
635.79	43115.01
635.94	43070.54
636.09	42981.60
636.24	42768.61
636.39	43030.75
636.53	43323.32
636.68	42443.27
636.83	42887.98
636.98	42412.85
637.13	42382.42
637.28	42698.39
637.43	42223.26
637.57	42763.93
637.72	42155.39
637.87	42520.51
638.02	42464.34
638.17	42464.34
638.32	42497.11
638.46	42438.59
638.61	42188.16
638.76	42234.97
638.91	42122.62
639.06	42759.25
639.20	42054.75
639.35	41993.89
639.50	42036.02
639.65	41804.31
639.80	42457.32
639.94	42244.33
640.09	42574.34
640.24	42316.89
640.39	41769.20
640.54	41745.80
640.68	42279.44
640.83	41968.15
640.98	41984.53
641.13	41673.24
641.27	42295.82
641.42	42045.38
641.57	41869.84
641.72	41797.29
641.86	41352.58
642.01	41851.12
642.16	41755.16
642.31	41202.79
642.45	41598.34
642.60	41324.50
642.75	41818.35
642.90	41631.11
643.04	41523.44
643.19	41666.22
643.34	41394.71
643.48	40832.99
643.63	41172.36
643.78	41642.81
643.93	41659.20
644.07	41668.56
644.22	41481.31
644.37	41198.11
644.51	41612.38
644.66	41551.53
644.81	41106.83
644.95	41490.68
645.10	41394.71
645.25	41336.20
645.39	40917.25
645.54	40896.18
645.69	41048.32
645.83	40559.14
645.98	40849.37
646.13	40673.83
646.27	40898.52
646.42	40659.79
646.57	41214.49
646.71	40996.82
646.86	41331.52
647.00	40715.96
647.15	41261.30
647.30	41345.56
647.44	41361.95
647.59	40297.00
647.74	41001.50
647.88	41017.89
648.03	41240.24
648.17	41322.16
648.32	40985.12
648.47	40996.82
648.61	40708.94
648.76	40807.24
648.90	40219.77
649.05	40767.45
649.20	40783.83
649.34	40971.08
649.49	40627.02
649.63	40612.98
649.78	40673.83
649.92	40582.55
650.07	41397.06
650.21	40772.13
650.36	40987.46
650.51	40409.35
650.65	40500.63
650.80	40912.56
650.94	40755.75
651.09	40744.05
651.23	40271.26
651.38	40177.64
651.52	40123.80
651.67	40416.37
651.81	40346.15
651.96	40488.93
652.10	39988.05
652.25	40149.55
652.39	39758.68
652.54	40292.32
652.68	40116.78
652.83	39838.26
652.97	40088.70
653.12	40191.68
653.26	39782.09
653.41	40027.84
653.55	40378.92
653.70	40198.70
653.84	40271.26
653.99	40086.36
654.13	40032.52
654.27	39805.49
654.42	39805.49
654.56	39742.30
654.71	39746.98
654.85	39873.37
655.00	40095.72
655.14	40109.76
655.29	40114.44
655.43	40437.44
655.57	39372.49
655.72	39442.71
655.86	39739.96
656.01	39519.95
656.15	39423.98
656.30	39360.79
656.44	39140.78
656.58	39606.55
656.73	39248.44
656.87	39105.67
657.01	38707.78
657.16	39643.99
657.30	39253.12
657.45	39257.81
657.59	38974.60
657.73	39129.08
657.88	39234.40
658.02	39330.36
658.16	39201.63
658.31	39311.64
658.45	39428.66
658.60	38813.10
658.74	38738.21
658.88	39407.60
659.03	38506.49
659.17	39173.55
659.31	38944.17
659.46	38476.07
659.60	38775.66
659.74	38920.77
659.89	38478.41
660.03	38328.61
660.17	38497.13
660.32	38621.18
660.46	38286.48
660.60	38225.63
660.74	38279.46
660.89	38328.61
661.03	38277.12
661.17	38012.64
661.32	37848.80
661.46	37853.48
661.60	38108.60
661.74	38298.19
661.89	37771.57
662.03	38082.86
662.17	38295.85
662.31	37502.40
662.46	38244.35
662.60	37439.21
662.74	37525.81
662.88	37549.21
663.03	37331.54
663.17	37364.31
663.31	37336.23
663.45	37434.53
663.60	37406.44
663.74	37212.18
663.88	37109.19
664.02	37415.80
664.17	37249.63
664.31	37153.66
664.45	36954.72
664.59	36833.01
664.73	37172.39
664.88	36938.33
665.02	36474.91
665.16	36470.23
665.30	36704.28
665.44	37013.23
665.59	36524.06
665.73	36395.33
665.87	36189.36
666.01	36552.15
666.15	36334.48
666.29	36091.06
666.44	36301.71
666.58	36161.28
666.72	36343.84
666.86	36065.31
667.00	35772.75
667.14	36154.26
667.28	36074.68
667.43	36245.54
667.57	36231.49
667.71	36006.80
667.85	35995.10
667.99	35810.20
668.13	36055.95
668.27	35222.72
668.41	35543.38
668.56	34747.59
668.70	35402.94
668.84	34845.90
668.98	35009.73
669.12	35007.39
669.26	35622.95
669.40	34881.00
669.54	35208.68
669.68	35180.59
669.82	34824.83
669.96	34522.90
670.10	34754.61
670.25	34930.16
670.39	34440.98
670.53	34726.53
670.67	34546.31
670.81	34508.86
670.95	34525.24
671.09	34471.41
671.23	34352.04
671.37	34569.71
671.51	34483.11
671.65	34363.75
671.79	34211.61
671.93	34202.25
672.07	34139.05
672.21	34286.51
672.35	33713.08
672.49	33762.23
672.63	33699.03
672.77	33844.15
672.91	33514.13
673.05	33219.22
673.19	33434.55
673.33	33483.70
673.47	33472.00
673.61	33364.34
673.75	33282.42
673.89	32945.38
674.03	32996.87
674.17	32624.73
674.31	32423.44
674.45	32643.45
674.59	32610.68
674.73	32547.49
674.87	32203.43
675.01	32390.67
675.15	32428.12
675.29	32140.24
675.43	32334.50
675.56	32488.98
675.70	31955.33
675.84	32032.57
675.98	30742.94
676.12	31522.34
676.26	31868.73
676.40	31936.61
676.54	31459.14
676.68	31220.41
676.82	30663.36
676.96	31136.15
677.10	31192.32
677.23	31372.54
677.37	30927.84
677.51	30852.94
677.65	30864.64
677.79	30710.17
677.93	30909.11
678.07	30483.14
678.21	30476.12
678.34	29575.01
678.48	30078.22
678.62	30068.86
678.76	30036.09
678.90	30103.97
679.04	30169.51
679.18	29605.44
679.31	29738.85
679.45	29523.52
679.59	29291.80
679.73	29495.43
679.87	28938.38
680.00	29385.43
680.14	28804.97
680.28	29142.01
680.42	29071.79
680.56	28596.67
680.70	28060.68
680.83	28512.41
680.97	28210.48
681.11	28247.93
681.25	28278.35
681.39	28027.92
681.52	28137.92
681.66	28173.03
681.80	27536.40
681.94	27641.73
682.07	27386.61
682.21	27550.45
682.35	27658.11
682.49	27501.29
682.62	27899.19
682.76	27796.20
682.90	27379.59
683.04	27218.09
683.17	27194.68
683.31	26728.92
683.45	26834.24
683.59	26473.80
683.72	26422.31
683.86	26356.77
684.00	26405.92
684.13	26316.98
684.27	25778.66
684.41	26113.36
684.55	26214.00
684.68	25926.11
684.82	25673.34
684.96	25886.32
685.09	25757.60
685.23	25603.12
685.37	26113.36
685.50	26085.27
685.64	25713.13
685.78	25235.66
685.91	25216.93
686.05	24795.64
686.19	24938.41
686.32	24821.38
686.46	24294.76
686.60	24584.99
686.73	24720.74
686.87	24575.62
687.01	24697.33
687.14	24545.20
687.28	24102.84
687.42	24173.05
687.55	24205.82
687.69	24105.18
687.82	23782.18
687.96	24051.34
688.10	24018.58
688.23	23850.06
688.37	23920.28
688.50	23859.42
688.64	23510.68
688.78	23377.27
688.91	23527.06
689.05	23335.14
689.18	22946.61
689.32	22689.15
689.46	22883.42
689.59	22850.65
689.73	22909.16
689.86	23028.53
690.00	22780.43
690.13	22670.43
690.27	22522.98
690.41	22436.38
690.54	22050.19
690.68	22139.13
690.81	21895.71
690.95	21905.07
691.08	21752.94
691.22	21928.48
691.35	21146.74
691.49	21724.85
691.62	21635.91
691.76	21518.89
691.89	21085.89
692.03	20664.59
692.16	20938.43
692.30	21280.15
692.43	21010.99
692.57	20669.27
692.70	20823.75
692.84	20685.65
692.97	20161.37
693.11	20439.90
693.24	20163.72
693.38	20072.43
693.51	20072.43
693.65	20100.52
693.78	19756.46
693.92	19974.13
694.05	19962.43
694.19	19765.82
694.32	19587.94
694.45	19913.28
694.59	19847.74
694.72	19969.45
694.86	19489.64
694.99	19264.95
695.13	19199.41
695.26	19042.60
695.39	19002.81
695.53	19016.85
695.66	18850.67
695.80	18731.31
695.93	18728.97
696.07	18590.88
696.20	18223.41
696.33	18256.18
696.47	18015.10
696.60	18005.74
696.73	18429.38
696.87	18148.51
697.00	17994.04
697.14	17872.33
697.27	17748.28
697.40	17603.17
697.54	17928.50
697.67	17706.15
697.80	17600.83
697.94	17444.01
698.07	17661.68
698.21	17418.27
698.34	17158.47
698.47	17235.70
698.61	16802.71
698.74	16961.86
698.87	16954.84
699.01	16528.86
699.14	16868.24
699.27	16692.70
699.40	16348.64
699.54	16140.33
699.67	16320.56
699.80	16486.73
699.94	16245.66
700.07	16259.70
700.20	16042.03
700.34	15971.82
700.47	15953.09
700.60	16126.29
700.73	15716.70
700.87	15524.77
701.00	15632.44
701.13	15775.21
701.26	15672.23
701.40	15379.66
701.53	15328.17
701.66	15454.56
701.79	15082.41
701.93	14930.28
702.06	14740.69
702.19	14834.32
702.32	14974.75
702.46	15110.50
702.59	15077.73
702.72	14899.85
702.85	14665.80
702.99	14656.43
703.12	14675.16
703.25	14242.16
703.38	14644.73
703.51	14195.35
703.65	14139.18
703.78	13937.89
703.91	13802.14
704.04	13937.89
704.17	13919.17
704.31	13895.76
704.44	14118.11
704.57	13722.56
704.70	13748.31
704.83	13460.42
704.96	13495.53
705.10	13343.39
705.23	13090.62
>>>>>End Processed Spectral Data<<<<<
