SpectraSuite Data File
++++++++++++++++++++++++++++++++++++
Date: Fri Oct 25 11:33:11 EDT 2013
User: price-jones
Dark Spectrum Present: No
Reference Spectrum Present: No
Number of Sampled Component Spectra: 1
Spectrometers: USB2+H05261
Integration Time (usec): 100000 (USB2+H05261)
Spectra Averaged: 1 (USB2+H05261)
Boxcar Smoothing: 0 (USB2+H05261)
Correct for Electrical Dark: No (USB2+H05261)
Strobe/Lamp Enabled: No (USB2+H05261)
Correct for Detector Non-linearity: No (USB2+H05261)
Correct for Stray Light: No (USB2+H05261)
Number of Pixels in Processed Spectrum: 2048
>>>>>Begin Processed Spectral Data<<<<<
365.73	243.42
365.92	243.42
366.12	243.42
366.32	248.10
366.52	119.37
366.72	224.69
366.91	177.88
367.11	166.18
367.31	135.75
367.51	131.07
367.70	84.26
367.90	198.95
368.10	212.99
368.30	222.35
368.49	166.18
368.69	269.16
368.89	215.33
369.09	180.22
369.28	196.60
369.48	229.37
369.68	194.26
369.87	203.63
370.07	180.22
370.27	315.97
370.47	252.78
370.66	510.24
370.86	545.34
371.06	585.13
371.25	498.53
371.45	514.92
371.65	547.69
371.84	575.77
372.04	507.90
372.24	557.05
372.44	538.32
372.63	596.84
372.83	554.71
373.03	594.50
373.22	613.22
373.42	589.82
373.62	566.41
373.81	545.34
374.01	629.60
374.21	636.63
374.40	664.71
374.60	650.67
374.79	655.35
374.99	634.29
375.19	683.44
375.38	589.82
375.58	648.33
375.78	664.71
375.97	641.31
376.17	669.39
376.37	706.84
376.56	720.88
376.76	650.67
376.95	678.76
377.15	643.65
377.35	671.73
377.54	753.65
377.74	704.50
377.93	690.46
378.13	634.29
378.33	669.39
378.52	645.99
378.72	788.76
378.91	770.04
379.11	734.93
379.31	702.16
379.50	755.99
379.70	814.51
379.89	718.54
380.09	727.91
380.28	634.29
380.48	713.86
380.68	730.25
380.87	737.27
381.07	732.59
381.26	777.06
381.46	800.46
381.65	770.04
381.85	758.33
382.04	823.87
382.24	751.31
382.43	819.19
382.63	861.32
382.83	807.48
383.02	875.36
383.22	835.57
383.41	763.01
383.61	826.21
383.80	800.46
384.00	777.06
384.19	826.21
384.39	870.68
384.58	858.98
384.78	760.67
384.97	891.74
385.17	858.98
385.36	849.61
385.56	833.23
385.75	828.55
385.95	842.59
386.14	873.02
386.34	882.38
386.53	873.02
386.72	781.74
386.92	851.96
387.11	823.87
387.31	931.53
387.50	851.96
387.70	905.79
387.89	968.98
388.09	868.34
388.28	835.57
388.48	884.72
388.67	887.06
388.86	952.60
389.06	950.26
389.25	915.15
389.45	957.28
389.64	966.64
389.84	1032.18
390.03	1036.86
390.22	933.87
390.42	999.41
390.61	908.13
390.81	966.64
391.00	961.96
391.19	936.21
391.39	910.47
391.58	1001.75
391.78	1011.11
391.97	1006.43
392.16	1053.24
392.36	1027.50
392.55	1109.41
392.75	1001.75
392.94	1004.09
393.13	1060.26
393.33	1025.15
393.52	990.05
393.71	1198.35
393.91	1132.82
394.10	1165.59
394.29	1163.25
394.49	1160.91
394.68	1111.75
394.88	1123.46
395.07	1100.05
395.26	1170.27
395.46	1200.69
395.65	1114.10
395.84	1219.42
396.04	1240.48
396.23	1207.72
396.42	1128.14
396.62	1228.78
396.81	1273.25
397.00	1121.12
397.19	1252.19
397.39	1263.89
397.58	1277.93
397.77	1233.46
397.97	1275.59
398.16	1245.16
398.35	1341.13
398.55	1238.14
398.74	1324.74
398.93	1303.68
399.12	1327.08
399.32	1284.95
399.51	1320.06
399.70	1287.29
399.90	1387.94
400.09	1313.04
400.28	1371.55
400.47	1387.94
400.67	1376.24
400.86	1451.13
401.05	1465.18
401.24	1383.26
401.44	1434.75
401.63	1465.18
401.82	1455.81
402.01	1411.34
402.21	1416.02
402.40	1495.60
402.59	1437.09
402.78	1514.33
402.97	1507.30
403.17	1556.46
403.36	1547.09
403.55	1575.18
403.74	1706.25
403.93	1605.61
404.13	1652.42
404.32	1631.35
404.51	1643.06
404.70	1640.72
404.89	1673.48
405.09	1708.59
405.28	1760.08
405.47	1657.10
405.66	1687.53
405.85	1755.40
406.05	1757.74
406.24	1764.76
406.43	1806.89
406.62	1830.30
406.81	1797.53
407.00	1748.38
407.20	1717.95
407.39	1790.51
407.58	1750.72
407.77	1963.71
407.96	1905.20
408.15	1877.11
408.34	1884.13
408.54	1956.69
408.73	1984.77
408.92	1973.07
409.11	1942.64
409.30	2012.86
409.49	1973.07
409.68	2012.86
409.87	2003.50
410.07	2078.40
410.26	2113.50
410.45	2136.91
410.64	2038.61
410.83	2157.97
411.02	2193.08
411.21	2284.36
411.40	2214.15
411.59	2256.28
411.78	2139.25
411.98	2216.49
412.17	2312.45
412.36	2275.00
412.55	2338.20
412.74	2279.68
412.93	2436.50
413.12	2387.35
413.31	2478.63
413.50	2450.54
413.69	2476.29
413.88	2548.84
414.07	2511.39
414.26	2504.37
414.45	2572.25
414.64	2605.02
414.83	2562.89
415.02	2628.42
415.22	2619.06
415.41	2698.64
415.60	2651.83
415.79	2729.06
415.98	2658.85
416.17	2752.47
416.36	2810.98
416.55	2789.92
416.74	2780.56
416.93	2787.58
417.12	2810.98
417.31	2928.01
417.50	2951.42
417.69	2979.50
417.88	3009.93
418.07	2998.23
418.26	3021.63
418.45	2967.80
418.64	3206.53
418.83	3126.96
419.02	3103.55
419.21	3091.85
419.39	3255.69
419.58	3176.11
419.77	3035.67
419.96	3119.93
420.15	3194.83
420.34	3185.47
420.53	3218.24
420.72	3274.41
420.91	3262.71
421.10	3297.81
421.29	3236.96
421.48	3190.15
421.67	3438.25
421.86	3260.37
422.05	3302.50
422.24	3325.90
422.43	3396.12
422.61	3286.11
422.80	3510.80
422.99	3482.72
423.18	3463.99
423.37	3543.57
423.56	3391.44
423.75	3316.54
423.94	3260.37
424.13	3112.91
424.32	3368.03
424.50	3524.85
424.69	3581.02
424.88	3590.38
425.07	3510.80
425.26	3328.24
425.45	3555.27
425.64	3449.95
425.83	3435.91
426.01	3618.47
426.20	3485.06
426.39	3468.67
426.58	3482.72
426.77	3529.53
426.96	3616.13
427.15	3492.08
427.33	3630.17
427.52	3564.64
427.71	3536.55
427.90	3623.15
428.09	3688.68
428.28	3632.51
428.46	3777.62
428.65	3672.30
428.84	3955.51
429.03	3899.33
429.22	3749.54
429.40	3871.25
429.59	3850.18
429.78	3684.00
429.97	3660.60
430.16	3819.75
430.34	3957.85
430.53	3779.97
430.72	3796.35
430.91	3960.19
431.10	4002.32
431.28	3999.98
431.47	4084.23
431.66	4049.13
431.85	3964.87
432.03	4044.45
432.22	4030.40
432.41	4131.05
432.60	4028.06
432.79	4166.15
432.97	4219.99
433.16	4072.53
433.35	4224.67
433.54	4269.14
433.72	4271.48
433.91	4285.52
434.10	4180.20
434.28	4360.42
434.47	4320.63
434.66	4367.44
434.85	4339.35
435.03	4465.74
435.22	4299.56
435.41	4390.84
435.59	4421.27
435.78	4414.25
435.97	4374.46
436.16	4472.76
436.34	4493.83
436.53	4568.73
436.72	4617.88
436.90	4454.04
437.09	4688.09
437.28	4411.91
437.46	4545.32
437.65	4491.49
437.84	4594.47
438.02	4774.69
438.21	4751.29
438.40	4535.96
438.58	4636.60
438.77	4713.84
438.96	4821.50
439.14	4985.34
439.33	5062.58
439.52	5025.13
439.70	4983.00
439.89	5039.17
440.08	5060.24
440.26	5004.07
440.45	5146.84
440.63	5170.24
440.82	5238.12
441.01	5123.43
441.19	5252.16
441.38	5107.05
441.57	5167.90
441.75	5348.12
441.94	5537.71
442.12	5322.38
442.31	5518.98
442.50	5493.24
442.68	5441.75
442.87	5509.62
443.05	5474.51
443.24	5535.37
443.43	5640.69
443.61	5692.18
443.80	5687.50
443.98	5526.00
444.17	5366.85
444.35	5596.22
444.54	5715.59
444.73	5584.52
444.91	5767.08
445.10	5668.78
445.28	5895.81
445.47	5696.86
445.65	5708.57
445.84	5834.96
446.02	5841.98
446.21	5689.84
446.39	5619.63
446.58	5778.78
446.77	5940.28
446.95	5636.01
447.14	5895.81
447.32	5963.68
447.51	5823.25
447.69	5762.40
447.88	5893.47
448.06	5846.66
448.25	5713.25
448.43	5996.45
448.62	5858.36
448.80	5781.12
448.99	6094.76
449.17	6036.24
449.36	5837.30
449.54	6029.22
449.73	6005.81
449.91	6057.31
450.10	6143.91
450.28	6181.35
450.46	6017.52
450.65	6284.34
450.83	6193.06
451.02	5940.28
451.20	6167.31
451.39	6251.57
451.57	6352.21
451.76	6190.72
451.94	6174.33
452.13	6417.75
452.31	6251.57
452.49	6200.08
452.68	6293.70
452.86	6363.92
453.05	6509.03
453.23	6363.92
453.42	6321.79
453.60	6349.87
453.78	6637.76
453.97	6452.86
454.15	6511.37
454.34	6384.98
454.52	6478.60
454.70	6792.23
454.89	6647.12
455.07	6537.12
455.26	6738.40
455.44	6829.68
455.62	6796.92
455.81	6820.32
455.99	6752.45
456.17	6843.73
456.36	6806.28
456.54	6998.20
456.73	6984.16
456.91	7126.93
457.09	6960.75
457.28	7187.79
457.46	7098.84
457.64	7290.77
457.83	7007.56
458.01	6981.82
458.19	7440.56
458.38	7082.46
458.56	7304.81
458.74	7112.89
458.93	7159.70
459.11	7379.71
459.29	7356.30
459.48	7492.05
459.66	7274.38
459.84	7325.88
460.03	7543.55
460.21	7475.67
460.39	7283.75
460.57	7447.58
460.76	7566.95
460.94	7679.30
461.12	7599.72
461.31	7763.56
461.49	7688.66
461.67	7496.74
461.85	7892.29
462.04	7798.66
462.22	8037.40
462.40	7918.03
462.59	7864.20
462.77	7681.64
462.95	7922.71
463.13	7672.28
463.32	7915.69
463.50	7995.27
463.68	7899.31
463.86	7985.91
464.05	7934.42
464.23	7873.56
464.41	7983.57
464.59	7880.58
464.78	8079.53
464.96	8016.33
465.14	7925.05
465.32	7976.55
465.50	8168.47
465.69	8299.54
465.87	8147.40
466.05	8131.02
466.23	8252.73
466.41	8297.20
466.60	8322.94
466.78	8182.51
466.96	8365.07
467.14	8325.29
467.32	8360.39
467.51	8545.30
467.69	8196.56
467.87	8594.45
468.05	8517.21
468.23	8205.92
468.41	8386.14
468.60	8739.56
468.78	8561.68
468.96	8439.97
469.14	8547.64
469.32	8718.50
469.50	8622.53
469.69	8608.49
469.87	8840.20
470.05	8793.39
470.23	8966.59
470.41	8865.95
470.59	8954.89
470.77	8870.63
470.95	9050.85
471.14	9074.26
471.32	8816.80
471.50	9210.01
471.68	9186.60
471.86	9385.55
472.04	9149.15
472.22	9376.19
472.40	9317.67
472.58	9275.54
472.77	9446.40
472.95	9530.66
473.13	9731.95
473.31	9401.93
473.49	9542.36
473.67	9434.70
473.85	9549.39
474.03	9806.84
474.21	9966.00
474.39	9848.97
474.57	9675.77
474.75	10012.81
474.93	10143.88
475.12	10015.15
475.30	10097.07
475.48	9951.96
475.66	10298.36
475.84	10223.46
476.02	10417.72
476.20	10298.36
476.38	10588.58
476.56	10525.39
476.74	10656.46
476.92	10555.82
477.10	10483.26
477.28	10864.77
477.46	10862.43
477.64	11073.07
477.82	11162.01
478.00	11428.84
478.18	11157.33
478.36	11342.24
478.54	11393.73
478.72	11597.35
478.90	11391.39
479.08	11700.34
479.26	11967.16
479.44	11852.47
479.62	11648.85
479.80	11925.03
479.98	12217.60
480.16	12528.89
480.34	12322.92
480.52	12336.96
480.70	12453.99
480.88	12329.94
481.06	12526.55
481.24	12659.96
481.41	12901.03
481.59	12870.61
481.77	13020.40
481.95	13032.10
482.13	13193.60
482.31	12966.57
482.49	13448.72
482.67	13633.62
482.85	13600.85
483.03	13647.66
483.21	14064.28
483.39	13895.76
483.57	13834.91
483.74	14183.65
483.92	13926.19
484.10	13874.70
484.28	14740.69
484.46	14782.82
484.64	14974.75
484.82	14661.12
485.00	14902.19
485.18	14956.02
485.35	15281.36
485.53	15033.26
485.71	15227.53
485.89	15487.32
486.07	15318.81
486.25	15852.45
486.43	15616.05
486.61	15985.86
486.78	16119.27
486.96	16051.39
487.14	16332.26
487.32	16587.38
487.50	16458.65
487.68	16519.50
487.85	16882.28
488.03	16922.07
488.21	17294.22
488.39	17273.15
488.57	17050.80
488.75	17322.30
488.92	17544.66
489.10	17692.11
489.28	17729.56
489.46	17797.43
489.64	17949.57
489.81	18237.45
489.99	18590.88
490.17	18345.12
490.35	18511.30
490.53	18761.73
490.70	18885.78
490.88	18916.21
491.06	19250.91
491.24	18845.99
491.41	19194.73
491.59	19463.90
491.77	19428.79
491.95	19325.80
492.13	19917.96
492.30	19838.38
492.48	19962.43
492.66	19950.73
492.84	19910.94
493.01	20655.23
493.19	20386.07
493.37	20460.96
493.54	20437.56
493.72	21022.69
493.90	20912.69
494.08	21029.71
494.25	21326.96
494.43	21275.47
494.61	21322.28
494.79	21584.42
494.96	21486.12
495.14	21771.66
495.32	22026.78
495.49	22162.53
495.67	22024.44
495.85	22291.26
496.02	22534.68
496.20	22581.49
496.38	22675.11
496.55	22623.62
496.73	23311.74
496.91	22850.65
497.09	23049.60
497.26	22834.27
497.44	23075.34
497.62	23143.22
497.79	23730.69
497.97	23342.16
498.14	24049.00
498.32	24184.76
498.50	24245.61
498.67	24240.93
498.85	24187.10
499.03	24407.11
499.20	24325.19
499.38	24060.71
499.56	24500.73
499.73	24622.44
499.91	24716.06
500.08	25036.71
500.26	25015.65
500.44	24957.13
500.61	25132.67
500.79	25284.81
500.97	25263.74
501.14	25898.03
501.32	25551.63
501.49	25645.25
501.67	25539.93
501.84	25645.25
502.02	25757.60
502.20	25848.88
502.37	26029.10
502.55	25991.65
502.72	25958.88
502.90	26373.16
503.07	26068.89
503.25	26377.84
503.43	26169.53
503.60	26742.96
503.78	26609.55
503.95	26677.43
504.13	26897.44
504.30	26972.33
504.48	27040.21
504.65	27201.71
504.83	27398.31
505.01	27316.39
505.18	27590.24
505.36	27812.59
505.53	27358.52
505.71	28065.36
505.88	27871.10
506.06	27583.21
506.23	27934.29
506.41	27814.93
506.58	27878.12
506.76	28032.60
506.93	28404.74
507.11	28301.76
507.28	28395.38
507.46	28411.76
507.63	28687.95
507.81	28989.88
507.98	28554.54
508.16	28811.99
508.33	28828.38
508.50	29233.29
508.68	29024.98
508.85	29200.52
509.03	29221.59
509.20	29284.78
509.38	29696.72
509.55	29809.06
509.73	29572.67
509.90	29895.66
510.08	29881.62
510.25	29656.93
510.42	30429.30
510.60	30061.84
510.77	29659.27
510.95	30567.40
511.12	29956.52
511.30	30017.37
511.47	30476.12
511.64	30593.14
511.82	30501.86
511.99	30689.10
512.17	31180.62
512.34	30726.55
512.51	31211.04
512.69	31428.71
512.86	31161.89
513.04	31269.56
513.21	31653.40
513.38	31419.35
513.56	31594.89
513.73	31344.45
513.90	32023.21
514.08	31597.23
514.25	31981.08
514.43	32158.96
514.60	32039.59
514.77	31906.18
514.95	32400.04
515.12	31758.73
515.29	32217.47
515.47	32638.77
515.64	32446.85
515.81	32203.43
515.99	32357.91
516.16	32713.67
516.33	32435.14
516.51	33139.65
516.68	32510.04
516.85	32570.90
517.03	32797.93
517.20	32905.59
517.37	32921.98
517.54	33069.43
517.72	33303.48
517.89	33212.20
518.06	33296.46
518.24	32989.85
518.41	33654.56
518.58	33759.89
518.75	33251.99
518.93	33841.81
519.10	33638.18
519.27	34174.16
519.45	33773.93
519.62	33963.51
519.79	34054.79
519.96	34075.86
520.14	34235.02
520.31	34251.40
520.48	34319.28
520.65	35075.27
520.83	34621.20
521.00	34466.73
521.17	34274.80
521.34	34593.12
521.52	34979.31
521.69	35164.21
521.86	35150.17
522.03	35456.78
522.20	35236.77
522.38	35431.03
522.55	35644.02
522.72	35157.19
522.89	35051.86
523.07	35641.68
523.24	35796.15
523.41	35896.80
523.58	35236.77
523.75	35974.03
523.92	35892.12
524.10	35814.88
524.27	36189.36
524.44	35826.58
524.61	36456.18
524.78	36275.96
524.96	36601.30
525.13	36268.94
525.30	36151.91
525.47	36715.98
525.64	36575.55
525.81	36449.16
525.98	36954.72
526.16	36495.97
526.33	36720.66
526.50	36715.98
526.67	36765.14
526.84	37177.07
527.01	36980.46
527.18	36961.74
527.36	37116.22
527.53	37338.57
527.70	37661.56
527.87	37591.34
528.04	37497.72
528.21	37106.85
528.38	37373.67
528.55	37954.13
528.72	37706.03
528.89	37563.26
529.07	37677.94
529.24	37532.83
529.41	37736.46
529.58	38043.07
529.75	37827.74
529.92	37907.32
530.09	37745.82
530.26	38059.45
530.43	38445.64
530.60	37942.42
530.77	37717.73
530.94	38227.97
531.11	38377.76
531.28	38452.66
531.46	38389.47
531.63	38382.45
531.80	38623.52
531.97	38726.50
532.14	38696.08
532.31	39019.07
532.48	38644.59
532.65	38850.55
532.82	38644.59
532.99	38899.70
533.16	38974.60
533.33	39316.32
533.50	39496.54
533.67	39386.54
533.84	39353.77
534.01	39529.31
534.18	39079.92
534.35	39515.26
534.52	39531.65
534.69	39765.70
534.86	39620.59
535.03	39234.40
535.20	39793.79
535.37	39978.69
535.54	40311.05
535.71	39648.68
535.88	39683.78
536.05	39917.84
536.22	39915.50
536.38	39992.73
536.55	40224.45
536.72	40252.53
536.89	40502.97
537.06	40313.39
537.23	40620.00
537.40	40350.84
537.57	39974.01
537.74	40369.56
537.91	40914.90
538.08	40573.19
538.25	40105.08
538.42	40900.86
538.59	40875.12
538.75	40488.93
538.92	41319.82
539.09	41181.73
539.26	40814.26
539.43	40711.28
539.60	41092.79
539.77	40793.20
539.94	41357.27
540.11	41067.04
540.28	41186.41
540.44	41165.34
540.61	40950.01
540.78	41415.78
540.95	41263.64
541.12	41031.93
541.29	41188.75
541.46	41469.61
541.62	41095.13
541.79	41874.52
541.96	41317.48
542.13	41284.71
542.30	41909.63
542.47	41886.23
542.63	41720.05
542.80	42005.59
542.97	42249.01
543.14	42312.20
543.31	41926.02
543.48	42157.73
543.64	42670.31
543.81	42969.90
543.98	42394.12
544.15	42440.93
544.32	42328.59
544.48	42335.61
544.65	43002.66
544.82	42726.48
544.99	42433.91
545.16	42417.53
545.32	43086.92
545.49	43086.92
545.66	43194.59
545.83	42960.53
546.00	43021.39
546.16	43061.18
546.33	43023.73
546.50	42618.81
546.67	42932.45
546.83	42522.85
547.00	43243.74
547.17	43229.69
547.34	43164.16
547.50	43746.95
547.67	44074.63
547.84	43438.00
548.00	43526.94
548.17	43957.60
548.34	43842.92
548.51	43814.83
548.67	43697.80
548.84	43622.90
549.01	43459.07
549.18	43831.21
549.34	43929.51
549.51	44460.82
549.68	43693.12
549.84	43875.68
550.01	44535.71
550.18	43807.81
550.34	44493.58
550.51	44044.20
550.68	44273.57
550.84	43985.69
551.01	44535.71
551.18	44144.84
551.34	44088.67
551.51	43896.75
551.68	44409.32
551.84	44289.96
552.01	44535.71
552.18	44444.43
552.34	44025.48
552.51	44636.36
552.68	44325.07
552.84	44453.79
553.01	44847.00
553.18	44512.31
553.34	44678.49
553.51	44414.01
553.67	44823.60
553.84	44910.20
554.01	44994.46
554.17	44839.98
554.34	45137.23
554.51	44814.24
554.67	45059.99
554.84	45158.30
555.00	44978.07
555.17	45151.27
555.33	45565.55
555.50	45088.08
555.67	45439.16
555.83	45104.46
556.00	45427.46
556.16	45549.17
556.33	45347.88
556.50	45631.08
556.66	45319.79
556.83	44842.32
556.99	45453.20
557.16	45603.00
557.32	45654.49
557.49	45897.91
557.65	45530.44
557.82	45701.30
557.98	45448.52
558.15	45553.85
558.32	45902.59
558.48	45385.33
558.65	45624.06
558.81	45811.31
558.98	45460.23
559.14	45521.08
559.31	45511.72
559.47	45743.43
559.64	45450.86
559.80	45886.20
559.97	46171.75
560.13	45827.69
560.30	45867.48
560.46	46410.48
560.63	45851.09
560.79	45635.77
560.96	46681.98
561.12	46167.07
561.29	46527.51
561.45	46628.15
561.61	46202.18
561.78	46227.92
561.94	46038.34
562.11	46375.37
562.27	46412.82
562.44	46138.98
562.60	46504.10
562.77	46117.92
562.93	46302.82
563.10	46153.02
563.26	46560.28
563.42	46766.24
563.59	46340.27
563.75	45893.22
563.92	46728.80
564.08	46499.42
564.24	46703.05
564.41	46199.83
564.57	46106.21
564.74	46454.95
564.90	46232.60
565.07	46281.75
565.23	46714.75
565.39	46485.38
565.56	46642.20
565.72	46476.02
565.88	46237.28
566.05	46635.17
566.21	46593.04
566.38	46916.04
566.54	46841.14
566.70	46918.38
566.87	47133.71
567.03	46843.48
567.19	47075.19
567.36	46836.46
567.52	46850.50
567.68	47342.02
567.85	46742.84
568.01	46988.60
568.17	47019.02
568.34	46934.76
568.50	46782.63
568.66	46899.65
568.83	47070.51
568.99	47157.11
569.15	47051.79
569.32	47086.90
569.48	47107.96
569.64	47122.01
569.81	47248.39
569.97	47236.69
570.13	47070.51
570.30	46703.05
570.46	46834.12
570.62	47058.81
570.78	47253.08
570.95	46972.21
571.11	47632.24
571.27	47009.66
571.43	46897.31
571.60	47243.71
571.76	47196.90
571.92	47215.63
572.09	46878.59
572.25	46700.71
572.41	47019.02
572.57	47208.61
572.74	47803.10
572.90	47175.84
573.06	47100.94
573.22	47594.79
573.38	47449.68
573.55	47447.34
573.71	47955.24
573.87	47428.62
574.03	47257.76
574.20	47522.24
574.36	47377.12
574.52	47496.49
574.68	47599.47
574.84	47583.09
575.01	47437.98
575.17	47395.85
575.33	47585.43
575.49	47133.71
575.65	47489.47
575.82	47695.44
575.98	47082.22
576.14	47786.72
576.30	47739.91
576.46	47140.73
576.62	47704.80
576.79	47304.57
576.95	46571.98
577.11	47009.66
577.27	47767.99
577.43	47122.01
577.59	47599.47
577.75	47157.11
577.92	47505.85
578.08	47620.54
578.24	47721.18
578.40	47569.05
578.56	47622.88
578.72	47789.06
578.88	47555.00
579.04	47426.28
579.21	47569.05
579.37	47487.13
579.53	47964.60
579.69	47636.92
579.85	47447.34
580.01	47597.13
580.17	47590.11
580.33	47718.84
580.49	47646.29
580.65	47950.56
580.82	47672.03
580.98	47140.73
581.14	47533.94
581.30	47917.79
581.46	47470.75
581.62	47377.12
581.78	47929.49
581.94	47863.96
582.10	47555.00
582.26	48062.90
582.42	47845.23
582.58	47915.45
582.74	47803.10
582.90	47791.40
583.06	47695.44
583.22	47592.45
583.38	47962.26
583.54	47767.99
583.70	47786.72
583.86	47576.07
584.02	47496.49
584.18	48030.13
584.34	47826.51
584.50	47772.67
584.66	47821.83
584.82	47791.40
584.98	48299.30
585.14	47870.98
585.30	47723.52
585.46	47641.60
585.62	47601.82
585.78	47969.28
585.94	47931.83
586.10	47920.13
586.26	47597.13
586.42	48121.41
586.58	48105.03
586.74	47573.73
586.90	47742.25
587.06	47618.20
587.22	48060.56
587.38	47590.11
587.54	48296.95
587.70	48208.01
587.86	48451.43
588.02	47924.81
588.18	47976.30
588.34	47800.76
588.49	47896.72
588.65	47604.16
588.81	47819.49
588.97	48215.04
589.13	47798.42
589.29	47943.53
589.45	48215.04
589.61	47936.51
589.77	48079.28
589.93	48123.75
590.08	48109.71
590.24	47948.21
590.40	48378.87
590.56	48718.25
590.72	48006.73
590.88	48205.67
591.04	48119.07
591.20	48535.69
591.35	48191.63
591.51	49097.42
591.67	48418.66
591.83	48292.27
591.99	48254.82
592.15	48318.02
592.31	48200.99
592.46	48102.69
592.62	48538.03
592.78	48495.90
592.94	48622.29
593.10	48685.48
593.26	48842.30
593.41	48250.14
593.57	48711.23
593.73	48566.12
593.89	48729.95
594.05	48615.27
594.20	48669.10
594.36	49055.29
594.52	48746.34
594.68	48332.06
594.84	48435.05
594.99	49179.34
595.15	48650.38
595.31	48968.69
595.47	48584.84
595.62	48484.20
595.78	48458.45
595.94	48676.12
596.10	48406.96
596.25	48577.82
596.41	48861.02
596.57	48563.78
596.73	48825.92
596.88	48769.74
597.04	48406.96
597.20	48591.86
597.36	48849.32
597.51	48655.06
597.67	48388.24
597.83	49001.46
597.99	48861.02
598.14	48739.32
598.30	48502.92
598.46	48783.79
598.61	49261.26
598.77	47992.68
598.93	48725.27
599.09	48772.08
599.24	49015.50
599.40	48442.07
599.56	48973.37
599.71	48978.05
599.87	49090.40
600.03	49113.80
600.18	48594.20
600.34	48961.67
600.50	48842.30
600.65	48839.96
600.81	48882.09
600.97	49081.03
601.12	48708.89
601.28	49031.88
601.44	48947.62
601.59	48767.40
601.75	48884.43
601.91	49062.31
602.06	48619.95
602.22	48748.68
602.37	48526.33
602.53	48823.58
602.69	48748.68
602.84	48413.98
603.00	48222.06
603.16	48905.49
603.31	48835.28
603.47	48811.87
603.62	48449.09
603.78	49214.44
603.94	49200.40
604.09	48734.63
604.25	48650.38
604.40	48556.75
604.56	48413.98
604.71	48964.01
604.87	48650.38
605.03	48877.41
605.18	48678.46
605.34	48933.58
605.49	48163.54
605.65	48725.27
605.80	48306.32
605.96	48212.70
606.12	48758.04
606.27	48619.95
606.43	47992.68
606.58	48533.35
606.74	48835.28
606.89	48268.87
607.05	49066.99
607.20	48910.17
607.36	48938.26
607.51	48877.41
607.67	48271.21
607.82	48102.69
607.98	48495.90
608.13	48182.27
608.29	48624.63
608.44	48587.18
608.60	48341.42
608.75	49099.76
608.91	48559.09
609.06	48114.39
609.22	48245.46
609.37	48603.56
609.53	48809.53
609.68	48720.59
609.84	48629.31
609.99	48273.55
610.15	48580.16
610.30	48336.74
610.46	48023.11
610.61	48189.29
610.76	48334.40
610.92	48582.50
611.07	48161.20
611.23	48144.82
611.38	48208.01
611.54	48636.33
611.69	48594.20
611.84	48502.92
612.00	48477.18
612.15	48112.05
612.31	48781.45
612.46	47870.98
612.62	48088.65
612.77	48163.54
612.92	48186.95
613.08	48301.64
613.23	48439.73
613.39	48051.20
613.54	47718.84
613.69	48353.13
613.85	48179.93
614.00	48367.17
614.15	47885.02
614.31	47889.70
614.46	48093.33
614.62	47810.12
614.77	48208.01
614.92	47952.90
615.08	48002.05
615.23	48465.47
615.38	48467.81
615.54	48060.56
615.69	47992.68
615.84	48004.39
616.00	48137.80
616.15	48219.72
616.30	48683.14
616.46	47908.43
616.61	47903.74
616.76	48238.44
616.92	47728.20
617.07	47957.58
617.22	48105.03
617.37	47456.70
617.53	47859.27
617.68	47618.20
617.83	47700.12
617.99	47922.47
618.14	47842.89
618.29	47381.80
618.45	47395.85
618.60	47508.19
618.75	46733.48
618.90	47332.65
619.06	47576.07
619.21	47318.61
619.36	47793.74
619.51	47306.91
619.67	46958.17
619.82	47672.03
619.97	47739.91
620.12	47377.12
620.28	47065.83
620.43	47632.24
620.58	47339.68
620.73	47353.72
620.89	47388.83
621.04	47690.76
621.19	47206.26
621.34	47461.38
621.49	47168.82
621.65	47274.14
621.80	47494.15
621.95	47346.70
622.10	47213.29
622.25	47234.35
622.41	47182.86
622.56	47241.37
622.71	46923.06
622.86	47325.63
623.01	47065.83
623.16	46714.75
623.32	47138.39
623.47	47185.20
623.62	46841.14
623.77	47033.07
623.92	47285.84
624.07	47136.05
624.23	47136.05
624.38	46927.74
624.53	46749.86
624.68	46731.14
624.83	46539.21
624.98	47107.96
625.13	46426.87
625.29	46513.47
625.44	46752.20
625.59	46422.19
625.74	46770.93
625.89	46398.78
626.04	46689.01
626.19	46857.52
626.34	46731.14
626.49	46546.23
626.65	46227.92
626.80	46305.16
626.95	46361.33
627.10	46178.77
627.25	46354.31
627.40	46403.46
627.55	46759.22
627.70	46354.31
627.85	46696.03
628.00	46461.97
628.15	46522.83
628.30	45710.66
628.45	45684.92
628.60	46061.74
628.76	46033.66
628.91	46323.88
629.06	46234.94
629.21	45937.69
629.36	46192.81
629.51	46115.58
629.66	46602.41
629.81	46127.28
629.96	46106.21
630.11	46038.34
630.26	45757.47
630.41	46085.15
630.56	45956.42
630.71	45518.74
630.86	45893.22
631.01	45528.10
631.16	45607.68
631.31	45818.33
631.46	45687.26
631.61	45918.97
631.76	45757.47
631.91	45743.43
632.06	46127.28
632.21	45752.79
632.36	45839.39
632.51	45851.09
632.66	45507.04
632.81	45537.46
632.96	45780.88
633.10	45324.47
633.25	45799.60
633.40	45708.32
633.55	46043.02
633.70	45237.87
633.85	44835.30
634.00	45291.71
634.15	45223.83
634.30	45326.81
634.45	45071.70
634.60	45050.63
634.75	45158.30
634.90	45228.51
635.05	45659.17
635.19	45317.45
635.34	45322.13
635.49	45043.61
635.64	45322.13
635.79	45364.26
635.94	44772.11
636.09	45202.77
636.24	45446.18
636.39	44994.46
636.53	45209.79
636.68	45022.54
636.83	44713.59
636.98	44416.35
637.13	44404.64
637.28	44577.84
637.43	44610.61
637.57	45069.36
637.72	44437.41
637.87	44486.56
638.02	44816.58
638.17	44636.36
638.32	44708.91
638.46	44315.70
638.61	44252.51
638.76	44273.57
638.91	44348.47
639.06	44357.83
639.20	43852.28
639.35	44055.90
639.50	44388.26
639.65	44612.95
639.80	44231.44
639.94	44376.56
640.09	44683.17
640.24	44575.50
640.39	44119.10
640.54	43845.26
640.68	44495.92
640.83	44388.26
640.98	44222.08
641.13	43796.10
641.27	44446.77
641.42	44254.85
641.57	43784.40
641.72	44182.29
641.86	44095.69
642.01	43903.77
642.16	44142.50
642.31	43655.67
642.45	44226.76
642.60	43875.68
642.75	43973.98
642.90	44369.54
643.04	44140.16
643.19	43585.46
643.34	43812.49
643.48	43246.08
643.63	43529.28
643.78	44009.09
643.93	43665.03
644.07	43964.62
644.22	43526.94
644.37	43323.32
644.51	43835.89
644.66	43461.41
644.81	43763.34
644.95	44067.61
645.10	43646.31
645.25	43512.90
645.39	43115.01
645.54	43349.06
645.69	42859.89
645.83	43428.64
645.98	43328.00
646.13	43098.62
646.27	43166.50
646.42	43320.98
646.57	43456.73
646.71	42930.11
646.86	43487.15
647.00	43632.27
647.15	43185.22
647.30	43435.66
647.44	43201.61
647.59	43082.24
647.74	43449.70
647.88	42927.77
648.03	43805.47
648.17	43599.50
648.32	43248.42
648.47	43253.10
648.61	42567.32
648.76	42913.72
648.90	42869.25
649.05	42621.16
649.20	42930.11
649.34	42916.06
649.49	43131.39
649.63	43079.90
649.78	42871.59
649.92	43342.04
650.07	43175.86
650.21	43328.00
650.36	42948.83
650.51	42806.06
650.65	43269.48
650.80	42918.40
650.94	43086.92
651.09	42417.53
651.23	42260.71
651.38	42326.25
651.52	41982.19
651.67	42291.14
651.81	42848.19
651.96	42007.94
652.10	42054.75
652.25	42157.73
652.39	42284.12
652.54	42253.69
652.68	42464.34
652.83	42822.44
652.97	41914.31
653.12	42377.74
653.26	41977.51
653.41	42082.83
653.55	42351.99
653.70	42415.19
653.84	42349.65
653.99	42377.74
654.13	42043.04
654.27	42263.05
654.42	42256.03
654.56	42124.96
654.71	41911.97
654.85	42045.38
655.00	42412.85
655.14	42014.96
655.29	42188.16
655.43	41844.10
655.57	41904.95
655.72	41516.42
655.86	41668.56
656.01	41029.59
656.15	41434.50
656.30	41429.82
656.44	41947.08
656.58	41752.82
656.73	41525.78
656.87	41439.18
657.01	41565.57
657.16	41713.03
657.30	41432.16
657.45	41598.34
657.59	41123.21
657.73	41226.20
657.88	41214.49
658.02	41457.91
658.16	41680.26
658.31	41359.61
658.45	41160.66
658.60	40973.42
658.74	41310.46
658.88	41256.62
659.03	41160.66
659.17	40559.14
659.31	40882.14
659.46	40713.62
659.60	41064.70
659.74	40807.24
659.89	40297.00
660.03	40226.79
660.17	40697.24
660.32	40453.82
660.46	40479.57
660.60	39828.90
660.74	40687.87
660.89	40388.28
661.03	40397.65
661.17	40205.72
661.32	39922.52
661.46	40311.05
661.60	39849.96
661.74	39948.26
661.89	40060.61
662.03	40362.54
662.17	39899.11
662.31	40112.10
662.46	39992.73
662.60	39267.17
662.74	39426.32
662.88	39564.42
663.03	39728.25
663.17	39522.29
663.31	39110.35
663.45	39580.80
663.60	40016.14
663.74	39594.84
663.88	39494.20
664.02	39321.00
664.17	39821.87
664.31	38988.64
664.45	39292.91
664.59	39220.36
664.73	39030.77
664.88	39431.01
665.02	38927.79
665.16	38838.85
665.30	39065.88
665.44	38742.89
665.59	38494.79
665.73	38394.15
665.87	37879.23
666.01	38712.46
666.15	38916.09
666.29	38284.14
666.44	38469.04
666.58	38476.07
666.72	37912.00
666.86	38305.21
667.00	37837.10
667.14	38476.07
667.28	37813.70
667.43	38110.94
667.57	38164.78
667.71	38476.07
667.85	38169.46
667.99	37493.04
668.13	37490.70
668.27	37633.47
668.41	37888.59
668.56	37092.81
668.70	37319.84
668.84	37322.18
668.98	37067.06
669.12	37120.90
669.26	37340.91
669.40	37542.19
669.54	37361.97
669.68	37317.50
669.82	37074.09
669.96	37024.93
670.10	36594.28
670.25	36715.98
670.39	36598.96
670.53	36554.49
670.67	36460.87
670.81	36950.04
670.95	36720.66
671.09	36187.02
671.23	36582.57
671.37	36561.51
671.51	36266.60
671.65	36053.61
671.79	36137.87
671.93	35985.74
672.07	36095.74
672.21	35915.52
672.35	35658.06
672.49	35555.08
672.63	35637.00
672.77	35459.12
672.91	35693.17
673.05	35421.67
673.19	34745.25
673.33	35234.42
673.47	35220.38
673.61	35189.95
673.75	35007.39
673.89	34979.31
674.03	34675.04
674.17	34286.51
674.31	34820.15
674.45	34307.57
674.59	34323.96
674.73	34256.08
674.87	34263.10
675.01	34281.83
675.15	33759.89
675.29	33724.78
675.43	33797.34
675.56	34284.17
675.70	33427.53
675.84	33692.01
675.98	32664.52
676.12	33495.41
676.26	33771.59
676.40	33453.28
676.54	33305.82
676.68	33305.82
676.82	32865.80
676.96	33413.49
677.10	32781.54
677.23	32807.29
677.37	32723.03
677.51	32669.20
677.65	32247.90
677.79	32683.24
677.93	32549.83
678.07	32505.36
678.21	32070.02
678.34	31735.32
678.48	31962.36
678.62	31976.40
678.76	31903.84
678.90	31716.60
679.04	31779.79
679.18	31983.42
679.31	31531.70
679.45	31805.54
679.59	31665.11
679.73	31325.73
679.87	30955.93
680.00	30862.30
680.14	30852.94
680.28	30735.92
680.42	30890.39
680.56	30139.08
680.70	30574.42
680.83	30092.27
680.97	30342.70
681.11	29823.11
681.25	29958.86
681.39	29841.83
681.52	29799.70
681.66	29507.13
681.80	29123.29
681.94	29186.48
682.07	29336.27
682.21	29397.13
682.35	29179.46
682.49	29369.04
682.62	29156.05
682.76	29226.27
682.90	29134.99
683.04	28666.88
683.17	28456.23
683.31	28332.18
683.45	28147.28
683.59	28058.34
683.72	27990.47
683.86	28290.06
684.00	27974.08
684.13	28058.34
684.27	27763.43
684.41	27768.12
684.55	27917.91
684.68	27557.47
684.82	27384.27
684.96	27264.90
685.09	27199.37
685.23	27892.16
685.37	27737.69
685.50	27646.41
685.64	27161.92
685.78	26703.17
685.91	27012.12
686.05	26405.92
686.19	25675.68
686.32	26300.60
686.46	25769.30
686.60	25923.77
686.73	26214.00
686.87	25823.13
687.01	26188.25
687.14	26118.04
687.28	25764.62
687.42	25855.90
687.55	25600.78
687.69	25495.46
687.82	25343.32
687.96	25298.85
688.10	25205.23
688.23	25172.46
688.37	25446.30
688.50	25317.57
688.64	25029.69
688.78	24610.73
688.91	24666.91
689.05	24364.98
689.18	24407.11
689.32	23924.96
689.46	24453.92
689.59	24233.91
689.73	24100.50
689.86	24313.48
690.00	24205.82
690.13	24058.37
690.27	23831.33
690.41	23962.40
690.54	23543.45
690.68	23278.97
690.81	23208.75
690.95	23321.10
691.08	23452.17
691.22	22764.05
691.35	23030.87
691.49	23009.81
691.62	22724.26
691.76	22731.28
691.89	22384.88
692.03	22221.05
692.16	22111.04
692.30	22457.44
692.43	22305.31
692.57	22024.44
692.70	22043.17
692.84	21886.35
692.97	21596.12
693.11	21216.96
693.24	21331.64
693.38	21577.40
693.51	21322.28
693.65	21324.62
693.78	21336.32
693.92	21144.40
694.05	20851.83
694.19	21048.44
694.32	21083.55
694.45	21102.27
694.59	21158.44
694.72	21022.69
694.86	20634.16
694.99	20325.21
695.13	20037.33
695.26	20435.22
695.39	19899.23
695.53	20009.24
695.66	19913.28
695.80	19796.25
695.93	19672.20
696.07	19852.42
696.20	19147.92
696.33	19176.01
696.47	19414.74
696.60	19239.20
696.73	19349.21
696.87	19248.57
697.00	19339.85
697.14	19108.13
697.27	18768.76
697.40	18970.04
697.54	18625.98
697.67	18649.39
697.80	18590.88
697.94	18764.07
698.07	18331.08
698.21	18111.07
698.34	18420.02
698.47	18146.17
698.61	17846.58
698.74	18104.04
698.87	17804.46
699.01	17500.19
699.14	17724.88
699.27	17818.50
699.40	17713.17
699.54	17334.01
699.67	17451.03
699.80	17408.90
699.94	17170.17
700.07	17429.97
700.20	17015.69
700.34	17305.92
700.47	16767.60
700.60	17083.57
700.73	16861.22
700.87	16676.32
701.00	16512.48
701.13	16280.77
701.26	16400.13
701.40	16278.43
701.53	16215.23
701.66	16315.87
701.79	16042.03
701.93	15946.07
702.06	15529.45
702.19	15669.89
702.32	16016.29
702.46	15648.82
702.59	15611.37
702.72	15775.21
702.85	15730.74
702.99	15459.24
703.12	15351.57
703.25	15311.78
703.38	15040.28
703.51	14902.19
703.65	14941.98
703.78	14963.04
703.91	14743.03
704.04	14759.42
704.17	14808.57
704.31	14359.19
704.44	14717.29
704.57	14890.49
704.70	14326.42
704.83	14204.71
704.96	14146.20
705.10	14218.75
705.23	14092.37
>>>>>End Processed Spectral Data<<<<<
