SpectraSuite Data File
++++++++++++++++++++++++++++++++++++
Date: Fri Oct 25 11:34:14 EDT 2013
User: price-jones
Dark Spectrum Present: No
Reference Spectrum Present: No
Number of Sampled Component Spectra: 1
Spectrometers: USB2+H05261
Integration Time (usec): 100000 (USB2+H05261)
Spectra Averaged: 1 (USB2+H05261)
Boxcar Smoothing: 0 (USB2+H05261)
Correct for Electrical Dark: No (USB2+H05261)
Strobe/Lamp Enabled: No (USB2+H05261)
Correct for Detector Non-linearity: No (USB2+H05261)
Correct for Stray Light: No (USB2+H05261)
Number of Pixels in Processed Spectrum: 2048
>>>>>Begin Processed Spectral Data<<<<<
365.73	278.52
365.92	278.52
366.12	278.52
366.32	147.45
366.52	208.31
366.72	198.95
366.91	180.22
367.11	170.86
367.31	121.71
367.51	182.56
367.70	133.41
367.90	166.18
368.10	205.97
368.30	152.13
368.49	182.56
368.69	201.29
368.89	163.84
369.09	156.82
369.28	215.33
369.48	180.22
369.68	189.58
369.87	236.39
370.07	227.03
370.27	245.76
370.47	320.65
370.66	463.43
370.86	521.94
371.06	479.81
371.25	498.53
371.45	571.09
371.65	582.79
371.84	561.73
372.04	594.50
372.24	535.98
372.44	620.24
372.63	603.86
372.83	589.82
373.03	620.24
373.22	582.79
373.42	596.84
373.62	662.37
373.81	648.33
374.01	613.22
374.21	692.80
374.40	676.41
374.60	566.41
374.79	603.86
374.99	643.65
375.19	683.44
375.38	669.39
375.58	732.59
375.78	688.12
375.97	643.65
376.17	720.88
376.37	732.59
376.56	697.48
376.76	657.69
376.95	653.01
377.15	648.33
377.35	723.23
377.54	695.14
377.74	678.76
377.93	688.12
378.13	631.94
378.33	657.69
378.52	685.78
378.72	760.67
378.91	657.69
379.11	697.48
379.31	772.38
379.50	690.46
379.70	730.25
379.89	645.99
380.09	744.29
380.28	688.12
380.48	653.01
380.68	741.95
380.87	716.20
381.07	697.48
381.26	788.76
381.46	739.61
381.65	760.67
381.85	718.54
382.04	786.42
382.24	830.89
382.43	741.95
382.63	704.50
382.83	667.05
383.02	737.27
383.22	734.93
383.41	791.10
383.61	676.41
383.80	833.23
384.00	870.68
384.19	800.46
384.39	720.88
384.58	861.32
384.78	798.12
384.97	784.08
385.17	856.64
385.36	816.85
385.56	826.21
385.75	884.72
385.95	868.34
386.14	767.70
386.34	847.27
386.53	870.68
386.72	884.72
386.92	894.08
387.11	870.68
387.31	800.46
387.50	851.96
387.70	903.45
387.89	866.00
388.09	863.66
388.28	931.53
388.48	870.68
388.67	891.74
388.86	924.51
389.06	931.53
389.25	894.08
389.45	922.17
389.64	896.43
389.84	978.34
390.03	971.32
390.22	973.66
390.42	889.40
390.61	950.26
390.81	880.04
391.00	924.51
391.19	1011.11
391.39	887.06
391.58	976.00
391.78	990.05
391.97	1013.45
392.16	1011.11
392.36	1081.33
392.55	1022.81
392.75	1139.84
392.94	947.92
393.13	1139.84
393.33	1069.62
393.52	1048.56
393.71	1074.31
393.91	1029.84
394.10	1128.14
394.29	1039.20
394.49	1046.22
394.68	1086.01
394.88	1116.44
395.07	1191.33
395.26	1097.71
395.46	1132.82
395.65	1231.12
395.84	1095.37
396.04	1217.08
396.23	1139.84
396.42	1109.41
396.62	1188.99
396.81	1188.99
397.00	1184.31
397.19	1217.08
397.39	1196.01
397.58	1343.47
397.77	1228.78
397.97	1200.69
398.16	1191.33
398.35	1212.40
398.55	1287.29
398.74	1228.78
398.93	1231.12
399.12	1284.95
399.32	1268.57
399.51	1273.25
399.70	1289.64
399.90	1233.46
400.09	1299.00
400.28	1409.00
400.47	1268.57
400.67	1390.28
400.86	1299.00
401.05	1376.24
401.24	1378.58
401.44	1364.53
401.63	1352.83
401.82	1378.58
402.01	1348.15
402.21	1472.20
402.40	1448.79
402.59	1516.67
402.78	1441.77
402.97	1474.54
403.17	1596.25
403.36	1423.05
403.55	1540.07
403.74	1526.03
403.93	1619.65
404.13	1603.27
404.32	1476.88
404.51	1610.29
404.70	1636.03
404.89	1596.25
405.09	1624.33
405.28	1605.61
405.47	1621.99
405.66	1661.78
405.85	1703.91
406.05	1650.08
406.24	1621.99
406.43	1717.95
406.62	1736.68
406.81	1739.02
407.00	1706.25
407.20	1720.29
407.39	1748.38
407.58	1870.09
407.77	1767.10
407.96	1762.42
408.15	1818.60
408.34	1877.11
408.54	1856.04
408.73	1867.75
408.92	1867.75
409.11	1893.49
409.30	1963.71
409.49	1942.64
409.68	1933.28
409.87	1928.60
410.07	1954.35
410.26	1973.07
410.45	2029.24
410.64	1991.80
410.83	2115.84
411.02	1998.82
411.21	2064.35
411.40	2111.16
411.59	2066.69
411.78	2181.38
411.98	2104.14
412.17	2190.74
412.36	2139.25
412.55	2225.85
412.74	2134.57
412.93	2221.17
413.12	2282.02
413.31	2345.22
413.50	2284.36
413.69	2300.75
413.88	2406.07
414.07	2289.04
414.26	2476.29
414.45	2448.20
414.64	2539.48
414.83	2525.44
415.02	2537.14
415.22	2539.48
415.41	2497.35
415.60	2602.68
415.79	2691.62
415.98	2672.89
416.17	2689.28
416.36	2628.42
416.55	2672.89
416.74	2782.90
416.93	2803.96
417.12	2759.49
417.31	2693.96
417.50	2810.98
417.69	2794.60
417.88	2829.71
418.07	2792.26
418.26	2953.76
418.45	2942.05
418.64	3075.46
418.83	3059.08
419.02	3063.76
419.21	2979.50
419.39	3005.25
419.58	2979.50
419.77	3012.27
419.96	3007.59
420.15	3061.42
420.34	2991.20
420.53	3138.66
420.72	3096.53
420.91	3267.39
421.10	3262.71
421.29	3119.93
421.48	3159.72
421.67	3119.93
421.86	3272.07
422.05	3234.62
422.24	3368.03
422.43	3365.69
422.61	3185.47
422.80	3316.54
422.99	3496.76
423.18	3456.97
423.37	3290.79
423.56	3307.18
423.75	3314.20
423.94	3314.20
424.13	3087.17
424.32	3239.30
424.50	3323.56
424.69	3426.54
424.88	3330.58
425.07	3295.47
425.26	3304.84
425.45	3290.79
425.64	3290.79
425.83	3318.88
426.01	3337.60
426.20	3405.48
426.39	3318.88
426.58	3225.26
426.77	3330.58
426.96	3382.07
427.15	3447.61
427.33	3536.55
427.52	3389.10
427.71	3674.64
427.90	3471.01
428.09	3510.80
428.28	3590.38
428.46	3590.38
428.65	3517.83
428.84	3772.94
429.03	3770.60
429.22	3585.70
429.40	3602.08
429.59	3751.88
429.78	3609.11
429.97	3541.23
430.16	3801.03
430.34	3599.74
430.53	3836.14
430.72	3756.56
430.91	3847.84
431.10	3770.60
431.28	3775.28
431.47	3960.19
431.66	3918.06
431.85	3894.65
432.03	3974.23
432.22	3932.10
432.41	4098.28
432.60	3908.69
432.79	3983.59
432.97	4105.30
433.16	4002.32
433.35	3976.57
433.54	4140.41
433.72	4067.85
433.91	4145.09
434.10	4088.92
434.28	4109.98
434.47	4124.02
434.66	4084.23
434.85	4203.60
435.03	4147.43
435.22	4138.07
435.41	4470.42
435.59	4119.34
435.78	4147.43
435.97	4297.22
436.16	4470.42
436.34	4435.32
436.53	4234.03
436.72	4315.95
436.90	4416.59
437.09	4285.52
437.28	4334.67
437.46	4418.93
437.65	4449.36
437.84	4585.11
438.02	4542.98
438.21	4531.28
438.40	4442.34
438.58	4695.11
438.77	4671.71
438.96	4596.81
439.14	4662.35
439.33	4870.65
439.52	4631.92
439.70	4830.87
439.89	4959.60
440.08	4884.70
440.26	4786.40
440.45	4746.61
440.63	4912.78
440.82	5006.41
441.01	5018.11
441.19	4905.76
441.38	5095.35
441.57	5132.79
441.75	5273.23
441.94	5184.29
442.12	5273.23
442.31	5336.42
442.50	5153.86
442.68	5282.59
442.87	5296.63
443.05	5441.75
443.24	5488.56
443.43	5369.19
443.61	5362.17
443.80	5490.90
443.98	5420.68
444.17	5158.54
444.35	5315.36
444.54	5607.92
444.73	5327.06
444.91	5600.90
445.10	5432.38
445.28	5359.83
445.47	5518.98
445.65	5380.89
445.84	5556.43
446.02	5483.88
446.21	5657.07
446.39	5680.48
446.58	5720.27
446.77	5481.53
446.95	5404.30
447.14	5598.56
447.32	5633.67
447.51	5537.71
447.69	5589.20
447.88	5570.48
448.06	5652.39
448.25	5624.31
448.43	5547.07
448.62	5727.29
448.80	5858.36
448.99	5643.03
449.17	5720.27
449.36	5813.89
449.54	5893.47
449.73	5933.26
449.91	6061.99
450.10	5720.27
450.28	5982.41
450.46	6153.27
450.65	6024.54
450.83	6047.94
451.02	5998.79
451.20	5989.43
451.39	5968.37
451.57	6090.07
451.76	6094.76
451.94	6125.18
452.13	5963.68
452.31	6176.67
452.49	6031.56
452.68	6244.55
452.86	6171.99
453.05	6174.33
453.23	6141.57
453.42	6120.50
453.60	5975.39
453.78	6080.71
453.97	6207.10
454.15	6204.76
454.34	6136.88
454.52	6340.51
454.70	6546.48
454.89	6359.24
455.07	6314.77
455.26	6354.55
455.44	6590.95
455.62	6375.62
455.81	6476.26
455.99	6494.99
456.17	6527.75
456.36	6499.67
456.54	6668.19
456.73	6810.96
456.91	6963.09
457.09	6876.49
457.28	6958.41
457.46	6738.40
457.64	6892.88
457.83	6876.49
458.01	6829.68
458.19	6953.73
458.38	6918.62
458.56	6937.35
458.74	6981.82
458.93	7028.63
459.11	7117.57
459.29	7094.16
459.48	7201.83
459.66	6984.16
459.84	7138.63
460.03	7330.56
460.21	7300.13
460.39	7197.15
460.57	7356.30
460.76	7169.06
460.94	7258.00
461.12	7211.19
461.31	7480.35
461.49	7075.44
461.67	7316.51
461.85	7489.71
462.04	7503.76
462.22	7709.72
462.40	7604.40
462.59	7742.49
462.77	7499.08
462.95	7543.55
463.13	7576.31
463.32	7499.08
463.50	7751.85
463.68	7597.38
463.86	7552.91
464.05	7566.95
464.23	7651.21
464.41	7693.34
464.59	7606.74
464.78	7981.23
464.96	7822.07
465.14	7857.18
465.32	7850.16
465.50	7943.78
465.69	7850.16
465.87	7786.96
466.05	7967.18
466.23	7894.63
466.41	8016.33
466.60	8149.75
466.78	7946.12
466.96	7925.05
467.14	8016.33
467.32	8006.97
467.51	8154.43
467.69	8102.93
467.87	8102.93
468.05	8173.15
468.23	8105.28
468.41	8231.66
468.60	8126.34
468.78	8414.23
468.96	8226.98
469.14	8428.27
469.32	8404.86
469.50	8234.00
469.69	8545.30
469.87	8575.72
470.05	8435.29
470.23	8552.32
470.41	8592.11
470.59	8587.43
470.77	8355.71
470.95	8505.51
471.14	8842.54
471.32	8711.47
471.50	8777.01
471.68	8905.74
471.86	8596.79
472.04	8891.70
472.22	8835.52
472.40	8769.99
472.58	8788.71
472.77	8985.32
472.95	9076.60
473.13	9488.53
473.31	9095.32
473.49	9249.80
473.67	9184.26
473.85	9151.49
474.03	9476.83
474.21	9530.66
474.39	9415.98
474.57	9568.11
474.75	9657.05
474.93	9624.28
475.12	9907.49
475.30	9687.48
475.48	9647.69
475.66	9937.91
475.84	9951.96
476.02	9940.26
476.20	10029.20
476.38	10232.82
476.56	10244.52
476.74	10125.16
476.92	10174.31
477.10	9996.43
477.28	10293.68
477.46	10228.14
477.64	10441.13
477.82	10597.95
478.00	10916.26
478.18	10913.92
478.36	11033.29
478.54	10946.69
478.72	11014.56
478.90	11157.33
479.08	11389.05
479.26	11091.80
479.44	11304.79
479.62	11426.50
479.80	11499.05
479.98	11777.58
480.16	11733.11
480.34	11850.13
480.52	11936.73
480.70	12002.27
480.88	11676.93
481.06	12175.47
481.24	12168.45
481.41	12273.77
481.59	12264.41
481.77	12634.21
481.95	12325.26
482.13	12641.23
482.31	12685.70
482.49	13088.28
482.67	13008.70
482.85	13179.56
483.03	13231.05
483.21	13373.82
483.39	13160.83
483.57	13500.21
483.74	13490.85
483.92	13540.00
484.10	13575.11
484.28	14099.39
484.46	13902.78
484.64	14387.27
484.82	14094.71
485.00	14113.43
485.18	14572.18
485.35	14513.66
485.53	14391.95
485.71	14572.18
485.89	14806.23
486.07	15171.35
486.25	14979.43
486.43	15227.53
486.61	15033.26
486.78	15419.45
486.96	15510.73
487.14	15580.95
487.32	16051.39
487.50	15962.45
487.68	15871.17
487.85	16173.10
488.03	16252.68
488.21	16524.18
488.39	16727.81
488.57	16589.72
488.75	16830.79
488.92	17048.46
489.10	17090.59
489.28	16732.49
489.46	17188.89
489.64	17303.58
489.81	17680.41
489.99	17633.60
490.17	17797.43
490.35	17853.61
490.53	17877.01
490.70	18038.51
490.88	18148.51
491.06	18377.89
491.24	18094.68
491.41	18422.36
491.59	18764.07
491.77	18764.07
491.95	18796.84
492.13	18827.27
492.30	19295.38
492.48	19068.34
492.66	19164.31
492.84	19283.67
493.01	19655.82
493.19	19419.42
493.37	19730.72
493.54	19948.39
493.72	19793.91
493.90	19995.20
494.08	19929.66
494.25	20245.63
494.43	20475.01
494.61	20601.40
494.79	20601.40
494.96	20482.03
495.14	20737.15
495.32	21010.99
495.49	21104.61
495.67	21041.42
495.85	21427.60
496.02	21383.13
496.20	21626.55
496.38	21825.50
496.55	21717.83
496.73	22352.12
496.91	22136.79
497.09	22256.15
497.26	22335.73
497.44	22113.38
497.62	22356.80
497.79	22717.24
497.97	22703.20
498.14	22661.07
498.32	22920.87
498.50	23285.99
498.67	23307.05
498.85	23246.20
499.03	23351.52
499.20	23194.71
499.38	23442.81
499.56	23761.12
499.73	23814.95
499.91	23814.95
500.08	24184.76
500.26	23688.56
500.44	24107.52
500.61	23950.70
500.79	24430.51
500.97	24102.84
501.14	24430.51
501.32	24734.78
501.49	24514.77
501.67	24287.74
501.84	24926.71
502.02	25123.31
502.20	24802.66
502.37	25202.89
502.55	24802.66
502.72	25095.22
502.90	25678.02
503.07	25069.48
503.25	25411.20
503.43	24851.81
503.60	25848.88
503.78	25663.97
503.95	25867.60
504.13	25652.27
504.30	26115.70
504.48	26045.48
504.65	26099.31
504.83	26555.72
505.01	26345.07
505.18	26232.72
505.36	26529.97
505.53	26242.09
505.71	26532.31
505.88	26443.37
506.06	26251.45
506.23	27070.64
506.41	26705.51
506.58	26712.53
506.76	27143.19
506.93	26991.06
507.11	27126.81
507.28	27641.73
507.46	27316.39
507.63	27365.54
507.81	27805.56
507.98	27489.59
508.16	27749.39
508.33	28016.21
508.50	27894.50
508.68	28002.17
508.85	28137.92
509.03	27899.19
509.20	27882.80
509.38	28453.89
509.55	28524.11
509.73	28563.90
509.90	28325.16
510.08	28613.05
510.25	28814.34
510.42	28964.13
510.60	28589.64
510.77	29125.63
510.95	29198.18
511.12	29214.57
511.30	28961.79
511.47	29252.02
511.64	29305.85
511.82	29069.45
511.99	29535.22
512.17	29862.90
512.34	29582.03
512.51	30106.31
512.69	29830.13
512.86	29600.76
513.04	29851.19
513.21	29708.42
513.38	30466.75
513.56	30258.45
513.73	30335.68
513.90	30075.88
514.08	30263.13
514.25	30796.77
514.43	30525.27
514.60	30586.12
514.77	30691.44
514.95	30321.64
515.12	30820.17
515.29	30719.53
515.47	31227.43
515.64	31367.86
515.81	31335.09
515.99	31220.41
516.16	31299.98
516.33	31405.31
516.51	31302.32
516.68	31178.28
516.85	31349.14
517.03	31517.65
517.20	31964.70
517.37	31681.49
517.54	32240.88
517.72	31501.27
517.89	32170.66
518.06	32208.11
518.24	31847.67
518.41	31997.46
518.58	31885.12
518.75	31747.03
518.93	32371.95
519.10	32245.56
519.27	32474.93
519.45	32374.29
519.62	32734.73
519.79	32919.63
519.96	33001.55
520.14	33287.10
520.31	32708.99
520.48	32863.46
520.65	33380.72
520.83	33179.43
521.00	33844.15
521.17	33331.57
521.34	33516.47
521.52	33687.33
521.69	33961.17
521.86	33961.17
522.03	34022.03
522.20	34244.38
522.38	33780.95
522.55	34015.01
522.72	33715.42
522.89	33673.29
523.07	34487.79
523.24	34059.48
523.41	34534.60
523.58	34227.99
523.75	34668.02
523.92	34581.42
524.10	34787.38
524.27	34675.04
524.44	34787.38
524.61	34558.01
524.78	35042.50
524.96	34742.91
525.13	35377.20
525.30	35456.78
525.47	35519.97
525.64	35150.17
525.81	35316.34
525.98	35466.14
526.16	35061.22
526.33	35023.78
526.50	35459.12
526.67	35250.81
526.84	35452.09
527.01	35494.22
527.18	35531.67
527.36	35419.33
527.53	35569.12
527.70	35892.12
527.87	36006.80
528.04	36060.63
528.21	35967.01
528.38	35936.59
528.55	36018.50
528.72	36451.50
528.89	36123.83
529.07	36142.55
529.24	36304.05
529.41	36479.59
529.58	36292.35
529.75	36280.64
529.92	36694.92
530.09	36720.66
530.26	36715.98
530.43	36776.84
530.60	36882.16
530.77	36575.55
530.94	36781.52
531.11	36671.51
531.28	36783.86
531.46	36811.95
531.63	36910.25
531.80	36818.97
531.97	37088.13
532.14	37415.80
532.31	37301.12
532.48	37553.90
532.65	37743.48
532.82	37390.06
532.99	37830.08
533.16	37317.50
533.33	37649.86
533.50	37549.21
533.67	37865.19
533.84	37570.28
534.01	37406.44
534.18	37514.11
534.35	38174.14
534.52	38478.41
534.69	38459.68
534.86	38382.45
535.03	38127.33
535.20	38169.46
535.37	38408.19
535.54	38497.13
535.71	38314.57
535.88	38438.62
536.05	38518.20
536.22	38848.21
536.38	37902.64
536.55	38543.94
536.72	38462.02
536.89	38316.91
537.06	38438.62
537.23	38607.14
537.40	38630.54
537.57	38679.69
537.74	38792.04
537.91	38738.21
538.08	38813.10
538.25	38295.85
538.42	39023.75
538.59	39524.63
538.75	38806.08
538.92	39828.90
539.09	39339.72
539.26	39281.21
539.43	39225.04
539.60	39718.89
539.77	39194.61
539.94	39885.07
540.11	39562.08
540.28	39697.83
540.44	39728.25
540.61	39423.98
540.78	38981.62
540.95	39672.08
541.12	39608.89
541.29	39910.82
541.46	39372.49
541.62	39772.72
541.79	39981.03
541.96	39749.32
542.13	39765.70
542.30	39842.94
542.47	39927.20
542.63	40161.25
542.80	40238.49
542.97	40598.93
543.14	40849.37
543.31	40779.15
543.48	40954.69
543.64	41111.51
543.81	40713.62
543.98	41022.57
544.15	40699.58
544.32	41181.73
544.48	41359.61
544.65	40961.72
544.82	41097.47
544.99	41282.37
545.16	40624.68
545.32	40919.59
545.49	41380.67
545.66	41848.78
545.83	41216.83
546.00	41467.27
546.16	41308.11
546.33	41656.85
546.50	41289.39
546.67	41514.08
546.83	41111.51
547.00	41450.89
547.17	41336.20
547.34	41457.91
547.50	41972.83
547.67	41397.06
547.84	41851.12
548.00	41816.01
548.17	42106.24
548.34	41820.69
548.51	42342.63
548.67	41750.48
548.84	42377.74
549.01	41942.40
549.18	42237.31
549.34	41907.29
549.51	42323.91
549.68	42508.81
549.84	42244.33
550.01	42604.77
550.18	42040.70
550.34	42309.86
550.51	42602.43
550.68	42490.09
550.84	41926.02
551.01	42515.83
551.18	42637.54
551.34	42387.10
551.51	42691.37
551.68	42501.79
551.84	42850.53
552.01	42206.88
552.18	42990.96
552.34	42583.71
552.51	42831.80
552.68	42955.85
552.84	42621.16
553.01	43040.11
553.18	42595.41
553.34	43065.86
553.51	42986.28
553.67	42813.08
553.84	43002.66
554.01	43229.69
554.17	43253.10
554.34	43555.03
554.51	43061.18
554.67	43227.35
554.84	43332.68
555.00	43033.09
555.17	43035.43
555.33	43700.14
555.50	42979.26
555.67	43714.19
555.83	43117.35
556.00	43697.80
556.16	43929.51
556.33	43962.28
556.50	43807.81
556.66	43639.29
556.83	43672.06
556.99	43793.76
557.16	43835.89
557.32	43840.57
557.49	44041.86
557.65	43388.85
557.82	43728.23
557.98	44194.00
558.15	43828.87
558.32	43943.56
558.48	43950.58
558.65	44102.71
558.81	44322.72
558.98	43803.13
559.14	44112.08
559.31	43983.35
559.47	43903.77
559.64	44304.00
559.80	43922.49
559.97	44215.06
560.13	44332.09
560.30	44011.43
560.46	44626.99
560.63	44865.73
560.79	44502.95
560.96	44392.94
561.12	44622.31
561.29	44491.24
561.45	44278.25
561.61	44091.01
561.78	44158.89
561.94	44528.69
562.11	44650.40
562.27	44502.95
562.44	44638.70
562.60	45006.16
562.77	44760.40
562.93	44268.89
563.10	44767.43
563.26	44587.21
563.42	45160.64
563.59	44315.70
563.75	44549.76
563.92	44332.09
564.08	44514.65
564.24	44828.28
564.41	44542.74
564.57	44624.65
564.74	45020.20
564.90	44343.79
565.07	44664.44
565.23	44364.85
565.39	44631.68
565.56	44741.68
565.72	45200.43
565.88	44715.93
566.05	45415.76
566.21	45160.64
566.38	44858.71
566.54	45193.40
566.70	44783.81
566.87	45113.83
567.03	44662.10
567.19	44935.95
567.36	45017.86
567.52	45254.26
567.68	45209.79
567.85	45172.34
568.01	45275.32
568.17	45261.28
568.34	45160.64
568.50	45287.03
568.66	45071.70
568.83	44891.48
568.99	45317.45
569.15	45233.19
569.32	45333.84
569.48	45462.57
569.64	46075.79
569.81	45170.00
569.97	45834.71
570.13	45808.96
570.30	44952.33
570.46	45603.00
570.62	45387.67
570.78	45270.64
570.95	45528.10
571.11	45628.74
571.27	45471.93
571.43	45549.17
571.60	45698.96
571.76	45841.73
571.92	45464.91
572.09	45745.77
572.25	45020.20
572.41	45673.21
572.57	45652.15
572.74	45890.88
572.90	45670.87
573.06	45736.41
573.22	45724.71
573.38	45764.49
573.55	45621.72
573.71	46312.18
573.87	45518.74
574.03	45940.04
574.20	45834.71
574.36	45516.40
574.52	46054.72
574.68	45436.82
574.84	45703.64
575.01	45928.33
575.17	45839.39
575.33	45799.60
575.49	45834.71
575.65	45755.13
575.82	45808.96
575.98	45647.47
576.14	45729.39
576.30	45860.46
576.46	45933.01
576.62	45743.43
576.79	45741.09
576.95	45006.16
577.11	45668.53
577.27	45797.26
577.43	45867.48
577.59	45888.54
577.75	45710.66
577.92	45741.09
578.08	45528.10
578.24	45640.45
578.40	45986.85
578.56	46050.04
578.72	45804.28
578.88	45982.16
579.04	45666.19
579.21	45923.65
579.37	45752.79
579.53	45883.86
579.69	45755.13
579.85	45921.31
580.01	45350.22
580.17	45394.69
580.33	46010.25
580.49	45933.01
580.65	46024.29
580.82	45883.86
580.98	46183.45
581.14	46096.85
581.30	45900.25
581.46	46330.90
581.62	45708.32
581.78	46010.25
581.94	45839.39
582.10	46075.79
582.26	46337.93
582.42	46082.81
582.58	46017.27
582.74	46096.85
582.90	46012.59
583.06	46026.63
583.22	46328.56
583.38	45766.84
583.54	46110.89
583.70	46031.32
583.86	46178.77
584.02	45928.33
584.18	46415.16
584.34	45963.44
584.50	46363.67
584.66	46321.54
584.82	46213.88
584.98	46028.98
585.14	46401.12
585.30	45680.24
585.46	46330.90
585.62	46085.15
585.78	46256.01
585.94	45879.18
586.10	46103.87
586.26	46122.60
586.42	46234.94
586.58	46087.49
586.74	45720.02
586.90	45799.60
587.06	46377.72
587.22	46033.66
587.38	45851.09
587.54	46513.47
587.70	46354.31
587.86	46328.56
588.02	46197.49
588.18	46031.32
588.34	46174.09
588.49	46227.92
588.65	46270.05
588.81	45911.95
588.97	46471.34
589.13	46541.55
589.29	46213.88
589.45	46454.95
589.61	46443.25
589.77	46609.43
589.93	46316.86
590.08	46452.61
590.24	46241.96
590.40	46415.16
590.56	46911.36
590.72	46396.44
590.88	46007.91
591.04	46586.02
591.20	46450.27
591.35	46775.61
591.51	47168.82
591.67	46937.10
591.83	46883.27
591.99	46422.19
592.15	46787.31
592.31	46415.16
592.46	46480.70
592.62	46791.99
592.78	47000.30
592.94	46845.82
593.10	47119.66
593.26	47622.88
593.41	46941.78
593.57	46681.98
593.73	47037.75
593.89	46834.12
594.05	47122.01
594.20	46944.12
594.36	47096.26
594.52	46918.38
594.68	46976.89
594.84	46742.84
594.99	46916.04
595.15	46878.59
595.31	46976.89
595.47	47126.69
595.62	46574.32
595.78	46511.13
595.94	46569.64
596.10	46602.41
596.25	46614.11
596.41	46962.85
596.57	46724.11
596.73	47407.55
596.88	46698.37
597.04	46773.27
597.20	46911.36
597.36	47030.72
597.51	47079.88
597.67	46763.90
597.83	46918.38
597.99	46504.10
598.14	47021.36
598.30	46492.40
598.46	46932.42
598.61	47145.41
598.77	47016.68
598.93	46969.87
599.09	46752.20
599.24	47110.30
599.40	46981.57
599.56	47311.59
599.71	47271.80
599.87	47313.93
600.03	47232.01
600.18	47370.10
600.34	46831.78
600.50	47239.03
600.65	46871.57
600.81	47414.57
600.97	47246.05
601.12	47044.77
601.28	47110.30
601.44	47093.92
601.59	47122.01
601.75	46681.98
601.91	47276.48
602.06	47255.42
602.22	47391.17
602.37	47236.69
602.53	46916.04
602.69	47278.82
602.84	46878.59
603.00	46845.82
603.16	47342.02
603.31	46843.48
603.47	47295.21
603.62	46990.94
603.78	47093.92
603.94	46955.83
604.09	47173.50
604.25	47063.49
604.40	46808.37
604.56	46754.54
604.71	47215.63
604.87	46567.30
605.03	46796.67
605.18	46937.10
605.34	47313.93
605.49	46976.89
605.65	47019.02
605.80	46513.47
605.96	46979.23
606.12	47065.83
606.27	46939.44
606.43	46843.48
606.58	46941.78
606.74	46532.19
606.89	46939.44
607.05	47241.37
607.20	47428.62
607.36	47110.30
607.51	46831.78
607.67	46925.40
607.82	46883.27
607.98	46677.30
608.13	47203.92
608.29	46747.52
608.44	46834.12
608.60	46450.27
608.75	46628.15
608.91	46906.68
609.06	46754.54
609.22	47360.74
609.37	46394.10
609.53	46803.69
609.68	47161.79
609.84	46841.14
609.99	46672.62
610.15	46679.64
610.30	46766.24
610.46	46948.81
610.61	46663.26
610.76	46452.61
610.92	46557.94
611.07	46391.76
611.23	46476.02
611.38	46492.40
611.54	46607.09
611.69	46581.34
611.84	46717.09
612.00	46478.36
612.15	46330.90
612.31	46644.54
612.46	46150.68
612.62	46883.27
612.77	46230.26
612.92	46564.96
613.08	46560.28
613.23	46384.74
613.39	46417.50
613.54	46487.72
613.69	46270.05
613.85	46192.81
614.00	46452.61
614.15	46567.30
614.31	46064.08
614.46	46335.59
614.62	45659.17
614.77	46340.27
614.92	46293.46
615.08	45951.74
615.23	46286.43
615.38	46426.87
615.54	46487.72
615.69	46302.82
615.84	45989.19
616.00	46045.36
616.15	46211.54
616.30	46085.15
616.46	45825.35
616.61	46370.69
616.76	46384.74
616.92	46234.94
617.07	46248.99
617.22	46225.58
617.37	45851.09
617.53	45909.61
617.68	45691.94
617.83	45998.55
617.99	46354.31
618.14	46351.97
618.29	45883.86
618.45	45507.04
618.60	45799.60
618.75	45806.62
618.90	45495.33
619.06	45858.12
619.21	45631.08
619.36	46487.72
619.51	45392.35
619.67	45359.58
619.82	46045.36
619.97	46213.88
620.12	45450.86
620.28	45542.14
620.43	45869.82
620.58	45659.17
620.73	45579.59
620.89	45570.23
621.04	45645.13
621.19	45397.03
621.34	45422.78
621.49	45322.13
621.65	45546.82
621.80	45509.38
621.95	45516.40
622.10	45762.15
622.25	45216.81
622.41	45394.69
622.56	45485.97
622.71	45265.96
622.86	45167.66
623.01	45708.32
623.16	45038.93
623.32	45411.07
623.47	45064.67
623.62	45439.16
623.77	45221.49
623.92	45755.13
624.07	45303.41
624.23	45579.59
624.38	45352.56
624.53	45013.18
624.68	45284.68
624.83	45230.85
624.98	44811.90
625.13	44641.04
625.29	45029.57
625.44	45139.57
625.59	44870.41
625.74	45003.82
625.89	44465.50
626.04	44570.82
626.19	45017.86
626.34	44734.66
626.49	44437.41
626.65	44624.65
626.80	44636.36
626.95	44364.85
627.10	44378.90
627.25	44626.99
627.40	44285.28
627.55	44800.19
627.70	44514.65
627.85	44650.40
628.00	44727.64
628.15	44519.33
628.30	44027.82
628.45	44100.37
628.60	44105.06
628.76	44343.79
628.91	44744.02
629.06	44205.70
629.21	44165.91
629.36	43985.69
629.51	44554.44
629.66	44294.64
629.81	44353.15
629.96	44165.91
630.11	43997.39
630.26	44205.70
630.41	44095.69
630.56	44189.31
630.71	44296.98
630.86	44023.14
631.01	44013.77
631.16	43821.85
631.31	43828.87
631.46	44191.65
631.61	44065.27
631.76	44161.23
631.91	43964.62
632.06	43966.96
632.21	43969.30
632.36	44067.61
632.51	43407.58
632.66	43985.69
632.81	43885.04
632.96	43587.80
633.10	43662.69
633.25	43714.19
633.40	43629.93
633.55	43906.11
633.70	43763.34
633.85	43349.06
634.00	43456.73
634.15	42960.53
634.30	43302.25
634.45	43248.42
634.60	43283.53
634.75	43419.28
634.90	43552.69
635.05	43498.86
635.19	43246.08
635.34	43952.92
635.49	43145.44
635.64	43248.42
635.79	43433.32
635.94	43295.23
636.09	43779.72
636.24	43302.25
636.39	43508.22
636.53	43367.79
636.68	42667.97
636.83	42632.86
636.98	43225.01
637.13	42859.89
637.28	42948.83
637.43	42728.82
637.57	43419.28
637.72	42965.21
637.87	42930.11
638.02	43105.65
638.17	42976.92
638.32	42326.25
638.46	42438.59
638.61	42618.81
638.76	42689.03
638.91	42759.25
639.06	42869.25
639.20	42223.26
639.35	42438.59
639.50	42286.46
639.65	42920.74
639.80	43189.91
639.94	42719.46
640.09	42869.25
640.24	43133.73
640.39	42447.96
640.54	42504.13
640.68	42295.82
640.83	42518.17
640.98	41982.19
641.13	42209.22
641.27	42515.83
641.42	42387.10
641.57	41986.87
641.72	42871.59
641.86	42146.03
642.01	42024.32
642.16	42326.25
642.31	41607.70
642.45	42162.41
642.60	42270.08
642.75	42323.91
642.90	42178.79
643.04	42234.97
643.19	42108.58
643.34	41771.54
643.48	41607.70
643.63	41823.03
643.78	41984.53
643.93	42139.00
644.07	42094.53
644.22	42368.38
644.37	41745.80
644.51	42033.68
644.66	42050.06
644.81	41621.75
644.95	41799.63
645.10	41787.92
645.25	41694.30
645.39	41390.03
645.54	41764.52
645.69	41715.37
645.83	41619.41
645.98	41593.66
646.13	41588.98
646.27	41254.28
646.42	41434.50
646.57	41755.16
646.71	41495.36
646.86	41715.37
647.00	41359.61
647.15	41202.79
647.30	41729.41
647.44	41200.45
647.59	41219.17
647.74	41731.75
647.88	41408.76
648.03	41617.07
648.17	41401.74
648.32	41329.18
648.47	41769.20
648.61	40748.73
648.76	41069.38
648.90	41216.83
649.05	41352.58
649.20	40851.71
649.34	41195.77
649.49	41244.92
649.63	41354.93
649.78	41483.66
649.92	41202.79
650.07	41654.51
650.21	41399.40
650.36	41085.76
650.51	41277.69
650.65	41205.13
650.80	41062.36
650.94	41265.99
651.09	40999.16
651.23	40142.53
651.38	40547.44
651.52	40250.19
651.67	40399.99
651.81	40500.63
651.96	40659.79
652.10	40065.29
652.25	40673.83
652.39	40266.58
652.54	40708.94
652.68	40690.21
652.83	40294.66
652.97	40697.24
653.12	40416.37
653.26	40531.06
653.41	40402.33
653.55	40781.49
653.70	40467.86
653.84	40692.55
653.99	40179.98
654.13	40355.52
654.27	39885.07
654.42	40381.26
654.56	40208.06
654.71	40498.29
654.85	40247.85
655.00	39992.73
655.14	40371.90
655.29	40748.73
655.43	40023.16
655.57	40037.20
655.72	39723.57
655.86	39606.55
656.01	39789.11
656.15	39744.64
656.30	40222.11
656.44	39955.29
656.58	39824.22
656.73	40126.14
656.87	39594.84
657.01	39728.25
657.16	40149.55
657.30	39655.70
657.45	39658.04
657.59	39611.23
657.73	39346.75
657.88	39126.74
658.02	39676.76
658.16	39927.20
658.31	39929.54
658.45	39484.84
658.60	39304.62
658.74	39150.14
658.88	39838.26
659.03	39236.74
659.17	38960.56
659.31	39543.35
659.46	38880.98
659.60	39171.21
659.74	39056.52
659.89	38880.98
660.03	38934.81
660.17	39117.37
660.32	38686.71
660.46	38747.57
660.60	38745.23
660.74	38986.30
660.89	38775.66
661.03	38536.92
661.17	38747.57
661.32	38473.73
661.46	38721.82
661.60	38183.50
661.74	38302.87
661.89	38363.72
662.03	38234.99
662.17	38052.43
662.31	37963.49
662.46	38904.38
662.60	37921.36
662.74	37961.15
662.88	37804.33
663.03	37820.72
663.17	37460.27
663.31	37280.05
663.45	37490.70
663.60	37961.15
663.74	37640.50
663.88	37560.92
664.02	37581.98
664.17	37860.51
664.31	37322.18
664.45	37151.32
664.59	37195.79
664.73	37312.82
664.88	37415.80
665.02	36868.12
665.16	37151.32
665.30	37420.48
665.44	37361.97
665.59	37095.15
665.73	37404.10
665.87	36662.15
666.01	37144.30
666.15	37008.55
666.29	36776.84
666.44	36961.74
666.58	36407.03
666.72	36898.55
666.86	36683.22
667.00	36257.24
667.14	36292.35
667.28	36313.41
667.43	36278.30
667.57	36531.08
667.71	36503.00
667.85	36559.17
667.99	36589.59
668.13	36400.01
668.27	35931.90
668.41	35938.93
668.56	35559.76
668.70	35906.16
668.84	35695.51
668.98	35122.08
669.12	35948.29
669.26	35704.87
669.40	35541.03
669.54	35515.29
669.68	35676.79
669.82	35515.29
669.96	35480.18
670.10	35079.95
670.25	35255.49
670.39	35304.64
670.53	35211.02
670.67	34916.11
670.81	34831.85
670.95	35173.57
671.09	34857.60
671.23	34628.23
671.37	34906.75
671.51	34808.45
671.65	34501.84
671.79	34466.73
671.93	34993.35
672.07	34635.25
672.21	34485.45
672.35	34012.66
672.49	34665.67
672.63	34015.01
672.77	33923.72
672.91	33851.17
673.05	34075.86
673.19	33617.11
673.33	33972.88
673.47	33572.64
673.61	33329.23
673.75	33401.79
673.89	33558.60
674.03	32966.45
674.17	33251.99
674.31	32669.20
674.45	32826.01
674.59	32961.76
674.73	33022.62
674.87	32879.85
675.01	32669.20
675.15	32421.10
675.29	32348.54
675.43	32149.60
675.56	32535.79
675.70	32587.28
675.84	32273.65
675.98	31171.25
676.12	31931.93
676.26	32229.18
676.40	31365.52
676.54	31466.16
676.68	31608.93
676.82	31651.06
676.96	31880.44
677.10	31501.27
677.23	31676.81
677.37	31424.03
677.51	31129.12
677.65	31208.70
677.79	30541.65
677.93	31330.41
678.07	30948.90
678.21	30897.41
678.34	30654.00
678.48	30331.00
678.62	30160.14
678.76	30216.32
678.90	30101.63
679.04	30309.94
679.18	30384.83
679.31	29701.40
679.45	30155.46
679.59	29673.31
679.73	29820.77
679.87	29392.45
680.00	29624.16
680.14	29783.32
680.28	29340.96
680.42	29481.39
680.56	29174.78
680.70	29062.43
680.83	28870.51
680.97	28755.82
681.11	28957.11
681.25	28346.23
681.39	28584.96
681.52	28692.63
681.66	28322.82
681.80	27857.06
681.94	27892.16
682.07	27894.50
682.21	27770.46
682.35	27646.41
682.49	27798.54
682.62	27674.49
682.76	27618.32
682.90	27517.68
683.04	27672.15
683.17	27388.95
683.31	26958.29
683.45	26995.74
683.59	26848.29
683.72	26616.57
683.86	26995.74
684.00	26534.65
684.13	26815.52
684.27	26609.55
684.41	26551.04
684.55	26707.85
684.68	26438.69
684.82	26354.43
684.96	26146.12
685.09	26190.59
685.23	25682.70
685.37	26230.38
685.50	26335.71
685.64	25916.75
685.78	25790.36
685.91	25607.80
686.05	24896.28
686.19	24690.31
686.32	24889.26
686.46	25027.35
686.60	24584.99
686.73	24849.47
686.87	24702.01
687.01	24755.85
687.14	25132.67
687.28	24690.31
687.42	24547.54
687.55	23821.97
687.69	24329.87
687.82	23943.68
687.96	24439.87
688.10	24177.73
688.23	24112.20
688.37	23929.64
688.50	23988.15
688.64	23836.02
688.78	23487.28
688.91	23681.54
689.05	23747.08
689.18	23365.57
689.32	22871.72
689.46	22834.27
689.59	23014.49
689.73	23332.80
689.86	23300.03
690.00	23014.49
690.13	22927.89
690.27	22764.05
690.41	22476.16
690.54	22249.13
690.68	22356.80
690.81	21891.03
690.95	22288.92
691.08	21982.31
691.22	22085.30
691.35	21970.61
691.49	21923.80
691.62	21776.34
691.76	21558.67
691.89	21188.87
692.03	21275.47
692.16	21195.89
692.30	21287.17
692.43	21209.93
692.57	20837.79
692.70	20886.94
692.84	20641.18
692.97	20601.40
693.11	20540.54
693.24	20563.95
693.38	20379.04
693.51	20255.00
693.65	20170.74
693.78	20056.05
693.92	19941.36
694.05	19873.49
694.19	19896.89
694.32	19789.23
694.45	20276.06
694.59	19836.04
694.72	19964.77
694.86	19543.47
694.99	19592.62
695.13	19405.38
695.26	19068.34
695.39	19136.22
695.53	19278.99
695.66	19314.10
695.80	19002.81
695.93	19091.75
696.07	18635.35
696.20	18136.81
696.33	18396.61
696.47	18242.14
696.60	18146.17
696.73	18387.25
696.87	18464.49
697.00	18466.83
697.14	18108.72
697.27	17944.89
697.40	17893.40
697.54	17998.72
697.67	17577.42
697.80	17554.02
697.94	17678.07
698.07	17661.68
698.21	17465.08
698.34	17500.19
698.47	17191.23
698.61	16851.86
698.74	16961.86
698.87	17041.44
699.01	16893.99
699.14	16992.29
699.27	16886.97
699.40	16926.75
699.54	16638.87
699.67	16945.48
699.80	16821.43
699.94	16353.32
700.07	16355.66
700.20	16311.19
700.34	16063.10
700.47	16109.91
700.60	16156.72
700.73	16198.85
700.87	15704.99
701.00	15943.73
701.13	15669.89
701.26	15695.63
701.40	15508.39
701.53	15569.24
701.66	15545.84
701.79	15337.53
701.93	15023.90
702.06	15054.33
702.19	15410.09
702.32	15325.83
702.46	15047.30
702.59	15169.01
702.72	15094.11
702.85	15002.83
702.99	14714.95
703.12	14506.64
703.25	14665.80
703.38	14317.06
703.51	14714.95
703.65	14331.10
703.78	14209.39
703.91	13935.55
704.04	14050.24
704.17	13977.68
704.31	14066.62
704.44	14008.11
704.57	13820.86
704.70	13764.69
704.83	13654.69
704.96	13352.76
705.10	13458.08
705.23	13474.46
>>>>>End Processed Spectral Data<<<<<
