SpectraSuite Data File
++++++++++++++++++++++++++++++++++++
Date: Fri Oct 25 10:48:32 EDT 2013
User: price-jones
Dark Spectrum Present: No
Reference Spectrum Present: No
Number of Sampled Component Spectra: 1
Spectrometers: USB2+H05261
Integration Time (usec): 100000 (USB2+H05261)
Spectra Averaged: 1 (USB2+H05261)
Boxcar Smoothing: 0 (USB2+H05261)
Correct for Electrical Dark: No (USB2+H05261)
Strobe/Lamp Enabled: No (USB2+H05261)
Correct for Detector Non-linearity: No (USB2+H05261)
Correct for Stray Light: No (USB2+H05261)
Number of Pixels in Processed Spectrum: 2048
>>>>>Begin Processed Spectral Data<<<<<
365.73	60.85
365.92	60.85
366.12	60.85
366.32	25.75
366.52	107.66
366.72	53.83
366.91	84.26
367.11	121.71
367.31	93.62
367.51	0.00
367.70	112.35
367.90	128.73
368.10	84.26
368.30	91.28
368.49	39.79
368.69	100.64
368.89	53.83
369.09	56.17
369.28	107.66
369.48	42.13
369.68	44.47
369.87	79.58
370.07	86.60
370.27	140.43
370.47	215.33
370.66	477.47
370.86	423.64
371.06	550.03
371.25	493.85
371.45	482.15
371.65	454.06
371.84	475.13
372.04	428.32
372.24	531.30
372.44	496.19
372.63	552.37
372.83	503.22
373.03	557.05
373.22	582.79
373.42	526.62
373.62	482.15
373.81	592.16
374.01	573.43
374.21	587.47
374.40	531.30
374.60	657.69
374.79	634.29
374.99	592.16
375.19	669.39
375.38	620.24
375.58	681.10
375.78	678.76
375.97	578.11
376.17	671.73
376.37	606.20
376.56	669.39
376.76	645.99
376.95	601.52
377.15	638.97
377.35	650.67
377.54	641.31
377.74	674.07
377.93	718.54
378.13	692.80
378.33	692.80
378.52	660.03
378.72	732.59
378.91	669.39
379.11	674.07
379.31	674.07
379.50	662.37
379.70	758.33
379.89	798.12
380.09	767.70
380.28	664.71
380.48	699.82
380.68	711.52
380.87	697.48
381.07	716.20
381.26	767.70
381.46	777.06
381.65	732.59
381.85	720.88
382.04	667.05
382.24	767.70
382.43	723.23
382.63	774.72
382.83	774.72
383.02	781.74
383.22	819.19
383.41	720.88
383.61	835.57
383.80	826.21
384.00	763.01
384.19	802.80
384.39	798.12
384.58	894.08
384.78	908.13
384.97	830.89
385.17	833.23
385.36	858.98
385.56	840.25
385.75	924.51
385.95	835.57
386.14	936.21
386.34	889.40
386.53	849.61
386.72	861.32
386.92	870.68
387.11	847.27
387.31	877.70
387.50	880.04
387.70	901.11
387.89	926.85
388.09	954.94
388.28	915.15
388.48	917.49
388.67	1015.79
388.86	954.94
389.06	1011.11
389.25	1039.20
389.45	978.34
389.64	994.73
389.84	1083.67
390.03	987.71
390.22	1071.97
390.42	1039.20
390.61	1102.39
390.81	1076.65
391.00	1116.44
391.19	1121.12
391.39	1057.92
391.58	1062.60
391.78	1069.62
391.97	1088.35
392.16	1081.33
392.36	1055.58
392.55	1015.79
392.75	1053.24
392.94	980.68
393.13	1032.18
393.33	985.37
393.52	997.07
393.71	1130.48
393.91	1249.85
394.10	1116.44
394.29	1261.55
394.49	1172.61
394.68	1200.69
394.88	1294.32
395.07	1235.80
395.26	1224.10
395.46	1287.29
395.65	1329.42
395.84	1289.64
396.04	1336.45
396.23	1310.70
396.42	1156.22
396.62	1198.35
396.81	1306.02
397.00	1338.79
397.19	1259.21
397.39	1413.68
397.58	1357.51
397.77	1406.66
397.97	1455.81
398.16	1537.73
398.35	1561.14
398.55	1495.60
398.74	1474.54
398.93	1621.99
399.12	1556.46
399.32	1549.43
399.51	1591.56
399.70	1792.85
399.90	1591.56
400.09	1535.39
400.28	1671.14
400.47	1694.55
400.67	1781.15
400.86	1774.13
401.05	1750.72
401.24	1748.38
401.44	1792.85
401.63	1785.83
401.82	1696.89
402.01	1706.25
402.21	1727.32
402.40	1813.92
402.59	1739.02
402.78	1816.26
402.97	1811.57
403.17	1923.92
403.36	1844.34
403.55	1834.98
403.74	1909.88
403.93	1937.96
404.13	1923.92
404.32	1898.17
404.51	1891.15
404.70	1942.64
404.89	1996.48
405.09	2024.56
405.28	2064.35
405.47	2083.08
405.66	1982.43
405.85	2076.06
406.05	2132.23
406.24	2080.74
406.43	2022.22
406.62	2064.35
406.81	2134.57
407.00	2127.55
407.20	2127.55
407.39	2146.27
407.58	2242.23
407.77	2237.55
407.96	2239.89
408.15	2267.98
408.34	2232.87
408.54	2354.58
408.73	2282.02
408.92	2279.68
409.11	2429.48
409.30	2370.96
409.49	2326.49
409.68	2225.85
409.87	2363.94
410.07	2464.58
410.26	2377.98
410.45	2392.03
410.64	2530.12
410.83	2609.70
411.02	2565.23
411.21	2700.98
411.40	2675.23
411.59	2597.99
411.78	2644.81
411.98	2565.23
412.17	2663.53
412.36	2672.89
412.55	2829.71
412.74	2771.19
412.93	2752.47
413.12	2792.26
413.31	3009.93
413.50	2794.60
413.69	2986.52
413.88	3009.93
414.07	2883.54
414.26	2970.14
414.45	3089.51
414.64	2920.99
414.83	3129.30
415.02	3103.55
415.22	3073.12
415.41	3180.79
415.60	3234.62
415.79	3368.03
415.98	3262.71
416.17	3276.75
416.36	3304.84
416.55	3314.20
416.74	3468.67
416.93	3304.84
417.12	3370.37
417.31	3382.07
417.50	3393.78
417.69	3602.08
417.88	3459.31
418.07	3438.25
418.26	3538.89
418.45	3578.68
418.64	3714.43
418.83	3541.23
419.02	3492.08
419.21	3695.71
419.39	3592.72
419.58	3620.81
419.77	3609.11
419.96	3712.09
420.15	3744.86
420.34	3852.52
420.53	3779.97
420.72	3906.35
420.91	3962.53
421.10	3950.82
421.29	3920.40
421.48	3756.56
421.67	3929.76
421.86	3946.14
422.05	3873.59
422.24	3929.76
422.43	3801.03
422.61	4007.00
422.80	3983.59
422.99	3999.98
423.18	3999.98
423.37	4079.55
423.56	4042.11
423.75	3990.61
423.94	4112.32
424.13	3726.13
424.32	3861.88
424.50	4135.73
424.69	3999.98
424.88	4180.20
425.07	3957.85
425.26	4046.79
425.45	3932.10
425.64	4032.74
425.83	3988.27
426.01	4133.39
426.20	4044.45
426.39	4107.64
426.58	4044.45
426.77	3955.51
426.96	4079.55
427.15	4025.72
427.33	4112.32
427.52	4290.20
427.71	4229.35
427.90	4191.90
428.09	4271.48
428.28	4243.39
428.46	4142.75
428.65	4315.95
428.84	4334.67
429.03	4304.25
429.22	4107.64
429.40	4161.47
429.59	4070.19
429.78	4025.72
429.97	3936.78
430.16	4163.81
430.34	4114.66
430.53	4147.43
430.72	4180.20
430.91	4418.93
431.10	4526.60
431.28	4610.86
431.47	4601.49
431.66	4851.93
431.85	4645.96
432.03	4561.70
432.22	4770.01
432.41	4608.51
432.60	4814.48
432.79	4840.23
432.97	4880.02
433.16	4880.02
433.35	4751.29
433.54	4713.84
433.72	4760.65
433.91	4828.53
434.10	4828.53
434.28	4971.30
434.47	4947.89
434.66	5062.58
434.85	5034.49
435.03	5013.43
435.22	5153.86
435.41	5193.65
435.59	5184.29
435.78	5114.07
435.97	5273.23
436.16	5261.52
436.34	5301.31
436.53	5247.48
436.72	5540.05
436.90	5317.70
437.09	5181.95
437.28	5238.12
437.46	5387.91
437.65	5118.75
437.84	5406.64
438.02	5380.89
438.21	5256.84
438.40	5174.92
438.58	5408.98
438.77	5673.46
438.96	5579.84
439.14	5757.72
439.33	5731.97
439.52	5785.80
439.70	5753.04
439.89	5664.10
440.08	5633.67
440.26	5755.38
440.45	5905.17
440.63	5916.87
440.82	6022.20
441.01	6104.12
441.19	6094.76
441.38	6139.23
441.57	6396.68
441.75	6399.02
441.94	6471.58
442.12	6282.00
442.31	6469.24
442.50	6429.45
442.68	6396.68
442.87	6457.54
443.05	6590.95
443.24	6754.79
443.43	6665.85
443.61	6487.96
443.80	6810.96
443.98	6455.20
444.17	6469.24
444.35	6698.61
444.54	6668.19
444.73	6764.15
444.91	6628.40
445.10	6630.74
445.28	6740.74
445.47	6502.01
445.65	6448.18
445.84	6731.38
446.02	6785.21
446.21	6597.97
446.39	6607.33
446.58	6855.43
446.77	6853.09
446.95	6724.36
447.14	6862.45
447.32	6897.56
447.51	6794.58
447.69	6731.38
447.88	6717.34
448.06	6825.00
448.25	6881.18
448.43	6953.73
448.62	6813.30
448.80	6862.45
448.99	6832.02
449.17	7000.54
449.36	7070.76
449.54	7028.63
449.73	7047.35
449.91	7112.89
450.10	7283.75
450.28	7346.94
450.46	7391.41
450.65	7463.97
450.83	7201.83
451.02	7314.17
451.20	7344.60
451.39	7482.69
451.57	7557.59
451.76	7323.54
451.94	7274.38
452.13	7384.39
452.31	7335.24
452.49	7136.29
452.68	7398.43
452.86	7538.87
453.05	7581.00
453.23	7660.57
453.42	7470.99
453.60	7396.09
453.78	7548.23
453.97	7779.94
454.15	7585.68
454.34	7599.72
454.52	7768.24
454.70	7602.06
454.89	7801.01
455.07	7831.43
455.26	7644.19
455.44	7873.56
455.62	7887.61
455.81	7878.24
455.99	8079.53
456.17	8032.72
456.36	7992.93
456.54	8159.11
456.73	8280.82
456.91	8205.92
457.09	8386.14
457.28	8573.38
457.46	8245.71
457.64	8421.25
457.83	8358.05
458.01	8156.77
458.19	8308.90
458.38	8243.37
458.56	8489.12
458.74	8346.35
458.93	8325.29
459.11	8393.16
459.29	8561.68
459.48	8690.41
459.66	8667.00
459.84	8409.54
460.03	8795.73
460.21	8603.81
460.39	8732.54
460.57	8613.17
460.76	8697.43
460.94	8910.42
461.12	8954.89
461.31	8751.26
461.49	8795.73
461.67	8875.31
461.85	8849.57
462.04	8849.57
462.22	9558.75
462.40	9202.99
462.59	9083.62
462.77	9027.45
462.95	9114.05
463.13	9050.85
463.32	9228.73
463.50	9277.88
463.68	9020.42
463.86	9413.63
464.05	9107.02
464.23	9121.07
464.41	9280.22
464.59	9305.97
464.78	9310.65
464.96	9242.78
465.14	9172.56
465.32	9448.74
465.50	9338.74
465.69	9469.81
465.87	9383.21
466.05	9397.25
466.23	9383.21
466.41	9397.25
466.60	9565.77
466.78	9249.80
466.96	9296.61
467.14	9411.29
467.32	9638.33
467.51	9755.35
467.69	9469.81
467.87	9577.47
468.05	9568.11
468.23	9783.44
468.41	9507.26
468.60	9687.48
468.78	9989.41
468.96	9631.30
469.14	9785.78
469.32	9935.57
469.50	9708.54
469.69	10113.45
469.87	9923.87
470.05	10127.50
470.23	9968.34
470.41	10010.47
470.59	10218.78
470.77	10132.18
470.95	10281.97
471.14	10167.29
471.32	10375.59
471.50	10422.41
471.68	10319.42
471.86	10548.79
472.04	10607.31
472.22	10668.16
472.40	10403.68
472.58	10562.84
472.77	10607.31
472.95	10883.49
473.13	11115.20
473.31	10607.31
473.49	10822.64
473.67	10832.00
473.85	10911.58
474.03	11272.02
474.21	11080.10
474.39	11297.77
474.57	11222.87
474.75	11236.91
474.93	11515.44
475.12	11335.21
475.30	11494.37
475.48	11609.06
475.66	11777.58
475.84	11440.54
476.02	11730.76
476.20	11728.42
476.38	11871.20
476.56	12374.41
476.74	12161.42
476.92	11971.84
477.10	11974.18
477.28	12301.86
477.46	12238.66
477.64	12587.40
477.82	12496.12
478.00	12699.75
478.18	12774.64
478.36	12922.10
478.54	13083.59
478.72	12912.74
478.90	13488.51
479.08	13390.20
479.26	13516.59
479.44	13394.89
479.62	13350.42
479.80	13731.92
479.98	13610.22
480.16	13954.27
480.34	13909.80
480.52	13792.78
480.70	13984.70
480.88	13675.75
481.06	14321.74
481.24	14272.59
481.41	14553.45
481.59	14817.93
481.77	14466.85
481.95	14630.69
482.13	14588.56
482.31	14841.34
482.49	15330.51
482.67	15161.99
482.85	15201.78
483.03	15592.65
483.21	15606.69
483.39	15957.77
483.57	15733.08
483.74	15695.63
483.92	15840.75
484.10	16137.99
484.28	16203.53
484.46	16482.05
484.64	16629.51
484.82	16496.10
485.00	16304.17
485.18	16587.38
485.35	16807.39
485.53	16381.41
485.71	16578.01
485.89	17029.74
486.07	16685.68
486.25	17069.53
486.43	17067.19
486.61	17493.16
486.78	17598.49
486.96	17722.54
487.14	18136.81
487.32	18071.28
487.50	18286.61
487.68	18581.51
487.85	18820.25
488.03	19040.26
488.21	18871.74
488.39	18827.27
488.57	18834.29
488.75	19105.79
488.92	19433.47
489.10	19634.75
489.28	19850.08
489.46	19964.77
489.64	20006.90
489.81	20493.73
489.99	20688.00
490.17	20294.79
490.35	20755.87
490.53	20856.51
490.70	20856.51
490.88	20732.47
491.06	21172.49
491.24	21317.60
491.41	20985.24
491.59	21060.14
491.77	21275.47
491.95	21593.78
492.13	21839.54
492.30	21537.61
492.48	22008.06
492.66	22483.19
492.84	22230.41
493.01	22462.12
493.19	22721.92
493.37	22576.81
493.54	22595.53
493.72	23075.34
493.90	22955.97
494.08	23330.46
494.25	23335.14
494.43	24121.56
494.61	23868.78
494.79	24030.28
494.96	23955.38
495.14	24004.53
495.32	23997.51
495.49	24226.89
495.67	24229.23
495.85	24554.56
496.02	24631.80
496.20	24840.11
496.38	24978.20
496.55	25071.82
496.73	25514.18
496.91	25474.39
497.09	25350.34
497.26	25741.21
497.44	25455.67
497.62	25446.30
497.79	25888.67
497.97	25706.10
498.14	25837.17
498.32	26347.41
498.50	26108.68
498.67	26476.14
498.85	26434.01
499.03	26857.65
499.20	26583.80
499.38	27199.37
499.56	27168.94
499.73	27283.62
499.91	26937.23
500.08	27241.50
500.26	26595.51
500.44	26974.67
500.61	27456.82
500.79	27033.19
500.97	27211.07
501.14	27651.09
501.32	27730.67
501.49	27969.40
501.67	27557.47
501.84	27915.57
502.02	28072.39
502.20	28306.44
502.37	28706.67
502.55	28400.06
502.72	28250.27
502.90	28416.44
503.07	28376.66
503.25	28982.85
503.43	28741.78
503.60	28945.41
503.78	28933.70
503.95	28821.36
504.13	28968.81
504.30	29081.16
504.48	29158.39
504.65	29392.45
504.83	29869.92
505.01	29603.10
505.18	29607.78
505.36	29912.05
505.53	30253.76
505.71	30384.83
505.88	30253.76
506.06	30071.20
506.23	30508.88
506.41	30141.42
506.58	30396.54
506.76	30326.32
506.93	30778.04
507.11	30511.22
507.28	30717.19
507.46	30501.86
507.63	30644.63
507.81	30883.37
507.98	30913.80
508.16	31040.18
508.33	31215.72
508.50	31267.22
508.68	31171.25
508.85	31618.30
509.03	31679.15
509.20	31503.61
509.38	31653.40
509.55	31779.79
509.73	31936.61
509.90	31988.10
510.08	32044.27
510.25	32006.83
510.42	32252.58
510.60	32734.73
510.77	32275.99
510.95	32914.95
511.12	32177.68
511.30	32680.90
511.47	33134.96
511.64	33067.09
511.82	32905.59
511.99	32706.65
512.17	32786.22
512.34	32545.15
512.51	33532.86
512.69	33708.40
512.86	33745.84
513.04	33694.35
513.21	33343.27
513.38	33511.79
513.56	33507.11
513.73	32980.49
513.90	33752.87
514.08	33579.67
514.25	33846.49
514.43	33954.15
514.60	33745.84
514.77	33982.24
514.95	34316.93
515.12	34307.57
515.29	34403.53
515.47	34567.37
515.64	34705.46
515.81	34394.17
515.99	34754.61
516.16	34455.03
516.33	33979.90
516.51	34169.48
516.68	33947.13
516.85	33675.63
517.03	34377.79
517.20	34529.92
517.37	34742.91
517.54	34925.47
517.72	35321.02
517.89	34691.42
518.06	34684.40
518.24	34789.72
518.41	34918.45
518.58	35257.83
518.75	35234.42
518.93	35526.99
519.10	35473.16
519.27	35990.42
519.45	35964.67
519.62	35824.24
519.79	36004.46
519.96	36006.80
520.14	36435.12
520.31	35941.27
520.48	36526.40
520.65	36350.86
520.83	36636.41
521.00	36804.92
521.17	36266.60
521.34	36545.12
521.52	36879.82
521.69	36886.84
521.86	37256.65
522.03	36760.45
522.20	37097.49
522.38	37134.94
522.55	37280.05
522.72	37151.32
522.89	37060.04
523.07	37462.61
523.24	37090.47
523.41	37654.54
523.58	37741.14
523.75	37816.04
523.92	38064.13
524.10	37762.20
524.27	37645.18
524.44	38143.71
524.61	38237.33
524.78	38305.21
524.96	37984.55
525.13	38387.13
525.30	38995.67
525.47	38546.28
525.64	38391.81
525.81	38651.61
525.98	38665.65
526.16	37860.51
526.33	38068.81
526.50	38478.41
526.67	38532.24
526.84	38267.76
527.01	38384.79
527.18	38293.50
527.36	38693.74
527.53	39131.42
527.70	39360.79
527.87	39051.84
528.04	39201.63
528.21	39576.12
528.38	38955.88
528.55	39768.04
528.72	39672.08
528.89	39868.69
529.07	39592.50
529.24	39126.74
529.41	39536.33
529.58	39641.65
529.75	39578.46
529.92	40060.61
530.09	39985.71
530.26	40126.14
530.43	40163.59
530.60	40168.27
530.77	40444.46
530.94	40612.98
531.11	40187.00
531.28	39983.37
531.46	40196.36
531.63	40170.61
531.80	40144.87
531.97	40189.34
532.14	40439.78
532.31	39922.52
532.48	40371.90
532.65	40580.21
532.82	40357.86
532.99	40685.53
533.16	40631.70
533.33	40788.52
533.50	41064.70
533.67	41141.94
533.84	40683.19
534.01	41368.97
534.18	40708.94
534.35	41375.99
534.52	41116.19
534.69	41120.87
534.86	41298.75
535.03	41081.08
535.20	41198.11
535.37	41497.70
535.54	41677.92
535.71	41443.87
535.88	42005.59
536.05	41507.06
536.22	41677.92
536.38	41607.70
536.55	41457.91
536.72	41542.17
536.89	41626.43
537.06	42019.64
537.23	41778.56
537.40	41752.82
537.57	41560.89
537.74	42117.94
537.91	42506.47
538.08	41984.53
538.25	41565.57
538.42	42462.00
538.59	42567.32
538.75	41670.90
538.92	42337.95
539.09	42333.27
539.26	42534.56
539.43	42108.58
539.60	42625.84
539.77	42064.11
539.94	42712.44
540.11	41834.74
540.28	42241.99
540.44	41996.23
540.61	42272.42
540.78	42178.79
540.95	42438.59
541.12	42504.13
541.29	42733.50
541.46	42649.24
541.62	42684.35
541.79	42850.53
541.96	42391.78
542.13	42593.07
542.30	43129.05
542.47	43194.59
542.63	42939.47
542.80	43014.37
542.97	43636.95
543.14	43435.66
543.31	43592.48
543.48	43510.56
543.64	44275.91
543.81	43739.93
543.98	43969.30
544.15	43452.05
544.32	43529.28
544.48	44083.99
544.65	43800.79
544.82	43540.99
544.99	43388.85
545.16	43775.04
545.32	43618.22
545.49	44081.65
545.66	44259.53
545.83	44196.34
546.00	44318.04
546.16	44531.03
546.33	44048.88
546.50	43814.83
546.67	44189.31
546.83	43086.92
547.00	44046.54
547.17	43950.58
547.34	44062.93
547.50	44062.93
547.67	44451.45
547.84	44435.07
548.00	44603.59
548.17	44531.03
548.34	44385.92
548.51	44493.58
548.67	44568.48
548.84	44591.89
549.01	44809.56
549.18	44769.77
549.34	44729.98
549.51	44559.12
549.68	44996.80
549.84	44779.13
550.01	45146.59
550.18	44493.58
550.34	44605.93
550.51	44889.13
550.68	44942.97
550.84	44554.44
551.01	44903.18
551.18	45270.64
551.34	44868.07
551.51	45090.42
551.68	45186.38
551.84	45237.87
552.01	45301.07
552.18	45111.49
552.34	44734.66
552.51	45212.13
552.68	45015.52
552.84	45570.23
553.01	45542.14
553.18	45130.21
553.34	45015.52
553.51	45067.02
553.67	45598.32
553.84	45708.32
554.01	45755.13
554.17	45869.82
554.34	45881.52
554.51	45897.91
554.67	45729.39
554.84	45832.37
555.00	45017.86
555.17	45317.45
555.33	45495.33
555.50	45656.83
555.67	46160.05
555.83	45588.95
556.00	45727.05
556.16	46115.58
556.33	45710.66
556.50	45577.25
556.66	45684.92
556.83	45631.08
556.99	45820.67
557.16	45776.20
557.32	46075.79
557.49	45897.91
557.65	45539.80
557.82	45364.26
557.98	46096.85
558.15	46136.64
558.32	45832.37
558.48	45626.40
558.65	45888.54
558.81	45846.41
558.98	46328.56
559.14	45914.29
559.31	46005.57
559.47	46351.97
559.64	46412.82
559.80	46363.67
559.97	45991.53
560.13	45968.12
560.30	45860.46
560.46	46272.39
560.63	46108.55
560.79	46330.90
560.96	46976.89
561.12	46197.49
561.29	46096.85
561.45	46110.89
561.61	46586.02
561.78	46307.50
561.94	45965.78
562.11	46260.69
562.27	46527.51
562.44	46361.33
562.60	46225.58
562.77	46319.20
562.93	46349.63
563.10	46667.94
563.26	46471.34
563.42	46375.37
563.59	46239.62
563.75	46501.76
563.92	46644.54
564.08	47461.38
564.24	46504.10
564.41	46642.20
564.57	46412.82
564.74	47000.30
564.90	46784.97
565.07	46429.21
565.23	46480.70
565.39	46569.64
565.56	46738.16
565.72	46782.63
565.88	46527.51
566.05	46602.41
566.21	46696.03
566.38	46291.12
566.54	46436.23
566.70	46869.23
566.87	47028.38
567.03	46941.78
567.19	47037.75
567.36	47026.04
567.52	46265.37
567.68	46815.40
567.85	46632.83
568.01	46843.48
568.17	46796.67
568.34	46878.59
568.50	46745.18
568.66	46808.37
568.83	46934.76
568.99	46658.58
569.15	46630.49
569.32	46742.84
569.48	46646.88
569.64	47131.37
569.81	46784.97
569.97	47082.22
570.13	46522.83
570.30	46454.95
570.46	46824.76
570.62	46546.23
570.78	46497.08
570.95	46394.10
571.11	47049.45
571.27	46831.78
571.43	46576.66
571.60	47449.68
571.76	46937.10
571.92	46780.29
572.09	46993.28
572.25	46951.15
572.41	46862.21
572.57	47054.13
572.74	47100.94
572.90	47311.59
573.06	46660.92
573.22	46738.16
573.38	47065.83
573.55	46714.75
573.71	46995.62
573.87	46787.31
574.03	47173.50
574.20	47037.75
574.36	46974.55
574.52	46836.46
574.68	47047.11
574.84	47201.58
575.01	47028.38
575.17	46623.47
575.33	46967.53
575.49	46738.16
575.65	47084.56
575.82	47515.22
575.98	46927.74
576.14	47096.26
576.30	46960.51
576.46	47026.04
576.62	46754.54
576.79	47107.96
576.95	46330.90
577.11	47445.00
577.27	47332.65
577.43	46983.91
577.59	46948.81
577.75	46948.81
577.92	46913.70
578.08	46541.55
578.24	46485.38
578.40	46993.28
578.56	46735.82
578.72	46953.49
578.88	47061.15
579.04	47103.28
579.21	47000.30
579.37	46696.03
579.53	46911.36
579.69	46864.55
579.85	47290.52
580.01	47192.22
580.17	47044.77
580.33	47332.65
580.49	47143.07
580.65	47112.64
580.82	47306.91
580.98	47320.95
581.14	46909.02
581.30	47262.44
581.46	47173.50
581.62	47447.34
581.78	47061.15
581.94	47716.50
582.10	47065.83
582.26	47449.68
582.42	47480.11
582.58	47210.95
582.74	47133.71
582.90	47433.30
583.06	47143.07
583.22	47445.00
583.38	47278.82
583.54	46972.21
583.70	47281.16
583.86	47086.90
584.02	47192.22
584.18	46827.10
584.34	47253.08
584.50	47271.80
584.66	47173.50
584.82	47213.29
584.98	47620.54
585.14	47442.66
585.30	47140.73
585.46	47028.38
585.62	46815.40
585.78	47091.58
585.94	46499.42
586.10	46827.10
586.26	46939.44
586.42	47138.39
586.58	47047.11
586.74	47026.04
586.90	47007.32
587.06	47079.88
587.22	47440.32
587.38	46630.49
587.54	47360.74
587.70	47070.51
587.86	47019.02
588.02	47342.02
588.18	47103.28
588.34	47089.24
588.49	47178.18
588.65	46639.86
588.81	46557.94
588.97	46866.89
589.13	46733.48
589.29	46642.20
589.45	47065.83
589.61	47082.22
589.77	47136.05
589.93	46845.82
590.08	47210.95
590.24	47306.91
590.40	47199.24
590.56	47428.62
590.72	47393.51
590.88	46686.67
591.04	47302.23
591.20	47653.31
591.35	47356.06
591.51	47739.91
591.67	47358.40
591.83	47374.78
591.99	46714.75
592.15	47154.77
592.31	47182.86
592.46	47007.32
592.62	47051.79
592.78	47332.65
592.94	47433.30
593.10	47473.09
593.26	47384.15
593.41	47421.59
593.57	46920.72
593.73	47040.09
593.89	47452.02
594.05	47487.13
594.20	47295.21
594.36	47594.79
594.52	47232.01
594.68	47327.97
594.84	47590.11
594.99	47601.82
595.15	47526.92
595.31	47662.67
595.47	47199.24
595.62	47327.97
595.78	47283.50
595.94	47519.90
596.10	47426.28
596.25	47360.74
596.41	47634.58
596.57	47337.33
596.73	47772.67
596.88	47234.35
597.04	47203.92
597.20	47440.32
597.36	47342.02
597.51	47122.01
597.67	47299.89
597.83	47505.85
597.99	47227.33
598.14	47292.86
598.30	47168.82
598.46	47402.87
598.61	47356.06
598.77	47126.69
598.93	47098.60
599.09	47515.22
599.24	47796.08
599.40	47295.21
599.56	47555.00
599.71	47576.07
599.87	47437.98
600.03	47697.78
600.18	47592.45
600.34	47206.26
600.50	47098.60
600.65	47323.29
600.81	47632.24
600.97	47269.46
601.12	47810.12
601.28	47203.92
601.44	47302.23
601.59	47154.77
601.75	46789.65
601.91	47405.21
602.06	47334.99
602.22	46927.74
602.37	47374.78
602.53	47150.09
602.69	47477.77
602.84	47122.01
603.00	47309.25
603.16	47391.17
603.31	47271.80
603.47	47138.39
603.62	47178.18
603.78	47339.68
603.94	47604.16
604.09	47686.07
604.25	47849.91
604.40	46948.81
604.56	47515.22
604.71	47473.09
604.87	47168.82
605.03	47688.42
605.18	47117.32
605.34	47283.50
605.49	46932.42
605.65	47611.18
605.80	46880.93
605.96	47082.22
606.12	47253.08
606.27	47440.32
606.43	46880.93
606.58	47297.55
606.74	46981.57
606.89	46794.33
607.05	46707.73
607.20	47004.98
607.36	47400.53
607.51	47426.28
607.67	47414.57
607.82	47234.35
607.98	47372.44
608.13	47290.52
608.29	47019.02
608.44	46728.80
608.60	46576.66
608.75	46581.34
608.91	46469.00
609.06	46684.33
609.22	47227.33
609.37	46522.83
609.53	47124.35
609.68	47304.57
609.84	46892.63
609.99	47199.24
610.15	46590.70
610.30	46576.66
610.46	46574.32
610.61	46983.91
610.76	46789.65
610.92	46487.72
611.07	46494.74
611.23	46431.55
611.38	46829.44
611.54	46499.42
611.69	46728.80
611.84	46597.73
612.00	46279.41
612.15	46260.69
612.31	46822.42
612.46	46665.60
612.62	47054.13
612.77	46574.32
612.92	47035.41
613.08	46887.95
613.23	46452.61
613.39	46363.67
613.54	46422.19
613.69	46052.38
613.85	46518.15
614.00	46237.28
614.15	46312.18
614.31	46192.81
614.46	46569.64
614.62	46319.20
614.77	46192.81
614.92	46438.57
615.08	45778.54
615.23	46028.98
615.38	46036.00
615.54	45773.86
615.69	46253.67
615.84	45654.49
616.00	46021.95
616.15	45942.38
616.30	45745.77
616.46	45572.57
616.61	45242.56
616.76	45734.07
616.92	45794.92
617.07	45595.98
617.22	45790.24
617.37	45607.68
617.53	45617.04
617.68	45633.42
617.83	45677.90
617.99	46270.05
618.14	45968.12
618.29	45904.93
618.45	45820.67
618.60	45759.81
618.75	45420.44
618.90	45521.08
619.06	45249.58
619.21	45851.09
619.36	45858.12
619.51	45497.67
619.67	45099.78
619.82	45677.90
619.97	46256.01
620.12	45528.10
620.28	45067.02
620.43	45488.31
620.58	45397.03
620.73	45254.26
620.89	45406.39
621.04	45230.85
621.19	44886.79
621.34	45146.59
621.49	44980.42
621.65	44830.62
621.80	45294.05
621.95	45158.30
622.10	44968.71
622.25	44872.75
622.41	44690.19
622.56	44872.75
622.71	44914.88
622.86	44842.32
623.01	44903.18
623.16	45036.59
623.32	45448.52
623.47	45017.86
623.62	44928.92
623.77	44884.45
623.92	44921.90
624.07	44711.25
624.23	44570.82
624.38	44189.31
624.53	44404.64
624.68	45031.91
624.83	44685.51
624.98	44865.73
625.13	44037.18
625.29	44666.78
625.44	44184.63
625.59	44130.80
625.74	44332.09
625.89	43697.80
626.04	44032.50
626.19	44460.82
626.34	44561.46
626.49	44301.66
626.65	44072.29
626.80	44348.47
626.95	44037.18
627.10	43892.07
627.25	43529.28
627.40	43924.83
627.55	43875.68
627.70	43309.27
627.85	43590.14
628.00	43718.87
628.15	43819.51
628.30	44051.22
628.45	43852.28
628.60	44060.58
628.76	43531.62
628.91	43611.20
629.06	43681.42
629.21	43688.44
629.36	43335.02
629.51	43646.31
629.66	43239.06
629.81	43337.36
629.96	43316.29
630.11	43419.28
630.26	43093.94
630.41	43636.95
630.56	43285.87
630.71	43332.68
630.86	43625.25
631.01	43061.18
631.16	43152.46
631.31	42518.17
631.46	42927.77
631.61	43054.15
631.76	43112.67
631.91	43257.78
632.06	43203.95
632.21	43030.75
632.36	43009.68
632.51	43332.68
632.66	43171.18
632.81	42485.40
632.96	42979.26
633.10	42660.94
633.25	42899.68
633.40	42827.12
633.55	43318.64
633.70	42852.87
633.85	43035.43
634.00	42878.61
634.15	42583.71
634.30	42920.74
634.45	42696.05
634.60	42621.16
634.75	42550.94
634.90	42763.93
635.05	42319.23
635.19	42508.81
635.34	43187.56
635.49	42941.81
635.64	42382.42
635.79	41858.14
635.94	42543.92
636.09	42930.11
636.24	42340.29
636.39	42359.02
636.53	42543.92
636.68	42253.69
636.83	42698.39
636.98	42344.97
637.13	42141.35
637.28	42286.46
637.43	42625.84
637.57	42384.76
637.72	42141.35
637.87	42010.28
638.02	42480.72
638.17	42302.84
638.32	41752.82
638.46	41645.15
638.61	41862.82
638.76	41708.35
638.91	41951.76
639.06	41865.16
639.20	42029.00
639.35	42064.11
639.50	41591.32
639.65	42033.68
639.80	41916.65
639.94	41460.25
640.09	41516.42
640.24	41432.16
640.39	41478.97
640.54	41577.28
640.68	41385.35
640.83	41654.51
640.98	41846.44
641.13	41677.92
641.27	41851.12
641.42	41350.24
641.57	42139.00
641.72	41535.15
641.86	40968.74
642.01	41027.25
642.16	41118.53
642.31	40802.56
642.45	41523.44
642.60	40950.01
642.75	41144.28
642.90	41048.32
643.04	41214.49
643.19	41106.83
643.34	40996.82
643.48	40999.16
643.63	40933.63
643.78	40926.61
643.93	41148.96
644.07	40486.59
644.22	40608.29
644.37	41041.29
644.51	40919.59
644.66	40627.02
644.81	41029.59
644.95	40823.62
645.10	40725.32
645.25	41064.70
645.39	40971.08
645.54	40945.33
645.69	40498.29
645.83	40519.35
645.98	40608.29
646.13	40418.71
646.27	40957.03
646.42	40566.16
646.57	40430.41
646.71	40013.80
646.86	40713.62
647.00	40570.85
647.15	40540.42
647.30	40451.48
647.44	40177.64
647.59	40196.36
647.74	39962.31
647.88	39873.37
648.03	39966.99
648.17	40500.63
648.32	39711.87
648.47	39992.73
648.61	39959.97
648.76	40591.91
648.90	40325.09
649.05	40217.43
649.20	40217.43
649.34	40367.22
649.49	39917.84
649.63	39894.43
649.78	39964.65
649.92	39814.85
650.07	40060.61
650.21	39573.78
650.36	39704.85
650.51	39608.89
650.65	40121.46
650.80	40240.83
650.94	40095.72
651.09	39704.85
651.23	39763.36
651.38	39615.91
651.52	39613.57
651.67	39379.51
651.81	39346.75
651.96	39552.71
652.10	39318.66
652.25	39133.76
652.39	39583.14
652.54	39821.87
652.68	39639.31
652.83	39349.09
652.97	39625.27
653.12	39501.22
653.26	39098.65
653.41	39489.52
653.55	39257.81
653.70	38618.84
653.84	38660.97
653.99	39622.93
654.13	39311.64
654.27	39199.29
654.42	39601.86
654.56	38653.95
654.71	38906.73
654.85	39456.75
655.00	38986.30
655.14	38714.80
655.29	38543.94
655.43	38574.37
655.57	38213.93
655.72	38227.97
655.86	38307.55
656.01	38337.98
656.15	37841.78
656.30	38225.63
656.44	38616.50
656.58	38752.25
656.73	38061.79
656.87	38525.22
657.01	38260.74
657.16	38124.99
657.30	37855.82
657.45	37937.74
657.59	38146.05
657.73	38377.76
657.88	38686.71
658.02	38265.42
658.16	38293.50
658.31	38419.89
658.45	38099.24
658.60	38567.35
658.74	38445.64
658.88	38211.59
659.03	37771.57
659.17	37867.53
659.31	38045.41
659.46	37848.80
659.60	37507.08
659.74	37598.37
659.89	37944.76
660.03	37785.61
660.17	37900.29
660.32	37734.12
660.46	37834.76
660.60	37584.32
660.74	37841.78
660.89	37631.13
661.03	37081.11
661.17	37411.12
661.32	37191.11
661.46	37530.49
661.60	37338.57
661.74	37553.90
661.89	37282.39
662.03	37083.45
662.17	37099.83
662.31	37141.96
662.46	37062.38
662.60	37153.66
662.74	36673.85
662.88	36978.12
663.03	36708.96
663.17	36830.67
663.31	36697.26
663.45	36666.83
663.60	36650.45
663.74	36325.11
663.88	36278.30
664.02	35995.10
664.17	36488.95
664.31	36357.88
664.45	36409.37
664.59	36320.43
664.73	36449.16
664.88	36514.70
665.02	36020.84
665.16	35723.60
665.30	35985.74
665.44	35761.05
665.59	35541.03
665.73	35576.14
665.87	35637.00
666.01	35484.86
666.15	35482.52
666.29	35758.70
666.44	35651.04
666.58	35332.73
666.72	35372.52
666.86	35606.57
667.00	35386.56
667.14	35578.48
667.28	34991.01
667.43	35019.10
667.57	34616.52
667.71	35005.05
667.85	35157.19
667.99	35302.30
668.13	34948.88
668.27	34759.30
668.41	35260.17
668.56	34656.31
668.70	34773.34
668.84	34852.92
668.98	34698.44
669.12	34787.38
669.26	34773.34
669.40	34396.51
669.54	34635.25
669.68	34569.71
669.82	34382.47
669.96	34057.14
670.10	34085.22
670.25	34108.63
670.39	34253.74
670.53	33809.04
670.67	33979.90
670.81	34099.26
670.95	34003.30
671.09	34295.87
671.23	33930.75
671.37	34059.48
671.51	33673.29
671.65	33446.26
671.79	33338.59
671.93	33205.18
672.07	33378.38
672.21	33193.48
672.35	33233.27
672.49	33010.92
672.63	33345.61
672.77	32849.42
672.91	32950.06
673.05	32718.35
673.19	32650.47
673.33	32830.69
673.47	33031.98
673.61	32280.67
673.75	32336.84
673.89	32173.00
674.03	31854.69
674.17	32257.26
674.31	32371.95
674.45	31992.78
674.59	32051.30
674.73	32086.40
674.87	32128.53
675.01	31735.32
675.15	31880.44
675.29	31955.33
675.43	32231.52
675.56	31770.43
675.70	31751.71
675.84	31608.93
675.98	30466.75
676.12	31234.45
676.26	30885.71
676.40	30974.65
676.54	31213.38
676.68	30944.22
676.82	30335.68
676.96	30408.24
677.10	30504.20
677.23	30403.56
677.37	30658.68
677.51	30562.72
677.65	30506.54
677.79	29706.08
677.93	30080.56
678.07	30000.99
678.21	29942.47
678.34	29818.42
678.48	29916.73
678.62	29582.03
678.76	29240.31
678.90	29509.47
679.04	29715.44
679.18	29041.37
679.31	29099.88
679.45	29022.64
679.59	28758.16
679.73	28856.46
679.87	29130.31
680.00	28922.00
680.14	28732.42
680.28	28580.28
680.42	28807.31
680.56	28950.09
680.70	28280.69
680.83	28493.68
680.97	27927.27
681.11	28037.28
681.25	27882.80
681.39	27903.87
681.52	27828.97
681.66	27887.48
681.80	27646.41
681.94	28013.87
682.07	27529.38
682.21	27374.91
682.35	27580.87
682.49	27489.59
682.62	27358.52
682.76	26981.70
682.90	27094.04
683.04	26923.18
683.17	26649.34
683.31	27000.42
683.45	26869.35
683.59	26831.90
683.72	26057.18
683.86	26302.94
684.00	26106.34
684.13	26539.33
684.27	26464.44
684.41	26256.13
684.55	26242.09
684.68	25656.95
684.82	25642.91
684.96	25762.28
685.09	25453.33
685.23	25577.37
685.37	25483.75
685.50	25443.96
685.64	25184.16
685.78	25282.47
685.91	25193.53
686.05	24828.40
686.19	24826.06
686.32	24919.68
686.46	24334.55
686.60	24306.46
686.73	24032.62
686.87	23920.28
687.01	24203.48
687.14	23756.44
687.28	23789.20
687.42	23594.94
687.55	23442.81
687.69	23786.86
687.82	23557.49
687.96	23941.34
688.10	23765.80
688.23	23482.59
688.37	22885.76
688.50	23136.20
688.64	22977.04
688.78	22698.52
688.91	22911.50
689.05	22806.18
689.18	22654.05
689.32	22515.95
689.46	22267.86
689.59	22850.65
689.73	22338.07
689.86	22546.38
690.00	22307.65
690.13	22590.85
690.27	22317.01
690.41	22314.67
690.54	21984.65
690.68	21832.52
690.81	21921.46
690.95	21834.86
691.08	21970.61
691.22	21635.91
691.35	21467.39
691.49	21352.71
691.62	21762.30
691.76	21659.32
691.89	21397.18
692.03	21341.00
692.16	21249.72
692.30	20837.79
692.43	21123.33
692.57	20840.13
692.70	20835.45
692.84	20645.87
692.97	20603.74
693.11	20475.01
693.24	20210.53
693.38	20465.64
693.51	20191.80
693.65	20247.97
693.78	20114.56
693.92	20250.32
694.05	19946.05
694.19	19555.18
694.32	20112.22
694.45	20013.92
694.59	19784.55
694.72	19405.38
694.86	19562.20
694.99	19241.54
695.13	19035.58
695.26	19042.60
695.39	18728.97
695.53	19094.09
695.66	19243.88
695.80	18721.95
695.93	18801.52
696.07	18668.11
696.20	18714.92
696.33	18569.81
696.47	18445.76
696.60	18623.64
696.73	18499.59
696.87	18511.30
697.00	18162.56
697.14	18253.84
697.27	18249.16
697.40	18223.41
697.54	17872.33
697.67	17731.90
697.80	17584.44
697.94	17991.70
698.07	17657.00
698.21	17671.04
698.34	17455.72
698.47	17411.25
698.61	17191.23
698.74	17125.70
698.87	17125.70
699.01	16936.12
699.14	16805.05
699.27	17319.96
699.40	16910.37
699.54	16723.13
699.67	16554.61
699.80	16627.17
699.94	16702.06
700.07	16606.10
700.20	16423.54
700.34	16250.34
700.47	16283.11
700.60	16437.58
700.73	16264.38
700.87	16245.66
701.00	16145.02
701.13	16098.20
701.26	15946.07
701.40	16042.03
701.53	15903.94
701.66	16046.71
701.79	15707.34
701.93	15503.71
702.06	15564.56
702.19	15447.54
702.32	15499.03
702.46	15396.04
702.59	15094.11
702.72	15456.90
702.85	15154.97
702.99	15173.69
703.12	15384.34
703.25	15274.34
703.38	14726.65
703.51	14684.52
703.65	14789.85
703.78	14796.87
703.91	14679.84
704.04	14534.73
704.17	14485.58
704.31	14396.64
704.44	14396.64
704.57	14146.20
704.70	14057.26
704.83	14155.56
704.96	13937.89
705.10	14153.22
705.23	14204.71
>>>>>End Processed Spectral Data<<<<<
