SpectraSuite Data File
++++++++++++++++++++++++++++++++++++
Date: Fri Oct 25 11:34:20 EDT 2013
User: price-jones
Dark Spectrum Present: No
Reference Spectrum Present: No
Number of Sampled Component Spectra: 1
Spectrometers: USB2+H05261
Integration Time (usec): 100000 (USB2+H05261)
Spectra Averaged: 1 (USB2+H05261)
Boxcar Smoothing: 0 (USB2+H05261)
Correct for Electrical Dark: No (USB2+H05261)
Strobe/Lamp Enabled: No (USB2+H05261)
Correct for Detector Non-linearity: No (USB2+H05261)
Correct for Stray Light: No (USB2+H05261)
Number of Pixels in Processed Spectrum: 2048
>>>>>Begin Processed Spectral Data<<<<<
365.73	245.76
365.92	245.76
366.12	245.76
366.32	170.86
366.52	159.16
366.72	159.16
366.91	138.09
367.11	152.13
367.31	112.35
367.51	163.84
367.70	222.35
367.90	208.31
368.10	147.45
368.30	210.65
368.49	189.58
368.69	278.52
368.89	203.63
369.09	215.33
369.28	264.48
369.48	205.97
369.68	236.39
369.87	236.39
370.07	245.76
370.27	241.08
370.47	404.91
370.66	472.79
370.86	533.64
371.06	603.86
371.25	566.41
371.45	493.85
371.65	526.62
371.84	514.92
372.04	500.87
372.24	510.24
372.44	552.37
372.63	655.35
372.83	622.58
373.03	594.50
373.22	615.56
373.42	610.88
373.62	599.18
373.81	653.01
374.01	641.31
374.21	676.41
374.40	615.56
374.60	624.92
374.79	681.10
374.99	678.76
375.19	564.07
375.38	631.94
375.58	697.48
375.78	634.29
375.97	627.26
376.17	674.07
376.37	688.12
376.56	695.14
376.76	627.26
376.95	648.33
377.15	653.01
377.35	664.71
377.54	702.16
377.74	650.67
377.93	655.35
378.13	737.27
378.33	777.06
378.52	748.97
378.72	737.27
378.91	718.54
379.11	699.82
379.31	589.82
379.50	683.44
379.70	667.05
379.89	734.93
380.09	746.63
380.28	695.14
380.48	791.10
380.68	709.18
380.87	716.20
381.07	713.86
381.26	744.29
381.46	770.04
381.65	816.85
381.85	683.44
382.04	758.33
382.24	772.38
382.43	763.01
382.63	758.33
382.83	844.93
383.02	753.65
383.22	786.42
383.41	819.19
383.61	823.87
383.80	840.25
384.00	739.61
384.19	767.70
384.39	861.32
384.58	826.21
384.78	758.33
384.97	858.98
385.17	954.94
385.36	861.32
385.56	870.68
385.75	819.19
385.95	763.01
386.14	821.53
386.34	819.19
386.53	882.38
386.72	922.17
386.92	861.32
387.11	772.38
387.31	833.23
387.50	779.40
387.70	863.66
387.89	922.17
388.09	940.90
388.28	828.55
388.48	915.15
388.67	910.47
388.86	933.87
389.06	896.43
389.25	938.55
389.45	1004.09
389.64	985.37
389.84	983.02
390.03	1032.18
390.22	957.28
390.42	908.13
390.61	978.34
390.81	898.77
391.00	947.92
391.19	950.26
391.39	884.72
391.58	992.39
391.78	987.71
391.97	1018.13
392.16	936.21
392.36	1027.50
392.55	957.28
392.75	1032.18
392.94	1046.22
393.13	1041.54
393.33	1055.58
393.52	1048.56
393.71	1060.26
393.91	1032.18
394.10	1027.50
394.29	1050.90
394.49	1090.69
394.68	1156.22
394.88	1069.62
395.07	1181.97
395.26	1170.27
395.46	1071.97
395.65	1170.27
395.84	1210.06
396.04	1275.59
396.23	1224.10
396.42	1217.08
396.62	1196.01
396.81	1268.57
397.00	1167.93
397.19	1203.04
397.39	1121.12
397.58	1277.93
397.77	1252.19
397.97	1203.04
398.16	1315.38
398.35	1280.27
398.55	1289.64
398.74	1231.12
398.93	1219.42
399.12	1179.63
399.32	1261.55
399.51	1303.68
399.70	1306.02
399.90	1355.17
400.09	1366.87
400.28	1418.36
400.47	1341.13
400.67	1350.49
400.86	1462.83
401.05	1383.26
401.24	1343.47
401.44	1387.94
401.63	1401.98
401.82	1341.13
402.01	1376.24
402.21	1416.02
402.40	1490.92
402.59	1458.15
402.78	1387.94
402.97	1509.65
403.17	1519.01
403.36	1411.34
403.55	1504.96
403.74	1554.12
403.93	1526.03
404.13	1598.59
404.32	1519.01
404.51	1500.28
404.70	1476.88
404.89	1586.88
405.09	1593.90
405.28	1720.29
405.47	1638.38
405.66	1621.99
405.85	1666.46
406.05	1596.25
406.24	1809.23
406.43	1713.27
406.62	1678.16
406.81	1748.38
407.00	1706.25
407.20	1689.87
407.39	1769.44
407.58	1769.44
407.77	1816.26
407.96	1788.17
408.15	1753.06
408.34	1900.52
408.54	1877.11
408.73	1729.66
408.92	1820.94
409.11	1888.81
409.30	1870.09
409.49	1963.71
409.68	1944.99
409.87	1916.90
410.07	2057.33
410.26	2022.22
410.45	2029.24
410.64	1973.07
410.83	2157.97
411.02	1994.14
411.21	2062.01
411.40	2097.12
411.59	2125.21
411.78	2181.38
411.98	2150.95
412.17	2246.91
412.36	2148.61
412.55	2232.87
412.74	2235.21
412.93	2183.72
413.12	2228.19
413.31	2368.62
413.50	2312.45
413.69	2338.20
413.88	2298.41
414.07	2541.82
414.26	2455.22
414.45	2506.71
414.64	2483.31
414.83	2462.24
415.02	2565.23
415.22	2558.21
415.41	2548.84
415.60	2651.83
415.79	2602.68
415.98	2752.47
416.17	2654.17
416.36	2623.74
416.55	2745.45
416.74	2717.36
416.93	2708.00
417.12	2888.22
417.31	2754.81
417.50	2818.00
417.69	2883.54
417.88	2920.99
418.07	2778.22
418.26	2855.45
418.45	2935.03
418.64	3019.29
418.83	2993.55
419.02	2979.50
419.21	3061.42
419.39	3038.02
419.58	3066.10
419.77	2988.86
419.96	3075.46
420.15	3143.34
420.34	3012.27
420.53	3000.57
420.72	3197.17
420.91	3300.16
421.10	3122.27
421.29	3239.30
421.48	2984.18
421.67	3227.60
421.86	3145.68
422.05	3241.64
422.24	3239.30
422.43	3141.00
422.61	3286.11
422.80	3351.65
422.99	3328.24
423.18	3239.30
423.37	3471.01
423.56	3272.07
423.75	3253.34
423.94	3218.24
424.13	3077.80
424.32	3302.50
424.50	3309.52
424.69	3403.14
424.88	3368.03
425.07	3323.56
425.26	3281.43
425.45	3342.28
425.64	3391.44
425.83	3311.86
426.01	3426.54
426.20	3349.31
426.39	3375.05
426.58	3375.05
426.77	3386.76
426.96	3328.24
427.15	3506.12
427.33	3403.14
427.52	3379.73
427.71	3419.52
427.90	3503.78
428.09	3604.42
428.28	3634.85
428.46	3559.95
428.65	3473.36
428.84	3742.52
429.03	3651.24
429.22	3562.30
429.40	3609.11
429.59	3775.28
429.78	3550.59
429.97	3618.47
430.16	3578.68
430.34	3702.73
430.53	3772.94
430.72	3885.29
430.91	3749.54
431.10	3709.75
431.28	4011.68
431.47	3857.20
431.66	4016.36
431.85	3936.78
432.03	3990.61
432.22	3873.59
432.41	3936.78
432.60	3969.55
432.79	3896.99
432.97	3995.29
433.16	3948.48
433.35	4016.36
433.54	3976.57
433.72	3950.82
433.91	3967.21
434.10	4119.34
434.28	4072.53
434.47	4128.70
434.66	4269.14
434.85	4175.52
435.03	4227.01
435.22	4236.37
435.41	4271.48
435.59	4217.65
435.78	4287.86
435.97	4248.07
436.16	4423.61
436.34	4215.30
436.53	4287.86
436.72	4407.23
436.90	4292.54
437.09	4390.84
437.28	4297.22
437.46	4376.80
437.65	4624.90
437.84	4578.09
438.02	4346.37
438.21	4379.14
438.40	4358.08
438.58	4599.15
438.77	4692.77
438.96	4683.41
439.14	4709.16
439.33	4713.84
439.52	4678.73
439.70	4873.00
439.89	4905.76
440.08	4812.14
440.26	4929.17
440.45	4795.76
440.63	4936.19
440.82	5041.51
441.01	4870.65
441.19	4924.49
441.38	5205.35
441.57	5015.77
441.75	5097.69
441.94	5036.83
442.12	5210.03
442.31	5287.27
442.50	5298.97
442.68	5083.64
442.87	5123.43
443.05	5460.47
443.24	5226.42
443.43	5350.46
443.61	5495.58
443.80	5518.98
443.98	5385.57
444.17	5221.74
444.35	5495.58
444.54	5514.30
444.73	5362.17
444.91	5383.23
445.10	5558.77
445.28	5411.32
445.47	5432.38
445.65	5479.19
445.84	5605.58
446.02	5757.72
446.21	5451.11
446.39	5458.13
446.58	5444.09
446.77	5568.13
446.95	5533.03
447.14	5605.58
447.32	5495.58
447.51	5584.52
447.69	5479.19
447.88	5633.67
448.06	5643.03
448.25	5694.52
448.43	5792.83
448.62	5509.62
448.80	5619.63
448.99	5680.48
449.17	5657.07
449.36	5605.58
449.54	5771.76
449.73	5856.02
449.91	5849.00
450.10	5741.33
450.28	5954.32
450.46	5790.49
450.65	5865.38
450.83	5856.02
451.02	5865.38
451.20	5982.41
451.39	6148.59
451.57	5825.59
451.76	6022.20
451.94	5944.96
452.13	6225.82
452.31	6171.99
452.49	6155.61
452.68	6139.23
452.86	6134.54
453.05	6235.19
453.23	6160.29
453.42	6111.14
453.60	6029.22
453.78	6258.59
453.97	6157.95
454.15	6120.50
454.34	6090.07
454.52	6349.87
454.70	6296.04
454.89	6291.36
455.07	6403.71
455.26	6511.37
455.44	6565.20
455.62	6621.38
455.81	6518.39
455.99	6422.43
456.17	6558.18
456.36	6469.24
456.54	6621.38
456.73	6813.30
456.91	6881.18
457.09	6757.13
457.28	7063.74
457.46	6806.28
457.64	6820.32
457.83	6836.70
458.01	6771.17
458.19	6942.03
458.38	6949.05
458.56	7007.56
458.74	6832.02
458.93	7087.14
459.11	7089.48
459.29	7122.25
459.48	7007.56
459.66	7173.74
459.84	7068.42
460.03	7262.68
460.21	7061.40
460.39	7129.27
460.57	7180.76
460.76	7155.02
460.94	7344.60
461.12	7370.35
461.31	7243.96
461.49	7229.91
461.67	7459.29
461.85	7279.07
462.04	7253.32
462.22	7850.16
462.40	7478.01
462.59	7396.09
462.77	7473.33
462.95	7698.02
463.13	7772.92
463.32	7468.65
463.50	7459.29
463.68	7559.93
463.86	7775.26
464.05	7606.74
464.23	7611.42
464.41	7660.57
464.59	7508.44
464.78	7985.91
464.96	7740.15
465.14	7623.12
465.32	7934.42
465.50	7948.46
465.69	8013.99
465.87	7838.45
466.05	7859.52
466.23	7892.29
466.41	7903.99
466.60	8081.87
466.78	8065.49
466.96	7873.56
467.14	7845.48
467.32	8133.36
467.51	8201.24
467.69	7726.11
467.87	7915.69
468.05	8077.19
468.23	7995.27
468.41	7868.88
468.60	8105.28
468.78	8219.96
468.96	8032.72
469.14	8355.71
469.32	8446.99
469.50	8095.91
469.69	8358.05
469.87	8498.49
470.05	8395.50
470.23	8503.17
470.41	8650.62
470.59	8533.59
470.77	8528.91
470.95	8524.23
471.14	8748.92
471.32	8645.94
471.50	8802.75
471.68	8713.81
471.86	8793.39
472.04	8720.84
472.22	9018.08
472.40	8875.31
472.58	8917.44
472.77	8945.53
472.95	9111.71
473.13	9268.52
473.31	9151.49
473.49	8931.48
473.67	9165.54
473.85	9273.20
474.03	9254.48
474.21	9448.74
474.39	9441.72
474.57	9437.04
474.75	9708.54
474.93	9596.20
475.12	9420.66
475.30	9741.31
475.48	9816.21
475.66	9769.40
475.84	9675.77
476.02	9989.41
476.20	9998.77
476.38	10174.31
476.56	10186.01
476.74	10197.71
476.92	10143.88
477.10	10284.31
477.28	10188.35
477.46	10223.46
477.64	10312.40
477.82	10436.45
478.00	10644.76
478.18	10785.19
478.36	10675.18
478.54	10754.76
478.72	11042.65
478.90	11066.05
479.08	11290.74
479.26	11047.33
479.44	11241.59
479.62	11487.35
479.80	11583.31
479.98	11515.44
480.16	11765.87
480.34	11819.71
480.52	11833.75
480.70	11705.02
480.88	11679.27
481.06	11880.56
481.24	12273.77
481.41	12100.57
481.59	12388.46
481.77	12507.82
481.95	12444.63
482.13	12493.78
482.31	12491.44
482.49	12823.80
482.67	12737.20
482.85	13177.22
483.03	13142.11
483.21	13085.94
483.39	13291.90
483.57	13179.56
483.74	13678.09
483.92	13462.76
484.10	13514.25
484.28	13682.77
484.46	13973.00
484.64	14288.97
484.82	13949.59
485.00	14061.94
485.18	14312.38
485.35	14473.87
485.53	14679.84
485.71	14583.88
485.89	14923.26
486.07	14916.23
486.25	15166.67
486.43	15105.82
486.61	15246.25
486.78	15276.68
486.96	15499.03
487.14	15611.37
487.32	15445.20
487.50	15730.74
487.68	16105.23
487.85	16255.02
488.03	16189.49
488.21	16561.63
488.39	16442.26
488.57	16521.84
488.75	16641.21
488.92	16805.05
489.10	16912.71
489.28	16856.54
489.46	17254.43
489.64	17369.12
489.81	17481.46
489.99	17476.78
490.17	17769.35
490.35	17848.93
490.53	17907.44
490.70	18143.83
490.88	17715.51
491.06	18092.34
491.24	18345.12
491.41	18363.84
491.59	18675.13
491.77	18445.76
491.95	18642.37
492.13	19037.92
492.30	19187.71
492.48	19136.22
492.66	19192.39
492.84	19290.70
493.01	19592.62
493.19	19550.49
493.37	19978.81
493.54	19822.00
493.72	20030.30
493.90	20133.29
494.08	20135.63
494.25	20283.08
494.43	20472.67
494.61	20540.54
494.79	20826.09
494.96	20683.31
495.14	20800.34
495.32	20725.44
495.49	20821.41
495.67	21010.99
495.85	21364.41
496.02	21542.29
496.20	21680.38
496.38	21685.06
496.55	21619.53
496.73	22024.44
496.91	21745.92
497.09	21930.82
497.26	22171.89
497.44	22260.84
497.62	22359.14
497.79	22579.15
497.97	22845.97
498.14	22789.80
498.32	22895.12
498.50	22525.32
498.67	23016.83
498.85	23339.82
499.03	23386.63
499.20	23424.08
499.38	23405.36
499.56	23300.03
499.73	23803.25
499.91	23616.01
500.08	23805.59
500.26	23826.65
500.44	24011.56
500.61	23990.49
500.79	24016.24
500.97	24107.52
501.14	24105.18
501.32	24662.22
501.49	24442.21
501.67	24393.06
501.84	24683.29
502.02	24889.26
502.20	24774.57
502.37	24835.42
502.55	24868.19
502.72	25064.80
502.90	25249.70
503.07	25273.10
503.25	25397.15
503.43	25240.34
503.60	25614.82
503.78	25507.16
503.95	25186.50
504.13	25422.90
504.30	25570.35
504.48	25685.04
504.65	26246.77
504.83	26202.30
505.01	26015.05
505.18	26284.22
505.36	26288.90
505.53	26485.50
505.71	26464.44
505.88	26663.38
506.06	26494.86
506.23	26394.22
506.41	26513.59
506.58	27005.10
506.76	27321.07
506.93	27407.67
507.11	26969.99
507.28	27260.22
507.46	27204.05
507.63	27311.71
507.81	27821.95
507.98	27145.53
508.16	27332.78
508.33	27737.69
508.50	28032.60
508.68	28154.30
508.85	28074.73
509.03	27941.32
509.20	27964.72
509.38	28355.59
509.55	28643.48
509.73	28037.28
509.90	28463.25
510.08	28151.96
510.25	28407.08
510.42	28535.81
510.60	28528.79
510.77	28912.64
510.95	29078.82
511.12	28865.83
511.30	29418.19
511.47	29289.46
511.64	28783.91
511.82	29315.21
511.99	29024.98
512.17	29504.79
512.34	29415.85
512.51	29479.05
512.69	30125.04
512.86	29947.15
513.04	29944.81
513.21	29687.36
513.38	30164.82
513.56	29961.20
513.73	29565.65
513.90	30043.12
514.08	30129.72
514.25	30323.98
514.43	30686.76
514.60	30527.61
514.77	30370.79
514.95	30576.76
515.12	30096.95
515.29	30831.88
515.47	30717.19
515.64	31129.12
515.81	30899.75
515.99	31213.38
516.16	31159.55
516.33	30874.01
516.51	31475.52
516.68	31283.60
516.85	31571.49
517.03	31508.29
517.20	31613.62
517.37	31674.47
517.54	32135.56
517.72	31857.03
517.89	31936.61
518.06	32121.51
518.24	31772.77
518.41	32165.98
518.58	31967.04
518.75	31742.35
518.93	31945.97
519.10	31964.70
519.27	31995.12
519.45	32453.87
519.62	32683.24
519.79	32568.55
519.96	32725.37
520.14	32716.01
520.31	32460.89
520.48	32961.76
520.65	33242.63
520.83	33462.64
521.00	33462.64
521.17	32985.17
521.34	33219.22
521.52	33525.83
521.69	33376.04
521.86	33535.20
522.03	33855.85
522.20	33523.49
522.38	33617.11
522.55	33640.52
522.72	34045.43
522.89	33865.21
523.07	34415.24
523.24	33886.28
523.41	34246.72
523.58	33755.21
523.75	34101.61
523.92	34029.05
524.10	34305.23
524.27	34653.97
524.44	34314.59
524.61	34529.92
524.78	34637.59
524.96	34775.68
525.13	35115.06
525.30	35314.00
525.47	34967.60
525.64	34857.60
525.81	34927.81
525.98	35154.85
526.16	35065.91
526.33	34981.65
526.50	35431.03
526.67	34813.13
526.84	35152.51
527.01	35594.87
527.18	35274.21
527.36	35662.74
527.53	35531.67
527.70	35971.69
527.87	35936.59
528.04	35831.26
528.21	35482.52
528.38	35889.77
528.55	35835.94
528.72	36084.04
528.89	36175.32
529.07	35573.80
529.24	35655.72
529.41	36041.91
529.58	36339.16
529.75	36510.02
529.92	36409.37
530.09	36521.72
530.26	36416.40
530.43	36247.88
530.60	36371.92
530.77	36414.05
530.94	36786.20
531.11	36634.06
531.28	36947.70
531.46	36828.33
531.63	36734.71
531.80	36568.53
531.97	36966.42
532.14	37006.21
532.31	37097.49
532.48	37263.67
532.65	37383.04
532.82	36954.72
532.99	37303.46
533.16	36917.27
533.33	37411.12
533.50	37230.90
533.67	37645.18
533.84	37163.03
534.01	37502.40
534.18	37603.05
534.35	37940.08
534.52	38223.29
534.69	38127.33
534.86	38270.10
535.03	37673.26
535.20	37972.85
535.37	38110.94
535.54	38321.59
535.71	38003.28
535.88	38227.97
536.05	38328.61
536.22	38286.48
536.38	38682.03
536.55	38579.05
536.72	38691.40
536.89	38307.55
537.06	38471.39
537.23	38579.05
537.40	38471.39
537.57	38600.12
537.74	38478.41
537.91	38735.87
538.08	38731.18
538.25	38387.13
538.42	39110.35
538.59	39194.61
538.75	38981.62
538.92	39470.79
539.09	38981.62
539.26	38911.41
539.43	39026.09
539.60	39543.35
539.77	39590.16
539.94	39669.74
540.11	39428.66
540.28	39508.24
540.44	39292.91
540.61	39442.71
540.78	39529.31
540.95	39723.57
541.12	39826.56
541.29	39548.03
541.46	39793.79
541.62	39690.80
541.79	39515.26
541.96	39541.01
542.13	39398.24
542.30	39585.48
542.47	40123.80
542.63	39924.86
542.80	40048.91
542.97	40610.64
543.14	40505.31
543.31	40348.50
543.48	40612.98
543.64	40683.19
543.81	40636.38
543.98	40376.58
544.15	40549.78
544.32	40884.48
544.48	40781.49
544.65	40807.24
544.82	40617.66
544.99	40872.78
545.16	40732.34
545.32	40732.34
545.49	41514.08
545.66	41525.78
545.83	40884.48
546.00	41249.60
546.16	41139.60
546.33	40950.01
546.50	41345.56
546.67	41233.22
546.83	41092.79
547.00	40957.03
547.17	41074.06
547.34	41591.32
547.50	41352.58
547.67	41979.85
547.84	41972.83
548.00	41446.21
548.17	41979.85
548.34	42007.94
548.51	41661.54
548.67	41820.69
548.84	41933.04
549.01	41577.28
549.18	41647.49
549.34	42351.99
549.51	42099.22
549.68	41897.93
549.84	41897.93
550.01	42270.08
550.18	41839.42
550.34	41581.96
550.51	42499.45
550.68	42607.11
550.84	41986.87
551.01	42761.59
551.18	41965.81
551.34	42431.57
551.51	42080.49
551.68	42485.40
551.84	42134.32
552.01	42597.75
552.18	42808.40
552.34	41851.12
552.51	42478.38
552.68	42394.12
552.84	42674.99
553.01	42478.38
553.18	42454.98
553.34	42988.62
553.51	42747.54
553.67	42728.82
553.84	42988.62
554.01	42873.93
554.17	43002.66
554.34	43498.86
554.51	42993.30
554.67	43117.35
554.84	42941.81
555.00	42958.19
555.17	42829.46
555.33	43061.18
555.50	43374.81
555.67	43484.81
555.83	43189.91
556.00	43643.97
556.16	43658.01
556.33	43320.98
556.50	43793.76
556.66	43512.90
556.83	42916.06
556.99	43770.36
557.16	43988.03
557.32	43672.06
557.49	43831.21
557.65	43335.02
557.82	43889.73
557.98	43559.71
558.15	43920.15
558.32	43636.95
558.48	43288.21
558.65	43894.41
558.81	43990.37
558.98	43421.62
559.14	43885.04
559.31	43487.15
559.47	43629.93
559.64	44020.80
559.80	43683.76
559.97	43962.28
560.13	44025.48
560.30	43854.62
560.46	44313.36
560.63	44217.40
560.79	43964.62
560.96	44362.51
561.12	44589.55
561.29	44425.71
561.45	43952.92
561.61	44868.07
561.78	44105.06
561.94	44378.90
562.11	44109.74
562.27	44048.88
562.44	44186.97
562.60	45081.06
562.77	44545.08
562.93	44486.56
563.10	44460.82
563.26	44069.95
563.42	44996.80
563.59	44154.21
563.75	44816.58
563.92	44751.04
564.08	44528.69
564.24	44507.63
564.41	44233.78
564.57	44421.03
564.74	44818.92
564.90	44619.97
565.07	44828.28
565.23	44811.90
565.39	44605.93
565.56	45029.57
565.72	44685.51
565.88	44931.26
566.05	44453.79
566.21	44582.52
566.38	44837.64
566.54	45017.86
566.70	44856.37
566.87	45017.86
567.03	44701.89
567.19	45258.94
567.36	44715.93
567.52	45235.53
567.68	44737.00
567.85	44821.26
568.01	44884.45
568.17	44521.67
568.34	45191.06
568.50	45130.21
568.66	44793.17
568.83	45296.39
568.99	45151.27
569.15	44919.56
569.32	44966.37
569.48	45027.23
569.64	45495.33
569.81	45427.46
569.97	45165.32
570.13	45425.12
570.30	45200.43
570.46	45247.24
570.62	45226.17
570.78	45277.66
570.95	45127.87
571.11	45975.14
571.27	44996.80
571.43	44924.24
571.60	45312.77
571.76	45127.87
571.92	45052.97
572.09	45137.23
572.25	45535.12
572.41	45151.27
572.57	45315.11
572.74	45558.53
572.90	45361.92
573.06	45359.58
573.22	45516.40
573.38	45359.58
573.55	45790.24
573.71	45713.00
573.87	45666.19
574.03	45413.41
574.20	45998.55
574.36	45380.65
574.52	45326.81
574.68	45500.01
574.84	45322.13
575.01	45759.81
575.17	45904.93
575.33	45474.27
575.49	45610.02
575.65	45661.51
575.82	45593.64
575.98	45638.11
576.14	45797.26
576.30	46087.49
576.46	45202.77
576.62	45228.51
576.79	45841.73
576.95	45216.81
577.11	45476.61
577.27	45418.10
577.43	45525.76
577.59	45607.68
577.75	45301.07
577.92	45289.37
578.08	45469.59
578.24	45525.76
578.40	45928.33
578.56	45535.12
578.72	46021.95
578.88	45340.86
579.04	45591.30
579.21	45518.74
579.37	45563.21
579.53	46176.43
579.69	45556.19
579.85	45595.98
580.01	45713.00
580.17	45195.74
580.33	45907.27
580.49	45720.02
580.65	45572.57
580.82	45661.51
580.98	45495.33
581.14	45787.90
581.30	45738.75
581.46	46108.55
581.62	45584.27
581.78	45600.66
581.94	46213.88
582.10	45815.99
582.26	46363.67
582.42	45591.30
582.58	45848.75
582.74	45518.74
582.90	45954.08
583.06	46043.02
583.22	45778.54
583.38	45907.27
583.54	45944.72
583.70	45834.71
583.86	46000.89
584.02	45661.51
584.18	46204.52
584.34	46117.92
584.50	46031.32
584.66	46047.70
584.82	45834.71
584.98	46143.66
585.14	45755.13
585.30	45610.02
585.46	45998.55
585.62	45556.19
585.78	46005.57
585.94	45460.23
586.10	45595.98
586.26	45713.00
586.42	45923.65
586.58	46082.81
586.74	46134.30
586.90	45717.68
587.06	45834.71
587.22	45972.80
587.38	45865.14
587.54	46288.77
587.70	46412.82
587.86	46209.20
588.02	46045.36
588.18	45888.54
588.34	45815.99
588.49	45619.38
588.65	45942.38
588.81	45647.47
588.97	46209.20
589.13	45979.82
589.29	45925.99
589.45	45715.34
589.61	46494.74
589.77	46005.57
589.93	46237.28
590.08	46188.13
590.24	46576.66
590.40	46445.59
590.56	46415.16
590.72	46478.36
590.88	46033.66
591.04	46272.39
591.20	46527.51
591.35	46394.10
591.51	47065.83
591.67	46263.03
591.83	46494.74
591.99	46394.10
592.15	46370.69
592.31	45940.04
592.46	46078.13
592.62	46422.19
592.78	46855.18
592.94	46422.19
593.10	46501.76
593.26	46667.94
593.41	46581.34
593.57	46499.42
593.73	46476.02
593.89	46433.89
594.05	46700.71
594.20	46579.00
594.36	46649.22
594.52	46909.02
594.68	46686.67
594.84	46387.08
594.99	46686.67
595.15	46616.45
595.31	46979.23
595.47	46775.61
595.62	46791.99
595.78	46490.06
595.94	46728.80
596.10	46609.43
596.25	46780.29
596.41	46937.10
596.57	46370.69
596.73	47023.70
596.88	46485.38
597.04	46522.83
597.20	46707.73
597.36	46892.63
597.51	46693.69
597.67	46490.06
597.83	46738.16
597.99	46831.78
598.14	46195.15
598.30	46513.47
598.46	46476.02
598.61	46857.52
598.77	46625.81
598.93	46934.76
599.09	47026.04
599.24	47152.43
599.40	46855.18
599.56	46642.20
599.71	47243.71
599.87	47224.99
600.03	47622.88
600.18	46710.07
600.34	46784.97
600.50	46927.74
600.65	46951.15
600.81	46885.61
600.97	46780.29
601.12	46705.39
601.28	46878.59
601.44	46890.29
601.59	46838.80
601.75	46909.02
601.91	47061.15
602.06	46834.12
602.22	46932.42
602.37	46607.09
602.53	46590.70
602.69	47262.44
602.84	46335.59
603.00	46501.76
603.16	46946.47
603.31	46752.20
603.47	47051.79
603.62	46820.08
603.78	46965.19
603.94	46815.40
604.09	46789.65
604.25	46314.52
604.40	46440.91
604.56	46766.24
604.71	47019.02
604.87	47068.17
605.03	46590.70
605.18	46436.23
605.34	46550.91
605.49	46808.37
605.65	46923.06
605.80	46667.94
605.96	46672.62
606.12	46571.98
606.27	47072.85
606.43	46487.72
606.58	47234.35
606.74	46417.50
606.89	46586.02
607.05	46953.49
607.20	46848.16
607.36	46541.55
607.51	46897.31
607.67	46370.69
607.82	46611.77
607.98	46548.57
608.13	47009.66
608.29	46431.55
608.44	46923.06
608.60	46440.91
608.75	46571.98
608.91	46801.35
609.06	46499.42
609.22	46782.63
609.37	46354.31
609.53	46749.86
609.68	46721.77
609.84	46057.06
609.99	46185.79
610.15	46672.62
610.30	46766.24
610.46	46342.61
610.61	46824.76
610.76	46522.83
610.92	46218.56
611.07	46300.48
611.23	46724.11
611.38	46195.15
611.54	46160.05
611.69	46220.90
611.84	46335.59
612.00	46171.75
612.15	46120.26
612.31	46902.00
612.46	46143.66
612.62	46127.28
612.77	46178.77
612.92	46628.15
613.08	46256.01
613.23	46312.18
613.39	46642.20
613.54	46429.21
613.69	46380.06
613.85	45993.87
614.00	46337.93
614.15	46138.98
614.31	45703.64
614.46	46298.14
614.62	45956.42
614.77	45989.19
614.92	45951.74
615.08	45766.84
615.23	45787.90
615.38	46525.17
615.54	45701.30
615.69	45914.29
615.84	46564.96
616.00	46394.10
616.15	45954.08
616.30	46309.84
616.46	45801.94
616.61	45853.44
616.76	45963.44
616.92	45731.73
617.07	45951.74
617.22	45682.58
617.37	45860.46
617.53	46026.63
617.68	45556.19
617.83	45537.46
617.99	45949.40
618.14	45902.59
618.29	45448.52
618.45	45560.87
618.60	45354.90
618.75	45287.03
618.90	45509.38
619.06	45291.71
619.21	45729.39
619.36	45661.51
619.51	45769.18
619.67	45319.79
619.82	45736.41
619.97	45720.02
620.12	44996.80
620.28	45731.73
620.43	45366.60
620.58	45434.48
620.73	45350.22
620.89	45544.48
621.04	45333.84
621.19	45280.00
621.34	45186.38
621.49	45036.59
621.65	45406.39
621.80	45708.32
621.95	45343.20
622.10	45237.87
622.25	45425.12
622.41	45303.41
622.56	45359.58
622.71	45436.82
622.86	45055.31
623.01	45275.32
623.16	45001.48
623.32	44772.11
623.47	45214.47
623.62	44935.95
623.77	44917.22
623.92	45172.34
624.07	45141.91
624.23	45280.00
624.38	45055.31
624.53	44800.19
624.68	44657.42
624.83	44650.40
624.98	45036.59
625.13	44367.20
625.29	44472.52
625.44	44673.81
625.59	44865.73
625.74	44732.32
625.89	44542.74
626.04	44524.01
626.19	44423.37
626.34	44231.44
626.49	44502.95
626.65	44498.26
626.80	44587.21
626.95	44357.83
627.10	44161.23
627.25	44498.26
627.40	44151.87
627.55	43786.74
627.70	44191.65
627.85	43950.58
628.00	44727.64
628.15	44203.36
628.30	43807.81
628.45	43751.63
628.60	44088.67
628.76	44065.27
628.91	44212.72
629.06	43503.54
629.21	43901.43
629.36	43856.96
629.51	43941.22
629.66	44378.90
629.81	43927.17
629.96	44058.24
630.11	43957.60
630.26	43988.03
630.41	43966.96
630.56	43775.04
630.71	43615.88
630.86	43634.61
631.01	43428.64
631.16	43473.11
631.31	43728.23
631.46	43854.62
631.61	43374.81
631.76	43632.27
631.91	43835.89
632.06	44222.08
632.21	43807.81
632.36	43868.66
632.51	43454.39
632.66	43772.70
632.81	43232.04
632.96	44004.41
633.10	43065.86
633.25	43173.52
633.40	43351.40
633.55	43538.65
633.70	43782.06
633.85	43246.08
634.00	42878.61
634.15	43246.08
634.30	43365.45
634.45	42983.94
634.60	43117.35
634.75	43159.48
634.90	42927.77
635.05	43491.83
635.19	43480.13
635.34	43412.26
635.49	43152.46
635.64	43379.49
635.79	43210.97
635.94	43119.69
636.09	43597.16
636.24	42941.81
636.39	42857.55
636.53	42986.28
636.68	42667.97
636.83	42667.97
636.98	42717.12
637.13	42663.28
637.28	42288.80
637.43	42433.91
637.57	42937.13
637.72	42543.92
637.87	42967.55
638.02	42941.81
638.17	42382.42
638.32	42349.65
638.46	42258.37
638.61	42279.44
638.76	42522.85
638.91	42412.85
639.06	42080.49
639.20	42401.14
639.35	42548.60
639.50	42370.72
639.65	42124.96
639.80	42719.46
639.94	42689.03
640.09	42476.04
640.24	42057.09
640.39	42398.80
640.54	41766.86
640.68	42169.43
640.83	42431.57
640.98	41736.43
641.13	41972.83
641.27	42417.53
641.42	42169.43
641.57	42443.27
641.72	41823.03
641.86	41738.77
642.01	41930.70
642.16	41619.41
642.31	41397.06
642.45	42021.98
642.60	41659.20
642.75	41708.35
642.90	42459.66
643.04	42082.83
643.19	41614.72
643.34	41186.41
643.48	41249.60
643.63	41469.61
643.78	41588.98
643.93	41844.10
644.07	41858.14
644.22	41979.85
644.37	41364.29
644.51	41996.23
644.66	41698.98
644.81	41488.34
644.95	41530.47
645.10	41759.84
645.25	41120.87
645.39	41261.30
645.54	41261.30
645.69	40999.16
645.83	40959.38
645.98	41179.39
646.13	41502.38
646.27	41352.58
646.42	41123.21
646.57	40835.33
646.71	40978.10
646.86	41163.00
647.00	41584.30
647.15	41738.77
647.30	41186.41
647.44	41198.11
647.59	40828.30
647.74	41172.36
647.88	41249.60
648.03	41200.45
648.17	41677.92
648.32	40900.86
648.47	41165.34
648.61	40830.65
648.76	40966.40
648.90	40802.56
649.05	40620.00
649.20	41081.08
649.34	40762.77
649.49	41256.62
649.63	40872.78
649.78	40608.29
649.92	41029.59
650.07	41411.10
650.21	41069.38
650.36	41055.34
650.51	40774.47
650.65	41174.70
650.80	41017.89
650.94	40718.30
651.09	40399.99
651.23	40449.14
651.38	40355.52
651.52	40322.75
651.67	39936.56
651.81	40495.95
651.96	40163.59
652.10	40170.61
652.25	40102.74
652.39	40341.47
652.54	40493.61
652.68	40381.26
652.83	40137.85
652.97	40854.05
653.12	40690.21
653.26	40156.57
653.41	40378.92
653.55	39859.32
653.70	40442.12
653.84	40067.63
653.99	40371.90
654.13	40210.40
654.27	39856.98
654.42	40224.45
654.56	39952.94
654.71	40289.98
654.85	40002.10
655.00	40048.91
655.14	40231.47
655.29	40219.77
655.43	40299.34
655.57	39798.47
655.72	39974.01
655.86	39796.13
656.01	39622.93
656.15	39653.36
656.30	39386.54
656.44	39679.10
656.58	39543.35
656.73	39203.97
656.87	39393.56
657.01	39131.42
657.16	39688.46
657.30	39651.02
657.45	38902.04
657.59	39594.84
657.73	38838.85
657.88	39131.42
658.02	39573.78
658.16	39566.76
658.31	39470.79
658.45	39538.67
658.60	39538.67
658.74	39686.12
658.88	39737.62
659.03	39089.29
659.17	38906.73
659.31	39105.67
659.46	39234.40
659.60	39021.41
659.74	38525.22
659.89	38993.32
660.03	38616.50
660.17	38923.11
660.32	38817.78
660.46	38501.81
660.60	38185.84
660.74	38202.22
660.89	38644.59
661.03	38277.12
661.17	38148.39
661.32	38148.39
661.46	38328.61
661.60	38279.46
661.74	38127.33
661.89	37516.45
662.03	37867.53
662.17	37776.25
662.31	38134.35
662.46	38010.30
662.60	37727.10
662.74	37691.99
662.88	37694.33
663.03	37205.16
663.17	37312.82
663.31	37427.51
663.45	37399.42
663.60	37619.43
663.74	37581.98
663.88	37502.40
664.02	37551.56
664.17	37598.37
664.31	37244.94
664.45	36886.84
664.59	37038.98
664.73	36910.25
664.88	37453.25
665.02	36816.63
665.16	36636.41
665.30	37223.88
665.44	37258.99
665.59	36453.84
665.73	36847.05
665.87	36605.98
666.01	36978.12
666.15	36816.63
666.29	36435.12
666.44	36919.61
666.58	36802.58
666.72	36142.55
666.86	36690.24
667.00	36566.19
667.14	36067.66
667.28	36264.26
667.43	36315.75
667.57	36727.69
667.71	36142.55
667.85	36524.06
667.99	36350.86
668.13	35854.67
668.27	35524.65
668.41	35725.94
668.56	35206.34
668.70	35548.06
668.84	35182.93
668.98	35161.87
669.12	35559.76
669.26	35562.10
669.40	35157.19
669.54	35440.39
669.68	35573.80
669.82	34827.17
669.96	34639.93
670.10	35131.44
670.25	34679.72
670.39	34698.44
670.53	35218.04
670.67	34916.11
670.81	34848.24
670.95	35182.93
671.09	34895.05
671.23	34199.91
671.37	34834.19
671.51	34274.80
671.65	33984.58
671.79	34218.63
671.93	34515.88
672.07	34766.32
672.21	34426.94
672.35	33605.41
672.49	33902.66
672.63	34422.26
672.77	33715.42
672.91	33603.07
673.05	33806.70
673.19	33593.71
673.33	33530.51
673.47	33139.65
673.61	33081.13
673.75	33163.05
673.89	33354.97
674.03	32814.31
674.17	33008.58
674.31	32856.44
674.45	32713.67
674.59	33022.62
674.73	32818.99
674.87	32589.62
675.01	32374.29
675.15	32135.56
675.29	31964.70
675.43	32582.60
675.56	32142.58
675.70	32137.90
675.84	32177.68
675.98	31096.36
676.12	31887.46
676.26	32002.14
676.40	31646.38
676.54	31269.56
676.68	31838.31
676.82	31089.34
676.96	31115.08
677.10	31276.58
677.23	31304.67
677.37	30962.95
677.51	31211.04
677.65	30635.27
677.79	30623.57
677.93	30834.22
678.07	30628.25
678.21	30574.42
678.34	30689.10
678.48	30113.33
678.62	29890.98
678.76	29848.85
678.90	29848.85
679.04	30342.70
679.18	30480.80
679.31	29720.12
679.45	29769.27
679.59	29525.86
679.73	29694.38
679.87	29139.67
680.00	29472.03
680.14	29624.16
680.28	29387.77
680.42	28891.57
680.56	28540.49
680.70	28811.99
680.83	28659.86
680.97	28570.92
681.11	29069.45
681.25	28423.47
681.39	28304.10
681.52	28231.54
681.66	28163.67
681.80	27653.43
681.94	27667.47
682.07	27400.65
682.21	27632.36
682.35	27597.26
682.49	27550.45
682.62	27482.57
682.76	27611.30
682.90	27501.29
683.04	26953.61
683.17	27632.36
683.31	26787.43
683.45	27080.00
683.59	26995.74
683.72	26703.17
683.86	26426.99
684.00	26656.36
684.13	26508.91
684.27	26424.65
684.41	26324.01
684.55	26160.17
684.68	25984.63
684.82	25511.84
684.96	25722.49
685.09	25951.86
685.23	25982.29
685.37	26249.11
685.50	25916.75
685.64	26092.29
685.78	25755.26
685.91	25390.13
686.05	25149.06
686.19	24746.48
686.32	24779.25
686.46	24723.08
686.60	24325.19
686.73	24758.19
686.87	24912.66
687.01	25006.28
687.14	24528.81
687.28	24517.11
687.42	24524.13
687.55	24245.61
687.69	24020.92
687.82	24011.56
687.96	24285.40
688.10	24016.24
688.23	23831.33
688.37	24009.22
688.50	24273.70
688.64	23620.69
688.78	23377.27
688.91	23344.50
689.05	23594.94
689.18	22925.55
689.32	22506.59
689.46	22508.93
689.59	22714.90
689.73	23271.95
689.86	22785.12
690.00	22705.54
690.13	22852.99
690.27	22192.96
690.41	22871.72
690.54	22197.64
690.68	22143.81
690.81	22001.04
690.95	21898.05
691.08	21795.07
691.22	21577.40
691.35	21649.96
691.49	21984.65
691.62	21900.39
691.76	21544.63
691.89	21380.79
692.03	21142.06
692.16	21003.97
692.30	21191.21
692.43	21090.57
692.57	20917.37
692.70	20795.66
692.84	20893.96
692.97	20496.07
693.11	20521.82
693.24	20369.68
693.38	20304.15
693.51	20369.68
693.65	20004.56
693.78	20013.92
693.92	20306.49
694.05	20067.75
694.19	19620.71
694.32	20215.21
694.45	19995.20
694.59	19901.58
694.72	19662.84
694.86	19550.49
694.99	19693.27
695.13	19211.12
695.26	19208.78
695.39	19126.86
695.53	18761.73
695.66	18696.20
695.80	18958.34
695.93	18806.20
696.07	18412.99
696.20	18221.07
696.33	18300.65
696.47	18251.50
696.60	18361.50
696.73	18153.20
696.87	18459.81
697.00	18429.38
697.14	18298.31
697.27	17984.68
697.40	17987.02
697.54	17745.94
697.67	17516.57
697.80	17853.61
697.94	17537.63
698.07	17483.80
698.21	17717.86
698.34	17598.49
698.47	17219.32
698.61	16634.19
698.74	16882.28
698.87	17001.65
699.01	16783.98
699.14	16971.22
699.27	16685.68
699.40	16795.68
699.54	16486.73
699.67	16456.31
699.80	16493.76
699.94	16528.86
700.07	16374.39
700.20	16130.97
700.34	16063.10
700.47	16128.63
700.60	16236.30
700.73	15843.09
700.87	15763.51
701.00	15716.70
701.13	15536.48
701.26	15487.32
701.40	15513.07
701.53	15442.85
701.66	15255.61
701.79	15264.97
701.93	15101.14
702.06	15131.56
702.19	14888.15
702.32	14913.89
702.46	14956.02
702.59	14890.49
702.72	14977.09
702.85	14899.85
702.99	14553.45
703.12	14441.11
703.25	14420.04
703.38	14560.47
703.51	14452.81
703.65	14246.84
703.78	14200.03
703.91	13783.41
704.04	14097.05
704.17	13795.12
704.31	14050.24
704.44	13858.31
704.57	13558.72
704.70	13778.73
704.83	13603.19
704.96	13696.82
705.10	13642.98
705.23	13572.77
>>>>>End Processed Spectral Data<<<<<
