SpectraSuite Data File
++++++++++++++++++++++++++++++++++++
Date: Fri Oct 25 10:43:53 EDT 2013
User: price-jones
Dark Spectrum Present: No
Reference Spectrum Present: No
Number of Sampled Component Spectra: 1
Spectrometers: USB2+H05261
Integration Time (usec): 100000 (USB2+H05261)
Spectra Averaged: 1 (USB2+H05261)
Boxcar Smoothing: 0 (USB2+H05261)
Correct for Electrical Dark: No (USB2+H05261)
Strobe/Lamp Enabled: No (USB2+H05261)
Correct for Detector Non-linearity: No (USB2+H05261)
Correct for Stray Light: No (USB2+H05261)
Number of Pixels in Processed Spectrum: 2048
>>>>>Begin Processed Spectral Data<<<<<
365.73	102.98
365.92	102.98
366.12	102.98
366.32	18.72
366.52	0.00
366.72	25.75
366.91	79.58
367.11	28.09
367.31	70.22
367.51	32.77
367.70	18.72
367.90	32.77
368.10	0.00
368.30	0.00
368.49	32.77
368.69	110.01
368.89	51.49
369.09	42.13
369.28	46.81
369.48	0.00
369.68	91.28
369.87	67.88
370.07	58.51
370.27	166.18
370.47	184.90
370.66	395.55
370.86	479.81
371.06	444.70
371.25	461.09
371.45	376.83
371.65	463.43
371.84	451.72
372.04	447.04
372.24	568.75
372.44	449.38
372.63	587.47
372.83	519.60
373.03	447.04
373.22	458.74
373.42	559.39
373.62	510.24
373.81	496.19
374.01	510.24
374.21	589.82
374.40	517.26
374.60	519.60
374.79	571.09
374.99	582.79
375.19	521.94
375.38	592.16
375.58	547.69
375.78	566.41
375.97	580.45
376.17	688.12
376.37	521.94
376.56	585.13
376.76	641.31
376.95	627.26
377.15	629.60
377.35	622.58
377.54	622.58
377.74	634.29
377.93	660.03
378.13	688.12
378.33	627.26
378.52	706.84
378.72	655.35
378.91	667.05
379.11	622.58
379.31	617.90
379.50	709.18
379.70	669.39
379.89	674.07
380.09	758.33
380.28	711.52
380.48	638.97
380.68	678.76
380.87	695.14
381.07	746.63
381.26	671.73
381.46	835.57
381.65	741.95
381.85	763.01
382.04	688.12
382.24	667.05
382.43	798.12
382.63	720.88
382.83	730.25
383.02	744.29
383.22	755.99
383.41	748.97
383.61	692.80
383.80	840.25
384.00	786.42
384.19	842.59
384.39	807.48
384.58	835.57
384.78	833.23
384.97	821.53
385.17	821.53
385.36	807.48
385.56	746.63
385.75	809.83
385.95	844.93
386.14	833.23
386.34	849.61
386.53	823.87
386.72	767.70
386.92	964.30
387.11	994.73
387.31	887.06
387.50	837.91
387.70	791.10
387.89	891.74
388.09	912.81
388.28	898.77
388.48	1020.47
388.67	957.28
388.86	971.32
389.06	1004.09
389.25	1060.26
389.45	1018.13
389.64	999.41
389.84	987.71
390.03	983.02
390.22	1039.20
390.42	1097.71
390.61	987.71
390.81	1116.44
391.00	1123.46
391.19	1011.11
391.39	1046.22
391.58	1071.97
391.78	1032.18
391.97	1076.65
392.16	1132.82
392.36	983.02
392.55	1163.25
392.75	1093.03
392.94	1046.22
393.13	1036.86
393.33	1088.35
393.52	1055.58
393.71	1036.86
393.91	1088.35
394.10	1144.52
394.29	1226.44
394.49	1191.33
394.68	1198.35
394.88	1217.08
395.07	1357.51
395.26	1247.51
395.46	1275.59
395.65	1277.93
395.84	1294.32
396.04	1336.45
396.23	1210.06
396.42	1188.99
396.62	1226.44
396.81	1240.48
397.00	1282.61
397.19	1301.34
397.39	1413.68
397.58	1401.98
397.77	1404.32
397.97	1453.47
398.16	1514.33
398.35	1486.24
398.55	1467.52
398.74	1511.99
398.93	1598.59
399.12	1554.12
399.32	1483.90
399.51	1598.59
399.70	1598.59
399.90	1603.27
400.09	1678.16
400.28	1722.63
400.47	1584.54
400.67	1720.29
400.86	1788.17
401.05	1736.68
401.24	1743.70
401.44	1724.97
401.63	1736.68
401.82	1781.15
402.01	1783.49
402.21	1764.76
402.40	1767.10
402.59	1858.39
402.78	1790.51
402.97	1935.62
403.17	1774.13
403.36	1781.15
403.55	1816.26
403.74	1935.62
403.93	1933.28
404.13	1973.07
404.32	1928.60
404.51	1944.99
404.70	2033.93
404.89	2047.97
405.09	1975.41
405.28	2045.63
405.47	2129.89
405.66	1970.73
405.85	2073.71
406.05	1968.39
406.24	2073.71
406.43	2050.31
406.62	2038.61
406.81	2235.21
407.00	2160.31
407.20	2143.93
407.39	2202.44
407.58	2246.91
407.77	2282.02
407.96	2263.30
408.15	2282.02
408.34	2328.83
408.54	2377.98
408.73	2392.03
408.92	2413.09
409.11	2420.11
409.30	2340.54
409.49	2427.14
409.68	2235.21
409.87	2256.28
410.07	2492.67
410.26	2480.97
410.45	2452.88
410.64	2504.37
410.83	2541.82
411.02	2628.42
411.21	2745.45
411.40	2754.81
411.59	2691.62
411.78	2668.21
411.98	2768.85
412.17	2822.69
412.36	2850.77
412.55	2642.46
412.74	2715.02
412.93	2888.22
413.12	2869.50
413.31	2942.05
413.50	2871.84
413.69	2942.05
413.88	2956.10
414.07	3009.93
414.26	3115.25
414.45	3232.28
414.64	3016.95
414.83	3068.44
415.02	3187.81
415.22	3021.63
415.41	3201.85
415.60	3138.66
415.79	3351.65
415.98	3363.35
416.17	3489.74
416.36	3176.11
416.55	3311.86
416.74	3407.82
416.93	3389.10
417.12	3356.33
417.31	3492.08
417.50	3559.95
417.69	3541.23
417.88	3588.04
418.07	3480.38
418.26	3538.89
418.45	3597.40
418.64	3698.05
418.83	3866.56
419.02	3653.58
419.21	3758.90
419.39	3707.41
419.58	3728.47
419.77	3597.40
419.96	3831.46
420.15	3911.04
420.34	3824.44
420.53	3854.86
420.72	4030.40
420.91	4166.15
421.10	3927.42
421.29	4018.70
421.48	3847.84
421.67	3992.95
421.86	3948.48
422.05	3918.06
422.24	3817.41
422.43	3932.10
422.61	4004.66
422.80	4016.36
422.99	4028.06
423.18	4065.51
423.37	4105.30
423.56	4007.00
423.75	4121.68
423.94	4102.96
424.13	3786.99
424.32	4016.36
424.50	4105.30
424.69	4159.13
424.88	4060.83
425.07	4023.38
425.26	4032.74
425.45	4072.53
425.64	4072.53
425.83	4159.13
426.01	4175.52
426.20	4093.60
426.39	4091.26
426.58	4009.34
426.77	4128.70
426.96	4063.17
427.15	4187.22
427.33	4283.18
427.52	4301.90
427.71	4168.49
427.90	4224.67
428.09	4369.78
428.28	4308.93
428.46	4124.02
428.65	4306.59
428.84	4432.97
429.03	4358.08
429.22	4236.37
429.40	4156.79
429.59	4177.86
429.78	4093.60
429.97	4079.55
430.16	4135.73
430.34	4138.07
430.53	4346.37
430.72	4198.92
430.91	4404.89
431.10	4397.87
431.28	4713.84
431.47	4816.82
431.66	4812.14
431.85	4620.22
432.03	4835.55
432.22	4683.41
432.41	4760.65
432.60	4800.44
432.79	4741.93
432.97	4964.28
433.16	4973.64
433.35	4751.29
433.54	4828.53
433.72	4919.81
433.91	4744.27
434.10	4826.18
434.28	4865.97
434.47	5039.17
434.66	5116.41
434.85	5102.37
435.03	5090.67
435.22	5100.03
435.41	5125.77
435.59	5228.76
435.78	5373.87
435.97	5338.76
436.16	5320.04
436.34	5317.70
436.53	5280.25
436.72	5526.00
436.90	5289.61
437.09	5453.45
437.28	5270.89
437.46	5469.83
437.65	5373.87
437.84	5277.91
438.02	5252.16
438.21	5341.10
438.40	5338.76
438.58	5551.75
438.77	5614.95
438.96	5537.71
439.14	5727.29
439.33	5877.09
439.52	5895.81
439.70	5891.13
439.89	5762.40
440.08	6031.56
440.26	6015.18
440.45	5839.64
440.63	6115.82
440.82	6134.54
441.01	6092.41
441.19	6202.42
441.38	6338.17
441.57	6427.11
441.75	6445.84
441.94	6602.65
442.12	6483.28
442.31	6616.69
442.50	6527.75
442.68	6494.99
442.87	6644.78
443.05	6626.06
443.24	6656.48
443.43	6604.99
443.61	6740.74
443.80	6869.47
443.98	6555.84
444.17	6473.92
444.35	6740.74
444.54	6827.34
444.73	6696.27
444.91	6766.49
445.10	6682.23
445.28	6619.04
445.47	6520.73
445.65	6523.07
445.84	6686.91
446.02	6827.34
446.21	6778.19
446.39	6825.00
446.58	6956.07
446.77	6899.90
446.95	6729.04
447.14	7021.61
447.32	7110.55
447.51	7047.35
447.69	7005.22
447.88	6974.80
448.06	6979.48
448.25	7002.88
448.43	6953.73
448.62	7150.34
448.80	7021.61
448.99	6874.15
449.17	7084.80
449.36	7089.48
449.54	7204.17
449.73	7255.66
449.91	7363.33
450.10	7304.81
450.28	7480.35
450.46	7288.43
450.65	7309.49
450.83	7524.82
451.02	7454.61
451.20	7522.48
451.39	7646.53
451.57	7683.98
451.76	7403.11
451.94	7339.92
452.13	7611.42
452.31	7386.73
452.49	7480.35
452.68	7353.96
452.86	7508.44
453.05	7445.24
453.23	7585.68
453.42	7499.08
453.60	7529.50
453.78	7726.11
453.97	7665.25
454.15	7786.96
454.34	7520.14
454.52	7698.02
454.70	7775.26
454.89	7899.31
455.07	7702.70
455.26	8072.51
455.44	7896.97
455.62	8035.06
455.81	8025.70
455.99	7929.74
456.17	8121.66
456.36	8140.38
456.54	8100.59
456.73	8299.54
456.91	8477.42
457.09	8397.84
457.28	8477.42
457.46	8168.47
457.64	8280.82
457.83	8479.76
458.01	8421.25
458.19	8650.62
458.38	8425.93
458.56	8655.30
458.74	8624.87
458.93	8430.61
459.11	8571.04
459.29	8559.34
459.48	8580.40
459.66	8667.00
459.84	8676.37
460.03	8624.87
460.21	9032.13
460.39	8711.47
460.57	8947.87
460.76	8741.90
460.94	9123.41
461.12	8924.46
461.31	9078.94
461.49	8961.91
461.67	8964.25
461.85	9085.96
462.04	9135.11
462.22	9186.60
462.40	9139.79
462.59	9228.73
462.77	9308.31
462.95	9341.08
463.13	9355.12
463.32	9392.57
463.50	9359.80
463.68	9181.92
463.86	9341.08
464.05	9186.60
464.23	9305.97
464.41	9387.89
464.59	9217.03
464.78	9418.32
464.96	9509.60
465.14	9144.47
465.32	9511.94
465.50	9556.41
465.69	9699.18
465.87	9345.76
466.05	9296.61
466.23	9387.89
466.41	9320.01
466.60	9596.20
466.78	9479.17
466.96	9547.05
467.14	9652.37
467.32	9783.44
467.51	9769.40
467.69	9554.07
467.87	9549.39
468.05	9886.42
468.23	9844.29
468.41	9818.55
468.60	9694.50
468.78	9905.15
468.96	10139.20
469.14	10001.11
469.32	10022.17
469.50	9734.29
469.69	10143.88
469.87	10171.97
470.05	10120.48
470.23	10064.30
470.41	9984.73
470.59	10291.34
470.77	10391.98
470.95	10445.81
471.14	10317.08
471.32	10277.29
471.50	10682.20
471.68	10527.73
471.86	10677.52
472.04	10729.02
472.22	10988.82
472.40	10607.31
472.58	10916.26
472.77	10932.64
472.95	10808.59
473.13	11222.87
473.31	10949.03
473.49	10843.70
473.67	10888.17
473.85	11056.69
474.03	11325.85
474.21	11311.81
474.39	11466.28
474.57	11356.28
474.75	11580.97
474.93	11634.80
475.12	11634.80
475.30	11651.19
475.48	11604.38
475.66	11510.75
475.84	11665.23
476.02	11885.24
476.20	11686.29
476.38	12002.27
476.56	12166.10
476.74	12257.39
476.92	12154.40
477.10	12173.13
477.28	12554.63
477.46	12388.46
477.64	12713.79
477.82	12716.13
478.00	12973.59
478.18	12947.84
478.36	12982.95
478.54	13027.42
478.72	13252.11
478.90	13547.02
479.08	13415.95
479.26	13745.97
479.44	13778.73
479.62	13671.07
479.80	13657.03
479.98	13865.33
480.16	14174.28
480.34	14122.79
480.52	14394.29
480.70	13898.10
480.88	14085.34
481.06	14394.29
481.24	14314.72
481.41	14747.72
481.59	15049.64
481.77	14562.81
481.95	15033.26
482.13	15073.05
482.31	15021.56
482.49	15276.68
482.67	15346.89
482.85	15412.43
483.03	15569.24
483.21	15868.83
483.39	15826.70
483.57	15742.44
483.74	15950.75
483.92	16009.26
484.10	16205.87
484.28	16315.87
484.46	16624.83
484.64	16952.50
484.82	16556.95
485.00	16718.45
485.18	17202.94
485.35	17008.67
485.53	16514.82
485.71	17001.65
485.89	16868.24
486.07	16833.13
486.25	16938.46
486.43	17572.74
486.61	17507.21
486.78	17713.17
486.96	17844.24
487.14	18249.16
487.32	18244.48
487.50	18572.15
487.68	18792.16
487.85	18684.50
488.03	19002.81
488.21	19250.91
488.39	19166.65
488.57	18841.31
488.75	19644.12
488.92	19711.99
489.10	19974.13
489.28	19709.65
489.46	20388.41
489.64	20224.57
489.81	21099.93
489.99	21212.28
490.17	20931.41
490.35	20854.17
490.53	20957.16
490.70	21125.68
490.88	20980.56
491.06	21678.04
491.24	21694.43
491.41	21427.60
491.59	21275.47
491.77	21350.37
491.95	21949.54
492.13	22022.10
492.30	22010.40
492.48	22321.69
492.66	22583.83
492.84	22459.78
493.01	22768.73
493.19	22834.27
493.37	22913.84
493.54	23014.49
493.72	23234.50
493.90	23498.98
494.08	23648.77
494.25	23880.49
494.43	23854.74
494.61	24128.58
494.79	24294.76
494.96	24226.89
495.14	24079.43
495.32	24184.76
495.49	24498.39
495.67	24383.70
495.85	24404.77
496.02	25085.86
496.20	25088.20
496.38	25200.55
496.55	25184.16
496.73	25734.19
496.91	25509.50
497.09	25366.73
497.26	26026.76
497.44	25891.01
497.62	26331.03
497.79	25979.95
497.97	25717.81
498.14	26113.36
498.32	26494.86
498.50	26441.03
498.67	26855.31
498.85	26768.71
499.03	27080.00
499.20	26946.59
499.38	26916.16
499.56	27307.03
499.73	27136.17
499.91	27620.66
500.08	27463.85
500.26	27094.04
500.44	27339.80
500.61	27742.37
500.79	27386.61
500.97	27580.87
501.14	28063.02
501.32	27814.93
501.49	27702.58
501.67	27908.55
501.84	28285.37
502.02	28107.49
502.20	28568.58
502.37	28395.38
502.55	28570.92
502.72	28830.72
502.90	28709.01
503.07	28968.81
503.25	29001.58
503.43	28648.16
503.60	28985.19
503.78	28809.65
503.95	29130.31
504.13	29394.79
504.30	29364.36
504.48	29252.02
504.65	29795.02
504.83	29479.05
505.01	30312.28
505.18	30047.80
505.36	30335.68
505.53	30092.27
505.71	30352.07
505.88	30654.00
506.06	30129.72
506.23	30735.92
506.41	30073.54
506.58	30756.98
506.76	30602.50
506.93	30756.98
507.11	31054.23
507.28	30829.54
507.46	30658.68
507.63	31019.12
507.81	31189.98
507.98	31150.19
508.16	31185.30
508.33	31409.99
508.50	31531.70
508.68	31524.68
508.85	32381.31
509.03	31662.77
509.20	32044.27
509.38	31983.42
509.55	32002.14
509.73	32226.84
509.90	32388.33
510.08	32266.63
510.25	32268.97
510.42	32652.81
510.60	32467.91
510.77	32498.34
510.95	32769.84
511.12	32718.35
511.30	33205.18
511.47	33362.00
511.64	33092.83
511.82	33266.03
511.99	32662.18
512.17	33172.41
512.34	32809.63
512.51	33694.35
512.69	33347.95
512.86	33270.72
513.04	33692.01
513.21	33369.02
513.38	33668.61
513.56	33986.92
513.73	33202.84
513.90	33921.38
514.08	34026.71
514.25	33895.64
514.43	34000.96
514.60	33783.29
514.77	34529.92
514.95	34548.65
515.12	34366.09
515.29	34529.92
515.47	34986.33
515.64	34733.55
515.81	34925.47
515.99	35126.76
516.16	34408.22
516.33	34438.64
516.51	34368.43
516.68	33998.62
516.85	34148.42
517.03	34504.18
517.20	35000.37
517.37	35049.52
517.54	35690.83
517.72	35241.45
517.89	34714.83
518.06	34899.73
518.24	35089.31
518.41	34932.50
518.58	35498.91
518.75	35260.17
518.93	35454.44
519.10	35594.87
519.27	36034.89
519.45	35409.96
519.62	36247.88
519.79	35917.86
519.96	36301.71
520.14	36388.31
520.31	35957.65
520.48	36055.95
520.65	36435.12
520.83	36781.52
521.00	36680.88
521.17	36816.63
521.34	36886.84
521.52	36917.27
521.69	36837.69
521.86	37141.96
522.03	37280.05
522.20	37071.75
522.38	37095.15
522.55	37275.37
522.72	37254.31
522.89	37406.44
523.07	37560.92
523.24	37256.65
523.41	37883.91
523.58	37610.07
523.75	38281.80
523.92	38103.92
524.10	38274.78
524.27	38211.59
524.44	38623.52
524.61	38293.50
524.78	38237.33
524.96	38192.86
525.13	38419.89
525.30	39089.29
525.47	38703.10
525.64	38859.91
525.81	38621.18
525.98	38361.38
526.16	38382.45
526.33	38473.73
526.50	38403.51
526.67	38234.99
526.84	38553.30
527.01	38419.89
527.18	38508.83
527.36	39468.45
527.53	38967.58
527.70	39295.25
527.87	39005.03
528.04	39047.16
528.21	39655.70
528.38	39330.36
528.55	39955.29
528.72	40030.18
528.89	39798.47
529.07	39590.16
529.24	39297.59
529.41	39985.71
529.58	39782.09
529.75	39140.78
529.92	39831.24
530.09	39901.45
530.26	40147.21
530.43	40128.48
530.60	39971.67
530.77	40175.30
530.94	40989.80
531.11	40308.71
531.28	40388.28
531.46	40680.85
531.63	41200.45
531.80	40357.86
531.97	40421.05
532.14	39985.71
532.31	40292.32
532.48	40334.45
532.65	40617.66
532.82	39730.59
532.99	40744.05
533.16	40561.48
533.33	40954.69
533.50	41045.97
533.67	40884.48
533.84	41045.97
534.01	41036.61
534.18	41177.04
534.35	41230.88
534.52	41411.10
534.69	41478.97
534.86	42120.28
535.03	41205.13
535.20	41780.90
535.37	41759.84
535.54	41621.75
535.71	41661.54
535.88	42021.98
536.05	41071.72
536.22	41832.39
536.38	42258.37
536.55	41801.97
536.72	41453.23
536.89	41766.86
537.06	41799.63
537.23	42143.69
537.40	41942.40
537.57	41844.10
537.74	42494.77
537.91	42089.85
538.08	42239.65
538.25	41942.40
538.42	41837.08
538.59	41921.34
538.75	41832.39
538.92	42026.66
539.09	42284.12
539.26	42492.43
539.43	42274.76
539.60	42543.92
539.77	42068.79
539.94	42745.20
540.11	42003.25
540.28	42490.09
540.44	42515.83
540.61	42333.27
540.78	42307.52
540.95	42398.80
541.12	42436.25
541.29	42665.63
541.46	42892.66
541.62	43255.44
541.79	43058.84
541.96	42672.65
542.13	42927.77
542.30	43056.50
542.47	43229.69
542.63	42784.99
542.80	43124.37
542.97	42972.24
543.14	43669.72
543.31	43512.90
543.48	43683.76
543.64	43871.00
543.81	44062.93
543.98	43707.16
544.15	43342.04
544.32	43845.26
544.48	44025.48
544.65	43847.60
544.82	43650.99
544.99	43854.62
545.16	43849.94
545.32	43662.69
545.49	43999.73
545.66	44399.96
545.83	44315.70
546.00	44577.84
546.16	43955.26
546.33	44172.93
546.50	43737.59
546.67	44205.70
546.83	43419.28
547.00	43756.32
547.17	44095.69
547.34	43704.82
547.50	43976.33
547.67	44362.51
547.84	44257.19
548.00	44610.61
548.17	44858.71
548.34	45191.06
548.51	44580.18
548.67	44226.76
548.84	44421.03
549.01	44877.43
549.18	44626.99
549.34	44720.62
549.51	44928.92
549.68	44772.11
549.84	44861.05
550.01	44964.03
550.18	44676.15
550.34	44287.62
550.51	44582.52
550.68	45043.61
550.84	44498.26
551.01	45050.63
551.18	45165.32
551.34	45062.33
551.51	45116.17
551.68	45614.70
551.84	45247.24
552.01	44788.49
552.18	44725.30
552.34	45329.16
552.51	45097.44
552.68	45193.40
552.84	45289.37
553.01	45570.23
553.18	45221.49
553.34	45361.92
553.51	45322.13
553.67	45305.75
553.84	45677.90
554.01	45755.13
554.17	45446.18
554.34	45570.23
554.51	45474.27
554.67	45532.78
554.84	45308.09
555.00	45492.99
555.17	45567.89
555.33	45778.54
555.50	45837.05
555.67	45301.07
555.83	45492.99
556.00	45455.54
556.16	45975.14
556.33	45226.17
556.50	45902.59
556.66	45654.49
556.83	45521.08
556.99	45869.82
557.16	46059.40
557.32	45879.18
557.49	45823.01
557.65	45954.08
557.82	45476.61
557.98	46031.32
558.15	46241.96
558.32	46312.18
558.48	45764.49
558.65	45577.25
558.81	45759.81
558.98	45762.15
559.14	45904.93
559.31	45713.00
559.47	46239.62
559.64	45909.61
559.80	46052.38
559.97	46117.92
560.13	45989.19
560.30	46003.23
560.46	46234.94
560.63	46153.02
560.79	46300.48
560.96	46447.93
561.12	46213.88
561.29	46071.10
561.45	46157.70
561.61	45984.51
561.78	45956.42
561.94	46216.22
562.11	46127.28
562.27	46288.77
562.44	46415.16
562.60	46525.17
562.77	46323.88
562.93	46375.37
563.10	46361.33
563.26	46014.93
563.42	46340.27
563.59	46401.12
563.75	46497.08
563.92	46733.48
564.08	46431.55
564.24	46553.26
564.41	46623.47
564.57	46728.80
564.74	46298.14
564.90	46370.69
565.07	46763.90
565.23	46302.82
565.39	46241.96
565.56	46181.11
565.72	45977.48
565.88	46216.22
566.05	46244.30
566.21	46188.13
566.38	46286.43
566.54	46319.20
566.70	46696.03
566.87	46735.82
567.03	46684.33
567.19	47021.36
567.36	46925.40
567.52	46646.88
567.68	46946.47
567.85	46246.65
568.01	46487.72
568.17	46780.29
568.34	46616.45
568.50	46717.09
568.66	46670.28
568.83	46689.01
568.99	46518.15
569.15	46422.19
569.32	46424.53
569.48	46340.27
569.64	46948.81
569.81	46740.50
569.97	46803.69
570.13	46574.32
570.30	46206.86
570.46	46597.73
570.62	45890.88
570.78	46197.49
570.95	46218.56
571.11	46562.62
571.27	46354.31
571.43	46628.15
571.60	46808.37
571.76	46660.92
571.92	46752.20
572.09	46574.32
572.25	46431.55
572.41	46925.40
572.57	47114.98
572.74	47264.78
572.90	46689.01
573.06	47384.15
573.22	46546.23
573.38	46733.48
573.55	46581.34
573.71	47313.93
573.87	47241.37
574.03	46483.04
574.20	46878.59
574.36	46625.81
574.52	46916.04
574.68	46747.52
574.84	46892.63
575.01	46529.85
575.17	46651.56
575.33	46464.32
575.49	46288.77
575.65	46691.35
575.82	46976.89
575.98	46681.98
576.14	46775.61
576.30	47021.36
576.46	46838.80
576.62	46780.29
576.79	46649.22
576.95	46953.49
577.11	46864.55
577.27	46817.74
577.43	47208.61
577.59	46740.50
577.75	46267.71
577.92	46382.40
578.08	46267.71
578.24	46548.57
578.40	46340.27
578.56	46775.61
578.72	47030.72
578.88	47147.75
579.04	46986.25
579.21	46848.16
579.37	46581.34
579.53	46925.40
579.69	46862.21
579.85	47126.69
580.01	46773.27
580.17	46597.73
580.33	46717.09
580.49	46644.54
580.65	46799.01
580.82	46894.97
580.98	46859.87
581.14	47030.72
581.30	46799.01
581.46	46745.18
581.62	47185.20
581.78	46340.27
581.94	47206.26
582.10	46939.44
582.26	46871.57
582.42	47283.50
582.58	47016.68
582.74	47035.41
582.90	47070.51
583.06	47281.16
583.22	47206.26
583.38	47026.04
583.54	47119.66
583.70	47107.96
583.86	47257.76
584.02	46777.95
584.18	47386.49
584.34	47021.36
584.50	46904.34
584.66	46504.10
584.82	46686.67
584.98	46927.74
585.14	46560.28
585.30	47119.66
585.46	46775.61
585.62	46880.93
585.78	46735.82
585.94	46415.16
586.10	46843.48
586.26	46506.44
586.42	46801.35
586.58	46897.31
586.74	46979.23
586.90	47217.97
587.06	46866.89
587.22	46562.62
587.38	46990.94
587.54	46990.94
587.70	47082.22
587.86	46932.42
588.02	46562.62
588.18	46993.28
588.34	46461.97
588.49	46141.32
588.65	46344.95
588.81	46485.38
588.97	46349.63
589.13	46541.55
589.29	46644.54
589.45	47168.82
589.61	46953.49
589.77	47143.07
589.93	46885.61
590.08	46794.33
590.24	47075.19
590.40	47484.79
590.56	47306.91
590.72	46834.12
590.88	47150.09
591.04	47365.42
591.20	47339.68
591.35	46955.83
591.51	47353.72
591.67	46948.81
591.83	47178.18
591.99	46892.63
592.15	47157.11
592.31	47035.41
592.46	46925.40
592.62	46939.44
592.78	47096.26
592.94	47150.09
593.10	46967.53
593.26	47178.18
593.41	47323.29
593.57	46721.77
593.73	46810.71
593.89	46967.53
594.05	47482.45
594.20	46829.44
594.36	47014.34
594.52	46979.23
594.68	46597.73
594.84	46686.67
594.99	46848.16
595.15	47133.71
595.31	47124.35
595.47	47122.01
595.62	47063.49
595.78	47014.34
595.94	47318.61
596.10	47117.32
596.25	47421.59
596.41	47627.56
596.57	47173.50
596.73	47515.22
596.88	47342.02
597.04	47042.43
597.20	47260.10
597.36	46937.10
597.51	47180.52
597.67	47145.41
597.83	47224.99
597.99	47330.31
598.14	47344.36
598.30	47131.37
598.46	46988.60
598.61	47318.61
598.77	46855.18
598.93	46801.35
599.09	47014.34
599.24	47194.56
599.40	47302.23
599.56	47232.01
599.71	47271.80
599.87	47246.05
600.03	46965.19
600.18	46857.52
600.34	47007.32
600.50	46803.69
600.65	46951.15
600.81	47246.05
600.97	47367.76
601.12	47091.58
601.28	47070.51
601.44	46787.31
601.59	46499.42
601.75	46487.72
601.91	46541.55
602.06	46674.96
602.22	46986.25
602.37	47107.96
602.53	46569.64
602.69	47384.15
602.84	47030.72
603.00	46990.94
603.16	46838.80
603.31	46532.19
603.47	47206.26
603.62	47114.98
603.78	47035.41
603.94	47281.16
604.09	47201.58
604.25	47203.92
604.40	46918.38
604.56	47086.90
604.71	46784.97
604.87	46749.86
605.03	46724.11
605.18	46962.85
605.34	46436.23
605.49	46609.43
605.65	47040.09
605.80	46925.40
605.96	46628.15
606.12	46965.19
606.27	47234.35
606.43	46902.00
606.58	46855.18
606.74	46670.28
606.89	46838.80
607.05	46351.97
607.20	46864.55
607.36	46934.76
607.51	47103.28
607.67	46674.96
607.82	47140.73
607.98	46583.68
608.13	46658.58
608.29	46738.16
608.44	46515.81
608.60	46113.23
608.75	46319.20
608.91	46564.96
609.06	46394.10
609.22	46731.14
609.37	46150.68
609.53	46471.34
609.68	46557.94
609.84	46447.93
609.99	46234.94
610.15	46101.53
610.30	46550.91
610.46	45771.52
610.61	46153.02
610.76	46108.55
610.92	46349.63
611.07	46644.54
611.23	46384.74
611.38	46579.00
611.54	46248.99
611.69	46014.93
611.84	46101.53
612.00	46108.55
612.15	45792.58
612.31	46447.93
612.46	46373.03
612.62	45979.82
612.77	45979.82
612.92	46185.79
613.08	46209.20
613.23	45846.41
613.39	45659.17
613.54	45509.38
613.69	45333.84
613.85	45610.02
614.00	46026.63
614.15	46000.89
614.31	45839.39
614.46	46478.36
614.62	46061.74
614.77	45603.00
614.92	45937.69
615.08	45858.12
615.23	45663.85
615.38	45401.71
615.54	45720.02
615.69	45703.64
615.84	45734.07
616.00	45743.43
616.15	45418.10
616.30	45661.51
616.46	45401.71
616.61	45567.89
616.76	45280.00
616.92	45495.33
617.07	45691.94
617.22	45106.80
617.37	45106.80
617.53	45815.99
617.68	45605.34
617.83	45542.14
617.99	45333.84
618.14	45366.60
618.29	45471.93
618.45	45001.48
618.60	45006.16
618.75	44762.75
618.90	44914.88
619.06	44559.12
619.21	45195.74
619.36	45411.07
619.51	45251.92
619.67	45219.15
619.82	45317.45
619.97	44966.37
620.12	44868.07
620.28	44348.47
620.43	44842.32
620.58	44739.34
620.73	44706.57
620.89	44512.31
621.04	44971.05
621.19	45015.52
621.34	44816.58
621.49	44418.69
621.65	44385.92
621.80	44802.53
621.95	44921.90
622.10	44863.39
622.25	44713.59
622.41	44048.88
622.56	44652.74
622.71	44690.19
622.86	44156.55
623.01	44870.41
623.16	44624.65
623.32	44037.18
623.47	44208.04
623.62	44472.52
623.77	44243.15
623.92	44486.56
624.07	44531.03
624.23	43732.91
624.38	44133.14
624.53	44147.18
624.68	44004.41
624.83	44095.69
624.98	43908.45
625.13	43650.99
625.29	43838.23
625.44	43505.88
625.59	43461.41
625.74	43646.31
625.89	43896.75
626.04	43611.20
626.19	43908.45
626.34	44222.08
626.49	43564.39
626.65	43744.61
626.80	43674.40
626.95	43529.28
627.10	43276.51
627.25	43590.14
627.40	43430.98
627.55	43227.35
627.70	43070.54
627.85	43304.59
628.00	43112.67
628.15	43178.20
628.30	43370.13
628.45	43409.92
628.60	43133.73
628.76	43459.07
628.91	43246.08
629.06	43316.29
629.21	42976.92
629.36	42857.55
629.51	42665.63
629.66	42953.51
629.81	43058.84
629.96	43049.47
630.11	43276.51
630.26	43014.37
630.41	43323.32
630.56	43070.54
630.71	42703.07
630.86	42995.64
631.01	42808.40
631.16	42686.69
631.31	42583.71
631.46	42609.45
631.61	42789.67
631.76	42541.58
631.91	42768.61
632.06	42817.76
632.21	42656.26
632.36	42649.24
632.51	42045.38
632.66	42469.02
632.81	42431.57
632.96	42625.84
633.10	42227.95
633.25	42375.40
633.40	42792.01
633.55	42131.98
633.70	42071.13
633.85	42230.29
634.00	42293.48
634.15	42567.32
634.30	42202.20
634.45	41970.49
634.60	42300.50
634.75	42239.65
634.90	42543.92
635.05	42103.90
635.19	42452.64
635.34	42176.45
635.49	42099.22
635.64	42305.18
635.79	41713.03
635.94	41399.40
636.09	42005.59
636.24	42045.38
636.39	41659.20
636.53	41736.43
636.68	41523.44
636.83	41610.04
636.98	41652.17
637.13	41823.03
637.28	41703.67
637.43	41867.50
637.57	42117.94
637.72	41631.11
637.87	41610.04
638.02	41521.10
638.17	41869.84
638.32	41294.07
638.46	41490.68
638.61	41703.67
638.76	41649.83
638.91	41851.12
639.06	41661.54
639.20	41736.43
639.35	41804.31
639.50	41621.75
639.65	41862.82
639.80	41476.63
639.94	41268.33
640.09	41284.71
640.24	40755.75
640.39	41289.39
640.54	40751.07
640.68	41202.79
640.83	40847.03
640.98	41177.04
641.13	41165.34
641.27	41221.52
641.42	40945.33
641.57	40999.16
641.72	40912.56
641.86	40830.65
642.01	40322.75
642.16	41010.87
642.31	40041.88
642.45	40786.18
642.60	40659.79
642.75	40367.22
642.90	40889.16
643.04	40720.64
643.19	40620.00
643.34	40278.28
643.48	40849.37
643.63	40840.01
643.78	40573.19
643.93	40325.09
644.07	40559.14
644.22	40411.69
644.37	40105.08
644.51	40311.05
644.66	40517.01
644.81	40540.42
644.95	40781.49
645.10	40191.68
645.25	40704.26
645.39	40072.31
645.54	40470.20
645.69	40224.45
645.83	40252.53
645.98	39936.56
646.13	40058.27
646.27	39835.92
646.42	39590.16
646.57	39517.60
646.71	39821.87
646.86	39791.45
647.00	39793.79
647.15	40231.47
647.30	39969.33
647.44	39744.64
647.59	39810.17
647.74	39826.56
647.88	39349.09
648.03	39639.31
648.17	39885.07
648.32	39545.69
648.47	40034.86
648.61	39267.17
648.76	39639.31
648.90	39765.70
649.05	39627.61
649.20	39435.69
649.34	39758.68
649.49	39398.24
649.63	39271.85
649.78	39482.50
649.92	39693.15
650.07	39538.67
650.21	39168.87
650.36	39643.99
650.51	39234.40
650.65	39756.34
650.80	39887.41
650.94	39571.44
651.09	39672.08
651.23	39091.63
651.38	39098.65
651.52	38553.30
651.67	38899.70
651.81	39168.87
651.96	39234.40
652.10	39182.91
652.25	38787.36
652.39	39063.54
652.54	39299.94
652.68	39311.64
652.83	39065.88
652.97	39030.77
653.12	39526.97
653.26	38878.64
653.41	38520.54
653.55	38703.10
653.70	38885.66
653.84	38696.08
653.99	38515.86
654.13	38770.97
654.27	38515.86
654.42	38679.69
654.56	38518.20
654.71	38827.15
654.85	38705.44
655.00	38532.24
655.14	38281.80
655.29	38087.54
655.43	38127.33
655.57	37923.70
655.72	37982.21
655.86	37467.30
656.01	37572.62
656.15	37242.60
656.30	37734.12
656.44	37610.07
656.58	38209.25
656.73	37888.59
656.87	37701.35
657.01	37989.24
657.16	37862.85
657.30	37687.31
657.45	37467.30
657.59	37654.54
657.73	37652.20
657.88	38007.96
658.02	38007.96
658.16	38171.80
658.31	38031.36
658.45	37968.17
658.60	38157.75
658.74	37710.71
658.88	37603.05
659.03	37296.44
659.17	37600.71
659.31	37099.83
659.46	37090.47
659.60	37195.79
659.74	37455.59
659.89	37488.36
660.03	37109.19
660.17	37462.61
660.32	37797.31
660.46	37404.10
660.60	36793.22
660.74	37177.07
660.89	37249.63
661.03	36474.91
661.17	36587.25
661.32	36730.03
661.46	37113.87
661.60	36704.28
661.74	36575.55
661.89	36641.09
662.03	36683.22
662.17	36809.61
662.31	36847.05
662.46	36804.92
662.60	36407.03
662.74	36521.72
662.88	36292.35
663.03	35974.03
663.17	36694.92
663.31	36048.93
663.45	35828.92
663.60	36041.91
663.74	35648.70
663.88	35803.17
664.02	35683.81
664.17	36215.11
664.31	35484.86
664.45	35751.68
664.59	35337.41
664.73	36147.23
664.88	35480.18
665.02	35178.25
665.16	35241.45
665.30	35459.12
665.44	35213.36
665.59	35445.07
665.73	35384.22
665.87	35440.39
666.01	35000.37
666.15	35360.81
666.29	35662.74
666.44	35222.72
666.58	35049.52
666.72	35002.71
666.86	35220.38
667.00	35185.27
667.14	34862.28
667.28	34553.33
667.43	34558.01
667.57	34497.16
667.71	34876.32
667.85	34403.53
667.99	34862.28
668.13	35021.44
668.27	34705.46
668.41	34646.95
668.56	34546.31
668.70	34672.70
668.84	33472.00
668.98	34106.29
669.12	33900.32
669.26	33876.91
669.40	33930.75
669.54	33591.37
669.68	33738.82
669.82	33558.60
669.96	33563.28
670.10	33387.74
670.25	33654.56
670.39	33083.47
670.53	33551.58
670.67	33277.74
670.81	33708.40
670.95	33347.95
671.09	33378.38
671.23	33130.28
671.37	33088.15
671.51	32779.20
671.65	33071.77
671.79	32641.11
671.93	32753.46
672.07	32886.87
672.21	32655.15
672.35	32385.99
672.49	32720.69
672.63	32627.07
672.77	32701.96
672.91	32842.40
673.05	31847.67
673.19	32606.00
673.33	32201.09
673.47	32091.09
673.61	31646.38
673.75	31779.79
673.89	31501.27
674.03	31417.01
674.17	31770.43
674.31	32041.93
674.45	31777.45
674.59	31765.75
674.73	31791.50
674.87	31414.67
675.01	31370.20
675.15	31314.03
675.29	31199.34
675.43	31009.76
675.56	31475.52
675.70	30892.73
675.84	30991.03
675.98	30139.08
676.12	30448.03
676.26	30532.29
676.40	30607.19
676.54	30485.48
676.68	30874.01
676.82	30466.75
676.96	30476.12
677.10	30518.25
677.23	29968.22
677.37	30101.63
677.51	30258.45
677.65	29659.27
677.79	29809.06
677.93	29319.89
678.07	29420.53
678.21	28716.03
678.34	28940.72
678.48	29092.86
678.62	29060.09
678.76	28914.98
678.90	28507.72
679.04	28863.49
679.18	28950.09
679.31	28477.30
679.45	28510.07
679.59	28369.63
679.73	28383.68
679.87	28156.64
680.00	28315.80
680.14	28329.84
680.28	28203.46
680.42	28100.47
680.56	28044.30
680.70	27742.37
680.83	27817.27
680.97	27667.47
681.11	27838.33
681.25	27276.60
681.39	27843.01
681.52	27688.54
681.66	27021.48
681.80	27077.66
681.94	27190.00
682.07	27058.93
682.21	26993.40
682.35	27065.96
682.49	26649.34
682.62	26522.95
682.76	26607.21
682.90	26314.64
683.04	26415.29
683.17	26452.73
683.31	26052.50
683.45	26160.17
683.59	26127.40
683.72	26092.29
683.86	26366.13
684.00	26132.08
684.13	25839.51
684.27	25460.35
684.41	25539.93
684.55	25596.10
684.68	25284.81
684.82	25411.20
684.96	25333.96
685.09	25170.12
685.23	24863.51
685.37	24830.74
685.50	24788.61
685.64	24751.17
685.78	24627.12
685.91	24456.26
686.05	24472.64
686.19	23946.02
686.32	24210.50
686.46	23896.87
686.60	23475.57
686.73	23101.09
686.87	23239.18
687.01	23330.46
687.14	23356.21
687.28	23410.04
687.42	23496.64
687.55	23330.46
687.69	23187.69
687.82	23222.80
687.96	23267.27
688.10	22768.73
688.23	23033.21
688.37	22874.06
688.50	23147.90
688.64	22675.11
688.78	22618.94
688.91	22862.35
689.05	22494.89
689.18	22707.88
689.32	22265.52
689.46	22286.58
689.59	22724.26
689.73	22462.12
689.86	22265.52
690.00	21832.52
690.13	21982.31
690.27	21654.64
690.41	21731.87
690.54	21275.47
690.68	21366.75
690.81	21214.62
690.95	21652.30
691.08	21516.54
691.22	21359.73
691.35	21223.98
691.49	21179.51
691.62	21013.33
691.76	20734.81
691.89	21163.12
692.03	21294.19
692.16	20917.37
692.30	20313.51
692.43	20325.21
692.57	20343.94
692.70	20322.87
692.84	19976.47
692.97	20116.90
693.11	20418.83
693.24	20189.46
693.38	19723.69
693.51	19985.83
693.65	20126.27
693.78	19946.05
693.92	19838.38
694.05	19459.21
694.19	19454.53
694.32	19318.78
694.45	19384.32
694.59	19445.17
694.72	19342.19
694.86	19108.13
694.99	18895.14
695.13	18841.31
695.26	18787.48
695.39	19040.26
695.53	19021.53
695.66	18684.50
695.80	18621.30
695.93	18829.61
696.07	18427.04
696.20	18691.52
696.33	18710.24
696.47	18663.43
696.60	18150.85
696.73	17860.63
696.87	18251.50
697.00	18232.77
697.14	17867.65
697.27	17661.68
697.40	17455.72
697.54	17586.79
697.67	17741.26
697.80	17535.29
697.94	17315.28
698.07	17071.87
698.21	17001.65
698.34	17025.06
698.47	17387.84
698.61	17165.49
698.74	16959.52
698.87	17029.74
699.01	16587.38
699.14	16273.74
699.27	16212.89
699.40	16280.77
699.54	16521.84
699.67	16482.05
699.80	16067.78
699.94	16121.61
700.07	16500.78
700.20	16400.13
700.34	16173.10
700.47	16292.47
700.60	16226.93
700.73	16135.65
700.87	16072.46
701.00	15756.49
701.13	15917.98
701.26	15496.69
701.40	15796.28
701.53	15445.20
701.66	15438.17
701.79	15557.54
701.93	15510.73
702.06	15180.71
702.19	15173.69
702.32	15026.24
702.46	14932.62
702.59	15250.93
702.72	15131.56
702.85	15042.62
702.99	14998.15
703.12	14958.36
703.25	14452.81
703.38	14513.66
703.51	14593.24
703.65	14700.90
703.78	14377.91
703.91	14075.98
704.04	14272.59
704.17	14225.78
704.31	14141.52
704.44	13837.25
704.57	14164.92
704.70	13776.39
704.83	13834.91
704.96	13767.03
705.10	13785.76
705.23	13888.74
>>>>>End Processed Spectral Data<<<<<
