SpectraSuite Data File
++++++++++++++++++++++++++++++++++++
Date: Fri Oct 25 10:48:30 EDT 2013
User: price-jones
Dark Spectrum Present: No
Reference Spectrum Present: No
Number of Sampled Component Spectra: 1
Spectrometers: USB2+H05261
Integration Time (usec): 100000 (USB2+H05261)
Spectra Averaged: 1 (USB2+H05261)
Boxcar Smoothing: 0 (USB2+H05261)
Correct for Electrical Dark: No (USB2+H05261)
Strobe/Lamp Enabled: No (USB2+H05261)
Correct for Detector Non-linearity: No (USB2+H05261)
Correct for Stray Light: No (USB2+H05261)
Number of Pixels in Processed Spectrum: 2048
>>>>>Begin Processed Spectral Data<<<<<
365.73	117.03
365.92	117.03
366.12	117.03
366.32	23.41
366.52	86.60
366.72	42.13
366.91	32.77
367.11	46.81
367.31	51.49
367.51	2.34
367.70	37.45
367.90	58.51
368.10	63.19
368.30	79.58
368.49	60.85
368.69	86.60
368.89	95.96
369.09	72.56
369.28	124.05
369.48	117.03
369.68	88.94
369.87	30.43
370.07	86.60
370.27	170.86
370.47	217.67
370.66	414.27
370.86	390.87
371.06	437.68
371.25	496.19
371.45	512.58
371.65	442.36
371.84	521.94
372.04	535.98
372.24	573.43
372.44	543.00
372.63	538.32
372.83	500.87
373.03	535.98
373.22	533.64
373.42	566.41
373.62	533.64
373.81	657.69
374.01	552.37
374.21	519.60
374.40	594.50
374.60	634.29
374.79	622.58
374.99	622.58
375.19	634.29
375.38	657.69
375.58	655.35
375.78	697.48
375.97	615.56
376.17	627.26
376.37	631.94
376.56	725.57
376.76	627.26
376.95	638.97
377.15	667.05
377.35	648.33
377.54	713.86
377.74	739.61
377.93	711.52
378.13	725.57
378.33	641.31
378.52	683.44
378.72	669.39
378.91	631.94
379.11	641.31
379.31	748.97
379.50	589.82
379.70	716.20
379.89	716.20
380.09	667.05
380.28	692.80
380.48	739.61
380.68	709.18
380.87	809.83
381.07	763.01
381.26	730.25
381.46	725.57
381.65	786.42
381.85	697.48
382.04	695.14
382.24	739.61
382.43	690.46
382.63	685.78
382.83	727.91
383.02	816.85
383.22	720.88
383.41	770.04
383.61	774.72
383.80	739.61
384.00	807.48
384.19	807.48
384.39	821.53
384.58	786.42
384.78	800.46
384.97	781.74
385.17	912.81
385.36	847.27
385.56	894.08
385.75	889.40
385.95	873.02
386.14	875.36
386.34	929.19
386.53	828.55
386.72	856.64
386.92	814.51
387.11	882.38
387.31	896.43
387.50	954.94
387.70	957.28
387.89	978.34
388.09	910.47
388.28	854.30
388.48	990.05
388.67	990.05
388.86	922.17
389.06	933.87
389.25	1006.43
389.45	1001.75
389.64	947.92
389.84	1057.92
390.03	1050.90
390.22	1097.71
390.42	1118.78
390.61	1107.07
390.81	1048.56
391.00	1048.56
391.19	1193.67
391.39	1153.88
391.58	1093.03
391.78	1114.10
391.97	1081.33
392.16	983.02
392.36	1093.03
392.55	1062.60
392.75	1018.13
392.94	1043.88
393.13	1071.97
393.33	964.30
393.52	1036.86
393.71	1135.16
393.91	1181.97
394.10	1116.44
394.29	1219.42
394.49	1193.67
394.68	1238.14
394.88	1263.89
395.07	1275.59
395.26	1137.50
395.46	1233.46
395.65	1359.85
395.84	1289.64
396.04	1313.04
396.23	1179.63
396.42	1301.34
396.62	1242.82
396.81	1245.16
397.00	1226.44
397.19	1291.98
397.39	1315.38
397.58	1411.34
397.77	1416.02
397.97	1483.90
398.16	1401.98
398.35	1554.12
398.55	1404.32
398.74	1537.73
398.93	1497.94
399.12	1575.18
399.32	1572.84
399.51	1572.84
399.70	1497.94
399.90	1535.39
400.09	1652.42
400.28	1633.69
400.47	1654.76
400.67	1607.95
400.86	1664.12
401.05	1769.44
401.24	1682.85
401.44	1769.44
401.63	1764.76
401.82	1732.00
402.01	1739.02
402.21	1769.44
402.40	1804.55
402.59	1694.55
402.78	1877.11
402.97	1755.40
403.17	1792.85
403.36	1809.23
403.55	1813.92
403.74	1914.56
403.93	1825.62
404.13	1975.41
404.32	1928.60
404.51	1912.22
404.70	1982.43
404.89	1942.64
405.09	1942.64
405.28	1923.92
405.47	1949.67
405.66	2012.86
405.85	2108.82
406.05	1933.28
406.24	2106.48
406.43	2094.78
406.62	2076.06
406.81	2270.32
407.00	2143.93
407.20	2087.76
407.39	2136.91
407.58	2275.00
407.77	2092.44
407.96	2183.72
408.15	2181.38
408.34	2211.81
408.54	2265.64
408.73	2214.15
408.92	2263.30
409.11	2342.88
409.30	2387.35
409.49	2303.09
409.68	2317.13
409.87	2291.38
410.07	2359.26
410.26	2455.22
410.45	2429.48
410.64	2436.50
410.83	2502.03
411.02	2602.68
411.21	2600.34
411.40	2511.39
411.59	2614.38
411.78	2574.59
411.98	2722.04
412.17	2771.19
412.36	2665.87
412.55	2757.15
412.74	2712.68
412.93	2794.60
413.12	2581.61
413.31	2897.58
413.50	2860.13
413.69	2890.56
413.88	2890.56
414.07	2991.20
414.26	2960.78
414.45	2958.44
414.64	2963.12
414.83	3042.70
415.02	3030.99
415.22	3042.70
415.41	3143.34
415.60	3178.45
415.79	3267.39
415.98	3236.96
416.17	3323.56
416.36	3255.69
416.55	3300.16
416.74	3300.16
416.93	3342.28
417.12	3307.18
417.31	3318.88
417.50	3389.10
417.69	3459.31
417.88	3482.72
418.07	3478.04
418.26	3506.12
418.45	3433.57
418.64	3564.64
418.83	3574.00
419.02	3637.19
419.21	3747.20
419.39	3578.68
419.58	3536.55
419.77	3538.89
419.96	3712.09
420.15	3997.64
420.34	3744.86
420.53	3822.09
420.72	3822.09
420.91	3901.67
421.10	3925.08
421.29	3852.52
421.48	3861.88
421.67	3875.93
421.86	3810.39
422.05	3833.80
422.24	3737.84
422.43	3791.67
422.61	3908.69
422.80	3992.95
422.99	3887.63
423.18	4007.00
423.37	4042.11
423.56	4051.47
423.75	4011.68
423.94	3833.80
424.13	3754.22
424.32	3932.10
424.50	3911.04
424.69	4119.34
424.88	4091.26
425.07	4002.32
425.26	3868.91
425.45	3971.89
425.64	3908.69
425.83	4081.89
426.01	4095.94
426.20	3992.95
426.39	4058.49
426.58	4014.02
426.77	3988.27
426.96	3985.93
427.15	3943.80
427.33	4128.70
427.52	4191.90
427.71	4205.94
427.90	4241.05
428.09	4257.43
428.28	4142.75
428.46	4222.33
428.65	4112.32
428.84	4283.18
429.03	4315.95
429.22	4079.55
429.40	4227.01
429.59	4121.68
429.78	3953.16
429.97	3896.99
430.16	3964.87
430.34	4191.90
430.53	4140.41
430.72	4332.33
430.91	4327.65
431.10	4395.53
431.28	4451.70
431.47	4547.66
431.66	4603.83
431.85	4629.58
432.03	4678.73
432.22	4704.48
432.41	4723.20
432.60	4725.54
432.79	4744.27
432.97	4910.44
433.16	4765.33
433.35	4784.06
433.54	4706.82
433.72	4774.69
433.91	4702.14
434.10	4833.21
434.28	4919.81
434.47	4887.04
434.66	4873.00
434.85	4896.40
435.03	4957.25
435.22	5004.07
435.41	5107.05
435.59	5090.67
435.78	5224.08
435.97	5315.36
436.16	5064.92
436.34	5071.94
436.53	5203.01
436.72	5427.70
436.90	5132.79
437.09	5507.28
437.28	5200.67
437.46	5207.69
437.65	5249.82
437.84	5235.78
438.02	5256.84
438.21	5242.80
438.40	5160.88
438.58	5219.39
438.77	5387.91
438.96	5526.00
439.14	5483.88
439.33	5518.98
439.52	5713.25
439.70	5659.42
439.89	5605.58
440.08	5813.89
440.26	5741.33
440.45	5757.72
440.63	5954.32
440.82	5954.32
441.01	5944.96
441.19	6164.97
441.38	6127.52
441.57	6134.54
441.75	6153.27
441.94	6382.64
442.12	6340.51
442.31	6410.73
442.50	6373.28
442.68	6574.56
442.87	6239.87
443.05	6368.60
443.24	6513.71
443.43	6478.60
443.61	6609.67
443.80	6696.27
443.98	6469.24
444.17	6235.19
444.35	6497.33
444.54	6757.13
444.73	6672.87
444.91	6492.65
445.10	6593.29
445.28	6464.56
445.47	6497.33
445.65	6443.49
445.84	6532.44
446.02	6483.28
446.21	6513.71
446.39	6637.76
446.58	6675.21
446.77	6717.34
446.95	6686.91
447.14	6829.68
447.32	6832.02
447.51	6717.34
447.69	6663.51
447.88	6888.20
448.06	6839.05
448.25	6853.09
448.43	6768.83
448.62	6853.09
448.80	6857.77
448.99	6890.54
449.17	6853.09
449.36	6888.20
449.54	7037.99
449.73	7171.40
449.91	7208.85
450.10	7169.06
450.28	7241.62
450.46	7267.36
450.65	7302.47
450.83	7419.50
451.02	7356.30
451.20	7222.89
451.39	7393.75
451.57	7206.51
451.76	7258.00
451.94	7428.86
452.13	7360.98
452.31	7227.57
452.49	7187.79
452.68	7337.58
452.86	7220.55
453.05	7274.38
453.23	7403.11
453.42	7398.43
453.60	7269.70
453.78	7609.08
453.97	7424.18
454.15	7630.15
454.34	7412.48
454.52	7386.73
454.70	7585.68
454.89	7590.36
455.07	7648.87
455.26	7665.25
455.44	7864.20
455.62	7723.77
455.81	7819.73
455.99	7829.09
456.17	7810.37
456.36	7932.08
456.54	8116.98
456.73	8119.32
456.91	8231.66
457.09	8231.66
457.28	8290.18
457.46	8107.62
457.64	8079.53
457.83	8196.56
458.01	8030.38
458.19	8421.25
458.38	8322.94
458.56	8421.25
458.74	8205.92
458.93	8187.19
459.11	8428.27
459.29	8360.39
459.48	8470.40
459.66	8423.59
459.84	8465.72
460.03	8446.99
460.21	8542.96
460.39	8557.00
460.57	8793.39
460.76	8585.08
460.94	8568.70
461.12	8704.45
461.31	8800.41
461.49	8865.95
461.67	8678.71
461.85	8940.85
462.04	8971.27
462.22	9441.72
462.40	8950.21
462.59	8877.65
462.77	9036.81
462.95	8943.19
463.13	8957.23
463.32	9137.45
463.50	9081.28
463.68	9249.80
463.86	9242.78
464.05	8905.74
464.23	8884.67
464.41	9064.89
464.59	8879.99
464.78	9202.99
464.96	9331.72
465.14	9081.28
465.32	9310.65
465.50	9469.81
465.69	9423.00
465.87	9500.23
466.05	9373.85
466.23	9191.28
466.41	9355.12
466.60	9427.68
466.78	9348.10
466.96	9373.85
467.14	9261.50
467.32	9474.49
467.51	9617.26
467.69	9308.31
467.87	9603.22
468.05	9589.17
468.23	9633.64
468.41	9516.62
468.60	9586.83
468.78	9977.70
468.96	9675.77
469.14	9785.78
469.32	9729.61
469.50	9348.10
469.69	9741.31
469.87	9963.66
470.05	10024.51
470.23	9998.77
470.41	9930.89
470.59	10155.58
470.77	9914.51
470.95	10326.44
471.14	10071.33
471.32	10101.75
471.50	10324.10
471.68	10239.84
471.86	10396.66
472.04	10452.83
472.22	10548.79
472.40	10200.05
472.58	10516.03
472.77	10619.01
472.95	10705.61
473.13	10958.39
473.31	10675.18
473.49	10499.64
473.67	10724.33
473.85	10764.12
474.03	11002.86
474.21	11129.25
474.39	10979.45
474.57	11103.50
474.75	11215.85
474.93	11396.07
475.12	11286.06
475.30	11566.93
475.48	11389.05
475.66	11363.30
475.84	11407.77
476.02	11644.17
476.20	11520.12
476.38	11667.57
476.56	12025.67
476.74	11920.35
476.92	12002.27
477.10	11995.25
477.28	12058.44
477.46	12210.57
477.64	12276.11
477.82	12528.89
478.00	12538.25
478.18	12573.36
478.36	12692.73
478.54	12610.81
478.72	12681.02
478.90	12996.99
479.08	13277.86
479.26	13355.10
479.44	13104.66
479.62	13249.77
479.80	13390.20
479.98	13537.66
480.16	13715.54
480.34	13769.37
480.52	13806.82
480.70	14185.99
480.88	13804.48
481.06	13930.87
481.24	14129.81
481.41	14576.86
481.59	14354.51
481.77	14670.48
481.95	14635.37
482.13	14806.23
482.31	14707.93
482.49	14831.97
482.67	14817.93
482.85	15059.01
483.03	15194.76
483.21	15286.04
483.39	15749.46
483.57	15735.42
483.74	15499.03
483.92	15639.46
484.10	15566.90
484.28	15707.34
484.46	16121.61
484.64	16585.04
484.82	16238.64
485.00	16563.97
485.18	16397.79
485.35	16397.79
485.53	16189.49
485.71	16198.85
485.89	16652.91
486.07	16751.21
486.25	17048.46
486.43	16905.69
486.61	17034.42
486.78	17764.67
486.96	17596.15
487.14	18118.09
487.32	17951.91
487.50	18080.64
487.68	18405.97
487.85	18499.59
488.03	18951.32
488.21	19192.39
488.39	18703.22
488.57	19016.85
488.75	19077.71
488.92	19117.50
489.10	19616.03
489.28	19510.71
489.46	19854.76
489.64	19960.09
489.81	20374.36
489.99	20379.04
490.17	20365.00
490.35	20603.74
490.53	20409.47
490.70	20615.44
490.88	20767.57
491.06	20975.88
491.24	21212.28
491.41	20886.94
491.59	20746.51
491.77	21111.63
491.95	21128.02
492.13	21645.27
492.30	21528.25
492.48	21970.61
492.66	22005.72
492.84	22059.55
493.01	22555.74
493.19	22408.29
493.37	22375.52
493.54	22771.07
493.72	22717.24
493.90	22672.77
494.08	23089.38
494.25	23325.78
494.43	23250.88
494.61	23733.03
494.79	23456.85
494.96	23410.04
495.14	23328.12
495.32	24119.22
495.49	23854.74
495.67	24074.75
495.85	24510.09
496.02	24519.45
496.20	24687.97
496.38	24453.92
496.55	24318.17
496.73	25373.75
496.91	24882.24
497.09	25343.32
497.26	25544.61
497.44	25003.94
497.62	25535.24
497.79	25551.63
497.97	25458.01
498.14	25708.44
498.32	26012.71
498.50	26094.63
498.67	26092.29
498.85	26302.94
499.03	26597.85
499.20	26092.29
499.38	26621.25
499.56	26359.11
499.73	26829.56
499.91	26544.02
500.08	27211.07
500.26	26349.75
500.44	26993.40
500.61	26782.75
500.79	27047.23
500.97	27604.28
501.14	27477.89
501.32	27278.94
501.49	27339.80
501.67	27747.05
501.84	27641.73
502.02	27845.35
502.20	27831.31
502.37	28231.54
502.55	27901.53
502.72	28154.30
502.90	28458.57
503.07	28283.03
503.25	28266.65
503.43	28662.20
503.60	28723.05
503.78	28208.14
503.95	28580.28
504.13	28458.57
504.30	29254.36
504.48	28706.67
504.65	29237.97
504.83	29399.47
505.01	29500.11
505.18	29621.82
505.36	29752.89
505.53	29600.76
505.71	30195.25
505.88	29996.31
506.06	29479.05
506.23	29867.58
506.41	29928.43
506.58	30340.36
506.76	30448.03
506.93	30209.29
507.11	30274.83
507.28	30141.42
507.46	30190.57
507.63	30518.25
507.81	30412.92
507.98	30803.79
508.16	30855.28
508.33	30717.19
508.50	31178.28
508.68	30930.18
508.85	31417.01
509.03	31615.96
509.20	31386.58
509.38	31491.91
509.55	31765.75
509.73	31730.64
509.90	31646.38
510.08	31742.35
510.25	31676.81
510.42	31955.33
510.60	32222.16
510.77	32327.48
510.95	32079.38
511.12	32240.88
511.30	32687.92
511.47	32591.96
511.64	33031.98
511.82	32882.19
511.99	32524.08
512.17	32849.42
512.34	32444.51
512.51	32929.00
512.69	33120.92
512.86	33268.37
513.04	33556.26
513.21	33263.69
513.38	33125.60
513.56	33223.90
513.73	33029.64
513.90	33502.43
514.08	33172.41
514.25	33380.72
514.43	33364.34
514.60	34110.97
514.77	33687.33
514.95	34057.14
515.12	34050.11
515.29	34366.09
515.47	34270.12
515.64	34471.41
515.81	34066.50
515.99	33881.60
516.16	34190.55
516.33	33806.70
516.51	34220.97
516.68	34005.64
516.85	33972.88
517.03	34244.38
517.20	34085.22
517.37	34642.27
517.54	34904.41
517.72	34927.81
517.89	34426.94
518.06	34387.15
518.24	34459.71
518.41	34609.50
518.58	34808.45
518.75	35122.08
518.93	35660.40
519.10	35328.05
519.27	35782.11
519.45	35178.25
519.62	35934.24
519.79	35814.88
519.96	36051.27
520.14	35807.86
520.31	36121.49
520.48	36095.74
520.65	36048.93
520.83	36163.62
521.00	36273.62
521.17	36495.97
521.34	36238.51
521.52	36547.47
521.69	36847.05
521.86	36931.31
522.03	36919.61
522.20	36519.38
522.38	36879.82
522.55	36928.97
522.72	36779.18
522.89	37010.89
523.07	37209.84
523.24	37088.13
523.41	37198.13
523.58	36931.31
523.75	37811.35
523.92	37493.04
524.10	37546.87
524.27	37567.94
524.44	37439.21
524.61	37820.72
524.78	37872.21
524.96	38038.39
525.13	37895.61
525.30	38534.58
525.47	37991.58
525.64	38396.49
525.81	37986.89
525.98	38066.47
526.16	37542.19
526.33	37628.79
526.50	37947.11
526.67	37581.98
526.84	38014.98
527.01	37729.44
527.18	38305.21
527.36	38733.53
527.53	38604.80
527.70	39019.07
527.87	38845.87
528.04	38976.94
528.21	39222.70
528.38	38834.17
528.55	39021.41
528.72	39423.98
528.89	39629.95
529.07	39538.67
529.24	38962.90
529.41	39550.37
529.58	39328.02
529.75	39126.74
529.92	39487.18
530.09	39419.30
530.26	39793.79
530.43	39431.01
530.60	39714.21
530.77	39899.11
530.94	40023.16
531.11	40081.67
531.28	40076.99
531.46	39831.24
531.63	40205.72
531.80	40002.10
531.97	40046.57
532.14	39440.37
532.31	39943.58
532.48	39716.55
532.65	40119.12
532.82	40219.77
532.99	40233.81
533.16	40350.84
533.33	40746.39
533.50	40472.54
533.67	40486.59
533.84	40594.25
534.01	40442.12
534.18	40772.13
534.35	40987.46
534.52	40453.82
534.69	40741.71
534.86	41144.28
535.03	41099.81
535.20	40952.35
535.37	41273.01
535.54	42014.96
535.71	41448.55
535.88	41144.28
536.05	41160.66
536.22	41387.69
536.38	41553.87
536.55	41399.40
536.72	41104.49
536.89	41148.96
537.06	41034.27
537.23	41638.13
537.40	41654.51
537.57	41420.46
537.74	41453.23
537.91	42141.35
538.08	42043.04
538.25	41317.48
538.42	41621.75
538.59	42199.86
538.75	41984.53
538.92	41858.14
539.09	41982.19
539.26	42204.54
539.43	41556.21
539.60	42068.79
539.77	41918.99
539.94	41902.61
540.11	41876.86
540.28	41996.23
540.44	41961.12
540.61	42131.98
540.78	42043.04
540.95	42368.38
541.12	42323.91
541.29	42302.84
541.46	42834.14
541.62	42513.49
541.79	42382.42
541.96	41942.40
542.13	42288.80
542.30	43075.22
542.47	42476.04
542.63	42583.71
542.80	42721.80
542.97	43234.38
543.14	43721.21
543.31	43262.46
543.48	43161.82
543.64	43723.55
543.81	43730.57
543.98	43363.11
544.15	43306.93
544.32	43599.50
544.48	43470.77
544.65	43332.68
544.82	43669.72
544.99	43089.26
545.16	43833.55
545.32	43746.95
545.49	44130.80
545.66	43639.29
545.83	43592.48
546.00	43765.68
546.16	43716.53
546.33	43777.38
546.50	43456.73
546.67	44161.23
546.83	43494.18
547.00	43812.49
547.17	43976.33
547.34	43835.89
547.50	44098.03
547.67	44261.87
547.84	44257.19
548.00	44322.72
548.17	44168.25
548.34	44341.45
548.51	44233.78
548.67	44355.49
548.84	44512.31
549.01	44271.23
549.18	44280.60
549.34	44811.90
549.51	44645.72
549.68	44378.90
549.84	44659.76
550.01	44893.82
550.18	44018.46
550.34	44498.26
550.51	44692.53
550.68	44470.18
550.84	44058.24
551.01	44617.63
551.18	44624.65
551.34	44519.33
551.51	45184.04
551.68	45092.76
551.84	44769.77
552.01	44315.70
552.18	44538.05
552.34	44247.83
552.51	44502.95
552.68	44729.98
552.84	45361.92
553.01	45682.58
553.18	44727.64
553.34	44566.14
553.51	44907.86
553.67	45240.21
553.84	45289.37
554.01	45539.80
554.17	45422.78
554.34	45170.00
554.51	45354.90
554.67	45738.75
554.84	45006.16
555.00	45347.88
555.17	45076.38
555.33	45727.05
555.50	45593.64
555.67	45563.21
555.83	45799.60
556.00	45752.79
556.16	45551.51
556.33	45652.15
556.50	45752.79
556.66	45654.49
556.83	45439.16
556.99	45588.95
557.16	45556.19
557.32	45787.90
557.49	45890.88
557.65	45436.82
557.82	45425.12
557.98	45682.58
558.15	45720.02
558.32	45741.09
558.48	45982.16
558.65	45626.40
558.81	45944.72
558.98	45701.30
559.14	45621.72
559.31	46087.49
559.47	45694.28
559.64	45918.97
559.80	46181.11
559.97	45806.62
560.13	45804.28
560.30	46085.15
560.46	45572.57
560.63	46305.16
560.79	45713.00
560.96	46307.50
561.12	46040.68
561.29	46120.26
561.45	46073.45
561.61	46340.27
561.78	45825.35
561.94	45986.85
562.11	46010.25
562.27	45881.52
562.44	46230.26
562.60	46394.10
562.77	46712.41
562.93	46384.74
563.10	46740.50
563.26	45937.69
563.42	45890.88
563.59	46251.33
563.75	46321.54
563.92	46520.49
564.08	46429.21
564.24	46485.38
564.41	46466.66
564.57	46714.75
564.74	46260.69
564.90	46302.82
565.07	46295.80
565.23	46398.78
565.39	46078.13
565.56	46478.36
565.72	46225.58
565.88	46452.61
566.05	46087.49
566.21	46323.88
566.38	46014.93
566.54	46480.70
566.70	46862.21
566.87	46747.52
567.03	46628.15
567.19	46780.29
567.36	46789.65
567.52	46234.94
567.68	46834.12
567.85	46323.88
568.01	46602.41
568.17	46766.24
568.34	46600.07
568.50	46171.75
568.66	46487.72
568.83	46773.27
568.99	46026.63
569.15	46728.80
569.32	46120.26
569.48	46258.35
569.64	46450.27
569.81	46595.38
569.97	46391.76
570.13	46710.07
570.30	46092.17
570.46	46450.27
570.62	46499.42
570.78	46260.69
570.95	45989.19
571.11	47100.94
571.27	46358.99
571.43	46656.24
571.60	46333.24
571.76	46660.92
571.92	46581.34
572.09	46625.81
572.25	46476.02
572.41	46394.10
572.57	46894.97
572.74	46988.60
572.90	46408.14
573.06	46923.06
573.22	46782.63
573.38	46422.19
573.55	46415.16
573.71	46930.08
573.87	46569.64
574.03	46176.43
574.20	46602.41
574.36	46412.82
574.52	46611.77
574.68	46607.09
574.84	46667.94
575.01	46663.26
575.17	46749.86
575.33	46562.62
575.49	46574.32
575.65	46892.63
575.82	47042.43
575.98	46649.22
576.14	46721.77
576.30	46808.37
576.46	47033.07
576.62	46415.16
576.79	46902.00
576.95	46766.24
577.11	46323.88
577.27	46618.79
577.43	46719.43
577.59	46686.67
577.75	46693.69
577.92	46351.97
578.08	46476.02
578.24	46471.34
578.40	46391.76
578.56	46611.77
578.72	46763.90
578.88	46794.33
579.04	46759.22
579.21	46429.21
579.37	46403.46
579.53	46459.63
579.69	46714.75
579.85	46483.04
580.01	46543.89
580.17	46913.70
580.33	47222.65
580.49	46873.91
580.65	46869.23
580.82	47047.11
580.98	46609.43
581.14	46595.38
581.30	46916.04
581.46	47054.13
581.62	46815.40
581.78	46653.90
581.94	47508.19
582.10	47248.39
582.26	47143.07
582.42	46651.56
582.58	46616.45
582.74	46597.73
582.90	47185.20
583.06	47089.24
583.22	46773.27
583.38	46939.44
583.54	47220.31
583.70	46827.10
583.86	46948.81
584.02	46777.95
584.18	46988.60
584.34	47220.31
584.50	47014.34
584.66	46937.10
584.82	46618.79
584.98	47182.86
585.14	46813.05
585.30	46717.09
585.46	46794.33
585.62	46761.56
585.78	46775.61
585.94	46457.29
586.10	47119.66
586.26	46571.98
586.42	47051.79
586.58	46684.33
586.74	47143.07
586.90	46817.74
587.06	46827.10
587.22	47187.54
587.38	46693.69
587.54	47019.02
587.70	46829.44
587.86	47028.38
588.02	46824.76
588.18	46646.88
588.34	46848.16
588.49	46630.49
588.65	46583.68
588.81	46209.20
588.97	46326.22
589.13	46466.66
589.29	46473.68
589.45	46260.69
589.61	47042.43
589.77	47035.41
589.93	46621.13
590.08	46927.74
590.24	47143.07
590.40	47093.92
590.56	47129.03
590.72	47182.86
590.88	46827.10
591.04	47079.88
591.20	46876.25
591.35	47070.51
591.51	47828.85
591.67	47517.56
591.83	46953.49
591.99	46803.69
592.15	46972.21
592.31	47131.37
592.46	47126.69
592.62	47246.05
592.78	47201.58
592.94	47058.81
593.10	46993.28
593.26	47344.36
593.41	47349.04
593.57	47086.90
593.73	46866.89
593.89	46948.81
594.05	46808.37
594.20	47098.60
594.36	47145.41
594.52	46850.50
594.68	47049.45
594.84	47234.35
594.99	47192.22
595.15	47185.20
595.31	47281.16
595.47	47051.79
595.62	46672.62
595.78	47473.09
595.94	47232.01
596.10	47676.71
596.25	47412.23
596.41	47227.33
596.57	47662.67
596.73	47468.40
596.88	46707.73
597.04	46986.25
597.20	47227.33
597.36	47068.17
597.51	47863.96
597.67	47295.21
597.83	47068.17
597.99	47344.36
598.14	46965.19
598.30	47194.56
598.46	46815.40
598.61	47112.64
598.77	47044.77
598.93	46995.62
599.09	47320.95
599.24	47601.82
599.40	47119.66
599.56	47475.43
599.71	47084.56
599.87	47342.02
600.03	46887.95
600.18	47093.92
600.34	47239.03
600.50	46930.08
600.65	46899.65
600.81	47229.67
600.97	47384.15
601.12	47416.91
601.28	47496.49
601.44	47255.42
601.59	47171.16
601.75	46962.85
601.91	47082.22
602.06	47019.02
602.22	47201.58
602.37	47002.64
602.53	46979.23
602.69	47105.62
602.84	46958.17
603.00	47274.14
603.16	46920.72
603.31	46880.93
603.47	47021.36
603.62	46850.50
603.78	47445.00
603.94	47239.03
604.09	46946.47
604.25	47388.83
604.40	46635.17
604.56	47360.74
604.71	47463.72
604.87	46810.71
605.03	47136.05
605.18	46827.10
605.34	46714.75
605.49	46490.06
605.65	47114.98
605.80	47007.32
605.96	46969.87
606.12	46803.69
606.27	47173.50
606.43	46670.28
606.58	47274.14
606.74	46457.29
606.89	46878.59
607.05	46939.44
607.20	47147.75
607.36	46887.95
607.51	47281.16
607.67	46859.87
607.82	46911.36
607.98	46550.91
608.13	46658.58
608.29	46651.56
608.44	46689.01
608.60	46188.13
608.75	46717.09
608.91	46658.58
609.06	46939.44
609.22	46932.42
609.37	46422.19
609.53	46527.51
609.68	46628.15
609.84	46543.89
609.99	46436.23
610.15	46443.25
610.30	46234.94
610.46	45893.22
610.61	46272.39
610.76	46417.50
610.92	46665.60
611.07	46452.61
611.23	45893.22
611.38	46380.06
611.54	46143.66
611.69	46012.59
611.84	46096.85
612.00	46445.59
612.15	46483.04
612.31	46646.88
612.46	46380.06
612.62	46791.99
612.77	46227.92
612.92	46588.36
613.08	46120.26
613.23	46256.01
613.39	45652.15
613.54	45956.42
613.69	45888.54
613.85	45787.90
614.00	46054.72
614.15	46270.05
614.31	45897.91
614.46	46426.87
614.62	46277.07
614.77	45975.14
614.92	46143.66
615.08	45813.65
615.23	45617.04
615.38	45792.58
615.54	45539.80
615.69	45361.92
615.84	45256.60
616.00	45818.33
616.15	45570.23
616.30	46106.21
616.46	45717.68
616.61	45333.84
616.76	45366.60
616.92	45352.56
617.07	45612.36
617.22	45272.98
617.37	45476.61
617.53	45687.26
617.68	45860.46
617.83	45872.16
617.99	45675.55
618.14	45179.36
618.29	45422.78
618.45	45076.38
618.60	45464.91
618.75	45127.87
618.90	45223.83
619.06	45923.65
619.21	45359.58
619.36	45415.76
619.51	45441.50
619.67	45130.21
619.82	45380.65
619.97	45600.66
620.12	44949.99
620.28	44411.67
620.43	45003.82
620.58	45038.93
620.73	44865.73
620.89	44774.45
621.04	45069.36
621.19	44821.26
621.34	45085.74
621.49	44769.77
621.65	45111.49
621.80	45034.25
621.95	45081.06
622.10	44711.25
622.25	44903.18
622.41	44727.64
622.56	44804.88
622.71	44884.45
622.86	44664.44
623.01	44931.26
623.16	44598.91
623.32	44519.33
623.47	44786.15
623.62	44762.75
623.77	45036.59
623.92	44168.25
624.07	44121.44
624.23	44519.33
624.38	44383.58
624.53	43906.11
624.68	44549.76
624.83	44711.25
624.98	44453.79
625.13	44175.27
625.29	44027.82
625.44	44402.30
625.59	44002.07
625.74	43847.60
625.89	43290.55
626.04	43718.87
626.19	44186.97
626.34	43924.83
626.49	43896.75
626.65	44325.07
626.80	43793.76
626.95	43856.96
627.10	43983.35
627.25	43597.16
627.40	43075.22
627.55	43456.73
627.70	43070.54
627.85	43812.49
628.00	43428.64
628.15	43555.03
628.30	43454.39
628.45	43496.52
628.60	43728.23
628.76	43744.61
628.91	43702.48
629.06	43531.62
629.21	43143.09
629.36	43232.04
629.51	43332.68
629.66	43192.25
629.81	43323.32
629.96	43381.83
630.11	43124.37
630.26	43391.19
630.41	43098.62
630.56	42843.51
630.71	42803.72
630.86	43496.52
631.01	43288.21
631.16	43096.28
631.31	42501.79
631.46	42969.90
631.61	42880.95
631.76	43014.37
631.91	43089.26
632.06	43136.07
632.21	43042.45
632.36	43014.37
632.51	42670.31
632.66	43122.03
632.81	42588.39
632.96	42700.73
633.10	42677.33
633.25	42150.71
633.40	42696.05
633.55	42560.30
633.70	42742.86
633.85	42724.14
634.00	42555.62
634.15	42504.13
634.30	42639.88
634.45	42497.11
634.60	42337.95
634.75	42637.54
634.90	42555.62
635.05	42256.03
635.19	42351.99
635.34	42330.93
635.49	42382.42
635.64	42101.56
635.79	42096.88
635.94	42050.06
636.09	42337.95
636.24	42422.21
636.39	41715.37
636.53	42129.64
636.68	41769.20
636.83	41710.69
636.98	42239.65
637.13	41743.45
637.28	42230.29
637.43	42232.63
637.57	42361.36
637.72	42424.55
637.87	42382.42
638.02	41979.85
638.17	41865.16
638.32	41876.86
638.46	41902.61
638.61	41780.90
638.76	41507.06
638.91	41858.14
639.06	42094.53
639.20	41364.29
639.35	41869.84
639.50	41862.82
639.65	42068.79
639.80	41633.45
639.94	41483.66
640.09	41336.20
640.24	41490.68
640.39	41148.96
640.54	41406.42
640.68	41560.89
640.83	41453.23
640.98	41549.19
641.13	41191.09
641.27	41701.32
641.42	41116.19
641.57	41387.69
641.72	41270.67
641.86	41247.26
642.01	40942.99
642.16	41041.29
642.31	40924.27
642.45	41158.32
642.60	40343.81
642.75	40825.96
642.90	40903.20
643.04	41010.87
643.19	40720.64
643.34	41148.96
643.48	40774.47
643.63	40835.33
643.78	40992.14
643.93	40542.76
644.07	40428.07
644.22	40620.00
644.37	40238.49
644.51	40535.74
644.66	40732.34
644.81	40666.81
644.95	40856.39
645.10	40517.01
645.25	40746.39
645.39	40589.57
645.54	40594.25
645.69	40486.59
645.83	40891.50
645.98	40245.51
646.13	40694.89
646.27	40509.99
646.42	40179.98
646.57	40203.38
646.71	40407.01
646.86	40053.59
647.00	39849.96
647.15	40442.12
647.30	40355.52
647.44	40264.24
647.59	40002.10
647.74	40016.14
647.88	40107.42
648.03	40474.88
648.17	40055.93
648.32	39772.72
648.47	40088.70
648.61	40088.70
648.76	40460.84
648.90	39777.40
649.05	39913.16
649.20	39981.03
649.34	40048.91
649.49	39999.76
649.63	39707.19
649.78	39714.21
649.92	39608.89
650.07	39992.73
650.21	39508.24
650.36	39718.89
650.51	39861.66
650.65	39948.26
650.80	40058.27
650.94	40261.90
651.09	39763.36
651.23	39543.35
651.38	39648.68
651.52	39606.55
651.67	39480.16
651.81	39835.92
651.96	39110.35
652.10	38981.62
652.25	39199.29
652.39	39166.52
652.54	39658.04
652.68	39419.30
652.83	39892.09
652.97	39463.77
653.12	39606.55
653.26	39323.34
653.41	39498.88
653.55	39016.73
653.70	38990.98
653.84	39398.24
653.99	39463.77
654.13	38630.54
654.27	38808.42
654.42	38993.32
654.56	38888.00
654.71	38895.02
654.85	38712.46
655.00	38958.22
655.14	38618.84
655.29	38712.46
655.43	38653.95
655.57	38452.66
655.72	38227.97
655.86	37965.83
656.01	38068.81
656.15	37984.55
656.30	38209.25
656.44	38319.25
656.58	37984.55
656.73	37916.68
656.87	38230.31
657.01	37837.10
657.16	37909.66
657.30	37951.79
657.45	37708.37
657.59	37937.74
657.73	38061.79
657.88	37750.50
658.02	38132.01
658.16	38410.53
658.31	38398.83
658.45	38747.57
658.60	38108.60
658.74	37961.15
658.88	37823.06
659.03	37687.31
659.17	37645.18
659.31	38216.27
659.46	37581.98
659.60	37890.93
659.74	37291.76
659.89	37347.93
660.03	37401.76
660.17	37773.91
660.32	37151.32
660.46	37853.48
660.60	37511.77
660.74	37357.29
660.89	37577.30
661.03	37212.18
661.17	37081.11
661.32	36631.72
661.46	37085.79
661.60	36765.14
661.74	37294.10
661.89	37244.94
662.03	37062.38
662.17	36751.09
662.31	36755.77
662.46	37057.70
662.60	36865.78
662.74	36662.15
662.88	36519.38
663.03	36601.30
663.17	36608.32
663.31	36481.93
663.45	36708.96
663.60	36280.64
663.74	36318.09
663.88	36388.31
664.02	35756.36
664.17	36378.95
664.31	35882.75
664.45	36151.91
664.59	36119.15
664.73	36189.36
664.88	36215.11
665.02	35976.37
665.16	36360.22
665.30	36264.26
665.44	35866.37
665.59	36205.75
665.73	35285.92
665.87	35653.38
666.01	35147.82
666.15	35419.33
666.29	35594.87
666.44	35484.86
666.58	35463.80
666.72	35346.77
666.86	35651.04
667.00	35501.25
667.14	35208.68
667.28	35110.38
667.43	34932.50
667.57	35047.18
667.71	34735.89
667.85	34747.59
667.99	34689.08
668.13	34330.98
668.27	34558.01
668.41	34852.92
668.56	34328.64
668.70	34565.03
668.84	34501.84
668.98	34494.82
669.12	34541.63
669.26	34443.32
669.40	34333.32
669.54	34050.11
669.68	34291.19
669.82	34162.46
669.96	33998.62
670.10	33701.37
670.25	34017.35
670.39	33816.06
670.53	33926.07
670.67	33680.31
670.81	34284.17
670.95	33853.51
671.09	33855.85
671.23	33312.84
671.37	33511.79
671.51	33399.44
671.65	33486.04
671.79	33151.35
671.93	33336.25
672.07	33301.14
672.21	32964.10
672.35	33233.27
672.49	32891.55
672.63	33046.02
672.77	33006.23
672.91	32460.89
673.05	32629.41
673.19	32708.99
673.33	32940.70
673.47	32594.30
673.61	32404.72
673.75	32063.00
673.89	32025.55
674.03	32205.77
674.17	31784.48
674.31	31828.95
674.45	31763.41
674.59	32020.87
674.73	32163.64
674.87	31693.19
675.01	32020.87
675.15	32100.45
675.29	31758.73
675.43	32072.36
675.56	31585.53
675.70	31920.23
675.84	31185.30
675.98	30494.84
676.12	31131.47
676.26	31250.83
676.40	30696.13
676.54	31002.74
676.68	30864.64
676.82	30237.38
676.96	30391.86
677.10	30239.72
677.23	30473.78
677.37	30541.65
677.51	30213.98
677.65	30656.34
677.79	29883.96
677.93	29853.53
678.07	29666.29
678.21	29659.27
678.34	29490.75
678.48	29792.68
678.62	29383.09
678.76	29511.81
678.90	29268.40
679.04	29710.76
679.18	29490.75
679.31	28910.30
679.45	29359.68
679.59	28601.35
679.73	28959.45
679.87	28950.09
680.00	28849.44
680.14	28690.29
680.28	28533.47
680.42	28329.84
680.56	28128.56
680.70	28039.62
680.83	28194.09
680.97	27599.60
681.11	27948.34
681.25	27828.97
681.39	27562.15
681.52	27831.31
681.66	27555.13
681.80	27356.18
681.94	27569.17
682.07	27761.09
682.21	27433.42
682.35	26979.36
682.49	27131.49
682.62	27164.26
682.76	26948.93
682.90	26991.06
683.04	26874.03
683.17	26611.89
683.31	26558.06
683.45	26876.37
683.59	26604.87
683.72	26125.06
683.86	25731.85
684.00	26061.87
684.13	26209.32
684.27	26129.74
684.41	25998.67
684.55	25947.18
684.68	25493.12
684.82	25355.02
684.96	25481.41
685.09	25418.22
685.23	25326.94
685.37	25397.15
685.50	25329.28
685.64	25149.06
685.78	25043.73
685.91	25081.18
686.05	25046.07
686.19	24746.48
686.32	24999.26
686.46	24369.66
686.60	24292.42
686.73	23894.53
686.87	23924.96
687.01	23798.57
687.14	23896.87
687.28	23506.00
687.42	23920.28
687.55	23555.15
687.69	23278.97
687.82	23779.84
687.96	23456.85
688.10	23405.36
688.23	23616.01
688.37	23035.55
688.50	22995.76
688.64	23122.15
688.78	23227.48
688.91	22895.12
689.05	22764.05
689.18	23161.94
689.32	22354.46
689.46	22799.16
689.59	22773.41
689.73	22445.74
689.86	22345.09
690.00	22291.26
690.13	22403.61
690.27	22148.49
690.41	22038.48
690.54	21689.74
690.68	21783.37
690.81	21823.16
690.95	21671.02
691.08	21603.14
691.22	21612.51
691.35	21411.22
691.49	21558.67
691.62	21598.46
691.76	21163.12
691.89	21263.77
692.03	20966.52
692.16	21163.12
692.30	21137.38
692.43	21184.19
692.57	20624.80
692.70	20596.71
692.84	20676.29
692.97	20585.01
693.11	20418.83
693.24	20229.25
693.38	20135.63
693.51	19936.68
693.65	20357.98
693.78	20194.14
693.92	19644.12
694.05	19920.30
694.19	19934.34
694.32	19948.39
694.45	19868.81
694.59	19747.10
694.72	19737.74
694.86	19407.72
694.99	19051.96
695.13	19014.51
695.26	18913.87
695.39	18838.97
695.53	19288.35
695.66	18927.91
695.80	18860.04
695.93	18724.29
696.07	18717.26
696.20	18691.52
696.33	18616.62
696.47	18485.55
696.60	18494.91
696.73	18375.55
696.87	18167.24
697.00	18363.84
697.14	18281.92
697.27	18347.46
697.40	18162.56
697.54	17893.40
697.67	17745.94
697.80	17699.13
697.94	17575.08
698.07	17626.57
698.21	17446.35
698.34	17355.07
698.47	17530.61
698.61	17242.73
698.74	17142.08
698.87	17060.16
699.01	17092.93
699.14	16982.93
699.27	16589.72
699.40	16926.75
699.54	16786.32
699.67	16594.40
699.80	16381.41
699.94	16458.65
700.07	16587.38
700.20	16411.84
700.34	16402.47
700.47	16325.24
700.60	16233.96
700.73	16285.45
700.87	16283.11
701.00	15693.29
701.13	15971.82
701.26	15747.12
701.40	15836.06
701.53	15779.89
701.66	15545.84
701.79	15576.27
701.93	15529.45
702.06	15531.80
702.19	15372.64
702.32	15264.97
702.46	15040.28
702.59	15187.74
702.72	15400.72
702.85	15171.35
702.99	15213.48
703.12	15061.35
703.25	15028.58
703.38	15082.41
703.51	14974.75
703.65	14757.08
703.78	14717.29
703.91	14712.61
704.04	14494.94
704.17	14527.71
704.31	14490.26
704.44	14195.35
704.57	14155.56
704.70	14209.39
704.83	14148.54
704.96	14078.32
705.10	14094.71
705.23	14295.99
>>>>>End Processed Spectral Data<<<<<
