SpectraSuite Data File
++++++++++++++++++++++++++++++++++++
Date: Fri Oct 25 10:44:00 EDT 2013
User: price-jones
Dark Spectrum Present: No
Reference Spectrum Present: No
Number of Sampled Component Spectra: 1
Spectrometers: USB2+H05261
Integration Time (usec): 100000 (USB2+H05261)
Spectra Averaged: 1 (USB2+H05261)
Boxcar Smoothing: 0 (USB2+H05261)
Correct for Electrical Dark: No (USB2+H05261)
Strobe/Lamp Enabled: No (USB2+H05261)
Correct for Detector Non-linearity: No (USB2+H05261)
Correct for Stray Light: No (USB2+H05261)
Number of Pixels in Processed Spectrum: 2048
>>>>>Begin Processed Spectral Data<<<<<
365.73	161.50
365.92	161.50
366.12	161.50
366.32	11.70
366.52	105.32
366.72	58.51
366.91	56.17
367.11	0.00
367.31	42.13
367.51	60.85
367.70	16.38
367.90	9.36
368.10	21.06
368.30	9.36
368.49	56.17
368.69	88.94
368.89	37.45
369.09	63.19
369.28	51.49
369.48	18.72
369.68	112.35
369.87	114.69
370.07	88.94
370.27	117.03
370.47	205.97
370.66	449.38
370.86	451.72
371.06	486.83
371.25	409.59
371.45	491.51
371.65	433.00
371.84	451.72
372.04	456.40
372.24	486.83
372.44	491.51
372.63	533.64
372.83	540.66
373.03	472.79
373.22	559.39
373.42	517.26
373.62	568.75
373.81	552.37
374.01	557.05
374.21	610.88
374.40	589.82
374.60	580.45
374.79	627.26
374.99	524.28
375.19	631.94
375.38	657.69
375.58	599.18
375.78	678.76
375.97	601.52
376.17	706.84
376.37	664.71
376.56	627.26
376.76	669.39
376.95	653.01
377.15	650.67
377.35	669.39
377.54	645.99
377.74	704.50
377.93	669.39
378.13	720.88
378.33	643.65
378.52	706.84
378.72	671.73
378.91	620.24
379.11	575.77
379.31	737.27
379.50	603.86
379.70	727.91
379.89	720.88
380.09	683.44
380.28	650.67
380.48	725.57
380.68	676.41
380.87	641.31
381.07	706.84
381.26	716.20
381.46	711.52
381.65	760.67
381.85	648.33
382.04	716.20
382.24	695.14
382.43	770.04
382.63	678.76
382.83	730.25
383.02	791.10
383.22	763.01
383.41	720.88
383.61	795.78
383.80	826.21
384.00	674.07
384.19	683.44
384.39	781.74
384.58	760.67
384.78	746.63
384.97	765.36
385.17	802.80
385.36	725.57
385.56	833.23
385.75	835.57
385.95	784.08
386.14	919.83
386.34	866.00
386.53	812.17
386.72	854.30
386.92	924.51
387.11	880.04
387.31	868.34
387.50	842.59
387.70	870.68
387.89	830.89
388.09	915.15
388.28	901.11
388.48	961.96
388.67	980.68
388.86	1053.24
389.06	924.51
389.25	1006.43
389.45	990.05
389.64	943.24
389.84	997.07
390.03	1043.88
390.22	1020.47
390.42	1060.26
390.61	952.60
390.81	978.34
391.00	1020.47
391.19	1118.78
391.39	1123.46
391.58	1060.26
391.78	1032.18
391.97	1095.37
392.16	1062.60
392.36	1104.73
392.55	999.41
392.75	1027.50
392.94	1114.10
393.13	999.41
393.33	994.73
393.52	1025.15
393.71	1139.84
393.91	1165.59
394.10	1118.78
394.29	1221.76
394.49	1132.82
394.68	1301.34
394.88	1198.35
395.07	1291.98
395.26	1196.01
395.46	1249.85
395.65	1263.89
395.84	1242.82
396.04	1315.38
396.23	1174.95
396.42	1170.27
396.62	1219.42
396.81	1121.12
397.00	1191.33
397.19	1214.74
397.39	1226.44
397.58	1385.60
397.77	1390.28
397.97	1275.59
398.16	1476.88
398.35	1462.83
398.55	1519.01
398.74	1497.94
398.93	1591.56
399.12	1434.75
399.32	1516.67
399.51	1519.01
399.70	1584.54
399.90	1626.67
400.09	1692.21
400.28	1586.88
400.47	1678.16
400.67	1816.26
400.86	1708.59
401.05	1748.38
401.24	1760.08
401.44	1741.36
401.63	1727.32
401.82	1774.13
402.01	1724.97
402.21	1825.62
402.40	1743.70
402.59	1722.63
402.78	1762.42
402.97	1797.53
403.17	1762.42
403.36	1865.41
403.55	1905.20
403.74	1881.79
403.93	1853.70
404.13	1851.36
404.32	1949.67
404.51	1966.05
404.70	1914.56
404.89	1968.39
405.09	2118.18
405.28	2010.52
405.47	1961.37
405.66	1954.35
405.85	1895.83
406.05	1996.48
406.24	1998.82
406.43	2127.55
406.62	2033.93
406.81	2045.63
407.00	2099.46
407.20	2076.06
407.39	2040.95
407.58	2134.57
407.77	2258.62
407.96	2195.42
408.15	2228.19
408.34	2249.25
408.54	2321.81
408.73	2260.96
408.92	2303.09
409.11	2399.05
409.30	2303.09
409.49	2242.23
409.68	2265.64
409.87	2204.78
410.07	2284.36
410.26	2408.41
410.45	2450.54
410.64	2509.05
410.83	2487.99
411.02	2574.59
411.21	2689.28
411.40	2640.12
411.59	2740.77
411.78	2565.23
411.98	2705.66
412.17	2656.51
412.36	2736.09
412.55	2712.68
412.74	2693.96
412.93	2715.02
413.12	2717.36
413.31	2895.24
413.50	2876.52
413.69	2890.56
413.88	2871.84
414.07	2995.89
414.26	2991.20
414.45	2988.86
414.64	3021.63
414.83	3187.81
415.02	3101.21
415.22	2984.18
415.41	3126.96
415.60	3199.51
415.79	3272.07
415.98	3325.90
416.17	3365.69
416.36	3246.32
416.55	3260.37
416.74	3187.81
416.93	3248.66
417.12	3330.58
417.31	3215.90
417.50	3421.86
417.69	3585.70
417.88	3435.91
418.07	3487.40
418.26	3421.86
418.45	3592.72
418.64	3726.13
418.83	3712.09
419.02	3623.15
419.21	3728.47
419.39	3581.02
419.58	3662.94
419.77	3620.81
419.96	3590.38
420.15	3730.81
420.34	3726.13
420.53	3847.84
420.72	3852.52
420.91	3861.88
421.10	3950.82
421.29	3901.67
421.48	3758.90
421.67	3847.84
421.86	3854.86
422.05	3843.16
422.24	3782.31
422.43	3845.50
422.61	3906.35
422.80	3925.08
422.99	4079.55
423.18	3840.82
423.37	3920.40
423.56	4074.87
423.75	3906.35
423.94	3866.56
424.13	3798.69
424.32	3810.39
424.50	3948.48
424.69	4182.54
424.88	4227.01
425.07	4018.70
425.26	3927.42
425.45	3904.01
425.64	3999.98
425.83	4049.13
426.01	4051.47
426.20	4063.17
426.39	4114.66
426.58	3999.98
426.77	4014.02
426.96	4138.07
427.15	4058.49
427.33	4168.49
427.52	4133.39
427.71	4196.58
427.90	4198.92
428.09	4306.59
428.28	4159.13
428.46	4170.83
428.65	4231.69
428.84	4280.84
429.03	4505.53
429.22	4063.17
429.40	4152.11
429.59	4156.79
429.78	4133.39
429.97	3901.67
430.16	4077.21
430.34	4133.39
430.53	4184.88
430.72	4245.73
430.91	4238.71
431.10	4491.49
431.28	4610.86
431.47	4620.22
431.66	4554.68
431.85	4624.90
432.03	4634.26
432.22	4660.01
432.41	4557.02
432.60	4610.86
432.79	4781.71
432.97	4821.50
433.16	4767.67
433.35	4643.62
433.54	4645.96
433.72	4533.62
433.91	4596.81
434.10	4840.23
434.28	4844.91
434.47	4957.25
434.66	4910.44
434.85	4924.49
435.03	4926.83
435.22	4980.66
435.41	5235.78
435.59	5137.48
435.78	5177.26
435.97	5071.94
436.16	5207.69
436.34	5163.22
436.53	5123.43
436.72	5252.16
436.90	5107.05
437.09	5303.65
437.28	5313.02
437.46	5233.44
437.65	5181.95
437.84	5254.50
438.02	5348.12
438.21	5256.84
438.40	5214.71
438.58	5294.29
438.77	5420.68
438.96	5518.98
439.14	5734.31
439.33	5692.18
439.52	5647.71
439.70	5823.25
439.89	5664.10
440.08	5846.66
440.26	5858.36
440.45	5860.70
440.63	6022.20
440.82	5977.73
441.01	5940.28
441.19	6078.37
441.38	6136.88
441.57	6216.46
441.75	6230.51
441.94	6272.64
442.12	6448.18
442.31	6300.72
442.50	6314.77
442.68	6361.58
442.87	6384.98
443.05	6377.96
443.24	6551.16
443.43	6558.18
443.61	6616.69
443.80	6672.87
443.98	6539.46
444.17	6265.61
444.35	6490.31
444.54	6635.42
444.73	6597.97
444.91	6537.12
445.10	6588.61
445.28	6473.92
445.47	6466.90
445.65	6490.31
445.84	6635.42
446.02	6567.54
446.21	6729.04
446.39	6583.93
446.58	6799.26
446.77	6707.98
446.95	6614.35
447.14	6707.98
447.32	6857.77
447.51	6696.27
447.69	6768.83
447.88	6808.62
448.06	6775.85
448.25	6843.73
448.43	6930.33
448.62	6740.74
448.80	6846.07
448.99	6862.45
449.17	6993.52
449.36	7054.37
449.54	7103.53
449.73	7070.76
449.91	7016.93
450.10	7297.79
450.28	7311.83
450.46	7148.00
450.65	7332.90
450.83	7276.73
451.02	7220.55
451.20	7529.50
451.39	7260.34
451.57	7293.11
451.76	7201.83
451.94	7187.79
452.13	7321.20
452.31	7447.58
452.49	7131.61
452.68	7110.55
452.86	7335.24
453.05	7496.74
453.23	7459.29
453.42	7311.83
453.60	7330.56
453.78	7700.36
453.97	7426.52
454.15	7503.76
454.34	7492.05
454.52	7562.27
454.70	7644.19
454.89	7728.45
455.07	7522.48
455.26	7630.15
455.44	7824.41
455.62	7707.38
455.81	7976.55
455.99	7974.21
456.17	7901.65
456.36	8025.70
456.54	7971.86
456.73	8278.47
456.91	8238.69
457.09	8400.18
457.28	8421.25
457.46	8212.94
457.64	8276.13
457.83	8084.21
458.01	8131.02
458.19	8549.98
458.38	8187.19
458.56	8360.39
458.74	8376.78
458.93	8444.65
459.11	8416.57
459.29	8287.84
459.48	8451.67
459.66	8662.32
459.84	8601.47
460.03	8690.41
460.21	8711.47
460.39	8599.13
460.57	8648.28
460.76	8716.16
460.94	8531.25
461.12	8795.73
461.31	8681.05
461.49	8809.78
461.67	8669.34
461.85	8987.66
462.04	9020.42
462.22	8985.32
462.40	9043.83
462.59	9013.40
462.77	8865.95
462.95	8987.66
463.13	8905.74
463.32	9095.32
463.50	9128.09
463.68	9074.26
463.86	9142.13
464.05	9029.79
464.23	9064.89
464.41	9137.45
464.59	8987.66
464.78	9366.82
464.96	9430.02
465.14	9123.41
465.32	9446.40
465.50	9376.19
465.69	9392.57
465.87	9329.38
466.05	9212.35
466.23	9287.25
466.41	9385.55
466.60	9418.32
466.78	9174.90
466.96	9425.34
467.14	9486.19
467.32	9324.69
467.51	9542.36
467.69	9343.42
467.87	9619.60
468.05	9820.89
468.23	9652.37
468.41	9401.93
468.60	9591.52
468.78	9645.35
468.96	9563.43
469.14	9870.04
469.32	9954.30
469.50	9610.24
469.69	9963.66
469.87	9998.77
470.05	9947.28
470.23	9895.78
470.41	10050.26
470.59	10225.80
470.77	9923.87
470.95	10057.28
471.14	10120.48
471.32	10019.83
471.50	10361.55
471.68	10497.30
471.86	10555.82
472.04	10340.49
472.22	10602.63
472.40	10490.28
472.58	10621.35
472.77	10909.24
472.95	10775.83
473.13	10956.05
473.31	10551.14
473.49	10874.13
473.67	10803.91
473.85	11049.67
474.03	11105.84
474.21	11131.59
474.39	11047.33
474.57	11239.25
474.75	11185.42
474.93	11541.18
475.12	11524.80
475.30	11487.35
475.48	11393.73
475.66	11571.61
475.84	11534.16
476.02	11459.26
476.20	11365.64
476.38	11756.51
476.56	11974.18
476.74	11885.24
476.92	11934.39
477.10	12147.38
477.28	12269.09
477.46	12184.83
477.64	12423.56
477.82	12407.18
478.00	12865.92
478.18	12695.07
478.36	12863.58
478.54	12868.27
478.72	12919.76
478.90	13149.13
479.08	13467.44
479.26	13081.25
479.44	13334.03
479.62	13664.05
479.80	13617.24
479.98	13582.13
480.16	13909.80
480.34	13715.54
480.52	14001.08
480.70	13809.16
480.88	13813.84
481.06	14068.96
481.24	14146.20
481.41	14586.22
481.59	14806.23
481.77	14621.33
481.95	14424.72
482.13	14799.21
482.31	14698.56
482.49	15049.64
482.67	15094.11
482.85	15117.52
483.03	15578.61
483.21	15559.88
483.39	15524.77
483.57	15592.65
483.74	15744.78
483.92	15737.76
484.10	15880.53
484.28	15995.22
484.46	16386.09
484.64	16697.38
484.82	16119.27
485.00	16259.70
485.18	16741.85
485.35	16690.36
485.53	16238.64
485.71	16451.63
485.89	16430.56
486.07	16819.09
486.25	16879.94
486.43	17334.01
486.61	17509.55
486.78	17645.30
486.96	17797.43
487.14	18059.57
487.32	18061.91
487.50	17965.95
487.68	18445.76
487.85	18609.60
488.03	18595.56
488.21	19002.81
488.39	18764.07
488.57	18864.72
488.75	19208.78
488.92	19269.63
489.10	19618.37
489.28	19899.23
489.46	19910.94
489.64	19803.27
489.81	20491.39
489.99	20842.47
490.17	20414.15
490.35	20723.10
490.53	20477.35
490.70	20903.32
490.88	20449.26
491.06	21245.04
491.24	20828.43
491.41	20968.86
491.59	21125.68
491.77	21013.33
491.95	21357.39
492.13	21479.10
492.30	21549.31
492.48	22176.58
492.66	22164.87
492.84	22050.19
493.01	22427.01
493.19	22389.56
493.37	22705.54
493.54	22469.14
493.72	22991.08
493.90	22979.38
494.08	23161.94
494.25	23431.10
494.43	23473.23
494.61	23536.43
494.79	23702.61
494.96	23665.16
495.14	23646.43
495.32	23955.38
495.49	24121.56
495.67	24407.11
495.85	24456.26
496.02	24971.18
496.20	24470.30
496.38	24905.64
496.55	25020.33
496.73	25565.67
496.91	25158.42
497.09	25432.26
497.26	25560.99
497.44	25474.39
497.62	25743.55
497.79	25748.23
497.97	25263.74
498.14	25965.90
498.32	26239.75
498.50	26029.10
498.67	26396.56
498.85	26548.70
499.03	26478.48
499.20	26581.46
499.38	26710.19
499.56	27000.42
499.73	26691.47
499.91	26546.36
500.08	26951.27
500.26	26927.86
500.44	26993.40
500.61	26981.70
500.79	26834.24
500.97	27269.58
501.14	27388.95
501.32	27943.66
501.49	27388.95
501.67	27475.55
501.84	27807.90
502.02	27957.70
502.20	28191.75
502.37	28573.26
502.55	28196.43
502.72	28662.20
502.90	28542.83
503.07	28411.76
503.25	28723.05
503.43	28304.10
503.60	28350.91
503.78	28629.43
503.95	28493.68
504.13	28444.53
504.30	29333.93
504.48	28985.19
504.65	29259.04
504.83	29387.77
505.01	29378.40
505.18	29469.69
505.36	29851.19
505.53	29699.06
505.71	30183.55
505.88	30235.04
506.06	30000.99
506.23	30555.69
506.41	29766.93
506.58	30026.73
506.76	30225.68
506.93	30572.08
507.11	30773.36
507.28	30424.62
507.46	30639.95
507.63	30785.07
507.81	30576.76
507.98	30658.68
508.16	30677.40
508.33	31175.94
508.50	31402.97
508.68	31157.21
508.85	31463.82
509.03	31625.32
509.20	31761.07
509.38	31372.54
509.55	31711.92
509.73	31868.73
509.90	31723.62
510.08	31599.57
510.25	31704.90
510.42	31765.75
510.60	32201.09
510.77	32081.72
510.95	32329.82
511.12	32285.35
511.30	32449.19
511.47	32783.88
511.64	32776.86
511.82	32842.40
511.99	32713.67
512.17	32938.36
512.34	32414.08
512.51	32634.09
512.69	33111.56
512.86	33373.70
513.04	33298.80
513.21	32999.21
513.38	33172.41
513.56	33195.82
513.73	33383.06
513.90	33422.85
514.08	33511.79
514.25	33553.92
514.43	33457.96
514.60	33710.74
514.77	34012.66
514.95	34040.75
515.12	33972.88
515.29	34192.89
515.47	34518.22
515.64	34520.56
515.81	34047.77
515.99	34291.19
516.16	34092.24
516.33	34260.76
516.51	34134.37
516.68	33535.20
516.85	33553.92
517.03	33872.23
517.20	34359.06
517.37	34646.95
517.54	34895.05
517.72	34785.04
517.89	34583.76
518.06	34433.96
518.24	34696.10
518.41	34429.28
518.58	35328.05
518.75	34986.33
518.93	35037.82
519.10	34829.51
519.27	35667.42
519.45	35679.13
519.62	35838.28
519.79	35793.81
519.96	35758.70
520.14	35915.52
520.31	35735.30
520.48	35585.50
520.65	35782.11
520.83	36430.44
521.00	36444.48
521.17	36411.71
521.34	36762.79
521.52	36669.17
521.69	36723.01
521.86	36570.87
522.03	36613.00
522.20	36388.31
522.38	37053.02
522.55	36863.44
522.72	36697.26
522.89	36664.49
523.07	36870.46
523.24	37069.40
523.41	37268.35
523.58	37137.28
523.75	37996.26
523.92	37434.53
524.10	37633.47
524.27	37706.03
524.44	37890.93
524.61	37820.72
524.78	37862.85
524.96	37724.75
525.13	38246.69
525.30	38293.50
525.47	38073.49
525.64	38188.18
525.81	38087.54
525.98	37556.24
526.16	37731.78
526.33	37521.13
526.50	38057.11
526.67	37230.90
526.84	37591.34
527.01	37951.79
527.18	38511.17
527.36	38387.13
527.53	38646.93
527.70	39276.53
527.87	38820.13
528.04	38827.15
528.21	39000.35
528.38	39105.67
528.55	39335.04
528.72	39077.58
528.89	39704.85
529.07	39133.76
529.24	38878.64
529.41	39185.25
529.58	39512.92
529.75	39449.73
529.92	39812.51
530.09	39821.87
530.26	39470.79
530.43	39856.98
530.60	39388.88
530.77	39557.39
530.94	40259.55
531.11	39749.32
531.28	39611.23
531.46	40121.46
531.63	39861.66
531.80	40322.75
531.97	39966.99
532.14	39529.31
532.31	39728.25
532.48	40102.74
532.65	40512.33
532.82	39768.04
532.99	40399.99
533.16	40364.88
533.33	40664.47
533.50	40378.92
533.67	40453.82
533.84	40545.10
534.01	40362.54
534.18	40549.78
534.35	40837.67
534.52	40275.94
534.69	41118.53
534.86	40769.79
535.03	40863.41
535.20	41273.01
535.37	41628.77
535.54	41221.52
535.71	41102.15
535.88	41418.12
536.05	41125.55
536.22	40795.54
536.38	40992.14
536.55	41242.58
536.72	41214.49
536.89	41247.26
537.06	41663.88
537.23	41509.40
537.40	41497.70
537.57	41579.62
537.74	41289.39
537.91	41851.12
538.08	41722.39
538.25	41537.49
538.42	41727.07
538.59	42047.72
538.75	41759.84
538.92	41970.49
539.09	41703.67
539.26	41986.87
539.43	41691.96
539.60	41918.99
539.77	42115.60
539.94	42256.03
540.11	41834.74
540.28	41504.72
540.44	41944.74
540.61	42029.00
540.78	42176.45
540.95	42094.53
541.12	41968.15
541.29	42134.32
541.46	42141.35
541.62	42349.65
541.79	42822.44
541.96	41766.86
542.13	42469.02
542.30	42628.18
542.47	42618.81
542.63	42567.32
542.80	42480.72
542.97	42876.27
543.14	43328.00
543.31	43084.58
543.48	43030.75
543.64	43253.10
543.81	43026.07
543.98	43288.21
544.15	43110.33
544.32	43466.09
544.48	43913.13
544.65	43285.87
544.82	43342.04
544.99	43440.34
545.16	43412.26
545.32	43112.67
545.49	43569.07
545.66	43629.93
545.83	43650.99
546.00	43681.42
546.16	43941.22
546.33	43540.99
546.50	43117.35
546.67	43653.33
546.83	43634.61
547.00	43819.51
547.17	43697.80
547.34	43800.79
547.50	43653.33
547.67	43948.24
547.84	44231.44
548.00	44369.54
548.17	44198.68
548.34	44268.89
548.51	44378.90
548.67	44198.68
548.84	44126.12
549.01	44177.61
549.18	43786.74
549.34	44179.95
549.51	44610.61
549.68	44425.71
549.84	44421.03
550.01	44179.95
550.18	44194.00
550.34	44397.62
550.51	44362.51
550.68	44687.85
550.84	44311.02
551.01	44524.01
551.18	44456.14
551.34	44673.81
551.51	44493.58
551.68	44678.49
551.84	44727.64
552.01	44554.44
552.18	44666.78
552.34	44594.23
552.51	44949.99
552.68	45282.34
552.84	45034.25
553.01	44542.74
553.18	45153.62
553.34	44760.40
553.51	44758.06
553.67	44715.93
553.84	45455.54
554.01	45514.06
554.17	45223.83
554.34	45408.73
554.51	45235.53
554.67	45490.65
554.84	45413.41
555.00	45350.22
555.17	44821.26
555.33	45240.21
555.50	45200.43
555.67	45148.93
555.83	44952.33
556.00	45165.32
556.16	45167.66
556.33	45062.33
556.50	45244.90
556.66	45504.70
556.83	44964.03
556.99	45507.04
557.16	45743.43
557.32	45811.31
557.49	45858.12
557.65	45134.89
557.82	45200.43
557.98	45825.35
558.15	45457.88
558.32	46087.49
558.48	45535.12
558.65	45434.48
558.81	45200.43
558.98	45467.25
559.14	45516.40
559.31	45532.78
559.47	45748.11
559.64	45443.84
559.80	45013.18
559.97	45965.78
560.13	45291.71
560.30	45535.12
560.46	45607.68
560.63	45762.15
560.79	46153.02
560.96	46225.58
561.12	45989.19
561.29	45757.47
561.45	45731.73
561.61	45900.25
561.78	46043.02
561.94	45801.94
562.11	45584.27
562.27	45738.75
562.44	45881.52
562.60	46370.69
562.77	46108.55
562.93	45528.10
563.10	46234.94
563.26	45731.73
563.42	46480.70
563.59	46099.19
563.75	45457.88
563.92	46227.92
564.08	46120.26
564.24	46155.36
564.41	45928.33
564.57	45949.40
564.74	45970.46
564.90	46169.41
565.07	46003.23
565.23	46000.89
565.39	46047.70
565.56	46183.45
565.72	45404.05
565.88	45815.99
566.05	46094.51
566.21	45958.76
566.38	46281.75
566.54	46328.56
566.70	46705.39
566.87	46492.40
567.03	46113.23
567.19	46735.82
567.36	46197.49
567.52	45961.10
567.68	46548.57
567.85	46410.48
568.01	46639.86
568.17	46045.36
568.34	46501.76
568.50	46199.83
568.66	46253.67
568.83	46405.80
568.99	46005.57
569.15	46148.34
569.32	46082.81
569.48	46199.83
569.64	46003.23
569.81	46539.21
569.97	46438.57
570.13	46270.05
570.30	45893.22
570.46	46167.07
570.62	46000.89
570.78	46199.83
570.95	45787.90
571.11	46593.04
571.27	46181.11
571.43	46295.80
571.60	46267.71
571.76	46183.45
571.92	45991.53
572.09	46232.60
572.25	46382.40
572.41	46370.69
572.57	46382.40
572.74	46658.58
572.90	46567.30
573.06	46583.68
573.22	46419.84
573.38	46366.01
573.55	46246.65
573.71	46490.06
573.87	46562.62
574.03	46122.60
574.20	46721.77
574.36	46192.81
574.52	46529.85
574.68	46628.15
574.84	46567.30
575.01	46340.27
575.17	46499.42
575.33	46305.16
575.49	46288.77
575.65	46550.91
575.82	46667.94
575.98	45848.75
576.14	46696.03
576.30	46574.32
576.46	46721.77
576.62	46424.53
576.79	46426.87
576.95	46075.79
577.11	46777.95
577.27	46714.75
577.43	46719.43
577.59	46050.04
577.75	46380.06
577.92	46307.50
578.08	46138.98
578.24	46195.15
578.40	46094.51
578.56	46415.16
578.72	46059.40
578.88	46632.83
579.04	46759.22
579.21	46293.46
579.37	46216.22
579.53	46457.29
579.69	46412.82
579.85	46445.59
580.01	46642.20
580.17	46492.40
580.33	46323.88
580.49	46780.29
580.65	46447.93
580.82	46302.82
580.98	46403.46
581.14	46480.70
581.30	46775.61
581.46	46660.92
581.62	46700.71
581.78	46501.76
581.94	46775.61
582.10	46328.56
582.26	46976.89
582.42	46532.19
582.58	46873.91
582.74	46251.33
582.90	46459.63
583.06	46660.92
583.22	46761.56
583.38	46974.55
583.54	46557.94
583.70	46602.41
583.86	46747.52
584.02	46429.21
584.18	46543.89
584.34	46454.95
584.50	46674.96
584.66	46267.71
584.82	46635.17
584.98	46651.56
585.14	46946.47
585.30	46543.89
585.46	46155.36
585.62	46499.42
585.78	46712.41
585.94	45965.78
586.10	46438.57
586.26	46560.28
586.42	46637.51
586.58	46628.15
586.74	46724.11
586.90	46396.44
587.06	46609.43
587.22	46555.60
587.38	46618.79
587.54	46923.06
587.70	46450.27
587.86	46789.65
588.02	46759.22
588.18	46621.13
588.34	46174.09
588.49	46394.10
588.65	45841.73
588.81	45940.04
588.97	46237.28
589.13	46000.89
589.29	46658.58
589.45	46522.83
589.61	46419.84
589.77	46871.57
589.93	46272.39
590.08	47000.30
590.24	46405.80
590.40	47363.08
590.56	47061.15
590.72	46663.26
590.88	46539.21
591.04	47014.34
591.20	47262.44
591.35	46883.27
591.51	47278.82
591.67	46937.10
591.83	46115.58
591.99	46199.83
592.15	46674.96
592.31	46759.22
592.46	46845.82
592.62	46567.30
592.78	46871.57
592.94	47044.77
593.10	46909.02
593.26	46862.21
593.41	46876.25
593.57	46583.68
593.73	46457.29
593.89	46923.06
594.05	46656.24
594.20	46672.62
594.36	46902.00
594.52	46054.72
594.68	46911.36
594.84	46672.62
594.99	47096.26
595.15	46658.58
595.31	46632.83
595.47	46681.98
595.62	46368.35
595.78	46770.93
595.94	47007.32
596.10	46930.08
596.25	47002.64
596.41	46817.74
596.57	46616.45
596.73	47070.51
596.88	46635.17
597.04	46461.97
597.20	46810.71
597.36	47014.34
597.51	47320.95
597.67	46703.05
597.83	47075.19
597.99	47278.82
598.14	46909.02
598.30	46911.36
598.46	46829.44
598.61	46773.27
598.77	46506.44
598.93	46265.37
599.09	46658.58
599.24	47484.79
599.40	46834.12
599.56	46831.78
599.71	46553.26
599.87	47182.86
600.03	46644.54
600.18	46824.76
600.34	46927.74
600.50	46885.61
600.65	46637.51
600.81	47091.58
600.97	46674.96
601.12	46815.40
601.28	46841.14
601.44	46960.51
601.59	46658.58
601.75	46417.50
601.91	46759.22
602.06	46527.51
602.22	46557.94
602.37	46272.39
602.53	46806.03
602.69	47374.78
602.84	46665.60
603.00	46763.90
603.16	46784.97
603.31	46059.40
603.47	46834.12
603.62	46766.24
603.78	47042.43
603.94	46822.42
604.09	47187.54
604.25	46878.59
604.40	46808.37
604.56	46988.60
604.71	47004.98
604.87	46894.97
605.03	46412.82
605.18	46866.89
605.34	46314.52
605.49	46485.38
605.65	46932.42
605.80	46609.43
605.96	46665.60
606.12	46845.82
606.27	47402.87
606.43	46469.00
606.58	46738.16
606.74	46527.51
606.89	46408.14
607.05	46630.49
607.20	46831.78
607.36	46808.37
607.51	46990.94
607.67	46211.54
607.82	46550.91
607.98	46714.75
608.13	46209.20
608.29	46611.77
608.44	46073.45
608.60	46171.75
608.75	46148.34
608.91	46461.97
609.06	46061.74
609.22	46497.08
609.37	46391.76
609.53	46326.22
609.68	46794.33
609.84	45801.94
609.99	46036.00
610.15	45991.53
610.30	46061.74
610.46	45418.10
610.61	45961.10
610.76	46171.75
610.92	46447.93
611.07	45970.46
611.23	46419.84
611.38	45745.77
611.54	46061.74
611.69	45715.34
611.84	45844.07
612.00	45572.57
612.15	45839.39
612.31	46075.79
612.46	45610.02
612.62	46096.85
612.77	45734.07
612.92	45961.10
613.08	45521.08
613.23	45502.35
613.39	45595.98
613.54	45275.32
613.69	45436.82
613.85	45558.53
614.00	46153.02
614.15	46101.53
614.31	45687.26
614.46	45766.84
614.62	45633.42
614.77	45893.22
614.92	45832.37
615.08	45528.10
615.23	45507.04
615.38	45036.59
615.54	45572.57
615.69	45610.02
615.84	45329.16
616.00	45635.77
616.15	45364.26
616.30	45439.16
616.46	45212.13
616.61	45455.54
616.76	44891.48
616.92	45006.16
617.07	45134.89
617.22	45507.04
617.37	44926.58
617.53	45256.60
617.68	45397.03
617.83	45291.71
617.99	45340.86
618.14	44861.05
618.29	44996.80
618.45	44760.40
618.60	44580.18
618.75	44346.13
618.90	44837.64
619.06	44594.23
619.21	45113.83
619.36	45310.43
619.51	44889.13
619.67	44851.69
619.82	44973.39
619.97	45277.66
620.12	44222.08
620.28	44329.75
620.43	44320.38
620.58	44751.04
620.73	44809.56
620.89	44566.14
621.04	44839.98
621.19	44559.12
621.34	44861.05
621.49	44519.33
621.65	44196.34
621.80	44896.16
621.95	44559.12
622.10	44570.82
622.25	43906.11
622.41	44142.50
622.56	43756.32
622.71	44385.92
622.86	44634.02
623.01	44306.34
623.16	44414.01
623.32	44074.63
623.47	44147.18
623.62	44299.32
623.77	43655.67
623.92	43964.62
624.07	43901.43
624.23	43629.93
624.38	43590.14
624.53	43693.12
624.68	43859.30
624.83	43817.17
624.98	43784.40
625.13	43531.62
625.29	43861.64
625.44	43761.00
625.59	43257.78
625.74	43281.19
625.89	43285.87
626.04	43580.78
626.19	43349.06
626.34	43540.99
626.49	43962.28
626.65	43405.23
626.80	43999.73
626.95	43349.06
627.10	43683.76
627.25	43337.36
627.40	43136.07
627.55	42864.57
627.70	42775.63
627.85	42857.55
628.00	42827.12
628.15	42997.98
628.30	43016.71
628.45	43051.81
628.60	43597.16
628.76	43021.39
628.91	43222.67
629.06	42740.52
629.21	42543.92
629.36	42579.03
629.51	42499.45
629.66	42855.21
629.81	43098.62
629.96	42761.59
630.11	42834.14
630.26	43136.07
630.41	43002.66
630.56	42665.63
630.71	42579.03
630.86	42527.53
631.01	42265.39
631.16	42560.30
631.31	41766.86
631.46	42066.45
631.61	42230.29
631.76	42398.80
631.91	42337.95
632.06	42607.11
632.21	42518.17
632.36	42754.57
632.51	42305.18
632.66	42286.46
632.81	41956.44
632.96	42277.10
633.10	42113.26
633.25	42328.59
633.40	42391.78
633.55	42333.27
633.70	42342.63
633.85	42293.48
634.00	42127.30
634.15	42487.74
634.30	42115.60
634.45	42096.88
634.60	42328.59
634.75	42270.08
634.90	41933.04
635.05	41703.67
635.19	42227.95
635.34	42108.58
635.49	41972.83
635.64	41607.70
635.79	41783.24
635.94	41551.53
636.09	41848.78
636.24	41546.85
636.39	41603.02
636.53	41682.60
636.68	41701.32
636.83	41654.51
636.98	41958.78
637.13	41581.96
637.28	41600.68
637.43	41303.43
637.57	41694.30
637.72	41212.15
637.87	41427.48
638.02	41516.42
638.17	41088.10
638.32	41680.26
638.46	41439.18
638.61	41214.49
638.76	41469.61
638.91	41380.67
639.06	41167.68
639.20	41345.56
639.35	41572.60
639.50	41448.55
639.65	41340.88
639.80	41500.04
639.94	41024.91
640.09	40959.38
640.24	40865.75
640.39	40596.59
640.54	40334.45
640.68	40905.54
640.83	40711.28
640.98	41191.09
641.13	40678.51
641.27	40999.16
641.42	40968.74
641.57	40868.09
641.72	40872.78
641.86	40657.45
642.01	40114.44
642.16	40392.97
642.31	39941.24
642.45	40577.87
642.60	40610.64
642.75	40697.24
642.90	40699.58
643.04	40847.03
643.19	40243.17
643.34	40376.58
643.48	40062.95
643.63	40383.60
643.78	40100.40
643.93	39800.81
644.07	40224.45
644.22	40062.95
644.37	40165.93
644.51	40280.62
644.66	40233.81
644.81	39959.97
644.95	40285.30
645.10	40547.44
645.25	40163.59
645.39	40109.76
645.54	40098.06
645.69	39964.65
645.83	40126.14
645.98	39978.69
646.13	39524.63
646.27	40051.25
646.42	39974.01
646.57	39814.85
646.71	39187.59
646.86	39763.36
647.00	39796.13
647.15	39655.70
647.30	39777.40
647.44	39168.87
647.59	39510.58
647.74	39526.97
647.88	39693.15
648.03	39555.05
648.17	39700.17
648.32	39269.51
648.47	39824.22
648.61	39161.84
648.76	39498.88
648.90	39655.70
649.05	39239.08
649.20	39213.34
649.34	39608.89
649.49	38995.67
649.63	39267.17
649.78	39384.19
649.92	39173.55
650.07	40023.16
650.21	39063.54
650.36	39321.00
650.51	38972.26
650.65	39690.80
650.80	39344.41
650.94	39629.95
651.09	39342.06
651.23	38859.91
651.38	38838.85
651.52	38595.43
651.67	38878.64
651.81	38848.21
651.96	38827.15
652.10	38724.16
652.25	38965.24
652.39	39117.37
652.54	38567.35
652.68	38873.96
652.83	38766.29
652.97	39075.24
653.12	39075.24
653.26	38511.17
653.41	38211.59
653.55	38265.42
653.70	38375.42
653.84	38675.01
653.99	38469.04
654.13	38134.35
654.27	38139.03
654.42	38457.34
654.56	38644.59
654.71	38092.22
654.85	38033.71
655.00	38073.49
655.14	37975.19
655.29	38153.07
655.43	37904.98
655.57	37544.53
655.72	37743.48
655.86	37532.83
656.01	37797.31
656.15	37780.93
656.30	37811.35
656.44	37832.42
656.58	37607.73
656.73	37694.33
656.87	37579.64
657.01	36985.15
657.16	37921.36
657.30	37809.01
657.45	37111.53
657.59	37811.35
657.73	37268.35
657.88	38263.08
658.02	37670.92
658.16	38007.96
658.31	38117.96
658.45	37738.80
658.60	37509.43
658.74	37684.97
658.88	37177.07
659.03	37036.64
659.17	37223.88
659.31	37354.95
659.46	37134.94
659.60	37181.75
659.74	37413.46
659.89	37053.02
660.03	37053.02
660.17	37170.05
660.32	36957.06
660.46	37556.24
660.60	36903.23
660.74	37090.47
660.89	36863.44
661.03	36425.76
661.17	36486.61
661.32	36765.14
661.46	36664.49
661.60	36584.91
661.74	36444.48
661.89	36603.64
662.03	36685.56
662.17	36463.21
662.31	36409.37
662.46	36854.08
662.60	36617.68
662.74	36304.05
662.88	36400.01
663.03	35782.11
663.17	36030.21
663.31	35880.41
663.45	36257.24
663.60	35819.56
663.74	35896.80
663.88	35328.05
664.02	35592.53
664.17	36065.31
664.31	35601.89
664.45	35438.05
664.59	35716.58
664.73	35662.74
664.88	35625.29
665.02	35419.33
665.16	35358.47
665.30	35222.72
665.44	35278.89
665.59	34834.19
665.73	34883.34
665.87	35091.65
666.01	35014.41
666.15	35061.22
666.29	35566.78
666.44	35058.88
666.58	35367.84
666.72	35028.46
666.86	34450.35
667.00	35070.59
667.14	34342.68
667.28	34499.50
667.43	34969.94
667.57	34394.17
667.71	34719.51
667.85	34653.97
667.99	34520.56
668.13	34356.72
668.27	34464.39
668.41	34396.51
668.56	33972.88
668.70	34288.85
668.84	34195.23
668.98	33603.07
669.12	33968.19
669.26	33621.80
669.40	33951.81
669.54	33900.32
669.68	33523.49
669.82	33577.33
669.96	33411.15
670.10	33177.09
670.25	33347.95
670.39	33446.26
670.53	33340.93
670.67	33345.61
670.81	33708.40
670.95	33205.18
671.09	33123.26
671.23	32938.36
671.37	33254.33
671.51	32617.71
671.65	32446.85
671.79	32727.71
671.93	32936.02
672.07	32692.60
672.21	32685.58
672.35	32790.91
672.49	33064.75
672.63	32868.14
672.77	32594.30
672.91	32290.03
673.05	32383.65
673.19	32180.03
673.33	32203.43
673.47	31728.30
673.61	31948.31
673.75	31709.58
673.89	31438.08
674.03	31821.92
674.17	31592.55
674.31	31723.62
674.45	31318.71
674.59	31697.88
674.73	32280.67
674.87	31377.22
675.01	30965.29
675.15	31147.85
675.29	31072.95
675.43	31131.47
675.56	31173.60
675.70	30958.27
675.84	30934.86
675.98	29780.98
676.12	30583.78
676.26	30752.30
676.40	30773.36
676.54	30808.47
676.68	30515.90
676.82	30352.07
676.96	30054.82
677.10	30213.98
677.23	30457.39
677.37	30216.32
677.51	29940.13
677.65	29731.83
677.79	29085.84
677.93	30052.48
678.07	29479.05
678.21	29331.59
678.34	29048.39
678.48	28811.99
678.62	29024.98
678.76	28559.22
678.90	28395.38
679.04	28807.31
679.18	28514.75
679.31	28652.84
679.45	28374.31
679.59	28161.33
679.73	28243.24
679.87	28397.72
680.00	28034.94
680.14	28102.81
680.28	28292.40
680.42	28147.28
680.56	27953.02
680.70	27758.75
680.83	28048.98
680.97	27744.71
681.11	27768.12
681.25	27461.51
681.39	27470.87
681.52	27431.08
681.66	27391.29
681.80	27395.97
681.94	26878.71
682.07	27143.19
682.21	26780.41
682.35	26895.10
682.49	26979.36
682.62	26845.94
682.76	26593.17
682.90	26768.71
683.04	26448.05
683.17	26178.89
683.31	25909.73
683.45	25776.32
683.59	25975.27
683.72	25743.55
683.86	25846.54
684.00	25982.29
684.13	25474.39
684.27	25874.62
684.41	25619.50
684.55	25420.56
684.68	25355.02
684.82	25413.54
684.96	25186.50
685.09	25312.89
685.23	24917.34
685.37	24872.87
685.50	25209.91
685.64	24634.14
685.78	24599.03
685.91	24493.71
686.05	24247.95
686.19	24114.54
686.32	24205.82
686.46	23969.43
686.60	23700.26
686.73	23381.95
686.87	23681.54
687.01	23227.48
687.14	23171.30
687.28	23405.36
687.42	23295.35
687.55	23023.85
687.69	23054.28
687.82	23571.54
687.96	23353.87
688.10	22895.12
688.23	22852.99
688.37	22822.56
688.50	22654.05
688.64	22635.32
688.78	23065.98
688.91	22616.60
689.05	22309.99
689.18	22361.48
689.32	22214.02
689.46	22487.87
689.59	22452.76
689.73	22504.25
689.86	22136.79
690.00	21656.98
690.13	22307.65
690.27	21956.57
690.41	21647.61
690.54	21261.43
690.68	21422.92
690.81	21570.38
690.95	21582.08
691.08	21451.01
691.22	21205.25
691.35	21067.16
691.49	21078.86
691.62	21193.55
691.76	21025.03
691.89	20952.48
692.03	20561.61
692.16	20875.24
692.30	20524.16
692.43	20430.54
692.57	20231.59
692.70	20290.10
692.84	20170.74
692.97	20039.67
693.11	20046.69
693.24	19803.27
693.38	19733.06
693.51	19761.14
693.65	19964.77
693.78	19648.80
693.92	19559.86
694.05	19541.13
694.19	19587.94
694.32	19569.22
694.45	19321.12
694.59	19208.78
694.72	19468.58
694.86	19101.11
694.99	18714.92
695.13	19180.69
695.26	18937.27
695.39	18883.44
695.53	19007.49
695.66	18930.25
695.80	18735.99
695.93	18623.64
696.07	18459.81
696.20	18370.86
696.33	18506.62
696.47	18534.70
696.60	18314.69
696.73	18061.91
696.87	18176.60
697.00	17965.95
697.14	17745.94
697.27	17638.28
697.40	17816.16
697.54	17598.49
697.67	17465.08
697.80	17172.51
697.94	17373.80
698.07	17238.05
698.21	17109.32
698.34	17383.16
698.47	16982.93
698.61	17001.65
698.74	16734.83
698.87	17067.19
699.01	16505.46
699.14	16589.72
699.27	16531.20
699.40	16601.42
699.54	16407.16
699.67	16360.34
699.80	16353.32
699.94	16121.61
700.07	16425.88
700.20	16128.63
700.34	16020.97
700.47	15875.85
700.60	16255.02
700.73	16182.46
700.87	16226.93
701.00	15946.07
701.13	15545.84
701.26	15386.68
701.40	15522.43
701.53	15566.90
701.66	15435.83
701.79	15253.27
701.93	15241.57
702.06	15091.77
702.19	15026.24
702.32	15122.20
702.46	15070.71
702.59	15070.71
702.72	14810.91
702.85	15000.49
702.99	14668.14
703.12	14906.87
703.25	14686.86
703.38	14506.64
703.51	14530.05
703.65	14590.90
703.78	14525.36
703.91	14178.97
704.04	14120.45
704.17	13914.48
704.31	14029.17
704.44	13839.59
704.57	13958.96
704.70	13994.06
704.83	13968.32
704.96	13956.61
705.10	13544.68
705.23	13792.78
>>>>>End Processed Spectral Data<<<<<
