SpectraSuite Data File
++++++++++++++++++++++++++++++++++++
Date: Fri Oct 25 10:43:53 EDT 2013
User: price-jones
Dark Spectrum Present: No
Reference Spectrum Present: No
Number of Sampled Component Spectra: 1
Spectrometers: USB2+H05261
Integration Time (usec): 100000 (USB2+H05261)
Spectra Averaged: 1 (USB2+H05261)
Boxcar Smoothing: 0 (USB2+H05261)
Correct for Electrical Dark: No (USB2+H05261)
Strobe/Lamp Enabled: No (USB2+H05261)
Correct for Detector Non-linearity: No (USB2+H05261)
Correct for Stray Light: No (USB2+H05261)
Number of Pixels in Processed Spectrum: 2048
>>>>>Begin Processed Spectral Data<<<<<
365.73	95.96
365.92	95.96
366.12	95.96
366.32	53.83
366.52	0.00
366.72	37.45
366.91	58.51
367.11	28.09
367.31	46.81
367.51	0.00
367.70	32.77
367.90	42.13
368.10	2.34
368.30	2.34
368.49	84.26
368.69	53.83
368.89	0.00
369.09	74.90
369.28	14.04
369.48	23.41
369.68	79.58
369.87	124.05
370.07	112.35
370.27	128.73
370.47	163.84
370.66	437.68
370.86	440.02
371.06	472.79
371.25	557.05
371.45	486.83
371.65	510.24
371.84	435.34
372.04	428.32
372.24	533.64
372.44	580.45
372.63	543.00
372.83	517.26
373.03	571.09
373.22	489.17
373.42	528.96
373.62	510.24
373.81	547.69
374.01	568.75
374.21	528.96
374.40	538.32
374.60	521.94
374.79	540.66
374.99	561.73
375.19	587.47
375.38	592.16
375.58	657.69
375.78	596.84
375.97	559.39
376.17	657.69
376.37	613.22
376.56	622.58
376.76	564.07
376.95	657.69
377.15	653.01
377.35	615.56
377.54	695.14
377.74	613.22
377.93	662.37
378.13	653.01
378.33	713.86
378.52	662.37
378.72	720.88
378.91	692.80
379.11	692.80
379.31	704.50
379.50	683.44
379.70	674.07
379.89	791.10
380.09	763.01
380.28	744.29
380.48	676.41
380.68	627.26
380.87	678.76
381.07	767.70
381.26	835.57
381.46	610.88
381.65	671.73
381.85	692.80
382.04	685.78
382.24	699.82
382.43	774.72
382.63	744.29
382.83	702.16
383.02	763.01
383.22	774.72
383.41	739.61
383.61	732.59
383.80	814.51
384.00	718.54
384.19	826.21
384.39	770.04
384.58	847.27
384.78	816.85
384.97	891.74
385.17	823.87
385.36	840.25
385.56	758.33
385.75	840.25
385.95	844.93
386.14	938.55
386.34	851.96
386.53	861.32
386.72	812.17
386.92	898.77
387.11	887.06
387.31	950.26
387.50	936.21
387.70	896.43
387.89	971.32
388.09	929.19
388.28	887.06
388.48	945.58
388.67	1004.09
388.86	924.51
389.06	912.81
389.25	1001.75
389.45	983.02
389.64	994.73
389.84	1069.62
390.03	1057.92
390.22	1118.78
390.42	1046.22
390.61	978.34
390.81	1015.79
391.00	1123.46
391.19	1060.26
391.39	1177.29
391.58	1107.07
391.78	1043.88
391.97	1144.52
392.16	1060.26
392.36	1125.80
392.55	990.05
392.75	1057.92
392.94	1053.24
393.13	1067.28
393.33	1022.81
393.52	1146.86
393.71	1191.33
393.91	1167.93
394.10	1076.65
394.29	1097.71
394.49	1193.67
394.68	1245.16
394.88	1219.42
395.07	1320.06
395.26	1280.27
395.46	1256.87
395.65	1341.13
395.84	1294.32
396.04	1181.97
396.23	1203.04
396.42	1287.29
396.62	1266.23
396.81	1294.32
397.00	1345.81
397.19	1306.02
397.39	1369.21
397.58	1401.98
397.77	1481.56
397.97	1451.13
398.16	1437.09
398.35	1650.08
398.55	1476.88
398.74	1516.67
398.93	1544.75
399.12	1657.10
399.32	1516.67
399.51	1596.25
399.70	1675.82
399.90	1764.76
400.09	1706.25
400.28	1617.31
400.47	1624.33
400.67	1734.34
400.86	1753.06
401.05	1715.61
401.24	1713.27
401.44	1692.21
401.63	1760.08
401.82	1724.97
402.01	1795.19
402.21	1783.49
402.40	1755.40
402.59	1778.81
402.78	1818.60
402.97	1863.07
403.17	1795.19
403.36	1902.86
403.55	2038.61
403.74	1940.30
403.93	1987.11
404.13	1874.77
404.32	1944.99
404.51	1975.41
404.70	1966.05
404.89	2033.93
405.09	1966.05
405.28	2040.95
405.47	1966.05
405.66	1975.41
405.85	2097.12
406.05	2036.27
406.24	2153.29
406.43	2062.01
406.62	2188.40
406.81	2108.82
407.00	2101.80
407.20	2106.48
407.39	2183.72
407.58	2167.34
407.77	2167.34
407.96	2263.30
408.15	2375.64
408.34	2270.32
408.54	2307.77
408.73	2305.43
408.92	2436.50
409.11	2349.90
409.30	2359.26
409.49	2406.07
409.68	2356.92
409.87	2417.77
410.07	2333.51
410.26	2338.20
410.45	2506.71
410.64	2523.10
410.83	2670.55
411.02	2516.08
411.21	2708.00
411.40	2700.98
411.59	2628.42
411.78	2745.45
411.98	2693.96
412.17	2808.64
412.36	2745.45
412.55	2679.91
412.74	2771.19
412.93	2904.60
413.12	2757.15
413.31	2981.84
413.50	2892.90
413.69	2885.88
413.88	3049.72
414.07	2986.52
414.26	3096.53
414.45	3094.19
414.64	2981.84
414.83	3075.46
415.02	3190.15
415.22	3215.90
415.41	3335.26
415.60	3222.92
415.79	3300.16
415.98	3323.56
416.17	3283.77
416.36	3414.84
416.55	3332.92
416.74	3508.46
416.93	3283.77
417.12	3438.25
417.31	3508.46
417.50	3496.76
417.69	3534.21
417.88	3449.95
418.07	3499.10
418.26	3431.23
418.45	3562.30
418.64	3637.19
418.83	3730.81
419.02	3595.06
419.21	3712.09
419.39	3786.99
419.58	3646.55
419.77	3803.37
419.96	3808.05
420.15	3803.37
420.34	3798.69
420.53	3871.25
420.72	3875.93
420.91	3927.42
421.10	3969.55
421.29	4053.81
421.48	3953.16
421.67	3997.64
421.86	3892.31
422.05	3913.38
422.24	3878.27
422.43	3981.25
422.61	3948.48
422.80	4107.64
422.99	4002.32
423.18	4077.21
423.37	4046.79
423.56	4028.06
423.75	4147.43
423.94	3990.61
424.13	3906.35
424.32	3840.82
424.50	4180.20
424.69	4212.96
424.88	4133.39
425.07	3967.21
425.26	4065.51
425.45	4042.11
425.64	4014.02
425.83	4133.39
426.01	4210.62
426.20	4170.83
426.39	4142.75
426.58	4128.70
426.77	4142.75
426.96	4159.13
427.15	4079.55
427.33	4222.33
427.52	4227.01
427.71	4222.33
427.90	4222.33
428.09	4351.06
428.28	4079.55
428.46	4451.70
428.65	4329.99
428.84	4568.73
429.03	4402.55
429.22	4166.15
429.40	4283.18
429.59	4276.16
429.78	4217.65
429.97	4107.64
430.16	4032.74
430.34	4187.22
430.53	4273.82
430.72	4325.31
430.91	4383.82
431.10	4383.82
431.28	4692.77
431.47	4645.96
431.66	4725.54
431.85	4711.50
432.03	4692.77
432.22	4898.74
432.41	4774.69
432.60	4823.84
432.79	4882.36
432.97	4931.51
433.16	4868.31
433.35	4891.72
433.54	4985.34
433.72	4830.87
433.91	4826.18
434.10	4793.42
434.28	4985.34
434.47	5116.41
434.66	5022.79
434.85	5125.77
435.03	5125.77
435.22	5069.60
435.41	5242.80
435.59	5270.89
435.78	5359.83
435.97	5378.55
436.16	5252.16
436.34	5277.91
436.53	5350.46
436.72	5490.90
436.90	5460.47
437.09	5385.57
437.28	5343.44
437.46	5174.92
437.65	5296.63
437.84	5446.43
438.02	5423.02
438.21	5434.72
438.40	5156.20
438.58	5708.57
438.77	5516.64
438.96	5488.56
439.14	5746.02
439.33	5802.19
439.52	5738.99
439.70	5851.34
439.89	5975.39
440.08	5989.43
440.26	5954.32
440.45	5916.87
440.63	5975.39
440.82	6221.14
441.01	6069.01
441.19	6186.04
441.38	6333.49
441.57	6340.51
441.75	6298.38
441.94	6375.62
442.12	6441.15
442.31	6738.40
442.50	6743.08
442.68	6551.16
442.87	6438.81
443.05	6654.14
443.24	6764.15
443.43	6626.06
443.61	6586.27
443.80	6857.77
443.98	6635.42
444.17	6684.57
444.35	6612.01
444.54	6864.79
444.73	6778.19
444.91	6712.66
445.10	6658.82
445.28	6607.33
445.47	6766.49
445.65	6698.61
445.84	6654.14
446.02	6754.79
446.21	6658.82
446.39	6813.30
446.58	6930.33
446.77	6867.13
446.95	6909.26
447.14	6937.35
447.32	6965.43
447.51	6951.39
447.69	6808.62
447.88	6867.13
448.06	6895.22
448.25	6895.22
448.43	7016.93
448.62	7054.37
448.80	7028.63
448.99	7077.78
449.17	7140.97
449.36	7084.80
449.54	6963.09
449.73	7304.81
449.91	7478.01
450.10	7435.88
450.28	7482.69
450.46	7473.33
450.65	7644.19
450.83	7583.34
451.02	7431.20
451.20	7648.87
451.39	7602.06
451.57	7499.08
451.76	7496.74
451.94	7527.16
452.13	7573.97
452.31	7527.16
452.49	7239.28
452.68	7267.36
452.86	7339.92
453.05	7482.69
453.23	7866.54
453.42	7648.87
453.60	7620.78
453.78	7772.92
453.97	7733.13
454.15	7536.52
454.34	7569.29
454.52	7960.16
454.70	7691.00
454.89	7946.12
455.07	7899.31
455.26	7936.76
455.44	7971.86
455.62	7948.46
455.81	8079.53
455.99	8264.43
456.17	8168.47
456.36	8084.21
456.54	8355.71
456.73	8386.14
456.91	8402.52
457.09	8634.24
457.28	8545.30
457.46	8079.53
457.64	8423.59
457.83	8266.77
458.01	8231.66
458.19	8741.90
458.38	8446.99
458.56	8439.97
458.74	8542.96
458.93	8634.24
459.11	8636.58
459.29	8702.11
459.48	8629.56
459.66	8741.90
459.84	8669.34
460.03	8849.57
460.21	8854.25
460.39	8788.71
460.57	8690.41
460.76	8702.11
460.94	9078.94
461.12	8990.00
461.31	8952.55
461.49	9123.41
461.67	8947.87
461.85	9448.74
462.04	8952.55
462.22	9071.92
462.40	9327.03
462.59	9074.26
462.77	9153.84
462.95	9048.51
463.13	9348.10
463.32	9284.91
463.50	9345.76
463.68	9184.26
463.86	9228.73
464.05	9184.26
464.23	9273.20
464.41	9451.08
464.59	9151.49
464.78	9406.61
464.96	9411.29
465.14	9483.85
465.32	9561.09
465.50	9631.30
465.69	9444.06
465.87	9664.07
466.05	9469.81
466.23	9558.75
466.41	9378.53
466.60	9572.79
466.78	9607.90
466.96	9490.87
467.14	9586.83
467.32	9673.43
467.51	9872.38
467.69	9397.25
467.87	9956.64
468.05	9973.02
468.23	9851.31
468.41	9668.75
468.60	9708.54
468.78	10010.47
468.96	9802.16
469.14	10031.54
469.32	10136.86
469.50	9853.66
469.69	9841.95
469.87	10242.18
470.05	10099.41
470.23	10310.06
470.41	9858.34
470.59	10354.53
470.77	10001.11
470.95	10321.76
471.14	10597.95
471.32	10183.67
471.50	10726.68
471.68	10223.46
471.86	10565.18
472.04	10778.17
472.22	10972.43
472.40	10501.98
472.58	10834.34
472.77	10597.95
472.95	10974.77
473.13	11503.73
473.31	10780.51
473.49	10899.87
473.67	10993.50
473.85	10927.96
474.03	11440.54
474.21	11424.15
474.39	11473.31
474.57	11428.84
474.75	11555.22
474.93	11562.25
475.12	11372.66
475.30	11662.89
475.48	11651.19
475.66	11868.86
475.84	11634.80
476.02	11721.40
476.20	11775.24
476.38	12009.29
476.56	12299.52
476.74	12168.45
476.92	12367.39
477.10	12091.21
477.28	12608.47
477.46	12453.99
477.64	12603.78
477.82	12840.18
478.00	12685.70
478.18	12905.71
478.36	12966.57
478.54	12985.29
478.72	13083.59
478.90	13228.71
479.08	13565.74
479.26	13591.49
479.44	13605.53
479.62	13820.86
479.80	13811.50
479.98	13757.67
480.16	14263.22
480.34	14001.08
480.52	14200.03
480.70	13888.74
480.88	14207.05
481.06	14438.76
481.24	14331.10
481.41	14717.29
481.59	14843.68
481.77	14998.15
481.95	14785.16
482.13	15044.96
482.31	14871.76
482.49	15192.42
482.67	15447.54
482.85	15721.38
483.03	15798.62
483.21	15625.42
483.39	15941.39
483.57	15679.25
483.74	16184.80
483.92	16037.35
484.10	16065.44
484.28	16517.16
484.46	16673.98
484.64	16854.20
484.82	16563.97
485.00	16594.40
485.18	16966.54
485.35	16805.05
485.53	16500.78
485.71	16657.59
485.89	16891.65
486.07	17137.40
486.25	17139.74
486.43	17284.86
486.61	17729.56
486.78	17877.01
486.96	18125.11
487.14	18263.20
487.32	18342.78
487.50	18740.67
487.68	18609.60
487.85	18881.10
488.03	18853.02
488.21	19215.80
488.39	19161.97
488.57	19435.81
488.75	19520.07
488.92	19194.73
489.10	19889.87
489.28	19917.96
489.46	20353.30
489.64	20659.91
489.81	21076.52
489.99	20575.65
490.17	20678.63
490.35	21310.58
490.53	20713.74
490.70	20996.95
490.88	21179.51
491.06	21462.71
491.24	21561.02
491.41	21198.23
491.59	21598.46
491.77	21348.03
491.95	21757.62
492.13	22045.51
492.30	22218.71
492.48	22497.23
492.66	22321.69
492.84	22230.41
493.01	22771.07
493.19	22539.36
493.37	22817.88
493.54	22988.74
493.72	22958.31
493.90	23435.78
494.08	23381.95
494.25	23922.62
494.43	23611.32
494.61	24079.43
494.79	24334.55
494.96	24374.34
495.14	24121.56
495.32	24306.46
495.49	24283.06
495.67	24711.38
495.85	24662.22
496.02	25081.18
496.20	24975.86
496.38	24666.91
496.55	25380.77
496.73	25872.28
496.91	25418.22
497.09	25612.48
497.26	25642.91
497.44	25827.81
497.62	25813.77
497.79	26471.46
497.97	25795.04
498.14	26169.53
498.32	26478.48
498.50	26319.32
498.67	26857.65
498.85	26862.33
499.03	26705.51
499.20	26888.07
499.38	26656.36
499.56	27218.09
499.73	27658.11
499.91	27035.53
500.08	27349.16
500.26	27421.72
500.44	27290.65
500.61	27489.59
500.79	27248.52
500.97	27634.71
501.14	27824.29
501.32	27630.02
501.49	28130.90
501.67	27838.33
501.84	28156.64
502.02	28271.33
502.20	28414.10
502.37	28711.35
502.55	28205.80
502.72	28790.93
502.90	28659.86
503.07	28814.34
503.25	28936.04
503.43	28865.83
503.60	28713.69
503.78	28790.93
503.95	29090.52
504.13	29017.96
504.30	29394.79
504.48	29556.28
504.65	29675.65
504.83	29488.41
505.01	30092.27
505.18	29743.53
505.36	30031.41
505.53	30342.70
505.71	30579.10
505.88	30888.05
506.06	30539.31
506.23	30574.42
506.41	30504.20
506.58	30485.48
506.76	30941.88
506.93	30754.64
507.11	30773.36
507.28	30948.90
507.46	30951.24
507.63	30866.98
507.81	30918.48
507.98	30948.90
508.16	31246.15
508.33	31367.86
508.50	31417.01
508.68	31931.93
508.85	31660.43
509.03	31852.35
509.20	31960.02
509.38	32320.46
509.55	32046.62
509.73	32149.60
509.90	32449.19
510.08	32430.46
510.25	32119.17
510.42	32147.26
510.60	32652.81
510.77	32760.48
510.95	33179.43
511.12	32837.72
511.30	32891.55
511.47	33427.53
511.64	33261.35
511.82	33392.42
511.99	32844.74
512.17	33385.40
512.34	32978.15
512.51	32978.15
512.69	33507.11
512.86	33521.15
513.04	34012.66
513.21	33909.68
513.38	33778.61
513.56	33734.14
513.73	33617.11
513.90	34005.64
514.08	33816.06
514.25	33832.44
514.43	34206.93
514.60	34192.89
514.77	33799.68
514.95	34604.82
515.12	34015.01
515.29	34731.21
515.47	34881.00
515.64	34939.52
515.81	34745.25
515.99	34621.20
516.16	34464.39
516.33	34501.84
516.51	34265.44
516.68	34050.11
516.85	34012.66
517.03	34235.02
517.20	34981.65
517.37	35241.45
517.54	35498.91
517.72	35037.82
517.89	34211.61
518.06	34934.84
518.24	34726.53
518.41	35299.96
518.58	35718.92
518.75	35061.22
518.93	35880.41
519.10	35690.83
519.27	35967.01
519.45	35995.10
519.62	36322.77
519.79	35999.78
519.96	36058.29
520.14	36854.08
520.31	36121.49
520.48	36467.89
520.65	36397.67
520.83	36390.65
521.00	36416.40
521.17	36739.39
521.34	36608.32
521.52	36861.10
521.69	37188.77
521.86	37177.07
522.03	37057.70
522.20	36811.95
522.38	37581.98
522.55	37266.01
522.72	37570.28
522.89	37289.42
523.07	37429.85
523.24	37296.44
523.41	37897.95
523.58	37703.69
523.75	38302.87
523.92	37757.52
524.10	38174.14
524.27	38373.08
524.44	38916.09
524.61	37926.04
524.78	38532.24
524.96	38548.62
525.13	38361.38
525.30	38326.27
525.47	38773.31
525.64	38288.82
525.81	38382.45
525.98	38410.53
526.16	38113.28
526.33	37940.08
526.50	38124.99
526.67	38225.63
526.84	38462.02
527.01	38082.86
527.18	38305.21
527.36	39124.40
527.53	38565.01
527.70	39386.54
527.87	39182.91
528.04	39292.91
528.21	39440.37
528.38	39335.04
528.55	39597.18
528.72	39555.05
528.89	40037.20
529.07	39475.48
529.24	39210.99
529.41	39824.22
529.58	39768.04
529.75	39470.79
529.92	40140.19
530.09	39838.26
530.26	40343.81
530.43	40219.77
530.60	39732.93
530.77	40107.42
530.94	40416.37
531.11	40360.20
531.28	40460.84
531.46	40498.29
531.63	40554.46
531.80	40371.90
531.97	40095.72
532.14	40449.14
532.31	39948.26
532.48	40325.09
532.65	40421.05
532.82	40332.11
532.99	40863.41
533.16	40442.12
533.33	40669.15
533.50	41003.85
533.67	40528.72
533.84	40734.68
534.01	40708.94
534.18	40589.57
534.35	41017.89
534.52	41137.26
534.69	41151.30
534.86	41490.68
535.03	41439.18
535.20	41804.31
535.37	41797.29
535.54	42440.93
535.71	41570.25
535.88	41563.23
536.05	41572.60
536.22	41736.43
536.38	41741.11
536.55	41834.74
536.72	41706.01
536.89	41081.08
537.06	41375.99
537.23	42139.00
537.40	41715.37
537.57	42246.67
537.74	42522.85
537.91	42284.12
538.08	42286.46
538.25	41881.55
538.42	42000.91
538.59	42265.39
538.75	41921.34
538.92	41972.83
539.09	42375.40
539.26	42176.45
539.43	42501.79
539.60	42281.78
539.77	42078.15
539.94	42408.17
540.11	42190.50
540.28	42445.62
540.44	42644.56
540.61	42415.19
540.78	42543.92
540.95	42504.13
541.12	42272.42
541.29	42607.11
541.46	42485.40
541.62	42719.46
541.79	42848.19
541.96	42384.76
542.13	42534.56
542.30	42939.47
542.47	42782.65
542.63	43285.87
542.80	43175.86
542.97	43468.43
543.14	43597.16
543.31	43414.60
543.48	43543.33
543.64	44034.84
543.81	43821.85
543.98	43779.72
544.15	43482.47
544.32	43667.37
544.48	44168.25
544.65	43718.87
544.82	43683.76
544.99	43660.35
545.16	43576.09
545.32	43548.01
545.49	44584.86
545.66	44669.12
545.83	44072.29
546.00	44428.05
546.16	44318.04
546.33	44088.67
546.50	43634.61
546.67	44404.64
546.83	43908.45
547.00	43866.32
547.17	44144.84
547.34	43725.89
547.50	44259.53
547.67	44753.38
547.84	44334.43
548.00	44664.44
548.17	45186.38
548.34	44720.62
548.51	44697.21
548.67	44655.08
548.84	44608.27
549.01	44140.16
549.18	44439.75
549.34	44767.43
549.51	44439.75
549.68	44856.37
549.84	44411.67
550.01	45347.88
550.18	44711.25
550.34	44626.99
550.51	44697.21
550.68	44671.46
550.84	44449.11
551.01	45055.31
551.18	44582.52
551.34	44722.96
551.51	45174.68
551.68	45378.31
551.84	44992.12
552.01	44968.71
552.18	45240.21
552.34	44832.96
552.51	45127.87
552.68	45170.00
552.84	45722.37
553.01	44802.53
553.18	45118.51
553.34	45284.68
553.51	45024.89
553.67	45272.98
553.84	45986.85
554.01	45546.82
554.17	45605.34
554.34	45392.35
554.51	45841.73
554.67	45673.21
554.84	45701.30
555.00	45462.57
555.17	45471.93
555.33	45354.90
555.50	45078.72
555.67	45497.67
555.83	45722.37
556.00	45804.28
556.16	45830.03
556.33	45778.54
556.50	45783.22
556.66	45504.70
556.83	45270.64
556.99	45844.07
557.16	45778.54
557.32	45961.10
557.49	45965.78
557.65	45661.51
557.82	45830.03
557.98	45982.16
558.15	45921.31
558.32	45895.56
558.48	45511.72
558.65	45610.02
558.81	45731.73
558.98	45675.55
559.14	45715.34
559.31	45862.80
559.47	46026.63
559.64	46452.61
559.80	46302.82
559.97	46188.13
560.13	46115.58
560.30	46094.51
560.46	46422.19
560.63	46031.32
560.79	46204.52
560.96	46710.07
561.12	46213.88
561.29	45830.03
561.45	45792.58
561.61	46387.08
561.78	45825.35
561.94	45942.38
562.11	45961.10
562.27	46241.96
562.44	46094.51
562.60	46417.50
562.77	46623.47
562.93	46361.33
563.10	45958.76
563.26	46106.21
563.42	46342.61
563.59	46670.28
563.75	46569.64
563.92	46368.35
564.08	46543.89
564.24	46291.12
564.41	46646.88
564.57	46597.73
564.74	46768.58
564.90	46347.29
565.07	46277.07
565.23	46230.26
565.39	46522.83
565.56	46595.38
565.72	46106.21
565.88	46476.02
566.05	46202.18
566.21	46396.44
566.38	46314.52
566.54	46726.46
566.70	46506.44
566.87	46923.06
567.03	47037.75
567.19	47049.45
567.36	46653.90
567.52	46436.23
567.68	46639.86
567.85	46616.45
568.01	46843.48
568.17	46586.02
568.34	46274.73
568.50	46492.40
568.66	46534.53
568.83	46932.42
568.99	46291.12
569.15	46660.92
569.32	46323.88
569.48	46358.99
569.64	46775.61
569.81	46586.02
569.97	46461.97
570.13	46604.75
570.30	46529.85
570.46	46120.26
570.62	46902.00
570.78	46073.45
570.95	46375.37
571.11	46686.67
571.27	46452.61
571.43	46213.88
571.60	46883.27
571.76	46712.41
571.92	47026.04
572.09	46988.60
572.25	46630.49
572.41	46698.37
572.57	46831.78
572.74	47023.70
572.90	46836.46
573.06	46693.69
573.22	47033.07
573.38	46859.87
573.55	46061.74
573.71	46906.68
573.87	46892.63
574.03	46831.78
574.20	47096.26
574.36	46728.80
574.52	46555.60
574.68	46553.26
574.84	46768.58
575.01	46897.31
575.17	46768.58
575.33	46363.67
575.49	46600.07
575.65	46911.36
575.82	47075.19
575.98	46377.72
576.14	47220.31
576.30	46731.14
576.46	46405.80
576.62	46761.56
576.79	46754.54
576.95	46295.80
577.11	46574.32
577.27	46836.46
577.43	46518.15
577.59	46424.53
577.75	46424.53
577.92	46176.43
578.08	46309.84
578.24	46920.72
578.40	46777.95
578.56	46850.50
578.72	46894.97
578.88	47145.41
579.04	47009.66
579.21	46799.01
579.37	46469.00
579.53	46887.95
579.69	46705.39
579.85	46902.00
580.01	46527.51
580.17	46813.05
580.33	46681.98
580.49	46831.78
580.65	46866.89
580.82	46752.20
580.98	46747.52
581.14	46637.51
581.30	46864.55
581.46	46890.29
581.62	46766.24
581.78	47037.75
581.94	47587.77
582.10	46663.26
582.26	47054.13
582.42	47182.86
582.58	46700.71
582.74	47040.09
582.90	47098.60
583.06	47196.90
583.22	47234.35
583.38	47161.79
583.54	47086.90
583.70	46909.02
583.86	46841.14
584.02	46398.78
584.18	47138.39
584.34	47117.32
584.50	46930.08
584.66	46857.52
584.82	46593.04
584.98	47201.58
585.14	47285.84
585.30	46581.34
585.46	46962.85
585.62	46415.16
585.78	46513.47
585.94	46485.38
586.10	46747.52
586.26	47138.39
586.42	47058.81
586.58	47274.14
586.74	46742.84
586.90	46490.06
587.06	46384.74
587.22	46810.71
587.38	46831.78
587.54	46843.48
587.70	47063.49
587.86	46911.36
588.02	46623.47
588.18	46965.19
588.34	46749.86
588.49	46305.16
588.65	45876.84
588.81	46305.16
588.97	46637.51
589.13	46546.23
589.29	46595.38
589.45	46564.96
589.61	46689.01
589.77	47007.32
589.93	46880.93
590.08	46969.87
590.24	47491.81
590.40	47271.80
590.56	47477.77
590.72	46890.29
590.88	46775.61
591.04	46871.57
591.20	47356.06
591.35	46939.44
591.51	47224.99
591.67	46782.63
591.83	47159.45
591.99	46497.08
592.15	47035.41
592.31	47110.30
592.46	47346.70
592.62	46934.76
592.78	47026.04
592.94	47058.81
593.10	47117.32
593.26	47152.43
593.41	47107.96
593.57	46452.61
593.73	46836.46
593.89	46969.87
594.05	46913.70
594.20	46885.61
594.36	46794.33
594.52	46820.08
594.68	46696.03
594.84	46560.28
594.99	46939.44
595.15	46892.63
595.31	46948.81
595.47	46894.97
595.62	47093.92
595.78	47337.33
595.94	47339.68
596.10	47217.97
596.25	47117.32
596.41	46759.22
596.57	46665.60
596.73	47323.29
596.88	46721.77
597.04	47014.34
597.20	46986.25
597.36	46880.93
597.51	47215.63
597.67	47440.32
597.83	46944.12
597.99	46958.17
598.14	46483.04
598.30	46986.25
598.46	46883.27
598.61	47089.24
598.77	46724.11
598.93	46974.55
599.09	47189.88
599.24	47470.75
599.40	46969.87
599.56	47466.06
599.71	46979.23
599.87	46740.50
600.03	47133.71
600.18	47004.98
600.34	46841.14
600.50	46937.10
600.65	46829.44
600.81	47007.32
600.97	47154.77
601.12	47224.99
601.28	46904.34
601.44	46911.36
601.59	47063.49
601.75	46972.21
601.91	46843.48
602.06	47150.09
602.22	47100.94
602.37	46731.14
602.53	47042.43
602.69	47346.70
602.84	46836.46
603.00	47164.14
603.16	46824.76
603.31	46902.00
603.47	46822.42
603.62	47019.02
603.78	47428.62
603.94	47150.09
604.09	46894.97
604.25	47253.08
604.40	46883.27
604.56	46548.57
604.71	47091.58
604.87	47037.75
605.03	46806.03
605.18	46759.22
605.34	46635.17
605.49	46431.55
605.65	47248.39
605.80	46836.46
605.96	46808.37
606.12	46794.33
606.27	47154.77
606.43	47026.04
606.58	46777.95
606.74	46766.24
606.89	46983.91
607.05	46787.31
607.20	46621.13
607.36	46719.43
607.51	46801.35
607.67	46768.58
607.82	46801.35
607.98	46597.73
608.13	46298.14
608.29	46183.45
608.44	46162.39
608.60	46061.74
608.75	46590.70
608.91	46600.07
609.06	46422.19
609.22	46703.05
609.37	46756.88
609.53	46382.40
609.68	46333.24
609.84	46291.12
609.99	46384.74
610.15	46138.98
610.30	46344.95
610.46	46028.98
610.61	46146.00
610.76	46487.72
610.92	46248.99
611.07	46225.58
611.23	46010.25
611.38	46665.60
611.54	46300.48
611.69	46281.75
611.84	46300.48
612.00	45837.05
612.15	46258.35
612.31	46567.30
612.46	45893.22
612.62	45778.54
612.77	46216.22
612.92	46195.15
613.08	46017.27
613.23	46134.30
613.39	45546.82
613.54	45336.18
613.69	45572.57
613.85	45734.07
614.00	45776.20
614.15	45961.10
614.31	45925.99
614.46	45991.53
614.62	45911.95
614.77	45705.98
614.92	45949.40
615.08	45741.09
615.23	45394.69
615.38	45228.51
615.54	45619.38
615.69	45186.38
615.84	45727.05
616.00	45598.32
616.15	45563.21
616.30	45453.20
616.46	45324.47
616.61	45294.05
616.76	45904.93
616.92	44856.37
617.07	45177.02
617.22	45104.46
617.37	45340.86
617.53	45703.64
617.68	45684.92
617.83	45500.01
617.99	45759.81
618.14	45425.12
618.29	45340.86
618.45	44837.64
618.60	44992.12
618.75	44926.58
618.90	45151.27
619.06	45151.27
619.21	45029.57
619.36	45701.30
619.51	45158.30
619.67	44872.75
619.82	45052.97
619.97	44823.60
620.12	44626.99
620.28	44374.22
620.43	44439.75
620.58	45202.77
620.73	44360.17
620.89	44636.36
621.04	45113.83
621.19	45045.95
621.34	44715.93
621.49	45085.74
621.65	44722.96
621.80	44999.14
621.95	44634.02
622.10	44634.02
622.25	44416.35
622.41	44385.92
622.56	43978.67
622.71	44341.45
622.86	44217.40
623.01	44563.80
623.16	44493.58
623.32	43814.83
623.47	44491.24
623.62	44348.47
623.77	44301.66
623.92	44706.57
624.07	44186.97
624.23	43770.36
624.38	43477.79
624.53	43746.95
624.68	44472.52
624.83	44098.03
624.98	44121.44
625.13	43484.81
625.29	43969.30
625.44	43510.56
625.59	43222.67
625.74	43508.22
625.89	43700.14
626.04	43316.29
626.19	43576.09
626.34	43536.30
626.49	43751.63
626.65	43421.62
626.80	43908.45
626.95	43480.13
627.10	43599.50
627.25	43370.13
627.40	43246.08
627.55	42817.76
627.70	43077.56
627.85	43510.56
628.00	42850.53
628.15	43435.66
628.30	42913.72
628.45	43370.13
628.60	43290.55
628.76	43473.11
628.91	43131.39
629.06	42824.78
629.21	43058.84
629.36	42817.76
629.51	42920.74
629.66	42969.90
629.81	42700.73
629.96	43526.94
630.11	42993.30
630.26	43318.64
630.41	42953.51
630.56	42665.63
630.71	42674.99
630.86	42983.94
631.01	42892.66
631.16	43012.02
631.31	42426.89
631.46	42153.05
631.61	42335.61
631.76	42218.58
631.91	42344.97
632.06	43070.54
632.21	42567.32
632.36	42696.05
632.51	42375.40
632.66	42660.94
632.81	42422.21
632.96	42443.27
633.10	42754.57
633.25	42501.79
633.40	42321.57
633.55	42728.82
633.70	42026.66
633.85	42197.52
634.00	42387.10
634.15	42122.62
634.30	42501.79
634.45	42293.48
634.60	42536.90
634.75	42354.33
634.90	41972.83
635.05	42136.66
635.19	42017.30
635.34	42394.12
635.49	42085.17
635.64	42176.45
635.79	41902.61
635.94	41656.85
636.09	42244.33
636.24	41567.91
636.39	41706.01
636.53	41930.70
636.68	41851.12
636.83	41427.48
636.98	41759.84
637.13	41366.63
637.28	42108.58
637.43	42185.82
637.57	41890.91
637.72	41336.20
637.87	42038.36
638.02	41764.52
638.17	42270.08
638.32	41425.14
638.46	41867.50
638.61	41544.51
638.76	41170.02
638.91	41399.40
639.06	41588.98
639.20	41530.47
639.35	41230.88
639.50	41294.07
639.65	41415.78
639.80	41336.20
639.94	41476.63
640.09	41099.81
640.24	41158.32
640.39	40664.47
640.54	40989.80
640.68	41418.12
640.83	41284.71
640.98	40903.20
641.13	40804.90
641.27	41532.81
641.42	41048.32
641.57	40875.12
641.72	41008.53
641.86	40858.73
642.01	40671.49
642.16	40554.46
642.31	40519.35
642.45	40561.48
642.60	40334.45
642.75	40758.09
642.90	40732.34
643.04	40596.59
643.19	40652.76
643.34	40655.11
643.48	40458.50
643.63	40184.66
643.78	40018.48
643.93	40811.92
644.07	40509.99
644.22	40411.69
644.37	40278.28
644.51	40428.07
644.66	39756.34
644.81	40734.68
644.95	40641.06
645.10	40313.39
645.25	40542.76
645.39	40357.86
645.54	40486.59
645.69	39784.43
645.83	40570.85
645.98	39941.24
646.13	40086.36
646.27	40292.32
646.42	39878.05
646.57	39480.16
646.71	39735.27
646.86	40041.88
647.00	39999.76
647.15	39751.66
647.30	39938.90
647.44	39880.39
647.59	39676.76
647.74	39878.05
647.88	39784.43
648.03	39908.47
648.17	39838.26
648.32	39536.33
648.47	39161.84
648.61	39438.03
648.76	39997.41
648.90	39754.00
649.05	39636.97
649.20	39526.97
649.34	39318.66
649.49	39042.48
649.63	39201.63
649.78	39304.62
649.92	39690.80
650.07	39690.80
650.21	39531.65
650.36	39845.28
650.51	39632.29
650.65	39878.05
650.80	39267.17
650.94	39594.84
651.09	39309.30
651.23	38913.75
651.38	39218.02
651.52	39026.09
651.67	38628.20
651.81	38948.85
651.96	38754.59
652.10	38829.49
652.25	38955.88
652.39	39082.27
652.54	38806.08
652.68	39077.58
652.83	38487.77
652.97	39299.94
653.12	38822.47
653.26	39016.73
653.41	38525.22
653.55	38738.21
653.70	38859.91
653.84	38632.88
653.99	38422.23
654.13	38352.02
654.27	38225.63
654.42	38557.99
654.56	38672.67
654.71	38663.31
654.85	38227.97
655.00	38424.57
655.14	38223.29
655.29	37989.24
655.43	38300.53
655.57	37593.68
655.72	37701.35
655.86	37544.53
656.01	37801.99
656.15	37446.23
656.30	37738.80
656.44	37722.41
656.58	38143.71
656.73	37710.71
656.87	37703.69
657.01	37591.34
657.16	37579.64
657.30	37797.31
657.45	37624.11
657.59	37525.81
657.73	37593.68
657.88	37968.17
658.02	38078.18
658.16	37888.59
658.31	38066.47
658.45	37783.27
658.60	37682.62
658.74	37993.92
658.88	37441.55
659.03	37350.27
659.17	37553.90
659.31	37589.00
659.46	37184.09
659.60	37579.64
659.74	37528.15
659.89	37235.58
660.03	37233.24
660.17	37469.64
660.32	37053.02
660.46	37146.64
660.60	37326.86
660.74	36931.31
660.89	37209.84
661.03	36816.63
661.17	36772.16
661.32	36451.50
661.46	36940.68
661.60	37062.38
661.74	36615.34
661.89	36727.69
662.03	36765.14
662.17	36648.11
662.31	36079.36
662.46	36900.89
662.60	36833.01
662.74	36631.72
662.88	36287.67
663.03	36170.64
663.17	36198.73
663.31	35889.77
663.45	35955.31
663.60	36172.98
663.74	35924.88
663.88	35641.68
664.02	36149.57
664.17	36037.23
664.31	35859.35
664.45	35945.95
664.59	35248.47
664.73	35995.10
664.88	35583.16
665.02	35056.54
665.16	35559.76
665.30	35185.27
665.44	35555.08
665.59	34672.70
665.73	35091.65
665.87	35014.41
666.01	35463.80
666.15	35393.58
666.29	35342.09
666.44	35262.51
666.58	35140.80
666.72	34953.56
666.86	34974.63
667.00	34838.87
667.14	34602.48
667.28	34316.93
667.43	34686.74
667.57	34857.60
667.71	34614.18
667.85	34380.13
667.99	34873.98
668.13	34579.07
668.27	34363.75
668.41	34579.07
668.56	34206.93
668.70	34410.56
668.84	34115.65
668.98	33656.90
669.12	34141.39
669.26	34015.01
669.40	33684.99
669.54	33914.36
669.68	34022.03
669.82	33418.17
669.96	33439.23
670.10	33226.24
670.25	33640.52
670.39	33340.93
670.53	33251.99
670.67	33230.93
670.81	33804.36
670.95	33195.82
671.09	32954.74
671.23	33219.22
671.37	32863.46
671.51	32943.04
671.65	33195.82
671.79	32744.09
671.93	32907.93
672.07	33235.61
672.21	32484.30
672.35	32713.67
672.49	32893.89
672.63	33031.98
672.77	32737.07
672.91	32259.60
673.05	32285.35
673.19	32442.17
673.33	32123.85
673.47	31910.86
673.61	31772.77
673.75	31758.73
673.89	31681.49
674.03	31786.82
674.17	31531.70
674.31	31941.29
674.45	31578.51
674.59	31793.84
674.73	31709.58
674.87	31337.43
675.01	31508.29
675.15	31248.49
675.29	31152.53
675.43	30815.49
675.56	31108.06
675.70	31243.81
675.84	30806.13
675.98	30146.10
676.12	30881.03
676.26	30471.43
676.40	30988.69
676.54	30780.39
676.68	31136.15
676.82	30118.01
676.96	30202.27
677.10	29989.28
677.23	30134.40
677.37	29970.56
677.51	29905.02
677.65	30125.04
677.79	29172.44
677.93	29685.01
678.07	29331.59
678.21	28910.30
678.34	28819.02
678.48	28643.48
678.62	28861.15
678.76	29057.75
678.90	29015.62
679.04	28554.54
679.18	28950.09
679.31	28549.85
679.45	28208.14
679.59	28379.00
679.73	28381.34
679.87	28580.28
680.00	28671.56
680.14	28088.77
680.28	28489.00
680.42	28119.20
680.56	27819.61
680.70	28126.22
680.83	27796.20
680.97	27950.68
681.11	27608.96
681.25	27735.35
681.39	27557.47
681.52	27367.88
681.66	27466.19
681.80	27300.01
681.94	27068.30
682.07	27143.19
682.21	26951.27
682.35	26607.21
682.49	26555.72
682.62	26883.39
682.76	26167.19
682.90	26515.93
683.04	26604.87
683.17	26497.20
683.31	25921.43
683.45	25916.75
683.59	26150.81
683.72	26012.71
683.86	26162.51
684.00	25909.73
684.13	25656.95
684.27	25998.67
684.41	25682.70
684.55	25238.00
684.68	25233.32
684.82	25467.37
684.96	24900.96
685.09	25401.83
685.23	25158.42
685.37	25099.90
685.50	25137.35
685.64	24875.21
685.78	24662.22
685.91	24460.94
686.05	24360.30
686.19	24081.77
686.32	23903.89
686.46	23957.72
686.60	23798.57
686.73	23658.14
686.87	23077.68
687.01	23332.80
687.14	23091.73
687.28	23204.07
687.42	23288.33
687.55	23187.69
687.69	23328.12
687.82	23124.49
687.96	23215.77
688.10	23035.55
688.23	22852.99
688.37	23016.83
688.50	22583.83
688.64	22611.92
688.78	22911.50
688.91	22309.99
689.05	22382.54
689.18	22246.79
689.32	22274.88
689.46	22349.78
689.59	22405.95
689.73	22380.20
689.86	22040.82
690.00	22115.72
690.13	22232.75
690.27	21771.66
690.41	21619.53
690.54	21584.42
690.68	21495.48
690.81	21614.85
690.95	21811.45
691.08	21582.08
691.22	21394.84
691.35	21404.20
691.49	21373.77
691.62	21067.16
691.76	21151.42
691.89	21034.39
692.03	20676.29
692.16	20865.88
692.30	20563.95
692.43	20306.49
692.57	20416.49
692.70	20123.93
692.84	20482.03
692.97	20212.87
693.11	20168.40
693.24	20102.86
693.38	19697.95
693.51	19953.07
693.65	20149.67
693.78	20030.30
693.92	19735.40
694.05	19527.09
694.19	19454.53
694.32	19412.40
694.45	19117.50
694.59	19154.94
694.72	19456.87
694.86	19159.63
694.99	18948.98
695.13	18787.48
695.26	18986.43
695.39	18747.69
695.53	18764.07
695.66	19136.22
695.80	18848.33
695.93	18684.50
696.07	18408.31
696.20	18473.85
696.33	18412.99
696.47	18466.83
696.60	18207.03
696.73	18134.47
696.87	18167.24
697.00	17968.29
697.14	18080.64
697.27	17813.82
697.40	17591.47
697.54	17451.03
697.67	17394.86
697.80	17296.56
697.94	17233.36
698.07	17418.27
698.21	17106.98
698.34	17245.07
698.47	17198.26
698.61	16805.05
698.74	17114.00
698.87	17111.66
699.01	16531.20
699.14	16521.84
699.27	16322.90
699.40	16484.39
699.54	16231.62
699.67	16105.23
699.80	16168.42
699.94	15992.88
700.07	16109.91
700.20	16252.68
700.34	16269.06
700.47	16348.64
700.60	16329.92
700.73	16130.97
700.87	15784.57
701.00	15379.66
701.13	15676.91
701.26	15690.95
701.40	15552.86
701.53	15309.44
701.66	15576.27
701.79	15138.58
701.93	15154.97
702.06	15157.31
702.19	14883.47
702.32	14984.11
702.46	15091.77
702.59	15213.48
702.72	15288.38
702.85	14850.70
702.99	14874.10
703.12	14747.72
703.25	14649.41
703.38	14494.94
703.51	14593.24
703.65	14602.60
703.78	14200.03
703.91	14480.89
704.04	14176.62
704.17	14197.69
704.31	14090.02
704.44	14134.50
704.57	13989.38
704.70	13905.12
704.83	13834.91
704.96	13830.23
705.10	13825.54
705.23	13722.56
>>>>>End Processed Spectral Data<<<<<
