SpectraSuite Data File
++++++++++++++++++++++++++++++++++++
Date: Fri Oct 25 11:34:12 EDT 2013
User: price-jones
Dark Spectrum Present: No
Reference Spectrum Present: No
Number of Sampled Component Spectra: 1
Spectrometers: USB2+H05261
Integration Time (usec): 100000 (USB2+H05261)
Spectra Averaged: 1 (USB2+H05261)
Boxcar Smoothing: 0 (USB2+H05261)
Correct for Electrical Dark: No (USB2+H05261)
Strobe/Lamp Enabled: No (USB2+H05261)
Correct for Detector Non-linearity: No (USB2+H05261)
Correct for Stray Light: No (USB2+H05261)
Number of Pixels in Processed Spectrum: 2048
>>>>>Begin Processed Spectral Data<<<<<
365.73	287.89
365.92	287.89
366.12	287.89
366.32	266.82
366.52	215.33
366.72	170.86
366.91	241.08
367.11	203.63
367.31	131.07
367.51	257.46
367.70	142.77
367.90	203.63
368.10	201.29
368.30	203.63
368.49	184.90
368.69	201.29
368.89	222.35
369.09	177.88
369.28	194.26
369.48	191.92
369.68	215.33
369.87	271.50
370.07	205.97
370.27	290.23
370.47	348.74
370.66	477.47
370.86	535.98
371.06	482.15
371.25	533.64
371.45	491.51
371.65	543.00
371.84	524.28
372.04	498.53
372.24	608.54
372.44	603.86
372.63	573.43
372.83	613.22
373.03	547.69
373.22	678.76
373.42	601.52
373.62	594.50
373.81	655.35
374.01	667.05
374.21	681.10
374.40	695.14
374.60	615.56
374.79	624.92
374.99	634.29
375.19	648.33
375.38	636.63
375.58	650.67
375.78	718.54
375.97	711.52
376.17	622.58
376.37	727.91
376.56	643.65
376.76	706.84
376.95	685.78
377.15	709.18
377.35	662.37
377.54	713.86
377.74	667.05
377.93	744.29
378.13	755.99
378.33	737.27
378.52	690.46
378.72	713.86
378.91	795.78
379.11	641.31
379.31	685.78
379.50	711.52
379.70	699.82
379.89	716.20
380.09	697.48
380.28	737.27
380.48	704.50
380.68	737.27
380.87	748.97
381.07	737.27
381.26	765.36
381.46	718.54
381.65	772.38
381.85	816.85
382.04	739.61
382.24	770.04
382.43	763.01
382.63	706.84
382.83	718.54
383.02	800.46
383.22	758.33
383.41	805.14
383.61	788.76
383.80	800.46
384.00	793.44
384.19	840.25
384.39	896.43
384.58	819.19
384.78	844.93
384.97	840.25
385.17	800.46
385.36	814.51
385.56	788.76
385.75	795.78
385.95	880.04
386.14	908.13
386.34	833.23
386.53	858.98
386.72	800.46
386.92	866.00
387.11	990.05
387.31	898.77
387.50	858.98
387.70	851.96
387.89	816.85
388.09	884.72
388.28	847.27
388.48	950.26
388.67	844.93
388.86	882.38
389.06	877.70
389.25	999.41
389.45	903.45
389.64	877.70
389.84	910.47
390.03	1027.50
390.22	992.39
390.42	938.55
390.61	903.45
390.81	924.51
391.00	1006.43
391.19	940.90
391.39	950.26
391.58	945.58
391.78	968.98
391.97	1069.62
392.16	1001.75
392.36	1011.11
392.55	1076.65
392.75	1029.84
392.94	968.98
393.13	1074.31
393.33	1034.52
393.52	1029.84
393.71	1146.86
393.91	1020.47
394.10	985.37
394.29	1078.99
394.49	1011.11
394.68	1097.71
394.88	1137.50
395.07	1095.37
395.26	1074.31
395.46	1118.78
395.65	1088.35
395.84	1139.84
396.04	1118.78
396.23	1266.23
396.42	1191.33
396.62	1207.72
396.81	1207.72
397.00	1118.78
397.19	1219.42
397.39	1130.48
397.58	1249.85
397.77	1263.89
397.97	1188.99
398.16	1282.61
398.35	1371.55
398.55	1313.04
398.74	1261.55
398.93	1193.67
399.12	1373.89
399.32	1224.10
399.51	1345.81
399.70	1350.49
399.90	1277.93
400.09	1198.35
400.28	1439.43
400.47	1413.68
400.67	1416.02
400.86	1315.38
401.05	1334.11
401.24	1315.38
401.44	1266.23
401.63	1366.87
401.82	1383.26
402.01	1406.66
402.21	1334.11
402.40	1495.60
402.59	1509.65
402.78	1488.58
402.97	1446.45
403.17	1533.05
403.36	1502.62
403.55	1514.33
403.74	1537.73
403.93	1547.09
404.13	1582.20
404.32	1570.50
404.51	1542.41
404.70	1547.09
404.89	1596.25
405.09	1626.67
405.28	1633.69
405.47	1710.93
405.66	1645.40
405.85	1640.72
406.05	1729.66
406.24	1687.53
406.43	1764.76
406.62	1799.87
406.81	1776.47
407.00	1720.29
407.20	1689.87
407.39	1795.19
407.58	1795.19
407.77	1874.77
407.96	1853.70
408.15	1933.28
408.34	1802.21
408.54	1935.62
408.73	1874.77
408.92	1956.69
409.11	1959.03
409.30	1959.03
409.49	1884.13
409.68	1884.13
409.87	1884.13
410.07	2010.52
410.26	2062.01
410.45	2050.31
410.64	2078.40
410.83	2141.59
411.02	2029.24
411.21	2181.38
411.40	2190.74
411.59	2106.48
411.78	2160.31
411.98	2141.59
412.17	2218.83
412.36	2282.02
412.55	2106.48
412.74	2176.70
412.93	2289.04
413.12	2352.24
413.31	2413.09
413.50	2408.41
413.69	2441.18
413.88	2457.56
414.07	2401.39
414.26	2445.86
414.45	2457.56
414.64	2417.77
414.83	2576.93
415.02	2572.25
415.22	2597.99
415.41	2576.93
415.60	2478.63
415.79	2520.76
415.98	2710.34
416.17	2761.83
416.36	2593.31
416.55	2689.28
416.74	2747.79
416.93	2733.75
417.12	2715.02
417.31	2888.22
417.50	2885.88
417.69	2825.03
417.88	2892.90
418.07	2963.12
418.26	2925.67
418.45	2986.52
418.64	3061.42
418.83	3014.61
419.02	3016.95
419.21	3103.55
419.39	3185.47
419.58	2935.03
419.77	2988.86
419.96	3187.81
420.15	3084.83
420.34	3105.89
420.53	2942.05
420.72	3225.26
420.91	3068.44
421.10	3178.45
421.29	3272.07
421.48	3054.40
421.67	3112.91
421.86	3136.32
422.05	3293.13
422.24	3192.49
422.43	3068.44
422.61	3131.64
422.80	3201.85
422.99	3234.62
423.18	3251.00
423.37	3314.20
423.56	3314.20
423.75	3300.16
423.94	3213.56
424.13	3136.32
424.32	3283.77
424.50	3407.82
424.69	3412.50
424.88	3431.23
425.07	3272.07
425.26	3311.86
425.45	3461.65
425.64	3243.98
425.83	3211.22
426.01	3262.71
426.20	3396.12
426.39	3456.97
426.58	3351.65
426.77	3393.78
426.96	3520.17
427.15	3447.61
427.33	3412.50
427.52	3606.77
427.71	3445.27
427.90	3557.61
428.09	3538.89
428.28	3557.61
428.46	3676.98
428.65	3604.42
428.84	3651.24
429.03	3616.13
429.22	3578.68
429.40	3791.67
429.59	3618.47
429.78	3623.15
429.97	3559.95
430.16	3730.81
430.34	3667.62
430.53	3873.59
430.72	3822.09
430.91	3899.33
431.10	3819.75
431.28	3693.37
431.47	3873.59
431.66	3880.61
431.85	3936.78
432.03	3885.29
432.22	4049.13
432.41	4007.00
432.60	3995.29
432.79	4070.19
432.97	4079.55
433.16	3997.64
433.35	4102.96
433.54	3985.93
433.72	4133.39
433.91	3990.61
434.10	4182.54
434.28	4086.58
434.47	4205.94
434.66	4198.92
434.85	4161.47
435.03	4173.18
435.22	4315.95
435.41	4386.16
435.59	4280.84
435.78	4311.27
435.97	4418.93
436.16	4397.87
436.34	4397.87
436.53	4297.22
436.72	4201.26
436.90	4201.26
437.09	4353.40
437.28	4451.70
437.46	4461.06
437.65	4444.68
437.84	4496.17
438.02	4414.25
438.21	4521.92
438.40	4559.36
438.58	4741.93
438.77	4681.07
438.96	4606.17
439.14	4723.20
439.33	4840.23
439.52	4891.72
439.70	4830.87
439.89	4919.81
440.08	4877.68
440.26	4891.72
440.45	4844.91
440.63	4840.23
440.82	5041.51
441.01	5097.69
441.19	5170.24
441.38	5203.01
441.57	5231.10
441.75	5287.27
441.94	5224.08
442.12	5268.55
442.31	5348.12
442.50	5359.83
442.68	5275.57
442.87	5142.16
443.05	5406.64
443.24	5554.09
443.43	5432.38
443.61	5434.72
443.80	5533.03
443.98	5301.31
444.17	5048.54
444.35	5561.11
444.54	5682.82
444.73	5476.85
444.91	5593.88
445.10	5568.13
445.28	5547.07
445.47	5462.81
445.65	5565.79
445.84	5600.90
446.02	5619.63
446.21	5640.69
446.39	5530.69
446.58	5659.42
446.77	5593.88
446.95	5481.53
447.14	5724.95
447.32	5526.00
447.51	5736.65
447.69	5572.82
447.88	5628.99
448.06	5687.50
448.25	5591.54
448.43	5628.99
448.62	5680.48
448.80	5692.18
448.99	5755.38
449.17	5795.17
449.36	5743.67
449.54	5849.00
449.73	6050.28
449.91	5973.05
450.10	5905.17
450.28	5921.56
450.46	5916.87
450.65	6045.60
450.83	5984.75
451.02	6097.10
451.20	5863.04
451.39	6164.97
451.57	6026.88
451.76	5998.79
451.94	5987.09
452.13	6162.63
452.31	6113.48
452.49	6022.20
452.68	6282.00
452.86	6146.25
453.05	6427.11
453.23	6136.88
453.42	6153.27
453.60	5980.07
453.78	6321.79
453.97	6150.93
454.15	6272.64
454.34	6143.91
454.52	6459.88
454.70	6413.07
454.89	6539.46
455.07	6331.15
455.26	6338.17
455.44	6626.06
455.62	6382.64
455.81	6497.33
455.99	6511.37
456.17	6679.89
456.36	6511.37
456.54	6754.79
456.73	6874.15
456.91	6857.77
457.09	6979.48
457.28	7012.24
457.46	6808.62
457.64	6913.94
457.83	6967.77
458.01	6757.13
458.19	7096.50
458.38	6738.40
458.56	7080.12
458.74	6988.84
458.93	7126.93
459.11	7119.91
459.29	7023.95
459.48	7190.13
459.66	7073.10
459.84	7143.32
460.03	7360.98
460.21	7386.73
460.39	7253.32
460.57	7169.06
460.76	7218.21
460.94	7447.58
461.12	7274.38
461.31	7382.05
461.49	7382.05
461.67	7290.77
461.85	7400.77
462.04	7639.51
462.22	7833.77
462.40	7559.93
462.59	7592.70
462.77	7447.58
462.95	7501.42
463.13	7786.96
463.32	7648.87
463.50	7644.19
463.68	7777.60
463.86	7831.43
464.05	7819.73
464.23	7552.91
464.41	7660.57
464.59	7747.17
464.78	8093.57
464.96	7843.14
465.14	7744.83
465.32	7761.22
465.50	7709.72
465.69	8042.08
465.87	7772.92
466.05	7850.16
466.23	7857.18
466.41	7625.47
466.60	8035.06
466.78	7913.35
466.96	8042.08
467.14	7969.52
467.32	7915.69
467.51	8168.47
467.69	8006.97
467.87	8105.28
468.05	8262.09
468.23	8163.79
468.41	8196.56
468.60	8212.94
468.78	8241.03
468.96	8217.62
469.14	8458.70
469.32	8554.66
469.50	8360.39
469.69	8571.04
469.87	8477.42
470.05	8662.32
470.23	8662.32
470.41	8505.51
470.59	8638.92
470.77	8641.26
470.95	8648.28
471.14	8753.60
471.32	8753.60
471.50	8645.94
471.68	8830.84
471.86	8933.82
472.04	9011.06
472.22	9153.84
472.40	8842.54
472.58	8940.85
472.77	9242.78
472.95	9088.30
473.13	9540.02
473.31	9078.94
473.49	9198.31
473.67	9268.52
473.85	9273.20
474.03	9633.64
474.21	9614.92
474.39	9500.23
474.57	9474.49
474.75	9621.94
474.93	9631.30
475.12	9563.43
475.30	9984.73
475.48	9741.31
475.66	9804.50
475.84	9755.35
476.02	10015.15
476.20	9942.60
476.38	10167.29
476.56	10527.73
476.74	10289.00
476.92	10401.34
477.10	10289.00
477.28	10368.57
477.46	10499.64
477.64	10562.84
477.82	10768.80
478.00	11033.29
478.18	10733.70
478.36	10878.81
478.54	11040.31
478.72	11140.95
478.90	11089.46
479.08	11201.80
479.26	11267.34
479.44	11571.61
479.62	11506.07
479.80	11564.59
479.98	11803.32
480.16	11957.80
480.34	11679.27
480.52	12020.99
480.70	11901.62
480.88	11843.11
481.06	11990.56
481.24	12292.49
481.41	12159.08
481.59	12341.64
481.77	12287.81
481.95	12475.06
482.13	12624.85
482.31	12688.04
482.49	12975.93
482.67	12781.67
482.85	13312.97
483.03	13109.34
483.21	13261.48
483.39	13540.00
483.57	13411.27
483.74	13537.66
483.92	13500.21
484.10	13373.82
484.28	13706.18
484.46	13933.21
484.64	14291.31
484.82	14125.13
485.00	14092.37
485.18	14295.99
485.35	14504.30
485.53	14560.47
485.71	14792.19
485.89	14890.49
486.07	15096.46
486.25	15279.02
486.43	15192.42
486.61	15459.24
486.78	15517.75
486.96	15541.16
487.14	15681.59
487.32	15566.90
487.50	16011.60
487.68	15974.16
487.85	16194.17
488.03	16187.14
488.21	16688.02
488.39	16477.37
488.57	16856.54
488.75	16542.91
488.92	17074.21
489.10	17071.87
489.28	17338.69
489.46	17277.83
489.64	17352.73
489.81	17542.32
489.99	17528.27
490.17	17790.41
490.35	18073.62
490.53	18068.94
490.70	18244.48
490.88	18108.72
491.06	18127.45
491.24	18455.12
491.41	18771.10
491.59	18567.47
491.77	18892.80
491.95	18890.46
492.13	18986.43
492.30	19075.37
492.48	19307.08
492.66	19138.56
492.84	19449.85
493.01	19693.27
493.19	19641.78
493.37	20084.14
493.54	19889.87
493.72	20203.50
493.90	19981.15
494.08	20542.88
494.25	20751.19
494.43	20322.87
494.61	20563.95
494.79	20311.17
494.96	20776.94
495.14	20912.69
495.32	21266.11
495.49	21130.36
495.67	21163.12
495.85	21575.06
496.02	21399.52
496.20	21818.47
496.38	21797.41
496.55	22033.80
496.73	22335.73
496.91	22003.38
497.09	22270.20
497.26	22148.49
497.44	22427.01
497.62	22548.72
497.79	22590.85
497.97	22558.08
498.14	23016.83
498.32	22965.34
498.50	23117.47
498.67	23293.01
498.85	23005.13
499.03	23070.66
499.20	23566.85
499.38	23864.10
499.56	23744.73
499.73	23969.43
499.91	23817.29
500.08	24261.99
500.26	23548.13
500.44	24002.19
500.61	23967.09
500.79	24229.23
500.97	24437.53
501.14	24549.88
501.32	24690.31
501.49	24386.04
501.67	24603.71
501.84	24849.47
502.02	24659.88
502.20	24816.70
502.37	25195.87
502.55	25167.78
502.72	25219.27
502.90	25345.66
503.07	25078.84
503.25	25462.69
503.43	25376.09
503.60	25369.07
503.78	25914.41
503.95	25848.88
504.13	25926.11
504.30	26050.16
504.48	25759.94
504.65	26015.05
504.83	26387.20
505.01	26298.26
505.18	26628.27
505.36	26658.70
505.53	26043.14
505.71	26726.58
505.88	26888.07
506.06	26635.30
506.23	26977.01
506.41	26862.33
506.58	27239.15
506.76	27274.26
506.93	27442.78
507.11	27524.70
507.28	27267.24
507.46	27288.31
507.63	27555.13
507.81	27765.78
507.98	27414.69
508.16	27833.65
508.33	27660.45
508.50	27875.78
508.68	28112.17
508.85	27976.42
509.03	28273.67
509.20	28182.39
509.38	28680.92
509.55	28339.21
509.73	28353.25
509.90	28709.01
510.08	28329.84
510.25	29015.62
510.42	29085.84
510.60	29252.02
510.77	29036.69
510.95	29137.33
511.12	29039.03
511.30	29268.40
511.47	29467.34
511.64	29284.78
511.82	29837.15
511.99	29778.64
512.17	29701.40
512.34	30185.89
512.51	30045.46
512.69	30005.67
512.86	30136.74
513.04	30382.49
513.21	29956.52
513.38	30080.56
513.56	30260.79
513.73	30216.32
513.90	30375.47
514.08	30703.15
514.25	30529.95
514.43	30700.81
514.60	30621.23
514.77	30639.95
514.95	30625.91
515.12	30796.77
515.29	30897.41
515.47	31363.18
515.64	31328.07
515.81	31157.21
515.99	31351.48
516.16	31948.31
516.33	31318.71
516.51	31805.54
516.68	31878.10
516.85	31505.95
517.03	31798.52
517.20	32081.72
517.37	31625.32
517.54	31826.60
517.72	32048.96
517.89	32009.17
518.06	32503.02
518.24	32107.47
518.41	32006.83
518.58	32687.92
518.75	32201.09
518.93	32723.03
519.10	32636.43
519.27	32603.66
519.45	32512.38
519.62	32982.83
519.79	32870.48
519.96	32954.74
520.14	33102.20
520.31	33055.39
520.48	32718.35
520.65	32968.79
520.83	33420.51
521.00	33472.00
521.17	33549.24
521.34	33703.71
521.52	33813.72
521.69	33993.94
521.86	34061.82
522.03	33869.89
522.20	33942.45
522.38	34375.45
522.55	34087.56
522.72	34373.11
522.89	34391.83
523.07	34096.92
523.24	34117.99
523.41	34560.35
523.58	34188.21
523.75	34452.69
523.92	34312.25
524.10	34525.24
524.27	34941.86
524.44	34672.70
524.61	34913.77
524.78	34852.92
524.96	34995.69
525.13	35047.18
525.30	35026.12
525.47	34918.45
525.64	35225.06
525.81	35129.10
525.98	35599.55
526.16	35438.05
526.33	35606.57
526.50	35847.64
526.67	35283.58
526.84	35419.33
527.01	35606.57
527.18	35578.48
527.36	35878.07
527.53	35660.40
527.70	36023.19
527.87	36699.60
528.04	35857.01
528.21	35988.08
528.38	36105.10
528.55	36116.81
528.72	36182.34
528.89	36123.83
529.07	36879.82
529.24	36416.40
529.41	36711.30
529.58	36594.28
529.75	36400.01
529.92	36900.89
530.09	36500.65
530.26	36341.50
530.43	36671.51
530.60	36891.52
530.77	36601.30
530.94	36680.88
531.11	36886.84
531.28	37268.35
531.46	37031.96
531.63	37708.37
531.80	37001.53
531.97	37163.03
532.14	37226.22
532.31	37308.14
532.48	37460.27
532.65	37631.13
532.82	37654.54
532.99	37745.82
533.16	37174.73
533.33	37883.91
533.50	38160.09
533.67	37883.91
533.84	38010.30
534.01	37635.81
534.18	37923.70
534.35	38314.57
534.52	38223.29
534.69	37738.80
534.86	38457.34
535.03	38045.41
535.20	38485.43
535.37	37668.58
535.54	38726.50
535.71	38047.75
535.88	38710.12
536.05	38555.64
536.22	38639.90
536.38	38534.58
536.55	38714.80
536.72	38686.71
536.89	38286.48
537.06	38696.08
537.23	39049.50
537.40	38684.37
537.57	38983.96
537.74	38714.80
537.91	39505.90
538.08	39431.01
538.25	38906.73
538.42	39487.18
538.59	39253.12
538.75	39091.63
538.92	39636.97
539.09	40112.10
539.26	39611.23
539.43	39311.64
539.60	39838.26
539.77	39538.67
539.94	39707.19
540.11	39576.12
540.28	39587.82
540.44	39604.20
540.61	39679.10
540.78	39786.77
540.95	39889.75
541.12	39484.84
541.29	39739.96
541.46	39924.86
541.62	39856.98
541.79	40273.60
541.96	39744.64
542.13	40224.45
542.30	39945.92
542.47	40414.03
542.63	40299.34
542.80	40399.99
542.97	40924.27
543.14	40849.37
543.31	40935.97
543.48	40383.60
543.64	41514.08
543.81	40905.54
543.98	40840.01
544.15	40570.85
544.32	40690.21
544.48	41511.74
544.65	40950.01
544.82	41352.58
544.99	40882.14
545.16	40945.33
545.32	41261.30
545.49	41565.57
545.66	41497.70
545.83	41656.85
546.00	41530.47
546.16	41347.90
546.33	41368.97
546.50	41324.50
546.67	41443.87
546.83	41273.01
547.00	41265.99
547.17	41532.81
547.34	41834.74
547.50	42274.76
547.67	42295.82
547.84	41951.76
548.00	42349.65
548.17	42389.44
548.34	42637.54
548.51	42326.25
548.67	42024.32
548.84	41975.17
549.01	42099.22
549.18	42019.64
549.34	42464.34
549.51	42792.01
549.68	42581.37
549.84	42522.85
550.01	42113.26
550.18	42323.91
550.34	42611.79
550.51	42948.83
550.68	42941.81
550.84	42412.85
551.01	42377.74
551.18	42644.56
551.34	42796.70
551.51	42937.13
551.68	42876.27
551.84	42859.89
552.01	42801.38
552.18	42848.19
552.34	42672.65
552.51	43005.00
552.68	42878.61
552.84	43009.68
553.01	42955.85
553.18	43056.50
553.34	42777.97
553.51	43313.95
553.67	43070.54
553.84	43508.22
554.01	43304.59
554.17	43491.83
554.34	43533.96
554.51	43107.99
554.67	43665.03
554.84	43522.26
555.00	43346.72
555.17	43878.02
555.33	43454.39
555.50	43672.06
555.67	43789.08
555.83	43487.15
556.00	43931.86
556.16	44308.68
556.33	43927.17
556.50	43885.04
556.66	43966.96
556.83	43622.90
556.99	44212.72
557.16	44102.71
557.32	44016.11
557.49	44388.26
557.65	43562.05
557.82	43908.45
557.98	43828.87
558.15	44002.07
558.32	43742.27
558.48	43817.17
558.65	44502.95
558.81	44432.73
558.98	44208.04
559.14	43725.89
559.31	44268.89
559.47	44327.41
559.64	44505.29
559.80	44257.19
559.97	44463.16
560.13	44233.78
560.30	44467.84
560.46	44774.45
560.63	44526.35
560.79	44580.18
560.96	44755.72
561.12	44568.48
561.29	44781.47
561.45	44311.02
561.61	44643.38
561.78	44830.62
561.94	44535.71
562.11	44360.17
562.27	44568.48
562.44	44638.70
562.60	44839.98
562.77	44477.20
562.93	44374.22
563.10	45188.72
563.26	44479.54
563.42	45177.02
563.59	44872.75
563.75	44891.48
563.92	44701.89
564.08	44992.12
564.24	45186.38
564.41	44608.27
564.57	44685.51
564.74	45242.56
564.90	44884.45
565.07	44928.92
565.23	44856.37
565.39	45099.78
565.56	45048.29
565.72	45106.80
565.88	44751.04
566.05	45200.43
566.21	45141.91
566.38	44732.32
566.54	45162.98
566.70	44863.39
566.87	45277.66
567.03	45195.74
567.19	45528.10
567.36	44868.07
567.52	45221.49
567.68	45317.45
567.85	45380.65
568.01	45359.58
568.17	45406.39
568.34	45406.39
568.50	45387.67
568.66	45301.07
568.83	45504.70
568.99	45027.23
569.15	45443.84
569.32	45322.13
569.48	44989.78
569.64	45933.01
569.81	45394.69
569.97	45523.42
570.13	45799.60
570.30	45235.53
570.46	45563.21
570.62	45471.93
570.78	45607.68
570.95	45399.37
571.11	45745.77
571.27	45652.15
571.43	45722.37
571.60	45397.03
571.76	45546.82
571.92	45659.17
572.09	45289.37
572.25	45275.32
572.41	45371.28
572.57	45897.91
572.74	45897.91
572.90	45748.11
573.06	45797.26
573.22	45808.96
573.38	45574.91
573.55	45827.69
573.71	45956.42
573.87	45696.62
574.03	45432.14
574.20	46291.12
574.36	45869.82
574.52	45780.88
574.68	46211.54
574.84	46047.70
575.01	46195.15
575.17	45703.64
575.33	46188.13
575.49	45687.26
575.65	46679.64
575.82	45607.68
575.98	45607.68
576.14	45886.20
576.30	46288.77
576.46	46426.87
576.62	45832.37
576.79	45928.33
576.95	45593.64
577.11	45345.54
577.27	46398.78
577.43	45766.84
577.59	46080.47
577.75	45841.73
577.92	45792.58
578.08	45792.58
578.24	45785.56
578.40	46248.99
578.56	46068.76
578.72	46291.12
578.88	46122.60
579.04	46185.79
579.21	46085.15
579.37	45933.01
579.53	45879.18
579.69	45780.88
579.85	45595.98
580.01	46108.55
580.17	45738.75
580.33	46499.42
580.49	46108.55
580.65	46012.59
580.82	46028.98
580.98	46085.15
581.14	45593.64
581.30	46239.62
581.46	46040.68
581.62	45771.52
581.78	45933.01
581.94	46188.13
582.10	46607.09
582.26	46211.54
582.42	45944.72
582.58	46246.65
582.74	46534.53
582.90	46127.28
583.06	46447.93
583.22	46052.38
583.38	46192.81
583.54	45907.27
583.70	46291.12
583.86	46223.24
584.02	46138.98
584.18	46089.83
584.34	46433.89
584.50	46642.20
584.66	46440.91
584.82	46532.19
584.98	46878.59
585.14	46351.97
585.30	45942.38
585.46	46185.79
585.62	46211.54
585.78	46129.62
585.94	45855.78
586.10	45944.72
586.26	45827.69
586.42	46141.32
586.58	46447.93
586.74	46234.94
586.90	46274.73
587.06	46220.90
587.22	46031.32
587.38	45944.72
587.54	46525.17
587.70	46663.26
587.86	46539.21
588.02	46232.60
588.18	46124.94
588.34	46248.99
588.49	46740.50
588.65	45991.53
588.81	46082.81
588.97	45851.09
589.13	46017.27
589.29	46562.62
589.45	46541.55
589.61	46611.77
589.77	46808.37
589.93	46473.68
590.08	46412.82
590.24	47056.47
590.40	46866.89
590.56	46721.77
590.72	46782.63
590.88	46532.19
591.04	46834.12
591.20	46939.44
591.35	46761.56
591.51	47210.95
591.67	46939.44
591.83	46890.29
591.99	46665.60
592.15	46267.71
592.31	46586.02
592.46	46700.71
592.62	46880.93
592.78	46576.66
592.94	46857.52
593.10	47192.22
593.26	47030.72
593.41	46995.62
593.57	46567.30
593.73	46962.85
593.89	46941.78
594.05	47311.59
594.20	46656.24
594.36	47112.64
594.52	47065.83
594.68	46738.16
594.84	46677.30
594.99	47327.97
595.15	46946.47
595.31	47297.55
595.47	46909.02
595.62	46960.51
595.78	46681.98
595.94	47131.37
596.10	47068.17
596.25	47531.60
596.41	47173.50
596.57	46880.93
596.73	46967.53
596.88	47430.96
597.04	47070.51
597.20	47246.05
597.36	47075.19
597.51	47143.07
597.67	46920.72
597.83	46681.98
597.99	47065.83
598.14	46665.60
598.30	47058.81
598.46	46946.47
598.61	47812.46
598.77	47119.66
598.93	47117.32
599.09	47337.33
599.24	47782.04
599.40	47227.33
599.56	46986.25
599.71	47327.97
599.87	47550.32
600.03	47697.78
600.18	47547.98
600.34	47222.65
600.50	47157.11
600.65	47112.64
600.81	47021.36
600.97	47061.15
601.12	47337.33
601.28	47217.97
601.44	47065.83
601.59	47349.04
601.75	46930.08
601.91	47000.30
602.06	47152.43
602.22	47150.09
602.37	47229.67
602.53	47342.02
602.69	47302.23
602.84	47089.24
603.00	47028.38
603.16	47281.16
603.31	46883.27
603.47	47510.53
603.62	47339.68
603.78	47416.91
603.94	47260.10
604.09	46848.16
604.25	46937.10
604.40	46850.50
604.56	47423.93
604.71	47833.53
604.87	47220.31
605.03	46855.18
605.18	47594.79
605.34	47007.32
605.49	46944.12
605.65	47208.61
605.80	46829.44
605.96	46948.81
606.12	47037.75
606.27	47461.38
606.43	46967.53
606.58	47503.51
606.74	46930.08
606.89	47145.41
607.05	47784.38
607.20	47288.18
607.36	46995.62
607.51	46747.52
607.67	47035.41
607.82	46623.47
607.98	46780.29
608.13	46789.65
608.29	46993.28
608.44	47110.30
608.60	46541.55
608.75	47203.92
608.91	47089.24
609.06	46630.49
609.22	47342.02
609.37	46712.41
609.53	46742.84
609.68	46960.51
609.84	46871.57
609.99	47297.55
610.15	46923.06
610.30	46789.65
610.46	46693.69
610.61	46754.54
610.76	47068.17
610.92	46480.70
611.07	46918.38
611.23	46632.83
611.38	46897.31
611.54	46759.22
611.69	46894.97
611.84	46852.84
612.00	46696.03
612.15	46511.13
612.31	46995.62
612.46	46335.59
612.62	46775.61
612.77	46586.02
612.92	46972.21
613.08	46220.90
613.23	46670.28
613.39	46665.60
613.54	46454.95
613.69	47033.07
613.85	46382.40
614.00	46548.57
614.15	46541.55
614.31	46284.09
614.46	46267.71
614.62	46225.58
614.77	46487.72
614.92	46064.08
615.08	46747.52
615.23	46483.04
615.38	46382.40
615.54	46536.87
615.69	46300.48
615.84	46298.14
616.00	46843.48
616.15	46672.62
616.30	46600.07
616.46	46368.35
616.61	46153.02
616.76	46614.11
616.92	46443.25
617.07	46354.31
617.22	45886.20
617.37	45813.65
617.53	46227.92
617.68	46314.52
617.83	46672.62
617.99	46335.59
618.14	46649.22
618.29	46040.68
618.45	45858.12
618.60	45970.46
618.75	45624.06
618.90	45895.56
619.06	45982.16
619.21	45918.97
619.36	46335.59
619.51	45516.40
619.67	45647.47
619.82	45815.99
619.97	46340.27
620.12	45666.19
620.28	45839.39
620.43	45823.01
620.58	45724.71
620.73	45883.86
620.89	45989.19
621.04	45886.20
621.19	46136.64
621.34	45483.63
621.49	45794.92
621.65	45904.93
621.80	45851.09
621.95	45710.66
622.10	45785.56
622.25	45876.84
622.41	45893.22
622.56	45425.12
622.71	45251.92
622.86	45340.86
623.01	45542.14
623.16	45399.37
623.32	45432.14
623.47	45109.14
623.62	45584.27
623.77	45375.97
623.92	45855.78
624.07	45549.17
624.23	45481.29
624.38	45624.06
624.53	45029.57
624.68	45324.47
624.83	44933.60
624.98	45216.81
625.13	44959.35
625.29	44641.04
625.44	44985.10
625.59	45024.89
625.74	45624.06
625.89	44659.76
626.04	44896.16
626.19	44921.90
626.34	44912.54
626.49	44741.68
626.65	44418.69
626.80	44416.35
626.95	44575.50
627.10	44636.36
627.25	44900.84
627.40	44744.02
627.55	44559.12
627.70	44313.36
627.85	45340.86
628.00	45277.66
628.15	44781.47
628.30	44360.17
628.45	44083.99
628.60	44355.49
628.76	44252.51
628.91	44563.80
629.06	44217.40
629.21	43999.73
629.36	44201.02
629.51	43931.86
629.66	44547.42
629.81	44285.28
629.96	44392.94
630.11	44301.66
630.26	44369.54
630.41	44100.37
630.56	44397.62
630.71	44107.40
630.86	44252.51
631.01	44053.56
631.16	43772.70
631.31	43714.19
631.46	44385.92
631.61	44601.25
631.76	44044.20
631.91	43908.45
632.06	44226.76
632.21	44194.00
632.36	44533.37
632.51	43540.99
632.66	44158.89
632.81	43831.21
632.96	44065.27
633.10	43606.52
633.25	43796.10
633.40	43686.10
633.55	44570.82
633.70	43744.61
633.85	43550.35
634.00	43447.36
634.15	43536.30
634.30	43526.94
634.45	43765.68
634.60	43871.00
634.75	43569.07
634.90	43409.92
635.05	43838.23
635.19	43452.05
635.34	43746.95
635.49	43342.04
635.64	43758.66
635.79	43697.80
635.94	43620.56
636.09	43452.05
636.24	43800.79
636.39	43335.02
636.53	43728.23
636.68	43012.02
636.83	43262.46
636.98	43445.02
637.13	42866.91
637.28	43210.97
637.43	42925.42
637.57	42560.30
637.72	43070.54
637.87	43220.33
638.02	43171.18
638.17	43021.39
638.32	42686.69
638.46	42941.81
638.61	42518.17
638.76	43086.92
638.91	42820.10
639.06	43182.88
639.20	42862.23
639.35	42679.67
639.50	42590.73
639.65	42499.45
639.80	42490.09
639.94	42969.90
640.09	42632.86
640.24	43192.25
640.39	42728.82
640.54	42419.87
640.68	42506.47
640.83	42763.93
640.98	42562.64
641.13	42335.61
641.27	42433.91
641.42	42642.22
641.57	42564.98
641.72	42557.96
641.86	42092.19
642.01	42057.09
642.16	42497.11
642.31	41682.60
642.45	42361.36
642.60	42155.39
642.75	41940.06
642.90	42714.78
643.04	42288.80
643.19	42148.37
643.34	42298.16
643.48	41790.27
643.63	41785.58
643.78	42354.33
643.93	42485.40
644.07	42288.80
644.22	42284.12
644.37	41743.45
644.51	41717.71
644.66	41907.29
644.81	42426.89
644.95	42000.91
645.10	41937.72
645.25	42122.62
645.39	41556.21
645.54	42036.02
645.69	41619.41
645.83	41612.38
645.98	41411.10
646.13	41823.03
646.27	41511.74
646.42	41305.77
646.57	41347.90
646.71	41598.34
646.86	42171.77
647.00	41750.48
647.15	41677.92
647.30	41586.64
647.44	41691.96
647.59	41806.65
647.74	41226.20
647.88	41567.91
648.03	41610.04
648.17	41698.98
648.32	41909.63
648.47	41549.19
648.61	41350.24
648.76	41069.38
648.90	41127.89
649.05	41249.60
649.20	41347.90
649.34	41214.49
649.49	41312.80
649.63	40971.08
649.78	41750.48
649.92	40765.11
650.07	41137.26
650.21	41123.21
650.36	41633.45
650.51	41062.36
650.65	41443.87
650.80	41027.25
650.94	41223.86
651.09	41240.24
651.23	40634.04
651.38	41118.53
651.52	40875.12
651.67	40470.20
651.81	40514.67
651.96	40884.48
652.10	40442.12
652.25	40549.78
652.39	40725.32
652.54	40917.25
652.68	40938.31
652.83	40535.74
652.97	41015.55
653.12	41074.06
653.26	40442.12
653.41	40465.52
653.55	40636.38
653.70	40411.69
653.84	40580.21
653.99	40825.96
654.13	40664.47
654.27	40289.98
654.42	40477.22
654.56	40411.69
654.71	40020.82
654.85	40463.18
655.00	40505.31
655.14	40676.17
655.29	40531.06
655.43	40666.81
655.57	40128.48
655.72	40060.61
655.86	40037.20
656.01	39749.32
656.15	40205.72
656.30	40119.12
656.44	40369.56
656.58	39903.79
656.73	40252.53
656.87	39569.10
657.01	39606.55
657.16	40062.95
657.30	39997.41
657.45	39810.17
657.59	39526.97
657.73	39732.93
657.88	39854.64
658.02	39557.39
658.16	40130.83
658.31	40112.10
658.45	39838.26
658.60	39840.60
658.74	39599.52
658.88	39431.01
659.03	38969.92
659.17	39342.06
659.31	39318.66
659.46	39423.98
659.60	39168.87
659.74	39541.01
659.89	39559.73
660.03	39005.03
660.17	38803.74
660.32	38930.13
660.46	39103.33
660.60	38728.84
660.74	38803.74
660.89	38990.98
661.03	38693.74
661.17	38679.69
661.32	38572.03
661.46	38998.01
661.60	38663.31
661.74	38419.89
661.89	38579.05
662.03	38443.30
662.17	38183.50
662.31	38330.95
662.46	38618.84
662.60	38230.31
662.74	38099.24
662.88	37734.12
663.03	37888.59
663.17	37900.29
663.31	37574.96
663.45	37956.47
663.60	38443.30
663.74	37759.86
663.88	37947.11
664.02	37572.62
664.17	37949.45
664.31	37818.38
664.45	37324.52
664.59	37376.01
664.73	37773.91
664.88	37322.18
665.02	37046.00
665.16	37088.13
665.30	37312.82
665.44	37242.60
665.59	37069.40
665.73	36552.15
665.87	37146.64
666.01	37097.49
666.15	37277.71
666.29	37006.21
666.44	36844.71
666.58	36348.52
666.72	36594.28
666.86	36811.95
667.00	36676.19
667.14	36236.17
667.28	36435.12
667.43	36318.09
667.57	36238.51
667.71	36503.00
667.85	36425.76
667.99	36479.59
668.13	36374.27
668.27	35880.41
668.41	36135.53
668.56	35793.81
668.70	35700.19
668.84	35337.41
668.98	35658.06
669.12	35564.44
669.26	35718.92
669.40	35793.81
669.54	35906.16
669.68	35522.31
669.82	35079.95
669.96	35204.00
670.10	35077.61
670.25	35105.70
670.39	35311.66
670.53	35571.46
670.67	34824.83
670.81	35126.76
670.95	35225.06
671.09	34890.37
671.23	34632.91
671.37	34836.53
671.51	34834.19
671.65	34686.74
671.79	34876.32
671.93	34562.69
672.07	34604.82
672.21	34309.91
672.35	34183.52
672.49	34499.50
672.63	34347.36
672.77	34209.27
672.91	33895.64
673.05	34244.38
673.19	33921.38
673.33	33570.30
673.47	34017.35
673.61	33455.62
673.75	33722.44
673.89	33312.84
674.03	33315.19
674.17	33397.10
674.31	33422.85
674.45	33177.09
674.59	33287.10
674.73	32783.88
674.87	32795.59
675.01	32683.24
675.15	33027.30
675.29	32219.81
675.43	32648.13
675.56	32503.02
675.70	32566.21
675.84	32091.09
675.98	31110.40
676.12	32336.84
676.26	32622.39
676.40	31950.65
676.54	31854.69
676.68	31857.03
676.82	31466.16
676.96	32072.36
677.10	31807.88
677.23	31803.20
677.37	31346.79
677.51	31494.25
677.65	30899.75
677.79	30953.58
677.93	30829.54
678.07	31189.98
678.21	30646.97
678.34	30714.85
678.48	30466.75
678.62	30326.32
678.76	30487.82
678.90	30473.78
679.04	30354.41
679.18	30340.36
679.31	30075.88
679.45	30005.67
679.59	29951.84
679.73	29923.75
679.87	29462.66
680.00	29563.31
680.14	30005.67
680.28	29649.91
680.42	29399.47
680.56	29076.48
680.70	28940.72
680.83	28994.56
680.97	28933.70
681.11	29193.50
681.25	28819.02
681.39	28325.16
681.52	28811.99
681.66	28348.57
681.80	28074.73
681.94	27807.90
682.07	27772.80
682.21	27791.52
682.35	27639.39
682.49	27470.87
682.62	27969.40
682.76	27798.54
682.90	27487.25
683.04	27349.16
683.17	27365.54
683.31	27538.74
683.45	27234.47
683.59	26977.01
683.72	26794.45
683.86	26955.95
684.00	26955.95
684.13	26803.82
684.27	26560.40
684.41	26682.11
684.55	26539.33
684.68	26670.40
684.82	26190.59
684.96	26029.10
685.09	26403.58
685.23	25832.49
685.37	26504.23
685.50	26490.18
685.64	26197.62
685.78	25773.98
685.91	25516.52
686.05	25170.12
686.19	25125.65
686.32	25249.70
686.46	24645.84
686.60	24891.60
686.73	25015.65
686.87	24879.89
687.01	24856.49
687.14	24716.06
687.28	24430.51
687.42	24760.53
687.55	24519.45
687.69	24184.76
687.82	23976.45
687.96	24322.85
688.10	24308.80
688.23	24123.90
688.37	23805.59
688.50	24357.96
688.64	24081.77
688.78	23784.52
688.91	23541.11
689.05	23697.92
689.18	23225.14
689.32	23190.03
689.46	22848.31
689.59	23351.52
689.73	23501.32
689.86	23082.36
690.00	22883.42
690.13	23171.30
690.27	22717.24
690.41	22616.60
690.54	22452.76
690.68	22520.63
690.81	22490.21
690.95	22368.50
691.08	22267.86
691.22	21865.28
691.35	21879.33
691.49	22057.21
691.62	21783.37
691.76	21551.65
691.89	21500.16
692.03	21242.70
692.16	21062.48
692.30	21390.16
692.43	21200.57
692.57	20837.79
692.70	20978.22
692.84	21132.70
692.97	20479.69
693.11	20449.26
693.24	20603.74
693.38	20741.83
693.51	20563.95
693.65	20350.96
693.78	20105.20
693.92	20264.36
694.05	20306.49
694.19	19953.07
694.32	20212.87
694.45	20060.73
694.59	20140.31
694.72	19812.63
694.86	19473.26
694.99	19487.30
695.13	19033.24
695.26	19145.58
695.39	19112.81
695.53	19218.14
695.66	19096.43
695.80	18998.13
695.93	18993.45
696.07	18874.08
696.20	18307.67
696.33	18469.17
696.47	18274.90
696.60	18401.29
696.73	18551.09
696.87	18614.28
697.00	18342.78
697.14	18185.96
697.27	18043.19
697.40	17987.02
697.54	18183.62
697.67	17853.61
697.80	18059.57
697.94	17745.94
698.07	17575.08
698.21	17420.61
698.34	17788.07
698.47	17406.56
698.61	17137.40
698.74	17188.89
698.87	17118.68
699.01	16938.46
699.14	16812.07
699.27	17181.87
699.40	16751.21
699.54	16938.46
699.67	16505.46
699.80	16601.42
699.94	16468.01
700.07	16582.70
700.20	16229.27
700.34	15878.19
700.47	16421.20
700.60	16400.13
700.73	16350.98
700.87	15859.47
701.00	15892.24
701.13	15803.30
701.26	15499.03
701.40	15681.59
701.53	15426.47
701.66	15433.49
701.79	15520.09
701.93	15061.35
702.06	14998.15
702.19	15047.30
702.32	15147.95
702.46	15295.40
702.59	15297.74
702.72	15044.96
702.85	14941.98
702.99	14799.21
703.12	14604.94
703.25	14618.99
703.38	14394.29
703.51	14508.98
703.65	14572.18
703.78	14345.14
703.91	14143.86
704.04	13734.26
704.17	14207.05
704.31	14211.73
704.44	13928.53
704.57	13790.44
704.70	13799.80
704.83	13785.76
704.96	13678.09
705.10	13652.34
705.23	13406.59
>>>>>End Processed Spectral Data<<<<<
