SpectraSuite Data File
++++++++++++++++++++++++++++++++++++
Date: Fri Oct 25 11:34:28 EDT 2013
User: price-jones
Dark Spectrum Present: No
Reference Spectrum Present: No
Number of Sampled Component Spectra: 1
Spectrometers: USB2+H05261
Integration Time (usec): 100000 (USB2+H05261)
Spectra Averaged: 1 (USB2+H05261)
Boxcar Smoothing: 0 (USB2+H05261)
Correct for Electrical Dark: No (USB2+H05261)
Strobe/Lamp Enabled: No (USB2+H05261)
Correct for Detector Non-linearity: No (USB2+H05261)
Correct for Stray Light: No (USB2+H05261)
Number of Pixels in Processed Spectrum: 2048
>>>>>Begin Processed Spectral Data<<<<<
365.73	337.04
365.92	337.04
366.12	337.04
366.32	173.20
366.52	215.33
366.72	156.82
366.91	177.88
367.11	210.65
367.31	215.33
367.51	175.54
367.70	152.13
367.90	269.16
368.10	184.90
368.30	138.09
368.49	198.95
368.69	184.90
368.89	147.45
369.09	255.12
369.28	250.44
369.48	205.97
369.68	227.03
369.87	243.42
370.07	234.05
370.27	292.57
370.47	365.12
370.66	423.64
370.86	517.26
371.06	500.87
371.25	507.90
371.45	528.96
371.65	535.98
371.84	531.30
372.04	601.52
372.24	554.71
372.44	559.39
372.63	568.75
372.83	557.05
373.03	631.94
373.22	566.41
373.42	613.22
373.62	528.96
373.81	603.86
374.01	634.29
374.21	622.58
374.40	676.41
374.60	711.52
374.79	631.94
374.99	603.86
375.19	664.71
375.38	615.56
375.58	664.71
375.78	655.35
375.97	631.94
376.17	720.88
376.37	641.31
376.56	638.97
376.76	599.18
376.95	660.03
377.15	657.69
377.35	599.18
377.54	695.14
377.74	699.82
377.93	592.16
378.13	585.13
378.33	732.59
378.52	662.37
378.72	662.37
378.91	709.18
379.11	697.48
379.31	685.78
379.50	650.67
379.70	648.33
379.89	725.57
380.09	655.35
380.28	730.25
380.48	737.27
380.68	697.48
380.87	669.39
381.07	786.42
381.26	711.52
381.46	823.87
381.65	774.72
381.85	760.67
382.04	732.59
382.24	760.67
382.43	706.84
382.63	772.38
382.83	711.52
383.02	763.01
383.22	809.83
383.41	842.59
383.61	774.72
383.80	777.06
384.00	826.21
384.19	767.70
384.39	758.33
384.58	798.12
384.78	767.70
384.97	814.51
385.17	821.53
385.36	744.29
385.56	760.67
385.75	863.66
385.95	868.34
386.14	779.40
386.34	840.25
386.53	929.19
386.72	821.53
386.92	877.70
387.11	819.19
387.31	866.00
387.50	898.77
387.70	858.98
387.89	833.23
388.09	861.32
388.28	856.64
388.48	917.49
388.67	933.87
388.86	952.60
389.06	919.83
389.25	854.30
389.45	966.64
389.64	1008.77
389.84	887.06
390.03	884.72
390.22	905.79
390.42	985.37
390.61	1018.13
390.81	908.13
391.00	1006.43
391.19	1027.50
391.39	910.47
391.58	1057.92
391.78	1025.15
391.97	938.55
392.16	1039.20
392.36	1062.60
392.55	992.39
392.75	1128.14
392.94	915.15
393.13	1067.28
393.33	1067.28
393.52	1064.94
393.71	1095.37
393.91	1060.26
394.10	1081.33
394.29	1109.41
394.49	1114.10
394.68	1025.15
394.88	1097.71
395.07	1104.73
395.26	1107.07
395.46	1156.22
395.65	1165.59
395.84	1093.03
396.04	1203.04
396.23	1188.99
396.42	1184.31
396.62	1210.06
396.81	1132.82
397.00	1123.46
397.19	1149.20
397.39	1151.54
397.58	1221.76
397.77	1228.78
397.97	1228.78
398.16	1299.00
398.35	1207.72
398.55	1238.14
398.74	1261.55
398.93	1259.21
399.12	1270.91
399.32	1273.25
399.51	1343.47
399.70	1334.11
399.90	1299.00
400.09	1296.66
400.28	1310.70
400.47	1411.34
400.67	1362.19
400.86	1427.73
401.05	1338.79
401.24	1369.21
401.44	1448.79
401.63	1387.94
401.82	1345.81
402.01	1331.76
402.21	1406.66
402.40	1385.60
402.59	1448.79
402.78	1462.83
402.97	1385.60
403.17	1483.90
403.36	1500.28
403.55	1476.88
403.74	1488.58
403.93	1514.33
404.13	1551.78
404.32	1565.82
404.51	1537.73
404.70	1486.24
404.89	1579.86
405.09	1572.84
405.28	1563.48
405.47	1598.59
405.66	1708.59
405.85	1675.82
406.05	1619.65
406.24	1720.29
406.43	1694.55
406.62	1715.61
406.81	1739.02
407.00	1654.76
407.20	1652.42
407.39	1717.95
407.58	1837.32
407.77	1846.68
407.96	1858.39
408.15	1832.64
408.34	1724.97
408.54	2017.54
408.73	1764.76
408.92	1905.20
409.11	1856.04
409.30	1865.41
409.49	1874.77
409.68	1886.47
409.87	1937.96
410.07	1930.94
410.26	1994.14
410.45	1947.33
410.64	2040.95
410.83	1984.77
411.02	1975.41
411.21	2017.54
411.40	2059.67
411.59	2054.99
411.78	2132.23
411.98	2141.59
412.17	2153.29
412.36	2216.49
412.55	2230.53
412.74	2291.38
412.93	2310.11
413.12	2218.83
413.31	2342.88
413.50	2214.15
413.69	2345.22
413.88	2314.79
414.07	2403.73
414.26	2434.16
414.45	2342.88
414.64	2368.62
414.83	2527.78
415.02	2401.39
415.22	2523.10
415.41	2506.71
415.60	2579.27
415.79	2642.46
415.98	2600.34
416.17	2654.17
416.36	2597.99
416.55	2654.17
416.74	2754.81
416.93	2679.91
417.12	2825.03
417.31	2775.88
417.50	2782.90
417.69	2752.47
417.88	2857.79
418.07	2935.03
418.26	2925.67
418.45	2862.48
418.64	2862.48
418.83	2855.45
419.02	2869.50
419.21	2792.26
419.39	3019.29
419.58	2918.65
419.77	2918.65
419.96	2963.12
420.15	2960.78
420.34	3012.27
420.53	3000.57
420.72	3169.09
420.91	3162.06
421.10	3148.02
421.29	3129.30
421.48	3211.22
421.67	3211.22
421.86	3227.60
422.05	3218.24
422.24	3272.07
422.43	3183.13
422.61	3365.69
422.80	3178.45
422.99	3339.94
423.18	3251.00
423.37	3269.73
423.56	3262.71
423.75	3314.20
423.94	3253.34
424.13	3124.62
424.32	3222.92
424.50	3222.92
424.69	3389.10
424.88	3449.95
425.07	3295.47
425.26	3454.63
425.45	3300.16
425.64	3332.92
425.83	3328.24
426.01	3307.18
426.20	3281.43
426.39	3370.37
426.58	3330.58
426.77	3307.18
426.96	3421.86
427.15	3421.86
427.33	3351.65
427.52	3375.05
427.71	3400.80
427.90	3583.36
428.09	3529.53
428.28	3513.14
428.46	3691.02
428.65	3543.57
428.84	3662.94
429.03	3630.17
429.22	3485.06
429.40	3543.57
429.59	3599.74
429.78	3501.44
429.97	3403.14
430.16	3653.58
430.34	3634.85
430.53	3609.11
430.72	3637.19
430.91	3728.47
431.10	3772.94
431.28	3637.19
431.47	3751.88
431.66	3859.54
431.85	3822.09
432.03	4009.34
432.22	4007.00
432.41	3836.14
432.60	3913.38
432.79	3894.65
432.97	3999.98
433.16	3794.01
433.35	3866.56
433.54	4030.40
433.72	4021.04
433.91	4037.42
434.10	4079.55
434.28	3978.91
434.47	4018.70
434.66	4081.89
434.85	4084.23
435.03	4126.36
435.22	4109.98
435.41	4273.82
435.59	4196.58
435.78	4217.65
435.97	4376.80
436.16	4278.50
436.34	4332.33
436.53	4269.14
436.72	4362.76
436.90	4236.37
437.09	4374.46
437.28	4311.27
437.46	4290.20
437.65	4353.40
437.84	4404.89
438.02	4395.53
438.21	4348.72
438.40	4344.03
438.58	4554.68
438.77	4596.81
438.96	4493.83
439.14	4695.11
439.33	4554.68
439.52	4762.99
439.70	4837.89
439.89	4779.37
440.08	4746.61
440.26	4784.06
440.45	4842.57
440.63	4971.30
440.82	4863.63
441.01	4915.12
441.19	4938.53
441.38	5165.56
441.57	4940.87
441.75	5018.11
441.94	5249.82
442.12	5200.67
442.31	5142.16
442.50	5308.34
442.68	5132.79
442.87	5090.67
443.05	5184.29
443.24	5359.83
443.43	5263.86
443.61	5298.97
443.80	5364.51
443.98	5350.46
444.17	5029.81
444.35	5324.72
444.54	5357.49
444.73	5313.02
444.91	5376.21
445.10	5420.68
445.28	5444.09
445.47	5448.77
445.65	5263.86
445.84	5514.30
446.02	5444.09
446.21	5453.45
446.39	5568.13
446.58	5439.40
446.77	5423.02
446.95	5355.15
447.14	5596.22
447.32	5645.37
447.51	5507.28
447.69	5460.47
447.88	5575.16
448.06	5561.11
448.25	5706.23
448.43	5561.11
448.62	5504.94
448.80	5455.79
448.99	5614.95
449.17	5621.97
449.36	5715.59
449.54	5654.73
449.73	5856.02
449.91	5923.90
450.10	5783.46
450.28	5874.74
450.46	5884.11
450.65	5916.87
450.83	5968.37
451.02	5694.52
451.20	6052.63
451.39	5982.41
451.57	5947.30
451.76	5809.21
451.94	5956.66
452.13	5942.62
452.31	6024.54
452.49	6134.54
452.68	6104.12
452.86	6092.41
453.05	6193.06
453.23	6076.03
453.42	6069.01
453.60	5982.41
453.78	6054.97
453.97	6176.67
454.15	6244.55
454.34	6141.57
454.52	6197.74
454.70	6258.59
454.89	6279.66
455.07	6555.84
455.26	6483.28
455.44	6438.81
455.62	6314.77
455.81	6340.51
455.99	6462.22
456.17	6441.15
456.36	6487.96
456.54	6595.63
456.73	6621.38
456.91	6768.83
457.09	6834.36
457.28	6675.21
457.46	6614.35
457.64	6754.79
457.83	7000.54
458.01	6794.58
458.19	6993.52
458.38	6878.83
458.56	6876.49
458.74	6909.26
458.93	6764.15
459.11	6895.22
459.29	6951.39
459.48	6984.16
459.66	7068.42
459.84	6899.90
460.03	7007.56
460.21	7075.44
460.39	6953.73
460.57	7089.48
460.76	7262.68
460.94	7236.94
461.12	7204.17
461.31	7049.69
461.49	7042.67
461.67	7096.50
461.85	7445.24
462.04	7307.15
462.22	7786.96
462.40	7269.70
462.59	7382.05
462.77	7363.33
462.95	7550.57
463.13	7452.27
463.32	7435.88
463.50	7440.56
463.68	7431.20
463.86	7492.05
464.05	7428.86
464.23	7445.24
464.41	7662.91
464.59	7576.31
464.78	7688.66
464.96	7655.89
465.14	7644.19
465.32	7705.04
465.50	7747.17
465.69	8072.51
465.87	7531.84
466.05	7772.92
466.23	7672.28
466.41	7786.96
466.60	8063.15
466.78	7831.43
466.96	7686.32
467.14	7941.44
467.32	8004.63
467.51	8060.80
467.69	7686.32
467.87	7779.94
468.05	8166.13
468.23	8018.68
468.41	7976.55
468.60	8021.02
468.78	8037.40
468.96	8060.80
469.14	8219.96
469.32	8276.13
469.50	8236.35
469.69	8222.30
469.87	8379.12
470.05	8257.41
470.23	8592.11
470.41	8372.10
470.59	8535.93
470.77	8245.71
470.95	8432.95
471.14	8669.34
471.32	8496.14
471.50	8667.00
471.68	8685.73
471.86	8891.70
472.04	8765.31
472.22	8931.48
472.40	8552.32
472.58	8683.39
472.77	9018.08
472.95	8929.14
473.13	9224.05
473.31	8966.59
473.49	9032.13
473.67	8830.84
473.85	9036.81
474.03	9352.78
474.21	9369.16
474.39	9280.22
474.57	9434.70
474.75	9355.12
474.93	9486.19
475.12	9523.64
475.30	9533.00
475.48	9415.98
475.66	9575.13
475.84	9584.49
476.02	9687.48
476.20	9753.01
476.38	9902.81
476.56	10171.97
476.74	9989.41
476.92	10160.27
477.10	10083.03
477.28	10101.75
477.46	10120.48
477.64	10242.18
477.82	10345.17
478.00	10726.68
478.18	10611.99
478.36	10778.17
478.54	11096.48
478.72	10745.40
478.90	11133.93
479.08	11255.64
479.26	11047.33
479.44	10939.66
479.62	11332.87
479.80	11433.52
479.98	11377.34
480.16	11791.62
480.34	11637.14
480.52	11735.45
480.70	11735.45
480.88	11632.46
481.06	11695.66
481.24	12020.99
481.41	12004.61
481.59	12203.55
481.77	12334.62
481.95	12215.26
482.13	12666.98
482.31	12395.48
482.49	12531.23
482.67	12608.47
482.85	12739.54
483.03	12833.16
483.21	13238.07
483.39	13186.58
483.57	13184.24
483.74	13317.65
483.92	13511.91
484.10	13383.18
484.28	13734.26
484.46	13907.46
484.64	13811.50
484.82	13846.61
485.00	14188.33
485.18	14190.67
485.35	14600.26
485.53	14150.88
485.71	14345.14
485.89	14651.75
486.07	14775.80
486.25	14895.17
486.43	14759.42
486.61	14745.38
486.78	15044.96
486.96	14965.39
487.14	15456.90
487.32	15396.04
487.50	15662.86
487.68	15695.63
487.85	15871.17
488.03	16095.86
488.21	16301.83
488.39	16327.58
488.57	16276.09
488.75	16486.73
488.92	16444.60
489.10	16802.71
489.28	16877.60
489.46	17139.74
489.64	17085.91
489.81	17460.40
489.99	17209.96
490.17	17242.73
490.35	17369.12
490.53	17706.15
490.70	17584.44
490.88	17563.38
491.06	18349.80
491.24	18164.90
491.41	18239.79
491.59	18434.06
491.77	18405.97
491.95	18359.16
492.13	18850.67
492.30	18838.97
492.48	19005.15
492.66	18981.74
492.84	19108.13
493.01	19168.99
493.19	19623.05
493.37	19449.85
493.54	19381.98
493.72	19297.72
493.90	19569.22
494.08	19978.81
494.25	20051.37
494.43	19964.77
494.61	20372.02
494.79	20449.26
494.96	20266.70
495.14	20025.62
495.32	20587.35
495.49	20388.41
495.67	20863.54
495.85	21057.80
496.02	21294.19
496.20	21357.39
496.38	21256.75
496.55	21261.43
496.73	21919.12
496.91	21928.48
497.09	21914.44
497.26	21933.16
497.44	21645.27
497.62	22040.82
497.79	22298.28
497.97	22480.85
498.14	22537.02
498.32	22750.01
498.50	22829.59
498.67	22703.20
498.85	22918.53
499.03	23000.44
499.20	22881.08
499.38	22932.57
499.56	23185.35
499.73	23585.58
499.91	23447.49
500.08	23431.10
500.26	23269.61
500.44	23513.02
500.61	23777.50
500.79	23623.03
500.97	24044.32
501.14	24369.66
501.32	24081.77
501.49	24407.11
501.67	23953.04
501.84	24407.11
502.02	24294.76
502.20	24545.20
502.37	24393.06
502.55	24449.24
502.72	24844.79
502.90	24718.40
503.07	24910.32
503.25	25184.16
503.43	24746.48
503.60	25172.46
503.78	25509.50
503.95	24980.54
504.13	25399.49
504.30	25549.29
504.48	25167.78
504.65	25743.55
504.83	25811.43
505.01	25862.92
505.18	26066.55
505.36	25944.84
505.53	26047.82
505.71	26010.37
505.88	26291.24
506.06	25921.43
506.23	26113.36
506.41	26326.35
506.58	26604.87
506.76	26682.11
506.93	26757.00
507.11	26424.65
507.28	27225.11
507.46	26883.39
507.63	27206.39
507.81	27225.11
507.98	27058.93
508.16	26974.67
508.33	27328.10
508.50	27538.74
508.68	27428.74
508.85	27730.67
509.03	27513.00
509.20	27707.26
509.38	28030.26
509.55	27744.71
509.73	27910.89
509.90	28077.07
510.08	28229.20
510.25	28053.66
510.42	28411.76
510.60	28645.82
510.77	28273.67
510.95	28973.49
511.12	28671.56
511.30	28437.51
511.47	28772.21
511.64	28622.41
511.82	29109.24
511.99	29488.41
512.17	28882.21
512.34	29109.24
512.51	29481.39
512.69	29153.71
512.86	29427.56
513.04	29518.84
513.21	29446.28
513.38	29383.09
513.56	30026.73
513.73	29546.92
513.90	29820.77
514.08	29846.51
514.25	29912.05
514.43	30499.52
514.60	30373.13
514.77	30160.14
514.95	30096.95
515.12	30211.64
515.29	30703.15
515.47	30213.98
515.64	30764.00
515.81	30565.06
515.99	30483.14
516.16	30834.22
516.33	31070.61
516.51	30794.43
516.68	31000.40
516.85	31243.81
517.03	30881.03
517.20	30981.67
517.37	30869.33
517.54	31480.21
517.72	31409.99
517.89	31117.42
518.06	31480.21
518.24	31498.93
518.41	31192.32
518.58	31828.95
518.75	31292.96
518.93	32212.79
519.10	31667.45
519.27	31999.80
519.45	32224.50
519.62	32060.66
519.79	32287.69
519.96	32126.19
520.14	32371.95
520.31	32439.82
520.48	32194.07
520.65	32514.72
520.83	33039.00
521.00	32659.84
521.17	32627.07
521.34	32767.50
521.52	33184.12
521.69	32442.17
521.86	32744.09
522.03	33287.10
522.20	33041.34
522.38	33666.27
522.55	33504.77
522.72	33565.62
522.89	33474.34
523.07	33605.41
523.24	33762.23
523.41	33797.34
523.58	33752.87
523.75	33628.82
523.92	33635.84
524.10	34040.75
524.27	34197.57
524.44	34354.38
524.61	34338.00
524.78	34419.92
524.96	34487.79
525.13	34197.57
525.30	34745.25
525.47	34609.50
525.64	34796.74
525.81	34597.80
525.98	34520.56
526.16	34773.34
526.33	34600.14
526.50	34403.53
526.67	34576.73
526.84	35007.39
527.01	35101.01
527.18	35292.94
527.36	35079.95
527.53	35026.12
527.70	35840.62
527.87	35552.74
528.04	35213.36
528.21	35309.32
528.38	35318.68
528.55	35700.19
528.72	35285.92
528.89	35454.44
529.07	35585.50
529.24	35185.27
529.41	36130.85
529.58	35739.98
529.75	35864.03
529.92	35791.47
530.09	36039.57
530.26	35447.41
530.43	36100.42
530.60	35709.55
530.77	36032.55
530.94	36030.21
531.11	35859.35
531.28	36105.10
531.46	36374.27
531.63	36287.67
531.80	36446.82
531.97	36636.41
532.14	36746.41
532.31	36128.51
532.48	36863.44
532.65	36928.97
532.82	36493.63
532.99	37301.12
533.16	36931.31
533.33	37013.23
533.50	37432.19
533.67	36847.05
533.84	36900.89
534.01	37223.88
534.18	37242.60
534.35	37453.25
534.52	37799.65
534.69	37476.66
534.86	37439.21
535.03	37294.10
535.20	37675.60
535.37	38272.44
535.54	38014.98
535.71	37474.32
535.88	37612.41
536.05	37642.84
536.22	38005.62
536.38	37869.87
536.55	37904.98
536.72	37743.48
536.89	37919.02
537.06	38300.53
537.23	38284.14
537.40	37912.00
537.57	37944.76
537.74	38167.12
537.91	38733.53
538.08	38155.41
538.25	38115.62
538.42	38171.80
538.59	38377.76
538.75	38476.07
538.92	38850.55
539.09	38656.29
539.26	38852.89
539.43	38590.75
539.60	38539.26
539.77	38588.41
539.94	39271.85
540.11	38775.66
540.28	38738.21
540.44	38983.96
540.61	38817.78
540.78	38909.07
540.95	39140.78
541.12	38801.40
541.29	39049.50
541.46	39168.87
541.62	39100.99
541.79	39810.17
541.96	38693.74
542.13	38911.41
542.30	39447.39
542.47	39543.35
542.63	39466.11
542.80	39470.79
542.97	40004.44
543.14	39831.24
543.31	39632.29
543.48	40069.97
543.64	40467.86
543.81	40278.28
543.98	40137.85
544.15	40034.86
544.32	40187.00
544.48	40367.22
544.65	40238.49
544.82	40531.06
544.99	40271.26
545.16	40095.72
545.32	40587.23
545.49	41041.29
545.66	40828.30
545.83	40610.64
546.00	40905.54
546.16	40760.43
546.33	40884.48
546.50	40641.06
546.67	40765.11
546.83	40458.50
547.00	40402.33
547.17	40311.05
547.34	40811.92
547.50	40772.13
547.67	41605.36
547.84	41242.58
548.00	41141.94
548.17	41453.23
548.34	41010.87
548.51	41504.72
548.67	41366.63
548.84	41249.60
549.01	41254.28
549.18	40879.80
549.34	42043.04
549.51	41507.06
549.68	41544.51
549.84	41617.07
550.01	41839.42
550.18	41298.75
550.34	41729.41
550.51	41890.91
550.68	42232.63
550.84	41425.14
551.01	41722.39
551.18	41778.56
551.34	41816.01
551.51	41963.46
551.68	42323.91
551.84	42024.32
552.01	41579.62
552.18	42064.11
552.34	42071.13
552.51	41890.91
552.68	41928.36
552.84	42366.04
553.01	42405.83
553.18	42265.39
553.34	42438.59
553.51	42513.49
553.67	42822.44
553.84	42478.38
554.01	42190.50
554.17	42019.64
554.34	42663.28
554.51	42614.13
554.67	42850.53
554.84	42560.30
555.00	42653.92
555.17	42815.42
555.33	42637.54
555.50	42462.00
555.67	42782.65
555.83	42644.56
556.00	42595.41
556.16	42866.91
556.33	43115.01
556.50	42787.33
556.66	42997.98
556.83	42803.72
556.99	43079.90
557.16	43309.27
557.32	43344.38
557.49	43615.88
557.65	42850.53
557.82	42902.02
557.98	43367.79
558.15	43058.84
558.32	43253.10
558.48	43482.47
558.65	43276.51
558.81	43269.48
558.98	43189.91
559.14	43023.73
559.31	43468.43
559.47	43302.25
559.64	43716.53
559.80	43215.65
559.97	43798.44
560.13	43555.03
560.30	43330.34
560.46	43852.28
560.63	43725.89
560.79	43688.44
560.96	43428.64
561.12	43871.00
561.29	43753.97
561.45	43803.13
561.61	43704.82
561.78	43854.62
561.94	43442.68
562.11	43461.41
562.27	43665.03
562.44	43641.63
562.60	43868.66
562.77	43999.73
562.93	43966.96
563.10	44135.48
563.26	43950.58
563.42	44304.00
563.59	43835.89
563.75	43931.86
563.92	44034.84
564.08	43803.13
564.24	43866.32
564.41	43952.92
564.57	43950.58
564.74	44107.40
564.90	44203.36
565.07	43739.93
565.23	44072.29
565.39	44388.26
565.56	44041.86
565.72	44655.08
565.88	44219.74
566.05	44545.08
566.21	44439.75
566.38	44095.69
566.54	44406.98
566.70	44268.89
566.87	44535.71
567.03	44177.61
567.19	44577.84
567.36	44514.65
567.52	44451.45
567.68	44739.34
567.85	44715.93
568.01	44718.28
568.17	44275.91
568.34	44748.70
568.50	44397.62
568.66	44273.57
568.83	44559.12
568.99	44194.00
569.15	44378.90
569.32	44460.82
569.48	44350.81
569.64	44722.96
569.81	44734.66
569.97	44692.53
570.13	44942.97
570.30	44210.38
570.46	44957.01
570.62	45081.06
570.78	44645.72
570.95	44685.51
571.11	44985.10
571.27	44765.09
571.43	44608.27
571.60	44619.97
571.76	44741.68
571.92	44664.44
572.09	44830.62
572.25	44170.59
572.41	44563.80
572.57	44416.35
572.74	45179.36
572.90	44676.15
573.06	44992.12
573.22	44645.72
573.38	45074.04
573.55	44765.09
573.71	44793.17
573.87	45174.68
574.03	44971.05
574.20	44844.66
574.36	44823.60
574.52	45003.82
574.68	44800.19
574.84	44945.31
575.01	45495.33
575.17	45027.23
575.33	45085.74
575.49	45003.82
575.65	45301.07
575.82	45123.19
575.98	44877.43
576.14	45331.50
576.30	45280.00
576.46	45010.84
576.62	45188.72
576.79	44531.03
576.95	44961.69
577.11	44545.08
577.27	44959.35
577.43	45059.99
577.59	45057.65
577.75	44980.42
577.92	44711.25
578.08	45034.25
578.24	45038.93
578.40	45509.38
578.56	45291.71
578.72	45373.63
578.88	45612.36
579.04	44938.29
579.21	45294.05
579.37	45116.17
579.53	45457.88
579.69	44701.89
579.85	45132.55
580.01	45401.71
580.17	45078.72
580.33	44877.43
580.49	45453.20
580.65	45720.02
580.82	44905.52
580.98	45167.66
581.14	44966.37
581.30	45111.49
581.46	45008.50
581.62	45240.21
581.78	45188.72
581.94	45392.35
582.10	44917.22
582.26	45333.84
582.42	45127.87
582.58	45043.61
582.74	45301.07
582.90	45031.91
583.06	45652.15
583.22	45219.15
583.38	45483.63
583.54	45567.89
583.70	45401.71
583.86	45202.77
584.02	45500.01
584.18	45691.94
584.34	45219.15
584.50	45308.09
584.66	45703.64
584.82	45689.60
584.98	45338.52
585.14	45146.59
585.30	45366.60
585.46	45427.46
585.62	45378.31
585.78	45481.29
585.94	44964.03
586.10	45345.54
586.26	45504.70
586.42	45462.57
586.58	45193.40
586.74	45228.51
586.90	45146.59
587.06	45450.86
587.22	45588.95
587.38	45488.31
587.54	45069.36
587.70	45675.55
587.86	45682.58
588.02	45530.44
588.18	45556.19
588.34	45680.24
588.49	45832.37
588.65	45427.46
588.81	45490.65
588.97	45336.18
589.13	45645.13
589.29	45663.85
589.45	45776.20
589.61	45331.50
589.77	45993.87
589.93	45818.33
590.08	45457.88
590.24	45837.05
590.40	46237.28
590.56	45797.26
590.72	46014.93
590.88	45965.78
591.04	45537.46
591.20	45998.55
591.35	46000.89
591.51	46667.94
591.67	45687.26
591.83	46082.81
591.99	45844.07
592.15	45701.30
592.31	45787.90
592.46	45794.92
592.62	45808.96
592.78	45780.88
592.94	46024.29
593.10	46230.26
593.26	46389.42
593.41	46162.39
593.57	45844.07
593.73	46092.17
593.89	46415.16
594.05	46321.54
594.20	46251.33
594.36	46557.94
594.52	46377.72
594.68	46321.54
594.84	45762.15
594.99	45975.14
595.15	46230.26
595.31	46244.30
595.47	46209.20
595.62	46349.63
595.78	46089.83
595.94	46230.26
596.10	46377.72
596.25	45979.82
596.41	46230.26
596.57	46213.88
596.73	46337.93
596.88	46094.51
597.04	45986.85
597.20	46415.16
597.36	46061.74
597.51	45757.47
597.67	46146.00
597.83	46335.59
597.99	46506.44
598.14	46099.19
598.30	46131.96
598.46	46223.24
598.61	46567.30
598.77	46185.79
598.93	46419.84
599.09	46068.76
599.24	46665.60
599.40	45911.95
599.56	46263.03
599.71	46801.35
599.87	46941.78
600.03	46333.24
600.18	46319.20
600.34	46358.99
600.50	46550.91
600.65	45862.80
600.81	46974.55
600.97	46312.18
601.12	46440.91
601.28	46686.67
601.44	45970.46
601.59	46546.23
601.75	46185.79
601.91	46719.43
602.06	46284.09
602.22	46649.22
602.37	45977.48
602.53	46401.12
602.69	46412.82
602.84	46054.72
603.00	46307.50
603.16	46171.75
603.31	46604.75
603.47	46766.24
603.62	46560.28
603.78	46799.01
603.94	46541.55
604.09	46291.12
604.25	46326.22
604.40	45979.82
604.56	46745.18
604.71	46813.05
604.87	46087.49
605.03	45659.17
605.18	46461.97
605.34	46431.55
605.49	46197.49
605.65	46295.80
605.80	45982.16
605.96	45862.80
606.12	46239.62
606.27	46412.82
606.43	45820.67
606.58	46504.10
606.74	46305.16
606.89	46061.74
607.05	46483.04
607.20	46293.46
607.36	46366.01
607.51	46150.68
607.67	46225.58
607.82	45911.95
607.98	46167.07
608.13	46209.20
608.29	45895.56
608.44	46291.12
608.60	46284.09
608.75	45956.42
608.91	45731.73
609.06	45785.56
609.22	45823.01
609.37	46094.51
609.53	46082.81
609.68	46237.28
609.84	45904.93
609.99	45841.73
610.15	45830.03
610.30	45830.03
610.46	45783.22
610.61	46342.61
610.76	46122.60
610.92	46115.58
611.07	46138.98
611.23	46010.25
611.38	45874.50
611.54	46024.29
611.69	46204.52
611.84	45972.80
612.00	45977.48
612.15	45778.54
612.31	46124.94
612.46	45500.01
612.62	45415.76
612.77	45659.17
612.92	45933.01
613.08	45558.53
613.23	46272.39
613.39	45474.27
613.54	45677.90
613.69	46087.49
613.85	45406.39
614.00	45853.44
614.15	46195.15
614.31	45418.10
614.46	45680.24
614.62	45336.18
614.77	45605.34
614.92	45347.88
615.08	45343.20
615.23	45359.58
615.38	45881.52
615.54	45591.30
615.69	45801.94
615.84	45429.80
616.00	45638.11
616.15	45591.30
616.30	45818.33
616.46	45275.32
616.61	44987.44
616.76	45446.18
616.92	45450.86
617.07	45750.45
617.22	45455.54
617.37	44898.50
617.53	45661.51
617.68	45057.65
617.83	44825.94
617.99	45762.15
618.14	45708.32
618.29	44779.13
618.45	45102.12
618.60	44893.82
618.75	44741.68
618.90	44886.79
619.06	45179.36
619.21	45607.68
619.36	45010.84
619.51	45144.25
619.67	44643.38
619.82	44851.69
619.97	45027.23
620.12	44612.95
620.28	45235.53
620.43	45027.23
620.58	44931.26
620.73	44502.95
620.89	44931.26
621.04	44952.33
621.19	45043.61
621.34	44823.60
621.49	44568.48
621.65	45027.23
621.80	44872.75
621.95	45177.02
622.10	44755.72
622.25	44566.14
622.41	44634.02
622.56	44486.56
622.71	45010.84
622.86	44926.58
623.01	44989.78
623.16	44502.95
623.32	44760.40
623.47	44882.11
623.62	44390.60
623.77	44559.12
623.92	44423.37
624.07	44678.49
624.23	45174.68
624.38	44594.23
624.53	44519.33
624.68	44186.97
624.83	44135.48
624.98	44762.75
625.13	44030.16
625.29	44009.09
625.44	44456.14
625.59	43934.20
625.74	43929.51
625.89	43917.81
626.04	43622.90
626.19	44210.38
626.34	44191.65
626.49	43690.78
626.65	44151.87
626.80	43983.35
626.95	44034.84
627.10	43622.90
627.25	44135.48
627.40	43927.17
627.55	43775.04
627.70	43730.57
627.85	43732.91
628.00	43618.22
628.15	43786.74
628.30	43257.78
628.45	43227.35
628.60	43351.40
628.76	43438.00
628.91	43433.32
629.06	43133.73
629.21	43267.14
629.36	42948.83
629.51	43196.93
629.66	44023.14
629.81	43512.90
629.96	43634.61
630.11	43285.87
630.26	43063.52
630.41	43548.01
630.56	43426.30
630.71	43503.54
630.86	43196.93
631.01	43292.89
631.16	42965.21
631.31	42993.30
631.46	43213.31
631.61	43323.32
631.76	43047.13
631.91	43714.19
632.06	43768.02
632.21	43381.83
632.36	43358.42
632.51	42895.00
632.66	43250.76
632.81	43264.80
632.96	43119.69
633.10	42962.87
633.25	42852.87
633.40	43409.92
633.55	43433.32
633.70	42892.66
633.85	42330.93
634.00	42511.15
634.15	42698.39
634.30	42738.18
634.45	42993.30
634.60	42897.34
634.75	43196.93
634.90	42916.06
635.05	42997.98
635.19	42897.34
635.34	42773.29
635.49	42366.04
635.64	42686.69
635.79	43028.41
635.94	42934.79
636.09	42625.84
636.24	42803.72
636.39	42398.80
636.53	42469.02
636.68	42321.57
636.83	42017.30
636.98	42143.69
637.13	42359.02
637.28	42043.04
637.43	42241.99
637.57	42923.08
637.72	42014.96
637.87	42251.35
638.02	42206.88
638.17	42293.48
638.32	41720.05
638.46	41722.39
638.61	41490.68
638.76	42024.32
638.91	41713.03
639.06	41607.70
639.20	41762.18
639.35	41851.12
639.50	41762.18
639.65	42321.57
639.80	42155.39
639.94	41865.16
640.09	42005.59
640.24	42197.52
640.39	41619.41
640.54	41677.92
640.68	41956.44
640.83	41837.08
640.98	41780.90
641.13	40952.35
641.27	42265.39
641.42	41324.50
641.57	41787.92
641.72	41581.96
641.86	41799.63
642.01	41233.22
642.16	41614.72
642.31	41062.36
642.45	41523.44
642.60	40861.07
642.75	41570.25
642.90	41631.11
643.04	40891.50
643.19	40938.31
643.34	41261.30
643.48	41020.23
643.63	40996.82
643.78	41448.55
643.93	41799.63
644.07	41195.77
644.22	41397.06
644.37	40989.80
644.51	41514.08
644.66	41254.28
644.81	40947.67
644.95	40802.56
645.10	41022.57
645.25	40762.77
645.39	40524.04
645.54	41076.40
645.69	40720.64
645.83	40889.16
645.98	40509.99
646.13	40800.22
646.27	40678.51
646.42	40751.07
646.57	40685.53
646.71	40973.42
646.86	40655.11
647.00	40999.16
647.15	40730.00
647.30	41078.74
647.44	40573.19
647.59	40463.18
647.74	40374.24
647.88	40577.87
648.03	41031.93
648.17	40758.09
648.32	40428.07
648.47	41008.53
648.61	40596.59
648.76	40268.92
648.90	39959.97
649.05	40388.28
649.20	40304.02
649.34	40474.88
649.49	40659.79
649.63	40603.61
649.78	40418.71
649.92	40278.28
650.07	40638.72
650.21	40385.94
650.36	40388.28
650.51	40308.71
650.65	40507.65
650.80	39992.73
650.94	40172.96
651.09	40179.98
651.23	39957.63
651.38	39690.80
651.52	39295.25
651.67	39871.03
651.81	40121.46
651.96	40079.33
652.10	39353.77
652.25	39798.47
652.39	39585.48
652.54	39981.03
652.68	40285.30
652.83	39672.08
652.97	40048.91
653.12	39461.43
653.26	39861.66
653.41	39845.28
653.55	40053.59
653.70	39512.92
653.84	39409.94
653.99	39735.27
654.13	39948.26
654.27	39400.58
654.42	39529.31
654.56	39374.83
654.71	39807.83
654.85	39990.39
655.00	39824.22
655.14	39634.63
655.29	40147.21
655.43	39807.83
655.57	39199.29
655.72	39587.82
655.86	39400.58
656.01	39541.01
656.15	39227.38
656.30	38873.96
656.44	39281.21
656.58	39442.71
656.73	39229.72
656.87	38635.22
657.01	38682.03
657.16	39271.85
657.30	38946.51
657.45	38972.26
657.59	38642.24
657.73	39234.40
657.88	39143.12
658.02	38913.75
658.16	39168.87
658.31	39072.90
658.45	38710.12
658.60	38778.00
658.74	39196.95
658.88	38719.48
659.03	38368.40
659.17	38550.96
659.31	38443.30
659.46	38218.61
659.60	38639.90
659.74	38541.60
659.89	37933.06
660.03	37872.21
660.17	38022.00
660.32	38169.46
660.46	38492.45
660.60	37855.82
660.74	38295.85
660.89	38337.98
661.03	37823.06
661.17	37551.56
661.32	37776.25
661.46	37706.03
661.60	37766.88
661.74	37759.86
661.89	37986.89
662.03	38031.36
662.17	37528.15
662.31	37507.08
662.46	37357.29
662.60	37305.80
662.74	37223.88
662.88	37024.93
663.03	36570.87
663.17	37350.27
663.31	36910.25
663.45	37326.86
663.60	37347.93
663.74	37013.23
663.88	37420.48
664.02	36837.69
664.17	37043.66
664.31	36989.83
664.45	36528.74
664.59	36718.32
664.73	37006.21
664.88	36994.51
665.02	36442.14
665.16	36629.38
665.30	36367.24
665.44	36830.67
665.59	36257.24
665.73	36077.02
665.87	35613.59
666.01	36575.55
666.15	36432.78
666.29	35945.95
666.44	36254.90
666.58	35920.20
666.72	35786.79
666.86	36074.68
667.00	35716.58
667.14	35826.58
667.28	35950.63
667.43	35454.44
667.57	36172.98
667.71	35913.18
667.85	35908.50
667.99	35480.18
668.13	35637.00
668.27	35695.51
668.41	35346.77
668.56	34403.53
668.70	34738.23
668.84	35374.86
668.98	34665.67
669.12	34944.20
669.26	34705.46
669.40	34965.26
669.54	35117.40
669.68	35227.40
669.82	34976.97
669.96	34651.63
670.10	34141.39
670.25	34609.50
670.39	34251.40
670.53	35201.66
670.67	33862.87
670.81	34682.06
670.95	34412.90
671.09	34396.51
671.23	34377.79
671.37	33937.77
671.51	33900.32
671.65	34073.52
671.79	33598.39
671.93	33638.18
672.07	34195.23
672.21	34132.03
672.35	33830.10
672.49	33315.19
672.63	33638.18
672.77	33069.43
672.91	33230.93
673.05	33982.24
673.19	32699.62
673.33	32559.19
673.47	33041.34
673.61	32748.78
673.75	32666.86
673.89	32680.90
674.03	32692.60
674.17	32161.30
674.31	32259.60
674.45	32158.96
674.59	32095.77
674.73	32177.68
674.87	32037.25
675.01	31798.52
675.15	31906.18
675.29	31775.11
675.43	32081.72
675.56	32100.45
675.70	31903.84
675.84	31498.93
675.98	30668.04
676.12	31779.79
676.26	31630.00
676.40	31321.05
676.54	30906.77
676.68	31211.04
676.82	30747.62
676.96	31187.64
677.10	31192.32
677.23	30487.82
677.37	30562.72
677.51	30927.84
677.65	30836.56
677.79	30122.69
677.93	30328.66
678.07	30565.06
678.21	30153.12
678.34	30015.03
678.48	29846.51
678.62	29593.73
678.76	29680.33
678.90	29567.99
679.04	29993.97
679.18	30019.71
679.31	29411.17
679.45	29095.20
679.59	29347.98
679.73	29380.74
679.87	29008.60
680.00	29266.06
680.14	28872.85
680.28	28987.53
680.42	28596.67
680.56	28718.37
680.70	28575.60
680.83	28252.61
680.97	28423.47
681.11	28369.63
681.25	28292.40
681.39	27976.42
681.52	27695.56
681.66	27290.65
681.80	27255.54
681.94	27297.67
682.07	27257.88
682.21	27351.50
682.35	27524.70
682.49	27248.52
682.62	27239.15
682.76	27278.94
682.90	27185.32
683.04	26920.84
683.17	27033.19
683.31	26700.83
683.45	26324.01
683.59	26155.49
683.72	26380.18
683.86	26452.73
684.00	26356.77
684.13	26216.34
684.27	25914.41
684.41	25809.09
684.55	25954.20
684.68	25979.95
684.82	25633.55
684.96	25656.95
685.09	25680.36
685.23	25823.13
685.37	25544.61
685.50	25830.15
685.64	25764.62
685.78	25261.40
685.91	25200.55
686.05	24936.07
686.19	24151.99
686.32	24559.24
686.46	24149.65
686.60	24472.64
686.73	24535.84
686.87	24198.80
687.01	24346.25
687.14	24451.58
687.28	24290.08
687.42	24210.50
687.55	23777.50
687.69	23810.27
687.82	23690.90
687.96	23534.09
688.10	23552.81
688.23	23536.43
688.37	23810.27
688.50	23613.66
688.64	23351.52
688.78	23538.77
688.91	23133.86
689.05	22993.42
689.18	22745.33
689.32	22305.31
689.46	22427.01
689.59	22473.82
689.73	22625.96
689.86	22883.42
690.00	22483.19
690.13	22368.50
690.27	22422.33
690.41	22782.77
690.54	21956.57
690.68	21884.01
690.81	22012.74
690.95	21818.47
691.08	21607.83
691.22	21612.51
691.35	21324.62
691.49	21546.97
691.62	21341.00
691.76	21020.35
691.89	20842.47
692.03	20863.54
692.16	20793.32
692.30	20732.47
692.43	20821.41
692.57	20589.69
692.70	20592.03
692.84	20247.97
692.97	20269.04
693.11	20432.88
693.24	20269.04
693.38	19950.73
693.51	19997.54
693.65	20147.33
693.78	19843.06
693.92	19601.99
694.05	19903.92
694.19	19414.74
694.32	19522.41
694.45	19510.71
694.59	19763.48
694.72	19597.31
694.86	19520.07
694.99	19131.54
695.13	19014.51
695.26	18792.16
695.39	18700.88
695.53	18897.49
695.66	18724.29
695.80	18534.70
695.93	18593.22
696.07	18204.69
696.20	18139.15
696.33	18047.87
696.47	17949.57
696.60	17844.24
696.73	18054.89
696.87	18499.59
697.00	17933.18
697.14	17715.51
697.27	17874.67
697.40	17514.23
697.54	17537.63
697.67	17376.14
697.80	17628.92
697.94	17359.75
698.07	17455.72
698.21	17135.06
698.34	17202.94
698.47	16746.53
698.61	16395.45
698.74	16725.47
698.87	16744.19
699.01	16505.46
699.14	16765.26
699.27	16751.21
699.40	16615.46
699.54	16362.69
699.67	16168.42
699.80	16556.95
699.94	16135.65
700.07	16170.76
700.20	15866.49
700.34	15815.00
700.47	15777.55
700.60	15978.84
700.73	15992.88
700.87	15676.91
701.00	15580.95
701.13	15323.49
701.26	15414.77
701.40	15215.82
701.53	15267.31
701.66	15300.08
701.79	14984.11
701.93	14820.27
702.06	14862.40
702.19	14733.67
702.32	14897.51
702.46	14724.31
702.59	14883.47
702.72	14839.00
702.85	14743.03
702.99	14647.07
703.12	14504.30
703.25	14214.07
703.38	14485.58
703.51	14403.66
703.65	13900.44
703.78	13994.06
703.91	13973.00
704.04	13809.16
704.17	13556.38
704.31	13633.62
704.44	13633.62
704.57	13413.61
704.70	13633.62
704.83	13509.57
704.96	13263.82
705.10	13387.86
705.23	13322.33
>>>>>End Processed Spectral Data<<<<<
