SpectraSuite Data File
++++++++++++++++++++++++++++++++++++
Date: Fri Oct 25 10:44:05 EDT 2013
User: price-jones
Dark Spectrum Present: No
Reference Spectrum Present: No
Number of Sampled Component Spectra: 1
Spectrometers: USB2+H05261
Integration Time (usec): 100000 (USB2+H05261)
Spectra Averaged: 1 (USB2+H05261)
Boxcar Smoothing: 0 (USB2+H05261)
Correct for Electrical Dark: No (USB2+H05261)
Strobe/Lamp Enabled: No (USB2+H05261)
Correct for Detector Non-linearity: No (USB2+H05261)
Correct for Stray Light: No (USB2+H05261)
Number of Pixels in Processed Spectrum: 2048
>>>>>Begin Processed Spectral Data<<<<<
365.73	133.41
365.92	133.41
366.12	133.41
366.32	46.81
366.52	30.43
366.72	21.06
366.91	44.47
367.11	0.00
367.31	0.00
367.51	0.00
367.70	39.79
367.90	35.11
368.10	11.70
368.30	14.04
368.49	42.13
368.69	65.54
368.89	30.43
369.09	0.00
369.28	67.88
369.48	4.68
369.68	56.17
369.87	119.37
370.07	84.26
370.27	187.24
370.47	191.92
370.66	430.66
370.86	374.49
371.06	397.89
371.25	517.26
371.45	493.85
371.65	524.28
371.84	475.13
372.04	376.83
372.24	468.11
372.44	533.64
372.63	521.94
372.83	425.98
373.03	472.79
373.22	482.15
373.42	540.66
373.62	566.41
373.81	575.77
374.01	578.11
374.21	601.52
374.40	510.24
374.60	578.11
374.79	592.16
374.99	571.09
375.19	559.39
375.38	634.29
375.58	580.45
375.78	547.69
375.97	566.41
376.17	594.50
376.37	559.39
376.56	671.73
376.76	629.60
376.95	580.45
377.15	648.33
377.35	676.41
377.54	599.18
377.74	615.56
377.93	573.43
378.13	676.41
378.33	631.94
378.52	641.31
378.72	599.18
378.91	620.24
379.11	617.90
379.31	610.88
379.50	697.48
379.70	723.23
379.89	667.05
380.09	622.58
380.28	704.50
380.48	741.95
380.68	678.76
380.87	772.38
381.07	709.18
381.26	723.23
381.46	753.65
381.65	826.21
381.85	720.88
382.04	716.20
382.24	662.37
382.43	667.05
382.63	732.59
382.83	695.14
383.02	777.06
383.22	788.76
383.41	683.44
383.61	723.23
383.80	781.74
384.00	800.46
384.19	812.17
384.39	784.08
384.58	739.61
384.78	809.83
384.97	814.51
385.17	800.46
385.36	760.67
385.56	884.72
385.75	833.23
385.95	868.34
386.14	802.80
386.34	812.17
386.53	866.00
386.72	791.10
386.92	842.59
387.11	861.32
387.31	926.85
387.50	851.96
387.70	882.38
387.89	840.25
388.09	940.90
388.28	952.60
388.48	912.81
388.67	1067.28
388.86	1013.45
389.06	924.51
389.25	1137.50
389.45	983.02
389.64	1057.92
389.84	1078.99
390.03	976.00
390.22	1088.35
390.42	1022.81
390.61	1025.15
390.81	1015.79
391.00	1095.37
391.19	1029.84
391.39	1069.62
391.58	1104.73
391.78	1029.84
391.97	973.66
392.16	1034.52
392.36	1086.01
392.55	1018.13
392.75	1121.12
392.94	997.07
393.13	1015.79
393.33	1057.92
393.52	1097.71
393.71	1041.54
393.91	1104.73
394.10	1118.78
394.29	1121.12
394.49	1097.71
394.68	1287.29
394.88	1245.16
395.07	1371.55
395.26	1275.59
395.46	1231.12
395.65	1357.51
395.84	1329.42
396.04	1291.98
396.23	1097.71
396.42	1137.50
396.62	1184.31
396.81	1252.19
397.00	1210.06
397.19	1266.23
397.39	1373.89
397.58	1446.45
397.77	1430.07
397.97	1373.89
398.16	1521.35
398.35	1469.86
398.55	1521.35
398.74	1469.86
398.93	1591.56
399.12	1600.93
399.32	1507.30
399.51	1500.28
399.70	1633.69
399.90	1575.18
400.09	1668.80
400.28	1652.42
400.47	1664.12
400.67	1811.57
400.86	1753.06
401.05	1685.19
401.24	1753.06
401.44	1734.34
401.63	1699.23
401.82	1776.47
402.01	1736.68
402.21	1741.36
402.40	1706.25
402.59	1755.40
402.78	1830.30
402.97	1811.57
403.17	1926.26
403.36	1921.58
403.55	1874.77
403.74	1830.30
403.93	1928.60
404.13	2005.84
404.32	1919.24
404.51	1928.60
404.70	1970.73
404.89	1996.48
405.09	2012.86
405.28	2078.40
405.47	2010.52
405.66	2050.31
405.85	2083.08
406.05	2157.97
406.24	2113.50
406.43	2104.14
406.62	2157.97
406.81	2242.23
407.00	2080.74
407.20	2260.96
407.39	2172.02
407.58	2186.06
407.77	2251.60
407.96	2326.49
408.15	2303.09
408.34	2282.02
408.54	2237.55
408.73	2263.30
408.92	2401.39
409.11	2438.84
409.30	2408.41
409.49	2389.69
409.68	2270.32
409.87	2279.68
410.07	2396.71
410.26	2476.29
410.45	2457.56
410.64	2572.25
410.83	2466.92
411.02	2562.89
411.21	2630.76
411.40	2729.06
411.59	2619.06
411.78	2726.72
411.98	2729.06
412.17	2640.12
412.36	2813.32
412.55	2789.92
412.74	2719.70
412.93	2810.98
413.12	2745.45
413.31	2937.37
413.50	2995.89
413.69	2813.32
413.88	2890.56
414.07	3143.34
414.26	2979.50
414.45	3105.89
414.64	2958.44
414.83	3038.02
415.02	3150.36
415.22	3251.00
415.41	3164.40
415.60	3204.19
415.79	3349.31
415.98	3375.05
416.17	3351.65
416.36	3330.58
416.55	3398.46
416.74	3346.97
416.93	3304.84
417.12	3489.74
417.31	3314.20
417.50	3421.86
417.69	3531.87
417.88	3674.64
418.07	3543.57
418.26	3562.30
418.45	3555.27
418.64	3620.81
418.83	3517.83
419.02	3691.02
419.21	3590.38
419.39	3698.05
419.58	3691.02
419.77	3620.81
419.96	3700.39
420.15	3782.31
420.34	3840.82
420.53	4051.47
420.72	3882.95
420.91	3962.53
421.10	4011.68
421.29	4014.02
421.48	3777.62
421.67	4126.36
421.86	3826.78
422.05	3810.39
422.24	3873.59
422.43	3948.48
422.61	3885.29
422.80	3922.74
422.99	4053.81
423.18	4098.28
423.37	4051.47
423.56	4149.77
423.75	4117.00
423.94	3894.65
424.13	3772.94
424.32	3892.31
424.50	4124.02
424.69	4105.30
424.88	4095.94
425.07	3992.95
425.26	3981.25
425.45	4187.22
425.64	3892.31
425.83	4037.42
426.01	4290.20
426.20	4060.83
426.39	4114.66
426.58	4152.11
426.77	4245.73
426.96	4166.15
427.15	4105.30
427.33	4273.82
427.52	4114.66
427.71	4222.33
427.90	4325.31
428.09	4189.56
428.28	4329.99
428.46	4252.75
428.65	4311.27
428.84	4250.41
429.03	4334.67
429.22	4257.43
429.40	4196.58
429.59	4292.54
429.78	4063.17
429.97	4084.23
430.16	4170.83
430.34	4224.67
430.53	4205.94
430.72	4280.84
430.91	4339.35
431.10	4507.87
431.28	4514.89
431.47	4690.43
431.66	4758.31
431.85	4765.33
432.03	4685.75
432.22	4894.06
432.41	4657.67
432.60	4699.80
432.79	4870.65
432.97	4940.87
433.16	4877.68
433.35	4861.29
433.54	4777.03
433.72	4840.23
433.91	4863.63
434.10	4975.98
434.28	4887.04
434.47	4973.64
434.66	5020.45
434.85	5153.86
435.03	5069.60
435.22	5046.20
435.41	5217.05
435.59	5221.74
435.78	5193.65
435.97	5195.99
436.16	5338.76
436.34	5291.95
436.53	5378.55
436.72	5460.47
436.90	5198.33
437.09	5334.08
437.28	5268.55
437.46	5624.31
437.65	5273.23
437.84	5277.91
438.02	5256.84
438.21	5425.36
438.40	5392.59
438.58	5411.32
438.77	5561.11
438.96	5596.22
439.14	5643.03
439.33	5722.61
439.52	5729.63
439.70	5776.44
439.89	5942.62
440.08	5844.32
440.26	5816.23
440.45	5937.94
440.63	5951.98
440.82	6193.06
441.01	6141.57
441.19	6342.85
441.38	6216.46
441.57	6221.14
441.75	6345.19
441.94	6399.02
442.12	6565.20
442.31	6703.29
442.50	6775.85
442.68	6436.47
442.87	6586.27
443.05	6752.45
443.24	6595.63
443.43	6548.82
443.61	6565.20
443.80	6832.02
443.98	6572.22
444.17	6487.96
444.35	6787.55
444.54	6722.02
444.73	6799.26
444.91	6925.65
445.10	6644.78
445.28	6761.81
445.47	6661.16
445.65	6471.58
445.84	6637.76
446.02	6864.79
446.21	6738.40
446.39	6810.96
446.58	6768.83
446.77	6827.34
446.95	6834.36
447.14	7082.46
447.32	7047.35
447.51	6949.05
447.69	6963.09
447.88	6974.80
448.06	6827.34
448.25	6946.71
448.43	7012.24
448.62	6738.40
448.80	6979.48
448.99	7103.53
449.17	7091.82
449.36	7007.56
449.54	6986.50
449.73	7286.09
449.91	7398.43
450.10	7449.93
450.28	7562.27
450.46	7414.82
450.65	7482.69
450.83	7545.89
451.02	7185.44
451.20	7470.99
451.39	7440.56
451.57	7295.45
451.76	7459.29
451.94	7384.39
452.13	7342.26
452.31	7571.63
452.49	7236.94
452.68	7316.51
452.86	7459.29
453.05	7325.88
453.23	7559.93
453.42	7456.95
453.60	7571.63
453.78	7503.76
453.97	7515.46
454.15	7618.44
454.34	7569.29
454.52	7836.11
454.70	7761.22
454.89	7573.97
455.07	7721.43
455.26	7875.90
455.44	7901.65
455.62	7955.48
455.81	7967.18
455.99	8126.34
456.17	8063.15
456.36	8074.85
456.54	8116.98
456.73	8292.52
456.91	8248.05
457.09	8341.67
457.28	8524.23
457.46	8217.62
457.64	8489.12
457.83	8449.33
458.01	8229.32
458.19	8432.95
458.38	8400.18
458.56	8585.08
458.74	8498.49
458.93	8407.20
459.11	8566.36
459.29	8414.23
459.48	8606.15
459.66	8564.02
459.84	8615.51
460.03	8854.25
460.21	8652.96
460.39	8716.16
460.57	8772.33
460.76	8809.78
460.94	8828.50
461.12	8765.31
461.31	8844.88
461.49	8959.57
461.67	8879.99
461.85	9029.79
462.04	9036.81
462.22	9373.85
462.40	9238.09
462.59	9259.16
462.77	9364.48
462.95	9226.39
463.13	9224.05
463.32	9303.63
463.50	9352.78
463.68	9083.62
463.86	9497.89
464.05	9125.75
464.23	9287.25
464.41	9324.69
464.59	9055.53
464.78	9511.94
464.96	9509.60
465.14	9338.74
465.32	9455.76
465.50	9657.05
465.69	9671.09
465.87	9453.42
466.05	9359.80
466.23	9359.80
466.41	9355.12
466.60	9523.64
466.78	9359.80
466.96	9558.75
467.14	9556.41
467.32	9607.90
467.51	9753.01
467.69	9647.69
467.87	9589.17
468.05	9804.50
468.23	9912.17
468.41	9891.10
468.60	9710.88
468.78	10010.47
468.96	9769.40
469.14	9998.77
469.32	10099.41
469.50	9549.39
469.69	10132.18
469.87	10085.37
470.05	10155.58
470.23	10068.98
470.41	10031.54
470.59	10305.38
470.77	10085.37
470.95	10317.08
471.14	10300.70
471.32	10209.42
471.50	10696.25
471.68	10714.97
471.86	10633.05
472.04	10494.96
472.22	10813.28
472.40	10619.01
472.58	10707.95
472.77	10736.04
472.95	10885.83
473.13	11147.97
473.31	10824.98
473.49	10857.75
473.67	10937.32
473.85	11052.01
474.03	11257.98
474.21	11180.74
474.39	11178.40
474.57	11576.29
474.75	11379.68
474.93	11571.61
475.12	11328.19
475.30	11838.43
475.48	11489.69
475.66	11590.33
475.84	11665.23
476.02	11665.23
476.20	11894.60
476.38	11826.73
476.56	12149.72
476.74	12222.28
476.92	12074.82
477.10	12142.70
477.28	12346.33
477.46	12444.63
477.64	12823.80
477.82	12938.48
478.00	13008.70
478.18	12671.66
478.36	12879.97
478.54	12835.50
478.72	12865.92
478.90	13156.15
479.08	13532.98
479.26	13415.95
479.44	13523.62
479.62	13324.67
479.80	13837.25
479.98	13664.05
480.16	14267.91
480.34	13987.04
480.52	14321.74
480.70	14274.93
480.88	13830.23
481.06	14342.80
481.24	14274.93
481.41	14836.66
481.59	15040.28
481.77	14801.55
481.95	14956.02
482.13	15161.99
482.31	15110.50
482.49	15370.30
482.67	15379.66
482.85	15342.21
483.03	15489.67
483.21	15742.44
483.39	15728.40
483.57	15625.42
483.74	16102.89
483.92	15878.19
484.10	15969.48
484.28	16156.72
484.46	16444.60
484.64	16641.21
484.82	16519.50
485.00	16404.81
485.18	16718.45
485.35	16870.58
485.53	16582.70
485.71	16636.53
485.89	16973.56
486.07	16924.41
486.25	16723.13
486.43	17245.07
486.61	17584.44
486.78	18068.94
486.96	18040.85
487.14	17994.04
487.32	18160.22
487.50	18473.85
487.68	18824.93
487.85	18583.85
488.03	18953.66
488.21	19396.02
488.39	18977.06
488.57	19241.54
488.75	19234.52
488.92	19761.14
489.10	19552.84
489.28	19850.08
489.46	20168.40
489.64	20287.76
489.81	20622.46
489.99	20528.84
490.17	20936.09
490.35	21390.16
490.53	20657.57
490.70	21083.55
490.88	20936.09
491.06	21511.86
491.24	21020.35
491.41	21085.89
491.59	21429.94
491.77	21369.09
491.95	21532.93
492.13	21902.73
492.30	22209.34
492.48	22412.97
492.66	22218.71
492.84	22436.38
493.01	22396.59
493.19	22623.62
493.37	22895.12
493.54	22698.52
493.72	22923.21
493.90	23129.17
494.08	23693.24
494.25	23913.25
494.43	23763.46
494.61	24109.86
494.79	24100.50
494.96	24053.69
495.14	24119.22
495.32	24428.17
495.49	24224.54
495.67	24428.17
495.85	24702.01
496.02	24940.75
496.20	24912.66
496.38	24940.75
496.55	25233.32
496.73	25490.77
496.91	25366.73
497.09	25837.17
497.26	25895.69
497.44	25752.91
497.62	25860.58
497.79	26129.74
497.97	25647.59
498.14	26216.34
498.32	26263.15
498.50	26391.88
498.67	26848.29
498.85	26462.10
499.03	27049.57
499.20	26927.86
499.38	26916.16
499.56	26801.47
499.73	27402.99
499.91	26962.97
500.08	27587.89
500.26	27140.85
500.44	27594.92
500.61	27447.46
500.79	27365.54
500.97	27255.54
501.14	28048.98
501.32	27707.26
501.49	27402.99
501.67	27974.08
501.84	28210.48
502.02	28109.83
502.20	28367.29
502.37	28460.91
502.55	28596.67
502.72	28500.70
502.90	28987.53
503.07	28397.72
503.25	28907.96
503.43	28446.87
503.60	28739.44
503.78	28563.90
503.95	28861.15
504.13	29223.93
504.30	29315.21
504.48	29443.94
504.65	29689.70
504.83	29715.44
505.01	29722.46
505.18	29727.14
505.36	30057.16
505.53	29916.73
505.71	30527.61
505.88	30462.07
506.06	30113.33
506.23	30235.04
506.41	30501.86
506.58	30677.40
506.76	30637.61
506.93	31325.73
507.11	31075.29
507.28	30340.36
507.46	30866.98
507.63	31356.16
507.81	30656.34
507.98	30845.92
508.16	31037.84
508.33	31299.98
508.50	32032.57
508.68	31395.95
508.85	32580.26
509.03	31840.65
509.20	31796.18
509.38	31962.36
509.55	32053.64
509.73	31676.81
509.90	32189.39
510.08	32360.25
510.25	32053.64
510.42	32072.36
510.60	32355.57
510.77	32409.40
510.95	32486.64
511.12	32631.75
511.30	32783.88
511.47	33106.88
511.64	33502.43
511.82	33261.35
511.99	33123.26
512.17	33104.54
512.34	33130.28
512.51	33521.15
512.69	33551.58
512.86	33488.38
513.04	33720.10
513.21	33462.64
513.38	33694.35
513.56	33635.84
513.73	33343.27
513.90	33717.76
514.08	34000.96
514.25	33888.62
514.43	34143.74
514.60	34291.19
514.77	33909.68
514.95	34213.95
515.12	33879.25
515.29	34295.87
515.47	34576.73
515.64	35068.25
515.81	34190.55
515.99	34576.73
516.16	34560.35
516.33	34209.27
516.51	34553.33
516.68	34045.43
516.85	34005.64
517.03	34405.88
517.20	34630.57
517.37	34911.43
517.54	35461.46
517.72	35021.44
517.89	35042.50
518.06	34553.33
518.24	34597.80
518.41	35051.86
518.58	35227.40
518.75	35522.31
518.93	35395.92
519.10	35470.82
519.27	35653.38
519.45	36009.14
519.62	35943.61
519.79	36149.57
519.96	36299.37
520.14	36182.34
520.31	35559.76
520.48	36084.04
520.65	36500.65
520.83	36549.81
521.00	36783.86
521.17	36816.63
521.34	36542.78
521.52	36811.95
521.69	37113.87
521.86	37347.93
522.03	37331.54
522.20	36886.84
522.38	37535.17
522.55	36907.91
522.72	37240.26
522.89	36978.12
523.07	37270.69
523.24	37427.51
523.41	37661.56
523.58	37888.59
523.75	38244.35
523.92	37701.35
524.10	37607.73
524.27	38160.09
524.44	38129.67
524.61	37895.61
524.78	38447.98
524.96	38506.49
525.13	38457.34
525.30	38822.47
525.47	38775.66
525.64	38333.29
525.81	38953.54
525.98	38157.75
526.16	38408.19
526.33	37965.83
526.50	38227.97
526.67	38307.55
526.84	37717.73
527.01	37996.26
527.18	38466.70
527.36	38873.96
527.53	39239.08
527.70	39166.52
527.87	39229.72
528.04	39070.56
528.21	39548.03
528.38	39412.28
528.55	39358.45
528.72	39924.86
528.89	39597.18
529.07	39714.21
529.24	39166.52
529.41	39283.55
529.58	39782.09
529.75	39793.79
529.92	39751.66
530.09	39915.50
530.26	40137.85
530.43	40203.38
530.60	39538.67
530.77	40355.52
530.94	40388.28
531.11	40023.16
531.28	40084.01
531.46	40383.60
531.63	40320.41
531.80	40456.16
531.97	40266.58
532.14	40442.12
532.31	40098.06
532.48	40285.30
532.65	40554.46
532.82	40741.71
532.99	40570.85
533.16	40353.18
533.33	40627.02
533.50	40687.87
533.67	40758.09
533.84	40758.09
534.01	40399.99
534.18	40795.54
534.35	41481.31
534.52	40879.80
534.69	41523.44
534.86	41284.71
535.03	41488.34
535.20	41787.92
535.37	42064.11
535.54	41549.19
535.71	41572.60
535.88	41832.39
536.05	41687.28
536.22	41638.13
536.38	41886.23
536.55	41565.57
536.72	41872.18
536.89	41280.03
537.06	41570.25
537.23	42162.41
537.40	41820.69
537.57	41652.17
537.74	42337.95
537.91	42520.51
538.08	42153.05
538.25	41478.97
538.42	41998.57
538.59	42244.33
538.75	41619.41
538.92	41715.37
539.09	42548.60
539.26	42359.02
539.43	42064.11
539.60	42162.41
539.77	42223.26
539.94	42344.97
540.11	42234.97
540.28	42197.52
540.44	42417.53
540.61	42333.27
540.78	42286.46
540.95	42279.44
541.12	42176.45
541.29	42499.45
541.46	42244.33
541.62	42728.82
541.79	42876.27
541.96	42396.46
542.13	42623.50
542.30	42948.83
542.47	42752.23
542.63	42878.61
542.80	43166.50
542.97	43229.69
543.14	44282.94
543.31	43426.30
543.48	43805.47
543.64	43564.39
543.81	43615.88
543.98	43805.47
544.15	43573.75
544.32	43445.02
544.48	43985.69
544.65	43875.68
544.82	43910.79
544.99	43316.29
545.16	43384.17
545.32	43983.35
545.49	44411.67
545.66	44418.69
545.83	44488.90
546.00	43934.20
546.16	43775.04
546.33	43798.44
546.50	43655.67
546.67	44044.20
546.83	43786.74
547.00	44149.53
547.17	43863.98
547.34	44032.50
547.50	44046.54
547.67	43985.69
547.84	44507.63
548.00	44591.89
548.17	44423.37
548.34	44835.30
548.51	44641.04
548.67	44493.58
548.84	44575.50
549.01	44488.90
549.18	44612.95
549.34	44725.30
549.51	44367.20
549.68	44683.17
549.84	44542.74
550.01	44828.28
550.18	44802.53
550.34	44814.24
550.51	44435.07
550.68	44498.26
550.84	44301.66
551.01	44921.90
551.18	44861.05
551.34	44797.85
551.51	45448.52
551.68	45144.25
551.84	45221.49
552.01	45076.38
552.18	45139.57
552.34	44587.21
552.51	44938.29
552.68	45095.10
552.84	45308.09
553.01	45429.80
553.18	45228.51
553.34	45294.05
553.51	45109.14
553.67	45593.64
553.84	45792.58
554.01	45256.60
554.17	45563.21
554.34	45738.75
554.51	45198.09
554.67	45743.43
554.84	45193.40
555.00	45141.91
555.17	45553.85
555.33	45560.87
555.50	45755.13
555.67	45586.61
555.83	45717.68
556.00	45373.63
556.16	45528.10
556.33	45560.87
556.50	45333.84
556.66	45652.15
556.83	45598.32
556.99	46211.54
557.16	45881.52
557.32	45755.13
557.49	46265.37
557.65	45504.70
557.82	45586.61
557.98	46136.64
558.15	45504.70
558.32	45682.58
558.48	45907.27
558.65	46010.25
558.81	45759.81
558.98	46085.15
559.14	45631.08
559.31	46103.87
559.47	45867.48
559.64	46237.28
559.80	46314.52
559.97	46358.99
560.13	45972.80
560.30	45663.85
560.46	46270.05
560.63	46068.76
560.79	45951.74
560.96	46040.68
561.12	46164.73
561.29	46291.12
561.45	45977.48
561.61	46281.75
561.78	46174.09
561.94	45916.63
562.11	46155.36
562.27	45825.35
562.44	46199.83
562.60	46429.21
562.77	46295.80
562.93	46564.96
563.10	46562.62
563.26	46286.43
563.42	46646.88
563.59	46073.45
563.75	45872.16
563.92	46480.70
564.08	46588.36
564.24	46803.69
564.41	46277.07
564.57	46279.41
564.74	46230.26
564.90	46557.94
565.07	46218.56
565.23	46071.10
565.39	46185.79
565.56	46263.03
565.72	45780.88
565.88	46316.86
566.05	46525.17
566.21	46274.73
566.38	46501.76
566.54	46625.81
566.70	46714.75
566.87	46635.17
567.03	46887.95
567.19	47147.75
567.36	46576.66
567.52	46733.48
567.68	47056.47
567.85	46005.57
568.01	46344.95
568.17	46731.14
568.34	46794.33
568.50	46630.49
568.66	46532.19
568.83	46686.67
568.99	46251.33
569.15	46270.05
569.32	46440.91
569.48	46721.77
569.64	46714.75
569.81	46513.47
569.97	46616.45
570.13	46431.55
570.30	46211.54
570.46	46326.22
570.62	45977.48
570.78	46153.02
570.95	46068.76
571.11	46784.97
571.27	46305.16
571.43	46513.47
571.60	46831.78
571.76	46831.78
571.92	46501.76
572.09	46747.52
572.25	46305.16
572.41	46375.37
572.57	46885.61
572.74	47360.74
572.90	46892.63
573.06	46363.67
573.22	46527.51
573.38	46653.90
573.55	46258.35
573.71	46703.05
573.87	46583.68
574.03	46768.58
574.20	46494.74
574.36	46288.77
574.52	46492.40
574.68	46791.99
574.84	46436.23
575.01	46841.14
575.17	46616.45
575.33	46595.38
575.49	46230.26
575.65	46906.68
575.82	46775.61
575.98	46490.06
576.14	46810.71
576.30	46813.05
576.46	46651.56
576.62	46801.35
576.79	46862.21
576.95	46564.96
577.11	46986.25
577.27	46611.77
577.43	46902.00
577.59	47117.32
577.75	46698.37
577.92	46131.96
578.08	46450.27
578.24	46321.54
578.40	46461.97
578.56	46681.98
578.72	46639.86
578.88	47173.50
579.04	47030.72
579.21	46501.76
579.37	46909.02
579.53	46761.56
579.69	46939.44
579.85	46691.35
580.01	47004.98
580.17	46660.92
580.33	46717.09
580.49	46808.37
580.65	47072.85
580.82	46843.48
580.98	46948.81
581.14	46784.97
581.30	47023.70
581.46	46887.95
581.62	46780.29
581.78	46754.54
581.94	47004.98
582.10	47105.62
582.26	47267.12
582.42	46864.55
582.58	46883.27
582.74	46621.13
582.90	46733.48
583.06	47154.77
583.22	47152.43
583.38	46948.81
583.54	46602.41
583.70	47232.01
583.86	46894.97
584.02	46873.91
584.18	46866.89
584.34	46836.46
584.50	46967.53
584.66	46843.48
584.82	46696.03
584.98	46932.42
585.14	47089.24
585.30	46857.52
585.46	46782.63
585.62	46892.63
585.78	46635.17
585.94	46024.29
586.10	47299.89
586.26	47147.75
586.42	46492.40
586.58	47129.03
586.74	47051.79
586.90	46562.62
587.06	46569.64
587.22	47180.52
587.38	46866.89
587.54	47065.83
587.70	47210.95
587.86	46787.31
588.02	46656.24
588.18	46763.90
588.34	46590.70
588.49	46693.69
588.65	46216.22
588.81	45907.27
588.97	46461.97
589.13	46286.43
589.29	46532.19
589.45	46894.97
589.61	47056.47
589.77	46873.91
589.93	47110.30
590.08	47105.62
590.24	47047.11
590.40	46871.57
590.56	46871.57
590.72	47044.77
590.88	46705.39
591.04	46707.73
591.20	47122.01
591.35	47068.17
591.51	47271.80
591.67	46962.85
591.83	46726.46
591.99	47232.01
592.15	46813.05
592.31	47084.56
592.46	47302.23
592.62	47075.19
592.78	47402.87
592.94	47063.49
593.10	47105.62
593.26	47342.02
593.41	46923.06
593.57	46590.70
593.73	46529.85
593.89	47267.12
594.05	46838.80
594.20	47054.13
594.36	47526.92
594.52	46859.87
594.68	46721.77
594.84	47000.30
594.99	46974.55
595.15	47016.68
595.31	46775.61
595.47	46791.99
595.62	47622.88
595.78	47131.37
595.94	47262.44
596.10	47168.82
596.25	47356.06
596.41	47213.29
596.57	46831.78
596.73	47042.43
596.88	46644.54
597.04	47012.00
597.20	47098.60
597.36	47187.54
597.51	47100.94
597.67	47028.38
597.83	47040.09
597.99	47232.01
598.14	47019.02
598.30	47145.41
598.46	47260.10
598.61	46780.29
598.77	46822.42
598.93	47166.48
599.09	46604.75
599.24	47440.32
599.40	46745.18
599.56	47342.02
599.71	46909.02
599.87	46761.56
600.03	47070.51
600.18	46389.42
600.34	47271.80
600.50	47143.07
600.65	46663.26
600.81	46799.01
600.97	47056.47
601.12	46951.15
601.28	47110.30
601.44	46981.57
601.59	46464.32
601.75	46813.05
601.91	46768.58
602.06	46497.08
602.22	47014.34
602.37	47016.68
602.53	47117.32
602.69	47325.63
602.84	46595.38
603.00	46454.95
603.16	47365.42
603.31	46782.63
603.47	46759.22
603.62	46604.75
603.78	47239.03
603.94	46773.27
604.09	47023.70
604.25	47105.62
604.40	47089.24
604.56	46803.69
604.71	47077.54
604.87	46953.49
605.03	46780.29
605.18	46707.73
605.34	46717.09
605.49	46644.54
605.65	47103.28
605.80	46878.59
605.96	46658.58
606.12	46845.82
606.27	47234.35
606.43	46923.06
606.58	47037.75
606.74	46791.99
606.89	46520.49
607.05	47171.16
607.20	47100.94
607.36	46628.15
607.51	47161.79
607.67	46593.04
607.82	46623.47
607.98	46501.76
608.13	46485.38
608.29	46841.14
608.44	46616.45
608.60	46129.62
608.75	46485.38
608.91	46461.97
609.06	46759.22
609.22	46850.50
609.37	46429.21
609.53	46696.03
609.68	46747.52
609.84	46005.57
609.99	46550.91
610.15	46036.00
610.30	46094.51
610.46	46167.07
610.61	46611.77
610.76	46323.88
610.92	46461.97
611.07	46286.43
611.23	46398.78
611.38	46050.04
611.54	46426.87
611.69	46134.30
611.84	46064.08
612.00	46211.54
612.15	45553.85
612.31	46483.04
612.46	46295.80
612.62	46096.85
612.77	45989.19
612.92	46321.54
613.08	46089.83
613.23	46190.47
613.39	45792.58
613.54	45675.55
613.69	45886.20
613.85	45647.47
614.00	46213.88
614.15	46071.10
614.31	45851.09
614.46	46150.68
614.62	45965.78
614.77	45841.73
614.92	45804.28
615.08	45991.53
615.23	45647.47
615.38	45563.21
615.54	45488.31
615.69	45769.18
615.84	45645.13
616.00	45453.20
616.15	45230.85
616.30	45647.47
616.46	45319.79
616.61	45261.28
616.76	45329.16
616.92	45198.09
617.07	45380.65
617.22	45240.21
617.37	45041.27
617.53	45715.34
617.68	45434.48
617.83	45310.43
617.99	45490.65
618.14	45443.84
618.29	45368.94
618.45	45120.85
618.60	44612.95
618.75	44865.73
618.90	44769.77
619.06	45052.97
619.21	45141.91
619.36	45422.78
619.51	44729.98
619.67	44933.60
619.82	44882.11
619.97	45525.76
620.12	45268.30
620.28	44250.17
620.43	44549.76
620.58	45043.61
620.73	45085.74
620.89	44863.39
621.04	44641.04
621.19	44399.96
621.34	44851.69
621.49	44678.49
621.65	44776.79
621.80	44739.34
621.95	44650.40
622.10	44690.19
622.25	44130.80
622.41	43962.28
622.56	44533.37
622.71	44453.79
622.86	44439.75
623.01	44390.60
623.16	44451.45
623.32	44428.05
623.47	44299.32
623.62	44575.50
623.77	44697.21
623.92	44196.34
624.07	44825.94
624.23	43828.87
624.38	43910.79
624.53	43929.51
624.68	44203.36
624.83	44088.67
624.98	43798.44
625.13	43522.26
625.29	43847.60
625.44	43650.99
625.59	43772.70
625.74	43260.12
625.89	43475.45
626.04	43643.97
626.19	43641.63
626.34	43480.13
626.49	43768.02
626.65	43538.65
626.80	44039.52
626.95	43447.36
627.10	43896.75
627.25	43721.21
627.40	43304.59
627.55	43201.61
627.70	43505.88
627.85	43007.34
628.00	43051.81
628.15	43491.83
628.30	43077.56
628.45	43374.81
628.60	43119.69
628.76	43290.55
628.91	43129.05
629.06	42930.11
629.21	42869.25
629.36	42525.19
629.51	42871.59
629.66	42705.41
629.81	42389.44
629.96	43309.27
630.11	42880.95
630.26	43372.47
630.41	43187.56
630.56	43086.92
630.71	42988.62
630.86	43093.94
631.01	42902.02
631.16	42494.77
631.31	42761.59
631.46	42698.39
631.61	42864.57
631.76	42525.19
631.91	42705.41
632.06	42316.89
632.21	42813.08
632.36	43091.60
632.51	42749.88
632.66	42258.37
632.81	42225.60
632.96	42588.39
633.10	42134.32
633.25	42361.36
633.40	42190.50
633.55	42981.60
633.70	42384.76
633.85	42148.37
634.00	42342.63
634.15	42092.19
634.30	42227.95
634.45	41911.97
634.60	42614.13
634.75	42316.89
634.90	42052.41
635.05	42298.16
635.19	41848.78
635.34	42251.35
635.49	42096.88
635.64	41764.52
635.79	42398.80
635.94	41830.05
636.09	42078.15
636.24	41642.81
636.39	41649.83
636.53	42057.09
636.68	41881.55
636.83	41542.17
636.98	41837.08
637.13	41600.68
637.28	41785.58
637.43	41619.41
637.57	42160.07
637.72	41453.23
637.87	41500.04
638.02	41495.36
638.17	41841.76
638.32	41539.83
638.46	41532.81
638.61	41537.49
638.76	41607.70
638.91	41839.42
639.06	41331.52
639.20	41706.01
639.35	41588.98
639.50	41603.02
639.65	41722.39
639.80	41394.71
639.94	41586.64
640.09	41322.16
640.24	40975.76
640.39	40992.14
640.54	40968.74
640.68	41361.95
640.83	40917.25
640.98	41132.57
641.13	40865.75
641.27	40879.80
641.42	40971.08
641.57	40680.85
641.72	41060.02
641.86	40683.19
642.01	40509.99
642.16	40465.52
642.31	40034.86
642.45	40823.62
642.60	40528.72
642.75	40528.72
642.90	40477.22
643.04	40732.34
643.19	40493.61
643.34	40528.72
643.48	40540.42
643.63	40439.78
643.78	40872.78
643.93	40680.85
644.07	40402.33
644.22	40170.61
644.37	40374.24
644.51	40399.99
644.66	40680.85
644.81	40837.67
644.95	40404.67
645.10	40416.37
645.25	40189.34
645.39	40484.25
645.54	40224.45
645.69	39915.50
645.83	40308.71
645.98	40566.16
646.13	40135.51
646.27	40156.57
646.42	40076.99
646.57	39915.50
646.71	39854.64
646.86	39927.20
647.00	39817.19
647.15	40285.30
647.30	40236.15
647.44	39590.16
647.59	40065.29
647.74	39599.52
647.88	40130.83
648.03	39793.79
648.17	39454.41
648.32	39477.82
648.47	39814.85
648.61	39526.97
648.76	40098.06
648.90	39629.95
649.05	39407.60
649.20	39615.91
649.34	39466.11
649.49	38974.60
649.63	39103.33
649.78	39875.71
649.92	39615.91
650.07	39817.19
650.21	39395.90
650.36	39306.96
650.51	38862.26
650.65	39751.66
650.80	39995.07
650.94	39812.51
651.09	39416.96
651.23	39232.06
651.38	39051.84
651.52	39379.51
651.67	39180.57
651.81	38953.54
651.96	39241.42
652.10	38981.62
652.25	38677.35
652.39	39206.31
652.54	39040.14
652.68	38728.84
652.83	38953.54
652.97	39229.72
653.12	39283.55
653.26	38593.09
653.41	38745.23
653.55	38565.01
653.70	38918.43
653.84	39115.03
653.99	38670.33
654.13	38756.93
654.27	38398.83
654.42	37893.27
654.56	38227.97
654.71	38483.09
654.85	38513.52
655.00	38373.08
655.14	38185.84
655.29	38085.20
655.43	38340.32
655.57	37764.54
655.72	37731.78
655.86	37696.67
656.01	37832.42
656.15	37483.68
656.30	37509.43
656.44	37684.97
656.58	37956.47
656.73	37825.40
656.87	37584.32
657.01	37638.15
657.16	37919.02
657.30	37514.11
657.45	37530.49
657.59	37195.79
657.73	37614.75
657.88	37827.74
658.02	37844.12
658.16	37935.40
658.31	37986.89
658.45	37584.32
658.60	37457.93
658.74	37546.87
658.88	37652.20
659.03	37397.08
659.17	37092.81
659.31	37397.08
659.46	37368.99
659.60	37628.79
659.74	37830.08
659.89	37373.67
660.03	37209.84
660.17	37427.51
660.32	37450.91
660.46	37603.05
660.60	37200.47
660.74	37041.32
660.89	36840.03
661.03	36528.74
661.17	36875.14
661.32	36350.86
661.46	36954.72
661.60	36802.58
661.74	36828.33
661.89	36715.98
662.03	36603.64
662.17	36395.33
662.31	36371.92
662.46	36868.12
662.60	36893.86
662.74	36542.78
662.88	36355.54
663.03	36292.35
663.17	36587.25
663.31	36236.17
663.45	36376.61
663.60	36371.92
663.74	35821.90
663.88	35962.33
664.02	36070.00
664.17	36030.21
664.31	36060.63
664.45	35257.83
664.59	35459.12
664.73	35676.79
664.88	36098.08
665.02	35608.91
665.16	35587.85
665.30	35503.59
665.44	35234.42
665.59	35131.44
665.73	35136.12
665.87	35225.06
666.01	35269.53
666.15	35311.66
666.29	34834.19
666.44	35314.00
666.58	35072.93
666.72	35122.08
666.86	34927.81
667.00	35000.37
667.14	34649.29
667.28	34462.05
667.43	34267.78
667.57	34574.39
667.71	34471.41
667.85	34796.74
667.99	34401.19
668.13	34464.39
668.27	34555.67
668.41	34740.57
668.56	34188.21
668.70	34534.60
668.84	33888.62
668.98	33635.84
669.12	33556.26
669.26	33617.11
669.40	34061.82
669.54	33717.76
669.68	33769.25
669.82	33720.10
669.96	33722.44
670.10	33633.50
670.25	33832.44
670.39	33593.71
670.53	33198.16
670.67	33362.00
670.81	33427.53
670.95	33130.28
671.09	33041.34
671.23	33074.11
671.37	32982.83
671.51	32734.73
671.65	33188.80
671.79	32975.81
671.93	32907.93
672.07	33024.96
672.21	32690.26
672.35	32856.44
672.49	32947.72
672.63	32383.65
672.77	32613.02
672.91	32538.13
673.05	32388.33
673.19	32582.60
673.33	32500.68
673.47	32130.87
673.61	32114.49
673.75	31367.86
673.89	31732.98
674.03	31601.91
674.17	31903.84
674.31	31676.81
674.45	31508.29
674.59	31676.81
674.73	31882.78
674.87	31737.66
675.01	31620.64
675.15	31496.59
675.29	31166.57
675.43	31084.65
675.56	31133.81
675.70	30785.07
675.84	30930.18
675.98	30253.76
676.12	30766.34
676.26	30897.41
676.40	31026.14
676.54	30815.49
676.68	30916.14
676.82	30298.23
676.96	30398.88
677.10	30125.04
677.23	30216.32
677.37	30008.01
677.51	29993.97
677.65	29912.05
677.79	29455.64
677.93	29607.78
678.07	29446.28
678.21	29050.73
678.34	29226.27
678.48	29252.02
678.62	28797.95
678.76	29088.18
678.90	29048.39
679.04	28751.14
679.18	28823.70
679.31	28683.27
679.45	28371.97
679.59	28318.14
679.73	28217.50
679.87	28486.66
680.00	28254.95
680.14	28198.77
680.28	28379.00
680.42	28210.48
680.56	27821.95
680.70	28004.51
680.83	27859.40
680.97	27826.63
681.11	27934.29
681.25	27676.83
681.39	27363.20
681.52	27445.12
681.66	27393.63
681.80	27250.86
681.94	27391.29
682.07	27096.38
682.21	26946.59
682.35	26946.59
682.49	27185.32
682.62	26939.57
682.76	26717.22
682.90	26412.95
683.04	26682.11
683.17	26410.60
683.31	26625.93
683.45	26064.21
683.59	25961.22
683.72	26153.15
683.86	25986.97
684.00	26256.13
684.13	25752.91
684.27	25673.34
684.41	25497.80
684.55	25874.62
684.68	25362.04
684.82	25659.29
684.96	25350.34
685.09	25453.33
685.23	24762.87
685.37	25036.71
685.50	25083.52
685.64	24786.27
685.78	24816.70
685.91	24608.39
686.05	24343.91
686.19	24306.46
686.32	24341.57
686.46	23885.17
686.60	23726.01
686.73	23857.08
686.87	23449.83
687.01	23489.62
687.14	23138.54
687.28	23403.02
687.42	23356.21
687.55	23290.67
687.69	23510.68
687.82	23250.88
687.96	23454.51
688.10	23061.30
688.23	22616.60
688.37	22824.90
688.50	22775.75
688.64	22963.00
688.78	22892.78
688.91	22366.16
689.05	22766.39
689.18	22466.80
689.32	22302.96
689.46	22380.20
689.59	22246.79
689.73	22398.93
689.86	22314.67
690.00	22038.48
690.13	22244.45
690.27	22150.83
690.41	21963.59
690.54	21589.10
690.68	21434.63
690.81	21570.38
690.95	21525.91
691.08	21242.70
691.22	21317.60
691.35	21568.04
691.49	21659.32
691.62	21163.12
691.76	21053.12
691.89	21331.64
692.03	21041.42
692.16	20716.08
692.30	20577.99
692.43	20713.74
692.57	20407.13
692.70	20381.38
692.84	20638.84
692.97	20201.16
693.11	19882.85
693.24	20283.08
693.38	19960.09
693.51	19892.21
693.65	20142.65
693.78	19756.46
693.92	19765.82
694.05	19470.92
694.19	19468.58
694.32	19124.52
694.45	19468.58
694.59	18958.34
694.72	19241.54
694.86	19307.08
694.99	19021.53
695.13	19066.00
695.26	18995.79
695.39	18764.07
695.53	18635.35
695.66	19014.51
695.80	18836.63
695.93	18745.35
696.07	18665.77
696.20	18560.45
696.33	18410.65
696.47	18412.99
696.60	18228.09
696.73	18228.09
696.87	17781.05
697.00	17916.80
697.14	17685.09
697.27	17811.48
697.40	17980.00
697.54	17661.68
697.67	17642.96
697.80	17481.46
697.94	17434.65
698.07	17355.07
698.21	17186.55
698.34	17259.11
698.47	16933.78
698.61	16947.82
698.74	16959.52
698.87	16896.33
699.01	16833.13
699.14	16418.86
699.27	16634.19
699.40	16500.78
699.54	16369.71
699.67	16561.63
699.80	16545.25
699.94	16332.26
700.07	16315.87
700.20	15826.70
700.34	16170.76
700.47	16313.53
700.60	16238.64
700.73	16191.83
700.87	15852.45
701.00	15751.81
701.13	15756.49
701.26	15545.84
701.40	15541.16
701.53	15667.55
701.66	15627.76
701.79	15243.91
701.93	15435.83
702.06	15222.84
702.19	15070.71
702.32	14883.47
702.46	14916.23
702.59	15007.52
702.72	14951.34
702.85	15049.64
702.99	14815.59
703.12	14906.87
703.25	14663.46
703.38	14640.05
703.51	14305.35
703.65	14546.43
703.78	14328.76
703.91	14185.99
704.04	14134.50
704.17	13963.64
704.31	13902.78
704.44	13912.14
704.57	13928.53
704.70	13865.33
704.83	13785.76
704.96	13895.76
705.10	13872.36
705.23	13757.67
>>>>>End Processed Spectral Data<<<<<
