SpectraSuite Data File
++++++++++++++++++++++++++++++++++++
Date: Fri Oct 25 11:34:28 EDT 2013
User: price-jones
Dark Spectrum Present: No
Reference Spectrum Present: No
Number of Sampled Component Spectra: 1
Spectrometers: USB2+H05261
Integration Time (usec): 100000 (USB2+H05261)
Spectra Averaged: 1 (USB2+H05261)
Boxcar Smoothing: 0 (USB2+H05261)
Correct for Electrical Dark: No (USB2+H05261)
Strobe/Lamp Enabled: No (USB2+H05261)
Correct for Detector Non-linearity: No (USB2+H05261)
Correct for Stray Light: No (USB2+H05261)
Number of Pixels in Processed Spectrum: 2048
>>>>>Begin Processed Spectral Data<<<<<
365.73	245.76
365.92	245.76
366.12	245.76
366.32	241.08
366.52	91.28
366.72	187.24
366.91	154.48
367.11	257.46
367.31	180.22
367.51	210.65
367.70	182.56
367.90	264.48
368.10	124.05
368.30	170.86
368.49	187.24
368.69	227.03
368.89	182.56
369.09	182.56
369.28	229.37
369.48	140.43
369.68	201.29
369.87	250.44
370.07	259.80
370.27	299.59
370.47	292.57
370.66	479.81
370.86	449.38
371.06	500.87
371.25	594.50
371.45	519.60
371.65	573.43
371.84	519.60
372.04	477.47
372.24	557.05
372.44	561.73
372.63	540.66
372.83	624.92
373.03	627.26
373.22	561.73
373.42	580.45
373.62	596.84
373.81	566.41
374.01	578.11
374.21	620.24
374.40	653.01
374.60	629.60
374.79	660.03
374.99	592.16
375.19	610.88
375.38	585.13
375.58	575.77
375.78	664.71
375.97	716.20
376.17	706.84
376.37	669.39
376.56	568.75
376.76	669.39
376.95	650.67
377.15	599.18
377.35	695.14
377.54	755.99
377.74	685.78
377.93	737.27
378.13	641.31
378.33	723.23
378.52	692.80
378.72	697.48
378.91	667.05
379.11	655.35
379.31	676.41
379.50	685.78
379.70	737.27
379.89	662.37
380.09	753.65
380.28	674.07
380.48	734.93
380.68	786.42
380.87	772.38
381.07	711.52
381.26	770.04
381.46	791.10
381.65	734.93
381.85	770.04
382.04	655.35
382.24	685.78
382.43	767.70
382.63	821.53
382.83	725.57
383.02	816.85
383.22	793.44
383.41	720.88
383.61	770.04
383.80	826.21
384.00	718.54
384.19	748.97
384.39	816.85
384.58	763.01
384.78	732.59
384.97	819.19
385.17	772.38
385.36	814.51
385.56	828.55
385.75	805.14
385.95	866.00
386.14	866.00
386.34	910.47
386.53	816.85
386.72	819.19
386.92	894.08
387.11	807.48
387.31	933.87
387.50	851.96
387.70	847.27
387.89	884.72
388.09	917.49
388.28	905.79
388.48	854.30
388.67	945.58
388.86	884.72
389.06	814.51
389.25	947.92
389.45	884.72
389.64	973.66
389.84	931.53
390.03	999.41
390.22	978.34
390.42	976.00
390.61	931.53
390.81	903.45
391.00	964.30
391.19	978.34
391.39	961.96
391.58	1050.90
391.78	943.24
391.97	1025.15
392.16	961.96
392.36	980.68
392.55	1034.52
392.75	1104.73
392.94	1064.94
393.13	964.30
393.33	966.64
393.52	976.00
393.71	1053.24
393.91	1050.90
394.10	1090.69
394.29	1090.69
394.49	1043.88
394.68	1114.10
394.88	1057.92
395.07	1142.18
395.26	1041.54
395.46	1130.48
395.65	1198.35
395.84	1207.72
396.04	1200.69
396.23	1165.59
396.42	1203.04
396.62	1261.55
396.81	1219.42
397.00	1172.61
397.19	1186.65
397.39	1160.91
397.58	1233.46
397.77	1137.50
397.97	1188.99
398.16	1254.53
398.35	1235.80
398.55	1240.48
398.74	1177.29
398.93	1296.66
399.12	1205.38
399.32	1268.57
399.51	1280.27
399.70	1291.98
399.90	1263.89
400.09	1270.91
400.28	1284.95
400.47	1397.30
400.67	1310.70
400.86	1418.36
401.05	1355.17
401.24	1336.45
401.44	1409.00
401.63	1355.17
401.82	1444.11
402.01	1355.17
402.21	1401.98
402.40	1474.54
402.59	1455.81
402.78	1441.77
402.97	1500.28
403.17	1455.81
403.36	1434.75
403.55	1406.66
403.74	1458.15
403.93	1523.69
404.13	1638.38
404.32	1629.01
404.51	1621.99
404.70	1565.82
404.89	1661.78
405.09	1640.72
405.28	1619.65
405.47	1614.97
405.66	1647.74
405.85	1673.48
406.05	1549.43
406.24	1680.50
406.43	1727.32
406.62	1682.85
406.81	1645.40
407.00	1729.66
407.20	1682.85
407.39	1694.55
407.58	1781.15
407.77	1729.66
407.96	1762.42
408.15	1867.75
408.34	1781.15
408.54	1839.66
408.73	1750.72
408.92	1806.89
409.11	1886.47
409.30	2015.20
409.49	1839.66
409.68	1865.41
409.87	1893.49
410.07	1963.71
410.26	1940.30
410.45	1982.43
410.64	1961.37
410.83	2036.27
411.02	2106.48
411.21	2146.27
411.40	2155.63
411.59	2150.95
411.78	2157.97
411.98	2097.12
412.17	2258.62
412.36	2078.40
412.55	2160.31
412.74	2150.95
412.93	2335.85
413.12	2181.38
413.31	2324.15
413.50	2242.23
413.69	2326.49
413.88	2431.82
414.07	2403.73
414.26	2406.07
414.45	2420.11
414.64	2403.73
414.83	2448.20
415.02	2462.24
415.22	2513.74
415.41	2560.55
415.60	2445.86
415.79	2555.86
415.98	2572.25
416.17	2616.72
416.36	2607.36
416.55	2668.21
416.74	2738.43
416.93	2605.02
417.12	2677.57
417.31	2810.98
417.50	2759.49
417.69	2815.66
417.88	2778.22
418.07	2906.95
418.26	2846.09
418.45	2867.16
418.64	2897.58
418.83	3012.27
419.02	2864.82
419.21	2981.84
419.39	3005.25
419.58	2916.31
419.77	2892.90
419.96	3061.42
420.15	3047.38
420.34	3005.25
420.53	3187.81
420.72	3133.98
420.91	3009.93
421.10	3143.34
421.29	3192.49
421.48	3070.78
421.67	3103.55
421.86	3077.80
422.05	3171.43
422.24	3122.27
422.43	3351.65
422.61	3276.75
422.80	3337.60
422.99	3201.85
423.18	3246.32
423.37	3283.77
423.56	3234.62
423.75	3262.71
423.94	3243.98
424.13	2986.52
424.32	3173.77
424.50	3361.01
424.69	3428.88
424.88	3456.97
425.07	3241.64
425.26	3236.96
425.45	3276.75
425.64	3185.47
425.83	3274.41
426.01	3379.73
426.20	3330.58
426.39	3384.41
426.58	3323.56
426.77	3321.22
426.96	3438.25
427.15	3428.88
427.33	3520.17
427.52	3398.46
427.71	3510.80
427.90	3487.40
428.09	3501.44
428.28	3480.38
428.46	3559.95
428.65	3466.33
428.84	3648.90
429.03	3761.24
429.22	3548.25
429.40	3669.96
429.59	3616.13
429.78	3548.25
429.97	3644.21
430.16	3627.83
430.34	3719.11
430.53	3679.32
430.72	3873.59
430.91	3751.88
431.10	3702.73
431.28	3655.92
431.47	3761.24
431.66	3859.54
431.85	3864.22
432.03	3878.27
432.22	4044.45
432.41	3882.95
432.60	4002.32
432.79	3845.50
432.97	3969.55
433.16	3943.80
433.35	3967.21
433.54	3960.19
433.72	4065.51
433.91	3908.69
434.10	4154.45
434.28	3946.14
434.47	3941.46
434.66	4049.13
434.85	4215.30
435.03	4224.67
435.22	4095.94
435.41	4304.25
435.59	4224.67
435.78	4208.28
435.97	4362.76
436.16	4145.09
436.34	4318.29
436.53	4304.25
436.72	4311.27
436.90	4259.78
437.09	4334.67
437.28	4227.01
437.46	4152.11
437.65	4280.84
437.84	4468.08
438.02	4325.31
438.21	4444.68
438.40	4447.02
438.58	4369.78
438.77	4681.07
438.96	4442.34
439.14	4622.56
439.33	4692.77
439.52	4667.03
439.70	4622.56
439.89	4828.53
440.08	4805.12
440.26	4765.33
440.45	4830.87
440.63	4711.50
440.82	4983.00
441.01	4762.99
441.19	5029.81
441.38	5043.85
441.57	4999.38
441.75	5130.45
441.94	5320.04
442.12	5160.88
442.31	5275.57
442.50	5146.84
442.68	5142.16
442.87	5158.54
443.05	5277.91
443.24	5336.42
443.43	5254.50
443.61	5212.37
443.80	5521.32
443.98	5261.52
444.17	5167.90
444.35	5146.84
444.54	5439.40
444.73	5390.25
444.91	5282.59
445.10	5287.27
445.28	5446.43
445.47	5291.95
445.65	5397.28
445.84	5518.98
446.02	5420.68
446.21	5432.38
446.39	5565.79
446.58	5561.11
446.77	5507.28
446.95	5282.59
447.14	5490.90
447.32	5465.15
447.51	5528.35
447.69	5500.26
447.88	5547.07
448.06	5451.11
448.25	5497.92
448.43	5652.39
448.62	5614.95
448.80	5542.39
448.99	5547.07
449.17	5572.82
449.36	5490.90
449.54	5682.82
449.73	5687.50
449.91	5813.89
450.10	5813.89
450.28	5809.21
450.46	5844.32
450.65	5851.34
450.83	5935.60
451.02	5867.72
451.20	6036.24
451.39	5823.25
451.57	5888.79
451.76	5907.51
451.94	5916.87
452.13	6012.84
452.31	6064.33
452.49	6050.28
452.68	6024.54
452.86	6005.81
453.05	6174.33
453.23	6104.12
453.42	6040.92
453.60	6036.24
453.78	6113.48
453.97	5982.41
454.15	6033.90
454.34	6129.86
454.52	6310.08
454.70	6284.34
454.89	6242.21
455.07	6253.91
455.26	6338.17
455.44	6410.73
455.62	6457.54
455.81	6331.15
455.99	6443.49
456.17	6450.52
456.36	6300.72
456.54	6427.11
456.73	6597.97
456.91	6733.72
457.09	6619.04
457.28	6771.17
457.46	6841.39
457.64	6691.59
457.83	6885.86
458.01	6820.32
458.19	6841.39
458.38	6712.66
458.56	6841.39
458.74	7089.48
458.93	6981.82
459.11	6927.99
459.29	6925.65
459.48	6890.54
459.66	6789.89
459.84	7103.53
460.03	7063.74
460.21	7117.57
460.39	6927.99
460.57	7052.03
460.76	7075.44
460.94	7054.37
461.12	7290.77
461.31	7166.72
461.49	7162.04
461.67	7328.22
461.85	7176.08
462.04	7323.54
462.22	7672.28
462.40	7487.37
462.59	7513.12
462.77	7470.99
462.95	7288.43
463.13	7478.01
463.32	7499.08
463.50	7536.52
463.68	7599.72
463.86	7737.81
464.05	7599.72
464.23	7625.47
464.41	7620.78
464.59	7377.37
464.78	7833.77
464.96	7702.70
465.14	7583.34
465.32	7765.90
465.50	7864.20
465.69	7789.30
465.87	7772.92
466.05	7681.64
466.23	7845.48
466.41	7868.88
466.60	7885.26
466.78	7896.97
466.96	7911.01
467.14	7899.31
467.32	8011.65
467.51	8147.40
467.69	8056.12
467.87	7929.74
468.05	8210.60
468.23	7861.86
468.41	8009.31
468.60	8109.96
468.78	8255.07
468.96	7939.10
469.14	8201.24
469.32	8196.56
469.50	8138.04
469.69	8388.48
469.87	8201.24
470.05	8301.88
470.23	8465.72
470.41	8409.54
470.59	8486.78
470.77	8236.35
470.95	8631.90
471.14	8702.11
471.32	8493.80
471.50	8709.13
471.68	8697.43
471.86	8779.35
472.04	8662.32
472.22	8800.41
472.40	8652.96
472.58	8870.63
472.77	8814.46
472.95	8947.87
473.13	9228.73
473.31	8929.14
473.49	9050.85
473.67	8929.14
473.85	9284.91
474.03	9324.69
474.21	9427.68
474.39	9525.98
474.57	9235.75
474.75	9420.66
474.93	9724.93
475.12	9439.38
475.30	9535.34
475.48	9603.22
475.66	9694.50
475.84	9710.88
476.02	9743.65
476.20	9788.12
476.38	9961.32
476.56	10120.48
476.74	9909.83
476.92	10195.37
477.10	10125.16
477.28	10345.17
477.46	10186.01
477.64	10471.56
477.82	10476.24
478.00	10803.91
478.18	10679.86
478.36	10593.26
478.54	10869.45
478.72	10766.46
478.90	10850.72
479.08	11302.45
479.26	11250.96
479.44	11173.72
479.62	11220.53
479.80	11360.96
479.98	11431.18
480.16	11791.62
480.34	11466.28
480.52	11763.53
480.70	11716.72
480.88	11817.36
481.06	11576.29
481.24	11714.38
481.41	11875.88
481.59	12102.91
481.77	12013.97
481.95	12358.03
482.13	12435.27
482.31	12477.40
482.49	12552.29
482.67	12535.91
482.85	12957.21
483.03	13032.10
483.21	13078.91
483.39	13235.73
483.57	13181.90
483.74	13256.79
483.92	13420.63
484.10	13083.59
484.28	13661.71
484.46	13888.74
484.64	13848.95
484.82	13977.68
485.00	13937.89
485.18	14181.31
485.35	14176.62
485.53	14324.08
485.71	14499.62
485.89	14909.21
486.07	14773.46
486.25	14572.18
486.43	14696.22
486.61	14993.47
486.78	14988.79
486.96	15051.99
487.14	15398.38
487.32	15192.42
487.50	15662.86
487.68	15475.62
487.85	15873.51
488.03	15915.64
488.21	16116.93
488.39	15995.22
488.57	16325.24
488.75	16327.58
488.92	16538.23
489.10	16671.64
489.28	16622.48
489.46	17167.83
489.64	17092.93
489.81	17193.58
489.99	17275.49
490.17	17481.46
490.35	17586.79
490.53	17633.60
490.70	17970.63
490.88	17649.98
491.06	17942.55
491.24	17809.14
491.41	17994.04
491.59	18270.22
491.77	18312.35
491.95	18192.98
492.13	18707.90
492.30	18518.32
492.48	18857.70
492.66	18899.83
492.84	19082.39
493.01	19117.50
493.19	19342.19
493.37	19597.31
493.54	19559.86
493.72	19789.23
493.90	19733.06
494.08	19819.66
494.25	20027.96
494.43	19995.20
494.61	20264.36
494.79	20250.32
494.96	20056.05
495.14	20446.92
495.32	20519.48
495.49	20554.58
495.67	20603.74
495.85	21008.65
496.02	21146.74
496.20	21322.28
496.38	21261.43
496.55	21451.01
496.73	22284.24
496.91	21656.98
497.09	21511.86
497.26	22125.08
497.44	21575.06
497.62	21963.59
497.79	22293.60
497.97	22207.00
498.14	22485.53
498.32	22457.44
498.50	22494.89
498.67	22899.80
498.85	22740.64
499.03	23222.80
499.20	22761.71
499.38	23152.58
499.56	23428.76
499.73	22890.44
499.91	23496.64
500.08	23337.48
500.26	23358.55
500.44	23618.35
500.61	23786.86
500.79	23627.71
500.97	24067.73
501.14	24144.97
501.32	23901.55
501.49	24290.08
501.67	24357.96
501.84	24355.61
502.02	24322.85
502.20	24390.72
502.37	24629.46
502.55	24669.25
502.72	24671.59
502.90	24751.17
503.07	24580.31
503.25	24744.14
503.43	24879.89
503.60	24814.36
503.78	24968.84
503.95	25139.69
504.13	25413.54
504.30	25256.72
504.48	25589.08
504.65	25429.92
504.83	25682.70
505.01	25837.17
505.18	26101.65
505.36	25933.14
505.53	25942.50
505.71	25895.69
505.88	26214.00
506.06	26082.93
506.23	26316.98
506.41	26239.75
506.58	26483.16
506.76	26462.10
506.93	26588.49
507.11	26984.04
507.28	26834.24
507.46	27054.25
507.63	26918.50
507.81	27290.65
507.98	26817.86
508.16	27136.17
508.33	27175.96
508.50	27080.00
508.68	27480.23
508.85	27840.67
509.03	27337.46
509.20	27819.61
509.38	28039.62
509.55	27971.74
509.73	28173.03
509.90	27725.99
510.08	27927.27
510.25	28224.52
510.42	28528.79
510.60	28416.44
510.77	28648.16
510.95	28823.70
511.12	28472.62
511.30	28531.13
511.47	28957.11
511.64	28519.43
511.82	28950.09
511.99	29067.11
512.17	28879.87
512.34	28699.65
512.51	29123.29
512.69	29413.51
512.86	29420.53
513.04	29481.39
513.21	29551.60
513.38	29453.30
513.56	30073.54
513.73	29626.50
513.90	29701.40
514.08	30008.01
514.25	30096.95
514.43	29816.08
514.60	29949.50
514.77	29982.26
514.95	30340.36
515.12	30040.78
515.29	30820.17
515.47	30539.31
515.64	30380.15
515.81	30307.60
515.99	30705.49
516.16	30621.23
516.33	30871.67
516.51	31035.50
516.68	30775.70
516.85	30948.90
517.03	31028.48
517.20	31065.93
517.37	31220.41
517.54	31564.46
517.72	31257.85
517.89	31632.34
518.06	31014.44
518.24	31349.14
518.41	31367.86
518.58	31138.49
518.75	31489.57
518.93	32002.14
519.10	31627.66
519.27	32070.02
519.45	31894.48
519.62	31842.99
519.79	32297.05
519.96	32053.64
520.14	32388.33
520.31	32388.33
520.48	32470.25
520.65	32554.51
520.83	32746.44
521.00	33109.22
521.17	32533.45
521.34	32582.60
521.52	33003.89
521.69	33256.67
521.86	33010.92
522.03	33137.30
522.20	33146.67
522.38	33291.78
522.55	33439.23
522.72	32950.06
522.89	33354.97
523.07	33687.33
523.24	33500.09
523.41	33303.48
523.58	33219.22
523.75	33736.48
523.92	33926.07
524.10	34256.08
524.27	34038.41
524.44	33703.71
524.61	33984.58
524.78	34050.11
524.96	34436.30
525.13	34260.76
525.30	34803.77
525.47	34719.51
525.64	34553.33
525.81	34511.20
525.98	34714.83
526.16	34607.16
526.33	34581.42
526.50	34536.94
526.67	34408.22
526.84	34733.55
527.01	35187.61
527.18	34714.83
527.36	34822.49
527.53	35264.85
527.70	35761.05
527.87	35491.88
528.04	35526.99
528.21	35295.28
528.38	35009.73
528.55	35386.56
528.72	35161.87
528.89	35477.84
529.07	35878.07
529.24	35332.73
529.41	35974.03
529.58	36084.04
529.75	35866.37
529.92	35854.67
530.09	35985.74
530.26	35857.01
530.43	36142.55
530.60	35433.37
530.77	35510.61
530.94	36147.23
531.11	35943.61
531.28	36135.53
531.46	36067.66
531.63	36306.39
531.80	36137.87
531.97	36503.00
532.14	36467.89
532.31	36610.66
532.48	36687.90
532.65	36964.08
532.82	36517.04
532.99	36325.11
533.16	36428.10
533.33	37053.02
533.50	37184.09
533.67	36861.10
533.84	36959.40
534.01	37174.73
534.18	36933.65
534.35	37141.96
534.52	37460.27
534.69	37368.99
534.86	37649.86
535.03	37111.53
535.20	37432.19
535.37	37680.28
535.54	37806.67
535.71	37268.35
535.88	37420.48
536.05	37759.86
536.22	37521.13
536.38	37783.27
536.55	38136.69
536.72	38195.20
536.89	38019.66
537.06	37745.82
537.23	37951.79
537.40	37914.34
537.57	38019.66
537.74	38094.56
537.91	38429.26
538.08	38618.84
538.25	37979.87
538.42	38628.20
538.59	38749.91
538.75	38127.33
538.92	38202.22
539.09	38586.07
539.26	38775.66
539.43	38745.23
539.60	38632.88
539.77	38581.39
539.94	38801.40
540.11	38857.57
540.28	39337.38
540.44	39138.44
540.61	38754.59
540.78	38937.15
540.95	38401.17
541.12	39009.71
541.29	38937.15
541.46	39215.68
541.62	39374.83
541.79	39342.06
541.96	39208.65
542.13	39421.64
542.30	39299.94
542.47	39648.68
542.63	39702.51
542.80	39667.40
542.97	39917.84
543.14	40065.29
543.31	40156.57
543.48	39845.28
543.64	40191.68
543.81	39920.18
543.98	40140.19
544.15	40158.91
544.32	40411.69
544.48	40776.81
544.65	40477.22
544.82	40392.97
544.99	40114.44
545.16	40236.15
545.32	40128.48
545.49	40732.34
545.66	41015.55
545.83	40662.13
546.00	40722.98
546.16	40779.15
546.33	40430.41
546.50	40456.16
546.67	40968.74
546.83	39985.71
547.00	40430.41
547.17	40631.70
547.34	40453.82
547.50	40823.62
547.67	41174.70
547.84	40416.37
548.00	41439.18
548.17	41170.02
548.34	41191.09
548.51	41443.87
548.67	41090.44
548.84	41155.98
549.01	41338.54
549.18	41462.59
549.34	40940.65
549.51	41516.42
549.68	41490.68
549.84	41071.72
550.01	41507.06
550.18	41202.79
550.34	41862.82
550.51	41394.71
550.68	41823.03
550.84	41516.42
551.01	41862.82
551.18	41816.01
551.34	41542.17
551.51	41706.01
551.68	41933.04
551.84	41757.50
552.01	41647.49
552.18	41605.36
552.34	41752.82
552.51	41546.85
552.68	41872.18
552.84	42263.05
553.01	42251.35
553.18	42309.86
553.34	42153.05
553.51	42223.26
553.67	42178.79
553.84	42370.72
554.01	42579.03
554.17	42485.40
554.34	42433.91
554.51	42607.11
554.67	42623.50
554.84	42953.51
555.00	42466.68
555.17	42733.50
555.33	43594.82
555.50	42499.45
555.67	42555.62
555.83	42438.59
556.00	42548.60
556.16	43498.86
556.33	42997.98
556.50	42401.14
556.66	42759.25
556.83	42637.54
556.99	43346.72
557.16	43016.71
557.32	43012.02
557.49	43061.18
557.65	42997.98
557.82	43143.09
557.98	43192.25
558.15	42843.51
558.32	43072.88
558.48	43033.09
558.65	43110.33
558.81	43199.27
558.98	43192.25
559.14	42944.15
559.31	43283.53
559.47	43323.32
559.64	42773.29
559.80	43405.23
559.97	43714.19
560.13	43208.63
560.30	43353.74
560.46	43791.42
560.63	43587.80
560.79	43938.88
560.96	43782.06
561.12	43501.20
561.29	43491.83
561.45	43978.67
561.61	43386.51
561.78	43475.45
561.94	43793.76
562.11	43489.49
562.27	43948.24
562.44	43793.76
562.60	44095.69
562.77	43569.07
562.93	43856.96
563.10	43868.66
563.26	43679.08
563.42	44065.27
563.59	44116.76
563.75	44030.16
563.92	44030.16
564.08	44069.95
564.24	44114.42
564.41	43859.30
564.57	43948.24
564.74	43768.02
564.90	44013.77
565.07	44238.47
565.23	44179.95
565.39	44217.40
565.56	44343.79
565.72	43997.39
565.88	44360.17
566.05	43957.60
566.21	44119.10
566.38	43948.24
566.54	44095.69
566.70	44161.23
566.87	44210.38
567.03	44275.91
567.19	44720.62
567.36	44334.43
567.52	44088.67
567.68	44589.55
567.85	44648.06
568.01	44788.49
568.17	44060.58
568.34	44570.82
568.50	44217.40
568.66	44168.25
568.83	44392.94
568.99	44720.62
569.15	44346.13
569.32	44526.35
569.48	44325.07
569.64	44708.91
569.81	44423.37
569.97	44861.05
570.13	44697.21
570.30	44552.10
570.46	44889.13
570.62	44505.29
570.78	45024.89
570.95	44502.95
571.11	45069.36
571.27	44378.90
571.43	44659.76
571.60	44430.39
571.76	44245.49
571.92	44507.63
572.09	44156.55
572.25	45022.54
572.41	44605.93
572.57	44949.99
572.74	45198.09
572.90	44832.96
573.06	44589.55
573.22	45116.17
573.38	45090.42
573.55	44811.90
573.71	45078.72
573.87	44507.63
574.03	44765.09
574.20	45048.29
574.36	44760.40
574.52	45294.05
574.68	44910.20
574.84	45024.89
575.01	44891.48
575.17	44839.98
575.33	45209.79
575.49	44779.13
575.65	45099.78
575.82	45263.62
575.98	44903.18
576.14	45188.72
576.30	45404.05
576.46	44870.41
576.62	44924.24
576.79	45219.15
576.95	44751.04
577.11	45067.02
577.27	45144.25
577.43	45069.36
577.59	44919.56
577.75	44870.41
577.92	44591.89
578.08	44917.22
578.24	45008.50
578.40	44992.12
578.56	45141.91
578.72	44964.03
578.88	45081.06
579.04	44837.64
579.21	45097.44
579.37	45380.65
579.53	45570.23
579.69	44809.56
579.85	45305.75
580.01	45177.02
580.17	44744.02
580.33	44907.86
580.49	45361.92
580.65	45284.68
580.82	44985.10
580.98	45006.16
581.14	44992.12
581.30	45104.46
581.46	45139.57
581.62	44844.66
581.78	44636.36
581.94	45024.89
582.10	45280.00
582.26	45322.13
582.42	45237.87
582.58	45380.65
582.74	45038.93
582.90	45228.51
583.06	45443.84
583.22	45394.69
583.38	45401.71
583.54	45315.11
583.70	45202.77
583.86	45574.91
584.02	44989.78
584.18	45890.88
584.34	45478.95
584.50	45485.97
584.66	45542.14
584.82	44992.12
584.98	46043.02
585.14	45745.77
585.30	45298.73
585.46	45352.56
585.62	45198.09
585.78	45228.51
585.94	45301.07
586.10	45162.98
586.26	45565.55
586.42	45125.53
586.58	45055.31
586.74	45668.53
586.90	45254.26
587.06	45088.08
587.22	45076.38
587.38	45570.23
587.54	45436.82
587.70	45607.68
587.86	45801.94
588.02	45244.90
588.18	45778.54
588.34	45223.83
588.49	45705.98
588.65	45067.02
588.81	45214.47
588.97	45455.54
589.13	45219.15
589.29	45336.18
589.45	45436.82
589.61	45560.87
589.77	45670.87
589.93	45464.91
590.08	45546.82
590.24	45972.80
590.40	46188.13
590.56	45708.32
590.72	45647.47
590.88	45492.99
591.04	45443.84
591.20	46110.89
591.35	45916.63
591.51	46356.65
591.67	46073.45
591.83	46131.96
591.99	45893.22
592.15	45654.49
592.31	46003.23
592.46	45603.00
592.62	45937.69
592.78	45762.15
592.94	45771.52
593.10	46089.83
593.26	46335.59
593.41	46239.62
593.57	46110.89
593.73	46433.89
593.89	46342.61
594.05	46260.69
594.20	45979.82
594.36	46192.81
594.52	45794.92
594.68	46202.18
594.84	45799.60
594.99	46358.99
595.15	45687.26
595.31	46033.66
595.47	46492.40
595.62	46321.54
595.78	45881.52
595.94	46326.22
596.10	46141.32
596.25	46094.51
596.41	46272.39
596.57	46204.52
596.73	46190.47
596.88	45923.65
597.04	46279.41
597.20	45916.63
597.36	46099.19
597.51	45883.86
597.67	45698.96
597.83	45965.78
597.99	46309.84
598.14	46328.56
598.30	46138.98
598.46	46160.05
598.61	46419.84
598.77	46408.14
598.93	46122.60
599.09	46040.68
599.24	46576.66
599.40	46351.97
599.56	46225.58
599.71	46131.96
599.87	46761.56
600.03	46487.72
600.18	46492.40
600.34	46195.15
600.50	46396.44
600.65	45883.86
600.81	46358.99
600.97	46050.04
601.12	46724.11
601.28	46450.27
601.44	46071.10
601.59	46174.09
601.75	46330.90
601.91	46625.81
602.06	45881.52
602.22	46749.86
602.37	46176.43
602.53	46148.34
602.69	46192.81
602.84	46351.97
603.00	45914.29
603.16	46253.67
603.31	46256.01
603.47	46366.01
603.62	45956.42
603.78	46220.90
603.94	46195.15
604.09	46480.70
604.25	46251.33
604.40	46075.79
604.56	46469.00
604.71	46625.81
604.87	46127.28
605.03	45897.91
605.18	46206.86
605.34	46218.56
605.49	46363.67
605.65	46087.49
605.80	45883.86
605.96	46277.07
606.12	46138.98
606.27	46267.71
606.43	45977.48
606.58	46382.40
606.74	46349.63
606.89	46169.41
607.05	45944.72
607.20	46248.99
607.36	46323.88
607.51	46501.76
607.67	46234.94
607.82	45965.78
607.98	46314.52
608.13	45748.11
608.29	45893.22
608.44	45825.35
608.60	45624.06
608.75	46012.59
608.91	46288.77
609.06	45942.38
609.22	45942.38
609.37	45937.69
609.53	46024.29
609.68	46279.41
609.84	45684.92
609.99	45605.34
610.15	46115.58
610.30	45921.31
610.46	45780.88
610.61	46014.93
610.76	45937.69
610.92	45598.32
611.07	45675.55
611.23	45249.58
611.38	45670.87
611.54	45930.67
611.69	45794.92
611.84	45930.67
612.00	45539.80
612.15	45514.06
612.31	45698.96
612.46	45766.84
612.62	45792.58
612.77	45539.80
612.92	45773.86
613.08	45626.40
613.23	45975.14
613.39	45729.39
613.54	45539.80
613.69	45846.41
613.85	45579.59
614.00	45560.87
614.15	45670.87
614.31	45640.45
614.46	45450.86
614.62	44947.65
614.77	45844.07
614.92	45408.73
615.08	45530.44
615.23	45422.78
615.38	45635.77
615.54	45633.42
615.69	45595.98
615.84	45521.08
616.00	45654.49
616.15	45277.66
616.30	45439.16
616.46	45404.05
616.61	45373.63
616.76	45165.32
616.92	45698.96
617.07	45233.19
617.22	45240.21
617.37	44516.99
617.53	45067.02
617.68	45001.48
617.83	45165.32
617.99	45137.23
618.14	45420.44
618.29	45294.05
618.45	44882.11
618.60	45083.40
618.75	45078.72
618.90	45265.96
619.06	44966.37
619.21	44935.95
619.36	45074.04
619.51	44989.78
619.67	44624.65
619.82	44421.03
619.97	45207.45
620.12	45024.89
620.28	44947.65
620.43	45064.67
620.58	45146.59
620.73	44828.28
620.89	44945.31
621.04	44488.90
621.19	45371.28
621.34	44685.51
621.49	44872.75
621.65	44914.88
621.80	45345.54
621.95	44519.33
622.10	44348.47
622.25	44381.24
622.41	44729.98
622.56	44308.68
622.71	44519.33
622.86	44678.49
623.01	44617.63
623.16	44341.45
623.32	44816.58
623.47	44406.98
623.62	44573.16
623.77	44268.89
623.92	44577.84
624.07	44622.31
624.23	44629.34
624.38	44652.74
624.53	44495.92
624.68	44133.14
624.83	44163.57
624.98	44313.36
625.13	43524.60
625.29	44299.32
625.44	43847.60
625.59	43948.24
625.74	44392.94
625.89	44467.84
626.04	43943.56
626.19	43976.33
626.34	43613.54
626.49	44072.29
626.65	43707.16
626.80	43714.19
626.95	43693.12
627.10	43332.68
627.25	44170.59
627.40	43835.89
627.55	44142.50
627.70	43674.40
627.85	44128.46
628.00	44093.35
628.15	44250.17
628.30	43622.90
628.45	43255.44
628.60	43098.62
628.76	43550.35
628.91	43620.56
629.06	43590.14
629.21	43716.53
629.36	43384.17
629.51	43105.65
629.66	43597.16
629.81	43292.89
629.96	43672.06
630.11	43360.76
630.26	43643.97
630.41	43374.81
630.56	43363.11
630.71	43292.89
630.86	43082.24
631.01	43297.57
631.16	42913.72
631.31	43173.52
631.46	43115.01
631.61	43697.80
631.76	43416.94
631.91	43330.34
632.06	43428.64
632.21	43477.79
632.36	43562.05
632.51	42850.53
632.66	43154.80
632.81	42895.00
632.96	42841.17
633.10	43124.37
633.25	43091.60
633.40	42808.40
633.55	43133.73
633.70	43112.67
633.85	42347.31
634.00	43089.26
634.15	42581.37
634.30	42590.73
634.45	42419.87
634.60	42579.03
634.75	42569.66
634.90	42892.66
635.05	42693.71
635.19	42309.86
635.34	42988.62
635.49	42794.36
635.64	42340.29
635.79	42588.39
635.94	42618.81
636.09	42810.74
636.24	42391.78
636.39	42848.19
636.53	42424.55
636.68	42307.52
636.83	41778.56
636.98	42139.00
637.13	42087.51
637.28	42391.78
637.43	42040.70
637.57	42146.03
637.72	42279.44
637.87	41827.71
638.02	42703.07
638.17	42153.05
638.32	41916.65
638.46	41867.50
638.61	41565.57
638.76	41827.71
638.91	42047.72
639.06	41523.44
639.20	41841.76
639.35	41603.02
639.50	41457.91
639.65	41731.75
639.80	41888.57
639.94	41818.35
640.09	41916.65
640.24	42150.71
640.39	41523.44
640.54	41614.72
640.68	41876.86
640.83	41818.35
640.98	41530.47
641.13	41514.08
641.27	42176.45
641.42	41984.53
641.57	41343.22
641.72	41612.38
641.86	41535.15
642.01	41291.73
642.16	41148.96
642.31	41336.20
642.45	41200.45
642.60	41008.53
642.75	41418.12
642.90	41619.41
643.04	41347.90
643.19	40851.71
643.34	41216.83
643.48	40734.68
643.63	41207.47
643.78	41361.95
643.93	41214.49
644.07	41275.35
644.22	41104.49
644.37	41406.42
644.51	41357.27
644.66	41471.95
644.81	40870.43
644.95	40865.75
645.10	40612.98
645.25	40765.11
645.39	40734.68
645.54	40718.30
645.69	40502.97
645.83	40732.34
645.98	40542.76
646.13	40889.16
646.27	40884.48
646.42	40437.44
646.57	40818.94
646.71	40818.94
646.86	40814.26
647.00	40690.21
647.15	41123.21
647.30	40552.12
647.44	40746.39
647.59	40542.76
647.74	40671.49
647.88	40360.20
648.03	40730.00
648.17	41097.47
648.32	40952.35
648.47	40692.55
648.61	40596.59
648.76	40376.58
648.90	40631.70
649.05	40311.05
649.20	40287.64
649.34	40657.45
649.49	40165.93
649.63	40509.99
649.78	40313.39
649.92	39903.79
650.07	40399.99
650.21	40460.84
650.36	40112.10
650.51	40409.35
650.65	40245.51
650.80	40608.29
650.94	40289.98
651.09	39826.56
651.23	39749.32
651.38	40048.91
651.52	39786.77
651.67	40065.29
651.81	40179.98
651.96	39744.64
652.10	39522.29
652.25	39658.04
652.39	39608.89
652.54	40350.84
652.68	39651.02
652.83	39779.74
652.97	39772.72
653.12	39173.55
653.26	39683.78
653.41	39821.87
653.55	39405.26
653.70	39477.82
653.84	39903.79
653.99	39758.68
654.13	39321.00
654.27	39173.55
654.42	39580.80
654.56	39292.91
654.71	39477.82
654.85	39468.45
655.00	39777.40
655.14	39608.89
655.29	39346.75
655.43	39414.62
655.57	39330.36
655.72	39283.55
655.86	39271.85
656.01	39159.50
656.15	38691.40
656.30	39288.23
656.44	39449.73
656.58	39096.31
656.73	38932.47
656.87	38586.07
657.01	38560.33
657.16	39321.00
657.30	38827.15
657.45	38944.17
657.59	38843.53
657.73	38878.64
657.88	38918.43
658.02	38817.78
658.16	38944.17
658.31	38763.95
658.45	38452.66
658.60	38721.82
658.74	39063.54
658.88	38770.97
659.03	38415.21
659.17	38831.83
659.31	38277.12
659.46	38391.81
659.60	38824.81
659.74	38267.76
659.89	38422.23
660.03	38059.45
660.17	38377.76
660.32	38148.39
660.46	37694.33
660.60	37895.61
660.74	38050.09
660.89	38054.77
661.03	37429.85
661.17	37418.14
661.32	37450.91
661.46	37897.95
661.60	37682.62
661.74	37354.95
661.89	37385.38
662.03	37886.25
662.17	37366.65
662.31	37443.89
662.46	37521.13
662.60	37249.63
662.74	36730.03
662.88	36875.14
663.03	37184.09
663.17	36711.30
663.31	36872.80
663.45	37207.50
663.60	37422.83
663.74	37074.09
663.88	36898.55
664.02	37167.71
664.17	37315.16
664.31	36800.24
664.45	36392.99
664.59	36388.31
664.73	36886.84
664.88	36746.41
665.02	36392.99
665.16	36554.49
665.30	36156.60
665.44	36367.24
665.59	36128.51
665.73	36151.91
665.87	35875.73
666.01	35990.42
666.15	36205.75
666.29	36245.54
666.44	36196.38
666.58	36397.67
666.72	35459.12
666.86	35503.59
667.00	35625.29
667.14	36002.12
667.28	35386.56
667.43	35791.47
667.57	35625.29
667.71	35625.29
667.85	35686.15
667.99	35468.48
668.13	35124.42
668.27	35082.29
668.41	35569.12
668.56	34574.39
668.70	34953.56
668.84	34693.76
668.98	34473.75
669.12	34953.56
669.26	34632.91
669.40	34623.54
669.54	34803.77
669.68	34958.24
669.82	34494.82
669.96	34426.94
670.10	34272.46
670.25	34506.52
670.39	34410.56
670.53	34651.63
670.67	34558.01
670.81	34778.02
670.95	34714.83
671.09	34426.94
671.23	33844.15
671.37	34113.31
671.51	33764.57
671.65	33535.20
671.79	33745.84
671.93	33916.70
672.07	34494.82
672.21	33425.19
672.35	33605.41
672.49	33205.18
672.63	33287.10
672.77	32896.23
672.91	33397.10
673.05	33476.68
673.19	33003.89
673.33	32882.19
673.47	33031.98
673.61	32940.70
673.75	32966.45
673.89	32673.88
674.03	32325.14
674.17	32390.67
674.31	32491.32
674.45	32098.11
674.59	32025.55
674.73	32079.38
674.87	32165.98
675.01	32051.30
675.15	31908.52
675.29	31999.80
675.43	31585.53
675.56	31693.19
675.70	31821.92
675.84	31388.92
675.98	30883.37
676.12	31714.26
676.26	31604.25
676.40	31290.62
676.54	30979.33
676.68	30913.80
676.82	30639.95
676.96	30831.88
677.10	30693.79
677.23	30881.03
677.37	31281.26
677.51	30841.24
677.65	30764.00
677.79	30342.70
677.93	30433.99
678.07	30546.33
678.21	30181.21
678.34	30232.70
678.48	29846.51
678.62	30005.67
678.76	29776.30
678.90	29376.06
679.04	29563.31
679.18	29879.28
679.31	29404.15
679.45	29252.02
679.59	29338.62
679.73	29102.22
679.87	29022.64
680.00	29088.18
680.14	28858.81
680.28	29188.82
680.42	29125.63
680.56	28657.52
680.70	28161.33
680.83	28280.69
680.97	28219.84
681.11	28229.20
681.25	28343.89
681.39	27796.20
681.52	27835.99
681.66	27428.74
681.80	27180.64
681.94	27419.38
682.07	27220.43
682.21	27433.42
682.35	27241.50
682.49	27131.49
682.62	27342.14
682.76	27199.37
682.90	27094.04
683.04	26712.53
683.17	26775.73
683.31	26766.37
683.45	26789.77
683.59	26354.43
683.72	26338.05
683.86	26150.81
684.00	26183.57
684.13	26195.28
684.27	26008.03
684.41	25656.95
684.55	25659.29
684.68	25745.89
684.82	25652.27
684.96	26005.69
685.09	25593.76
685.23	25528.22
685.37	25895.69
685.50	25425.24
685.64	25694.40
685.78	25046.07
685.91	24849.47
686.05	24421.15
686.19	24659.88
686.32	24617.75
686.46	24046.66
686.60	24098.16
686.73	24577.97
686.87	24589.67
687.01	24645.84
687.14	24290.08
687.28	24208.16
687.42	23843.04
687.55	23704.95
687.69	23864.10
687.82	23775.16
687.96	23695.58
688.10	23946.02
688.23	23873.46
688.37	23576.22
688.50	23468.55
688.64	23297.69
688.78	23159.60
688.91	23370.25
689.05	23068.32
689.18	23035.55
689.32	22684.47
689.46	22293.60
689.59	22218.71
689.73	22813.20
689.86	22569.79
690.00	22726.60
690.13	22380.20
690.27	22111.04
690.41	22436.38
690.54	21743.58
690.68	21682.72
690.81	21919.12
690.95	21614.85
691.08	21633.57
691.22	21439.31
691.35	21238.02
691.49	21706.13
691.62	21336.32
691.76	21008.65
691.89	21046.10
692.03	20767.57
692.16	20893.96
692.30	20982.90
692.43	20582.67
692.57	20510.11
692.70	20395.43
692.84	20517.14
692.97	20255.00
693.11	20002.22
693.24	20196.48
693.38	20016.26
693.51	20159.03
693.65	19836.04
693.78	19847.74
693.92	19873.49
694.05	19522.41
694.19	19360.91
694.32	19466.24
694.45	19487.30
694.59	19681.56
694.72	19330.48
694.86	19372.61
694.99	19264.95
695.13	19073.03
695.26	18682.16
695.39	18686.84
695.53	18707.90
695.66	18586.19
695.80	18932.59
695.93	18530.02
696.07	18869.40
696.20	18326.39
696.33	18071.28
696.47	18068.94
696.60	17921.48
696.73	18134.47
696.87	18291.29
697.00	18080.64
697.14	17755.30
697.27	17752.96
697.40	17493.16
697.54	17568.06
697.67	17500.19
697.80	17713.17
697.94	17341.03
698.07	17186.55
698.21	17008.67
698.34	16912.71
698.47	16744.19
698.61	16727.81
698.74	16697.38
698.87	16664.61
699.01	16716.11
699.14	16711.42
699.27	16320.56
699.40	16610.78
699.54	16292.47
699.67	16322.90
699.80	16119.27
699.94	16332.26
700.07	16142.67
700.20	15906.28
700.34	15651.16
700.47	15763.51
700.60	16027.99
700.73	15999.90
700.87	15508.39
701.00	15140.93
701.13	15384.34
701.26	15517.75
701.40	15192.42
701.53	15122.20
701.66	15405.41
701.79	14981.77
701.93	14913.89
702.06	14738.35
702.19	14736.01
702.32	14925.60
702.46	14675.16
702.59	14714.95
702.72	14803.89
702.85	14649.41
702.99	14635.37
703.12	14403.66
703.25	14298.33
703.38	14356.85
703.51	14415.36
703.65	14153.22
703.78	13919.17
703.91	13724.90
704.04	13837.25
704.17	13771.71
704.31	13633.62
704.44	13755.33
704.57	13579.79
704.70	13441.70
704.83	13371.48
704.96	13301.26
705.10	13043.81
705.23	13205.30
>>>>>End Processed Spectral Data<<<<<
