SpectraSuite Data File
++++++++++++++++++++++++++++++++++++
Date: Fri Oct 25 10:43:41 EDT 2013
User: price-jones
Dark Spectrum Present: No
Reference Spectrum Present: No
Number of Sampled Component Spectra: 1
Spectrometers: USB2+H05261
Integration Time (usec): 100000 (USB2+H05261)
Spectra Averaged: 1 (USB2+H05261)
Boxcar Smoothing: 0 (USB2+H05261)
Correct for Electrical Dark: No (USB2+H05261)
Strobe/Lamp Enabled: No (USB2+H05261)
Correct for Detector Non-linearity: No (USB2+H05261)
Correct for Stray Light: No (USB2+H05261)
Number of Pixels in Processed Spectrum: 2048
>>>>>Begin Processed Spectral Data<<<<<
365.73	145.11
365.92	145.11
366.12	145.11
366.32	53.83
366.52	0.00
366.72	14.04
366.91	0.00
367.11	14.04
367.31	18.72
367.51	0.00
367.70	30.43
367.90	91.28
368.10	63.19
368.30	32.77
368.49	0.00
368.69	0.00
368.89	21.06
369.09	72.56
369.28	56.17
369.48	0.00
369.68	23.41
369.87	51.49
370.07	25.75
370.27	110.01
370.47	196.60
370.66	428.32
370.86	393.21
371.06	463.43
371.25	538.32
371.45	376.83
371.65	482.15
371.84	397.89
372.04	425.98
372.24	409.59
372.44	540.66
372.63	500.87
372.83	564.07
373.03	545.34
373.22	507.90
373.42	514.92
373.62	491.51
373.81	543.00
374.01	538.32
374.21	566.41
374.40	545.34
374.60	547.69
374.79	587.47
374.99	631.94
375.19	596.84
375.38	664.71
375.58	596.84
375.78	617.90
375.97	575.77
376.17	648.33
376.37	594.50
376.56	634.29
376.76	653.01
376.95	610.88
377.15	692.80
377.35	627.26
377.54	634.29
377.74	655.35
377.93	669.39
378.13	648.33
378.33	664.71
378.52	615.56
378.72	564.07
378.91	655.35
379.11	631.94
379.31	641.31
379.50	664.71
379.70	676.41
379.89	648.33
380.09	713.86
380.28	655.35
380.48	685.78
380.68	624.92
380.87	638.97
381.07	720.88
381.26	716.20
381.46	763.01
381.65	744.29
381.85	685.78
382.04	748.97
382.24	702.16
382.43	606.20
382.63	734.93
382.83	695.14
383.02	704.50
383.22	800.46
383.41	702.16
383.61	753.65
383.80	767.70
384.00	774.72
384.19	805.14
384.39	720.88
384.58	709.18
384.78	798.12
384.97	777.06
385.17	816.85
385.36	880.04
385.56	772.38
385.75	854.30
385.95	849.61
386.14	823.87
386.34	870.68
386.53	931.53
386.72	805.14
386.92	819.19
387.11	828.55
387.31	905.79
387.50	870.68
387.70	821.53
387.89	868.34
388.09	968.98
388.28	961.96
388.48	915.15
388.67	1104.73
388.86	903.45
389.06	1057.92
389.25	1013.45
389.45	924.51
389.64	936.21
389.84	980.68
390.03	952.60
390.22	968.98
390.42	1001.75
390.61	1020.47
390.81	1057.92
391.00	1064.94
391.19	1046.22
391.39	1022.81
391.58	1086.01
391.78	1067.28
391.97	1041.54
392.16	1083.67
392.36	1076.65
392.55	1053.24
392.75	1093.03
392.94	1011.11
393.13	1013.45
393.33	1034.52
393.52	1034.52
393.71	1111.75
393.91	1114.10
394.10	1086.01
394.29	1125.80
394.49	1259.21
394.68	1214.74
394.88	1313.04
395.07	1357.51
395.26	1179.63
395.46	1156.22
395.65	1287.29
395.84	1172.61
396.04	1228.78
396.23	1217.08
396.42	1226.44
396.62	1179.63
396.81	1212.40
397.00	1228.78
397.19	1254.53
397.39	1301.34
397.58	1310.70
397.77	1289.64
397.97	1511.99
398.16	1540.07
398.35	1413.68
398.55	1383.26
398.74	1460.49
398.93	1600.93
399.12	1551.78
399.32	1486.24
399.51	1561.14
399.70	1629.01
399.90	1563.48
400.09	1636.03
400.28	1589.22
400.47	1600.93
400.67	1687.53
400.86	1682.85
401.05	1682.85
401.24	1589.22
401.44	1636.03
401.63	1748.38
401.82	1689.87
402.01	1633.69
402.21	1699.23
402.40	1722.63
402.59	1741.36
402.78	1734.34
402.97	1696.89
403.17	1755.40
403.36	1774.13
403.55	1879.45
403.74	1973.07
403.93	1884.13
404.13	1844.34
404.32	1902.86
404.51	1916.90
404.70	1916.90
404.89	1827.96
405.09	1975.41
405.28	2003.50
405.47	1998.82
405.66	2040.95
405.85	2118.18
406.05	2094.78
406.24	2062.01
406.43	1919.24
406.62	2146.27
406.81	2054.99
407.00	2045.63
407.20	2045.63
407.39	2125.21
407.58	2033.93
407.77	2214.15
407.96	2172.02
408.15	2218.83
408.34	2289.04
408.54	2216.49
408.73	2310.11
408.92	2413.09
409.11	2373.30
409.30	2270.32
409.49	2368.62
409.68	2305.43
409.87	2317.13
410.07	2392.03
410.26	2410.75
410.45	2438.84
410.64	2429.48
410.83	2548.84
411.02	2600.34
411.21	2614.38
411.40	2637.78
411.59	2586.29
411.78	2590.97
411.98	2649.49
412.17	2747.79
412.36	2752.47
412.55	2686.94
412.74	2855.45
412.93	2789.92
413.12	2733.75
413.31	2836.73
413.50	2869.50
413.69	2928.01
413.88	2967.80
414.07	2890.56
414.26	2979.50
414.45	2913.97
414.64	3077.80
414.83	3098.87
415.02	3000.57
415.22	3171.43
415.41	3141.00
415.60	3164.40
415.79	3150.36
415.98	3173.77
416.17	3370.37
416.36	3211.22
416.55	3211.22
416.74	3379.73
416.93	3248.66
417.12	3290.79
417.31	3365.69
417.50	3361.01
417.69	3564.64
417.88	3585.70
418.07	3379.73
418.26	3361.01
418.45	3456.97
418.64	3684.00
418.83	3508.46
419.02	3639.53
419.21	3658.26
419.39	3597.40
419.58	3599.74
419.77	3508.46
419.96	3548.25
420.15	3691.02
420.34	3772.94
420.53	3691.02
420.72	3768.26
420.91	3904.01
421.10	3894.65
421.29	3934.44
421.48	3922.74
421.67	4051.47
421.86	3901.67
422.05	3850.18
422.24	3892.31
422.43	3831.46
422.61	3840.82
422.80	3990.61
422.99	3967.21
423.18	4088.92
423.37	4163.81
423.56	3967.21
423.75	3918.06
423.94	4035.08
424.13	3840.82
424.32	3847.84
424.50	4046.79
424.69	4002.32
424.88	3985.93
425.07	4007.00
425.26	3999.98
425.45	3922.74
425.64	3894.65
425.83	3981.25
426.01	4035.08
426.20	4102.96
426.39	4194.24
426.58	4009.34
426.77	3960.19
426.96	4077.21
427.15	4102.96
427.33	4109.98
427.52	4180.20
427.71	4245.73
427.90	4212.96
428.09	4173.18
428.28	4163.81
428.46	4264.46
428.65	4198.92
428.84	4229.35
429.03	4449.36
429.22	4161.47
429.40	4065.51
429.59	4079.55
429.78	3904.01
429.97	3955.51
430.16	4002.32
430.34	4203.60
430.53	4224.67
430.72	4278.50
430.91	4117.00
431.10	4428.29
431.28	4620.22
431.47	4608.51
431.66	4634.26
431.85	4585.11
432.03	4650.64
432.22	4774.69
432.41	4748.95
432.60	4777.03
432.79	4620.22
432.97	4830.87
433.16	4847.25
433.35	4716.18
433.54	4692.77
433.72	4638.94
433.91	4695.11
434.10	4819.16
434.28	4851.93
434.47	4922.15
434.66	4947.89
434.85	5027.47
435.03	4964.28
435.22	4814.48
435.41	5160.88
435.59	5095.35
435.78	5186.63
435.97	5132.79
436.16	5050.88
436.34	5125.77
436.53	5207.69
436.72	5448.77
436.90	5125.77
437.09	5242.80
437.28	5170.24
437.46	5366.85
437.65	5301.31
437.84	5341.10
438.02	5156.20
438.21	5174.92
438.40	5151.52
438.58	5280.25
438.77	5401.96
438.96	5392.59
439.14	5631.33
439.33	5589.20
439.52	5689.84
439.70	5736.65
439.89	5851.34
440.08	5696.86
440.26	5715.59
440.45	5900.49
440.63	5694.52
440.82	6069.01
441.01	5923.90
441.19	6017.52
441.38	6169.65
441.57	6125.18
441.75	6134.54
441.94	6389.66
442.12	6303.06
442.31	6349.87
442.50	6436.47
442.68	6183.70
442.87	6438.81
443.05	6420.09
443.24	6466.90
443.43	6445.84
443.61	6392.00
443.80	6656.48
443.98	6406.05
444.17	6228.17
444.35	6607.33
444.54	6717.34
444.73	6675.21
444.91	6562.86
445.10	6619.04
445.28	6422.43
445.47	6511.37
445.65	6328.81
445.84	6569.88
446.02	6675.21
446.21	6590.95
446.39	6651.80
446.58	6707.98
446.77	6579.25
446.95	6527.75
447.14	6609.67
447.32	6768.83
447.51	6590.95
447.69	6693.93
447.88	6867.13
448.06	6799.26
448.25	6722.02
448.43	6864.79
448.62	6761.81
448.80	6747.76
448.99	6977.14
449.17	6956.07
449.36	6913.94
449.54	7037.99
449.73	7087.14
449.91	7054.37
450.10	7023.95
450.28	7311.83
450.46	7332.90
450.65	7286.09
450.83	7124.59
451.02	7148.00
451.20	7269.70
451.39	7351.62
451.57	7346.94
451.76	7208.85
451.94	7260.34
452.13	7255.66
452.31	7323.54
452.49	7267.36
452.68	7304.81
452.86	7377.37
453.05	7349.28
453.23	7283.75
453.42	7276.73
453.60	7585.68
453.78	7655.89
453.97	7489.71
454.15	7440.56
454.34	7463.97
454.52	7590.36
454.70	7728.45
454.89	7653.55
455.07	7557.59
455.26	7801.01
455.44	7974.21
455.62	8053.78
455.81	7730.79
455.99	7936.76
456.17	7808.03
456.36	7875.90
456.54	7922.71
456.73	8030.38
456.91	8229.32
457.09	8112.30
457.28	8362.73
457.46	8128.68
457.64	8372.10
457.83	8016.33
458.01	8109.96
458.19	8393.16
458.38	8234.00
458.56	8437.63
458.74	8449.33
458.93	8327.63
459.11	8425.93
459.29	8299.54
459.48	8599.13
459.66	8486.78
459.84	8421.25
460.03	8524.23
460.21	8489.12
460.39	8676.37
460.57	8648.28
460.76	8671.68
460.94	8669.34
461.12	8657.64
461.31	8702.11
461.49	8575.72
461.67	8573.38
461.85	8856.59
462.04	8894.04
462.22	9404.27
462.40	8812.12
462.59	8933.82
462.77	8812.12
462.95	8894.04
463.13	8922.12
463.32	9118.73
463.50	8898.72
463.68	8805.10
463.86	9172.56
464.05	9008.72
464.23	8999.36
464.41	9104.68
464.59	8992.34
464.78	9336.40
464.96	9142.13
465.14	9151.49
465.32	9432.36
465.50	9479.17
465.69	9462.79
465.87	9401.93
466.05	9287.25
466.23	9231.07
466.41	9336.40
466.60	9366.82
466.78	9434.70
466.96	9308.31
467.14	9453.42
467.32	9596.20
467.51	9502.58
467.69	9284.91
467.87	9441.72
468.05	9668.75
468.23	9715.56
468.41	9404.27
468.60	9628.96
468.78	9462.79
468.96	9533.00
469.14	9755.35
469.32	9811.53
469.50	9518.96
469.69	9743.65
469.87	9863.02
470.05	10005.79
470.23	10010.47
470.41	9994.09
470.59	10101.75
470.77	9963.66
470.95	10057.28
471.14	10434.11
471.32	9886.42
471.50	10441.13
471.68	10396.66
471.86	10389.64
472.04	10471.56
472.22	10656.46
472.40	10501.98
472.58	10459.85
472.77	10464.54
472.95	10630.71
473.13	10988.82
473.31	10616.67
473.49	10581.56
473.67	10539.43
473.85	10707.95
474.03	11201.80
474.21	11314.15
474.39	11162.01
474.57	10988.82
474.75	11154.99
474.93	11276.70
475.12	11176.06
475.30	11384.37
475.48	11286.06
475.66	11625.44
475.84	11293.08
476.02	11632.46
476.20	11552.88
476.38	11824.39
476.56	11857.15
476.74	12004.61
476.92	11756.51
477.10	11918.01
477.28	12074.82
477.46	12259.73
477.64	12400.16
477.82	12402.50
478.00	12791.03
478.18	12587.40
478.36	12833.16
478.54	12592.08
478.72	12830.82
478.90	12917.42
479.08	13259.13
479.26	13277.86
479.44	13296.58
479.62	13322.33
479.80	13371.48
479.98	13603.19
480.16	13844.27
480.34	13593.83
480.52	13757.67
480.70	13624.26
480.88	13832.57
481.06	14075.98
481.24	14380.25
481.41	14523.02
481.59	14609.62
481.77	14586.22
481.95	14710.27
482.13	14644.73
482.31	14696.22
482.49	14993.47
482.67	15215.82
482.85	15096.46
483.03	15431.15
483.21	15314.13
483.39	15534.14
483.57	15726.06
483.74	15941.39
483.92	15929.69
484.10	15733.08
484.28	16149.70
484.46	16215.23
484.64	16313.53
484.82	16217.57
485.00	16109.91
485.18	16547.59
485.35	16716.11
485.53	16343.96
485.71	15983.52
485.89	16491.41
486.07	16397.79
486.25	16858.88
486.43	16952.50
486.61	16992.29
486.78	17275.49
486.96	17696.79
487.14	17867.65
487.32	17877.01
487.50	18200.01
487.68	18277.24
487.85	18548.75
488.03	18960.68
488.21	18986.43
488.39	18628.32
488.57	18469.17
488.75	19208.78
488.92	19330.48
489.10	19499.00
489.28	19335.17
489.46	19719.01
489.64	19707.31
489.81	20446.92
489.99	20240.95
490.17	20294.79
490.35	20655.23
490.53	20346.28
490.70	20886.94
490.88	20601.40
491.06	21050.78
491.24	20861.19
491.41	21008.65
491.59	20840.13
491.77	20837.79
491.95	21191.21
492.13	21394.84
492.30	21874.65
492.48	21741.24
492.66	21982.31
492.84	21994.01
493.01	22272.54
493.19	21891.03
493.37	22445.74
493.54	22382.54
493.72	22682.13
493.90	22726.60
494.08	23194.71
494.25	23016.83
494.43	23407.70
494.61	23559.83
494.79	23552.81
494.96	23489.62
495.14	23384.29
495.32	23864.10
495.49	23723.67
495.67	23796.23
495.85	24163.69
496.02	24538.18
496.20	24863.51
496.38	24751.17
496.55	24577.97
496.73	25355.02
496.91	25193.53
497.09	25104.59
497.26	25249.70
497.44	24985.22
497.62	25156.08
497.79	25673.34
497.97	25343.32
498.14	25862.92
498.32	26057.18
498.50	26031.44
498.67	26073.57
498.85	25855.90
499.03	26307.62
499.20	26551.04
499.38	26487.84
499.56	26707.85
499.73	26913.82
499.91	26347.41
500.08	26803.82
500.26	26511.25
500.44	26583.80
500.61	26960.63
500.79	26874.03
500.97	27180.64
501.14	27213.41
501.32	27269.58
501.49	27410.01
501.67	27262.56
501.84	27995.15
502.02	27878.12
502.20	27882.80
502.37	28163.67
502.55	28034.94
502.72	28238.56
502.90	28006.85
503.07	27821.95
503.25	28570.92
503.43	28500.70
503.60	28329.84
503.78	28545.17
503.95	28348.57
504.13	28552.20
504.30	28912.64
504.48	28774.55
504.65	28950.09
504.83	29046.05
505.01	29099.88
505.18	29008.60
505.36	29963.54
505.53	30110.99
505.71	29572.67
505.88	29699.06
506.06	29605.44
506.23	29682.67
506.41	30181.21
506.58	29991.62
506.76	29979.92
506.93	30197.59
507.11	30265.47
507.28	30583.78
507.46	29972.90
507.63	29982.26
507.81	30398.88
507.98	30478.46
508.16	30377.81
508.33	31014.44
508.50	30822.51
508.68	30710.17
508.85	31033.16
509.03	31309.35
509.20	31311.69
509.38	31393.61
509.55	31234.45
509.73	31388.92
509.90	31999.80
510.08	31454.46
510.25	31573.83
510.42	32208.11
510.60	32500.68
510.77	32016.19
510.95	31908.52
511.12	32137.90
511.30	32259.60
511.47	32364.93
511.64	32697.28
511.82	32830.69
511.99	32208.11
512.17	33003.89
512.34	32723.03
512.51	32760.48
512.69	33085.81
512.86	32781.54
513.04	32978.15
513.21	33486.04
513.38	33146.67
513.56	32687.92
513.73	32701.96
513.90	33352.63
514.08	33067.09
514.25	33460.30
514.43	33460.30
514.60	33284.76
514.77	33483.70
514.95	33853.51
515.12	33785.63
515.29	34295.87
515.47	34213.95
515.64	34330.98
515.81	33968.19
515.99	33762.23
516.16	34466.73
516.33	33701.37
516.51	34164.80
516.68	33397.10
516.85	33525.83
517.03	33745.84
517.20	34429.28
517.37	34288.85
517.54	34710.14
517.72	34499.50
517.89	34099.26
518.06	34146.08
518.24	34213.95
518.41	34450.35
518.58	35042.50
518.75	35075.27
518.93	35222.72
519.10	35023.78
519.27	35594.87
519.45	35328.05
519.62	35632.32
519.79	35754.02
519.96	35824.24
520.14	35824.24
520.31	35232.08
520.48	35690.83
520.65	35400.60
520.83	36191.70
521.00	35782.11
521.17	35814.88
521.34	36100.42
521.52	36533.42
521.69	36472.57
521.86	36479.59
522.03	36540.44
522.20	36533.42
522.38	36554.49
522.55	36723.01
522.72	36510.02
522.89	36456.18
523.07	37177.07
523.24	36877.48
523.41	37041.32
523.58	37160.69
523.75	37324.52
523.92	37305.80
524.10	37574.96
524.27	37329.20
524.44	37502.40
524.61	37813.70
524.78	37518.79
524.96	37406.44
525.13	38045.41
525.30	38136.69
525.47	38220.95
525.64	37799.65
525.81	37823.06
525.98	37579.64
526.16	37422.83
526.33	37324.52
526.50	37701.35
526.67	37322.18
526.84	37359.63
527.01	37937.74
527.18	38073.49
527.36	38319.25
527.53	38618.84
527.70	38602.46
527.87	38527.56
528.04	38251.38
528.21	38766.29
528.38	38583.73
528.55	38913.75
528.72	39063.54
528.89	39086.95
529.07	39208.65
529.24	39189.93
529.41	39119.71
529.58	38859.91
529.75	38958.22
529.92	39353.77
530.09	39189.93
530.26	39653.36
530.43	39218.02
530.60	39077.58
530.77	39594.84
530.94	39746.98
531.11	39643.99
531.28	39728.25
531.46	39749.32
531.63	39758.68
531.80	39959.97
531.97	39517.60
532.14	39108.01
532.31	39501.22
532.48	39915.50
532.65	39562.08
532.82	39620.59
532.99	40140.19
533.16	39742.30
533.33	40311.05
533.50	40472.54
533.67	40240.83
533.84	40271.26
534.01	40168.27
534.18	40332.11
534.35	40409.35
534.52	40350.84
534.69	40378.92
534.86	40727.66
535.03	40385.94
535.20	40479.57
535.37	41296.41
535.54	40809.58
535.71	40879.80
535.88	40762.77
536.05	40687.87
536.22	40793.20
536.38	41399.40
536.55	40734.68
536.72	41017.89
536.89	40699.58
537.06	41083.42
537.23	41319.82
537.40	41551.53
537.57	41172.36
537.74	41673.24
537.91	41539.83
538.08	41081.08
538.25	41181.73
538.42	41530.47
538.59	41874.52
538.75	41097.47
538.92	41476.63
539.09	41439.18
539.26	41500.04
539.43	41574.94
539.60	41830.05
539.77	41500.04
539.94	41886.23
540.11	41390.03
540.28	41474.29
540.44	41436.84
540.61	41827.71
540.78	41687.28
540.95	41565.57
541.12	42007.94
541.29	41762.18
541.46	41942.40
541.62	42232.63
541.79	42443.27
541.96	41926.02
542.13	42192.84
542.30	42223.26
542.47	42340.29
542.63	41996.23
542.80	41918.99
542.97	42880.95
543.14	42677.33
543.31	42476.04
543.48	43068.20
543.64	43126.71
543.81	42904.36
543.98	43028.41
544.15	42632.86
544.32	42995.64
544.48	43515.24
544.65	42815.42
544.82	43239.06
544.99	42770.95
545.16	42979.26
545.32	42983.94
545.49	43405.23
545.66	43578.43
545.83	43248.42
546.00	43634.61
546.16	43597.16
546.33	43339.70
546.50	43117.35
546.67	43632.27
546.83	43159.48
547.00	43360.76
547.17	43559.71
547.34	43810.15
547.50	43545.67
547.67	43613.54
547.84	43793.76
548.00	43915.47
548.17	43959.94
548.34	44074.63
548.51	44168.25
548.67	44023.14
548.84	44341.45
549.01	44107.40
549.18	44217.40
549.34	44013.77
549.51	44119.10
549.68	43941.22
549.84	44313.36
550.01	43945.90
550.18	43885.04
550.34	44320.38
550.51	43899.09
550.68	44114.42
550.84	43545.67
551.01	44397.62
551.18	44304.00
551.34	44676.15
551.51	44706.57
551.68	44561.46
551.84	44460.82
552.01	44222.08
552.18	44376.56
552.34	44226.76
552.51	44299.32
552.68	44318.04
552.84	44289.96
553.01	44549.76
553.18	44350.81
553.34	45127.87
553.51	44622.31
553.67	45055.31
553.84	44678.49
554.01	45141.91
554.17	45050.63
554.34	45024.89
554.51	44980.42
554.67	44804.88
554.84	44821.26
555.00	44811.90
555.17	44596.57
555.33	44980.42
555.50	44940.63
555.67	44856.37
555.83	44975.73
556.00	44966.37
556.16	45675.55
556.33	44851.69
556.50	45230.85
556.66	45134.89
556.83	44713.59
556.99	45099.78
557.16	45352.56
557.32	45464.91
557.49	45982.16
557.65	45015.52
557.82	45223.83
557.98	45055.31
558.15	45504.70
558.32	45565.55
558.48	44402.30
558.65	45610.02
558.81	44706.57
558.98	45162.98
559.14	45418.10
559.31	45205.11
559.47	45530.44
559.64	45392.35
559.80	45605.34
559.97	45670.87
560.13	45610.02
560.30	45265.96
560.46	45757.47
560.63	45408.73
560.79	45975.14
560.96	45947.06
561.12	45734.07
561.29	45525.76
561.45	45684.92
561.61	45368.94
561.78	45705.98
561.94	45584.27
562.11	45347.88
562.27	45429.80
562.44	45832.37
562.60	45610.02
562.77	46057.06
562.93	45862.80
563.10	46031.32
563.26	45462.57
563.42	45792.58
563.59	45518.74
563.75	45474.27
563.92	46005.57
564.08	46373.03
564.24	46286.43
564.41	45530.44
564.57	45446.18
564.74	45757.47
564.90	46014.93
565.07	45879.18
565.23	45837.05
565.39	45673.21
565.56	45703.64
565.72	45514.06
565.88	45951.74
566.05	45755.13
566.21	46047.70
566.38	45942.38
566.54	45633.42
566.70	45825.35
566.87	46263.03
567.03	45928.33
567.19	46621.13
567.36	45876.84
567.52	45787.90
567.68	46176.43
567.85	45603.00
568.01	45874.50
568.17	45965.78
568.34	46216.22
568.50	46089.83
568.66	45844.07
568.83	46115.58
568.99	45577.25
569.15	46153.02
569.32	46110.89
569.48	45670.87
569.64	46171.75
569.81	46010.25
569.97	46094.51
570.13	45815.99
570.30	45610.02
570.46	45631.08
570.62	45390.01
570.78	45684.92
570.95	45656.83
571.11	45820.67
571.27	46120.26
571.43	46028.98
571.60	46153.02
571.76	45808.96
571.92	46197.49
572.09	45893.22
572.25	46108.55
572.41	46120.26
572.57	45925.99
572.74	46274.73
572.90	45958.76
573.06	46494.74
573.22	46244.30
573.38	46375.37
573.55	46106.21
573.71	46637.51
573.87	46515.81
574.03	46019.61
574.20	46518.15
574.36	46096.85
574.52	46593.04
574.68	46422.19
574.84	46621.13
575.01	46358.99
575.17	45844.07
575.33	45806.62
575.49	46349.63
575.65	45942.38
575.82	46167.07
575.98	45717.68
576.14	46499.42
576.30	45998.55
576.46	46183.45
576.62	45909.61
576.79	46375.37
576.95	46174.09
577.11	45975.14
577.27	46562.62
577.43	46270.05
577.59	46218.56
577.75	46073.45
577.92	45701.30
578.08	45897.91
578.24	45853.44
578.40	45815.99
578.56	46223.24
578.72	46417.50
578.88	46614.11
579.04	46005.57
579.21	46160.05
579.37	46075.79
579.53	46452.61
579.69	46047.70
579.85	46036.00
580.01	46452.61
580.17	46274.73
580.33	46557.94
580.49	46454.95
580.65	46279.41
580.82	45933.01
580.98	46251.33
581.14	46183.45
581.30	46237.28
581.46	46550.91
581.62	46183.45
581.78	45909.61
581.94	46714.75
582.10	46391.76
582.26	46258.35
582.42	46120.26
582.58	46443.25
582.74	46209.20
582.90	46246.65
583.06	46600.07
583.22	46461.97
583.38	46335.59
583.54	46433.89
583.70	46679.64
583.86	46295.80
584.02	46075.79
584.18	46279.41
584.34	45933.01
584.50	46136.64
584.66	46272.39
584.82	46124.94
584.98	46239.62
585.14	46351.97
585.30	46277.07
585.46	45691.94
585.62	46302.82
585.78	46410.48
585.94	46157.70
586.10	46204.52
586.26	46295.80
586.42	46478.36
586.58	46539.21
586.74	46450.27
586.90	46284.09
587.06	46174.09
587.22	46401.12
587.38	46380.06
587.54	46546.23
587.70	46288.77
587.86	46223.24
588.02	46012.59
588.18	46122.60
588.34	45698.96
588.49	45815.99
588.65	45741.09
588.81	45418.10
588.97	45914.29
589.13	46054.72
589.29	45956.42
589.45	45827.69
589.61	46265.37
589.77	46754.54
589.93	46375.37
590.08	46213.88
590.24	46801.35
590.40	46705.39
590.56	46663.26
590.72	46253.67
590.88	46279.41
591.04	46621.13
591.20	46480.70
591.35	46368.35
591.51	46838.80
591.67	46431.55
591.83	46438.57
591.99	46344.95
592.15	46251.33
592.31	46368.35
592.46	46672.62
592.62	46087.49
592.78	46621.13
592.94	46684.33
593.10	46794.33
593.26	47007.32
593.41	46321.54
593.57	46389.42
593.73	46527.51
593.89	46754.54
594.05	46728.80
594.20	46539.21
594.36	46674.96
594.52	46501.76
594.68	46351.97
594.84	46326.22
594.99	46459.63
595.15	46417.50
595.31	46593.04
595.47	46256.01
595.62	46356.65
595.78	46536.87
595.94	46602.41
596.10	46490.06
596.25	46143.66
596.41	46370.69
596.57	46244.30
596.73	46499.42
596.88	46174.09
597.04	46227.92
597.20	46326.22
597.36	46415.16
597.51	46164.73
597.67	46206.86
597.83	46408.14
597.99	46684.33
598.14	46628.15
598.30	46440.91
598.46	46527.51
598.61	46447.93
598.77	46157.70
598.93	46663.26
599.09	46281.75
599.24	46993.28
599.40	46869.23
599.56	46520.49
599.71	46199.83
599.87	46939.44
600.03	46354.31
600.18	46660.92
600.34	46384.74
600.50	46377.72
600.65	46302.82
600.81	46536.87
600.97	46511.13
601.12	46501.76
601.28	46412.82
601.44	46717.09
601.59	45874.50
601.75	46110.89
601.91	46522.83
602.06	45797.26
602.22	46457.29
602.37	46600.07
602.53	46232.60
602.69	46370.69
602.84	46639.86
603.00	46316.86
603.16	46461.97
603.31	46263.03
603.47	46302.82
603.62	46256.01
603.78	46799.01
603.94	46415.16
604.09	46630.49
604.25	46340.27
604.40	46515.81
604.56	46108.55
604.71	46319.20
604.87	46150.68
605.03	46246.65
605.18	46487.72
605.34	46476.02
605.49	46143.66
605.65	46623.47
605.80	46396.44
605.96	46036.00
606.12	46438.57
606.27	46593.04
606.43	45876.84
606.58	46366.01
606.74	46195.15
606.89	46508.79
607.05	45982.16
607.20	46220.90
607.36	46096.85
607.51	46838.80
607.67	45874.50
607.82	46256.01
607.98	45855.78
608.13	45741.09
608.29	45841.73
608.44	45820.67
608.60	45492.99
608.75	46089.83
608.91	45914.29
609.06	45914.29
609.22	46473.68
609.37	46064.08
609.53	46272.39
609.68	46213.88
609.84	46138.98
609.99	46117.92
610.15	45769.18
610.30	45345.54
610.46	46089.83
610.61	45713.00
610.76	46059.40
610.92	45722.37
611.07	46323.88
611.23	45514.06
611.38	45958.76
611.54	45364.26
611.69	45404.05
611.84	45464.91
612.00	45336.18
612.15	45504.70
612.31	46160.05
612.46	45551.51
612.62	45399.37
612.77	45698.96
612.92	45720.02
613.08	45106.80
613.23	45172.34
613.39	44928.92
613.54	44844.66
613.69	45366.60
613.85	45336.18
614.00	45488.31
614.15	45633.42
614.31	45312.77
614.46	45177.02
614.62	45406.39
614.77	45490.65
614.92	45050.63
615.08	45097.44
615.23	45343.20
615.38	45230.85
615.54	45034.25
615.69	45230.85
615.84	45092.76
616.00	45214.47
616.15	44772.11
616.30	44957.01
616.46	45170.00
616.61	44676.15
616.76	44477.20
616.92	44802.53
617.07	44449.11
617.22	44591.89
617.37	44678.49
617.53	45045.95
617.68	45226.17
617.83	45179.36
617.99	44835.30
618.14	44575.50
618.29	44561.46
618.45	44566.14
618.60	44655.08
618.75	44641.04
618.90	44687.85
619.06	44196.34
619.21	44533.37
619.36	44428.05
619.51	44907.86
619.67	44177.61
619.82	44432.73
619.97	44701.89
620.12	44306.34
620.28	44041.86
620.43	44123.78
620.58	44725.30
620.73	44397.62
620.89	44208.04
621.04	44474.86
621.19	44271.23
621.34	44594.23
621.49	43957.60
621.65	43714.19
621.80	44531.03
621.95	43957.60
622.10	44194.00
622.25	43863.98
622.41	44301.66
622.56	44203.36
622.71	43789.08
622.86	43690.78
623.01	43648.65
623.16	43800.79
623.32	44191.65
623.47	43620.56
623.62	43548.01
623.77	43716.53
623.92	43606.52
624.07	43632.27
624.23	43468.43
624.38	43391.19
624.53	43646.31
624.68	43807.81
624.83	43676.74
624.98	43086.92
625.13	43391.19
625.29	43131.39
625.44	43863.98
625.59	43295.23
625.74	43353.74
625.89	42878.61
626.04	43196.93
626.19	43241.40
626.34	43030.75
626.49	43356.08
626.65	43138.41
626.80	43555.03
626.95	42916.06
627.10	42784.99
627.25	42990.96
627.40	42731.16
627.55	43161.82
627.70	42562.64
627.85	42665.63
628.00	43042.45
628.15	42925.42
628.30	42546.26
628.45	42787.33
628.60	42773.29
628.76	42602.43
628.91	42632.86
629.06	42557.96
629.21	42703.07
629.36	42298.16
629.51	42124.96
629.66	42904.36
629.81	42026.66
629.96	42677.33
630.11	42541.58
630.26	42665.63
630.41	42476.04
630.56	42424.55
630.71	42611.79
630.86	42454.98
631.01	42445.62
631.16	42256.03
631.31	41729.41
631.46	41631.11
631.61	41956.44
631.76	42136.66
631.91	42307.52
632.06	42689.03
632.21	41989.21
632.36	42529.87
632.51	42052.41
632.66	42438.59
632.81	41521.10
632.96	42492.43
633.10	41998.57
633.25	42122.62
633.40	42309.86
633.55	41921.34
633.70	41469.61
633.85	41897.93
634.00	41977.51
634.15	42160.07
634.30	41392.37
634.45	41584.30
634.60	41663.88
634.75	41724.73
634.90	41518.76
635.05	41502.38
635.19	41813.67
635.34	41893.25
635.49	41624.09
635.64	41514.08
635.79	41493.02
635.94	41181.73
636.09	41179.39
636.24	41357.27
636.39	41181.73
636.53	41064.70
636.68	41354.93
636.83	40898.52
636.98	41626.43
637.13	41600.68
637.28	41450.89
637.43	41846.44
637.57	41462.59
637.72	40975.76
637.87	41560.89
638.02	41610.04
638.17	41415.78
638.32	41076.40
638.46	41109.17
638.61	40938.31
638.76	40968.74
638.91	40893.84
639.06	41013.21
639.20	41394.71
639.35	40800.22
639.50	41055.34
639.65	40952.35
639.80	40837.67
639.94	40898.52
640.09	40765.11
640.24	40715.96
640.39	40584.89
640.54	40205.72
640.68	40648.08
640.83	40257.21
640.98	40348.50
641.13	40121.46
641.27	40779.15
641.42	40142.53
641.57	40329.77
641.72	40624.68
641.86	40198.70
642.01	40236.15
642.16	40161.25
642.31	40147.21
642.45	41013.21
642.60	40004.44
642.75	40278.28
642.90	40552.12
643.04	40278.28
643.19	40053.59
643.34	39887.41
643.48	40273.60
643.63	40030.18
643.78	39819.53
643.93	40453.82
644.07	39924.86
644.22	39770.38
644.37	39625.27
644.51	39920.18
644.66	39948.26
644.81	40343.81
644.95	40240.83
645.10	40163.59
645.25	40168.27
645.39	39679.10
645.54	39709.53
645.69	39393.56
645.83	39824.22
645.98	39660.38
646.13	39365.47
646.27	39896.77
646.42	39299.94
646.57	39548.03
646.71	39573.78
646.86	39278.87
647.00	39714.21
647.15	39311.64
647.30	39529.31
647.44	39005.03
647.59	39077.58
647.74	38967.58
647.88	39445.05
648.03	39367.81
648.17	39346.75
648.32	39100.99
648.47	39398.24
648.61	38813.10
648.76	39435.69
648.90	39196.95
649.05	39295.25
649.20	39370.15
649.34	38974.60
649.49	38822.47
649.63	38696.08
649.78	38965.24
649.92	39077.58
650.07	39295.25
650.21	39187.59
650.36	38799.06
650.51	38862.26
650.65	39643.99
650.80	39232.06
650.94	39456.75
651.09	38700.76
651.23	38609.48
651.38	38850.55
651.52	38302.87
651.67	38672.67
651.81	38422.23
651.96	38337.98
652.10	38752.25
652.25	38768.63
652.39	38487.77
652.54	38590.75
652.68	38256.06
652.83	38590.75
652.97	38962.90
653.12	38410.53
653.26	38352.02
653.41	37937.74
653.55	38253.72
653.70	38305.21
653.84	38218.61
653.99	37991.58
654.13	37813.70
654.27	38293.50
654.42	37993.92
654.56	38319.25
654.71	38277.12
654.85	37710.71
655.00	38124.99
655.14	38337.98
655.29	37890.93
655.43	37909.66
655.57	37156.00
655.72	37188.77
655.86	37455.59
656.01	37350.27
656.15	37474.32
656.30	37361.97
656.44	36959.40
656.58	37579.64
656.73	37226.22
656.87	37757.52
657.01	37488.36
657.16	37406.44
657.30	37392.40
657.45	37053.02
657.59	37567.94
657.73	37422.83
657.88	37816.04
658.02	37933.06
658.16	37249.63
658.31	37289.42
658.45	37694.33
658.60	37029.62
658.74	37563.26
658.88	37179.41
659.03	37200.47
659.17	37354.95
659.31	36828.33
659.46	36985.15
659.60	36512.36
659.74	36924.29
659.89	36795.56
660.03	36840.03
660.17	37015.57
660.32	37109.19
660.46	37085.79
660.60	36676.19
660.74	36341.50
660.89	36664.49
661.03	36334.48
661.17	36753.43
661.32	36430.44
661.46	36538.10
661.60	36334.48
661.74	35899.14
661.89	36355.54
662.03	36442.14
662.17	36519.38
662.31	36208.09
662.46	36638.75
662.60	36311.07
662.74	36011.48
662.88	36060.63
663.03	36252.56
663.17	36058.29
663.31	35428.69
663.45	35798.49
663.60	35948.29
663.74	35936.59
663.88	35255.49
664.02	35086.97
664.17	35789.13
664.31	35171.23
664.45	35199.32
664.59	35510.61
664.73	35360.81
664.88	35356.13
665.02	35049.52
665.16	35175.91
665.30	34726.53
665.44	35145.48
665.59	34873.98
665.73	34817.81
665.87	34546.31
666.01	34871.64
666.15	34726.53
666.29	34808.45
666.44	34852.92
666.58	34712.49
666.72	34927.81
666.86	34478.43
667.00	34284.17
667.14	34349.70
667.28	34220.97
667.43	34518.22
667.57	34185.86
667.71	34267.78
667.85	34384.81
667.99	34646.95
668.13	34015.01
668.27	34113.31
668.41	34050.11
668.56	33778.61
668.70	33736.48
668.84	33804.36
668.98	33537.54
669.12	33502.43
669.26	33539.88
669.40	33647.54
669.54	33387.74
669.68	33432.21
669.82	33212.20
669.96	33125.60
670.10	33034.32
670.25	33144.33
670.39	33013.26
670.53	32744.09
670.67	33230.93
670.81	32673.88
670.95	33273.06
671.09	32636.43
671.23	33031.98
671.37	32582.60
671.51	32620.05
671.65	32233.86
671.79	32610.68
671.93	32545.15
672.07	32481.95
672.21	32332.16
672.35	32173.00
672.49	31957.67
672.63	32540.47
672.77	31873.42
672.91	32121.51
673.05	31704.90
673.19	31831.29
673.33	31330.41
673.47	31728.30
673.61	31328.07
673.75	31147.85
673.89	31260.20
674.03	31398.29
674.17	31370.20
674.31	31201.68
674.45	31660.43
674.59	31297.64
674.73	31564.46
674.87	31278.92
675.01	30698.47
675.15	30850.60
675.29	30866.98
675.43	30574.42
675.56	30890.39
675.70	30953.58
675.84	30693.79
675.98	29371.38
676.12	30279.51
676.26	30749.96
676.40	30560.37
676.54	30574.42
676.68	30590.80
676.82	29631.18
676.96	29912.05
677.10	30075.88
677.23	29928.43
677.37	29830.13
677.51	29773.95
677.65	29729.48
677.79	29291.80
677.93	29436.92
678.07	28947.75
678.21	28673.90
678.34	28779.23
678.48	28917.32
678.62	28634.11
678.76	28451.55
678.90	28067.70
679.04	28491.34
679.18	28573.26
679.31	28168.35
679.45	27976.42
679.59	28173.03
679.73	28161.33
679.87	28198.77
680.00	28299.42
680.14	28250.27
680.28	27733.01
680.42	27660.45
680.56	27882.80
680.70	27541.08
680.83	27597.26
680.97	27438.10
681.11	27239.15
681.25	27349.16
681.39	27143.19
681.52	27388.95
681.66	27042.55
681.80	26867.01
681.94	26988.72
682.07	26759.34
682.21	26579.12
682.35	26520.61
682.49	26679.77
682.62	26001.01
682.76	26450.39
682.90	25851.22
683.04	26221.02
683.17	25961.22
683.31	25771.64
683.45	25823.13
683.59	26045.48
683.72	25783.34
683.86	25905.05
684.00	25816.11
684.13	25294.17
684.27	25006.28
684.41	25277.79
684.55	25177.14
684.68	25254.38
684.82	24961.81
684.96	24833.08
685.09	24966.49
685.23	24772.23
685.37	24709.04
685.50	24776.91
685.64	24582.65
685.78	24587.33
685.91	24112.20
686.05	24322.85
686.19	23597.28
686.32	23789.20
686.46	23185.35
686.60	23550.47
686.73	23482.59
686.87	23197.05
687.01	23192.37
687.14	23042.57
687.28	22960.66
687.42	22916.19
687.55	23073.00
687.69	23136.20
687.82	23227.48
687.96	23281.31
688.10	22642.34
688.23	22450.42
688.37	22661.07
688.50	22757.03
688.64	22384.88
688.78	22759.37
688.91	22803.84
689.05	22134.45
689.18	22057.21
689.32	21792.73
689.46	22429.35
689.59	22462.12
689.73	22242.11
689.86	21970.61
690.00	21909.75
690.13	21799.75
690.27	21280.15
690.41	21401.86
690.54	21060.14
690.68	21343.35
690.81	21102.27
690.95	21371.43
691.08	20978.22
691.22	21027.37
691.35	21156.10
691.49	21149.08
691.62	20868.22
691.76	20711.40
691.89	20737.15
692.03	20753.53
692.16	20456.28
692.30	20449.26
692.43	20491.39
692.57	20049.03
692.70	20142.65
692.84	20020.94
692.97	20175.42
693.11	19974.13
693.24	19510.71
693.38	19496.66
693.51	19454.53
693.65	19580.92
693.78	19690.93
693.92	19276.65
694.05	19440.49
694.19	19314.10
694.32	19365.59
694.45	19185.37
694.59	19548.15
694.72	19054.30
694.86	18948.98
694.99	19009.83
695.13	19002.81
695.26	18684.50
695.39	18633.00
695.53	18670.45
695.66	18572.15
695.80	18221.07
695.93	18471.51
696.07	18200.01
696.20	18457.46
696.33	18597.90
696.47	18204.69
696.60	17984.68
696.73	17823.18
696.87	17858.29
697.00	17734.24
697.14	17439.33
697.27	17635.94
697.40	17575.08
697.54	17397.20
697.67	17078.89
697.80	17170.17
697.94	17085.91
698.07	17001.65
698.21	17170.17
698.34	17331.67
698.47	17125.70
698.61	16807.39
698.74	16992.29
698.87	17097.61
699.01	16563.97
699.14	16266.72
699.27	16201.19
699.40	16374.39
699.54	16156.72
699.67	15990.54
699.80	16252.68
699.94	16114.59
700.07	16004.58
700.20	16311.19
700.34	15976.50
700.47	16166.08
700.60	15810.32
700.73	15934.37
700.87	15873.51
701.00	15728.40
701.13	15524.77
701.26	15550.52
701.40	15335.19
701.53	15075.39
701.66	15576.27
701.79	15171.35
701.93	15108.16
702.06	14934.96
702.19	14796.87
702.32	14691.54
702.46	14986.45
702.59	14682.18
702.72	14906.87
702.85	14916.23
702.99	14656.43
703.12	14347.48
703.25	14328.76
703.38	14398.98
703.51	14272.59
703.65	14401.32
703.78	14122.79
703.91	14146.20
704.04	14038.53
704.17	14099.39
704.31	13954.27
704.44	13834.91
704.57	13877.04
704.70	13743.63
704.83	13760.01
704.96	13813.84
705.10	13509.57
705.23	13572.77
>>>>>End Processed Spectral Data<<<<<
