SpectraSuite Data File
++++++++++++++++++++++++++++++++++++
Date: Fri Oct 25 10:47:46 EDT 2013
User: price-jones
Dark Spectrum Present: No
Reference Spectrum Present: No
Number of Sampled Component Spectra: 1
Spectrometers: USB2+H05261
Integration Time (usec): 100000 (USB2+H05261)
Spectra Averaged: 1 (USB2+H05261)
Boxcar Smoothing: 0 (USB2+H05261)
Correct for Electrical Dark: No (USB2+H05261)
Strobe/Lamp Enabled: No (USB2+H05261)
Correct for Detector Non-linearity: No (USB2+H05261)
Correct for Stray Light: No (USB2+H05261)
Number of Pixels in Processed Spectrum: 2048
>>>>>Begin Processed Spectral Data<<<<<
365.73	140.43
365.92	140.43
366.12	140.43
366.32	88.94
366.52	98.30
366.72	39.79
366.91	16.38
367.11	44.47
367.31	86.60
367.51	0.00
367.70	56.17
367.90	28.09
368.10	2.34
368.30	88.94
368.49	63.19
368.69	56.17
368.89	0.00
369.09	79.58
369.28	46.81
369.48	56.17
369.68	100.64
369.87	16.38
370.07	142.77
370.27	210.65
370.47	234.05
370.66	379.17
370.86	390.87
371.06	418.96
371.25	484.49
371.45	374.49
371.65	404.91
371.84	369.80
372.04	454.06
372.24	454.06
372.44	472.79
372.63	496.19
372.83	486.83
373.03	517.26
373.22	496.19
373.42	533.64
373.62	535.98
373.81	557.05
374.01	566.41
374.21	573.43
374.40	573.43
374.60	615.56
374.79	557.05
374.99	587.47
375.19	559.39
375.38	531.30
375.58	627.26
375.78	547.69
375.97	578.11
376.17	685.78
376.37	580.45
376.56	559.39
376.76	571.09
376.95	603.86
377.15	655.35
377.35	617.90
377.54	599.18
377.74	589.82
377.93	559.39
378.13	671.73
378.33	669.39
378.52	594.50
378.72	669.39
378.91	578.11
379.11	578.11
379.31	603.86
379.50	620.24
379.70	636.63
379.89	603.86
380.09	606.20
380.28	641.31
380.48	648.33
380.68	667.05
380.87	695.14
381.07	655.35
381.26	699.82
381.46	585.13
381.65	702.16
381.85	638.97
382.04	653.01
382.24	690.46
382.43	631.94
382.63	763.01
382.83	671.73
383.02	814.51
383.22	706.84
383.41	660.03
383.61	798.12
383.80	734.93
384.00	751.31
384.19	692.80
384.39	784.08
384.58	739.61
384.78	812.17
384.97	763.01
385.17	711.52
385.36	711.52
385.56	821.53
385.75	812.17
385.95	791.10
386.14	795.78
386.34	816.85
386.53	847.27
386.72	826.21
386.92	786.42
387.11	868.34
387.31	798.12
387.50	830.89
387.70	805.14
387.89	788.76
388.09	819.19
388.28	866.00
388.48	849.61
388.67	903.45
388.86	858.98
389.06	894.08
389.25	966.64
389.45	842.59
389.64	835.57
389.84	891.74
390.03	891.74
390.22	936.21
390.42	877.70
390.61	947.92
390.81	905.79
391.00	976.00
391.19	898.77
391.39	926.85
391.58	943.24
391.78	884.72
391.97	1025.15
392.16	990.05
392.36	985.37
392.55	1071.97
392.75	933.87
392.94	933.87
393.13	882.38
393.33	1015.79
393.52	959.62
393.71	1006.43
393.91	1048.56
394.10	964.30
394.29	1027.50
394.49	978.34
394.68	1104.73
394.88	1102.39
395.07	1121.12
395.26	1104.73
395.46	1083.67
395.65	1032.18
395.84	1102.39
396.04	1203.04
396.23	1167.93
396.42	1076.65
396.62	1156.22
396.81	1203.04
397.00	1086.01
397.19	1228.78
397.39	1261.55
397.58	1181.97
397.77	1231.12
397.97	1280.27
398.16	1196.01
398.35	1301.34
398.55	1242.82
398.74	1322.40
398.93	1317.72
399.12	1315.38
399.32	1348.15
399.51	1338.79
399.70	1359.85
399.90	1462.83
400.09	1308.36
400.28	1394.96
400.47	1448.79
400.67	1359.85
400.86	1392.62
401.05	1474.54
401.24	1404.32
401.44	1416.02
401.63	1535.39
401.82	1451.13
402.01	1572.84
402.21	1476.88
402.40	1465.18
402.59	1551.78
402.78	1535.39
402.97	1493.26
403.17	1544.75
403.36	1563.48
403.55	1507.30
403.74	1610.29
403.93	1675.82
404.13	1617.31
404.32	1720.29
404.51	1593.90
404.70	1666.46
404.89	1629.01
405.09	1774.13
405.28	1753.06
405.47	1675.82
405.66	1771.79
405.85	1771.79
406.05	1720.29
406.24	1724.97
406.43	1853.70
406.62	1860.73
406.81	1818.60
407.00	1799.87
407.20	1804.55
407.39	1877.11
407.58	1823.28
407.77	2033.93
407.96	1914.56
408.15	1996.48
408.34	1968.39
408.54	1980.09
408.73	1909.88
408.92	1966.05
409.11	2122.87
409.30	2010.52
409.49	1968.39
409.68	2080.74
409.87	2076.06
410.07	2134.57
410.26	2113.50
410.45	2157.97
410.64	2113.50
410.83	2200.10
411.02	2071.37
411.21	2300.75
411.40	2291.38
411.59	2207.13
411.78	2267.98
411.98	2270.32
412.17	2434.16
412.36	2410.75
412.55	2455.22
412.74	2619.06
412.93	2555.86
413.12	2352.24
413.31	2562.89
413.50	2551.18
413.69	2495.01
413.88	2485.65
414.07	2668.21
414.26	2626.08
414.45	2579.27
414.64	2635.44
414.83	2745.45
415.02	2715.02
415.22	2803.96
415.41	2808.64
415.60	2745.45
415.79	2757.15
415.98	2771.19
416.17	2796.94
416.36	2841.41
416.55	2920.99
416.74	2972.48
416.93	2895.24
417.12	2829.71
417.31	2778.22
417.50	2977.16
417.69	3070.78
417.88	2986.52
418.07	2979.50
418.26	3089.51
418.45	3138.66
418.64	3138.66
418.83	3131.64
419.02	3342.28
419.21	3190.15
419.39	3101.21
419.58	3045.04
419.77	3222.92
419.96	3194.83
420.15	3325.90
420.34	3267.39
420.53	3403.14
420.72	3363.35
420.91	3426.54
421.10	3358.67
421.29	3311.86
421.48	3293.13
421.67	3442.93
421.86	3445.27
422.05	3424.20
422.24	3391.44
422.43	3377.39
422.61	3442.93
422.80	3466.33
422.99	3468.67
423.18	3468.67
423.37	3562.30
423.56	3527.19
423.75	3559.95
423.94	3398.46
424.13	3309.52
424.32	3330.58
424.50	3562.30
424.69	3522.51
424.88	3627.83
425.07	3508.46
425.26	3449.95
425.45	3576.34
425.64	3489.74
425.83	3445.27
426.01	3644.21
426.20	3524.85
426.39	3620.81
426.58	3405.48
426.77	3501.44
426.96	3534.21
427.15	3485.06
427.33	3655.92
427.52	3515.48
427.71	3786.99
427.90	3695.71
428.09	3595.06
428.28	3796.35
428.46	3726.13
428.65	3779.97
428.84	3824.44
429.03	3836.14
429.22	3761.24
429.40	3857.20
429.59	3831.46
429.78	3595.06
429.97	3676.98
430.16	3847.84
430.34	3880.61
430.53	3826.78
430.72	3955.51
430.91	3836.14
431.10	3754.22
431.28	4135.73
431.47	4194.24
431.66	4182.54
431.85	4100.62
432.03	4126.36
432.22	4241.05
432.41	4234.03
432.60	4105.30
432.79	4287.86
432.97	4205.94
433.16	4320.63
433.35	4072.53
433.54	4285.52
433.72	4266.80
433.91	4255.09
434.10	4337.01
434.28	4297.22
434.47	4379.14
434.66	4437.66
434.85	4463.40
435.03	4484.47
435.22	4435.32
435.41	4638.94
435.59	4589.79
435.78	4496.17
435.97	4608.51
436.16	4580.43
436.34	4451.70
436.53	4533.62
436.72	4788.74
436.90	4585.11
437.09	4697.46
437.28	4674.05
437.46	4524.26
437.65	4638.94
437.84	4753.63
438.02	4557.02
438.21	4718.52
438.40	4739.58
438.58	4734.90
438.77	5004.07
438.96	4692.77
439.14	4973.64
439.33	5158.54
439.52	5029.81
439.70	5184.29
439.89	5046.20
440.08	5100.03
440.26	5214.71
440.45	5088.32
440.63	5313.02
440.82	5373.87
441.01	5390.25
441.19	5416.00
441.38	5441.75
441.57	5469.83
441.75	5467.49
441.94	5570.48
442.12	5694.52
442.31	5657.07
442.50	5750.70
442.68	5813.89
442.87	5549.41
443.05	5628.99
443.24	5668.78
443.43	5746.02
443.61	5741.33
443.80	5802.19
443.98	5577.50
444.17	5497.92
444.35	5846.66
444.54	5860.70
444.73	5820.91
444.91	5865.38
445.10	5778.78
445.28	5827.93
445.47	5717.93
445.65	5998.79
445.84	5860.70
446.02	5912.19
446.21	5865.38
446.39	5977.73
446.58	6216.46
446.77	6024.54
446.95	5823.25
447.14	6146.25
447.32	5919.21
447.51	5912.19
447.69	5989.43
447.88	6017.52
448.06	6104.12
448.25	5921.56
448.43	6008.16
448.62	6031.56
448.80	6057.31
448.99	6073.69
449.17	6214.12
449.36	6139.23
449.54	6305.40
449.73	6164.97
449.91	6366.26
450.10	6279.66
450.28	6436.47
450.46	6352.21
450.65	6457.54
450.83	6502.01
451.02	6396.68
451.20	6490.31
451.39	6459.88
451.57	6331.15
451.76	6417.75
451.94	6497.33
452.13	6558.18
452.31	6392.00
452.49	6413.07
452.68	6441.15
452.86	6502.01
453.05	6506.69
453.23	6480.94
453.42	6555.84
453.60	6506.69
453.78	6462.22
453.97	6576.91
454.15	6544.14
454.34	6661.16
454.52	6682.23
454.70	6754.79
454.89	6743.08
455.07	6752.45
455.26	6682.23
455.44	6848.41
455.62	6888.20
455.81	6963.09
455.99	6925.65
456.17	7059.06
456.36	7094.16
456.54	7014.59
456.73	7117.57
456.91	7302.47
457.09	7353.96
457.28	7428.86
457.46	7115.23
457.64	7382.05
457.83	7108.21
458.01	7199.49
458.19	7265.02
458.38	7358.64
458.56	7346.94
458.74	7389.07
458.93	7321.20
459.11	7468.65
459.29	7433.54
459.48	7630.15
459.66	7473.33
459.84	7571.63
460.03	7531.84
460.21	7541.21
460.39	7761.22
460.57	7583.34
460.76	7620.78
460.94	7651.21
461.12	7566.95
461.31	7826.75
461.49	7698.02
461.67	7747.17
461.85	7775.26
462.04	7955.48
462.22	8463.38
462.40	8084.21
462.59	8004.63
462.77	7950.80
462.95	8028.04
463.13	8035.06
463.32	8231.66
463.50	8269.11
463.68	8149.75
463.86	8119.32
464.05	8166.13
464.23	8037.40
464.41	8175.49
464.59	7946.12
464.78	8315.92
464.96	8248.05
465.14	8109.96
465.32	8416.57
465.50	8301.88
465.69	8341.67
465.87	8425.93
466.05	8409.54
466.23	8294.86
466.41	8074.85
466.60	8596.79
466.78	8493.80
466.96	8463.38
467.14	8580.40
467.32	8374.44
467.51	8652.96
467.69	8367.42
467.87	8638.92
468.05	8575.72
468.23	8652.96
468.41	8425.93
468.60	8624.87
468.78	8671.68
468.96	8767.65
469.14	8840.20
469.32	8833.18
469.50	8713.81
469.69	8821.48
469.87	8882.33
470.05	9060.21
470.23	8966.59
470.41	8814.46
470.59	8992.34
470.77	8964.25
470.95	8985.32
471.14	9048.51
471.32	8938.51
471.50	9224.05
471.68	9427.68
471.86	9352.78
472.04	9465.13
472.22	9753.01
472.40	9158.52
472.58	9415.98
472.77	9423.00
472.95	9680.46
473.13	9848.97
473.31	9465.13
473.49	9455.76
473.67	9432.36
473.85	9678.12
474.03	9818.55
474.21	9851.31
474.39	9994.09
474.57	9987.07
474.75	9900.47
474.93	10225.80
475.12	9994.09
475.30	10024.51
475.48	10218.78
475.66	10174.31
475.84	10328.78
476.02	10347.51
476.20	10310.06
476.38	10576.88
476.56	10539.43
476.74	10558.16
476.92	10656.46
477.10	10656.46
477.28	10918.60
477.46	11014.56
477.64	11052.01
477.82	11335.21
478.00	11456.92
478.18	11342.24
478.36	11358.62
478.54	11618.42
478.72	11435.86
478.90	11826.73
479.08	11768.21
479.26	11880.56
479.44	11999.93
479.62	11934.39
479.80	11918.01
479.98	12180.15
480.16	12287.81
480.34	12105.25
480.52	12554.63
480.70	12376.75
480.88	12346.33
481.06	12411.86
481.24	12971.25
481.41	12755.92
481.59	13121.04
481.77	13217.01
481.95	12926.78
482.13	13209.98
482.31	13060.19
482.49	13525.96
482.67	13745.97
482.85	13891.08
483.03	13579.79
483.21	14061.94
483.39	14188.33
483.57	14207.05
483.74	14085.34
483.92	14300.67
484.10	14431.74
484.28	14331.10
484.46	14574.52
484.64	14768.78
484.82	14628.35
485.00	14941.98
485.18	14993.47
485.35	15161.99
485.53	14806.23
485.71	14951.34
485.89	15316.47
486.07	14853.04
486.25	15431.15
486.43	15360.94
486.61	15749.46
486.78	15847.77
486.96	15892.24
487.14	16329.92
487.32	16147.36
487.50	16608.44
487.68	16407.16
487.85	16828.45
488.03	17003.99
488.21	16989.95
488.39	16940.80
488.57	17142.08
488.75	17095.27
488.92	17289.54
489.10	17720.20
489.28	17860.63
489.46	18209.37
489.64	17804.46
489.81	18214.05
489.99	18448.10
490.17	18576.83
490.35	18541.72
490.53	18382.57
490.70	18827.27
490.88	18586.19
491.06	19110.47
491.24	18925.57
491.41	19370.27
491.59	19227.50
491.77	19316.44
491.95	19634.75
492.13	19477.94
492.30	19674.54
492.48	19981.15
492.66	19742.42
492.84	20016.26
493.01	20215.21
493.19	20025.62
493.37	20580.33
493.54	20596.71
493.72	20760.55
493.90	20702.04
494.08	21025.03
494.25	21266.11
494.43	21422.92
494.61	21261.43
494.79	21631.23
494.96	21483.78
495.14	21200.57
495.32	21699.11
495.49	21764.64
495.67	21724.85
495.85	22089.98
496.02	22366.16
496.20	22284.24
496.38	22370.84
496.55	22530.00
496.73	22862.35
496.91	22761.71
497.09	22815.54
497.26	22817.88
497.44	23229.82
497.62	23192.37
497.79	23477.91
497.97	23330.46
498.14	23545.79
498.32	23824.31
498.50	23562.17
498.67	23630.05
498.85	24065.39
499.03	23955.38
499.20	24116.88
499.38	24458.60
499.56	24280.72
499.73	24290.08
499.91	24596.69
500.08	24744.14
500.26	24184.76
500.44	24465.62
500.61	24294.76
500.79	24666.91
500.97	24886.92
501.14	25296.51
501.32	25289.49
501.49	24947.77
501.67	25167.78
501.84	25579.71
502.02	25434.60
502.20	25523.54
502.37	25621.84
502.55	25771.64
502.72	25724.83
502.90	26054.84
503.07	25766.96
503.25	26003.35
503.43	25958.88
503.60	25975.27
503.78	26019.74
503.95	26265.49
504.13	26319.32
504.30	26314.64
504.48	26864.67
504.65	26869.35
504.83	26895.10
505.01	27002.76
505.18	27021.48
505.36	27459.16
505.53	27098.72
505.71	26890.41
505.88	27374.91
506.06	26728.92
506.23	27627.68
506.41	27421.72
506.58	27480.23
506.76	27538.74
506.93	27756.41
507.11	27571.51
507.28	27990.47
507.46	27672.15
507.63	27786.84
507.81	27814.93
507.98	28273.67
508.16	28091.11
508.33	28093.45
508.50	28676.24
508.68	28486.66
508.85	28615.39
509.03	28861.15
509.20	29029.66
509.38	28954.77
509.55	29158.39
509.73	28903.28
509.90	28877.53
510.08	29120.95
510.25	29603.10
510.42	29060.09
510.60	29743.53
510.77	29308.19
510.95	29380.74
511.12	29582.03
511.30	29771.61
511.47	30211.64
511.64	30127.38
511.82	30129.72
511.99	30017.37
512.17	30228.02
512.34	30127.38
512.51	30321.64
512.69	30230.36
512.86	30642.29
513.04	30618.89
513.21	30546.33
513.38	30822.51
513.56	30515.90
513.73	30494.84
513.90	30740.60
514.08	30546.33
514.25	30569.74
514.43	31119.76
514.60	30995.71
514.77	31019.12
514.95	31229.77
515.12	31428.71
515.29	31374.88
515.47	31793.84
515.64	31587.87
515.81	31335.09
515.99	31730.64
516.16	31819.58
516.33	31620.64
516.51	31683.83
516.68	31693.19
516.85	31599.57
517.03	31627.66
517.20	31999.80
517.37	32119.17
517.54	32168.32
517.72	32121.51
517.89	32341.52
518.06	32013.85
518.24	32189.39
518.41	31873.42
518.58	32098.11
518.75	32606.00
518.93	32734.73
519.10	32622.39
519.27	33074.11
519.45	32891.55
519.62	33137.30
519.79	33034.32
519.96	33046.02
520.14	33214.54
520.31	33266.03
520.48	33134.96
520.65	33420.51
520.83	33731.80
521.00	33802.02
521.17	33542.22
521.34	33769.25
521.52	33649.88
521.69	33848.83
521.86	34073.52
522.03	33905.00
522.20	34012.66
522.38	34405.88
522.55	34300.55
522.72	34134.37
522.89	34452.69
523.07	34712.49
523.24	34190.55
523.41	34630.57
523.58	34576.73
523.75	34918.45
523.92	34735.89
524.10	34672.70
524.27	35178.25
524.44	34752.27
524.61	34918.45
524.78	35131.44
524.96	35283.58
525.13	35358.47
525.30	35344.43
525.47	35686.15
525.64	35145.48
525.81	35012.07
525.98	35667.42
526.16	35063.57
526.33	35339.75
526.50	34998.03
526.67	35461.46
526.84	35147.82
527.01	35381.88
527.18	35564.44
527.36	36236.17
527.53	36170.64
527.70	36854.08
527.87	36390.65
528.04	36306.39
528.21	36297.03
528.38	36023.19
528.55	36236.17
528.72	36481.93
528.89	36928.97
529.07	36484.27
529.24	36259.58
529.41	36212.77
529.58	36517.04
529.75	36720.66
529.92	36694.92
530.09	36676.19
530.26	36762.79
530.43	36856.42
530.60	36446.82
530.77	36821.31
530.94	37113.87
531.11	36940.68
531.28	36968.76
531.46	37385.38
531.63	37429.85
531.80	37029.62
531.97	37799.65
532.14	37247.29
532.31	37130.26
532.48	37537.51
532.65	37670.92
532.82	37268.35
532.99	37553.90
533.16	37406.44
533.33	37776.25
533.50	38052.43
533.67	37928.38
533.84	37357.29
534.01	37759.86
534.18	37673.26
534.35	37912.00
534.52	37816.04
534.69	38017.32
534.86	37996.26
535.03	38007.96
535.20	38300.53
535.37	38281.80
535.54	38855.23
535.71	38206.90
535.88	38600.12
536.05	38396.49
536.22	38309.89
536.38	38604.80
536.55	38583.73
536.72	38590.75
536.89	38216.27
537.06	38471.39
537.23	38646.93
537.40	39072.90
537.57	38841.19
537.74	39047.16
537.91	39321.00
538.08	38642.24
538.25	39386.54
538.42	38995.67
538.59	39122.05
538.75	39082.27
538.92	39016.73
539.09	39136.10
539.26	39068.22
539.43	39203.97
539.60	39377.17
539.77	39129.08
539.94	39075.24
540.11	39505.90
540.28	39367.81
540.44	39440.37
540.61	39580.80
540.78	39232.06
540.95	39285.89
541.12	39281.21
541.29	39562.08
541.46	39311.64
541.62	39360.79
541.79	39899.11
541.96	39646.33
542.13	39669.74
542.30	39613.57
542.47	40084.01
542.63	40055.93
542.80	40135.51
542.97	40327.43
543.14	40896.18
543.31	40535.74
543.48	40278.28
543.64	40891.50
543.81	40727.66
543.98	40741.71
544.15	39758.68
544.32	40594.25
544.48	40795.54
544.65	40507.65
544.82	40643.40
544.99	40612.98
545.16	40854.05
545.32	40821.28
545.49	40989.80
545.66	40877.46
545.83	41223.86
546.00	41359.61
546.16	41205.13
546.33	40423.39
546.50	41041.29
546.67	41666.22
546.83	40765.11
547.00	40910.22
547.17	41368.97
547.34	41036.61
547.50	41488.34
547.67	41422.80
547.84	41495.36
548.00	41411.10
548.17	41757.50
548.34	41696.64
548.51	41851.12
548.67	41383.01
548.84	41816.01
549.01	41956.44
549.18	41495.36
549.34	41900.27
549.51	41738.77
549.68	42029.00
549.84	41979.85
550.01	42241.99
550.18	41633.45
550.34	41462.59
550.51	41631.11
550.68	41869.84
550.84	41507.06
551.01	41748.14
551.18	41914.31
551.34	42153.05
551.51	42232.63
551.68	41972.83
551.84	42373.06
552.01	42424.55
552.18	42103.90
552.34	41996.23
552.51	42618.81
552.68	41970.49
552.84	42789.67
553.01	42682.01
553.18	42380.08
553.34	42351.99
553.51	41954.10
553.67	42445.62
553.84	42887.98
554.01	42674.99
554.17	42588.39
554.34	42997.98
554.51	42550.94
554.67	42831.80
554.84	42969.90
555.00	42972.24
555.17	42658.60
555.33	42955.85
555.50	42902.02
555.67	42864.57
555.83	43103.31
556.00	43262.46
556.16	43328.00
556.33	43112.67
556.50	43157.14
556.66	43166.50
556.83	42850.53
556.99	43351.40
557.16	43105.65
557.32	43138.41
557.49	43510.56
557.65	42972.24
557.82	42792.01
557.98	43225.01
558.15	43035.43
558.32	43435.66
558.48	43318.64
558.65	43325.66
558.81	43007.34
558.98	43400.55
559.14	43154.80
559.31	43384.17
559.47	44048.88
559.64	43423.96
559.80	43480.13
559.97	43920.15
560.13	43288.21
560.30	43463.75
560.46	43384.17
560.63	43386.51
560.79	43812.49
560.96	43777.38
561.12	43681.42
561.29	43854.62
561.45	43882.70
561.61	43875.68
561.78	43512.90
561.94	43257.78
562.11	43716.53
562.27	43393.53
562.44	43573.75
562.60	43672.06
562.77	43917.81
562.93	44032.50
563.10	43744.61
563.26	43800.79
563.42	43775.04
563.59	43798.44
563.75	43625.25
563.92	43917.81
564.08	43880.36
564.24	44100.37
564.41	44170.59
564.57	43882.70
564.74	44058.24
564.90	44196.34
565.07	44011.43
565.23	43948.24
565.39	43938.88
565.56	44065.27
565.72	44086.33
565.88	43920.15
566.05	44311.02
566.21	44114.42
566.38	43887.39
566.54	44105.06
566.70	44095.69
566.87	44362.51
567.03	44236.12
567.19	44655.08
567.36	43749.29
567.52	44081.65
567.68	44299.32
567.85	44086.33
568.01	44210.38
568.17	44037.18
568.34	44580.18
568.50	43878.02
568.66	43969.30
568.83	44505.29
568.99	43892.07
569.15	43856.96
569.32	43800.79
569.48	43854.62
569.64	44622.31
569.81	44280.60
569.97	43906.11
570.13	44381.24
570.30	44144.84
570.46	44142.50
570.62	44032.50
570.78	44437.41
570.95	44142.50
571.11	44264.21
571.27	44753.38
571.43	44542.74
571.60	44133.14
571.76	44065.27
571.92	44275.91
572.09	44289.96
572.25	44666.78
572.41	44013.77
572.57	44044.20
572.74	44772.11
572.90	44645.72
573.06	44638.70
573.22	44488.90
573.38	44622.31
573.55	43730.57
573.71	44608.27
573.87	44465.50
574.03	44004.41
574.20	44903.18
574.36	43992.71
574.52	44554.44
574.68	44493.58
574.84	44804.88
575.01	44357.83
575.17	44568.48
575.33	44446.77
575.49	44678.49
575.65	44687.85
575.82	44694.87
575.98	44458.48
576.14	44547.42
576.30	44825.94
576.46	44114.42
576.62	44341.45
576.79	44486.56
576.95	44514.65
577.11	44664.44
577.27	44664.44
577.43	44816.58
577.59	44828.28
577.75	44416.35
577.92	44435.07
578.08	44240.81
578.24	44163.57
578.40	44505.29
578.56	44580.18
578.72	44648.06
578.88	44971.05
579.04	44486.56
579.21	44369.54
579.37	44243.15
579.53	44779.13
579.69	44786.15
579.85	44830.62
580.01	44589.55
580.17	44802.53
580.33	44451.45
580.49	45076.38
580.65	44800.19
580.82	44690.19
580.98	44563.80
581.14	44144.84
581.30	44673.81
581.46	44905.52
581.62	44566.14
581.78	44568.48
581.94	44865.73
582.10	44631.68
582.26	45118.51
582.42	44348.47
582.58	44935.95
582.74	44690.19
582.90	44851.69
583.06	45057.65
583.22	44945.31
583.38	44825.94
583.54	44842.32
583.70	44554.44
583.86	44795.51
584.02	44699.55
584.18	44554.44
584.34	44598.91
584.50	44699.55
584.66	44648.06
584.82	44470.18
584.98	45050.63
585.14	45034.25
585.30	44334.43
585.46	44758.06
585.62	44549.76
585.78	44858.71
585.94	44184.63
586.10	44467.84
586.26	44575.50
586.42	45212.13
586.58	44437.41
586.74	44863.39
586.90	44421.03
587.06	44467.84
587.22	44772.11
587.38	44858.71
587.54	45455.54
587.70	45031.91
587.86	45118.51
588.02	45059.99
588.18	44804.88
588.34	44779.13
588.49	44584.86
588.65	44296.98
588.81	44399.96
588.97	44650.40
589.13	44765.09
589.29	44697.21
589.45	44584.86
589.61	44811.90
589.77	45036.59
589.93	44765.09
590.08	44526.35
590.24	45357.24
590.40	45081.06
590.56	45191.06
590.72	45074.04
590.88	44587.21
591.04	44856.37
591.20	45429.80
591.35	45111.49
591.51	45614.70
591.67	45373.63
591.83	45010.84
591.99	44729.98
592.15	44865.73
592.31	45184.04
592.46	45329.16
592.62	44685.51
592.78	45099.78
592.94	45326.81
593.10	45071.70
593.26	45001.48
593.41	45071.70
593.57	45397.03
593.73	45291.71
593.89	44512.31
594.05	45067.02
594.20	45202.77
594.36	45244.90
594.52	45167.66
594.68	44729.98
594.84	45375.97
594.99	45551.51
595.15	44856.37
595.31	45720.02
595.47	44957.01
595.62	44933.60
595.78	45001.48
595.94	45219.15
596.10	45191.06
596.25	45509.38
596.41	45605.34
596.57	45062.33
596.73	44814.24
596.88	45062.33
597.04	45008.50
597.20	45240.21
597.36	45095.10
597.51	45422.78
597.67	45375.97
597.83	45165.32
597.99	45471.93
598.14	45155.96
598.30	45778.54
598.46	45387.67
598.61	44769.77
598.77	44608.27
598.93	45326.81
599.09	45436.82
599.24	45600.66
599.40	45289.37
599.56	45371.28
599.71	45280.00
599.87	45521.08
600.03	45125.53
600.18	45085.74
600.34	45202.77
600.50	45048.29
600.65	45340.86
600.81	45375.97
600.97	45322.13
601.12	45731.73
601.28	45155.96
601.44	44839.98
601.59	45380.65
601.75	45031.91
601.91	45310.43
602.06	44830.62
602.22	45099.78
602.37	45188.72
602.53	44968.71
602.69	45301.07
602.84	44907.86
603.00	44811.90
603.16	45083.40
603.31	44905.52
603.47	44851.69
603.62	45085.74
603.78	45427.46
603.94	45160.64
604.09	45317.45
604.25	45729.39
604.40	45272.98
604.56	45160.64
604.71	45476.61
604.87	45125.53
605.03	44875.09
605.18	45069.36
605.34	45078.72
605.49	45319.79
605.65	45137.23
605.80	45104.46
605.96	45640.45
606.12	45062.33
606.27	44954.67
606.43	45090.42
606.58	45146.59
606.74	44868.07
606.89	44718.28
607.05	44748.70
607.20	44753.38
607.36	44832.96
607.51	45628.74
607.67	44851.69
607.82	45120.85
607.98	45078.72
608.13	44832.96
608.29	44758.06
608.44	44706.57
608.60	44268.89
608.75	44329.75
608.91	44786.15
609.06	44837.64
609.22	45059.99
609.37	44725.30
609.53	44488.90
609.68	44978.07
609.84	45015.52
609.99	44982.76
610.15	44765.09
610.30	44432.73
610.46	44357.83
610.61	44355.49
610.76	44186.97
610.92	44531.03
611.07	44603.59
611.23	44179.95
611.38	44589.55
611.54	44612.95
611.69	44561.46
611.84	44362.51
612.00	44638.70
612.15	44222.08
612.31	44463.16
612.46	44245.49
612.62	44788.49
612.77	44570.82
612.92	44390.60
613.08	44196.34
613.23	44268.89
613.39	44425.71
613.54	44210.38
613.69	44114.42
613.85	43873.34
614.00	44285.28
614.15	44568.48
614.31	44158.89
614.46	44479.54
614.62	44371.88
614.77	43873.34
614.92	44130.80
615.08	43789.08
615.23	44203.36
615.38	44399.96
615.54	43880.36
615.69	44261.87
615.84	43379.49
616.00	44006.75
616.15	44023.14
616.30	43896.75
616.46	43690.78
616.61	44016.11
616.76	43442.68
616.92	43931.86
617.07	43765.68
617.22	43381.83
617.37	43522.26
617.53	43903.77
617.68	43873.34
617.83	44236.12
617.99	43920.15
618.14	43658.01
618.29	43854.62
618.45	43395.87
618.60	43718.87
618.75	43129.05
618.90	43449.70
619.06	43445.02
619.21	43627.59
619.36	43861.64
619.51	43192.25
619.67	43555.03
619.82	43442.68
619.97	44126.12
620.12	43295.23
620.28	42997.98
620.43	43002.66
620.58	43311.61
620.73	43445.02
620.89	43225.01
621.04	43384.17
621.19	43133.73
621.34	43187.56
621.49	42834.14
621.65	42693.71
621.80	43220.33
621.95	43091.60
622.10	42876.27
622.25	43007.34
622.41	42670.31
622.56	42607.11
622.71	43147.78
622.86	43054.15
623.01	42934.79
623.16	42904.36
623.32	43037.77
623.47	43035.43
623.62	43166.50
623.77	42808.40
623.92	42792.01
624.07	42866.91
624.23	42548.60
624.38	42635.20
624.53	42440.93
624.68	42796.70
624.83	42679.67
624.98	42724.14
625.13	42227.95
625.29	42625.84
625.44	42335.61
625.59	42752.23
625.74	42356.67
625.89	42202.20
626.04	41607.70
626.19	42389.44
626.34	42351.99
626.49	42295.82
626.65	42520.51
626.80	42724.14
626.95	42078.15
627.10	42040.70
627.25	41666.22
627.40	42099.22
627.55	41713.03
627.70	41806.65
627.85	42087.51
628.00	41893.25
628.15	42483.06
628.30	41921.34
628.45	42485.40
628.60	42064.11
628.76	41944.74
628.91	42258.37
629.06	41918.99
629.21	41853.46
629.36	41324.50
629.51	41830.05
629.66	41596.00
629.81	41656.85
629.96	41698.98
630.11	41759.84
630.26	41663.88
630.41	41713.03
630.56	41537.49
630.71	41684.94
630.86	41331.52
631.01	41553.87
631.16	41525.78
631.31	41275.35
631.46	40870.43
631.61	41698.98
631.76	41607.70
631.91	41411.10
632.06	41752.82
632.21	41881.55
632.36	41490.68
632.51	40893.84
632.66	41464.93
632.81	41134.92
632.96	41130.23
633.10	40706.60
633.25	41081.08
633.40	40905.54
633.55	41383.01
633.70	41144.28
633.85	41013.21
634.00	41022.57
634.15	41083.42
634.30	40678.51
634.45	40676.17
634.60	40528.72
634.75	40891.50
634.90	41020.23
635.05	40964.06
635.19	40872.78
635.34	41034.27
635.49	40652.76
635.64	40540.42
635.79	40350.84
635.94	40381.26
636.09	40341.47
636.24	40722.98
636.39	40561.48
636.53	40442.12
636.68	40154.23
636.83	40390.62
636.98	40343.81
637.13	39871.03
637.28	40399.99
637.43	40643.40
637.57	40678.51
637.72	40718.30
637.87	40264.24
638.02	40100.40
638.17	40069.97
638.32	40144.87
638.46	40252.53
638.61	39768.04
638.76	39952.94
638.91	40385.94
639.06	40198.70
639.20	40116.78
639.35	40418.71
639.50	40322.75
639.65	40643.40
639.80	39737.62
639.94	39697.83
640.09	39704.85
640.24	40074.65
640.39	39594.84
640.54	39672.08
640.68	39749.32
640.83	39643.99
640.98	39763.36
641.13	39915.50
641.27	39681.44
641.42	39861.66
641.57	39777.40
641.72	39707.19
641.86	39262.49
642.01	39791.45
642.16	39283.55
642.31	39653.36
642.45	39035.45
642.60	39103.33
642.75	39257.81
642.90	39400.58
643.04	39210.99
643.19	39110.35
643.34	39023.75
643.48	39402.92
643.63	39683.78
643.78	39192.27
643.93	39157.16
644.07	39423.98
644.22	39505.90
644.37	39288.23
644.51	39438.03
644.66	39173.55
644.81	39409.94
644.95	39349.09
645.10	39271.85
645.25	39335.04
645.39	39236.74
645.54	39243.76
645.69	38731.18
645.83	38822.47
645.98	38988.64
646.13	39395.90
646.27	39344.41
646.42	38803.74
646.57	39210.99
646.71	38628.20
646.86	38958.22
647.00	38995.67
647.15	38904.38
647.30	38857.57
647.44	38616.50
647.59	38749.91
647.74	38714.80
647.88	38824.81
648.03	38440.96
648.17	38895.02
648.32	38279.46
648.47	38817.78
648.61	38132.01
648.76	38618.84
648.90	38408.19
649.05	38565.01
649.20	38586.07
649.34	38660.97
649.49	38234.99
649.63	38227.97
649.78	38459.68
649.92	38129.67
650.07	38712.46
650.21	38157.75
650.36	38352.02
650.51	38323.93
650.65	38628.20
650.80	38501.81
650.94	38256.06
651.09	38806.08
651.23	38038.39
651.38	38387.13
651.52	38391.81
651.67	38328.61
651.81	38150.73
651.96	37797.31
652.10	37975.19
652.25	37617.09
652.39	37778.59
652.54	38220.95
652.68	38082.86
652.83	37982.21
652.97	37886.25
653.12	37666.24
653.26	38022.00
653.41	38124.99
653.55	38080.52
653.70	37378.36
653.84	37481.34
653.99	37675.60
654.13	37703.69
654.27	37453.25
654.42	37151.32
654.56	37713.05
654.71	37729.44
654.85	37462.61
655.00	37612.41
655.14	37116.22
655.29	37322.18
655.43	36966.42
655.57	37057.70
655.72	37670.92
655.86	37141.96
656.01	36992.17
656.15	36833.01
656.30	37046.00
656.44	36807.26
656.58	37029.62
656.73	36931.31
656.87	36912.59
657.01	36517.04
657.16	36891.52
657.30	37179.41
657.45	36964.08
657.59	36840.03
657.73	36652.79
657.88	37137.28
658.02	36804.92
658.16	37247.29
658.31	36779.18
658.45	36795.56
658.60	36568.53
658.74	36840.03
658.88	36797.90
659.03	36421.08
659.17	36367.24
659.31	36617.68
659.46	36510.02
659.60	36294.69
659.74	36203.41
659.89	36339.16
660.03	35981.06
660.17	36425.76
660.32	36212.77
660.46	36297.03
660.60	36428.10
660.74	36240.86
660.89	36203.41
661.03	35618.27
661.17	35962.33
661.32	35524.65
661.46	35747.00
661.60	35758.70
661.74	35978.72
661.89	36109.78
662.03	35452.09
662.17	35784.45
662.31	35442.73
662.46	35667.42
662.60	35587.85
662.74	35028.46
662.88	35517.63
663.03	35833.60
663.17	35503.59
663.31	35487.20
663.45	35391.24
663.60	35208.68
663.74	35157.19
663.88	35166.55
664.02	35065.91
664.17	35152.51
664.31	34600.14
664.45	34653.97
664.59	34789.72
664.73	35023.78
664.88	34801.43
665.02	34190.55
665.16	34361.40
665.30	34803.77
665.44	34485.45
665.59	34103.95
665.73	34356.72
665.87	33928.41
666.01	34527.58
666.15	34171.82
666.29	33933.09
666.44	34431.62
666.58	34101.61
666.72	34094.58
666.86	34291.19
667.00	34431.62
667.14	34239.70
667.28	33858.19
667.43	33729.46
667.57	33642.86
667.71	33764.57
667.85	33493.07
667.99	33631.16
668.13	33844.15
668.27	33266.03
668.41	33811.38
668.56	33200.50
668.70	33427.53
668.84	33542.22
668.98	33338.59
669.12	32701.96
669.26	33034.32
669.40	33340.93
669.54	33127.94
669.68	33270.72
669.82	32919.63
669.96	32645.79
670.10	32758.14
670.25	33184.12
670.39	32978.15
670.53	32737.07
670.67	32568.55
670.81	32453.87
670.95	32346.20
671.09	32879.85
671.23	32730.05
671.37	32673.88
671.51	32009.17
671.65	32055.98
671.79	32184.71
671.93	32121.51
672.07	32245.56
672.21	32072.36
672.35	32180.03
672.49	31924.91
672.63	32210.45
672.77	32027.89
672.91	31857.03
673.05	31960.02
673.19	31566.81
673.33	31225.09
673.47	31482.55
673.61	30979.33
673.75	31115.08
673.89	31206.36
674.03	31182.96
674.17	30806.13
674.31	31262.54
674.45	30881.03
674.59	31639.36
674.73	31208.70
674.87	30731.23
675.01	31150.19
675.15	30813.15
675.29	30824.86
675.43	30593.14
675.56	30726.55
675.70	30213.98
675.84	30239.72
675.98	29453.30
676.12	30258.45
676.26	29898.00
676.40	29750.55
676.54	29813.74
676.68	30050.14
676.82	29228.61
676.96	29589.05
677.10	29326.91
677.23	29343.30
677.37	29596.07
677.51	29109.24
677.65	29261.38
677.79	28655.18
677.93	28938.38
678.07	29074.13
678.21	28863.49
678.34	28624.75
678.48	28725.39
678.62	28318.14
678.76	28503.04
678.90	28652.84
679.04	28238.56
679.18	28533.47
679.31	27946.00
679.45	28376.66
679.59	27665.13
679.73	27934.29
679.87	27850.03
680.00	27922.59
680.14	27740.03
680.28	27405.33
680.42	27606.62
680.56	27470.87
680.70	27035.53
680.83	27424.06
680.97	27215.75
681.11	26799.13
681.25	26513.59
681.39	26735.94
681.52	26625.93
681.66	26916.16
681.80	27117.45
681.94	26749.98
682.07	26450.39
682.21	26342.73
682.35	26202.30
682.49	26316.98
682.62	26377.84
682.76	26136.76
682.90	26087.61
683.04	26134.42
683.17	26033.78
683.31	25961.22
683.45	25806.75
683.59	25802.07
683.72	25076.50
683.86	25291.83
684.00	25071.82
684.13	25509.50
684.27	25177.14
684.41	25312.89
684.55	25259.06
684.68	24940.75
684.82	24690.31
684.96	24807.34
685.09	24713.72
685.23	24526.47
685.37	24423.49
685.50	24587.33
685.64	24533.50
685.78	24414.13
685.91	24229.23
686.05	24006.87
686.19	23859.42
686.32	23889.85
686.46	23559.83
686.60	23295.35
686.73	23534.09
686.87	23454.51
687.01	23597.28
687.14	23075.34
687.28	22998.10
687.42	23152.58
687.55	22991.08
687.69	22911.50
687.82	22995.76
687.96	22794.48
688.10	22522.98
688.23	22817.88
688.37	22623.62
688.50	22387.22
688.64	22331.05
688.78	22417.65
688.91	22256.15
689.05	22052.53
689.18	22132.11
689.32	22057.21
689.46	21907.41
689.59	21975.29
689.73	22104.02
689.86	21680.38
690.00	21462.71
690.13	22019.76
690.27	21408.88
690.41	21436.97
690.54	20966.52
690.68	21249.72
690.81	21193.55
690.95	21179.51
691.08	20695.02
691.22	20772.25
691.35	21069.50
691.49	21036.74
691.62	20589.69
691.76	20793.32
691.89	20547.56
692.03	20606.08
692.16	20397.77
692.30	20830.77
692.43	20467.98
692.57	20149.67
692.70	20397.77
692.84	20320.53
692.97	19985.83
693.11	19992.86
693.24	19686.25
693.38	19585.60
693.51	19461.55
693.65	19515.39
693.78	19421.77
693.92	19150.26
694.05	19220.48
694.19	19311.76
694.32	19241.54
694.45	19108.13
694.59	19058.98
694.72	18913.87
694.86	19070.68
694.99	18792.16
695.13	18621.30
695.26	18235.11
695.39	18125.11
695.53	18478.53
695.66	18485.55
695.80	18352.14
695.93	18246.82
696.07	17823.18
696.20	18380.23
696.33	18195.32
696.47	17664.02
696.60	18029.15
696.73	17832.54
696.87	17994.04
697.00	17668.70
697.14	17577.42
697.27	17715.51
697.40	17626.57
697.54	17387.84
697.67	17200.60
697.80	17413.59
697.94	17088.25
698.07	17008.67
698.21	16943.14
698.34	17352.73
698.47	16821.43
698.61	16489.07
698.74	16692.70
698.87	16585.04
699.01	16425.88
699.14	16369.71
699.27	16269.06
699.40	16271.40
699.54	16248.00
699.67	16044.37
699.80	16147.36
699.94	16009.26
700.07	16250.34
700.20	16079.48
700.34	15723.72
700.47	15789.25
700.60	16348.64
700.73	16074.80
700.87	15805.64
701.00	15342.21
701.13	15384.34
701.26	15515.41
701.40	15377.32
701.53	15302.42
701.66	15274.34
701.79	15173.69
701.93	15037.94
702.06	14759.42
702.19	14640.05
702.32	14904.53
702.46	14651.75
702.59	14579.20
702.72	14944.32
702.85	14693.88
702.99	14803.89
703.12	14941.98
703.25	14628.35
703.38	14338.12
703.51	14501.96
703.65	14185.99
703.78	14157.90
703.91	14090.02
704.04	13862.99
704.17	13954.27
704.31	13881.72
704.44	13650.00
704.57	13497.87
704.70	13619.58
704.83	13488.51
704.96	13745.97
705.10	13738.94
705.23	13820.86
>>>>>End Processed Spectral Data<<<<<
