SpectraSuite Data File
++++++++++++++++++++++++++++++++++++
Date: Fri Oct 25 11:34:07 EDT 2013
User: price-jones
Dark Spectrum Present: No
Reference Spectrum Present: No
Number of Sampled Component Spectra: 1
Spectrometers: USB2+H05261
Integration Time (usec): 100000 (USB2+H05261)
Spectra Averaged: 1 (USB2+H05261)
Boxcar Smoothing: 0 (USB2+H05261)
Correct for Electrical Dark: No (USB2+H05261)
Strobe/Lamp Enabled: No (USB2+H05261)
Correct for Detector Non-linearity: No (USB2+H05261)
Correct for Stray Light: No (USB2+H05261)
Number of Pixels in Processed Spectrum: 2048
>>>>>Begin Processed Spectral Data<<<<<
365.73	330.02
365.92	330.02
366.12	330.02
366.32	215.33
366.52	229.37
366.72	238.73
366.91	180.22
367.11	201.29
367.31	128.73
367.51	210.65
367.70	156.82
367.90	177.88
368.10	91.28
368.30	168.52
368.49	187.24
368.69	259.80
368.89	95.96
369.09	173.20
369.28	252.78
369.48	231.71
369.68	205.97
369.87	255.12
370.07	224.69
370.27	276.18
370.47	367.46
370.66	472.79
370.86	477.47
371.06	512.58
371.25	468.11
371.45	521.94
371.65	552.37
371.84	543.00
372.04	580.45
372.24	589.82
372.44	573.43
372.63	519.60
372.83	580.45
373.03	664.71
373.22	571.09
373.42	636.63
373.62	585.13
373.81	585.13
374.01	662.37
374.21	601.52
374.40	599.18
374.60	660.03
374.79	587.47
374.99	629.60
375.19	643.65
375.38	608.54
375.58	657.69
375.78	685.78
375.97	683.44
376.17	645.99
376.37	716.20
376.56	720.88
376.76	699.82
376.95	601.52
377.15	704.50
377.35	730.25
377.54	704.50
377.74	634.29
377.93	709.18
378.13	734.93
378.33	690.46
378.52	638.97
378.72	723.23
378.91	732.59
379.11	709.18
379.31	702.16
379.50	695.14
379.70	765.36
379.89	734.93
380.09	746.63
380.28	716.20
380.48	699.82
380.68	739.61
380.87	671.73
381.07	755.99
381.26	777.06
381.46	690.46
381.65	866.00
381.85	720.88
382.04	753.65
382.24	732.59
382.43	716.20
382.63	861.32
382.83	702.16
383.02	828.55
383.22	784.08
383.41	774.72
383.61	763.01
383.80	840.25
384.00	877.70
384.19	730.25
384.39	795.78
384.58	819.19
384.78	802.80
384.97	858.98
385.17	784.08
385.36	791.10
385.56	847.27
385.75	727.91
385.95	835.57
386.14	901.11
386.34	800.46
386.53	901.11
386.72	875.36
386.92	809.83
387.11	793.44
387.31	915.15
387.50	835.57
387.70	901.11
387.89	833.23
388.09	877.70
388.28	968.98
388.48	798.12
388.67	908.13
388.86	905.79
389.06	985.37
389.25	940.90
389.45	875.36
389.64	908.13
389.84	894.08
390.03	1018.13
390.22	945.58
390.42	950.26
390.61	1008.77
390.81	992.39
391.00	933.87
391.19	957.28
391.39	954.94
391.58	1043.88
391.78	990.05
391.97	915.15
392.16	1093.03
392.36	1008.77
392.55	1006.43
392.75	1036.86
392.94	1102.39
393.13	1095.37
393.33	1013.45
393.52	1174.95
393.71	1067.28
393.91	1050.90
394.10	1048.56
394.29	1128.14
394.49	1088.35
394.68	1086.01
394.88	1086.01
395.07	1198.35
395.26	1123.46
395.46	1053.24
395.65	1191.33
395.84	1149.20
396.04	1158.57
396.23	1179.63
396.42	1107.07
396.62	1193.67
396.81	1184.31
397.00	1177.29
397.19	1174.95
397.39	1217.08
397.58	1226.44
397.77	1174.95
397.97	1336.45
398.16	1198.35
398.35	1266.23
398.55	1231.12
398.74	1310.70
398.93	1369.21
399.12	1350.49
399.32	1259.21
399.51	1268.57
399.70	1394.96
399.90	1362.19
400.09	1404.32
400.28	1439.43
400.47	1427.73
400.67	1364.53
400.86	1439.43
401.05	1582.20
401.24	1343.47
401.44	1394.96
401.63	1401.98
401.82	1495.60
402.01	1514.33
402.21	1472.20
402.40	1535.39
402.59	1453.47
402.78	1521.35
402.97	1486.24
403.17	1472.20
403.36	1472.20
403.55	1575.18
403.74	1551.78
403.93	1565.82
404.13	1504.96
404.32	1689.87
404.51	1607.95
404.70	1605.61
404.89	1607.95
405.09	1519.01
405.28	1746.04
405.47	1582.20
405.66	1724.97
405.85	1661.78
406.05	1610.29
406.24	1668.80
406.43	1643.06
406.62	1701.57
406.81	1757.74
407.00	1734.34
407.20	1685.19
407.39	1746.04
407.58	1792.85
407.77	1830.30
407.96	1863.07
408.15	1839.66
408.34	1771.79
408.54	1919.24
408.73	1872.43
408.92	1935.62
409.11	1849.02
409.30	2001.16
409.49	1954.35
409.68	1968.39
409.87	2031.58
410.07	2001.16
410.26	1989.46
410.45	2071.37
410.64	2078.40
410.83	2038.61
411.02	1926.26
411.21	2083.08
411.40	2045.63
411.59	2197.76
411.78	2087.76
411.98	2132.23
412.17	2216.49
412.36	2249.25
412.55	2291.38
412.74	2319.47
412.93	2291.38
413.12	2228.19
413.31	2422.45
413.50	2354.58
413.69	2394.37
413.88	2434.16
414.07	2408.41
414.26	2434.16
414.45	2340.54
414.64	2415.43
414.83	2525.44
415.02	2544.16
415.22	2581.61
415.41	2537.14
415.60	2644.81
415.79	2647.15
415.98	2640.12
416.17	2722.04
416.36	2654.17
416.55	2738.43
416.74	2731.41
416.93	2785.24
417.12	2677.57
417.31	2810.98
417.50	2895.24
417.69	2890.56
417.88	2939.71
418.07	2871.84
418.26	2862.48
418.45	2981.84
418.64	3061.42
418.83	3075.46
419.02	2995.89
419.21	3187.81
419.39	3075.46
419.58	2991.20
419.77	2899.92
419.96	3073.12
420.15	3082.49
420.34	3129.30
420.53	3262.71
420.72	3171.43
420.91	3155.04
421.10	3225.26
421.29	3141.00
421.48	3087.17
421.67	3169.09
421.86	3232.28
422.05	3119.93
422.24	3124.62
422.43	3311.86
422.61	3358.67
422.80	3309.52
422.99	3379.73
423.18	3342.28
423.37	3405.48
423.56	3307.18
423.75	3372.71
423.94	3197.17
424.13	3129.30
424.32	3176.11
424.50	3403.14
424.69	3363.35
424.88	3403.14
425.07	3304.84
425.26	3236.96
425.45	3361.01
425.64	3208.87
425.83	3325.90
426.01	3410.16
426.20	3386.76
426.39	3442.93
426.58	3314.20
426.77	3417.18
426.96	3480.38
427.15	3410.16
427.33	3585.70
427.52	3431.23
427.71	3536.55
427.90	3522.51
428.09	3623.15
428.28	3534.21
428.46	3548.25
428.65	3627.83
428.84	3822.09
429.03	3742.52
429.22	3585.70
429.40	3552.93
429.59	3730.81
429.78	3513.14
429.97	3646.55
430.16	3730.81
430.34	3824.44
430.53	3824.44
430.72	3714.43
430.91	3674.64
431.10	3911.04
431.28	3882.95
431.47	3852.52
431.66	3854.86
431.85	3639.53
432.03	3948.48
432.22	4025.72
432.41	3974.23
432.60	4065.51
432.79	4086.58
432.97	3990.61
433.16	3946.14
433.35	3922.74
433.54	4166.15
433.72	4257.43
433.91	4140.41
434.10	4124.02
434.28	4159.13
434.47	4135.73
434.66	4238.71
434.85	4203.60
435.03	4227.01
435.22	4079.55
435.41	4369.78
435.59	4229.35
435.78	4367.44
435.97	4414.25
436.16	4264.46
436.34	4435.32
436.53	4393.19
436.72	4325.31
436.90	4376.80
437.09	4430.63
437.28	4177.86
437.46	4437.66
437.65	4538.30
437.84	4489.15
438.02	4531.28
438.21	4535.96
438.40	4435.32
438.58	4552.34
438.77	4662.35
438.96	4690.43
439.14	4713.84
439.33	4865.97
439.52	4828.53
439.70	4865.97
439.89	4744.27
440.08	4905.76
440.26	4777.03
440.45	4842.57
440.63	4940.87
440.82	5139.82
441.01	4959.60
441.19	5008.75
441.38	5020.45
441.57	5188.97
441.75	5071.94
441.94	5270.89
442.12	5275.57
442.31	5355.15
442.50	5191.31
442.68	5228.76
442.87	5305.99
443.05	5373.87
443.24	5397.28
443.43	5191.31
443.61	5523.66
443.80	5657.07
443.98	5352.81
444.17	5212.37
444.35	5418.34
444.54	5472.17
444.73	5427.70
444.91	5430.04
445.10	5650.05
445.28	5544.73
445.47	5596.22
445.65	5579.84
445.84	5577.50
446.02	5479.19
446.21	5710.91
446.39	5509.62
446.58	5612.60
446.77	5668.78
446.95	5542.39
447.14	5589.20
447.32	5605.58
447.51	5577.50
447.69	5610.26
447.88	5727.29
448.06	5490.90
448.25	5668.78
448.43	5654.73
448.62	5603.24
448.80	5575.16
448.99	5877.09
449.17	5582.18
449.36	5631.33
449.54	5809.21
449.73	5930.92
449.91	5996.45
450.10	5898.15
450.28	5888.79
450.46	6008.16
450.65	6087.73
450.83	5933.26
451.02	5909.85
451.20	6183.70
451.39	5973.05
451.57	5818.57
451.76	6099.44
451.94	6214.12
452.13	6202.42
452.31	6183.70
452.49	6211.78
452.68	6136.88
452.86	6326.47
453.05	6197.74
453.23	6176.67
453.42	6157.95
453.60	6129.86
453.78	6183.70
453.97	6204.76
454.15	6256.25
454.34	6120.50
454.52	6377.96
454.70	6342.85
454.89	6333.49
455.07	6586.27
455.26	6445.84
455.44	6544.14
455.62	6623.72
455.81	6427.11
455.99	6499.67
456.17	6642.44
456.36	6628.40
456.54	6668.19
456.73	6801.60
456.91	6979.48
457.09	6815.64
457.28	6951.39
457.46	6712.66
457.64	6906.92
457.83	6899.90
458.01	6796.92
458.19	6932.67
458.38	6864.79
458.56	7119.91
458.74	6953.73
458.93	7117.57
459.11	7272.04
459.29	7150.34
459.48	7094.16
459.66	7140.97
459.84	7148.00
460.03	7316.51
460.21	7351.62
460.39	7218.21
460.57	7286.09
460.76	7328.22
460.94	7288.43
461.12	7241.62
461.31	7365.67
461.49	7435.88
461.67	7403.11
461.85	7449.93
462.04	7375.03
462.22	8006.97
462.40	7639.51
462.59	7562.27
462.77	7604.40
462.95	7463.97
463.13	7590.36
463.32	7723.77
463.50	7719.09
463.68	7716.75
463.86	7793.98
464.05	7571.63
464.23	7740.15
464.41	7815.05
464.59	7693.34
464.78	7789.30
464.96	7969.52
465.14	7927.39
465.32	7885.26
465.50	7929.74
465.69	7936.76
465.87	7885.26
466.05	8025.70
466.23	7908.67
466.41	8084.21
466.60	8161.45
466.78	7960.16
466.96	7847.82
467.14	8081.87
467.32	8006.97
467.51	8201.24
467.69	8018.68
467.87	8107.62
468.05	8348.69
468.23	8081.87
468.41	8021.02
468.60	8257.41
468.78	8332.31
468.96	8255.07
469.14	8446.99
469.32	8540.61
469.50	8226.98
469.69	8587.43
469.87	8503.17
470.05	8355.71
470.23	8500.83
470.41	8528.91
470.59	8657.64
470.77	8622.53
470.95	8500.83
471.14	8798.07
471.32	8585.08
471.50	8641.26
471.68	8751.26
471.86	8980.64
472.04	8828.50
472.22	8999.36
472.40	8877.65
472.58	8945.53
472.77	9057.87
472.95	9212.35
473.13	9242.78
473.31	9088.30
473.49	9025.11
473.67	9179.58
473.85	9305.97
474.03	9448.74
474.21	9469.81
474.39	9647.69
474.57	9483.85
474.75	9757.69
474.93	9689.82
475.12	9720.24
475.30	9809.19
475.48	9848.97
475.66	9846.63
475.84	9806.84
476.02	10029.20
476.20	10083.03
476.38	9926.21
476.56	10384.96
476.74	10483.26
476.92	10298.36
477.10	9947.28
477.28	10614.33
477.46	10693.91
477.64	10466.88
477.82	10630.71
478.00	11138.61
478.18	10855.40
478.36	10789.87
478.54	11019.24
478.72	11052.01
478.90	11033.29
479.08	11108.18
479.26	11265.00
479.44	11300.11
479.62	11424.15
479.80	11391.39
479.98	11838.43
480.16	11969.50
480.34	11716.72
480.52	12004.61
480.70	11915.67
480.88	11927.37
481.06	11941.41
481.24	12243.34
481.41	12519.53
481.59	12329.94
481.77	12336.96
481.95	12531.23
482.13	12758.26
482.31	12776.98
482.49	12758.26
482.67	13139.77
482.85	13481.49
483.03	13128.06
483.21	13392.55
483.39	13631.28
483.57	13116.36
483.74	13444.04
483.92	13762.35
484.10	13614.90
484.28	13771.71
484.46	14176.62
484.64	14253.86
484.82	13963.64
485.00	14193.01
485.18	14569.83
485.35	14642.39
485.53	14410.68
485.71	14860.06
485.89	14867.08
486.07	15019.22
486.25	15066.03
486.43	15166.67
486.61	15243.91
486.78	15417.11
486.96	15480.30
487.14	15660.52
487.32	15777.55
487.50	15929.69
487.68	16002.24
487.85	16280.77
488.03	16283.11
488.21	16643.55
488.39	16725.47
488.57	16683.34
488.75	16828.45
488.92	17135.06
489.10	17170.17
489.28	17137.40
489.46	17451.03
489.64	17429.97
489.81	17537.63
489.99	17645.30
490.17	17738.92
490.35	17834.88
490.53	18178.94
490.70	18043.19
490.88	18253.84
491.06	18754.71
491.24	18703.22
491.41	18511.30
491.59	18963.02
491.77	18829.61
491.95	18771.10
492.13	19236.86
492.30	19023.87
492.48	19154.94
492.66	19503.68
492.84	19344.53
493.01	20070.09
493.19	19697.95
493.37	19686.25
493.54	19836.04
493.72	20273.72
493.90	20074.77
494.08	20573.31
494.25	20388.41
494.43	20428.20
494.61	20800.34
494.79	20856.51
494.96	20699.70
495.14	20870.56
495.32	21275.47
495.49	20936.09
495.67	21053.12
495.85	21706.13
496.02	21792.73
496.20	22085.30
496.38	21839.54
496.55	22033.80
496.73	22487.87
496.91	22314.67
497.09	22230.41
497.26	22394.25
497.44	22197.64
497.62	22122.74
497.79	22548.72
497.97	22803.84
498.14	22719.58
498.32	23211.09
498.50	23154.92
498.67	23309.40
498.85	23269.61
499.03	23641.75
499.20	23412.38
499.38	23559.83
499.56	23658.14
499.73	23831.33
499.91	24037.30
500.08	24261.99
500.26	23899.21
500.44	24201.14
500.61	24168.37
500.79	24259.65
500.97	24608.39
501.14	24627.12
501.32	24828.40
501.49	24573.28
501.67	24823.72
501.84	25404.17
502.02	24746.48
502.20	25006.28
502.37	25362.04
502.55	25315.23
502.72	25294.17
502.90	25055.43
503.07	25242.68
503.25	25549.29
503.43	25252.04
503.60	25909.73
503.78	25565.67
503.95	25628.87
504.13	26167.19
504.30	25972.92
504.48	26347.41
504.65	26209.32
504.83	26377.84
505.01	26548.70
505.18	26618.91
505.36	26647.00
505.53	26567.42
505.71	26808.50
505.88	27143.19
506.06	26796.79
506.23	27131.49
506.41	27054.25
506.58	26969.99
506.76	27351.50
506.93	27082.34
507.11	27590.24
507.28	27358.52
507.46	27620.66
507.63	27620.66
507.81	27812.59
507.98	28030.26
508.16	28013.87
508.33	28027.92
508.50	27786.84
508.68	28163.67
508.85	28140.26
509.03	28432.83
509.20	28491.34
509.38	28826.04
509.55	28711.35
509.73	28430.49
509.90	28451.55
510.08	28776.89
510.25	28627.09
510.42	28788.59
510.60	29139.67
510.77	28973.49
510.95	29773.95
511.12	29118.60
511.30	29284.78
511.47	29528.20
511.64	29448.62
511.82	29572.67
511.99	29385.43
512.17	30108.65
512.34	29582.03
512.51	29879.28
512.69	30307.60
512.86	29795.02
513.04	30274.83
513.21	29984.60
513.38	30272.49
513.56	30380.15
513.73	30221.00
513.90	30499.52
514.08	30740.60
514.25	30962.95
514.43	30331.00
514.60	30827.20
514.77	30906.77
514.95	30974.65
515.12	30714.85
515.29	31388.92
515.47	31342.11
515.64	31372.54
515.81	31328.07
515.99	31452.12
516.16	31952.99
516.33	31653.40
516.51	31585.53
516.68	31622.98
516.85	31737.66
517.03	31601.91
517.20	32018.53
517.37	31857.03
517.54	31653.40
517.72	32201.09
517.89	31901.50
518.06	32308.76
518.24	32039.59
518.41	31826.60
518.58	32437.48
518.75	32210.45
518.93	32844.74
519.10	32580.26
519.27	32467.91
519.45	32966.45
519.62	32945.38
519.79	33069.43
519.96	32863.46
520.14	33053.05
520.31	33198.16
520.48	33364.34
520.65	32996.87
520.83	33563.28
521.00	33497.75
521.17	33221.56
521.34	33635.84
521.52	33837.12
521.69	33752.87
521.86	33689.67
522.03	33862.87
522.20	34274.80
522.38	34087.56
522.55	34249.06
522.72	33795.00
522.89	34178.84
523.07	34878.66
523.24	34188.21
523.41	34562.69
523.58	34675.04
523.75	34590.78
523.92	34377.79
524.10	34693.76
524.27	34876.32
524.44	35009.73
524.61	34726.53
524.78	35093.99
524.96	35192.30
525.13	35271.87
525.30	35524.65
525.47	34960.58
525.64	35463.80
525.81	35372.52
525.98	35732.96
526.16	35566.78
526.33	35576.14
526.50	35969.35
526.67	35517.63
526.84	35751.68
527.01	35639.34
527.18	35723.60
527.36	35775.09
527.53	36133.19
527.70	36416.40
527.87	36165.96
528.04	36154.26
528.21	36341.50
528.38	36023.19
528.55	36231.49
528.72	36477.25
528.89	36613.00
529.07	36388.31
529.24	36589.59
529.41	36748.75
529.58	36538.10
529.75	36439.80
529.92	36425.76
530.09	36833.01
530.26	37034.30
530.43	36800.24
530.60	36458.52
530.77	36823.65
530.94	37181.75
531.11	36739.39
531.28	37195.79
531.46	37516.45
531.63	37207.50
531.80	36999.19
531.97	37376.01
532.14	37668.58
532.31	37408.78
532.48	37701.35
532.65	37694.33
532.82	37361.97
532.99	37663.90
533.16	37516.45
533.33	38010.30
533.50	37970.51
533.67	37563.26
533.84	37521.13
534.01	37982.21
534.18	37926.04
534.35	38377.76
534.52	38092.22
534.69	38061.79
534.86	38710.12
535.03	38394.15
535.20	38314.57
535.37	38717.14
535.54	38824.81
535.71	38541.60
535.88	38761.61
536.05	38724.16
536.22	38597.77
536.38	38806.08
536.55	38770.97
536.72	38941.83
536.89	39035.45
537.06	38782.68
537.23	39051.84
537.40	38885.66
537.57	38852.89
537.74	38780.34
537.91	39051.84
538.08	39082.27
538.25	39086.95
538.42	39218.02
538.59	39861.66
538.75	39061.20
538.92	39814.85
539.09	40189.34
539.26	39480.16
539.43	39248.44
539.60	39746.98
539.77	39618.25
539.94	39913.16
540.11	39945.92
540.28	40137.85
540.44	39803.15
540.61	39910.82
540.78	39580.80
540.95	40154.23
541.12	40088.70
541.29	39426.32
541.46	40479.57
541.62	39920.18
541.79	40350.84
541.96	40231.47
542.13	39945.92
542.30	40275.94
542.47	40554.46
542.63	40266.58
542.80	40542.76
542.97	40631.70
543.14	41130.23
543.31	41116.19
543.48	40957.03
543.64	40865.75
543.81	41205.13
543.98	41053.00
544.15	40879.80
544.32	41441.53
544.48	41242.58
544.65	41322.16
544.82	41488.34
544.99	41137.26
545.16	41261.30
545.32	41549.19
545.49	41408.76
545.66	41780.90
545.83	41799.63
546.00	41593.66
546.16	41621.75
546.33	41214.49
546.50	40971.08
546.67	42174.11
546.83	41261.30
547.00	41642.81
547.17	41633.45
547.34	41799.63
547.50	41509.40
547.67	42164.75
547.84	42059.43
548.00	42073.47
548.17	42518.17
548.34	41984.53
548.51	42658.60
548.67	42251.35
548.84	42660.94
549.01	42422.21
549.18	42363.70
549.34	42607.11
549.51	42499.45
549.68	42756.91
549.84	42267.73
550.01	42356.67
550.18	42047.72
550.34	42471.36
550.51	42902.02
550.68	42883.30
550.84	42408.17
551.01	42361.36
551.18	42300.50
551.34	42246.67
551.51	42513.49
551.68	42803.72
551.84	42763.93
552.01	42740.52
552.18	43063.52
552.34	42752.23
552.51	42651.58
552.68	43100.97
552.84	43107.99
553.01	43054.15
553.18	43016.71
553.34	43569.07
553.51	43014.37
553.67	43454.39
553.84	43676.74
554.01	43398.21
554.17	43164.16
554.34	43667.37
554.51	43299.91
554.67	43650.99
554.84	43751.63
555.00	43517.58
555.17	43466.09
555.33	43688.44
555.50	43365.45
555.67	43548.01
555.83	43545.67
556.00	43992.71
556.16	44184.63
556.33	44032.50
556.50	44112.08
556.66	43365.45
556.83	43786.74
556.99	44112.08
557.16	44205.70
557.32	44416.35
557.49	44439.75
557.65	43634.61
557.82	44327.41
557.98	44521.67
558.15	44311.02
558.32	44170.59
558.48	43964.62
558.65	44107.40
558.81	44383.58
558.98	44325.07
559.14	44069.95
559.31	44212.72
559.47	44285.28
559.64	44264.21
559.80	44301.66
559.97	44828.28
560.13	44144.84
560.30	43859.30
560.46	44924.24
560.63	44751.04
560.79	44755.72
560.96	44465.50
561.12	44465.50
561.29	45027.23
561.45	44678.49
561.61	45013.18
561.78	44737.00
561.94	44961.69
562.11	44570.82
562.27	44397.62
562.44	44891.48
562.60	44582.52
562.77	44795.51
562.93	44636.36
563.10	44795.51
563.26	44722.96
563.42	45296.39
563.59	44823.60
563.75	45258.94
563.92	44856.37
564.08	44832.96
564.24	44994.46
564.41	44786.15
564.57	45270.64
564.74	45017.86
564.90	45015.52
565.07	45038.93
565.23	45008.50
565.39	44790.83
565.56	45198.09
565.72	45343.20
565.88	44989.78
566.05	45001.48
566.21	45029.57
566.38	44938.29
566.54	45256.60
566.70	45139.57
566.87	45308.09
567.03	44978.07
567.19	45577.25
567.36	45390.01
567.52	45181.70
567.68	45708.32
567.85	45490.65
568.01	45656.83
568.17	45464.91
568.34	45619.38
568.50	45394.69
568.66	45436.82
568.83	45305.75
568.99	44814.24
569.15	45652.15
569.32	45315.11
569.48	45577.25
569.64	45523.42
569.81	45371.28
569.97	45766.84
570.13	45528.10
570.30	45549.17
570.46	45296.39
570.62	45722.37
570.78	45689.60
570.95	45666.19
571.11	45614.70
571.27	45469.59
571.43	45368.94
571.60	45436.82
571.76	45621.72
571.92	45949.40
572.09	45516.40
572.25	45698.96
572.41	45235.53
572.57	45888.54
572.74	45841.73
572.90	45710.66
573.06	45687.26
573.22	45869.82
573.38	46134.30
573.55	46253.67
573.71	46293.46
573.87	45780.88
574.03	46167.07
574.20	46057.06
574.36	46038.34
574.52	46178.77
574.68	46031.32
574.84	45904.93
575.01	46141.32
575.17	45844.07
575.33	45691.94
575.49	45764.49
575.65	45933.01
575.82	45897.91
575.98	46021.95
576.14	46340.27
576.30	46342.61
576.46	46241.96
576.62	46279.41
576.79	46094.51
576.95	45724.71
577.11	45911.95
577.27	46113.23
577.43	46040.68
577.59	45682.58
577.75	46146.00
577.92	45986.85
578.08	46138.98
578.24	46239.62
578.40	46501.76
578.56	46532.19
578.72	46447.93
578.88	46408.14
579.04	46344.95
579.21	45872.16
579.37	46085.15
579.53	46394.10
579.69	45708.32
579.85	46181.11
580.01	45794.92
580.17	46230.26
580.33	46476.02
580.49	46082.81
580.65	46370.69
580.82	46134.30
580.98	46260.69
581.14	46169.41
581.30	46366.01
581.46	45958.76
581.62	46012.59
581.78	46167.07
581.94	46398.78
582.10	46499.42
582.26	46162.39
582.42	46258.35
582.58	46384.74
582.74	46382.40
582.90	46583.68
583.06	46480.70
583.22	46007.91
583.38	46181.11
583.54	46464.32
583.70	46136.64
583.86	46347.29
584.02	46183.45
584.18	46850.50
584.34	46745.18
584.50	46623.47
584.66	46445.59
584.82	46670.28
584.98	46672.62
585.14	46155.36
585.30	46347.29
585.46	46284.09
585.62	46248.99
585.78	46277.07
585.94	46164.73
586.10	46366.01
586.26	46309.84
586.42	45911.95
586.58	46330.90
586.74	46471.34
586.90	46602.41
587.06	46480.70
587.22	46707.73
587.38	46284.09
587.54	46593.04
587.70	46740.50
587.86	46485.38
588.02	46380.06
588.18	45947.06
588.34	46696.03
588.49	46541.55
588.65	46124.94
588.81	46349.63
588.97	46646.88
589.13	46375.37
589.29	46532.19
589.45	46831.78
589.61	46518.15
589.77	46586.02
589.93	46735.82
590.08	46986.25
590.24	46986.25
590.40	46972.21
590.56	47068.17
590.72	46707.73
590.88	47012.00
591.04	46586.02
591.20	46766.24
591.35	47105.62
591.51	47283.50
591.67	46810.71
591.83	46988.60
591.99	46803.69
592.15	46707.73
592.31	46958.17
592.46	46195.15
592.62	46782.63
592.78	47044.77
592.94	47276.48
593.10	47161.79
593.26	47154.77
593.41	47042.43
593.57	47047.11
593.73	47119.66
593.89	47468.40
594.05	46983.91
594.20	47012.00
594.36	47634.58
594.52	47159.45
594.68	46897.31
594.84	46841.14
594.99	47072.85
595.15	46780.29
595.31	47409.89
595.47	46979.23
595.62	47056.47
595.78	47016.68
595.94	47124.35
596.10	47145.41
596.25	47477.77
596.41	47267.12
596.57	46983.91
596.73	47374.78
596.88	47189.88
597.04	47180.52
597.20	47117.32
597.36	47459.04
597.51	47229.67
597.67	46955.83
597.83	47007.32
597.99	47330.31
598.14	47131.37
598.30	47278.82
598.46	47323.29
598.61	47370.10
598.77	47358.40
598.93	47292.86
599.09	47234.35
599.24	47744.59
599.40	46990.94
599.56	47222.65
599.71	47632.24
599.87	47826.51
600.03	47882.68
600.18	47164.14
600.34	47306.91
600.50	47189.88
600.65	47367.76
600.81	47503.51
600.97	47419.25
601.12	47660.33
601.28	47157.11
601.44	47145.41
601.59	47555.00
601.75	47257.76
601.91	47449.68
602.06	47255.42
602.22	47421.59
602.37	47730.54
602.53	47325.63
602.69	47351.38
602.84	47229.67
603.00	47360.74
603.16	47030.72
603.31	47187.54
603.47	47264.78
603.62	47405.21
603.78	47327.97
603.94	47452.02
604.09	47494.15
604.25	47098.60
604.40	47332.65
604.56	47407.55
604.71	47669.69
604.87	47250.74
605.03	47063.49
605.18	47189.88
605.34	47632.24
605.49	47227.33
605.65	47292.86
605.80	46951.15
605.96	47180.52
606.12	47327.97
606.27	47510.53
606.43	47175.84
606.58	47220.31
606.74	47271.80
606.89	47269.46
607.05	47009.66
607.20	47281.16
607.36	47049.45
607.51	46639.86
607.67	47473.09
607.82	46808.37
607.98	46815.40
608.13	47019.02
608.29	46873.91
608.44	47051.79
608.60	47049.45
608.75	46946.47
608.91	46813.05
609.06	46768.58
609.22	47339.68
609.37	46644.54
609.53	47597.13
609.68	47159.45
609.84	46986.25
609.99	46946.47
610.15	46766.24
610.30	46887.95
610.46	46894.97
610.61	47185.20
610.76	47299.89
610.92	46986.25
611.07	46766.24
611.23	46876.25
611.38	47061.15
611.54	46609.43
611.69	47019.02
611.84	47058.81
612.00	46759.22
612.15	46850.50
612.31	46843.48
612.46	46745.18
612.62	46831.78
612.77	47019.02
612.92	47222.65
613.08	47021.36
613.23	47019.02
613.39	46497.08
613.54	46553.26
613.69	46656.24
613.85	46326.22
614.00	46892.63
614.15	46642.20
614.31	46632.83
614.46	46532.19
614.62	46230.26
614.77	46546.23
614.92	46518.15
615.08	46499.42
615.23	46499.42
615.38	46866.89
615.54	46525.17
615.69	46143.66
615.84	46518.15
616.00	46719.43
616.15	46426.87
616.30	46684.33
616.46	46328.56
616.61	46600.07
616.76	46724.11
616.92	46197.49
617.07	46375.37
617.22	46328.56
617.37	46396.44
617.53	46162.39
617.68	46375.37
617.83	46316.86
617.99	46370.69
618.14	46281.75
618.29	46171.75
618.45	45911.95
618.60	46176.43
618.75	45935.35
618.90	45755.13
619.06	45881.52
619.21	45984.51
619.36	46113.23
619.51	45766.84
619.67	45759.81
619.82	46028.98
619.97	46525.17
620.12	46164.73
620.28	45635.77
620.43	45783.22
620.58	46288.77
620.73	46075.79
620.89	46153.02
621.04	45603.00
621.19	46167.07
621.34	45624.06
621.49	46073.45
621.65	45954.08
621.80	46094.51
621.95	45743.43
622.10	45991.53
622.25	46178.77
622.41	45780.88
622.56	45560.87
622.71	45595.98
622.86	46092.17
623.01	45806.62
623.16	45703.64
623.32	45652.15
623.47	45303.41
623.62	45544.48
623.77	45745.77
623.92	45404.05
624.07	45434.48
624.23	45689.60
624.38	45516.40
624.53	45333.84
624.68	44884.45
624.83	45289.37
624.98	45654.49
625.13	44629.34
625.29	44917.22
625.44	45212.13
625.59	45340.86
625.74	45347.88
625.89	44844.66
626.04	45064.67
626.19	45125.53
626.34	44973.39
626.49	45071.70
626.65	44765.09
626.80	44893.82
626.95	44629.34
627.10	44699.55
627.25	45045.95
627.40	44896.16
627.55	44666.78
627.70	44605.93
627.85	45165.32
628.00	45059.99
628.15	44542.74
628.30	44516.99
628.45	44676.15
628.60	44320.38
628.76	44671.46
628.91	44538.05
629.06	44217.40
629.21	44409.32
629.36	44617.63
629.51	44594.23
629.66	44610.61
629.81	44236.12
629.96	44582.52
630.11	44788.49
630.26	43908.45
630.41	44327.41
630.56	44631.68
630.71	44161.23
630.86	44484.22
631.01	44126.12
631.16	44292.30
631.31	44547.42
631.46	43709.50
631.61	44231.44
631.76	43803.13
631.91	44720.62
632.06	44428.05
632.21	44484.22
632.36	44259.53
632.51	43648.65
632.66	43599.50
632.81	44472.52
632.96	44161.23
633.10	43681.42
633.25	44133.14
633.40	43927.17
633.55	44594.23
633.70	43976.33
633.85	43910.79
634.00	43873.34
634.15	43856.96
634.30	43723.55
634.45	43716.53
634.60	43309.27
634.75	43957.60
634.90	43997.39
635.05	43718.87
635.19	43618.22
635.34	43929.51
635.49	43426.30
635.64	43531.62
635.79	43763.34
635.94	43379.49
636.09	43995.05
636.24	43524.60
636.39	43704.82
636.53	43838.23
636.68	43082.24
636.83	43482.47
636.98	43445.02
637.13	43058.84
637.28	42880.95
637.43	43271.82
637.57	43405.23
637.72	42953.51
637.87	43641.63
638.02	43491.83
638.17	43281.19
638.32	42990.96
638.46	43019.05
638.61	42667.97
638.76	42885.64
638.91	43159.48
639.06	42747.54
639.20	42852.87
639.35	42684.35
639.50	42459.66
639.65	43093.94
639.80	43234.38
639.94	42658.60
640.09	42691.37
640.24	42953.51
640.39	42553.28
640.54	42110.92
640.68	42799.04
640.83	42574.34
640.98	42384.76
641.13	42295.82
641.27	43260.12
641.42	42625.84
641.57	42553.28
641.72	42653.92
641.86	42485.40
642.01	42120.28
642.16	42473.70
642.31	41954.10
642.45	42466.68
642.60	42052.41
642.75	42309.86
642.90	42462.00
643.04	42515.83
643.19	42684.35
643.34	42043.04
643.48	42307.52
643.63	41975.17
643.78	42326.25
643.93	42265.39
644.07	42375.40
644.22	42253.69
644.37	42199.86
644.51	42190.50
644.66	42171.77
644.81	42139.00
644.95	41986.87
645.10	42094.53
645.25	41673.24
645.39	41659.20
645.54	42024.32
645.69	41577.28
645.83	41518.76
645.98	41631.11
646.13	41642.81
646.27	41717.71
646.42	41631.11
646.57	41518.76
646.71	41937.72
646.86	42031.34
647.00	41467.27
647.15	41443.87
647.30	42064.11
647.44	41256.62
647.59	41275.35
647.74	41656.85
647.88	41628.77
648.03	41839.42
648.17	41942.40
648.32	41776.22
648.47	42115.60
648.61	41584.30
648.76	41118.53
648.90	41333.86
649.05	41233.22
649.20	41340.88
649.34	41268.33
649.49	41338.54
649.63	41420.46
649.78	41116.19
649.92	41324.50
650.07	41605.36
650.21	41242.58
650.36	41345.56
650.51	41584.30
650.65	41743.45
650.80	41144.28
650.94	41340.88
651.09	41031.93
651.23	40627.02
651.38	40776.81
651.52	41127.89
651.67	40994.48
651.81	41214.49
651.96	41209.81
652.10	40685.53
652.25	40690.21
652.39	40554.46
652.54	40486.59
652.68	40332.11
652.83	40524.04
652.97	40807.24
653.12	40587.23
653.26	40402.33
653.41	40421.05
653.55	40332.11
653.70	40486.59
653.84	40734.68
653.99	41034.27
654.13	40744.05
654.27	40568.51
654.42	40411.69
654.56	40362.54
654.71	40430.41
654.85	40425.73
655.00	40715.96
655.14	40957.03
655.29	40627.02
655.43	40612.98
655.57	40610.64
655.72	40390.62
655.86	40109.76
656.01	40247.85
656.15	40308.71
656.30	40093.38
656.44	40245.51
656.58	40643.40
656.73	40205.72
656.87	39709.53
657.01	39854.64
657.16	40137.85
657.30	40154.23
657.45	40184.66
657.59	39372.49
657.73	39538.67
657.88	40121.46
658.02	40182.32
658.16	39702.51
658.31	40297.00
658.45	39899.11
658.60	39683.78
658.74	40100.40
658.88	39763.36
659.03	39679.10
659.17	39454.41
659.31	39463.77
659.46	39367.81
659.60	39983.37
659.74	39164.18
659.89	38817.78
660.03	39175.89
660.17	39489.52
660.32	38862.26
660.46	38864.60
660.60	39171.21
660.74	39124.40
660.89	39288.23
661.03	38483.09
661.17	38586.07
661.32	38667.99
661.46	38518.20
661.60	38513.52
661.74	38768.63
661.89	38754.59
662.03	38726.50
662.17	38396.49
662.31	38864.60
662.46	38630.54
662.60	38244.35
662.74	38288.82
662.88	38195.20
663.03	38169.46
663.17	38141.37
663.31	37869.87
663.45	37830.08
663.60	38515.86
663.74	38087.54
663.88	38089.88
664.02	37766.88
664.17	38115.62
664.31	37923.70
664.45	37535.17
664.59	37830.08
664.73	37535.17
664.88	38178.82
665.02	37219.20
665.16	37235.58
665.30	37691.99
665.44	37481.34
665.59	36973.44
665.73	36971.10
665.87	36751.09
666.01	37481.34
666.15	37099.83
666.29	37263.67
666.44	36732.37
666.58	37071.75
666.72	36830.67
666.86	36566.19
667.00	36163.62
667.14	36687.90
667.28	36383.63
667.43	36437.46
667.57	37027.28
667.71	36336.82
667.85	36921.95
667.99	36538.10
668.13	36240.86
668.27	36119.15
668.41	36481.93
668.56	35716.58
668.70	36322.77
668.84	35611.25
668.98	35784.45
669.12	35805.52
669.26	35941.27
669.40	35737.64
669.54	36112.13
669.68	35859.35
669.82	35667.42
669.96	35248.47
670.10	34939.52
670.25	35054.20
670.39	35119.74
670.53	35489.54
670.67	35599.55
670.81	35019.10
670.95	35299.96
671.09	34881.00
671.23	35030.80
671.37	35026.12
671.51	34801.43
671.65	34960.58
671.79	34536.94
671.93	34927.81
672.07	34817.81
672.21	34607.16
672.35	34621.20
672.49	34448.00
672.63	34646.95
672.77	34052.45
672.91	34117.99
673.05	33982.24
673.19	33776.27
673.33	33841.81
673.47	33205.18
673.61	33530.51
673.75	33333.91
673.89	33312.84
674.03	33345.61
674.17	33149.01
674.31	33308.16
674.45	33448.60
674.59	33268.37
674.73	33010.92
674.87	32795.59
675.01	32697.28
675.15	32308.76
675.29	32535.79
675.43	32854.10
675.56	33097.52
675.70	32500.68
675.84	32180.03
675.98	31400.63
676.12	32390.67
676.26	32343.86
676.40	31941.29
676.54	31360.84
676.68	31824.26
676.82	31311.69
676.96	32053.64
677.10	31931.93
677.23	31688.51
677.37	31590.21
677.51	31349.14
677.65	31175.94
677.79	31255.51
677.93	31674.47
678.07	31075.29
678.21	30979.33
678.34	30808.47
678.48	30913.80
678.62	30150.78
678.76	30429.30
678.90	30197.59
679.04	30593.14
679.18	30913.80
679.31	30312.28
679.45	29942.47
679.59	29802.04
679.73	29762.25
679.87	29706.08
680.00	29460.32
680.14	29308.19
680.28	29780.98
680.42	29446.28
680.56	29336.27
680.70	29331.59
680.83	29364.36
680.97	29109.24
681.11	29226.27
681.25	28580.28
681.39	28297.08
681.52	28697.31
681.66	28596.67
681.80	28510.07
681.94	27803.22
682.07	28030.26
682.21	28217.50
682.35	27828.97
682.49	27917.91
682.62	27843.01
682.76	27943.66
682.90	28034.94
683.04	27527.04
683.17	27461.51
683.31	27513.00
683.45	27206.39
683.59	26806.16
683.72	27021.48
683.86	27077.66
684.00	27281.28
684.13	26581.46
684.27	26464.44
684.41	26352.09
684.55	26628.27
684.68	26611.89
684.82	26359.11
684.96	26312.30
685.09	26235.06
685.23	26125.06
685.37	26246.77
685.50	26768.71
685.64	26331.03
685.78	25544.61
685.91	25771.64
686.05	25614.82
686.19	25301.19
686.32	25355.02
686.46	25277.79
686.60	24587.33
686.73	25001.60
686.87	24861.17
687.01	25270.76
687.14	24718.40
687.28	24968.84
687.42	24704.35
687.55	24348.59
687.69	24697.33
687.82	24402.43
687.96	24065.39
688.10	24219.86
688.23	24182.42
688.37	24261.99
688.50	24402.43
688.64	23971.77
688.78	23639.41
688.91	23616.01
689.05	23674.52
689.18	23506.00
689.32	23314.08
689.46	22932.57
689.59	23325.78
689.73	23541.11
689.86	23433.44
690.00	22785.12
690.13	22998.10
690.27	22806.18
690.41	23019.17
690.54	22665.75
690.68	22415.31
690.81	22244.45
690.95	22043.17
691.08	22272.54
691.22	22153.17
691.35	22080.61
691.49	22141.47
691.62	21865.28
691.76	21317.60
691.89	21788.05
692.03	21317.60
692.16	21242.70
692.30	21109.29
692.43	21259.09
692.57	20975.88
692.70	20849.49
692.84	21142.06
692.97	20828.43
693.11	20767.57
693.24	20631.82
693.38	20561.61
693.51	20554.58
693.65	20357.98
693.78	20276.06
693.92	20091.16
694.05	19985.83
694.19	19943.70
694.32	20025.62
694.45	19967.11
694.59	20517.14
694.72	20159.03
694.86	19770.51
694.99	19632.41
695.13	19487.30
695.26	19080.05
695.39	19199.41
695.53	19625.39
695.66	19243.88
695.80	19131.54
695.93	18911.53
696.07	18897.49
696.20	19108.13
696.33	18427.04
696.47	18541.72
696.60	18623.64
696.73	18438.74
696.87	18705.56
697.00	18354.48
697.14	18235.11
697.27	18225.75
697.40	18300.65
697.54	18033.83
697.67	17919.14
697.80	18143.83
697.94	17811.48
698.07	17930.84
698.21	17554.02
698.34	17493.16
698.47	17507.21
698.61	17001.65
698.74	17057.82
698.87	17296.56
699.01	17034.42
699.14	17076.55
699.27	17181.87
699.40	16580.36
699.54	16758.24
699.67	16638.87
699.80	16821.43
699.94	16414.18
700.07	16554.61
700.20	16411.84
700.34	16339.28
700.47	16386.09
700.60	16336.94
700.73	16411.84
700.87	15948.41
701.00	15901.60
701.13	15798.62
701.26	15779.89
701.40	15730.74
701.53	15630.10
701.66	15492.01
701.79	15573.92
701.93	15154.97
702.06	15082.41
702.19	15136.24
702.32	15330.51
702.46	15201.78
702.59	15084.75
702.72	15037.94
702.85	15161.99
702.99	15243.91
703.12	14911.55
703.25	14759.42
703.38	14640.05
703.51	14471.53
703.65	14506.64
703.78	14113.43
703.91	14174.28
704.04	14200.03
704.17	14097.05
704.31	14057.26
704.44	14038.53
704.57	14132.15
704.70	13919.17
704.83	13830.23
704.96	13825.54
705.10	13593.83
705.23	13479.15
>>>>>End Processed Spectral Data<<<<<
