SpectraSuite Data File
++++++++++++++++++++++++++++++++++++
Date: Fri Oct 25 11:33:30 EDT 2013
User: price-jones
Dark Spectrum Present: No
Reference Spectrum Present: No
Number of Sampled Component Spectra: 1
Spectrometers: USB2+H05261
Integration Time (usec): 100000 (USB2+H05261)
Spectra Averaged: 1 (USB2+H05261)
Boxcar Smoothing: 0 (USB2+H05261)
Correct for Electrical Dark: No (USB2+H05261)
Strobe/Lamp Enabled: No (USB2+H05261)
Correct for Detector Non-linearity: No (USB2+H05261)
Correct for Stray Light: No (USB2+H05261)
Number of Pixels in Processed Spectrum: 2048
>>>>>Begin Processed Spectral Data<<<<<
365.73	215.33
365.92	215.33
366.12	215.33
366.32	220.01
366.52	217.67
366.72	210.65
366.91	182.56
367.11	196.60
367.31	161.50
367.51	163.84
367.70	163.84
367.90	128.73
368.10	245.76
368.30	161.50
368.49	266.82
368.69	140.43
368.89	205.97
369.09	173.20
369.28	276.18
369.48	208.31
369.68	201.29
369.87	245.76
370.07	280.86
370.27	287.89
370.47	234.05
370.66	505.56
370.86	475.13
371.06	540.66
371.25	615.56
371.45	545.34
371.65	552.37
371.84	543.00
372.04	550.03
372.24	564.07
372.44	559.39
372.63	610.88
372.83	615.56
373.03	643.65
373.22	599.18
373.42	610.88
373.62	620.24
373.81	594.50
374.01	669.39
374.21	627.26
374.40	695.14
374.60	638.97
374.79	657.69
374.99	617.90
375.19	638.97
375.38	660.03
375.58	620.24
375.78	580.45
375.97	681.10
376.17	772.38
376.37	655.35
376.56	662.37
376.76	660.03
376.95	767.70
377.15	615.56
377.35	718.54
377.54	685.78
377.74	695.14
377.93	720.88
378.13	727.91
378.33	674.07
378.52	643.65
378.72	734.93
378.91	648.33
379.11	695.14
379.31	678.76
379.50	695.14
379.70	688.12
379.89	692.80
380.09	706.84
380.28	777.06
380.48	739.61
380.68	676.41
380.87	770.04
381.07	774.72
381.26	784.08
381.46	779.40
381.65	746.63
381.85	828.55
382.04	784.08
382.24	779.40
382.43	697.48
382.63	812.17
382.83	732.59
383.02	772.38
383.22	898.77
383.41	784.08
383.61	781.74
383.80	830.89
384.00	751.31
384.19	816.85
384.39	779.40
384.58	772.38
384.78	727.91
384.97	774.72
385.17	868.34
385.36	861.32
385.56	896.43
385.75	891.74
385.95	863.66
386.14	830.89
386.34	858.98
386.53	812.17
386.72	826.21
386.92	919.83
387.11	908.13
387.31	926.85
387.50	891.74
387.70	851.96
387.89	861.32
388.09	917.49
388.28	894.08
388.48	947.92
388.67	910.47
388.86	908.13
389.06	971.32
389.25	950.26
389.45	943.24
389.64	837.91
389.84	968.98
390.03	980.68
390.22	847.27
390.42	992.39
390.61	983.02
390.81	1006.43
391.00	968.98
391.19	1004.09
391.39	1064.94
391.58	954.94
391.78	933.87
391.97	947.92
392.16	1004.09
392.36	1104.73
392.55	1043.88
392.75	1046.22
392.94	1053.24
393.13	1086.01
393.33	1053.24
393.52	1053.24
393.71	1093.03
393.91	1172.61
394.10	1219.42
394.29	1015.79
394.49	1095.37
394.68	1137.50
394.88	1132.82
395.07	1060.26
395.26	1196.01
395.46	1156.22
395.65	1135.16
395.84	1095.37
396.04	1116.44
396.23	1149.20
396.42	1174.95
396.62	1252.19
396.81	1233.46
397.00	1177.29
397.19	1238.14
397.39	1212.40
397.58	1196.01
397.77	1252.19
397.97	1249.85
398.16	1261.55
398.35	1310.70
398.55	1366.87
398.74	1256.87
398.93	1299.00
399.12	1306.02
399.32	1294.32
399.51	1275.59
399.70	1306.02
399.90	1362.19
400.09	1390.28
400.28	1474.54
400.47	1376.24
400.67	1392.62
400.86	1366.87
401.05	1416.02
401.24	1373.89
401.44	1385.60
401.63	1481.56
401.82	1423.05
402.01	1455.81
402.21	1472.20
402.40	1467.52
402.59	1455.81
402.78	1427.73
402.97	1530.71
403.17	1460.49
403.36	1582.20
403.55	1570.50
403.74	1636.03
403.93	1542.41
404.13	1596.25
404.32	1643.06
404.51	1664.12
404.70	1715.61
404.89	1603.27
405.09	1732.00
405.28	1746.04
405.47	1626.67
405.66	1682.85
405.85	1696.89
406.05	1788.17
406.24	1783.49
406.43	1762.42
406.62	1764.76
406.81	1816.26
407.00	1856.04
407.20	1694.55
407.39	1802.21
407.58	1799.87
407.77	1893.49
407.96	1921.58
408.15	1933.28
408.34	1881.79
408.54	1919.24
408.73	1872.43
408.92	1996.48
409.11	2076.06
409.30	1987.11
409.49	1987.11
409.68	2036.27
409.87	2115.84
410.07	2045.63
410.26	2073.71
410.45	1984.77
410.64	2062.01
410.83	2059.67
411.02	2186.06
411.21	2113.50
411.40	2066.69
411.59	2225.85
411.78	2176.70
411.98	2207.13
412.17	2244.57
412.36	2291.38
412.55	2272.66
412.74	2263.30
412.93	2256.28
413.12	2352.24
413.31	2373.30
413.50	2399.05
413.69	2530.12
413.88	2553.52
414.07	2380.32
414.26	2466.92
414.45	2464.58
414.64	2635.44
414.83	2532.46
415.02	2597.99
415.22	2682.25
415.41	2745.45
415.60	2656.51
415.79	2640.12
415.98	2757.15
416.17	2759.49
416.36	2698.64
416.55	2722.04
416.74	2717.36
416.93	2796.94
417.12	2810.98
417.31	2775.88
417.50	2918.65
417.69	3094.19
417.88	2977.16
418.07	2953.76
418.26	2932.69
418.45	3009.93
418.64	3112.91
418.83	3002.91
419.02	3014.61
419.21	3098.87
419.39	3122.27
419.58	3101.21
419.77	2925.67
419.96	3239.30
420.15	3108.23
420.34	3169.09
420.53	3136.32
420.72	3110.57
420.91	3159.72
421.10	3248.66
421.29	3386.76
421.48	3227.60
421.67	3330.58
421.86	3363.35
422.05	3321.22
422.24	3251.00
422.43	3274.41
422.61	3349.31
422.80	3286.11
422.99	3485.06
423.18	3403.14
423.37	3496.76
423.56	3428.88
423.75	3382.07
423.94	3307.18
424.13	3211.22
424.32	3169.09
424.50	3414.84
424.69	3517.83
424.88	3524.85
425.07	3461.65
425.26	3300.16
425.45	3431.23
425.64	3419.52
425.83	3407.82
426.01	3471.01
426.20	3440.59
426.39	3410.16
426.58	3431.23
426.77	3506.12
426.96	3611.45
427.15	3630.17
427.33	3726.13
427.52	3543.57
427.71	3597.40
427.90	3555.27
428.09	3716.77
428.28	3669.96
428.46	3630.17
428.65	3756.56
428.84	3772.94
429.03	3866.56
429.22	3578.68
429.40	3709.75
429.59	3693.37
429.78	3590.38
429.97	3693.37
430.16	3791.67
430.34	3796.35
430.53	3873.59
430.72	3894.65
430.91	3894.65
431.10	3920.40
431.28	3829.12
431.47	3929.76
431.66	3936.78
431.85	4011.68
432.03	4007.00
432.22	4145.09
432.41	4154.45
432.60	4086.58
432.79	4131.05
432.97	4117.00
433.16	4161.47
433.35	4088.92
433.54	4135.73
433.72	4109.98
433.91	4257.43
434.10	4234.03
434.28	4114.66
434.47	4245.73
434.66	4329.99
434.85	4318.29
435.03	4348.72
435.22	4538.30
435.41	4407.23
435.59	4297.22
435.78	4360.42
435.97	4287.86
436.16	4440.00
436.34	4386.16
436.53	4568.73
436.72	4683.41
436.90	4365.10
437.09	4571.07
437.28	4517.23
437.46	4524.26
437.65	4585.11
437.84	4704.48
438.02	4554.68
438.21	4566.39
438.40	4650.64
438.58	4741.93
438.77	4805.12
438.96	4746.61
439.14	4910.44
439.33	4819.16
439.52	4985.34
439.70	4933.85
439.89	4952.57
440.08	5060.24
440.26	5085.98
440.45	4938.53
440.63	5107.05
440.82	5062.58
441.01	4994.70
441.19	5371.53
441.38	5284.93
441.57	5252.16
441.75	5315.36
441.94	5404.30
442.12	5394.93
442.31	5465.15
442.50	5380.89
442.68	5385.57
442.87	5535.37
443.05	5509.62
443.24	5643.03
443.43	5549.41
443.61	5654.73
443.80	5720.27
443.98	5446.43
444.17	5277.91
444.35	5535.37
444.54	5610.26
444.73	5731.97
444.91	5741.33
445.10	5666.44
445.28	5771.76
445.47	5565.79
445.65	5696.86
445.84	5802.19
446.02	5753.04
446.21	5659.42
446.39	5570.48
446.58	5776.44
446.77	5804.53
446.95	5713.25
447.14	5682.82
447.32	5898.15
447.51	5870.06
447.69	5619.63
447.88	5729.63
448.06	5790.49
448.25	5767.08
448.43	5703.89
448.62	5832.62
448.80	5776.44
448.99	5830.27
449.17	5949.64
449.36	5898.15
449.54	5949.64
449.73	6017.52
449.91	6104.12
450.10	5872.40
450.28	6076.03
450.46	6214.12
450.65	6092.41
450.83	6029.22
451.02	6127.52
451.20	6186.04
451.39	6221.14
451.57	6094.76
451.76	6038.58
451.94	6174.33
452.13	6396.68
452.31	6422.43
452.49	6181.35
452.68	6307.74
452.86	6382.64
453.05	6436.47
453.23	6319.45
453.42	6450.52
453.60	6403.71
453.78	6654.14
453.97	6497.33
454.15	6363.92
454.34	6225.82
454.52	6525.41
454.70	6324.13
454.89	6497.33
455.07	6717.34
455.26	6569.88
455.44	6623.72
455.62	6527.75
455.81	6656.48
455.99	6794.58
456.17	6829.68
456.36	6628.40
456.54	6691.59
456.73	6927.99
456.91	6927.99
457.09	7082.46
457.28	7082.46
457.46	6932.67
457.64	7054.37
457.83	7162.04
458.01	7105.87
458.19	7159.70
458.38	7087.14
458.56	7297.79
458.74	7234.60
458.93	7286.09
459.11	7194.81
459.29	7112.89
459.48	7314.17
459.66	7468.65
459.84	7290.77
460.03	7396.09
460.21	7489.71
460.39	7351.62
460.57	7372.69
460.76	7508.44
460.94	7569.29
461.12	7576.31
461.31	7524.82
461.49	7400.77
461.67	7489.71
461.85	7665.25
462.04	7550.57
462.22	7843.14
462.40	7676.96
462.59	7719.09
462.77	7777.60
462.95	7812.71
463.13	7721.43
463.32	7789.30
463.50	7906.33
463.68	7875.90
463.86	8091.23
464.05	7791.64
464.23	8046.76
464.41	7950.80
464.59	7920.37
464.78	8121.66
464.96	7978.89
465.14	7967.18
465.32	7946.12
465.50	8067.83
465.69	8156.77
465.87	8030.38
466.05	8245.71
466.23	8224.64
466.41	8159.11
466.60	8238.69
466.78	8201.24
466.96	8257.41
467.14	8217.62
467.32	8416.57
467.51	8351.03
467.69	8063.15
467.87	8346.35
468.05	8582.74
468.23	8409.54
468.41	8461.04
468.60	8437.63
468.78	8573.38
468.96	8465.72
469.14	8456.36
469.32	8727.86
469.50	8575.72
469.69	8608.49
469.87	8667.00
470.05	8774.67
470.23	8924.46
470.41	8994.68
470.59	8924.46
470.77	8917.44
470.95	8826.16
471.14	8835.52
471.32	8868.29
471.50	8936.17
471.68	9008.72
471.86	9090.64
472.04	9043.83
472.22	9224.05
472.40	9022.77
472.58	9303.63
472.77	9172.56
472.95	9350.44
473.13	9528.32
473.31	9174.90
473.49	9439.38
473.67	9324.69
473.85	9577.47
474.03	9710.88
474.21	9652.37
474.39	9530.66
474.57	9708.54
474.75	9858.34
474.93	10120.48
475.12	9984.73
475.30	9781.10
475.48	9860.68
475.66	10244.52
475.84	10153.24
476.02	10127.50
476.20	10186.01
476.38	10218.78
476.56	10539.43
476.74	10420.06
476.92	10567.52
477.10	10637.73
477.28	10523.05
477.46	10878.81
477.64	10604.97
477.82	10860.09
478.00	11073.07
478.18	11243.93
478.36	11246.27
478.54	11246.27
478.72	11265.00
478.90	11597.35
479.08	11599.70
479.26	11653.53
479.44	11686.29
479.62	11962.48
479.80	11866.52
479.98	12116.95
480.16	12257.39
480.34	12063.12
480.52	12100.57
480.70	12182.49
480.88	12177.81
481.06	12341.64
481.24	12472.71
481.41	12868.27
481.59	12847.20
481.77	12898.69
481.95	12891.67
482.13	12919.76
482.31	12786.35
482.49	13317.65
482.67	13322.33
482.85	13650.00
483.03	13809.16
483.21	13685.11
483.39	13947.25
483.57	13561.06
483.74	13884.06
483.92	14169.60
484.10	14031.51
484.28	14333.44
484.46	14635.37
484.64	14789.85
484.82	14228.12
485.00	14661.12
485.18	14899.85
485.35	14902.19
485.53	14965.39
485.71	15021.56
485.89	15208.80
486.07	15201.78
486.25	15566.90
486.43	15552.86
486.61	15777.55
486.78	15697.97
486.96	16208.21
487.14	15854.79
487.32	16217.57
487.50	16465.67
487.68	16306.51
487.85	16540.57
488.03	17034.42
488.21	16847.18
488.39	17055.48
488.57	17394.86
488.75	17338.69
488.92	17298.90
489.10	17612.53
489.28	17666.36
489.46	17980.00
489.64	17853.61
489.81	18300.65
489.99	18146.17
490.17	18080.64
490.35	18146.17
490.53	18473.85
490.70	18700.88
490.88	18661.09
491.06	18963.02
491.24	19129.20
491.41	19112.81
491.59	19016.85
491.77	19108.13
491.95	19400.70
492.13	19585.60
492.30	19496.66
492.48	19573.90
492.66	19829.02
492.84	19971.79
493.01	19875.83
493.19	19962.43
493.37	20608.42
493.54	20526.50
493.72	20788.64
493.90	20257.34
494.08	21341.00
494.25	21027.37
494.43	20861.19
494.61	21039.08
494.79	21116.31
494.96	21249.72
495.14	21345.69
495.32	21862.94
495.49	21411.22
495.67	22125.08
495.85	22302.96
496.02	22115.72
496.20	22293.60
496.38	22335.73
496.55	22450.42
496.73	22937.25
496.91	22848.31
497.09	22661.07
497.26	22686.81
497.44	22632.98
497.62	23096.41
497.79	23370.25
497.97	23080.02
498.14	23452.17
498.32	23634.73
498.50	23758.78
498.67	24140.29
498.85	23658.14
499.03	24060.71
499.20	24259.65
499.38	24372.00
499.56	24603.71
499.73	24636.48
499.91	24582.65
500.08	24577.97
500.26	24582.65
500.44	24926.71
500.61	25050.75
500.79	24725.42
500.97	25139.69
501.14	25605.46
501.32	25383.11
501.49	25397.15
501.67	25338.64
501.84	25577.37
502.02	25617.16
502.20	26033.78
502.37	25879.30
502.55	25490.77
502.72	25954.20
502.90	25951.86
503.07	25736.53
503.25	26450.39
503.43	26071.23
503.60	26459.76
503.78	26359.11
503.95	26230.38
504.13	26679.77
504.30	26848.29
504.48	26759.34
504.65	26705.51
504.83	27264.90
505.01	27206.39
505.18	26735.94
505.36	27281.28
505.53	26991.06
505.71	27168.94
505.88	27517.68
506.06	26848.29
506.23	27653.43
506.41	27414.69
506.58	27627.68
506.76	27601.94
506.93	28060.68
507.11	27817.27
507.28	28027.92
507.46	28144.94
507.63	28460.91
507.81	28156.64
507.98	27917.91
508.16	28479.64
508.33	28507.72
508.50	28652.84
508.68	28680.92
508.85	28931.36
509.03	28669.22
509.20	29488.41
509.38	29385.43
509.55	29589.05
509.73	29479.05
509.90	29570.33
510.08	29350.32
510.25	29214.57
510.42	29687.36
510.60	29745.87
510.77	29743.53
510.95	29919.07
511.12	30424.62
511.30	29860.55
511.47	30160.14
511.64	30293.55
511.82	30721.87
511.99	30422.28
512.17	30532.29
512.34	30431.65
512.51	30621.23
512.69	30651.66
512.86	31236.79
513.04	30934.86
513.21	31054.23
513.38	31075.29
513.56	30918.48
513.73	31021.46
513.90	31360.84
514.08	31154.87
514.25	31651.06
514.43	31630.00
514.60	31604.25
514.77	31695.53
514.95	32133.21
515.12	31447.44
515.29	31772.77
515.47	31665.11
515.64	32278.33
515.81	31878.10
515.99	32278.33
516.16	32622.39
516.33	32336.84
516.51	32364.93
516.68	32393.01
516.85	32613.02
517.03	32865.80
517.20	32341.52
517.37	32542.81
517.54	32652.81
517.72	32650.47
517.89	32854.10
518.06	33186.46
518.24	33085.81
518.41	33242.63
518.58	33273.06
518.75	33036.66
518.93	33282.42
519.10	33600.73
519.27	33446.26
519.45	33804.36
519.62	33766.91
519.79	33783.29
519.96	33855.85
520.14	33979.90
520.31	33696.69
520.48	34150.76
520.65	34218.63
520.83	34588.44
521.00	34300.55
521.17	34333.32
521.34	33879.25
521.52	34333.32
521.69	34412.90
521.86	34656.31
522.03	34813.13
522.20	35070.59
522.38	34752.27
522.55	35136.12
522.72	34906.75
522.89	34759.30
523.07	35550.40
523.24	35510.61
523.41	35402.94
523.58	35374.86
523.75	35234.42
523.92	35400.60
524.10	35220.38
524.27	36009.14
524.44	35725.94
524.61	35559.76
524.78	35646.36
524.96	36144.89
525.13	36088.72
525.30	36088.72
525.47	36306.39
525.64	36088.72
525.81	36376.61
525.98	36215.11
526.16	36418.74
526.33	36556.83
526.50	36718.32
526.67	36329.80
526.84	36439.80
527.01	36369.58
527.18	36563.85
527.36	36840.03
527.53	36910.25
527.70	37366.65
527.87	37500.06
528.04	36912.59
528.21	37277.71
528.38	36931.31
528.55	37043.66
528.72	37261.33
528.89	37642.84
529.07	37202.82
529.24	36924.29
529.41	37497.72
529.58	37237.92
529.75	37350.27
529.92	37727.10
530.09	37628.79
530.26	38082.86
530.43	37893.27
530.60	37825.40
530.77	37668.58
530.94	38183.50
531.11	37986.89
531.28	38387.13
531.46	38232.65
531.63	37926.04
531.80	38265.42
531.97	38548.62
532.14	38412.87
532.31	38155.41
532.48	38497.13
532.65	39419.30
532.82	38574.37
532.99	38862.26
533.16	38431.60
533.33	38562.67
533.50	38859.91
533.67	38911.41
533.84	38593.09
534.01	39178.23
534.18	38824.81
534.35	39229.72
534.52	39428.66
534.69	38983.96
534.86	39400.58
535.03	39187.59
535.20	39501.22
535.37	39374.83
535.54	39419.30
535.71	39271.85
535.88	39833.58
536.05	39723.57
536.22	39557.39
536.38	39969.33
536.55	39934.22
536.72	40051.25
536.89	40196.36
537.06	39957.63
537.23	39988.05
537.40	39690.80
537.57	39856.98
537.74	39880.39
537.91	40362.54
538.08	39683.78
538.25	39931.88
538.42	40179.98
538.59	40215.08
538.75	40135.51
538.92	40266.58
539.09	40666.81
539.26	40142.53
539.43	40385.94
539.60	40362.54
539.77	40404.67
539.94	40460.84
540.11	40641.06
540.28	40935.97
540.44	40643.40
540.61	40919.59
540.78	40779.15
540.95	41172.36
541.12	40877.46
541.29	40863.41
541.46	41045.97
541.62	41439.18
541.79	41003.85
541.96	40935.97
542.13	40884.48
542.30	41333.86
542.47	41549.19
542.63	41642.81
542.80	41308.11
542.97	41298.75
543.14	41851.12
543.31	41289.39
543.48	41610.04
543.64	41961.12
543.81	42181.13
543.98	42068.79
544.15	41961.12
544.32	42323.91
544.48	42646.90
544.65	42094.53
544.82	42457.32
544.99	41495.36
545.16	42733.50
545.32	42153.05
545.49	42852.87
545.66	42923.08
545.83	42501.79
546.00	42686.69
546.16	42216.24
546.33	42426.89
546.50	42155.39
546.67	42609.45
546.83	42281.78
547.00	42644.56
547.17	42438.59
547.34	42939.47
547.50	42859.89
547.67	43690.78
547.84	43070.54
548.00	43007.34
548.17	43442.68
548.34	43133.73
548.51	43356.08
548.67	43477.79
548.84	43044.79
549.01	43306.93
549.18	43473.11
549.34	43477.79
549.51	43597.16
549.68	44020.80
549.84	43559.71
550.01	43976.33
550.18	43594.82
550.34	43620.56
550.51	43901.43
550.68	43793.76
550.84	43562.05
551.01	43592.48
551.18	43255.44
551.34	43775.04
551.51	43784.40
551.68	43845.26
551.84	43765.68
552.01	43749.29
552.18	43915.47
552.34	43772.70
552.51	43922.49
552.68	43775.04
552.84	44039.52
553.01	44287.62
553.18	43746.95
553.34	44526.35
553.51	44041.86
553.67	44154.21
553.84	44425.71
554.01	44261.87
554.17	44381.24
554.34	44788.49
554.51	44402.30
554.67	44809.56
554.84	44299.32
555.00	44739.34
555.17	44493.58
555.33	45078.72
555.50	44954.67
555.67	44793.17
555.83	44509.97
556.00	45022.54
556.16	45184.04
556.33	45251.92
556.50	44863.39
556.66	45144.25
556.83	44589.55
556.99	45102.12
557.16	45064.67
557.32	45085.74
557.49	45542.14
557.65	44891.48
557.82	45179.36
557.98	45233.19
558.15	44982.76
558.32	45310.43
558.48	45179.36
558.65	45425.12
558.81	45151.27
558.98	45209.79
559.14	45380.65
559.31	45141.91
559.47	45631.08
559.64	45263.62
559.80	45715.34
559.97	45827.69
560.13	45268.30
560.30	45275.32
560.46	45780.88
560.63	45469.59
560.79	46157.70
560.96	45649.81
561.12	45799.60
561.29	45830.03
561.45	45794.92
561.61	45923.65
561.78	45780.88
561.94	45558.53
562.11	45729.39
562.27	45612.36
562.44	45776.20
562.60	46138.98
562.77	46028.98
562.93	45624.06
563.10	45593.64
563.26	45787.90
563.42	46129.62
563.59	46068.76
563.75	46162.39
563.92	45698.96
564.08	45867.48
564.24	46150.68
564.41	46155.36
564.57	45951.74
564.74	46204.52
564.90	45972.80
565.07	46012.59
565.23	46082.81
565.39	46169.41
565.56	45996.21
565.72	45839.39
565.88	46354.31
566.05	46653.90
566.21	46213.88
566.38	46265.37
566.54	46162.39
566.70	46328.56
566.87	46611.77
567.03	45797.26
567.19	46162.39
567.36	46178.77
567.52	46148.34
567.68	46820.08
567.85	46653.90
568.01	46614.11
568.17	46461.97
568.34	46670.28
568.50	47091.58
568.66	46241.96
568.83	46471.34
568.99	46293.46
569.15	46791.99
569.32	46576.66
569.48	46211.54
569.64	46646.88
569.81	46623.47
569.97	46534.53
570.13	46747.52
570.30	46574.32
570.46	46637.51
570.62	46920.72
570.78	46829.44
570.95	46717.09
571.11	46653.90
571.27	46490.06
571.43	46483.04
571.60	46836.46
571.76	46639.86
571.92	46539.21
572.09	46522.83
572.25	46967.53
572.41	46248.99
572.57	47262.44
572.74	47201.58
572.90	47213.29
573.06	47276.48
573.22	46953.49
573.38	46927.74
573.55	46791.99
573.71	47512.88
573.87	47281.16
574.03	46911.36
574.20	47337.33
574.36	47173.50
574.52	47217.97
574.68	46909.02
574.84	47386.49
575.01	47173.50
575.17	47138.39
575.33	47250.74
575.49	46607.09
575.65	47150.09
575.82	47026.04
575.98	46731.14
576.14	47075.19
576.30	46850.50
576.46	47213.29
576.62	47021.36
576.79	47159.45
576.95	46761.56
577.11	46869.23
577.27	47283.50
577.43	47133.71
577.59	47086.90
577.75	46927.74
577.92	46770.93
578.08	46852.84
578.24	47112.64
578.40	47122.01
578.56	47140.73
578.72	47103.28
578.88	47318.61
579.04	47047.11
579.21	46841.14
579.37	47388.83
579.53	47239.03
579.69	46726.46
579.85	47435.64
580.01	47264.78
580.17	47084.56
580.33	47145.41
580.49	47374.78
580.65	47365.42
580.82	47459.04
580.98	47271.80
581.14	47253.08
581.30	47061.15
581.46	47012.00
581.62	46960.51
581.78	46906.68
581.94	47498.83
582.10	47000.30
582.26	47363.08
582.42	47325.63
582.58	47531.60
582.74	47409.89
582.90	47187.54
583.06	47646.29
583.22	47004.98
583.38	47597.13
583.54	47323.29
583.70	47407.55
583.86	47590.11
584.02	46955.83
584.18	47758.63
584.34	47700.12
584.50	47370.10
584.66	47779.70
584.82	48011.41
584.98	47889.70
585.14	47838.21
585.30	47346.70
585.46	47400.53
585.62	47351.38
585.78	47433.30
585.94	47206.26
586.10	47330.31
586.26	47468.40
586.42	47114.98
586.58	47405.21
586.74	47285.84
586.90	47587.77
587.06	47393.51
587.22	47363.08
587.38	47414.57
587.54	47718.84
587.70	47667.35
587.86	47414.57
588.02	47360.74
588.18	47442.66
588.34	47412.23
588.49	47213.29
588.65	47508.19
588.81	47693.10
588.97	47782.04
589.13	47370.10
589.29	47627.56
589.45	48128.44
589.61	47730.54
589.77	47639.26
589.93	47337.33
590.08	47831.19
590.24	47896.72
590.40	47913.11
590.56	48149.50
590.72	47838.21
590.88	47267.12
591.04	48067.58
591.20	47674.37
591.35	48296.95
591.51	48058.22
591.67	47697.78
591.83	48257.17
591.99	47861.61
592.15	47971.62
592.31	47906.08
592.46	48051.20
592.62	48062.90
592.78	47882.68
592.94	48107.37
593.10	48474.84
593.26	48210.35
593.41	48130.78
593.57	47824.17
593.73	48142.48
593.89	48278.23
594.05	48390.58
594.20	48341.42
594.36	48238.44
594.52	48678.46
594.68	48341.42
594.84	47976.30
594.99	48308.66
595.15	48090.99
595.31	48271.21
595.47	47880.34
595.62	48332.06
595.78	48135.46
595.94	48334.40
596.10	48226.74
596.25	48474.84
596.41	48177.59
596.57	47725.86
596.73	48301.64
596.88	48114.39
597.04	48186.95
597.20	48456.11
597.36	48538.03
597.51	48072.26
597.67	48320.36
597.83	47945.87
597.99	48367.17
598.14	48385.89
598.30	48495.90
598.46	48348.45
598.61	48350.79
598.77	48292.27
598.93	48491.22
599.09	48411.64
599.24	48580.16
599.40	48259.51
599.56	48428.02
599.71	48996.77
599.87	48828.26
600.03	48636.33
600.18	48170.57
600.34	48643.35
600.50	48641.01
600.65	48428.02
600.81	48465.47
600.97	48523.99
601.12	48519.31
601.28	48149.50
601.44	48217.38
601.59	48467.81
601.75	48437.39
601.91	48619.95
602.06	48839.96
602.22	48528.67
602.37	48472.49
602.53	48430.36
602.69	48514.62
602.84	48114.39
603.00	48158.86
603.16	48402.28
603.31	48282.91
603.47	48126.10
603.62	48383.55
603.78	48498.24
603.94	47999.71
604.09	48545.05
604.25	48413.98
604.40	48421.00
604.56	48568.46
604.71	48467.81
604.87	48217.38
605.03	48231.42
605.18	47983.32
605.34	48507.60
605.49	48236.10
605.65	48250.14
605.80	48102.69
605.96	48261.85
606.12	48168.22
606.27	48289.93
606.43	48156.52
606.58	48664.42
606.74	48083.97
606.89	48341.42
607.05	48633.99
607.20	48563.78
607.36	47964.60
607.51	48058.22
607.67	47936.51
607.82	47938.85
607.98	47695.44
608.13	48390.58
608.29	48011.41
608.44	48432.71
608.60	48275.89
608.75	48219.72
608.91	48554.41
609.06	47980.98
609.22	48339.08
609.37	47952.90
609.53	48325.04
609.68	48198.65
609.84	48158.86
609.99	48149.50
610.15	48137.80
610.30	48203.33
610.46	48065.24
610.61	48130.78
610.76	48198.65
610.92	47894.38
611.07	47812.46
611.23	47721.18
611.38	47557.35
611.54	47922.47
611.69	47833.53
611.84	47959.92
612.00	47917.79
612.15	47786.72
612.31	47934.17
612.46	47480.11
612.62	47690.76
612.77	47833.53
612.92	48175.25
613.08	47674.37
613.23	47955.24
613.39	47913.11
613.54	47552.66
613.69	47756.29
613.85	47543.30
614.00	47416.91
614.15	47966.94
614.31	47966.94
614.46	47805.44
614.62	47657.99
614.77	47587.77
614.92	47718.84
615.08	47826.51
615.23	47529.26
615.38	47679.05
615.54	47735.23
615.69	47171.16
615.84	47627.56
616.00	47868.64
616.15	47557.35
616.30	47973.96
616.46	47278.82
616.61	47662.67
616.76	47473.09
616.92	47126.69
617.07	47536.28
617.22	47236.69
617.37	46838.80
617.53	47578.41
617.68	47185.20
617.83	47320.95
617.99	48025.45
618.14	47456.70
618.29	47201.58
618.45	46859.87
618.60	47405.21
618.75	46782.63
618.90	47054.13
619.06	46960.51
619.21	46965.19
619.36	47529.26
619.51	47077.54
619.67	46822.42
619.82	47091.58
619.97	47236.69
620.12	46960.51
620.28	46902.00
620.43	47365.42
620.58	47217.97
620.73	47042.43
620.89	47086.90
621.04	47208.61
621.19	47229.67
621.34	46681.98
621.49	46483.04
621.65	46787.31
621.80	47435.64
621.95	46808.37
622.10	47150.09
622.25	47049.45
622.41	46911.36
622.56	46653.90
622.71	46726.46
622.86	46955.83
623.01	46583.68
623.16	46370.69
623.32	46380.06
623.47	46607.09
623.62	46476.02
623.77	46457.29
623.92	46581.34
624.07	46569.64
624.23	46782.63
624.38	46593.04
624.53	46525.17
624.68	46230.26
624.83	46618.79
624.98	46600.07
625.13	46036.00
625.29	46298.14
625.44	46541.55
625.59	46321.54
625.74	46742.84
625.89	46211.54
626.04	45947.06
626.19	46225.58
626.34	46368.35
626.49	45708.32
626.65	45731.73
626.80	46103.87
626.95	46064.08
627.10	46064.08
627.25	45888.54
627.40	45989.19
627.55	45900.25
627.70	46108.55
627.85	45720.02
628.00	46071.10
628.15	45991.53
628.30	45820.67
628.45	45326.81
628.60	45378.31
628.76	45682.58
628.91	45776.20
629.06	45769.18
629.21	45666.19
629.36	45794.92
629.51	45516.40
629.66	45853.44
629.81	45181.70
629.96	45455.54
630.11	45361.92
630.26	45352.56
630.41	45766.84
630.56	45497.67
630.71	45343.20
630.86	45165.32
631.01	45123.19
631.16	45373.63
631.31	45205.11
631.46	45619.38
631.61	45698.96
631.76	45708.32
631.91	45368.94
632.06	45689.60
632.21	45600.66
632.36	45792.58
632.51	45184.04
632.66	45132.55
632.81	44954.67
632.96	45050.63
633.10	44912.54
633.25	45160.64
633.40	44830.62
633.55	45375.97
633.70	45017.86
633.85	44421.03
634.00	44851.69
634.15	44753.38
634.30	44875.09
634.45	44786.15
634.60	44804.88
634.75	44882.11
634.90	44722.96
635.05	44924.24
635.19	44952.33
635.34	45312.77
635.49	44554.44
635.64	44570.82
635.79	44823.60
635.94	44982.76
636.09	44978.07
636.24	44697.21
636.39	44847.00
636.53	44554.44
636.68	44428.05
636.83	44259.53
636.98	44250.17
637.13	44254.85
637.28	44605.93
637.43	44524.01
637.57	44406.98
637.72	44397.62
637.87	44165.91
638.02	44376.56
638.17	44091.01
638.32	44261.87
638.46	43810.15
638.61	43971.64
638.76	43786.74
638.91	43786.74
639.06	43971.64
639.20	43981.01
639.35	44074.63
639.50	43786.74
639.65	44076.97
639.80	44278.25
639.94	44650.40
640.09	44147.18
640.24	43789.08
640.39	43765.68
640.54	43199.27
640.68	44081.65
640.83	44161.23
640.98	43782.06
641.13	43526.94
641.27	44236.12
641.42	43358.42
641.57	44186.97
641.72	43927.17
641.86	43611.20
642.01	43557.37
642.16	43356.08
642.31	43702.48
642.45	43995.05
642.60	43185.22
642.75	43260.12
642.90	43562.05
643.04	43791.42
643.19	43241.40
643.34	43655.67
643.48	43122.03
643.63	43157.14
643.78	43447.36
643.93	43515.24
644.07	43323.32
644.22	43398.21
644.37	42993.30
644.51	43065.86
644.66	43171.18
644.81	43030.75
644.95	43000.32
645.10	43620.56
645.25	43037.77
645.39	42796.70
645.54	43274.16
645.69	42541.58
645.83	42906.70
645.98	42983.94
646.13	42792.01
646.27	43070.54
646.42	42646.90
646.57	42576.69
646.71	42930.11
646.86	43096.28
647.00	42635.20
647.15	42806.06
647.30	42885.64
647.44	42525.19
647.59	42829.46
647.74	42595.41
647.88	42550.94
648.03	42454.98
648.17	43030.75
648.32	42759.25
648.47	42885.64
648.61	42621.16
648.76	42607.11
648.90	42447.96
649.05	42932.45
649.20	42139.00
649.34	42567.32
649.49	42529.87
649.63	42340.29
649.78	42398.80
649.92	42595.41
650.07	43107.99
650.21	42616.47
650.36	42740.52
650.51	42754.57
650.65	42700.73
650.80	42536.90
650.94	42412.85
651.09	42298.16
651.23	41464.93
651.38	41537.49
651.52	41834.74
651.67	42216.24
651.81	42192.84
651.96	42103.90
652.10	41902.61
652.25	41783.24
652.39	42127.30
652.54	41968.15
652.68	41996.23
652.83	41617.07
652.97	41972.83
653.12	42146.03
653.26	42033.68
653.41	41560.89
653.55	41797.29
653.70	42089.85
653.84	41797.29
653.99	41794.95
654.13	41928.36
654.27	41172.36
654.42	41663.88
654.56	41521.10
654.71	41666.22
654.85	41787.92
655.00	41509.40
655.14	41834.74
655.29	41558.55
655.43	41446.21
655.57	41408.76
655.72	41394.71
655.86	41198.11
656.01	41401.74
656.15	40975.76
656.30	41216.83
656.44	41172.36
656.58	41392.37
656.73	41268.33
656.87	41146.62
657.01	40620.00
657.16	41048.32
657.30	41228.54
657.45	41432.16
657.59	41191.09
657.73	40877.46
657.88	41191.09
658.02	41301.09
658.16	41181.73
658.31	40917.25
658.45	40748.73
658.60	40669.15
658.74	40790.86
658.88	40748.73
659.03	40631.70
659.17	40713.62
659.31	40547.44
659.46	40329.77
659.60	40184.66
659.74	40678.51
659.89	39758.68
660.03	40004.44
660.17	40238.49
660.32	40285.30
660.46	39725.91
660.60	40079.33
660.74	40172.96
660.89	40116.78
661.03	39756.34
661.17	39849.96
661.32	40278.28
661.46	40018.48
661.60	39732.93
661.74	39777.40
661.89	39974.01
662.03	39791.45
662.17	39381.85
662.31	39636.97
662.46	39545.69
662.60	39449.73
662.74	38913.75
662.88	39480.16
663.03	39030.77
663.17	38843.53
663.31	38735.87
663.45	39098.65
663.60	39236.74
663.74	39353.77
663.88	39108.01
664.02	38527.56
664.17	39105.67
664.31	38656.29
664.45	38763.95
664.59	38689.06
664.73	38855.23
664.88	38731.18
665.02	38665.65
665.16	38382.45
665.30	38476.07
665.44	38473.73
665.59	37921.36
665.73	38010.30
665.87	38162.43
666.01	38396.49
666.15	38089.88
666.29	38031.36
666.44	38239.67
666.58	38363.72
666.72	38204.56
666.86	38174.14
667.00	37956.47
667.14	38003.28
667.28	37404.10
667.43	37965.83
667.57	37633.47
667.71	37514.11
667.85	37928.38
667.99	37521.13
668.13	37357.29
668.27	36903.23
668.41	37148.98
668.56	36577.89
668.70	36961.74
668.84	36868.12
668.98	36416.40
669.12	37057.70
669.26	36683.22
669.40	36863.44
669.54	36797.90
669.68	36603.64
669.82	36664.49
669.96	36245.54
670.10	35637.00
670.25	36547.47
670.39	36500.65
670.53	36325.11
670.67	36346.18
670.81	36460.87
670.95	36641.09
671.09	35962.33
671.23	35899.14
671.37	35943.61
671.51	35922.54
671.65	35945.95
671.79	35751.68
671.93	36189.36
672.07	35391.24
672.21	35592.53
672.35	35225.06
672.49	35835.94
672.63	35377.20
672.77	35072.93
672.91	34946.54
673.05	35328.05
673.19	34536.94
673.33	34981.65
673.47	34548.65
673.61	34639.93
673.75	35133.78
673.89	34665.67
674.03	34436.30
674.17	34134.37
674.31	33944.79
674.45	33949.47
674.59	34253.74
674.73	34160.12
674.87	33860.53
675.01	33998.62
675.15	33481.36
675.29	33450.94
675.43	33483.70
675.56	33762.23
675.70	33610.09
675.84	33415.83
675.98	32505.36
676.12	33123.26
676.26	33486.04
676.40	32978.15
676.54	32891.55
676.68	32910.27
676.82	32367.27
676.96	32739.41
677.10	32786.22
677.23	32510.04
677.37	32404.72
677.51	32465.57
677.65	32451.53
677.79	32357.91
677.93	32254.92
678.07	31920.23
678.21	31686.17
678.34	31508.29
678.48	31285.94
678.62	31768.09
678.76	31412.33
678.90	31557.44
679.04	31192.32
679.18	31590.21
679.31	31419.35
679.45	30941.88
679.59	30794.43
679.73	30859.96
679.87	30637.61
680.00	30756.98
680.14	30452.71
680.28	30331.00
680.42	30286.53
680.56	30546.33
680.70	30122.69
680.83	29832.47
680.97	29937.79
681.11	29902.68
681.25	29919.07
681.39	29731.83
681.52	30026.73
681.66	29104.56
681.80	29081.16
681.94	29013.28
682.07	28631.77
682.21	28945.41
682.35	28641.14
682.49	28755.82
682.62	28961.79
682.76	28723.05
682.90	28301.76
683.04	28730.08
683.17	28563.90
683.31	28217.50
683.45	28383.68
683.59	28105.15
683.72	27742.37
683.86	28191.75
684.00	28023.23
684.13	27793.86
684.27	27480.23
684.41	27129.15
684.55	26876.37
684.68	27358.52
684.82	26513.59
684.96	27138.51
685.09	27124.47
685.23	27131.49
685.37	27548.11
685.50	26876.37
685.64	26883.39
685.78	26583.80
685.91	26717.22
686.05	26082.93
686.19	25722.49
686.32	25984.63
686.46	25921.43
686.60	25879.30
686.73	25855.90
686.87	25764.62
687.01	26075.91
687.14	25752.91
687.28	25542.27
687.42	25460.35
687.55	25291.83
687.69	25263.74
687.82	25249.70
687.96	25055.43
688.10	25179.48
688.23	24692.65
688.37	24973.52
688.50	25062.46
688.64	24781.59
688.78	24603.71
688.91	24374.34
689.05	24563.92
689.18	23868.78
689.32	23880.49
689.46	23655.79
689.59	23482.59
689.73	23871.12
689.86	24095.82
690.00	23784.52
690.13	23700.26
690.27	23655.79
690.41	23587.92
690.54	22988.74
690.68	23337.48
690.81	23147.90
690.95	23117.47
691.08	22909.16
691.22	22689.15
691.35	22632.98
691.49	22710.22
691.62	22817.88
691.76	22588.51
691.89	21900.39
692.03	22230.41
692.16	21881.67
692.30	21802.09
692.43	21645.27
692.57	21685.06
692.70	21661.66
692.84	21696.77
692.97	21280.15
693.11	21088.23
693.24	21214.62
693.38	21088.23
693.51	21200.57
693.65	20879.92
693.78	20688.00
693.92	21209.93
694.05	20456.28
694.19	20765.23
694.32	20327.55
694.45	20737.15
694.59	20664.59
694.72	20610.76
694.86	20372.02
694.99	20166.06
695.13	20238.61
695.26	19962.43
695.39	19740.08
695.53	19763.48
695.66	20224.57
695.80	19824.34
695.93	19491.98
696.07	19405.38
696.20	19159.63
696.33	19049.62
696.47	18995.79
696.60	19337.51
696.73	19101.11
696.87	19070.68
697.00	18970.04
697.14	18892.80
697.27	18661.09
697.40	18738.33
697.54	18438.74
697.67	18443.42
697.80	18785.14
697.94	18317.03
698.07	18059.57
698.21	18169.58
698.34	18012.76
698.47	17928.50
698.61	17507.21
698.74	17738.92
698.87	17612.53
699.01	17558.70
699.14	17493.16
699.27	17633.60
699.40	17341.03
699.54	17315.28
699.67	17488.48
699.80	17324.65
699.94	16982.93
700.07	16919.73
700.20	17130.38
700.34	16812.07
700.47	16959.52
700.60	16922.07
700.73	16896.33
700.87	16386.09
701.00	16341.62
701.13	16245.66
701.26	16451.63
701.40	16273.74
701.53	16027.99
701.66	16161.40
701.79	16056.08
701.93	15641.80
702.06	15672.23
702.19	15456.90
702.32	15564.56
702.46	15756.49
702.59	15679.25
702.72	15379.66
702.85	15974.16
702.99	15407.75
703.12	15562.22
703.25	15049.64
703.38	15180.71
703.51	15042.62
703.65	14656.43
703.78	14717.29
703.91	14808.57
704.04	14581.54
704.17	14551.11
704.31	14539.41
704.44	14288.97
704.57	14293.65
704.70	14487.92
704.83	14216.41
704.96	14162.58
705.10	14068.96
705.23	13762.35
>>>>>End Processed Spectral Data<<<<<
