SpectraSuite Data File
++++++++++++++++++++++++++++++++++++
Date: Fri Oct 25 10:44:41 EDT 2013
User: price-jones
Dark Spectrum Present: No
Reference Spectrum Present: No
Number of Sampled Component Spectra: 1
Spectrometers: USB2+H05261
Integration Time (usec): 100000 (USB2+H05261)
Spectra Averaged: 1 (USB2+H05261)
Boxcar Smoothing: 0 (USB2+H05261)
Correct for Electrical Dark: No (USB2+H05261)
Strobe/Lamp Enabled: No (USB2+H05261)
Correct for Detector Non-linearity: No (USB2+H05261)
Correct for Stray Light: No (USB2+H05261)
Number of Pixels in Processed Spectrum: 2048
>>>>>Begin Processed Spectral Data<<<<<
365.73	131.07
365.92	131.07
366.12	131.07
366.32	93.62
366.52	0.00
366.72	84.26
366.91	0.00
367.11	16.38
367.31	72.56
367.51	58.51
367.70	30.43
367.90	0.00
368.10	86.60
368.30	21.06
368.49	16.38
368.69	46.81
368.89	16.38
369.09	49.15
369.28	74.90
369.48	44.47
369.68	170.86
369.87	79.58
370.07	72.56
370.27	177.88
370.47	231.71
370.66	351.08
370.86	407.25
371.06	414.27
371.25	395.55
371.45	395.55
371.65	512.58
371.84	322.99
372.04	393.21
372.24	486.83
372.44	484.49
372.63	505.56
372.83	449.38
373.03	507.90
373.22	435.34
373.42	519.60
373.62	491.51
373.81	449.38
374.01	557.05
374.21	547.69
374.40	440.02
374.60	533.64
374.79	531.30
374.99	582.79
375.19	540.66
375.38	575.77
375.58	566.41
375.78	564.07
375.97	585.13
376.17	627.26
376.37	543.00
376.56	641.31
376.76	514.92
376.95	603.86
377.15	610.88
377.35	676.41
377.54	575.77
377.74	650.67
377.93	617.90
378.13	554.71
378.33	667.05
378.52	664.71
378.72	610.88
378.91	603.86
379.11	594.50
379.31	594.50
379.50	613.22
379.70	624.92
379.89	634.29
380.09	622.58
380.28	627.26
380.48	678.76
380.68	608.54
380.87	582.79
381.07	617.90
381.26	601.52
381.46	660.03
381.65	678.76
381.85	650.67
382.04	655.35
382.24	685.78
382.43	681.10
382.63	620.24
382.83	741.95
383.02	678.76
383.22	730.25
383.41	704.50
383.61	791.10
383.80	748.97
384.00	685.78
384.19	732.59
384.39	730.25
384.58	809.83
384.78	844.93
384.97	699.82
385.17	765.36
385.36	657.69
385.56	662.37
385.75	753.65
385.95	816.85
386.14	746.63
386.34	814.51
386.53	716.20
386.72	753.65
386.92	837.91
387.11	835.57
387.31	931.53
387.50	795.78
387.70	781.74
387.89	826.21
388.09	842.59
388.28	706.84
388.48	931.53
388.67	877.70
388.86	922.17
389.06	858.98
389.25	954.94
389.45	905.79
389.64	828.55
389.84	971.32
390.03	919.83
390.22	842.59
390.42	894.08
390.61	936.21
390.81	898.77
391.00	901.11
391.19	973.66
391.39	870.68
391.58	924.51
391.78	931.53
391.97	992.39
392.16	826.21
392.36	945.58
392.55	905.79
392.75	966.64
392.94	947.92
393.13	1032.18
393.33	1006.43
393.52	1027.50
393.71	980.68
393.91	1078.99
394.10	1050.90
394.29	1039.20
394.49	1088.35
394.68	1053.24
394.88	1018.13
395.07	1153.88
395.26	1081.33
395.46	1219.42
395.65	1174.95
395.84	1095.37
396.04	1118.78
396.23	1078.99
396.42	1048.56
396.62	1123.46
396.81	1210.06
397.00	1104.73
397.19	1167.93
397.39	1163.25
397.58	1268.57
397.77	1224.10
397.97	1282.61
398.16	1275.59
398.35	1364.53
398.55	1233.46
398.74	1331.76
398.93	1409.00
399.12	1313.04
399.32	1296.66
399.51	1303.68
399.70	1348.15
399.90	1409.00
400.09	1357.51
400.28	1474.54
400.47	1451.13
400.67	1448.79
400.86	1444.11
401.05	1441.77
401.24	1439.43
401.44	1502.62
401.63	1542.41
401.82	1472.20
402.01	1563.48
402.21	1549.43
402.40	1458.15
402.59	1458.15
402.78	1451.13
402.97	1540.07
403.17	1502.62
403.36	1617.31
403.55	1572.84
403.74	1619.65
403.93	1626.67
404.13	1610.29
404.32	1584.54
404.51	1624.33
404.70	1699.23
404.89	1591.56
405.09	1682.85
405.28	1678.16
405.47	1703.91
405.66	1715.61
405.85	1797.53
406.05	1703.91
406.24	1717.95
406.43	1804.55
406.62	1762.42
406.81	1832.64
407.00	1689.87
407.20	1790.51
407.39	1809.23
407.58	1865.41
407.77	1888.81
407.96	1919.24
408.15	1959.03
408.34	1949.67
408.54	1968.39
408.73	1881.79
408.92	2015.20
409.11	2062.01
409.30	2101.80
409.49	2012.86
409.68	1968.39
409.87	2017.54
410.07	2054.99
410.26	2134.57
410.45	2076.06
410.64	2134.57
410.83	2125.21
411.02	2190.74
411.21	2221.17
411.40	2253.94
411.59	2282.02
411.78	2235.21
411.98	2251.60
412.17	2415.43
412.36	2373.30
412.55	2410.75
412.74	2438.84
412.93	2401.39
413.12	2286.70
413.31	2602.68
413.50	2497.35
413.69	2443.52
413.88	2511.39
414.07	2567.57
414.26	2670.55
414.45	2612.04
414.64	2595.65
414.83	2757.15
415.02	2682.25
415.22	2684.59
415.41	2822.69
415.60	2682.25
415.79	2764.17
415.98	2829.71
416.17	2935.03
416.36	2857.79
416.55	2904.60
416.74	2916.31
416.93	2874.18
417.12	3023.97
417.31	3023.97
417.50	2939.71
417.69	3096.53
417.88	3094.19
418.07	3000.57
418.26	3105.89
418.45	3019.29
418.64	3176.11
418.83	3061.42
419.02	3059.08
419.21	3159.72
419.39	3382.07
419.58	3094.19
419.77	3141.00
419.96	3141.00
420.15	3199.51
420.34	3328.24
420.53	3372.71
420.72	3426.54
420.91	3225.26
421.10	3356.33
421.29	3426.54
421.48	3431.23
421.67	3314.20
421.86	3365.69
422.05	3438.25
422.24	3353.99
422.43	3524.85
422.61	3543.57
422.80	3353.99
422.99	3339.94
423.18	3613.79
423.37	3559.95
423.56	3492.08
423.75	3499.10
423.94	3440.59
424.13	3372.71
424.32	3283.77
424.50	3581.02
424.69	3634.85
424.88	3550.59
425.07	3452.29
425.26	3339.94
425.45	3515.48
425.64	3559.95
425.83	3496.76
426.01	3599.74
426.20	3595.06
426.39	3449.95
426.58	3447.61
426.77	3660.60
426.96	3550.59
427.15	3599.74
427.33	3679.32
427.52	3616.13
427.71	3723.79
427.90	3639.53
428.09	3786.99
428.28	3702.73
428.46	3801.03
428.65	3740.18
428.84	3831.46
429.03	3812.73
429.22	3819.75
429.40	3786.99
429.59	3716.77
429.78	3557.61
429.97	3684.00
430.16	3686.34
430.34	3777.62
430.53	3899.33
430.72	3854.86
430.91	3978.91
431.10	3887.63
431.28	3985.93
431.47	3971.89
431.66	4067.85
431.85	4051.47
432.03	4042.11
432.22	4135.73
432.41	4095.94
432.60	4222.33
432.79	4191.90
432.97	4159.13
433.16	4248.07
433.35	4198.92
433.54	4222.33
433.72	4222.33
433.91	4109.98
434.10	4163.81
434.28	4217.65
434.47	4355.74
434.66	4404.89
434.85	4468.08
435.03	4348.72
435.22	4409.57
435.41	4533.62
435.59	4510.21
435.78	4662.35
435.97	4634.26
436.16	4493.83
436.34	4470.42
436.53	4634.26
436.72	4641.28
436.90	4603.83
437.09	4788.74
437.28	4437.66
437.46	4585.11
437.65	4657.67
437.84	4678.73
438.02	4690.43
438.21	4732.56
438.40	4531.28
438.58	4873.00
438.77	4898.74
438.96	4936.19
439.14	4938.53
439.33	5004.07
439.52	5020.45
439.70	4999.38
439.89	5128.11
440.08	5116.41
440.26	5114.07
440.45	5102.37
440.63	5266.21
440.82	5394.93
441.01	5256.84
441.19	5401.96
441.38	5390.25
441.57	5458.13
441.75	5570.48
441.94	5652.39
442.12	5397.28
442.31	5671.12
442.50	5729.63
442.68	5685.16
442.87	5593.88
443.05	5675.80
443.24	5661.76
443.43	5760.06
443.61	5671.12
443.80	5860.70
443.98	5678.14
444.17	5479.19
444.35	5809.21
444.54	5996.45
444.73	5799.85
444.91	5907.51
445.10	5746.02
445.28	5867.72
445.47	5746.02
445.65	5790.49
445.84	5675.80
446.02	5902.83
446.21	5699.20
446.39	5792.83
446.58	6040.92
446.77	6120.50
446.95	5799.85
447.14	5996.45
447.32	6179.01
447.51	5893.47
447.69	5844.32
447.88	6061.99
448.06	5746.02
448.25	5907.51
448.43	6073.69
448.62	6057.31
448.80	6134.54
448.99	6080.71
449.17	6108.80
449.36	6033.90
449.54	5998.79
449.73	6218.80
449.91	6466.90
450.10	6373.28
450.28	6387.32
450.46	6420.09
450.65	6682.23
450.83	6321.79
451.02	6296.04
451.20	6527.75
451.39	6401.37
451.57	6354.55
451.76	6354.55
451.94	6593.29
452.13	6429.45
452.31	6422.43
452.49	6455.20
452.68	6492.65
452.86	6368.60
453.05	6544.14
453.23	6661.16
453.42	6612.01
453.60	6473.92
453.78	6724.36
453.97	6387.32
454.15	6583.93
454.34	6752.45
454.52	6757.13
454.70	6878.83
454.89	6888.20
455.07	6722.02
455.26	7049.69
455.44	6998.20
455.62	6935.01
455.81	6888.20
455.99	7019.27
456.17	6927.99
456.36	7026.29
456.54	7061.40
456.73	7227.57
456.91	7260.34
457.09	7204.17
457.28	7260.34
457.46	7155.02
457.64	7403.11
457.83	7246.30
458.01	7197.15
458.19	7501.42
458.38	7339.92
458.56	7433.54
458.74	7342.26
458.93	7389.07
459.11	7508.44
459.29	7478.01
459.48	7428.86
459.66	7258.00
459.84	7417.16
460.03	7744.83
460.21	7541.21
460.39	7655.89
460.57	7524.82
460.76	7744.83
460.94	7719.09
461.12	7611.42
461.31	7838.45
461.49	7653.55
461.67	7733.13
461.85	7861.86
462.04	7688.66
462.22	7995.27
462.40	8030.38
462.59	7962.50
462.77	7838.45
462.95	8072.51
463.13	8035.06
463.32	7967.18
463.50	8084.21
463.68	8217.62
463.86	8063.15
464.05	7969.52
464.23	8074.85
464.41	8231.66
464.59	7981.23
464.78	8259.75
464.96	8102.93
465.14	8126.34
465.32	8276.13
465.50	8344.01
465.69	8252.73
465.87	8226.98
466.05	8341.67
466.23	8346.35
466.41	8531.25
466.60	8386.14
466.78	8093.57
466.96	8372.10
467.14	8238.69
467.32	8505.51
467.51	8315.92
467.69	8446.99
467.87	8439.97
468.05	8519.55
468.23	8458.70
468.41	8374.44
468.60	8521.89
468.78	8580.40
468.96	8659.98
469.14	8718.50
469.32	8772.33
469.50	8711.47
469.69	8816.80
469.87	8922.12
470.05	8819.14
470.23	8758.28
470.41	8870.63
470.59	9027.45
470.77	8856.59
470.95	8940.85
471.14	9334.06
471.32	8982.98
471.50	9184.26
471.68	9116.39
471.86	9247.46
472.04	9268.52
472.22	9703.86
472.40	9184.26
472.58	9469.81
472.77	9521.30
472.95	9605.56
473.13	9923.87
473.31	9352.78
473.49	9441.72
473.67	9650.03
473.85	9668.75
474.03	9771.74
474.21	9816.21
474.39	10017.49
474.57	9818.55
474.75	9961.32
474.93	10188.35
475.12	9722.59
475.30	10106.43
475.48	10167.29
475.66	10235.16
475.84	10218.78
476.02	10267.93
476.20	10267.93
476.38	10567.52
476.56	10740.72
476.74	10944.34
476.92	10703.27
477.10	10600.29
477.28	10932.64
477.46	10848.38
477.64	10995.84
477.82	11419.47
478.00	11206.48
478.18	11318.83
478.36	11379.68
478.54	11482.67
478.72	11475.65
478.90	11641.82
479.08	11854.81
479.26	11676.93
479.44	11875.88
479.62	12030.35
479.80	12252.70
479.98	12198.87
480.16	12564.00
480.34	12325.26
480.52	12688.04
480.70	12652.94
480.88	12259.73
481.06	12556.97
481.24	12571.02
481.41	12784.01
481.59	13062.53
481.77	13238.07
481.95	12929.12
482.13	12971.25
482.31	13254.45
482.49	13490.85
482.67	13380.84
482.85	13738.94
483.03	13703.84
483.21	13827.88
483.39	13799.80
483.57	13738.94
483.74	14256.20
483.92	14008.11
484.10	14104.07
484.28	14368.55
484.46	14754.74
484.64	14761.76
484.82	14293.65
485.00	14719.63
485.18	14853.04
485.35	15021.56
485.53	14827.29
485.71	14979.43
485.89	15344.55
486.07	15183.06
486.25	15321.15
486.43	15506.05
486.61	15686.27
486.78	16102.89
486.96	16070.12
487.14	16348.64
487.32	16212.89
487.50	16315.87
487.68	16641.21
487.85	16830.79
488.03	16994.63
488.21	16823.77
488.39	16908.03
488.57	17043.78
488.75	17366.78
488.92	17469.76
489.10	17614.87
489.28	17649.98
489.46	17764.67
489.64	17757.64
489.81	18422.36
489.99	18228.09
490.17	18312.35
490.35	18654.07
490.53	18473.85
490.70	18834.29
490.88	18672.79
491.06	19082.39
491.24	19117.50
491.41	18841.31
491.59	19225.16
491.77	19014.51
491.95	19131.54
492.13	19644.12
492.30	19880.51
492.48	19906.26
492.66	20189.46
492.84	19974.13
493.01	19964.77
493.19	20142.65
493.37	20498.41
493.54	20343.94
493.72	20603.74
493.90	20467.98
494.08	20575.65
494.25	21092.91
494.43	21160.78
494.61	21341.00
494.79	21289.51
494.96	21069.50
495.14	21373.77
495.32	21731.87
495.49	21837.20
495.67	21523.57
495.85	21872.31
496.02	21862.94
496.20	22148.49
496.38	22199.98
496.55	22480.85
496.73	22867.03
496.91	22286.58
497.09	23056.62
497.26	22700.86
497.44	23208.75
497.62	23091.73
497.79	23475.57
497.97	23466.21
498.14	23360.89
498.32	23466.21
498.50	23585.58
498.67	23763.46
498.85	23878.15
499.03	23962.40
499.20	23939.00
499.38	23784.52
499.56	23964.75
499.73	24194.12
499.91	24486.68
500.08	24994.58
500.26	24023.26
500.44	24437.53
500.61	24467.96
500.79	24315.83
500.97	25053.09
501.14	25135.01
501.32	25254.38
501.49	25001.60
501.67	25078.84
501.84	25245.02
502.02	25160.76
502.20	25750.57
502.37	25518.86
502.55	25865.26
502.72	25563.33
502.90	25666.31
503.07	25708.44
503.25	25986.97
503.43	25968.24
503.60	26270.17
503.78	25986.97
503.95	25846.54
504.13	25879.30
504.30	26251.45
504.48	26375.50
504.65	26761.69
504.83	26651.68
505.01	26693.81
505.18	26850.63
505.36	27445.12
505.53	27133.83
505.71	27166.60
505.88	27147.87
506.06	27056.59
506.23	27307.03
506.41	27012.12
506.58	27304.69
506.76	27557.47
506.93	27662.79
507.11	27470.87
507.28	27534.06
507.46	27604.28
507.63	27840.67
507.81	27735.35
507.98	27681.52
508.16	28144.94
508.33	28128.56
508.50	28231.54
508.68	28795.61
508.85	28655.18
509.03	28556.88
509.20	28737.10
509.38	28968.81
509.55	29179.46
509.73	29156.05
509.90	28917.32
510.08	29006.26
510.25	29106.90
510.42	29153.71
510.60	29326.91
510.77	29331.59
510.95	29546.92
511.12	29420.53
511.30	29741.19
511.47	29919.07
511.64	29806.72
511.82	30064.18
511.99	29603.10
512.17	29792.68
512.34	29715.44
512.51	30064.18
512.69	30338.02
512.86	30808.47
513.04	30558.03
513.21	30522.93
513.38	30183.55
513.56	30693.79
513.73	30242.06
513.90	30684.42
514.08	30902.09
514.25	30888.05
514.43	30637.61
514.60	31115.08
514.77	30874.01
514.95	31325.73
515.12	30721.87
515.29	30998.06
515.47	31274.24
515.64	31388.92
515.81	31550.42
515.99	31735.32
516.16	31847.67
516.33	31847.67
516.51	31536.38
516.68	31552.76
516.85	31101.04
517.03	31262.54
517.20	31704.90
517.37	31826.60
517.54	32163.64
517.72	32481.95
517.89	31529.36
518.06	31999.80
518.24	31908.52
518.41	32039.59
518.58	32039.59
518.75	32297.05
518.93	32936.02
519.10	32393.01
519.27	32620.05
519.45	33001.55
519.62	32926.66
519.79	32971.13
519.96	33233.27
520.14	33179.43
520.31	32641.11
520.48	32561.53
520.65	33029.64
520.83	33467.32
521.00	33453.28
521.17	33373.70
521.34	34064.16
521.52	33703.71
521.69	33579.67
521.86	33429.87
522.03	33722.44
522.20	34272.46
522.38	34066.50
522.55	34436.30
522.72	33818.40
522.89	33752.87
523.07	34199.91
523.24	34141.39
523.41	34244.38
523.58	34206.93
523.75	34670.36
523.92	34644.61
524.10	34714.83
524.27	34717.17
524.44	34316.93
524.61	34904.41
524.78	34962.92
524.96	34848.24
525.13	34993.35
525.30	35365.49
525.47	35166.55
525.64	35278.89
525.81	35014.41
525.98	35473.16
526.16	35161.87
526.33	35154.85
526.50	35262.51
526.67	35182.93
526.84	35145.48
527.01	35335.07
527.18	35466.14
527.36	35842.96
527.53	35988.08
527.70	35999.78
527.87	35730.62
528.04	35597.21
528.21	35583.16
528.38	35845.30
528.55	36622.36
528.72	36411.71
528.89	36322.77
529.07	36191.70
529.24	36156.60
529.41	36561.51
529.58	35985.74
529.75	36552.15
529.92	36774.50
530.09	36844.71
530.26	36563.85
530.43	36804.92
530.60	36498.31
530.77	36561.51
530.94	36725.35
531.11	36730.03
531.28	37102.17
531.46	37062.38
531.63	36943.02
531.80	37174.73
531.97	37050.68
532.14	36994.51
532.31	36718.32
532.48	36928.97
532.65	37167.71
532.82	37081.11
532.99	37247.29
533.16	36952.38
533.33	37291.76
533.50	37567.94
533.67	37720.07
533.84	37326.86
534.01	37722.41
534.18	37914.34
534.35	37617.09
534.52	37631.13
534.69	38113.28
534.86	37736.46
535.03	37825.40
535.20	38197.54
535.37	38057.11
535.54	38466.70
535.71	38246.69
535.88	38089.88
536.05	38349.68
536.22	38005.62
536.38	38052.43
536.55	38340.32
536.72	38286.48
536.89	38213.93
537.06	38455.00
537.23	38349.68
537.40	38263.08
537.57	38995.67
537.74	38637.56
537.91	38583.73
538.08	38754.59
538.25	38316.91
538.42	39077.58
538.59	38848.21
538.75	38443.30
538.92	38440.96
539.09	39009.71
539.26	39096.31
539.43	38972.26
539.60	38913.75
539.77	38588.41
539.94	39407.60
540.11	38670.33
540.28	39313.98
540.44	39143.12
540.61	38803.74
540.78	39241.42
540.95	39555.05
541.12	39012.05
541.29	39435.69
541.46	39648.68
541.62	39590.16
541.79	39548.03
541.96	39431.01
542.13	39629.95
542.30	39276.53
542.47	39831.24
542.63	39887.41
542.80	39510.58
542.97	40194.02
543.14	40491.27
543.31	39707.19
543.48	40266.58
543.64	40898.52
543.81	40669.15
543.98	40479.57
544.15	40179.98
544.32	40561.48
544.48	40844.69
544.65	40397.65
544.82	40615.32
544.99	40243.17
545.16	40921.93
545.32	40811.92
545.49	41062.36
545.66	40793.20
545.83	41139.60
546.00	41127.89
546.16	40730.00
546.33	40465.52
546.50	40790.86
546.67	41038.95
546.83	40130.83
547.00	40779.15
547.17	40832.99
547.34	41298.75
547.50	40896.18
547.67	41624.09
547.84	41106.83
548.00	41027.25
548.17	41174.70
548.34	41319.82
548.51	41762.18
548.67	41612.38
548.84	41500.04
549.01	40924.27
549.18	41095.13
549.34	41361.95
549.51	41514.08
549.68	41666.22
549.84	41523.44
550.01	41518.76
550.18	41610.04
550.34	42024.32
550.51	41818.35
550.68	41696.64
550.84	41333.86
551.01	41214.49
551.18	41586.64
551.34	41518.76
551.51	42000.91
551.68	42068.79
551.84	41940.06
552.01	41766.86
552.18	41787.92
552.34	41551.53
552.51	42206.88
552.68	41977.51
552.84	42169.43
553.01	42239.65
553.18	42452.64
553.34	41792.61
553.51	41890.91
553.67	42642.22
553.84	42511.15
554.01	42176.45
554.17	42370.72
554.34	42576.69
554.51	42136.66
554.67	42536.90
554.84	42726.48
555.00	42827.12
555.17	41855.80
555.33	42424.55
555.50	42637.54
555.67	42728.82
555.83	42469.02
556.00	42642.22
556.16	42752.23
556.33	42351.99
556.50	42880.95
556.66	42810.74
556.83	42506.47
556.99	42841.17
557.16	43262.46
557.32	43040.11
557.49	42815.42
557.65	42653.92
557.82	42845.85
557.98	42897.34
558.15	42831.80
558.32	43054.15
558.48	43173.52
558.65	43047.13
558.81	42534.56
558.98	43522.26
559.14	43557.37
559.31	42803.72
559.47	43035.43
559.64	43627.59
559.80	43302.25
559.97	42658.60
560.13	42986.28
560.30	42890.32
560.46	42822.44
560.63	43196.93
560.79	43330.34
560.96	43512.90
561.12	43227.35
561.29	43414.60
561.45	43203.95
561.61	42979.26
561.78	43470.77
561.94	42710.10
562.11	43526.94
562.27	43393.53
562.44	43260.12
562.60	43915.47
562.77	43793.76
562.93	43449.70
563.10	43351.40
563.26	43129.05
563.42	43463.75
563.59	43082.24
563.75	43590.14
563.92	43959.94
564.08	44023.14
564.24	43552.69
564.41	43445.02
564.57	43306.93
564.74	43910.79
564.90	43594.82
565.07	43688.44
565.23	43941.22
565.39	43552.69
565.56	43716.53
565.72	43283.53
565.88	43775.04
566.05	43632.27
566.21	43519.92
566.38	43278.85
566.54	44095.69
566.70	44156.55
566.87	43952.92
567.03	43943.56
567.19	44194.00
567.36	43768.02
567.52	43679.08
567.68	44048.88
567.85	43737.59
568.01	44027.82
568.17	43557.37
568.34	43786.74
568.50	44081.65
568.66	43959.94
568.83	43899.09
568.99	43606.52
569.15	43503.54
569.32	44067.61
569.48	43330.34
569.64	44390.60
569.81	44226.76
569.97	43983.35
570.13	43913.13
570.30	43599.50
570.46	43438.00
570.62	43562.05
570.78	43739.93
570.95	43749.29
571.11	44231.44
571.27	43803.13
571.43	44109.74
571.60	43831.21
571.76	43540.99
571.92	44264.21
572.09	43889.73
572.25	43861.64
572.41	43716.53
572.57	44318.04
572.74	44137.82
572.90	43962.28
573.06	44147.18
573.22	43990.37
573.38	44196.34
573.55	43718.87
573.71	43945.90
573.87	44186.97
574.03	43969.30
574.20	43817.17
574.36	44121.44
574.52	44208.04
574.68	43878.02
574.84	44327.41
575.01	44177.61
575.17	44257.19
575.33	43751.63
575.49	44067.61
575.65	44116.76
575.82	44605.93
575.98	43796.10
576.14	44053.56
576.30	44535.71
576.46	44339.11
576.62	44273.57
576.79	44470.18
576.95	43735.25
577.11	44020.80
577.27	43913.13
577.43	44392.94
577.59	44147.18
577.75	44121.44
577.92	43613.54
578.08	43831.21
578.24	43878.02
578.40	44299.32
578.56	43899.09
578.72	43978.67
578.88	44437.41
579.04	44037.18
579.21	44198.68
579.37	44055.90
579.53	44198.68
579.69	43950.58
579.85	44142.50
580.01	44273.57
580.17	44399.96
580.33	44524.01
580.49	44289.96
580.65	44669.12
580.82	44252.51
580.98	44215.06
581.14	43976.33
581.30	44184.63
581.46	44083.99
581.62	44493.58
581.78	44116.76
581.94	44009.09
582.10	43995.05
582.26	44863.39
582.42	43739.93
582.58	44421.03
582.74	44203.36
582.90	44715.93
583.06	44577.84
583.22	44184.63
583.38	44587.21
583.54	44165.91
583.70	44430.39
583.86	44772.11
584.02	44123.78
584.18	44282.94
584.34	44453.79
584.50	44378.90
584.66	43856.96
584.82	44109.74
584.98	44285.28
585.14	44666.78
585.30	43913.13
585.46	44325.07
585.62	44320.38
585.78	43973.98
585.94	44055.90
586.10	44385.92
586.26	44549.76
586.42	44341.45
586.58	44685.51
586.74	44116.76
586.90	44067.61
587.06	44079.31
587.22	44823.60
587.38	44032.50
587.54	44470.18
587.70	44872.75
587.86	44573.16
588.02	44432.73
588.18	44149.53
588.34	44217.40
588.49	44215.06
588.65	43725.89
588.81	44296.98
588.97	43957.60
589.13	43955.26
589.29	44238.47
589.45	44069.95
589.61	44458.48
589.77	44737.00
589.93	44502.95
590.08	44830.62
590.24	44704.23
590.40	44837.64
590.56	44811.90
590.72	44865.73
590.88	44699.55
591.04	44746.36
591.20	44893.82
591.35	44907.86
591.51	44404.64
591.67	44418.69
591.83	44849.35
591.99	44516.99
592.15	44744.02
592.31	44397.62
592.46	44776.79
592.62	44708.91
592.78	44493.58
592.94	45200.43
593.10	44638.70
593.26	44849.35
593.41	44772.11
593.57	44177.61
593.73	44098.03
593.89	44692.53
594.05	44591.89
594.20	44830.62
594.36	45219.15
594.52	44818.92
594.68	44343.79
594.84	44318.04
594.99	44762.75
595.15	44662.10
595.31	44844.66
595.47	44418.69
595.62	44935.95
595.78	44507.63
595.94	44458.48
596.10	44825.94
596.25	45020.20
596.41	45013.18
596.57	44994.46
596.73	44711.25
596.88	44598.91
597.04	44477.20
597.20	45191.06
597.36	44800.19
597.51	44547.42
597.67	45038.93
597.83	44835.30
597.99	44711.25
598.14	44587.21
598.30	44767.43
598.46	44456.14
598.61	44416.35
598.77	44416.35
598.93	44266.55
599.09	44940.63
599.24	45275.32
599.40	45050.63
599.56	44865.73
599.71	44437.41
599.87	45172.34
600.03	44575.50
600.18	44486.56
600.34	45027.23
600.50	44818.92
600.65	44652.74
600.81	44460.82
600.97	45216.81
601.12	44898.50
601.28	44708.91
601.44	44767.43
601.59	44406.98
601.75	44332.09
601.91	44409.32
602.06	44399.96
602.22	44524.01
602.37	44662.10
602.53	44512.31
602.69	45193.40
602.84	44687.85
603.00	44013.77
603.16	44715.93
603.31	44926.58
603.47	44617.63
603.62	44538.05
603.78	45338.52
603.94	44786.15
604.09	44811.90
604.25	44751.04
604.40	44769.77
604.56	44666.78
604.71	44879.77
604.87	44657.42
605.03	44704.23
605.18	44540.39
605.34	44411.67
605.49	44245.49
605.65	44839.98
605.80	44758.06
605.96	45003.82
606.12	44605.93
606.27	44839.98
606.43	44596.57
606.58	44645.72
606.74	43966.96
606.89	44449.11
607.05	44662.10
607.20	44575.50
607.36	44779.13
607.51	44746.36
607.67	44767.43
607.82	44737.00
607.98	44315.70
608.13	44655.08
608.29	44666.78
608.44	44158.89
608.60	43810.15
608.75	43840.57
608.91	44177.61
609.06	44421.03
609.22	44556.78
609.37	44091.01
609.53	44500.61
609.68	44313.36
609.84	44128.46
609.99	44107.40
610.15	43908.45
610.30	44226.76
610.46	44142.50
610.61	44048.88
610.76	44364.85
610.92	44247.83
611.07	43899.09
611.23	44147.18
611.38	43955.26
611.54	43470.77
611.69	44065.27
611.84	43519.92
612.00	44343.79
612.15	43789.08
612.31	44055.90
612.46	43798.44
612.62	44266.55
612.77	43910.79
612.92	44161.23
613.08	43693.12
613.23	43737.59
613.39	43639.29
613.54	43714.19
613.69	43903.77
613.85	43749.29
614.00	43580.78
614.15	43849.94
614.31	44088.67
614.46	44535.71
614.62	44287.62
614.77	43761.00
614.92	43955.26
615.08	43643.97
615.23	43571.41
615.38	43695.46
615.54	43367.79
615.69	43608.86
615.84	43157.14
616.00	43435.66
616.15	43480.13
616.30	43421.62
616.46	43122.03
616.61	43257.78
616.76	43555.03
616.92	43061.18
617.07	43246.08
617.22	43028.41
617.37	42843.51
617.53	43742.27
617.68	43466.09
617.83	42897.34
617.99	43482.47
618.14	43253.10
618.29	43318.64
618.45	43084.58
618.60	43023.73
618.75	42934.79
618.90	43173.52
619.06	43215.65
619.21	43213.31
619.36	43639.29
619.51	42911.38
619.67	42550.94
619.82	43477.79
619.97	42993.30
620.12	42539.24
620.28	42756.91
620.43	42527.53
620.58	42454.98
620.73	42803.72
620.89	42960.53
621.04	42742.86
621.19	43035.43
621.34	43014.37
621.49	42710.10
621.65	42712.44
621.80	42618.81
621.95	42719.46
622.10	42770.95
622.25	42302.84
622.41	42316.89
622.56	42787.33
622.71	42616.47
622.86	42246.67
623.01	42691.37
623.16	42525.19
623.32	42263.05
623.47	42583.71
623.62	42277.10
623.77	42127.30
623.92	42363.70
624.07	42061.77
624.23	42174.11
624.38	42368.38
624.53	41874.52
624.68	41663.88
624.83	41961.12
624.98	42190.50
625.13	41720.05
625.29	42319.23
625.44	41977.51
625.59	41839.42
625.74	41411.10
625.89	41598.34
626.04	41841.76
626.19	41764.52
626.34	41900.27
626.49	41858.14
626.65	41890.91
626.80	42078.15
626.95	41869.84
627.10	41265.99
627.25	41420.46
627.40	41235.56
627.55	40924.27
627.70	41460.25
627.85	41537.49
628.00	41570.25
628.15	41500.04
628.30	41193.43
628.45	41691.96
628.60	41610.04
628.76	41528.13
628.91	41638.13
629.06	41713.03
629.21	41088.10
629.36	41050.66
629.51	41289.39
629.66	40638.72
629.81	40582.55
629.96	41067.04
630.11	40978.10
630.26	40971.08
630.41	41392.37
630.56	41221.52
630.71	40732.34
630.86	40807.24
631.01	40781.49
631.16	41104.49
631.31	40772.13
631.46	40762.77
631.61	40844.69
631.76	40877.46
631.91	40453.82
632.06	40821.28
632.21	41043.63
632.36	41067.04
632.51	40734.68
632.66	40779.15
632.81	40343.81
632.96	40568.51
633.10	40744.05
633.25	40727.66
633.40	41144.28
633.55	41041.29
633.70	40554.46
633.85	40388.28
634.00	40575.53
634.15	40758.09
634.30	40479.57
634.45	40336.79
634.60	40390.62
634.75	40451.48
634.90	40259.55
635.05	39821.87
635.19	39798.47
635.34	40549.78
635.49	40196.36
635.64	40048.91
635.79	40699.58
635.94	40009.12
636.09	39842.94
636.24	39739.96
636.39	40201.04
636.53	40067.63
636.68	39803.15
636.83	40023.16
636.98	40247.85
637.13	40135.51
637.28	40292.32
637.43	40062.95
637.57	39962.31
637.72	39742.30
637.87	39864.00
638.02	40051.25
638.17	40268.92
638.32	39655.70
638.46	39239.08
638.61	39997.41
638.76	39524.63
638.91	39674.42
639.06	39440.37
639.20	39690.80
639.35	39875.71
639.50	39910.82
639.65	40231.47
639.80	39950.60
639.94	39840.60
640.09	39641.65
640.24	39409.94
640.39	39239.08
640.54	39344.41
640.68	39391.22
640.83	39510.58
640.98	39232.06
641.13	39295.25
641.27	39655.70
641.42	39428.66
641.57	39313.98
641.72	38948.85
641.86	38761.61
642.01	39019.07
642.16	38885.66
642.31	38639.90
642.45	38822.47
642.60	38569.69
642.75	38958.22
642.90	38803.74
643.04	38909.07
643.19	39124.40
643.34	38543.94
643.48	38794.38
643.63	38660.97
643.78	38827.15
643.93	38354.36
644.07	38466.70
644.22	38658.63
644.37	38492.45
644.51	38780.34
644.66	38726.50
644.81	38951.20
644.95	39161.84
645.10	38995.67
645.25	38939.49
645.39	38904.38
645.54	38728.84
645.69	38436.28
645.83	38677.35
645.98	38431.60
646.13	38478.41
646.27	38677.35
646.42	38487.77
646.57	38679.69
646.71	38529.90
646.86	38174.14
647.00	38375.42
647.15	38286.48
647.30	38263.08
647.44	38302.87
647.59	37853.48
647.74	38543.94
647.88	38218.61
648.03	38192.86
648.17	38213.93
648.32	37912.00
648.47	37940.08
648.61	37741.14
648.76	38167.12
648.90	37584.32
649.05	38036.05
649.20	37984.55
649.34	38469.04
649.49	37598.37
649.63	37951.79
649.78	37993.92
649.92	37689.65
650.07	38284.14
650.21	37432.19
650.36	37490.70
650.51	37469.64
650.65	38323.93
650.80	38291.16
650.94	37944.76
651.09	37865.19
651.23	37500.06
651.38	37448.57
651.52	37085.79
651.67	37401.76
651.81	37134.94
651.96	37453.25
652.10	37488.36
652.25	37223.88
652.39	37647.52
652.54	37310.48
652.68	37240.26
652.83	37581.98
652.97	37881.57
653.12	36765.14
653.26	37411.12
653.41	37347.93
653.55	37174.73
653.70	36989.83
653.84	37090.47
653.99	37188.77
654.13	37333.89
654.27	37127.92
654.42	37198.13
654.56	36945.36
654.71	37486.02
654.85	37228.56
655.00	37329.20
655.14	37031.96
655.29	36739.39
655.43	36538.10
655.57	36552.15
655.72	36687.90
655.86	36570.87
656.01	36481.93
656.15	36648.11
656.30	36491.29
656.44	36442.14
656.58	36659.81
656.73	36294.69
656.87	36458.52
657.01	36479.59
657.16	36917.27
657.30	36245.54
657.45	35992.76
657.59	36657.47
657.73	36421.08
657.88	36940.68
658.02	36507.68
658.16	36470.23
658.31	36292.35
658.45	36236.17
658.60	35988.08
658.74	36187.02
658.88	36053.61
659.03	35749.34
659.17	35831.26
659.31	35674.45
659.46	36224.47
659.60	36023.19
659.74	36037.23
659.89	35393.58
660.03	35718.92
660.17	35857.01
660.32	35512.95
660.46	35833.60
660.60	35613.59
660.74	35835.94
660.89	35735.30
661.03	35747.00
661.17	35339.75
661.32	35037.82
661.46	35178.25
661.60	35662.74
661.74	35288.26
661.89	35257.83
662.03	35660.40
662.17	34820.15
662.31	35133.78
662.46	35101.01
662.60	35115.06
662.74	35246.13
662.88	34763.98
663.03	34714.83
663.17	34391.83
663.31	34937.18
663.45	34726.53
663.60	34763.98
663.74	34597.80
663.88	34298.21
664.02	34288.85
664.17	34424.60
664.31	34190.55
664.45	34394.17
664.59	34256.08
664.73	34160.12
664.88	34459.71
665.02	34007.98
665.16	33823.08
665.30	34328.64
665.44	33820.74
665.59	33989.26
665.73	34059.48
665.87	33663.93
666.01	34089.90
666.15	33666.27
666.29	33600.73
666.44	33993.94
666.58	33799.68
666.72	34071.18
666.86	33364.34
667.00	33727.12
667.14	33694.35
667.28	33081.13
667.43	33027.30
667.57	33607.75
667.71	33172.41
667.85	33397.10
667.99	33521.15
668.13	33223.90
668.27	33158.37
668.41	33333.91
668.56	33291.78
668.70	32807.29
668.84	33254.33
668.98	33036.66
669.12	32713.67
669.26	32610.68
669.40	32325.14
669.54	32442.17
669.68	32470.25
669.82	32224.50
669.96	32203.43
670.10	32580.26
670.25	32212.79
670.39	32163.64
670.53	32418.76
670.67	32236.20
670.81	32416.42
670.95	31744.69
671.09	31999.80
671.23	31988.10
671.37	32030.23
671.51	31999.80
671.65	31658.09
671.79	31597.23
671.93	31505.95
672.07	31810.22
672.21	31330.41
672.35	31351.48
672.49	31672.13
672.63	31344.45
672.77	31417.01
672.91	31215.72
673.05	31470.84
673.19	31103.38
673.33	30948.90
673.47	30984.01
673.61	30995.71
673.75	30658.68
673.89	30555.69
674.03	30764.00
674.17	30309.94
674.31	30635.27
674.45	30441.01
674.59	30338.02
674.73	30604.84
674.87	30534.63
675.01	30356.75
675.15	30253.76
675.29	30628.25
675.43	30256.11
675.56	30183.55
675.70	29970.56
675.84	29762.25
675.98	29001.58
676.12	29715.44
676.26	29802.04
676.40	29851.19
676.54	29401.81
676.68	29558.63
676.82	28884.55
676.96	29441.60
677.10	29340.96
677.23	28910.30
677.37	28945.41
677.51	28987.53
677.65	29083.50
677.79	28671.56
677.93	28606.03
678.07	28112.17
678.21	28364.95
678.34	28233.88
678.48	28215.16
678.62	27995.15
678.76	27662.79
678.90	27398.31
679.04	27559.81
679.18	27646.41
679.31	27662.79
679.45	27620.66
679.59	27590.24
679.73	27232.13
679.87	27328.10
680.00	27103.40
680.14	27122.13
680.28	26955.95
680.42	26675.09
680.56	27374.91
680.70	27400.65
680.83	26787.43
680.97	26937.23
681.11	26803.82
681.25	26686.79
681.39	26363.79
681.52	26515.93
681.66	26590.83
681.80	26469.12
681.94	25977.61
682.07	26134.42
682.21	26157.83
682.35	26003.35
682.49	26150.81
682.62	25942.50
682.76	25855.90
682.90	26047.82
683.04	25631.21
683.17	25500.14
683.31	25191.19
683.45	25350.34
683.59	25392.47
683.72	25090.54
683.86	24781.59
684.00	25268.42
684.13	25116.29
684.27	25046.07
684.41	24706.70
684.55	24201.14
684.68	24217.52
684.82	24584.99
684.96	24451.58
685.09	24526.47
685.23	24163.69
685.37	24102.84
685.50	24159.01
685.64	24362.64
685.78	23976.45
685.91	24091.13
686.05	23791.55
686.19	23360.89
686.32	24084.11
686.46	23302.37
686.60	23241.52
686.73	23285.99
686.87	23152.58
687.01	22899.80
687.14	22703.20
687.28	23080.02
687.42	23047.26
687.55	23030.87
687.69	23260.24
687.82	22684.47
687.96	22813.20
688.10	22618.94
688.23	22237.43
688.37	22162.53
688.50	21905.07
688.64	21785.71
688.78	22178.92
688.91	21956.57
689.05	22122.74
689.18	21792.73
689.32	21518.89
689.46	21895.71
689.59	21813.79
689.73	21926.14
689.86	21535.27
690.00	21418.24
690.13	21341.00
690.27	21200.57
690.41	20851.83
690.54	20994.61
690.68	20842.47
690.81	21001.63
690.95	20826.09
691.08	20821.41
691.22	20617.78
691.35	20926.73
691.49	20652.89
691.62	20657.57
691.76	20535.86
691.89	20039.67
692.03	20346.28
692.16	20301.81
692.30	19770.51
692.43	19850.08
692.57	19838.38
692.70	19730.72
692.84	19641.78
692.97	19772.85
693.11	19803.27
693.24	19445.17
693.38	19414.74
693.51	19199.41
693.65	19262.61
693.78	19286.01
693.92	19250.91
694.05	19187.71
694.19	19098.77
694.32	18759.39
694.45	18581.51
694.59	18829.61
694.72	18331.08
694.86	18523.00
694.99	18429.38
695.13	18412.99
695.26	18455.12
695.39	18366.18
695.53	18286.61
695.66	18298.31
695.80	18427.04
695.93	18094.68
696.07	18200.01
696.20	17989.36
696.33	17989.36
696.47	17701.47
696.60	17961.27
696.73	17694.45
696.87	17649.98
697.00	17785.73
697.14	17315.28
697.27	17305.92
697.40	17675.73
697.54	16947.82
697.67	17104.64
697.80	17083.57
697.94	16863.56
698.07	16798.02
698.21	16706.74
698.34	16774.62
698.47	16594.40
698.61	16402.47
698.74	16374.39
698.87	16374.39
699.01	16046.71
699.14	16128.63
699.27	15878.19
699.40	15852.45
699.54	16023.31
699.67	15707.34
699.80	15915.64
699.94	15829.04
700.07	15927.35
700.20	15697.97
700.34	15658.18
700.47	15644.14
700.60	15882.88
700.73	15550.52
700.87	15611.37
701.00	15267.31
701.13	15442.85
701.26	15220.50
701.40	15138.58
701.53	14850.70
701.66	14934.96
701.79	14885.81
701.93	15026.24
702.06	14766.44
702.19	14853.04
702.32	14586.22
702.46	14843.68
702.59	14438.76
702.72	14656.43
702.85	14483.24
702.99	14326.42
703.12	14232.80
703.25	14141.52
703.38	14036.19
703.51	13731.92
703.65	14391.95
703.78	14047.90
703.91	13921.51
704.04	13879.38
704.17	13809.16
704.31	13886.40
704.44	13717.88
704.57	13556.38
704.70	13589.15
704.83	13617.24
704.96	13565.74
705.10	13547.02
705.23	13586.81
>>>>>End Processed Spectral Data<<<<<
