SpectraSuite Data File
++++++++++++++++++++++++++++++++++++
Date: Fri Oct 25 11:33:24 EDT 2013
User: price-jones
Dark Spectrum Present: No
Reference Spectrum Present: No
Number of Sampled Component Spectra: 1
Spectrometers: USB2+H05261
Integration Time (usec): 100000 (USB2+H05261)
Spectra Averaged: 1 (USB2+H05261)
Boxcar Smoothing: 0 (USB2+H05261)
Correct for Electrical Dark: No (USB2+H05261)
Strobe/Lamp Enabled: No (USB2+H05261)
Correct for Detector Non-linearity: No (USB2+H05261)
Correct for Stray Light: No (USB2+H05261)
Number of Pixels in Processed Spectrum: 2048
>>>>>Begin Processed Spectral Data<<<<<
365.73	311.29
365.92	311.29
366.12	311.29
366.32	191.92
366.52	184.90
366.72	173.20
366.91	95.96
367.11	138.09
367.31	168.52
367.51	208.31
367.70	229.37
367.90	114.69
368.10	154.48
368.30	203.63
368.49	208.31
368.69	262.14
368.89	191.92
369.09	222.35
369.28	201.29
369.48	250.44
369.68	248.10
369.87	245.76
370.07	243.42
370.27	311.29
370.47	318.31
370.66	510.24
370.86	512.58
371.06	535.98
371.25	547.69
371.45	552.37
371.65	517.26
371.84	461.09
372.04	573.43
372.24	557.05
372.44	624.92
372.63	589.82
372.83	636.63
373.03	582.79
373.22	596.84
373.42	592.16
373.62	606.20
373.81	617.90
374.01	610.88
374.21	643.65
374.40	519.60
374.60	622.58
374.79	629.60
374.99	746.63
375.19	643.65
375.38	718.54
375.58	559.39
375.78	559.39
375.97	702.16
376.17	641.31
376.37	678.76
376.56	645.99
376.76	559.39
376.95	554.71
377.15	704.50
377.35	674.07
377.54	671.73
377.74	657.69
377.93	723.23
378.13	741.95
378.33	720.88
378.52	692.80
378.72	681.10
378.91	718.54
379.11	751.31
379.31	725.57
379.50	674.07
379.70	770.04
379.89	772.38
380.09	786.42
380.28	734.93
380.48	772.38
380.68	709.18
380.87	746.63
381.07	725.57
381.26	716.20
381.46	837.91
381.65	821.53
381.85	833.23
382.04	706.84
382.24	791.10
382.43	814.51
382.63	716.20
382.83	734.93
383.02	819.19
383.22	821.53
383.41	809.83
383.61	819.19
383.80	842.59
384.00	788.76
384.19	770.04
384.39	819.19
384.58	739.61
384.78	814.51
384.97	889.40
385.17	753.65
385.36	863.66
385.56	851.96
385.75	854.30
385.95	830.89
386.14	947.92
386.34	877.70
386.53	959.62
386.72	814.51
386.92	882.38
387.11	880.04
387.31	908.13
387.50	877.70
387.70	816.85
387.89	840.25
388.09	940.90
388.28	987.71
388.48	1020.47
388.67	887.06
388.86	961.96
389.06	973.66
389.25	997.07
389.45	966.64
389.64	1001.75
389.84	964.30
390.03	973.66
390.22	1062.60
390.42	1008.77
390.61	1034.52
390.81	938.55
391.00	964.30
391.19	978.34
391.39	987.71
391.58	1055.58
391.78	999.41
391.97	1053.24
392.16	1074.31
392.36	1034.52
392.55	1160.91
392.75	1100.05
392.94	1015.79
393.13	1029.84
393.33	1053.24
393.52	1022.81
393.71	1109.41
393.91	1158.57
394.10	1032.18
394.29	1088.35
394.49	1086.01
394.68	1064.94
394.88	1081.33
395.07	1116.44
395.26	1057.92
395.46	1163.25
395.65	1193.67
395.84	1177.29
396.04	1139.84
396.23	1219.42
396.42	1137.50
396.62	1240.48
396.81	1217.08
397.00	1210.06
397.19	1233.46
397.39	1212.40
397.58	1249.85
397.77	1291.98
397.97	1291.98
398.16	1315.38
398.35	1282.61
398.55	1306.02
398.74	1247.51
398.93	1390.28
399.12	1268.57
399.32	1249.85
399.51	1296.66
399.70	1348.15
399.90	1425.39
400.09	1423.05
400.28	1371.55
400.47	1324.74
400.67	1406.66
400.86	1376.24
401.05	1394.96
401.24	1406.66
401.44	1430.07
401.63	1490.92
401.82	1519.01
402.01	1373.89
402.21	1633.69
402.40	1558.80
402.59	1507.30
402.78	1390.28
402.97	1446.45
403.17	1533.05
403.36	1502.62
403.55	1640.72
403.74	1565.82
403.93	1689.87
404.13	1671.14
404.32	1610.29
404.51	1572.84
404.70	1584.54
404.89	1689.87
405.09	1636.03
405.28	1715.61
405.47	1689.87
405.66	1673.48
405.85	1757.74
406.05	1652.42
406.24	1687.53
406.43	1781.15
406.62	1954.35
406.81	1853.70
407.00	1671.14
407.20	1746.04
407.39	1879.45
407.58	1879.45
407.77	1811.57
407.96	1968.39
408.15	1935.62
408.34	1827.96
408.54	1937.96
408.73	1893.49
408.92	1923.92
409.11	1919.24
409.30	2083.08
409.49	2052.65
409.68	1996.48
409.87	1987.11
410.07	1935.62
410.26	2005.84
410.45	1994.14
410.64	2029.24
410.83	2122.87
411.02	2106.48
411.21	2141.59
411.40	2040.95
411.59	2225.85
411.78	2174.36
411.98	2094.78
412.17	2172.02
412.36	2125.21
412.55	2338.20
412.74	2188.40
412.93	2340.54
413.12	2286.70
413.31	2321.81
413.50	2377.98
413.69	2422.45
413.88	2518.42
414.07	2401.39
414.26	2459.90
414.45	2562.89
414.64	2593.31
414.83	2583.95
415.02	2574.59
415.22	2663.53
415.41	2649.49
415.60	2661.19
415.79	2682.25
415.98	2633.10
416.17	2743.11
416.36	2661.19
416.55	2832.05
416.74	2775.88
416.93	2820.35
417.12	2745.45
417.31	2787.58
417.50	2883.54
417.69	2953.76
417.88	2876.52
418.07	3030.99
418.26	3016.95
418.45	3077.80
418.64	2979.50
418.83	3052.06
419.02	3000.57
419.21	3133.98
419.39	3023.97
419.58	3080.14
419.77	2991.20
419.96	3155.04
420.15	3220.58
420.34	3262.71
420.53	3211.22
420.72	3213.56
420.91	3222.92
421.10	3279.09
421.29	3258.03
421.48	3281.43
421.67	3332.92
421.86	3304.84
422.05	3330.58
422.24	3265.05
422.43	3276.75
422.61	3346.97
422.80	3384.41
422.99	3379.73
423.18	3297.81
423.37	3393.78
423.56	3398.46
423.75	3330.58
423.94	3339.94
424.13	3232.28
424.32	3428.88
424.50	3431.23
424.69	3496.76
424.88	3576.34
425.07	3407.82
425.26	3417.18
425.45	3438.25
425.64	3403.14
425.83	3396.12
426.01	3424.20
426.20	3442.93
426.39	3620.81
426.58	3541.23
426.77	3510.80
426.96	3520.17
427.15	3478.04
427.33	3695.71
427.52	3648.90
427.71	3651.24
427.90	3707.41
428.09	3679.32
428.28	3798.69
428.46	3712.09
428.65	3726.13
428.84	3857.20
429.03	3777.62
429.22	3588.04
429.40	3749.54
429.59	3744.86
429.78	3768.26
429.97	3595.06
430.16	3831.46
430.34	3810.39
430.53	3777.62
430.72	3904.01
430.91	3786.99
431.10	3754.22
431.28	3896.99
431.47	3999.98
431.66	4004.66
431.85	3922.74
432.03	4025.72
432.22	4049.13
432.41	3934.44
432.60	3950.82
432.79	3880.61
432.97	4028.06
433.16	4105.30
433.35	4297.22
433.54	4117.00
433.72	4154.45
433.91	4035.08
434.10	4159.13
434.28	4210.62
434.47	4217.65
434.66	4198.92
434.85	4355.74
435.03	4250.41
435.22	4341.69
435.41	4418.93
435.59	4458.72
435.78	4550.00
435.97	4461.06
436.16	4292.54
436.34	4208.28
436.53	4411.91
436.72	4531.28
436.90	4447.02
437.09	4540.64
437.28	4514.89
437.46	4608.51
437.65	4744.27
437.84	4580.43
438.02	4533.62
438.21	4667.03
438.40	4498.51
438.58	4812.14
438.77	4706.82
438.96	4732.56
439.14	4842.57
439.33	4875.34
439.52	4840.23
439.70	4889.38
439.89	5114.07
440.08	5057.90
440.26	4933.85
440.45	4973.64
440.63	5041.51
440.82	5263.86
441.01	5074.28
441.19	5004.07
441.38	5270.89
441.57	5273.23
441.75	5320.04
441.94	5373.87
442.12	5385.57
442.31	5390.25
442.50	5380.89
442.68	5472.17
442.87	5568.13
443.05	5474.51
443.24	5556.43
443.43	5392.59
443.61	5544.73
443.80	5753.04
443.98	5502.60
444.17	5561.11
444.35	5612.60
444.54	5659.42
444.73	5591.54
444.91	5614.95
445.10	5598.56
445.28	5694.52
445.47	5565.79
445.65	5575.16
445.84	5792.83
446.02	5762.40
446.21	5675.80
446.39	5750.70
446.58	5834.96
446.77	5736.65
446.95	5610.26
447.14	5809.21
447.32	5870.06
447.51	5781.12
447.69	5748.36
447.88	5844.32
448.06	5706.23
448.25	5767.08
448.43	5724.95
448.62	5830.27
448.80	5863.04
448.99	5832.62
449.17	5916.87
449.36	5795.17
449.54	5987.09
449.73	6026.88
449.91	6319.45
450.10	6015.18
450.28	6003.47
450.46	6139.23
450.65	6026.88
450.83	6251.57
451.02	6179.01
451.20	6258.59
451.39	6312.42
451.57	6249.23
451.76	6038.58
451.94	6122.84
452.13	6359.24
452.31	6441.15
452.49	6193.06
452.68	6401.37
452.86	6279.66
453.05	6436.47
453.23	6445.84
453.42	6340.51
453.60	6263.27
453.78	6502.01
453.97	6485.62
454.15	6384.98
454.34	6455.20
454.52	6319.45
454.70	6469.24
454.89	6490.31
455.07	6658.82
455.26	6616.69
455.44	6745.42
455.62	6661.16
455.81	6787.55
455.99	6672.87
456.17	6607.33
456.36	6722.02
456.54	6796.92
456.73	6993.52
456.91	6906.92
457.09	6995.86
457.28	7068.42
457.46	6984.16
457.64	6930.33
457.83	7162.04
458.01	6869.47
458.19	7143.32
458.38	7049.69
458.56	7187.79
458.74	7248.64
458.93	7304.81
459.11	7171.40
459.29	7328.22
459.48	7353.96
459.66	7351.62
459.84	7459.29
460.03	7325.88
460.21	7478.01
460.39	7403.11
460.57	7370.35
460.76	7403.11
460.94	7515.46
461.12	7522.48
461.31	7447.58
461.49	7569.29
461.67	7440.56
461.85	7772.92
462.04	7665.25
462.22	8222.30
462.40	7798.66
462.59	7606.74
462.77	7758.88
462.95	8121.66
463.13	7955.48
463.32	7793.98
463.50	7822.07
463.68	7861.86
463.86	7903.99
464.05	7948.46
464.23	7922.71
464.41	7999.95
464.59	7974.21
464.78	8222.30
464.96	7885.26
465.14	8107.62
465.32	8168.47
465.50	8210.60
465.69	8280.82
465.87	8234.00
466.05	8021.02
466.23	8196.56
466.41	8259.75
466.60	8376.78
466.78	8124.00
466.96	8145.06
467.14	8180.17
467.32	8336.99
467.51	8418.91
467.69	8056.12
467.87	8388.48
468.05	8493.80
468.23	8313.58
468.41	8322.94
468.60	8332.31
468.78	8496.14
468.96	8425.93
469.14	8617.85
469.32	8540.61
469.50	8414.23
469.69	8603.81
469.87	8922.12
470.05	8676.37
470.23	9060.21
470.41	8760.63
470.59	8978.30
470.77	8674.03
470.95	8915.10
471.14	8992.34
471.32	8784.03
471.50	9123.41
471.68	8973.61
471.86	8968.93
472.04	9128.09
472.22	9542.36
472.40	9350.44
472.58	9149.15
472.77	9247.46
472.95	9252.14
473.13	9542.36
473.31	9301.29
473.49	9479.17
473.67	9460.45
473.85	9626.62
474.03	9699.18
474.21	9652.37
474.39	9645.35
474.57	9703.86
474.75	9987.07
474.93	9888.76
475.12	10178.99
475.30	10230.48
475.48	9881.74
475.66	10153.24
475.84	10066.64
476.02	10026.86
476.20	10317.08
476.38	10401.34
476.56	10661.14
476.74	10391.98
476.92	10686.89
477.10	10513.69
477.28	10860.09
477.46	10988.82
477.64	10796.89
477.82	11052.01
478.00	11335.21
478.18	11096.48
478.36	11178.40
478.54	11332.87
478.72	11513.10
478.90	11604.38
479.08	11592.67
479.26	11681.61
479.44	11676.93
479.62	11875.88
479.80	11829.07
479.98	11990.56
480.16	12437.61
480.34	12348.67
480.52	12299.52
480.70	12217.60
480.88	12231.64
481.06	12210.57
481.24	12414.20
481.41	12568.68
481.59	12901.03
481.77	12695.07
481.95	12882.31
482.13	13177.22
482.31	13055.51
482.49	13444.04
482.67	13238.07
482.85	13357.44
483.03	13675.75
483.21	13713.20
483.39	13905.12
483.57	13570.43
483.74	14031.51
483.92	14017.47
484.10	13907.46
484.28	14347.48
484.46	14604.94
484.64	14679.84
484.82	14574.52
485.00	14824.95
485.18	14897.51
485.35	15115.18
485.53	15005.17
485.71	15152.63
485.89	15800.96
486.07	15344.55
486.25	15740.10
486.43	15665.21
486.61	15653.50
486.78	15777.55
486.96	15899.26
487.14	16210.55
487.32	16109.91
487.50	16306.51
487.68	16716.11
487.85	16510.14
488.03	17006.33
488.21	16971.22
488.39	17069.53
488.57	17050.80
488.75	17268.47
488.92	17495.50
489.10	17771.69
489.28	17715.51
489.46	17954.25
489.64	17916.80
489.81	18408.31
489.99	17940.21
490.17	18523.00
490.35	18317.03
490.53	18686.84
490.70	18941.96
490.88	18883.44
491.06	18902.17
491.24	19054.30
491.41	19262.61
491.59	19473.26
491.77	19222.82
491.95	19672.20
492.13	19711.99
492.30	19508.37
492.48	19847.74
492.66	19742.42
492.84	20051.37
493.01	20116.90
493.19	20276.06
493.37	20498.41
493.54	20556.93
493.72	20973.54
493.90	20500.75
494.08	20762.89
494.25	21170.15
494.43	21193.55
494.61	21200.57
494.79	21060.14
494.96	21338.66
495.14	21495.48
495.32	21916.78
495.49	21689.74
495.67	21729.53
495.85	22033.80
496.02	22434.03
496.20	22398.93
496.38	22436.38
496.55	22473.82
496.73	23183.01
496.91	22700.86
497.09	22850.65
497.26	23180.67
497.44	22888.10
497.62	23271.95
497.79	23346.84
497.97	23552.81
498.14	23632.39
498.32	24070.07
498.50	23838.36
498.67	24212.84
498.85	24126.24
499.03	24154.33
499.20	24109.86
499.38	24425.83
499.56	24332.21
499.73	24292.42
499.91	24444.56
500.08	24592.01
500.26	24725.42
500.44	24893.94
500.61	24851.81
500.79	24945.43
500.97	25125.65
501.14	25357.36
501.32	25256.72
501.49	25053.09
501.67	25612.48
501.84	25692.06
502.02	25694.40
502.20	25781.00
502.37	25645.25
502.55	25572.69
502.72	26129.74
502.90	25986.97
503.07	25898.03
503.25	26274.85
503.43	25846.54
503.60	26426.99
503.78	26677.43
503.95	26576.78
504.13	26455.08
504.30	26986.38
504.48	26778.07
504.65	26780.41
504.83	27168.94
505.01	27548.11
505.18	27098.72
505.36	27498.95
505.53	27307.03
505.71	27384.27
505.88	27702.58
506.06	27576.19
506.23	27365.54
506.41	27611.30
506.58	28039.62
506.76	27974.08
506.93	27915.57
507.11	27962.38
507.28	28311.12
507.46	28180.05
507.63	28261.97
507.81	28540.49
507.98	28669.22
508.16	28577.94
508.33	28739.44
508.50	28847.10
508.68	28994.56
508.85	29092.86
509.03	28950.09
509.20	28966.47
509.38	29383.09
509.55	29584.37
509.73	29404.15
509.90	29504.79
510.08	29378.40
510.25	29661.61
510.42	29387.77
510.60	29467.34
510.77	30061.84
510.95	30157.80
511.12	30080.56
511.30	30218.66
511.47	30323.98
511.64	30026.73
511.82	30403.56
511.99	30354.41
512.17	30543.99
512.34	30389.52
512.51	31000.40
512.69	31040.18
512.86	31051.89
513.04	30764.00
513.21	30958.27
513.38	31042.53
513.56	31391.26
513.73	31426.37
513.90	31421.69
514.08	31363.18
514.25	32027.89
514.43	31732.98
514.60	31447.44
514.77	31700.22
514.95	31915.54
515.12	31646.38
515.29	31941.29
515.47	32163.64
515.64	32023.21
515.81	31770.43
515.99	32364.93
516.16	32737.07
516.33	32556.85
516.51	32531.11
516.68	32507.70
516.85	32357.91
517.03	33158.37
517.20	33266.03
517.37	32678.56
517.54	32847.08
517.72	32971.13
517.89	33043.68
518.06	33053.05
518.24	33020.28
518.41	33003.89
518.58	33537.54
518.75	33357.32
518.93	33338.59
519.10	33228.59
519.27	33298.80
519.45	33450.94
519.62	33532.86
519.79	33614.77
519.96	34073.52
520.14	34125.01
520.31	33656.90
520.48	34012.66
520.65	34316.93
520.83	34815.47
521.00	34775.68
521.17	34052.45
521.34	34483.11
521.52	34693.76
521.69	34504.18
521.86	35047.18
522.03	35030.80
522.20	34948.88
522.38	35110.38
522.55	35171.23
522.72	35358.47
522.89	35821.90
523.07	35276.55
523.24	35306.98
523.41	35765.73
523.58	35468.48
523.75	35601.89
523.92	35454.44
524.10	35562.10
524.27	35871.05
524.44	35756.36
524.61	35826.58
524.78	35978.72
524.96	36135.53
525.13	36072.34
525.30	36620.02
525.47	36739.39
525.64	36109.78
525.81	36474.91
525.98	36070.00
526.16	36378.95
526.33	36451.50
526.50	36898.55
526.67	36252.56
526.84	36903.23
527.01	37099.83
527.18	36968.76
527.36	37137.28
527.53	37134.94
527.70	37294.10
527.87	37305.80
528.04	37167.71
528.21	37724.75
528.38	37429.85
528.55	37792.63
528.72	37120.90
528.89	37289.42
529.07	37406.44
529.24	37743.48
529.41	37504.74
529.58	37560.92
529.75	37717.73
529.92	37839.44
530.09	37666.24
530.26	37642.84
530.43	37886.25
530.60	37446.23
530.77	37853.48
530.94	37638.15
531.11	38026.68
531.28	38045.41
531.46	38096.90
531.63	38244.35
531.80	38251.38
531.97	38642.24
532.14	38480.75
532.31	37998.60
532.48	38455.00
532.65	38609.48
532.82	38576.71
532.99	39040.14
533.16	38309.89
533.33	38841.19
533.50	39068.22
533.67	38948.85
533.84	38677.35
534.01	38829.49
534.18	38841.19
534.35	39386.54
534.52	39484.84
534.69	39543.35
534.86	39517.60
535.03	39735.27
535.20	39737.62
535.37	39679.10
535.54	40069.97
535.71	39927.20
535.88	40025.50
536.05	39576.12
536.22	39917.84
536.38	39505.90
536.55	39573.78
536.72	39711.87
536.89	39526.97
537.06	39786.77
537.23	40048.91
537.40	39985.71
537.57	40128.48
537.74	40168.27
537.91	40325.09
538.08	40201.04
538.25	40025.50
538.42	40212.74
538.59	40832.99
538.75	40257.21
538.92	40617.66
539.09	40423.39
539.26	40722.98
539.43	40725.32
539.60	40549.78
539.77	40671.49
539.94	41284.71
540.11	40811.92
540.28	40509.99
540.44	40989.80
540.61	40898.52
540.78	40751.07
540.95	41200.45
541.12	40837.67
541.29	41179.39
541.46	41200.45
541.62	41123.21
541.79	41357.27
541.96	40842.35
542.13	41069.38
542.30	41120.87
542.47	41462.59
542.63	41544.51
542.80	41848.78
542.97	42087.51
543.14	41968.15
543.31	41769.20
543.48	41457.91
543.64	42211.56
543.81	42071.13
543.98	42117.94
544.15	41855.80
544.32	42342.63
544.48	42696.05
544.65	42447.96
544.82	42693.71
544.99	42328.59
545.16	42387.10
545.32	42443.27
545.49	42632.86
545.66	42714.78
545.83	42515.83
546.00	42944.15
546.16	42703.07
546.33	42691.37
546.50	42424.55
546.67	42799.04
546.83	42230.29
547.00	42763.93
547.17	42988.62
547.34	42813.08
547.50	42974.58
547.67	43611.20
547.84	43131.39
548.00	43316.29
548.17	43133.73
548.34	42899.68
548.51	43257.78
548.67	43255.44
548.84	43178.20
549.01	43250.76
549.18	43210.97
549.34	43704.82
549.51	43639.29
549.68	43934.20
549.84	43545.67
550.01	43622.90
550.18	43477.79
550.34	43824.19
550.51	43929.51
550.68	44044.20
550.84	43510.56
551.01	43934.20
551.18	43746.95
551.34	44154.21
551.51	43882.70
551.68	43775.04
551.84	44088.67
552.01	44006.75
552.18	44165.91
552.34	43868.66
552.51	44355.49
552.68	44357.83
552.84	44545.08
553.01	44470.18
553.18	44732.32
553.34	44313.36
553.51	43920.15
553.67	44603.59
553.84	44486.56
554.01	44619.97
554.17	44727.64
554.34	44933.60
554.51	44507.63
554.67	44519.33
554.84	44739.34
555.00	44851.69
555.17	44753.38
555.33	44903.18
555.50	44755.72
555.67	44912.54
555.83	44748.70
556.00	45013.18
556.16	45317.45
556.33	44861.05
556.50	45202.77
556.66	45301.07
556.83	44690.19
556.99	45301.07
557.16	45219.15
557.32	45343.20
557.49	45008.50
557.65	44797.85
557.82	45471.93
557.98	45029.57
558.15	45207.45
558.32	45595.98
558.48	44746.36
558.65	45085.74
558.81	45282.34
558.98	45226.17
559.14	45368.94
559.31	45352.56
559.47	45195.74
559.64	45605.34
559.80	45317.45
559.97	46038.34
560.13	45113.83
560.30	45460.23
560.46	45785.56
560.63	45745.77
560.79	46012.59
560.96	45668.53
561.12	45713.00
561.29	45743.43
561.45	46192.81
561.61	46054.72
561.78	45963.44
561.94	45993.87
562.11	45640.45
562.27	45853.44
562.44	45911.95
562.60	46232.60
562.77	45975.14
562.93	46078.13
563.10	46085.15
563.26	46101.53
563.42	46155.36
563.59	45928.33
563.75	46230.26
563.92	46174.09
564.08	45820.67
564.24	46288.77
564.41	46141.32
564.57	46178.77
564.74	46211.54
564.90	45963.44
565.07	46188.13
565.23	46094.51
565.39	46469.00
565.56	46518.15
565.72	46244.30
565.88	46387.08
566.05	45975.14
566.21	46363.67
566.38	46078.13
566.54	46356.65
566.70	46197.49
566.87	46483.04
567.03	46167.07
567.19	46469.00
567.36	46347.29
567.52	46087.49
567.68	46902.00
567.85	46497.08
568.01	46911.36
568.17	46483.04
568.34	46878.59
568.50	46305.16
568.66	46714.75
568.83	46389.42
568.99	46422.19
569.15	46768.58
569.32	46389.42
569.48	46927.74
569.64	46827.10
569.81	47363.08
569.97	46684.33
570.13	47124.35
570.30	46347.29
570.46	46686.67
570.62	46801.35
570.78	46567.30
570.95	46426.87
571.11	46394.10
571.27	46925.40
571.43	46714.75
571.60	46726.46
571.76	46939.44
571.92	46937.10
572.09	46920.72
572.25	46824.76
572.41	47063.49
572.57	47180.52
572.74	47449.68
572.90	46887.95
573.06	47180.52
573.22	47086.90
573.38	47285.84
573.55	46740.50
573.71	47122.01
573.87	47395.85
574.03	47075.19
574.20	47105.62
574.36	47063.49
574.52	47306.91
574.68	47243.71
574.84	47131.37
575.01	47304.57
575.17	47374.78
575.33	46883.27
575.49	47021.36
575.65	47227.33
575.82	47236.69
575.98	46923.06
576.14	47159.45
576.30	47519.90
576.46	47016.68
576.62	47044.77
576.79	47089.24
576.95	46731.14
577.11	47077.54
577.27	46906.68
577.43	46979.23
577.59	47236.69
577.75	47178.18
577.92	46801.35
578.08	47430.96
578.24	47538.62
578.40	47129.03
578.56	47304.57
578.72	47379.46
578.88	47543.30
579.04	47414.57
579.21	47810.12
579.37	47082.22
579.53	47239.03
579.69	47084.56
579.85	47299.89
580.01	47721.18
580.17	47498.83
580.33	47365.42
580.49	47428.62
580.65	47828.85
580.82	47421.59
580.98	47089.24
581.14	47241.37
581.30	47660.33
581.46	46911.36
581.62	47236.69
581.78	47100.94
581.94	47391.17
582.10	47524.58
582.26	47833.53
582.42	47199.24
582.58	47711.82
582.74	47618.20
582.90	47437.98
583.06	47489.47
583.22	47374.78
583.38	48030.13
583.54	47489.47
583.70	47583.09
583.86	47445.00
584.02	47299.89
584.18	47803.10
584.34	47894.38
584.50	47356.06
584.66	47480.11
584.82	47449.68
584.98	48116.73
585.14	47744.59
585.30	47440.32
585.46	47276.48
585.62	47351.38
585.78	47459.04
585.94	47381.80
586.10	47388.83
586.26	47782.04
586.42	47604.16
586.58	47749.27
586.74	47194.56
586.90	46550.91
587.06	47533.94
587.22	47466.06
587.38	47536.28
587.54	48027.79
587.70	48093.33
587.86	47835.87
588.02	46993.28
588.18	47714.16
588.34	47810.12
588.49	47461.38
588.65	47583.09
588.81	47833.53
588.97	47559.69
589.13	47456.70
589.29	47496.49
589.45	47920.13
589.61	47772.67
589.77	48250.14
589.93	47840.55
590.08	48170.57
590.24	48149.50
590.40	48107.37
590.56	47969.28
590.72	48088.65
590.88	47936.51
591.04	47887.36
591.20	48112.05
591.35	47983.32
591.51	48336.74
591.67	47966.94
591.83	48603.56
591.99	47922.47
592.15	48074.60
592.31	47409.89
592.46	47824.17
592.62	47702.46
592.78	47861.61
592.94	48516.96
593.10	48067.58
593.26	48612.93
593.41	48367.17
593.57	48123.75
593.73	48044.18
593.89	48392.92
594.05	48493.56
594.20	48362.49
594.36	48521.65
594.52	48435.05
594.68	48273.55
594.84	48025.45
594.99	48570.80
595.15	48170.57
595.31	48048.86
595.47	48233.76
595.62	48278.23
595.78	47753.95
595.94	48474.84
596.10	48179.93
596.25	48385.89
596.41	48200.99
596.57	47936.51
596.73	48591.86
596.88	48367.17
597.04	48409.30
597.20	48589.52
597.36	48376.53
597.51	48378.87
597.67	48032.47
597.83	48608.25
597.99	48238.44
598.14	48163.54
598.30	48446.75
598.46	48425.68
598.61	48648.03
598.77	48287.59
598.93	48739.32
599.09	48369.51
599.24	48800.17
599.40	48601.22
599.56	48280.57
599.71	48488.88
599.87	48975.71
600.03	48767.40
600.18	48442.07
600.34	48315.68
600.50	48413.98
600.65	48582.50
600.81	48456.11
600.97	48528.67
601.12	48570.80
601.28	48526.33
601.44	48744.00
601.59	48547.39
601.75	48809.53
601.91	48458.45
602.06	48474.84
602.22	48816.55
602.37	48528.67
602.53	48261.85
602.69	48837.62
602.84	48149.50
603.00	48357.81
603.16	48413.98
603.31	48423.34
603.47	48512.28
603.62	48549.73
603.78	48243.12
603.94	48692.50
604.09	48467.81
604.25	48395.26
604.40	48257.17
604.56	48725.27
604.71	48619.95
604.87	48245.46
605.03	48364.83
605.18	48423.34
605.34	48650.38
605.49	47936.51
605.65	48481.86
605.80	48191.63
605.96	48182.27
606.12	48254.82
606.27	48622.29
606.43	48182.27
606.58	48392.92
606.74	48390.58
606.89	48446.75
607.05	48315.68
607.20	48753.36
607.36	48458.45
607.51	48390.58
607.67	47852.25
607.82	48142.48
607.98	48013.75
608.13	48467.81
608.29	48413.98
608.44	48411.64
608.60	48123.75
608.75	48570.80
608.91	48280.57
609.06	48278.23
609.22	48460.79
609.37	47934.17
609.53	48561.44
609.68	48767.40
609.84	48002.05
609.99	48250.14
610.15	48554.41
610.30	48596.54
610.46	48250.14
610.61	48240.78
610.76	48505.26
610.92	48041.84
611.07	48105.03
611.23	48020.77
611.38	48072.26
611.54	48322.70
611.69	48069.92
611.84	48446.75
612.00	47973.96
612.15	47868.64
612.31	48406.96
612.46	47592.45
612.62	47793.74
612.77	48154.18
612.92	48282.91
613.08	47725.86
613.23	48107.37
613.39	47831.19
613.54	47426.28
613.69	48030.13
613.85	47821.83
614.00	47606.50
614.15	48107.37
614.31	47821.83
614.46	48032.47
614.62	47814.80
614.77	47468.40
614.92	47749.27
615.08	47995.03
615.23	47835.87
615.38	47920.13
615.54	47789.06
615.69	47702.46
615.84	47599.47
616.00	47936.51
616.15	47672.03
616.30	47894.38
616.46	47735.23
616.61	47868.64
616.76	47770.33
616.92	47543.30
617.07	47477.77
617.22	47391.17
617.37	47199.24
617.53	47475.43
617.68	47459.04
617.83	47538.62
617.99	47475.43
618.14	47915.45
618.29	47107.96
618.45	46955.83
618.60	47210.95
618.75	47136.05
618.90	47327.97
619.06	47304.57
619.21	47302.23
619.36	47599.47
619.51	47522.24
619.67	47154.77
619.82	46995.62
619.97	47466.06
620.12	46951.15
620.28	47072.85
620.43	47332.65
620.58	47037.75
620.73	47178.18
620.89	47339.68
621.04	47414.57
621.19	46953.49
621.34	47157.11
621.49	47070.51
621.65	46660.92
621.80	47166.48
621.95	47288.18
622.10	47030.72
622.25	46637.51
622.41	46759.22
622.56	47112.64
622.71	47152.43
622.86	46700.71
623.01	46885.61
623.16	46911.36
623.32	46653.90
623.47	46773.27
623.62	46698.37
623.77	46824.76
623.92	46712.41
624.07	46735.82
624.23	46911.36
624.38	46836.46
624.53	46476.02
624.68	46382.40
624.83	46115.58
624.98	46520.49
625.13	46185.79
625.29	46138.98
625.44	46389.42
625.59	46784.97
625.74	46358.99
625.89	46064.08
626.04	46380.06
626.19	46326.22
626.34	46349.63
626.49	46064.08
626.65	45834.71
626.80	46162.39
626.95	46150.68
627.10	45743.43
627.25	46206.86
627.40	46120.26
627.55	46024.29
627.70	45949.40
627.85	46115.58
628.00	46237.28
628.15	46141.32
628.30	45780.88
628.45	45727.05
628.60	45415.76
628.76	45727.05
628.91	45853.44
629.06	45528.10
629.21	45600.66
629.36	45626.40
629.51	45617.04
629.66	46286.43
629.81	45647.47
629.96	45925.99
630.11	45925.99
630.26	45375.97
630.41	45883.86
630.56	45588.95
630.71	45336.18
630.86	45507.04
631.01	45202.77
631.16	45062.33
631.31	45549.17
631.46	45008.50
631.61	45708.32
631.76	45535.12
631.91	45656.83
632.06	45546.82
632.21	45755.13
632.36	45483.63
632.51	44856.37
632.66	45265.96
632.81	45109.14
632.96	45446.18
633.10	44837.64
633.25	45361.92
633.40	45153.62
633.55	45272.98
633.70	45387.67
633.85	44816.58
634.00	45324.47
634.15	44734.66
634.30	44795.51
634.45	45155.96
634.60	45008.50
634.75	45041.27
634.90	44879.77
635.05	45411.07
635.19	45085.74
635.34	45071.70
635.49	44828.28
635.64	45244.90
635.79	45085.74
635.94	44760.40
636.09	45254.26
636.24	45038.93
636.39	44861.05
636.53	44783.81
636.68	44130.80
636.83	44435.07
636.98	44629.34
637.13	44552.10
637.28	44144.84
637.43	44048.88
637.57	44666.78
637.72	44121.44
637.87	44683.17
638.02	44634.02
638.17	44304.00
638.32	44308.68
638.46	44009.09
638.61	44030.16
638.76	44163.57
638.91	44294.64
639.06	43964.62
639.20	43969.30
639.35	44067.61
639.50	43831.21
639.65	44151.87
639.80	44582.52
639.94	44570.82
640.09	44304.00
640.24	43833.55
640.39	43475.45
640.54	43681.42
640.68	43615.88
640.83	44512.31
640.98	43704.82
641.13	43613.54
641.27	44425.71
641.42	43957.60
641.57	43672.06
641.72	44051.22
641.86	43793.76
642.01	43676.74
642.16	43681.42
642.31	42848.19
642.45	43943.56
642.60	43407.58
642.75	43854.62
642.90	43402.89
643.04	43863.98
643.19	43442.68
643.34	43402.89
643.48	43037.77
643.63	43194.59
643.78	43480.13
643.93	43629.93
644.07	43718.87
644.22	43384.17
644.37	43208.63
644.51	43459.07
644.66	43255.44
644.81	43168.84
644.95	43194.59
645.10	43536.30
645.25	43269.48
645.39	43299.91
645.54	43351.40
645.69	42855.21
645.83	43136.07
645.98	43161.82
646.13	43182.88
646.27	43187.56
646.42	42693.71
646.57	43040.11
646.71	43037.77
646.86	43332.68
647.00	43477.79
647.15	43164.16
647.30	43290.55
647.44	43260.12
647.59	42595.41
647.74	42359.02
647.88	42747.54
648.03	43320.98
648.17	43648.65
648.32	42745.20
648.47	42677.33
648.61	42768.61
648.76	42440.93
648.90	42204.54
649.05	42670.31
649.20	42581.37
649.34	42630.52
649.49	42700.73
649.63	42483.06
649.78	42862.23
649.92	42316.89
650.07	42873.93
650.21	42483.06
650.36	42625.84
650.51	42333.27
650.65	42766.27
650.80	42557.96
650.94	42674.99
651.09	42075.81
651.23	41940.06
651.38	41680.26
651.52	42167.09
651.67	42211.56
651.81	42382.42
651.96	42279.44
652.10	42148.37
652.25	41588.98
652.39	42061.77
652.54	41907.29
652.68	41359.61
652.83	41811.33
652.97	42609.45
653.12	41853.46
653.26	41794.95
653.41	41890.91
653.55	42139.00
653.70	42059.43
653.84	41909.63
653.99	41869.84
654.13	41621.75
654.27	41673.24
654.42	41837.08
654.56	41624.09
654.71	41778.56
654.85	41773.88
655.00	42064.11
655.14	41652.17
655.29	41933.04
655.43	42302.84
655.57	41539.83
655.72	41336.20
655.86	41312.80
656.01	41036.61
656.15	41418.12
656.30	41134.92
656.44	41357.27
656.58	41235.56
656.73	41368.97
656.87	40896.18
657.01	41055.34
657.16	41366.63
657.30	41106.83
657.45	41125.55
657.59	41024.91
657.73	40800.22
657.88	40989.80
658.02	41113.85
658.16	41488.34
658.31	41134.92
658.45	41214.49
658.60	40552.12
658.74	41244.92
658.88	40973.42
659.03	40547.44
659.17	40638.72
659.31	40491.27
659.46	40339.13
659.60	40411.69
659.74	40268.92
659.89	40650.42
660.03	40084.01
660.17	40306.37
660.32	40076.99
660.46	40304.02
660.60	39807.83
660.74	40505.31
660.89	40430.41
661.03	39903.79
661.17	40142.53
661.32	40032.52
661.46	40088.70
661.60	39974.01
661.74	39777.40
661.89	39789.11
662.03	39840.60
662.17	40039.54
662.31	39285.89
662.46	39868.69
662.60	39613.57
662.74	39267.17
662.88	39023.75
663.03	39171.21
663.17	39159.50
663.31	38864.60
663.45	39248.44
663.60	39622.93
663.74	39555.05
663.88	39206.31
664.02	38965.24
664.17	39091.63
664.31	38630.54
664.45	39049.50
664.59	38948.85
664.73	39014.39
664.88	38747.57
665.02	38368.40
665.16	38864.60
665.30	38642.24
665.44	38417.55
665.59	38494.79
665.73	38167.12
665.87	37755.18
666.01	38656.29
666.15	38017.32
666.29	38178.82
666.44	38211.59
666.58	38405.85
666.72	38176.48
666.86	38366.06
667.00	38321.59
667.14	37972.85
667.28	37691.99
667.43	37703.69
667.57	37965.83
667.71	37542.19
667.85	38110.94
667.99	37762.20
668.13	37675.60
668.27	37570.28
668.41	37036.64
668.56	37010.89
668.70	36905.57
668.84	36657.47
668.98	37132.60
669.12	37209.84
669.26	36891.52
669.40	37235.58
669.54	36755.77
669.68	36889.18
669.82	36720.66
669.96	36098.08
670.10	36505.34
670.25	36287.67
670.39	36474.91
670.53	36360.22
670.67	36165.96
670.81	36648.11
670.95	36002.12
671.09	36463.21
671.23	36147.23
671.37	36208.09
671.51	35683.81
671.65	36058.29
671.79	35487.20
671.93	35971.69
672.07	35943.61
672.21	35510.61
672.35	35215.70
672.49	35573.80
672.63	35314.00
672.77	35175.91
672.91	35398.26
673.05	34998.03
673.19	34714.83
673.33	35218.04
673.47	34998.03
673.61	34560.35
673.75	34932.50
673.89	34490.13
674.03	34703.12
674.17	34466.73
674.31	34286.51
674.45	34197.57
674.59	34279.49
674.73	33956.49
674.87	34227.99
675.01	33937.77
675.15	33986.92
675.29	33102.20
675.43	33792.65
675.56	33834.78
675.70	33750.52
675.84	33425.19
675.98	32554.51
676.12	33586.69
676.26	33172.41
676.40	33359.66
676.54	33134.96
676.68	32978.15
676.82	32514.72
676.96	32884.53
677.10	32755.80
677.23	32882.19
677.37	32804.95
677.51	32205.77
677.65	32692.60
677.79	32013.85
677.93	32472.59
678.07	32184.71
678.21	31971.72
678.34	31758.73
678.48	31571.49
678.62	31447.44
678.76	31426.37
678.90	31351.48
679.04	31648.72
679.18	31725.96
679.31	30932.52
679.45	31068.27
679.59	30668.04
679.73	30890.39
679.87	30756.98
680.00	30665.70
680.14	30852.94
680.28	30785.07
680.42	30286.53
680.56	30347.39
680.70	30174.19
680.83	29982.26
680.97	30192.91
681.11	29769.27
681.25	29631.18
681.39	29617.14
681.52	29727.14
681.66	29043.71
681.80	28645.82
681.94	29048.39
682.07	29242.65
682.21	28980.51
682.35	29069.45
682.49	28659.86
682.62	28528.79
682.76	28617.73
682.90	28631.77
683.04	28484.32
683.17	28481.98
683.31	27927.27
683.45	27978.76
683.59	28201.11
683.72	27372.57
683.86	27812.59
684.00	27491.93
684.13	27922.59
684.27	27735.35
684.41	27484.91
684.55	27513.00
684.68	27370.22
684.82	26834.24
684.96	26974.67
685.09	27388.95
685.23	27393.63
685.37	27552.79
685.50	27381.93
685.64	27101.06
685.78	26719.56
685.91	26679.77
686.05	26122.72
686.19	26059.52
686.32	26214.00
686.46	25855.90
686.60	25689.72
686.73	25802.07
686.87	25881.64
687.01	26036.12
687.14	25757.60
687.28	25598.44
687.42	25399.49
687.55	25575.03
687.69	25439.28
687.82	25500.14
687.96	24889.26
688.10	25235.66
688.23	25167.78
688.37	24982.88
688.50	25081.18
688.64	24662.22
688.78	24861.17
688.91	24418.81
689.05	24577.97
689.18	23845.38
689.32	24060.71
689.46	23700.26
689.59	24032.62
689.73	24297.10
689.86	24142.63
690.00	23880.49
690.13	23997.51
690.27	23515.36
690.41	23597.28
690.54	23208.75
690.68	23616.01
690.81	22672.77
690.95	23002.78
691.08	22911.50
691.22	22768.73
691.35	22738.30
691.49	22984.06
691.62	22852.99
691.76	22417.65
691.89	22373.18
692.03	22029.12
692.16	21982.31
692.30	21954.22
692.43	21813.79
692.57	21853.58
692.70	21783.37
692.84	21804.43
692.97	21696.77
693.11	21745.92
693.24	21535.27
693.38	21120.99
693.51	20929.07
693.65	21397.18
693.78	21020.35
693.92	20851.83
694.05	20802.68
694.19	20882.26
694.32	20697.36
694.45	20690.34
694.59	20688.00
694.72	20641.18
694.86	20226.91
694.99	20201.16
695.13	20247.97
695.26	19927.32
695.39	19997.54
695.53	19840.72
695.66	19765.82
695.80	19541.13
695.93	19616.03
696.07	19522.41
696.20	19311.76
696.33	19082.39
696.47	19133.88
696.60	19115.16
696.73	19220.48
696.87	19098.77
697.00	19047.28
697.14	18831.95
697.27	18785.14
697.40	18801.52
697.54	18721.95
697.67	18382.57
697.80	18537.04
697.94	18263.20
698.07	18265.54
698.21	18071.28
698.34	18160.22
698.47	18190.64
698.61	17586.79
698.74	17877.01
698.87	17846.58
699.01	17790.41
699.14	17671.04
699.27	17610.19
699.40	17544.66
699.54	17324.65
699.67	17607.85
699.80	17191.23
699.94	17378.48
700.07	17289.54
700.20	16978.25
700.34	16760.58
700.47	16945.48
700.60	17092.93
700.73	16823.77
700.87	16751.21
701.00	16341.62
701.13	16446.94
701.26	16219.91
701.40	16264.38
701.53	15833.72
701.66	16060.76
701.79	16278.43
701.93	15838.41
702.06	15728.40
702.19	15653.50
702.32	15611.37
702.46	15733.08
702.59	15819.68
702.72	16088.84
702.85	15700.31
702.99	15431.15
703.12	15262.63
703.25	15138.58
703.38	15049.64
703.51	14916.23
703.65	14937.30
703.78	14504.30
703.91	14565.15
704.04	14658.78
704.17	14867.08
704.31	14345.14
704.44	14539.41
704.57	14443.45
704.70	14623.67
704.83	14340.46
704.96	14214.07
705.10	13998.74
705.23	14162.58
>>>>>End Processed Spectral Data<<<<<
