SpectraSuite Data File
++++++++++++++++++++++++++++++++++++
Date: Fri Oct 25 10:44:50 EDT 2013
User: price-jones
Dark Spectrum Present: No
Reference Spectrum Present: No
Number of Sampled Component Spectra: 1
Spectrometers: USB2+H05261
Integration Time (usec): 100000 (USB2+H05261)
Spectra Averaged: 1 (USB2+H05261)
Boxcar Smoothing: 0 (USB2+H05261)
Correct for Electrical Dark: No (USB2+H05261)
Strobe/Lamp Enabled: No (USB2+H05261)
Correct for Detector Non-linearity: No (USB2+H05261)
Correct for Stray Light: No (USB2+H05261)
Number of Pixels in Processed Spectrum: 2048
>>>>>Begin Processed Spectral Data<<<<<
365.73	131.07
365.92	131.07
366.12	131.07
366.32	23.41
366.52	0.00
366.72	7.02
366.91	56.17
367.11	0.00
367.31	9.36
367.51	0.00
367.70	18.72
367.90	23.41
368.10	56.17
368.30	32.77
368.49	0.00
368.69	46.81
368.89	46.81
369.09	9.36
369.28	25.75
369.48	100.64
369.68	173.20
369.87	37.45
370.07	100.64
370.27	140.43
370.47	166.18
370.66	365.12
370.86	383.85
371.06	444.70
371.25	404.91
371.45	479.81
371.65	484.49
371.84	447.04
372.04	463.43
372.24	447.04
372.44	440.02
372.63	531.30
372.83	526.62
373.03	447.04
373.22	482.15
373.42	489.17
373.62	463.43
373.81	505.56
374.01	540.66
374.21	561.73
374.40	571.09
374.60	538.32
374.79	503.22
374.99	554.71
375.19	571.09
375.38	552.37
375.58	634.29
375.78	608.54
375.97	641.31
376.17	601.52
376.37	578.11
376.56	603.86
376.76	634.29
376.95	533.64
377.15	519.60
377.35	634.29
377.54	627.26
377.74	589.82
377.93	592.16
378.13	608.54
378.33	585.13
378.52	617.90
378.72	634.29
378.91	550.03
379.11	514.92
379.31	629.60
379.50	596.84
379.70	645.99
379.89	566.41
380.09	638.97
380.28	617.90
380.48	641.31
380.68	610.88
380.87	585.13
381.07	676.41
381.26	720.88
381.46	671.73
381.65	739.61
381.85	648.33
382.04	655.35
382.24	645.99
382.43	594.50
382.63	716.20
382.83	657.69
383.02	699.82
383.22	748.97
383.41	685.78
383.61	634.29
383.80	674.07
384.00	758.33
384.19	681.10
384.39	720.88
384.58	690.46
384.78	751.31
384.97	748.97
385.17	765.36
385.36	763.01
385.56	791.10
385.75	751.31
385.95	737.27
386.14	795.78
386.34	702.16
386.53	770.04
386.72	751.31
386.92	835.57
387.11	711.52
387.31	828.55
387.50	837.91
387.70	805.14
387.89	755.99
388.09	863.66
388.28	819.19
388.48	863.66
388.67	837.91
388.86	863.66
389.06	816.85
389.25	802.80
389.45	889.40
389.64	924.51
389.84	926.85
390.03	922.17
390.22	915.15
390.42	793.44
390.61	896.43
390.81	882.38
391.00	966.64
391.19	1069.62
391.39	910.47
391.58	952.60
391.78	1013.45
391.97	992.39
392.16	898.77
392.36	1095.37
392.55	912.81
392.75	929.19
392.94	980.68
393.13	964.30
393.33	910.47
393.52	1015.79
393.71	1029.84
393.91	1018.13
394.10	945.58
394.29	1048.56
394.49	1083.67
394.68	1076.65
394.88	1132.82
395.07	1090.69
395.26	1109.41
395.46	1088.35
395.65	1121.12
395.84	1135.16
396.04	1186.65
396.23	1153.88
396.42	1060.26
396.62	1142.18
396.81	1144.52
397.00	1123.46
397.19	1158.57
397.39	1125.80
397.58	1256.87
397.77	1221.76
397.97	1277.93
398.16	1282.61
398.35	1270.91
398.55	1343.47
398.74	1287.29
398.93	1254.53
399.12	1282.61
399.32	1350.49
399.51	1219.42
399.70	1270.91
399.90	1362.19
400.09	1341.13
400.28	1413.68
400.47	1359.85
400.67	1378.58
400.86	1488.58
401.05	1453.47
401.24	1334.11
401.44	1537.73
401.63	1493.26
401.82	1397.30
402.01	1495.60
402.21	1514.33
402.40	1607.95
402.59	1544.75
402.78	1547.09
402.97	1554.12
403.17	1533.05
403.36	1605.61
403.55	1528.37
403.74	1621.99
403.93	1549.43
404.13	1666.46
404.32	1593.90
404.51	1643.06
404.70	1706.25
404.89	1682.85
405.09	1720.29
405.28	1675.82
405.47	1706.25
405.66	1785.83
405.85	1827.96
406.05	1809.23
406.24	1769.44
406.43	1760.08
406.62	1863.07
406.81	1914.56
407.00	1802.21
407.20	1764.76
407.39	1802.21
407.58	1891.15
407.77	1891.15
407.96	1952.01
408.15	2003.50
408.34	1949.67
408.54	1991.80
408.73	1963.71
408.92	1923.92
409.11	2040.95
409.30	2087.76
409.49	2026.90
409.68	2001.16
409.87	2012.86
410.07	2036.27
410.26	2148.61
410.45	2157.97
410.64	2176.70
410.83	2183.72
411.02	2284.36
411.21	2260.96
411.40	2197.76
411.59	2223.51
411.78	2298.41
411.98	2256.28
412.17	2331.17
412.36	2408.41
412.55	2401.39
412.74	2394.37
412.93	2361.60
413.12	2408.41
413.31	2487.99
413.50	2609.70
413.69	2572.25
413.88	2560.55
414.07	2539.48
414.26	2537.14
414.45	2630.76
414.64	2588.63
414.83	2621.40
415.02	2619.06
415.22	2700.98
415.41	2787.58
415.60	2689.28
415.79	2803.96
415.98	2979.50
416.17	2850.77
416.36	2932.69
416.55	2841.41
416.74	2970.14
416.93	2972.48
417.12	2876.52
417.31	2911.63
417.50	2974.82
417.69	3035.67
417.88	3089.51
418.07	3056.74
418.26	3033.33
418.45	3199.51
418.64	3206.53
418.83	3288.45
419.02	3194.83
419.21	3213.56
419.39	3227.60
419.58	3126.96
419.77	3185.47
419.96	3192.49
420.15	3192.49
420.34	3246.32
420.53	3281.43
420.72	3414.84
420.91	3412.50
421.10	3496.76
421.29	3452.29
421.48	3417.18
421.67	3440.59
421.86	3417.18
422.05	3424.20
422.24	3487.40
422.43	3405.48
422.61	3419.52
422.80	3578.68
422.99	3597.40
423.18	3513.14
423.37	3604.42
423.56	3543.57
423.75	3508.46
423.94	3407.82
424.13	3269.73
424.32	3389.10
424.50	3461.65
424.69	3581.02
424.88	3632.51
425.07	3552.93
425.26	3552.93
425.45	3545.91
425.64	3506.12
425.83	3449.95
426.01	3723.79
426.20	3562.30
426.39	3494.42
426.58	3524.85
426.77	3625.49
426.96	3625.49
427.15	3499.10
427.33	3637.19
427.52	3744.86
427.71	3632.51
427.90	3508.46
428.09	3733.15
428.28	3784.65
428.46	3763.58
428.65	3688.68
428.84	3669.96
429.03	3798.69
429.22	3700.39
429.40	3843.16
429.59	3871.25
429.78	3674.64
429.97	3613.79
430.16	3726.13
430.34	3866.56
430.53	3812.73
430.72	3850.18
430.91	3929.76
431.10	4049.13
431.28	3852.52
431.47	4021.04
431.66	4177.86
431.85	4105.30
432.03	4224.67
432.22	4283.18
432.41	4187.22
432.60	4259.78
432.79	4236.37
432.97	4318.29
433.16	4348.72
433.35	4212.96
433.54	4367.44
433.72	4320.63
433.91	4344.03
434.10	4360.42
434.28	4161.47
434.47	4416.59
434.66	4372.12
434.85	4435.32
435.03	4400.21
435.22	4414.25
435.41	4608.51
435.59	4662.35
435.78	4559.36
435.97	4746.61
436.16	4444.68
436.34	4547.66
436.53	4648.30
436.72	4758.31
436.90	4652.98
437.09	4564.04
437.28	4629.58
437.46	4816.82
437.65	4723.20
437.84	4784.06
438.02	4711.50
438.21	4681.07
438.40	4561.70
438.58	4695.11
438.77	4880.02
438.96	4940.87
439.14	5015.77
439.33	5046.20
439.52	5118.75
439.70	5032.15
439.89	5142.16
440.08	5149.18
440.26	5221.74
440.45	5093.01
440.63	5200.67
440.82	5399.62
441.01	5317.70
441.19	5432.38
441.38	5523.66
441.57	5514.30
441.75	5495.58
441.94	5600.90
442.12	5582.18
442.31	5804.53
442.50	5722.61
442.68	5563.45
442.87	5619.63
443.05	5514.30
443.24	5694.52
443.43	5724.95
443.61	5722.61
443.80	5970.71
443.98	5760.06
444.17	5696.86
444.35	5802.19
444.54	5940.28
444.73	5813.89
444.91	5720.27
445.10	5893.47
445.28	5816.23
445.47	5687.50
445.65	5708.57
445.84	5921.56
446.02	5984.75
446.21	6066.67
446.39	5781.12
446.58	5884.11
446.77	6050.28
446.95	5863.04
447.14	6005.81
447.32	5966.03
447.51	6026.88
447.69	5806.87
447.88	6033.90
448.06	5966.03
448.25	5872.40
448.43	5912.19
448.62	5968.37
448.80	6104.12
448.99	6171.99
449.17	6183.70
449.36	6036.24
449.54	6298.38
449.73	6223.48
449.91	6104.12
450.10	6331.15
450.28	6406.05
450.46	6389.66
450.65	6420.09
450.83	6331.15
451.02	6392.00
451.20	6509.03
451.39	6541.80
451.57	6497.33
451.76	6368.60
451.94	6363.92
452.13	6768.83
452.31	6380.30
452.49	6394.34
452.68	6546.48
452.86	6576.91
453.05	6663.51
453.23	6630.74
453.42	6619.04
453.60	6511.37
453.78	6775.85
453.97	6609.67
454.15	6583.93
454.34	6661.16
454.52	6635.42
454.70	6839.05
454.89	6885.86
455.07	6925.65
455.26	6864.79
455.44	7016.93
455.62	6920.96
455.81	6963.09
455.99	7073.10
456.17	6862.45
456.36	7005.22
456.54	7220.55
456.73	7133.95
456.91	7337.58
457.09	7314.17
457.28	7325.88
457.46	7339.92
457.64	7442.90
457.83	7328.22
458.01	7101.19
458.19	7258.00
458.38	7232.26
458.56	7508.44
458.74	7433.54
458.93	7449.93
459.11	7480.35
459.29	7358.64
459.48	7302.47
459.66	7386.73
459.84	7644.19
460.03	7758.88
460.21	7733.13
460.39	7595.04
460.57	7590.36
460.76	7707.38
460.94	7824.41
461.12	7763.56
461.31	7705.04
461.49	7822.07
461.67	7761.22
461.85	8072.51
462.04	7887.61
462.22	7969.52
462.40	8226.98
462.59	8079.53
462.77	8065.49
462.95	8102.93
463.13	8070.17
463.32	8177.83
463.50	8119.32
463.68	8119.32
463.86	8095.91
464.05	7981.23
464.23	8107.62
464.41	8311.24
464.59	8065.49
464.78	8472.74
464.96	8161.45
465.14	8126.34
465.32	8322.94
465.50	8313.58
465.69	8290.18
465.87	8322.94
466.05	8266.77
466.23	8355.71
466.41	8325.29
466.60	8463.38
466.78	8304.22
466.96	8439.97
467.14	8182.51
467.32	8498.49
467.51	8510.19
467.69	8372.10
467.87	8430.61
468.05	8559.34
468.23	8711.47
468.41	8638.92
468.60	8601.47
468.78	8793.39
468.96	8566.36
469.14	8741.90
469.32	8837.86
469.50	8561.68
469.69	8805.10
469.87	8915.10
470.05	8971.27
470.23	8964.25
470.41	8990.00
470.59	9032.13
470.77	9020.42
470.95	9001.70
471.14	9277.88
471.32	9011.06
471.50	9420.66
471.68	9362.14
471.86	9298.95
472.04	9320.01
472.22	9514.28
472.40	9406.61
472.58	9549.39
472.77	9472.15
472.95	9610.24
473.13	9874.72
473.31	9366.82
473.49	9565.77
473.67	9617.26
473.85	9696.84
474.03	9722.59
474.21	10087.71
474.39	10097.07
474.57	10066.64
474.75	10118.14
474.93	10148.56
475.12	10169.63
475.30	10256.23
475.48	10127.50
475.66	10284.31
475.84	10314.74
476.02	10532.41
476.20	10312.40
476.38	10609.65
476.56	10911.58
476.74	10747.74
476.92	10759.44
477.10	10759.44
477.28	10949.03
477.46	11190.10
477.64	10942.00
477.82	11220.53
478.00	11412.45
478.18	11459.26
478.36	11321.17
478.54	11716.72
478.72	11569.27
478.90	11559.91
479.08	11936.73
479.26	11882.90
479.44	11985.88
479.62	11892.26
479.80	12257.39
479.98	12037.38
480.16	12484.42
480.34	12400.16
480.52	12423.56
480.70	12533.57
480.88	12409.52
481.06	12702.09
481.24	12706.77
481.41	12765.28
481.59	12833.16
481.77	12973.59
481.95	13181.90
482.13	13270.84
482.31	13221.69
482.49	13729.58
482.67	13689.79
482.85	13572.77
483.03	13860.65
483.21	13799.80
483.39	13902.78
483.57	13987.04
483.74	14083.00
483.92	13973.00
484.10	14246.84
484.28	14803.89
484.46	14686.86
484.64	15051.99
484.82	14572.18
485.00	14920.92
485.18	14993.47
485.35	15293.06
485.53	14977.09
485.71	15213.48
485.89	15300.08
486.07	15272.00
486.25	15227.53
486.43	15503.71
486.61	16011.60
486.78	16009.26
486.96	16109.91
487.14	16683.34
487.32	16290.13
487.50	16332.26
487.68	16613.12
487.85	17039.10
488.03	16720.79
488.21	17188.89
488.39	17078.89
488.57	17090.59
488.75	17535.29
488.92	17657.00
489.10	17532.95
489.28	17596.15
489.46	17965.95
489.64	18120.43
489.81	18319.37
489.99	18429.38
490.17	18448.10
490.35	18710.24
490.53	18778.12
490.70	18892.80
490.88	19012.17
491.06	19044.94
491.24	18993.45
491.41	19105.79
491.59	19480.28
491.77	18991.11
491.95	19494.32
492.13	19510.71
492.30	19964.77
492.48	20011.58
492.66	20018.60
492.84	20147.33
493.01	20439.90
493.19	20514.80
493.37	20503.09
493.54	20414.15
493.72	20830.77
493.90	20865.88
494.08	21406.54
494.25	21366.75
494.43	21130.36
494.61	21441.65
494.79	21436.97
494.96	21535.27
495.14	21682.72
495.32	21790.39
495.49	21940.18
495.67	22038.48
495.85	21982.31
496.02	22010.40
496.20	22382.54
496.38	22382.54
496.55	22782.77
496.73	23075.34
496.91	22466.80
497.09	23084.70
497.26	23250.88
497.44	23051.94
497.62	23276.63
497.79	23433.44
497.97	23278.97
498.14	23562.17
498.32	23644.09
498.50	23627.71
498.67	23901.55
498.85	23733.03
499.03	24332.21
499.20	24159.01
499.38	24261.99
499.56	24362.64
499.73	24418.81
499.91	24545.20
500.08	24795.64
500.26	24341.57
500.44	24650.52
500.61	24439.87
500.79	24671.59
500.97	24636.48
501.14	25605.46
501.32	25163.10
501.49	25303.53
501.67	25139.69
501.84	25355.02
502.02	25324.60
502.20	25586.74
502.37	25675.68
502.55	25692.06
502.72	25933.14
502.90	25916.75
503.07	25893.35
503.25	26188.25
503.43	25970.58
503.60	26396.56
503.78	26235.06
503.95	26300.60
504.13	26389.54
504.30	26618.91
504.48	26469.12
504.65	26728.92
504.83	27119.79
505.01	26981.70
505.18	26883.39
505.36	27419.38
505.53	27140.85
505.71	27363.20
505.88	27393.63
506.06	27014.46
506.23	27428.74
506.41	27281.28
506.58	27431.08
506.76	27901.53
506.93	28013.87
507.11	27852.38
507.28	27969.40
507.46	27662.79
507.63	28119.20
507.81	27985.79
507.98	28004.51
508.16	28102.81
508.33	28512.41
508.50	28498.36
508.68	28432.83
508.85	28936.04
509.03	28500.70
509.20	29088.18
509.38	29345.64
509.55	29130.31
509.73	29284.78
509.90	29158.39
510.08	29160.73
510.25	29085.84
510.42	29102.22
510.60	29544.58
510.77	29682.67
510.95	30057.16
511.12	29839.49
511.30	29556.28
511.47	30073.54
511.64	30115.67
511.82	30080.56
511.99	29841.83
512.17	30239.72
512.34	30110.99
512.51	30387.18
512.69	30789.75
512.86	30471.43
513.04	30698.47
513.21	30618.89
513.38	30321.64
513.56	30665.70
513.73	30567.40
513.90	30754.64
514.08	30749.96
514.25	30948.90
514.43	31033.16
514.60	31161.89
514.77	30939.54
514.95	31136.15
515.12	31489.57
515.29	31435.74
515.47	31578.51
515.64	31751.71
515.81	31295.30
515.99	31861.71
516.16	31494.25
516.33	31538.72
516.51	31393.61
516.68	31440.42
516.85	31283.60
517.03	31744.69
517.20	31742.35
517.37	32156.62
517.54	32332.16
517.72	32231.52
517.89	32107.47
518.06	31971.72
518.24	32116.83
518.41	32194.07
518.58	32055.98
518.75	32367.27
518.93	33010.92
519.10	32631.75
519.27	32638.77
519.45	32851.76
519.62	32861.12
519.79	33254.33
519.96	33177.09
520.14	33333.91
520.31	33062.41
520.48	33303.48
520.65	33579.67
520.83	33497.75
521.00	33916.70
521.17	33769.25
521.34	33764.57
521.52	33680.31
521.69	33944.79
521.86	33860.53
522.03	34157.78
522.20	34136.71
522.38	33874.57
522.55	34419.92
522.72	34635.25
522.89	34288.85
523.07	34204.59
523.24	34623.54
523.41	34586.10
523.58	34604.82
523.75	34916.11
523.92	34958.24
524.10	34733.55
524.27	35161.87
524.44	34728.87
524.61	35246.13
524.78	35292.94
524.96	35103.35
525.13	35019.10
525.30	35398.26
525.47	35342.09
525.64	35660.40
525.81	35597.21
525.98	35529.33
526.16	35178.25
526.33	34932.50
526.50	35292.94
526.67	35321.02
526.84	35412.31
527.01	35349.11
527.18	35981.06
527.36	35470.82
527.53	36285.33
527.70	36203.41
527.87	36652.79
528.04	36100.42
528.21	36332.14
528.38	35971.69
528.55	36680.88
528.72	36404.69
528.89	36304.05
529.07	36781.52
529.24	36254.90
529.41	36797.90
529.58	36650.45
529.75	36531.08
529.92	36725.35
530.09	36662.15
530.26	36751.09
530.43	37296.44
530.60	36882.16
530.77	36723.01
530.94	36931.31
531.11	36734.71
531.28	37015.57
531.46	37123.24
531.63	37036.64
531.80	36989.83
531.97	36973.44
532.14	37352.61
532.31	36884.50
532.48	36966.42
532.65	37486.02
532.82	37263.67
532.99	38014.98
533.16	37364.31
533.33	38136.69
533.50	37752.84
533.67	37553.90
533.84	37652.20
534.01	38099.24
534.18	37684.97
534.35	37713.05
534.52	37677.94
534.69	37944.76
534.86	38220.95
535.03	37965.83
535.20	38410.53
535.37	38649.27
535.54	38885.66
535.71	38157.75
535.88	38249.03
536.05	38298.19
536.22	38305.21
536.38	38703.10
536.55	38122.65
536.72	39000.35
536.89	38373.08
537.06	38831.83
537.23	39002.69
537.40	38656.29
537.57	38785.02
537.74	38902.04
537.91	39056.52
538.08	38841.19
538.25	38789.70
538.42	39002.69
538.59	39166.52
538.75	38693.74
538.92	39440.37
539.09	39012.05
539.26	39313.98
539.43	39072.90
539.60	39339.72
539.77	39026.09
539.94	39082.27
540.11	39377.17
540.28	39276.53
540.44	39573.78
540.61	39681.44
540.78	39044.82
540.95	39138.44
541.12	39335.04
541.29	39711.87
541.46	39613.57
541.62	39875.71
541.79	39730.59
541.96	39704.85
542.13	39590.16
542.30	40053.59
542.47	39679.10
542.63	40538.08
542.80	40446.80
542.97	40718.30
543.14	40407.01
543.31	40479.57
543.48	40547.44
543.64	40994.48
543.81	40893.84
543.98	40650.42
544.15	40411.69
544.32	40744.05
544.48	41170.02
544.65	40706.60
544.82	41127.89
544.99	40727.66
545.16	41083.42
545.32	41109.17
545.49	40996.82
545.66	40971.08
545.83	41261.30
546.00	41212.15
546.16	41195.77
546.33	41038.95
546.50	40858.73
546.67	41031.93
546.83	40779.15
547.00	41296.41
547.17	41226.20
547.34	41092.79
547.50	40996.82
547.67	41464.93
547.84	41249.60
548.00	41507.06
548.17	41390.03
548.34	41418.12
548.51	41645.15
548.67	41804.31
548.84	41839.42
549.01	41528.13
549.18	41411.10
549.34	41684.94
549.51	41607.70
549.68	41612.38
549.84	41947.08
550.01	41558.55
550.18	41832.39
550.34	42059.43
550.51	42155.39
550.68	41848.78
550.84	41556.21
551.01	42370.72
551.18	41846.44
551.34	42071.13
551.51	41881.55
551.68	42307.52
551.84	42148.37
552.01	42021.98
552.18	42321.57
552.34	42054.75
552.51	42307.52
552.68	41930.70
552.84	42747.54
553.01	42501.79
553.18	42562.64
553.34	42417.53
553.51	42061.77
553.67	42295.82
553.84	42855.21
554.01	42859.89
554.17	42361.36
554.34	43100.97
554.51	42389.44
554.67	42567.32
554.84	42417.53
555.00	42618.81
555.17	42780.31
555.33	42965.21
555.50	42822.44
555.67	42787.33
555.83	42906.70
556.00	43386.51
556.16	43400.55
556.33	42726.48
556.50	42969.90
556.66	43005.00
556.83	42492.43
556.99	42995.64
557.16	43021.39
557.32	43030.75
557.49	43077.56
557.65	42658.60
557.82	42925.42
557.98	42756.91
558.15	43229.69
558.32	43232.04
558.48	42775.63
558.65	42972.24
558.81	42967.55
558.98	43152.46
559.14	43381.83
559.31	43288.21
559.47	43693.12
559.64	43627.59
559.80	43943.56
559.97	43548.01
560.13	43274.16
560.30	42838.83
560.46	43262.46
560.63	43646.31
560.79	43732.91
560.96	43487.15
561.12	43524.60
561.29	43508.22
561.45	43332.68
561.61	43707.16
561.78	43206.29
561.94	43278.85
562.11	43878.02
562.27	43325.66
562.44	43124.37
562.60	43611.20
562.77	43833.55
562.93	43690.78
563.10	43885.04
563.26	43730.57
563.42	43672.06
563.59	43718.87
563.75	43679.08
563.92	44004.41
564.08	43786.74
564.24	44130.80
564.41	43835.89
564.57	43480.13
564.74	43732.91
564.90	43824.19
565.07	43709.50
565.23	43789.08
565.39	43419.28
565.56	43973.98
565.72	43878.02
565.88	44292.30
566.05	43732.91
566.21	43896.75
566.38	43952.92
566.54	43789.08
566.70	44196.34
566.87	43983.35
567.03	44048.88
567.19	44657.42
567.36	44498.26
567.52	44088.67
567.68	44226.76
567.85	43718.87
568.01	43913.13
568.17	43730.57
568.34	43959.94
568.50	44261.87
568.66	44203.36
568.83	43702.48
568.99	43601.84
569.15	43824.19
569.32	44360.17
569.48	44074.63
569.64	44112.08
569.81	44519.33
569.97	44126.12
570.13	44306.34
570.30	44182.29
570.46	43498.86
570.62	43863.98
570.78	44126.12
570.95	44112.08
571.11	44486.56
571.27	43700.14
571.43	44229.10
571.60	44381.24
571.76	43648.65
571.92	44341.45
572.09	43983.35
572.25	44098.03
572.41	44236.12
572.57	44058.24
572.74	44498.26
572.90	44460.82
573.06	44582.52
573.22	44439.75
573.38	43805.47
573.55	44334.43
573.71	44353.15
573.87	44474.86
574.03	44076.97
574.20	44306.34
574.36	44622.31
574.52	44561.46
574.68	44285.28
574.84	44378.90
575.01	44236.12
575.17	44416.35
575.33	44446.77
575.49	44030.16
575.65	44484.22
575.82	44849.35
575.98	43924.83
576.14	44879.77
576.30	44282.94
576.46	44023.14
576.62	44341.45
576.79	44428.05
576.95	43847.60
577.11	44437.41
577.27	44744.02
577.43	44261.87
577.59	44392.94
577.75	44495.92
577.92	44158.89
578.08	44116.76
578.24	44266.55
578.40	44540.39
578.56	44250.17
578.72	44540.39
578.88	44236.12
579.04	44484.22
579.21	44301.66
579.37	44479.54
579.53	44622.31
579.69	44039.52
579.85	44931.26
580.01	44797.85
580.17	44718.28
580.33	44704.23
580.49	44535.71
580.65	44580.18
580.82	44669.12
580.98	44252.51
581.14	44411.67
581.30	44556.78
581.46	44371.88
581.62	44608.27
581.78	44673.81
581.94	44940.63
582.10	43817.17
582.26	44570.82
582.42	44505.29
582.58	44378.90
582.74	44421.03
582.90	44811.90
583.06	44903.18
583.22	45090.42
583.38	45038.93
583.54	45031.91
583.70	44289.96
583.86	44659.76
584.02	44168.25
584.18	44751.04
584.34	44493.58
584.50	44257.19
584.66	44531.03
584.82	44318.04
584.98	44264.21
585.14	44802.53
585.30	44388.26
585.46	44533.37
585.62	44566.14
585.78	44987.44
585.94	44367.20
586.10	44432.73
586.26	44570.82
586.42	45013.18
586.58	44587.21
586.74	44762.75
586.90	44301.66
587.06	44463.16
587.22	44655.08
587.38	44348.47
587.54	44512.31
587.70	44655.08
587.86	45188.72
588.02	44814.24
588.18	45059.99
588.34	44891.48
588.49	44233.78
588.65	44100.37
588.81	44072.29
588.97	44631.68
589.13	44287.62
589.29	44406.98
589.45	44299.32
589.61	44360.17
589.77	45006.16
589.93	44367.20
590.08	45064.67
590.24	44692.53
590.40	44863.39
590.56	45029.57
590.72	44821.26
590.88	44631.68
591.04	45088.08
591.20	44926.58
591.35	45137.23
591.51	45469.59
591.67	45120.85
591.83	44893.82
591.99	44701.89
592.15	44783.81
592.31	44811.90
592.46	44479.54
592.62	44605.93
592.78	45233.19
592.94	45315.11
593.10	44910.20
593.26	44875.09
593.41	44739.34
593.57	44486.56
593.73	44954.67
593.89	44839.98
594.05	45179.36
594.20	44683.17
594.36	44680.83
594.52	44891.48
594.68	44449.11
594.84	45059.99
594.99	44802.53
595.15	44673.81
595.31	45263.62
595.47	44708.91
595.62	44612.95
595.78	45024.89
595.94	45525.76
596.10	45153.62
596.25	44825.94
596.41	45317.45
596.57	45123.19
596.73	44701.89
596.88	44762.75
597.04	45029.57
597.20	44954.67
597.36	44957.01
597.51	45528.10
597.67	44989.78
597.83	44992.12
597.99	45118.51
598.14	45006.16
598.30	45193.40
598.46	44547.42
598.61	44751.04
598.77	44928.92
598.93	44842.32
599.09	45392.35
599.24	45324.47
599.40	45542.14
599.56	44861.05
599.71	44935.95
599.87	45481.29
600.03	44772.11
600.18	45095.10
600.34	44980.42
600.50	45174.68
600.65	44905.52
600.81	45516.40
600.97	45109.14
601.12	45193.40
601.28	44996.80
601.44	44545.08
601.59	44865.73
601.75	44657.42
601.91	44804.88
602.06	44612.95
602.22	44830.62
602.37	44629.34
602.53	44854.03
602.69	45258.94
602.84	44989.78
603.00	44610.61
603.16	45071.70
603.31	44832.96
603.47	44893.82
603.62	44636.36
603.78	45067.02
603.94	44788.49
604.09	44994.46
604.25	45347.88
604.40	45045.95
604.56	45214.47
604.71	45212.13
604.87	44765.09
605.03	44479.54
605.18	44861.05
605.34	44875.09
605.49	44942.97
605.65	44500.61
605.80	44924.24
605.96	44748.70
606.12	44896.16
606.27	45326.81
606.43	44701.89
606.58	44739.34
606.74	44486.56
606.89	44250.17
607.05	44861.05
607.20	44854.03
607.36	45048.29
607.51	44701.89
607.67	44617.63
607.82	44563.80
607.98	44657.42
608.13	44664.44
608.29	44353.15
608.44	44552.10
608.60	44091.01
608.75	44168.25
608.91	44519.33
609.06	43866.32
609.22	45045.95
609.37	44287.62
609.53	44432.73
609.68	44376.56
609.84	44320.38
609.99	44341.45
610.15	43964.62
610.30	44383.58
610.46	44264.21
610.61	44156.55
610.76	44451.45
610.92	44865.73
611.07	44577.84
611.23	44680.83
611.38	44423.37
611.54	44098.03
611.69	44149.53
611.84	44058.24
612.00	44055.90
612.15	43969.30
612.31	44175.27
612.46	44055.90
612.62	44119.10
612.77	44142.50
612.92	44697.21
613.08	44060.58
613.23	44343.79
613.39	44266.55
613.54	43730.57
613.69	44102.71
613.85	44315.70
614.00	43768.02
614.15	44315.70
614.31	44315.70
614.46	44484.22
614.62	44149.53
614.77	43882.70
614.92	44062.93
615.08	43555.03
615.23	43842.92
615.38	43498.86
615.54	43222.67
615.69	43938.88
615.84	43674.40
616.00	43496.52
616.15	43208.63
616.30	43746.95
616.46	43274.16
616.61	43262.46
616.76	43679.08
616.92	43405.23
617.07	43452.05
617.22	43103.31
617.37	43019.05
617.53	43697.80
617.68	43592.48
617.83	43501.20
617.99	43875.68
618.14	43452.05
618.29	43770.36
618.45	43414.60
618.60	43112.67
618.75	43742.27
618.90	43044.79
619.06	43398.21
619.21	43758.66
619.36	43540.99
619.51	43803.13
619.67	43288.21
619.82	43452.05
619.97	43257.78
620.12	43313.95
620.28	42714.78
620.43	43077.56
620.58	43430.98
620.73	42988.62
620.89	42834.14
621.04	43243.74
621.19	43079.90
621.34	43328.00
621.49	43091.60
621.65	42377.74
621.80	42815.42
621.95	42838.83
622.10	42831.80
622.25	42312.20
622.41	42557.96
622.56	42363.70
622.71	42653.92
622.86	42469.02
623.01	42820.10
623.16	42700.73
623.32	42899.68
623.47	42761.59
623.62	42550.94
623.77	42281.78
623.92	42333.27
624.07	42604.77
624.23	42646.90
624.38	42232.63
624.53	42337.95
624.68	42450.30
624.83	42150.71
624.98	42302.84
625.13	42059.43
625.29	42328.59
625.44	42710.10
625.59	41911.97
625.74	41572.60
625.89	42012.62
626.04	41773.88
626.19	41914.31
626.34	42277.10
626.49	42323.91
626.65	41806.65
626.80	41961.12
626.95	42195.18
627.10	41691.96
627.25	41773.88
627.40	41900.27
627.55	41469.61
627.70	41120.87
627.85	41752.82
628.00	41425.14
628.15	41783.24
628.30	41514.08
628.45	41525.78
628.60	41975.17
628.76	41717.71
628.91	41497.70
629.06	41418.12
629.21	41544.51
629.36	41371.31
629.51	41261.30
629.66	41546.85
629.81	41401.74
629.96	41221.52
630.11	41462.59
630.26	41624.09
630.41	41574.94
630.56	41729.41
630.71	41371.31
630.86	41069.38
631.01	40502.97
631.16	41060.02
631.31	41483.66
631.46	40978.10
631.61	41315.14
631.76	41003.85
631.91	40788.52
632.06	41177.04
632.21	41544.51
632.36	41027.25
632.51	41144.28
632.66	40886.82
632.81	40268.92
632.96	40783.83
633.10	40678.51
633.25	40966.40
633.40	41214.49
633.55	40828.30
633.70	41233.22
633.85	40463.18
634.00	40580.21
634.15	40411.69
634.30	40708.94
634.45	40362.54
634.60	40418.71
634.75	40332.11
634.90	40304.02
635.05	40107.42
635.19	40100.40
635.34	40505.31
635.49	40685.53
635.64	40589.57
635.79	39966.99
635.94	40020.82
636.09	40151.89
636.24	39945.92
636.39	40030.18
636.53	39941.24
636.68	39814.85
636.83	39775.06
636.98	40381.26
637.13	39697.83
637.28	39988.05
637.43	40435.10
637.57	39945.92
637.72	40039.54
637.87	40051.25
638.02	39981.03
638.17	39969.33
638.32	39981.03
638.46	39854.64
638.61	39812.51
638.76	39636.97
638.91	39938.90
639.06	40245.51
639.20	40037.20
639.35	40306.37
639.50	40074.65
639.65	40053.59
639.80	40179.98
639.94	39714.21
640.09	39714.21
640.24	39632.29
640.39	39225.04
640.54	39779.74
640.68	39613.57
640.83	39676.76
640.98	39122.05
641.13	39466.11
641.27	39751.66
641.42	39744.64
641.57	39433.35
641.72	39459.09
641.86	39131.42
642.01	39210.99
642.16	39299.94
642.31	38801.40
642.45	39246.10
642.60	39103.33
642.75	39531.65
642.90	38974.60
643.04	39098.65
643.19	39150.14
643.34	39400.58
643.48	39035.45
643.63	38878.64
643.78	38803.74
643.93	38834.17
644.07	38424.57
644.22	38923.11
644.37	38232.65
644.51	38850.55
644.66	38920.77
644.81	38883.32
644.95	38880.98
645.10	38990.98
645.25	39257.81
645.39	39063.54
645.54	39119.71
645.69	38822.47
645.83	38686.71
645.98	38602.46
646.13	39227.38
646.27	38803.74
646.42	38855.23
646.57	38621.18
646.71	38536.92
646.86	38658.63
647.00	38726.50
647.15	38595.43
647.30	38719.48
647.44	38330.95
647.59	38431.60
647.74	38153.07
647.88	38316.91
648.03	38244.35
648.17	38888.00
648.32	38115.62
648.47	37998.60
648.61	38153.07
648.76	38321.59
648.90	38239.67
649.05	37893.27
649.20	38014.98
649.34	38120.31
649.49	37532.83
649.63	38251.38
649.78	37825.40
649.92	38003.28
650.07	38398.83
650.21	37708.37
650.36	37603.05
650.51	37806.67
650.65	38218.61
650.80	38487.77
650.94	37801.99
651.09	37844.12
651.23	37951.79
651.38	37738.80
651.52	38029.02
651.67	37699.01
651.81	37584.32
651.96	37729.44
652.10	37483.68
652.25	37778.59
652.39	37425.17
652.54	37399.42
652.68	37612.41
652.83	37759.86
652.97	37766.88
653.12	37823.06
653.26	37317.50
653.41	37460.27
653.55	37509.43
653.70	36825.99
653.84	37715.39
653.99	37457.93
654.13	37179.41
654.27	37038.98
654.42	37137.28
654.56	37352.61
654.71	37251.97
654.85	37083.45
655.00	37207.50
655.14	37092.81
655.29	36919.61
655.43	36563.85
655.57	36744.07
655.72	36968.76
655.86	36648.11
656.01	36498.31
656.15	36627.04
656.30	36662.15
656.44	36617.68
656.58	36526.40
656.73	36341.50
656.87	36615.34
657.01	36634.06
657.16	36776.84
657.30	36718.32
657.45	36631.72
657.59	36114.47
657.73	36388.31
657.88	36964.08
658.02	36774.50
658.16	36910.25
658.31	36910.25
658.45	36465.55
658.60	36598.96
658.74	36322.77
658.88	36378.95
659.03	36442.14
659.17	36091.06
659.31	36243.20
659.46	36034.89
659.60	36072.34
659.74	36072.34
659.89	36264.26
660.03	35662.74
660.17	36257.24
660.32	35922.54
660.46	36378.95
660.60	35625.29
660.74	36013.82
660.89	36308.73
661.03	35463.80
661.17	35400.60
661.32	35236.77
661.46	35548.06
661.60	35487.20
661.74	35534.01
661.89	35489.54
662.03	35374.86
662.17	35480.18
662.31	35171.23
662.46	35709.55
662.60	35241.45
662.74	35466.14
662.88	35166.55
663.03	34902.07
663.17	35122.08
663.31	35211.02
663.45	34735.89
663.60	34700.78
663.74	34841.21
663.88	34808.45
664.02	35065.91
664.17	34672.70
664.31	34614.18
664.45	34890.37
664.59	34550.99
664.73	34394.17
664.88	34614.18
665.02	34342.68
665.16	34445.66
665.30	34590.78
665.44	34384.81
665.59	34263.10
665.73	33766.91
665.87	34464.39
666.01	34389.49
666.15	34403.53
666.29	33846.49
666.44	34286.51
666.58	33481.36
666.72	33958.83
666.86	34141.39
667.00	34082.88
667.14	33441.57
667.28	33472.00
667.43	33177.09
667.57	33420.51
667.71	33062.41
667.85	32985.17
667.99	33235.61
668.13	33064.75
668.27	33240.29
668.41	33453.28
668.56	32884.53
668.70	33366.68
668.84	33008.58
668.98	32767.50
669.12	32570.90
669.26	32980.49
669.40	32680.90
669.54	32837.72
669.68	32479.61
669.82	32713.67
669.96	32397.70
670.10	32535.79
670.25	31988.10
670.39	32449.19
670.53	32123.85
670.67	32168.32
670.81	32526.42
670.95	32348.54
671.09	32456.21
671.23	32107.47
671.37	32456.21
671.51	32180.03
671.65	31910.86
671.79	31674.47
671.93	31496.59
672.07	31842.99
672.21	31955.33
672.35	31721.28
672.49	31831.29
672.63	31859.37
672.77	31285.94
672.91	31690.85
673.05	31501.27
673.19	31302.32
673.33	31122.10
673.47	31166.57
673.61	30892.73
673.75	30738.26
673.89	30881.03
674.03	30546.33
674.17	30422.28
674.31	30569.74
674.45	30761.66
674.59	30878.69
674.73	30639.95
674.87	30742.94
675.01	30455.05
675.15	30623.57
675.29	30071.20
675.43	30391.86
675.56	30249.08
675.70	30331.00
675.84	29572.67
675.98	29549.26
676.12	30139.08
676.26	29776.30
676.40	29909.71
676.54	29900.34
676.68	29523.52
676.82	29282.44
676.96	29439.26
677.10	29717.78
677.23	29181.80
677.37	28989.88
677.51	28718.37
677.65	28699.65
677.79	28687.95
677.93	28753.48
678.07	28456.23
678.21	28931.36
678.34	28355.59
678.48	28484.32
678.62	28184.73
678.76	27627.68
678.90	28151.96
679.04	27702.58
679.18	27896.85
679.31	27763.43
679.45	27447.46
679.59	27405.33
679.73	27037.87
679.87	27344.48
680.00	27300.01
680.14	27122.13
680.28	27278.94
680.42	27269.58
680.56	27578.53
680.70	26869.35
680.83	27112.77
680.97	27140.85
681.11	26604.87
681.25	26761.69
681.39	26799.13
681.52	26951.27
681.66	26703.17
681.80	26368.48
681.94	26595.51
682.07	25919.09
682.21	26174.21
682.35	26361.45
682.49	26321.66
682.62	26434.01
682.76	26216.34
682.90	25827.81
683.04	25378.43
683.17	25830.15
683.31	25020.33
683.45	25535.24
683.59	25350.34
683.72	25308.21
683.86	24889.26
684.00	24992.24
684.13	25130.33
684.27	24549.88
684.41	25111.61
684.55	24861.17
684.68	24727.76
684.82	24671.59
684.96	24409.45
685.09	24479.66
685.23	24599.03
685.37	24084.11
685.50	24194.12
685.64	24364.98
685.78	24133.26
685.91	23922.62
686.05	23744.73
686.19	23679.20
686.32	23403.02
686.46	23417.06
686.60	23360.89
686.73	23440.47
686.87	23330.46
687.01	22885.76
687.14	23047.26
687.28	23136.20
687.42	22820.22
687.55	22677.45
687.69	22995.76
687.82	22607.23
687.96	23180.67
688.10	22642.34
688.23	22696.17
688.37	22008.06
688.50	22155.51
688.64	21769.32
688.78	22366.16
688.91	22167.21
689.05	21928.48
689.18	21745.92
689.32	21666.34
689.46	21687.40
689.59	21762.30
689.73	21825.50
689.86	21708.47
690.00	21378.45
690.13	21352.71
690.27	21336.32
690.41	21238.02
690.54	21085.89
690.68	20922.05
690.81	20753.53
690.95	20652.89
691.08	20978.22
691.22	20882.26
691.35	20507.77
691.49	20830.77
691.62	21048.44
691.76	20624.80
691.89	20542.88
692.03	20053.71
692.16	20053.71
692.30	20238.61
692.43	20215.21
692.57	19714.33
692.70	19955.41
692.84	19751.78
692.97	19543.47
693.11	19583.26
693.24	19522.41
693.38	19777.53
693.51	19283.67
693.65	19587.94
693.78	19494.32
693.92	19454.53
694.05	19386.66
694.19	19035.58
694.32	18909.19
694.45	19002.81
694.59	18728.97
694.72	18548.75
694.86	18726.63
694.99	18663.43
695.13	18654.07
695.26	18710.24
695.39	18169.58
695.53	18328.74
695.66	18363.84
695.80	18232.77
695.93	18293.63
696.07	18204.69
696.20	18164.90
696.33	17862.97
696.47	17790.41
696.60	17727.22
696.73	17385.50
696.87	17521.25
697.00	17664.02
697.14	17495.50
697.27	17179.53
697.40	17408.90
697.54	17238.05
697.67	16992.29
697.80	17191.23
697.94	16924.41
698.07	16521.84
698.21	16542.91
698.34	16884.62
698.47	16664.61
698.61	16360.34
698.74	16463.33
698.87	16194.17
699.01	15892.24
699.14	16180.12
699.27	15761.17
699.40	16137.99
699.54	16009.26
699.67	15957.77
699.80	16086.50
699.94	16030.33
700.07	15983.52
700.20	15597.33
700.34	15653.50
700.47	16025.65
700.60	15784.57
700.73	15573.92
700.87	15796.28
701.00	15585.63
701.13	15475.62
701.26	15330.51
701.40	15435.83
701.53	15201.78
701.66	15166.67
701.79	14799.21
701.93	15044.96
702.06	14853.04
702.19	14862.40
702.32	14960.70
702.46	14696.22
702.59	14583.88
702.72	14677.50
702.85	14752.40
702.99	14537.07
703.12	14326.42
703.25	14324.08
703.38	14356.85
703.51	14054.92
703.65	14045.55
703.78	14141.52
703.91	13591.49
704.04	14012.79
704.17	14036.19
704.31	13755.33
704.44	13797.46
704.57	13640.64
704.70	13621.92
704.83	13792.78
704.96	13673.41
705.10	13422.97
705.23	13497.87
>>>>>End Processed Spectral Data<<<<<
