SpectraSuite Data File
++++++++++++++++++++++++++++++++++++
Date: Fri Oct 25 11:33:30 EDT 2013
User: price-jones
Dark Spectrum Present: No
Reference Spectrum Present: No
Number of Sampled Component Spectra: 1
Spectrometers: USB2+H05261
Integration Time (usec): 100000 (USB2+H05261)
Spectra Averaged: 1 (USB2+H05261)
Boxcar Smoothing: 0 (USB2+H05261)
Correct for Electrical Dark: No (USB2+H05261)
Strobe/Lamp Enabled: No (USB2+H05261)
Correct for Detector Non-linearity: No (USB2+H05261)
Correct for Stray Light: No (USB2+H05261)
Number of Pixels in Processed Spectrum: 2048
>>>>>Begin Processed Spectral Data<<<<<
365.73	299.59
365.92	299.59
366.12	299.59
366.32	205.97
366.52	177.88
366.72	191.92
366.91	177.88
367.11	126.39
367.31	168.52
367.51	191.92
367.70	128.73
367.90	241.08
368.10	203.63
368.30	189.58
368.49	135.75
368.69	208.31
368.89	208.31
369.09	126.39
369.28	208.31
369.48	243.42
369.68	252.78
369.87	304.27
370.07	147.45
370.27	257.46
370.47	334.70
370.66	449.38
370.86	545.34
371.06	472.79
371.25	571.09
371.45	557.05
371.65	594.50
371.84	561.73
372.04	519.60
372.24	564.07
372.44	599.18
372.63	535.98
372.83	543.00
373.03	568.75
373.22	596.84
373.42	641.31
373.62	589.82
373.81	617.90
374.01	702.16
374.21	545.34
374.40	653.01
374.60	631.94
374.79	723.23
374.99	627.26
375.19	620.24
375.38	657.69
375.58	655.35
375.78	671.73
375.97	660.03
376.17	657.69
376.37	690.46
376.56	699.82
376.76	650.67
376.95	697.48
377.15	739.61
377.35	690.46
377.54	643.65
377.74	695.14
377.93	622.58
378.13	751.31
378.33	690.46
378.52	706.84
378.72	739.61
378.91	727.91
379.11	765.36
379.31	674.07
379.50	702.16
379.70	660.03
379.89	720.88
380.09	638.97
380.28	723.23
380.48	739.61
380.68	730.25
380.87	734.93
381.07	741.95
381.26	737.27
381.46	858.98
381.65	716.20
381.85	758.33
382.04	723.23
382.24	830.89
382.43	835.57
382.63	784.08
382.83	786.42
383.02	748.97
383.22	849.61
383.41	786.42
383.61	760.67
383.80	821.53
384.00	840.25
384.19	763.01
384.39	880.04
384.58	685.78
384.78	798.12
384.97	802.80
385.17	781.74
385.36	849.61
385.56	784.08
385.75	830.89
385.95	847.27
386.14	844.93
386.34	753.65
386.53	929.19
386.72	861.32
386.92	861.32
387.11	849.61
387.31	926.85
387.50	891.74
387.70	847.27
387.89	882.38
388.09	924.51
388.28	992.39
388.48	858.98
388.67	884.72
388.86	964.30
389.06	929.19
389.25	917.49
389.45	1025.15
389.64	912.81
389.84	1050.90
390.03	1004.09
390.22	912.81
390.42	1039.20
390.61	959.62
390.81	943.24
391.00	1015.79
391.19	1071.97
391.39	889.40
391.58	1011.11
391.78	985.37
391.97	987.71
392.16	1043.88
392.36	1081.33
392.55	1071.97
392.75	1029.84
392.94	1013.45
393.13	1083.67
393.33	1018.13
393.52	978.34
393.71	1116.44
393.91	1156.22
394.10	1090.69
394.29	1062.60
394.49	1097.71
394.68	1156.22
394.88	1163.25
395.07	1153.88
395.26	1167.93
395.46	1083.67
395.65	1165.59
395.84	1186.65
396.04	1177.29
396.23	1221.76
396.42	1247.51
396.62	1233.46
396.81	1221.76
397.00	1245.16
397.19	1282.61
397.39	1235.80
397.58	1254.53
397.77	1203.04
397.97	1294.32
398.16	1324.74
398.35	1252.19
398.55	1284.95
398.74	1284.95
398.93	1362.19
399.12	1291.98
399.32	1231.12
399.51	1291.98
399.70	1301.34
399.90	1303.68
400.09	1317.72
400.28	1385.60
400.47	1376.24
400.67	1380.92
400.86	1418.36
401.05	1376.24
401.24	1453.47
401.44	1418.36
401.63	1544.75
401.82	1448.79
402.01	1469.86
402.21	1483.90
402.40	1472.20
402.59	1418.36
402.78	1430.07
402.97	1507.30
403.17	1589.22
403.36	1439.43
403.55	1467.52
403.74	1673.48
403.93	1563.48
404.13	1519.01
404.32	1603.27
404.51	1593.90
404.70	1640.72
404.89	1617.31
405.09	1710.93
405.28	1792.85
405.47	1701.57
405.66	1633.69
405.85	1771.79
406.05	1767.10
406.24	1701.57
406.43	1764.76
406.62	1776.47
406.81	1867.75
407.00	1699.23
407.20	1687.53
407.39	1867.75
407.58	1879.45
407.77	1785.83
407.96	1881.79
408.15	1746.04
408.34	1940.30
408.54	1940.30
408.73	1966.05
408.92	2057.33
409.11	1844.34
409.30	2078.40
409.49	2099.46
409.68	1895.83
409.87	2054.99
410.07	2101.80
410.26	2026.90
410.45	2097.12
410.64	2120.53
410.83	2090.10
411.02	2036.27
411.21	2204.78
411.40	2122.87
411.59	2186.06
411.78	2256.28
411.98	2127.55
412.17	2204.78
412.36	2326.49
412.55	2202.44
412.74	2366.28
412.93	2392.03
413.12	2186.06
413.31	2441.18
413.50	2401.39
413.69	2363.94
413.88	2429.48
414.07	2530.12
414.26	2415.43
414.45	2518.42
414.64	2605.02
414.83	2649.49
415.02	2623.74
415.22	2693.96
415.41	2691.62
415.60	2644.81
415.79	2661.19
415.98	2712.68
416.17	2778.22
416.36	2679.91
416.55	2696.30
416.74	2848.43
416.93	2850.77
417.12	2796.94
417.31	2752.47
417.50	2867.16
417.69	3021.63
417.88	3077.80
418.07	2904.60
418.26	2963.12
418.45	2986.52
418.64	3030.99
418.83	3033.33
419.02	3033.33
419.21	3152.70
419.39	3157.38
419.58	3012.27
419.77	3019.29
419.96	3206.53
420.15	3187.81
420.34	3124.62
420.53	3192.49
420.72	3197.17
420.91	3197.17
421.10	3274.41
421.29	3227.60
421.48	3272.07
421.67	3356.33
421.86	3274.41
422.05	3293.13
422.24	3215.90
422.43	3290.79
422.61	3363.35
422.80	3506.12
422.99	3260.37
423.18	3361.01
423.37	3286.11
423.56	3253.34
423.75	3384.41
423.94	3318.88
424.13	3215.90
424.32	3267.39
424.50	3414.84
424.69	3602.08
424.88	3522.51
425.07	3405.48
425.26	3241.64
425.45	3421.86
425.64	3361.01
425.83	3405.48
426.01	3550.59
426.20	3583.36
426.39	3557.61
426.58	3358.67
426.77	3480.38
426.96	3557.61
427.15	3353.99
427.33	3571.66
427.52	3651.24
427.71	3569.32
427.90	3513.14
428.09	3578.68
428.28	3503.78
428.46	3728.47
428.65	3669.96
428.84	3777.62
429.03	3728.47
429.22	3749.54
429.40	3728.47
429.59	3782.31
429.78	3515.48
429.97	3634.85
430.16	3896.99
430.34	3770.60
430.53	3772.94
430.72	3906.35
430.91	3838.48
431.10	3885.29
431.28	3836.14
431.47	4037.42
431.66	3964.87
431.85	3847.84
432.03	3995.29
432.22	4070.19
432.41	3995.29
432.60	4142.75
432.79	4007.00
432.97	4105.30
433.16	4109.98
433.35	4163.81
433.54	4053.81
433.72	4255.09
433.91	4287.86
434.10	4138.07
434.28	4219.99
434.47	4285.52
434.66	4390.84
434.85	4535.96
435.03	4304.25
435.22	4278.50
435.41	4447.02
435.59	4484.47
435.78	4269.14
435.97	4449.36
436.16	4402.55
436.34	4390.84
436.53	4442.34
436.72	4617.88
436.90	4369.78
437.09	4517.23
437.28	4313.61
437.46	4538.30
437.65	4538.30
437.84	4568.73
438.02	4610.86
438.21	4709.16
438.40	4582.77
438.58	4739.58
438.77	4746.61
438.96	4751.29
439.14	4793.42
439.33	4884.70
439.52	5100.03
439.70	4854.27
439.89	4961.94
440.08	5055.56
440.26	5048.54
440.45	5006.41
440.63	5008.75
440.82	5160.88
441.01	5123.43
441.19	5121.09
441.38	5174.92
441.57	5235.78
441.75	5331.74
441.94	5336.42
442.12	5289.61
442.31	5352.81
442.50	5341.10
442.68	5394.93
442.87	5476.85
443.05	5528.35
443.24	5659.42
443.43	5617.29
443.61	5603.24
443.80	5703.89
443.98	5235.78
444.17	5341.10
444.35	5558.77
444.54	5713.25
444.73	5771.76
444.91	5631.33
445.10	5643.03
445.28	5680.48
445.47	5586.86
445.65	5722.61
445.84	5860.70
446.02	5689.84
446.21	5696.86
446.39	5680.48
446.58	5757.72
446.77	5802.19
446.95	5607.92
447.14	5736.65
447.32	5731.97
447.51	5832.62
447.69	5736.65
447.88	5680.48
448.06	5912.19
448.25	5820.91
448.43	5825.59
448.62	5631.33
448.80	5813.89
448.99	5710.91
449.17	5891.13
449.36	5961.34
449.54	5940.28
449.73	6169.65
449.91	6197.74
450.10	6134.54
450.28	6108.80
450.46	6022.20
450.65	6054.97
450.83	6003.47
451.02	6019.86
451.20	6202.42
451.39	6197.74
451.57	6279.66
451.76	6218.80
451.94	6118.16
452.13	6354.55
452.31	6242.21
452.49	6186.04
452.68	6216.46
452.86	6279.66
453.05	6354.55
453.23	6375.62
453.42	6377.96
453.60	6342.85
453.78	6289.02
453.97	6251.57
454.15	6448.18
454.34	6403.71
454.52	6459.88
454.70	6368.60
454.89	6696.27
455.07	6499.67
455.26	6527.75
455.44	6626.06
455.62	6764.15
455.81	6567.54
455.99	6857.77
456.17	6682.23
456.36	6825.00
456.54	6972.46
456.73	6916.28
456.91	7056.72
457.09	7037.99
457.28	7023.95
457.46	6960.75
457.64	6906.92
457.83	7014.59
458.01	6995.86
458.19	7236.94
458.38	7227.57
458.56	7208.85
458.74	7129.27
458.93	7164.38
459.11	7110.55
459.29	7258.00
459.48	7199.49
459.66	7351.62
459.84	7206.51
460.03	7510.78
460.21	7431.20
460.39	7513.12
460.57	7719.09
460.76	7353.96
460.94	7492.05
461.12	7503.76
461.31	7473.33
461.49	7604.40
461.67	7534.18
461.85	7749.51
462.04	7716.75
462.22	7976.55
462.40	7669.94
462.59	7758.88
462.77	7662.91
462.95	7763.56
463.13	7686.32
463.32	7840.79
463.50	7770.58
463.68	7866.54
463.86	8051.44
464.05	7714.41
464.23	7854.84
464.41	7946.12
464.59	7906.33
464.78	8236.35
464.96	8142.72
465.14	7911.01
465.32	8023.36
465.50	8138.04
465.69	8016.33
465.87	8072.51
466.05	8025.70
466.23	8182.51
466.41	8126.34
466.60	8299.54
466.78	8116.98
466.96	8271.45
467.14	8208.26
467.32	8395.50
467.51	8510.19
467.69	8238.69
467.87	8402.52
468.05	8353.37
468.23	8423.59
468.41	8332.31
468.60	8381.46
468.78	8423.59
468.96	8348.69
469.14	8372.10
469.32	8709.13
469.50	8629.56
469.69	8753.60
469.87	8938.51
470.05	8486.78
470.23	8678.71
470.41	8975.95
470.59	8842.54
470.77	8758.28
470.95	8879.99
471.14	8898.72
471.32	8739.56
471.50	8922.12
471.68	9053.19
471.86	9004.04
472.04	9160.86
472.22	9303.63
472.40	9151.49
472.58	9245.12
472.77	9238.09
472.95	9448.74
473.13	9757.69
473.31	9476.83
473.49	9387.89
473.67	9542.36
473.85	9598.54
474.03	9799.82
474.21	9750.67
474.39	9827.91
474.57	9867.70
474.75	9895.78
474.93	9811.53
475.12	9980.04
475.30	10120.48
475.48	9844.29
475.66	10022.17
475.84	10078.35
476.02	10054.94
476.20	10265.59
476.38	10317.08
476.56	10668.16
476.74	10633.05
476.92	10469.22
477.10	10682.20
477.28	10548.79
477.46	10487.94
477.64	10738.38
477.82	11063.71
478.00	11225.21
478.18	11037.97
478.36	11281.38
478.54	11559.91
478.72	11288.40
478.90	11459.26
479.08	11587.99
479.26	11695.66
479.44	11805.66
479.62	11700.34
479.80	11784.60
479.98	11873.54
480.16	12329.94
480.34	12035.03
480.52	12290.15
480.70	12353.35
480.88	12241.00
481.06	12369.73
481.24	12549.95
481.41	12678.68
481.59	12772.30
481.77	12727.83
481.95	12994.65
482.13	12936.14
482.31	12826.14
482.49	13383.18
482.67	13408.93
482.85	13415.95
483.03	13607.87
483.21	13870.01
483.39	13923.85
483.57	13717.88
483.74	13830.23
483.92	14164.92
484.10	13795.12
484.28	14057.26
484.46	14370.89
484.64	14787.50
484.82	14356.85
485.00	14579.20
485.18	15042.62
485.35	15054.33
485.53	15124.54
485.71	15136.24
485.89	15445.20
486.07	15171.35
486.25	15442.85
486.43	15590.31
486.61	15829.04
486.78	15782.23
486.96	15854.79
487.14	16100.55
487.32	16025.65
487.50	16320.56
487.68	16343.96
487.85	16624.83
488.03	16858.88
488.21	16940.80
488.39	16711.42
488.57	17205.28
488.75	17256.77
488.92	17542.32
489.10	17465.08
489.28	17467.42
489.46	17788.07
489.64	17900.42
489.81	18310.01
489.99	18040.85
490.17	18143.83
490.35	18628.32
490.53	18623.64
490.70	18696.20
490.88	18455.12
491.06	18918.55
491.24	18953.66
491.41	19164.31
491.59	19091.75
491.77	19250.91
491.95	19414.74
492.13	19674.54
492.30	19487.30
492.48	19688.59
492.66	19536.45
492.84	19957.75
493.01	19990.52
493.19	20123.93
493.37	20301.81
493.54	20446.92
493.72	20470.33
493.90	20610.76
494.08	20669.27
494.25	21055.46
494.43	21191.21
494.61	21102.27
494.79	21645.27
494.96	21586.76
495.14	21589.10
495.32	21558.67
495.49	21820.81
495.67	21832.52
495.85	22059.55
496.02	22230.41
496.20	22391.91
496.38	22197.64
496.55	22029.12
496.73	22977.04
496.91	22464.46
497.09	22537.02
497.26	22927.89
497.44	22864.69
497.62	23194.71
497.79	23494.30
497.97	23154.92
498.14	23559.83
498.32	23606.64
498.50	23239.18
498.67	23676.86
498.85	23955.38
499.03	24077.09
499.20	23878.15
499.38	24161.35
499.56	24683.29
499.73	24786.27
499.91	24393.06
500.08	24659.88
500.26	24547.54
500.44	24479.66
500.61	25151.40
500.79	24819.04
500.97	24978.20
501.14	25177.14
501.32	25413.54
501.49	25317.57
501.67	25404.17
501.84	25666.31
502.02	25823.13
502.20	25617.16
502.37	25558.65
502.55	25638.23
502.72	25989.31
502.90	26094.63
503.07	26214.00
503.25	25862.92
503.43	26380.18
503.60	26464.44
503.78	26759.34
503.95	26321.66
504.13	26438.69
504.30	26958.29
504.48	26913.82
504.65	26714.87
504.83	26834.24
505.01	26962.97
505.18	27260.22
505.36	27288.31
505.53	27290.65
505.71	27623.00
505.88	27435.76
506.06	27339.80
506.23	27534.06
506.41	27576.19
506.58	28020.89
506.76	27763.43
506.93	28051.32
507.11	27894.50
507.28	28463.25
507.46	28336.87
507.63	28379.00
507.81	28797.95
507.98	28364.95
508.16	28631.77
508.33	28407.08
508.50	28938.38
508.68	28943.06
508.85	28961.79
509.03	28776.89
509.20	29259.04
509.38	29244.99
509.55	29256.70
509.73	29237.97
509.90	29275.42
510.08	29380.74
510.25	29530.54
510.42	29591.39
510.60	29591.39
510.77	29631.18
510.95	30223.34
511.12	29694.38
511.30	29839.49
511.47	29851.19
511.64	29788.00
511.82	30270.15
511.99	30277.17
512.17	30459.73
512.34	30520.59
512.51	31271.90
512.69	30724.21
512.86	30808.47
513.04	31117.42
513.21	30696.13
513.38	31304.67
513.56	31112.74
513.73	30764.00
513.90	31365.52
514.08	30974.65
514.25	31400.63
514.43	31440.42
514.60	31826.60
514.77	31608.93
514.95	32140.24
515.12	31728.30
515.29	31480.21
515.47	32119.17
515.64	32168.32
515.81	31821.92
515.99	32222.16
516.16	32205.77
516.33	32339.18
516.51	32844.74
516.68	32428.12
516.85	32617.71
517.03	32851.76
517.20	32929.00
517.37	33036.66
517.54	32486.64
517.72	33074.11
517.89	33022.62
518.06	32945.38
518.24	33020.28
518.41	32570.90
518.58	33048.36
518.75	33022.62
518.93	33287.10
519.10	33223.90
519.27	33303.48
519.45	33301.14
519.62	33563.28
519.79	33647.54
519.96	33722.44
520.14	34036.07
520.31	33874.57
520.48	33893.30
520.65	34110.97
520.83	34504.18
521.00	34380.13
521.17	34579.07
521.34	34553.33
521.52	34452.69
521.69	34698.44
521.86	34579.07
522.03	34272.46
522.20	35192.30
522.38	35058.88
522.55	34981.65
522.72	35456.78
522.89	35042.50
523.07	35154.85
523.24	35241.45
523.41	35812.54
523.58	34899.73
523.75	35637.00
523.92	35569.12
524.10	35407.62
524.27	35459.12
524.44	35496.56
524.61	36100.42
524.78	36093.40
524.96	36009.14
525.13	36084.04
525.30	36266.60
525.47	36086.38
525.64	36353.20
525.81	36521.72
525.98	36463.21
526.16	36034.89
526.33	36168.30
526.50	36638.75
526.67	35962.33
526.84	36514.70
527.01	36481.93
527.18	36711.30
527.36	36692.58
527.53	36966.42
527.70	37397.08
527.87	37312.82
528.04	37113.87
528.21	37125.58
528.38	36840.03
528.55	36971.10
528.72	37172.39
528.89	37474.32
529.07	37088.13
529.24	37085.79
529.41	37593.68
529.58	37631.13
529.75	37680.28
529.92	37340.91
530.09	38000.94
530.26	37703.69
530.43	37790.29
530.60	37521.13
530.77	37785.61
530.94	37551.56
531.11	38082.86
531.28	38265.42
531.46	38417.55
531.63	38553.30
531.80	38007.96
531.97	38534.58
532.14	38300.53
532.31	38103.92
532.48	38340.32
532.65	38637.56
532.82	38731.18
532.99	38810.76
533.16	38714.80
533.33	38902.04
533.50	38845.87
533.67	38679.69
533.84	38724.16
534.01	39005.03
534.18	38679.69
534.35	39026.09
534.52	39007.37
534.69	39491.86
534.86	39391.22
535.03	39112.69
535.20	39519.95
535.37	39625.27
535.54	39304.62
535.71	39388.88
535.88	39744.64
536.05	39473.13
536.22	39629.95
536.38	39672.08
536.55	39856.98
536.72	39915.50
536.89	40004.44
537.06	39665.06
537.23	40116.78
537.40	39924.86
537.57	39732.93
537.74	39505.90
537.91	40175.30
538.08	39999.76
538.25	39929.54
538.42	40470.20
538.59	40418.71
538.75	40151.89
538.92	40226.79
539.09	40905.54
539.26	40357.86
539.43	40430.41
539.60	40554.46
539.77	40699.58
539.94	40905.54
540.11	40730.00
540.28	40821.28
540.44	40715.96
540.61	40781.49
540.78	40488.93
540.95	41057.68
541.12	40928.95
541.29	40809.58
541.46	41277.69
541.62	41656.85
541.79	41642.81
541.96	40886.82
542.13	40964.06
542.30	41450.89
542.47	41544.51
542.63	41305.77
542.80	41528.13
542.97	41654.51
543.14	42141.35
543.31	41638.13
543.48	41680.26
543.64	42487.74
543.81	42359.02
543.98	41998.57
544.15	41979.85
544.32	42501.79
544.48	42197.52
544.65	41904.95
544.82	42220.92
544.99	42270.08
545.16	42590.73
545.32	42169.43
545.49	42827.12
545.66	42696.05
545.83	42660.94
546.00	42277.10
546.16	42731.16
546.33	42564.98
546.50	42462.00
546.67	42670.31
546.83	42522.85
547.00	42286.46
547.17	42808.40
547.34	42623.50
547.50	43129.05
547.67	43122.03
547.84	43012.02
548.00	43473.11
548.17	43388.85
548.34	43138.41
548.51	43564.39
548.67	43379.49
548.84	43414.60
549.01	43325.66
549.18	43351.40
549.34	43409.92
549.51	43217.99
549.68	43742.27
549.84	43452.05
550.01	43756.32
550.18	43592.48
550.34	43739.93
550.51	43393.53
550.68	43388.85
550.84	43400.55
551.01	43791.42
551.18	43210.97
551.34	43524.60
551.51	44191.65
551.68	43634.61
551.84	43915.47
552.01	43894.41
552.18	43931.86
552.34	43585.46
552.51	44079.31
552.68	43840.57
552.84	43847.60
553.01	44217.40
553.18	44308.68
553.34	44304.00
553.51	44144.84
553.67	44432.73
553.84	44334.43
554.01	44371.88
554.17	44652.74
554.34	44545.08
554.51	44975.73
554.67	44790.83
554.84	44568.48
555.00	44306.34
555.17	44229.10
555.33	44828.28
555.50	44624.65
555.67	44737.00
555.83	45219.15
556.00	44952.33
556.16	45071.70
556.33	44751.04
556.50	45041.27
556.66	44900.84
556.83	45034.25
556.99	44877.43
557.16	45226.17
557.32	45511.72
557.49	45544.48
557.65	44830.62
557.82	44828.28
557.98	44917.22
558.15	45001.48
558.32	45474.27
558.48	45310.43
558.65	45240.21
558.81	45343.20
558.98	45532.78
559.14	45439.16
559.31	45413.41
559.47	44999.14
559.64	45347.88
559.80	45553.85
559.97	45752.79
560.13	45406.39
560.30	45394.69
560.46	45930.67
560.63	45612.36
560.79	45436.82
560.96	45846.41
561.12	45588.95
561.29	46052.38
561.45	45624.06
561.61	45322.13
561.78	45556.19
561.94	45647.47
562.11	45436.82
562.27	45804.28
562.44	45495.33
562.60	46026.63
562.77	45832.37
562.93	45511.72
563.10	45830.03
563.26	45549.17
563.42	46230.26
563.59	45886.20
563.75	46064.08
563.92	46209.20
564.08	46094.51
564.24	46157.70
564.41	46314.52
564.57	46155.36
564.74	45998.55
564.90	45734.07
565.07	45986.85
565.23	46508.79
565.39	46064.08
565.56	46220.90
565.72	46581.34
565.88	46272.39
566.05	46012.59
566.21	46134.30
566.38	46232.60
566.54	46485.38
566.70	46375.37
566.87	46183.45
567.03	46546.23
567.19	46520.49
567.36	46433.89
567.52	46295.80
567.68	46513.47
567.85	46656.24
568.01	46389.42
568.17	46436.23
568.34	46859.87
568.50	46717.09
568.66	45991.53
568.83	46597.73
568.99	46571.98
569.15	47000.30
569.32	46167.07
569.48	46583.68
569.64	46876.25
569.81	46513.47
569.97	46670.28
570.13	46745.18
570.30	46403.46
570.46	46894.97
570.62	46808.37
570.78	46550.91
570.95	46506.44
571.11	46752.20
571.27	46511.13
571.43	46967.53
571.60	46403.46
571.76	46424.53
571.92	46452.61
572.09	47093.92
572.25	46174.09
572.41	46651.56
572.57	46822.42
572.74	47402.87
572.90	46808.37
573.06	46749.86
573.22	46852.84
573.38	47435.64
573.55	47365.42
573.71	46784.97
573.87	47501.17
574.03	46986.25
574.20	47510.53
574.36	47288.18
574.52	46712.41
574.68	46679.64
574.84	47138.39
575.01	47044.77
575.17	47012.00
575.33	47026.04
575.49	46628.15
575.65	47206.26
575.82	47290.52
575.98	47203.92
576.14	47316.27
576.30	47168.82
576.46	46969.87
576.62	47227.33
576.79	47122.01
576.95	46930.08
577.11	46820.08
577.27	47136.05
577.43	47463.72
577.59	46806.03
577.75	47035.41
577.92	46525.17
578.08	46817.74
578.24	46705.39
578.40	47363.08
578.56	47058.81
578.72	47166.48
578.88	47178.18
579.04	46953.49
579.21	47248.39
579.37	47030.72
579.53	47217.97
579.69	47143.07
579.85	47147.75
580.01	47035.41
580.17	47210.95
580.33	47414.57
580.49	47222.65
580.65	47398.19
580.82	46976.89
580.98	46799.01
581.14	46995.62
581.30	47283.50
581.46	46892.63
581.62	47290.52
581.78	47339.68
581.94	47512.88
582.10	47316.27
582.26	47466.06
582.42	47454.36
582.58	47426.28
582.74	47501.17
582.90	47351.38
583.06	47643.94
583.22	46958.17
583.38	47388.83
583.54	47166.48
583.70	47224.99
583.86	47033.07
584.02	47257.76
584.18	47627.56
584.34	47257.76
584.50	47590.11
584.66	47353.72
584.82	47274.14
584.98	47573.73
585.14	47370.10
585.30	47070.51
585.46	47217.97
585.62	47260.10
585.78	47384.15
585.94	47269.46
586.10	47445.00
586.26	47482.45
586.42	47136.05
586.58	47618.20
586.74	47587.77
586.90	47072.85
587.06	47257.76
587.22	47306.91
587.38	47349.04
587.54	47938.85
587.70	47676.71
587.86	47173.50
588.02	47313.93
588.18	47697.78
588.34	47583.09
588.49	47646.29
588.65	47618.20
588.81	47334.99
588.97	47608.84
589.13	47395.85
589.29	47636.92
589.45	47845.23
589.61	47704.80
589.77	47716.50
589.93	47870.98
590.08	47913.11
590.24	47782.04
590.40	48163.54
590.56	48027.79
590.72	47725.86
590.88	47636.92
591.04	47360.74
591.20	47824.17
591.35	47529.26
591.51	48442.07
591.67	47775.02
591.83	47735.23
591.99	47791.40
592.15	47983.32
592.31	47452.02
592.46	47772.67
592.62	47746.93
592.78	48046.52
592.94	48514.62
593.10	47976.30
593.26	48301.64
593.41	48102.69
593.57	48126.10
593.73	48486.54
593.89	48589.52
594.05	48413.98
594.20	48128.44
594.36	48404.62
594.52	48446.75
594.68	48074.60
594.84	47749.27
594.99	48767.40
595.15	48072.26
595.31	48135.46
595.47	47833.53
595.62	48048.86
595.78	47793.74
595.94	48154.18
596.10	48088.65
596.25	48168.22
596.41	48545.05
596.57	48030.13
596.73	48460.79
596.88	47950.56
597.04	48147.16
597.20	48273.55
597.36	48027.79
597.51	48261.85
597.67	48018.43
597.83	48055.88
597.99	48034.81
598.14	48161.20
598.30	48287.59
598.46	48079.28
598.61	48671.44
598.77	48542.71
598.93	48516.96
599.09	48002.05
599.24	48481.86
599.40	47966.94
599.56	48395.26
599.71	48701.87
599.87	48671.44
600.03	48746.34
600.18	48559.09
600.34	48184.61
600.50	48325.04
600.65	48215.04
600.81	48535.69
600.97	48708.89
601.12	48376.53
601.28	48252.48
601.44	48034.81
601.59	48062.90
601.75	48460.79
601.91	48409.30
602.06	48325.04
602.22	48367.17
602.37	48348.45
602.53	48411.64
602.69	48633.99
602.84	48428.02
603.00	48011.41
603.16	48339.08
603.31	48177.59
603.47	48608.25
603.62	48491.22
603.78	48336.74
603.94	48547.39
604.09	48301.64
604.25	48311.00
604.40	47952.90
604.56	48383.55
604.71	48828.26
604.87	48100.35
605.03	48339.08
605.18	48133.12
605.34	48545.05
605.49	48086.31
605.65	48367.17
605.80	48303.98
605.96	48200.99
606.12	48137.80
606.27	48608.25
606.43	48093.33
606.58	48531.01
606.74	48341.42
606.89	47847.57
607.05	48776.76
607.20	48076.94
607.36	48343.77
607.51	48006.73
607.67	47842.89
607.82	48318.02
607.98	47955.24
608.13	48121.41
608.29	47662.67
608.44	48327.38
608.60	48093.33
608.75	48329.72
608.91	47559.69
609.06	48135.46
609.22	48311.00
609.37	48367.17
609.53	48259.51
609.68	48486.54
609.84	47866.30
609.99	47730.54
610.15	47873.32
610.30	48622.29
610.46	47906.08
610.61	48072.26
610.76	48493.56
610.92	47842.89
611.07	47887.36
611.23	47716.50
611.38	47908.43
611.54	47756.29
611.69	47831.19
611.84	47927.15
612.00	48090.99
612.15	47775.02
612.31	48069.92
612.46	47641.60
612.62	47868.64
612.77	47468.40
612.92	47957.58
613.08	48034.81
613.23	47643.94
613.39	47627.56
613.54	47484.79
613.69	48222.06
613.85	47489.47
614.00	47566.71
614.15	47936.51
614.31	47421.59
614.46	47526.92
614.62	47641.60
614.77	47445.00
614.92	48051.20
615.08	47739.91
615.23	47819.49
615.38	47639.26
615.54	47796.08
615.69	47594.79
615.84	47248.39
616.00	47856.93
616.15	47498.83
616.30	47878.00
616.46	47917.79
616.61	47325.63
616.76	47674.37
616.92	47547.98
617.07	47285.84
617.22	47625.22
617.37	47009.66
617.53	47491.81
617.68	47419.25
617.83	47566.71
617.99	47887.36
618.14	47583.09
618.29	46902.00
618.45	46684.33
618.60	46780.29
618.75	46721.77
618.90	46967.53
619.06	47384.15
619.21	47459.04
619.36	47402.87
619.51	47023.70
619.67	47049.45
619.82	47180.52
619.97	47147.75
620.12	46684.33
620.28	47246.05
620.43	47716.50
620.58	46841.14
620.73	47330.31
620.89	47243.71
621.04	47449.68
621.19	46911.36
621.34	47033.07
621.49	46731.14
621.65	46962.85
621.80	47484.79
621.95	46721.77
622.10	47213.29
622.25	47206.26
622.41	47021.36
622.56	46651.56
622.71	47061.15
622.86	47100.94
623.01	46890.29
623.16	46644.54
623.32	46843.48
623.47	46768.58
623.62	46841.14
623.77	46644.54
623.92	46780.29
624.07	46354.31
624.23	46344.95
624.38	46293.46
624.53	46602.41
624.68	46548.57
624.83	46174.09
624.98	46611.77
625.13	45895.56
625.29	46216.22
625.44	45977.48
625.59	46298.14
625.74	46672.62
625.89	46471.34
626.04	46012.59
626.19	46436.23
626.34	46120.26
626.49	45729.39
626.65	45930.67
626.80	46293.46
626.95	45954.08
627.10	45792.58
627.25	46136.64
627.40	45750.45
627.55	46157.70
627.70	46174.09
627.85	46010.25
628.00	46450.27
628.15	45890.88
628.30	45661.51
628.45	45933.01
628.60	45357.24
628.76	45303.41
628.91	45785.56
629.06	45186.38
629.21	45275.32
629.36	45741.09
629.51	45378.31
629.66	45961.10
629.81	45504.70
629.96	45659.17
630.11	45808.96
630.26	45256.60
630.41	45720.02
630.56	45684.92
630.71	45102.12
630.86	45287.03
631.01	45055.31
631.16	45427.46
631.31	45308.09
631.46	45303.41
631.61	45755.13
631.76	45603.00
631.91	45352.56
632.06	45586.61
632.21	45607.68
632.36	45436.82
632.51	44793.17
632.66	45127.87
632.81	44957.01
632.96	45617.04
633.10	44832.96
633.25	44989.78
633.40	45048.29
633.55	45322.13
633.70	45221.49
633.85	45010.84
634.00	44739.34
634.15	44779.13
634.30	45214.47
634.45	44802.53
634.60	44823.60
634.75	44561.46
634.90	44889.13
635.05	44811.90
635.19	44807.22
635.34	44926.58
635.49	44704.23
635.64	44851.69
635.79	45078.72
635.94	44985.10
636.09	45413.41
636.24	44744.02
636.39	44416.35
636.53	44758.06
636.68	44133.14
636.83	44343.79
636.98	44060.58
637.13	44212.72
637.28	44280.60
637.43	44058.24
637.57	44570.82
637.72	44044.20
637.87	44247.83
638.02	44577.84
638.17	44165.91
638.32	44055.90
638.46	43894.41
638.61	43716.53
638.76	44055.90
638.91	44081.65
639.06	43564.39
639.20	43943.56
639.35	43931.86
639.50	43833.55
639.65	43992.71
639.80	44023.14
639.94	44390.60
640.09	43957.60
640.24	44168.25
640.39	43426.30
640.54	43473.11
640.68	43629.93
640.83	44135.48
640.98	43592.48
641.13	44002.07
641.27	43878.02
641.42	43763.34
641.57	43768.02
641.72	43725.89
641.86	43227.35
642.01	43232.04
642.16	43040.11
642.31	43487.15
642.45	43580.78
642.60	43283.53
642.75	43377.15
642.90	43323.32
643.04	43489.49
643.19	43309.27
643.34	43262.46
643.48	43215.65
643.63	43627.59
643.78	43517.58
643.93	43882.70
644.07	43016.71
644.22	43433.32
644.37	42747.54
644.51	43299.91
644.66	43377.15
644.81	43152.46
644.95	43070.54
645.10	43210.97
645.25	42452.64
645.39	43234.38
645.54	43171.18
645.69	42656.26
645.83	42740.52
645.98	42567.32
646.13	43112.67
646.27	42656.26
646.42	42579.03
646.57	43260.12
646.71	42859.89
646.86	42815.42
647.00	42679.67
647.15	43203.95
647.30	42871.59
647.44	42625.84
647.59	42635.20
647.74	42522.85
647.88	42667.97
648.03	42590.73
648.17	43250.76
648.32	42831.80
648.47	42848.19
648.61	42480.72
648.76	42686.69
648.90	42775.63
649.05	42487.74
649.20	42347.31
649.34	42169.43
649.49	42347.31
649.63	42564.98
649.78	42520.51
649.92	42344.97
650.07	43021.39
650.21	42328.59
650.36	42644.56
650.51	42745.20
650.65	42845.85
650.80	42600.09
650.94	42115.60
651.09	42012.62
651.23	41771.54
651.38	41872.18
651.52	41848.78
651.67	41968.15
651.81	41783.24
651.96	42272.42
652.10	41432.16
652.25	41808.99
652.39	41942.40
652.54	41792.61
652.68	41542.17
652.83	41406.42
652.97	42021.98
653.12	41422.80
653.26	41771.54
653.41	41813.67
653.55	41724.73
653.70	42019.64
653.84	42052.41
653.99	42326.25
654.13	41586.64
654.27	41647.49
654.42	41734.09
654.56	41357.27
654.71	41696.64
654.85	41689.62
655.00	41593.66
655.14	41771.54
655.29	41734.09
655.43	41542.17
655.57	41368.97
655.72	40942.99
655.86	41488.34
656.01	41076.40
656.15	41116.19
656.30	40989.80
656.44	41401.74
656.58	41179.39
656.73	41511.74
656.87	40879.80
657.01	40961.72
657.16	41347.90
657.30	41361.95
657.45	41095.13
657.59	40966.40
657.73	40783.83
657.88	41001.50
658.02	40783.83
658.16	40910.22
658.31	40980.44
658.45	41467.27
658.60	40701.92
658.74	41006.19
658.88	40978.10
659.03	40734.68
659.17	40472.54
659.31	40432.75
659.46	39943.58
659.60	40802.56
659.74	40280.62
659.89	40175.30
660.03	39840.60
660.17	40573.19
660.32	40364.88
660.46	40498.29
660.60	39962.31
660.74	40119.12
660.89	40226.79
661.03	40170.61
661.17	39866.34
661.32	39718.89
661.46	40055.93
661.60	39566.76
661.74	39789.11
661.89	39618.25
662.03	39672.08
662.17	39920.18
662.31	39648.68
662.46	39246.10
662.60	39257.81
662.74	39122.05
662.88	39491.86
663.03	38885.66
663.17	39157.16
663.31	38675.01
663.45	39239.08
663.60	39356.11
663.74	39166.52
663.88	38602.46
664.02	38787.36
664.17	39213.34
664.31	38263.08
664.45	38415.21
664.59	38305.21
664.73	38749.91
664.88	38852.89
665.02	38518.20
665.16	38387.13
665.30	38499.47
665.44	38227.97
665.59	38050.09
665.73	38352.02
665.87	37855.82
666.01	38169.46
666.15	38246.69
666.29	37926.04
666.44	38024.34
666.58	37879.23
666.72	37603.05
666.86	37830.08
667.00	37944.76
667.14	37586.66
667.28	37406.44
667.43	37736.46
667.57	37867.53
667.71	37916.68
667.85	38312.23
667.99	37895.61
668.13	36971.10
668.27	36828.33
668.41	37329.20
668.56	36772.16
668.70	37244.94
668.84	36701.94
668.98	36486.61
669.12	36779.18
669.26	36961.74
669.40	37097.49
669.54	36919.61
669.68	36821.31
669.82	36669.17
669.96	36603.64
670.10	35931.90
670.25	36620.02
670.39	36011.48
670.53	36259.58
670.67	36414.05
670.81	36266.60
670.95	36175.32
671.09	35945.95
671.23	36072.34
671.37	36142.55
671.51	35915.52
671.65	35873.39
671.79	35803.17
671.93	35681.47
672.07	35880.41
672.21	35501.25
672.35	35578.48
672.49	35388.90
672.63	35019.10
672.77	35400.60
672.91	35122.08
673.05	35131.44
673.19	34733.55
673.33	34841.21
673.47	34806.11
673.61	34787.38
673.75	34892.71
673.89	34656.31
674.03	34164.80
674.17	34040.75
674.31	34136.71
674.45	34050.11
674.59	34438.64
674.73	34253.74
674.87	34185.86
675.01	33427.53
675.15	33354.97
675.29	33460.30
675.43	33605.41
675.56	33977.56
675.70	33102.20
675.84	33268.37
675.98	32402.38
676.12	33453.28
676.26	33254.33
676.40	32786.22
676.54	32755.80
676.68	32575.58
676.82	32154.28
676.96	32842.40
677.10	33144.33
677.23	32493.66
677.37	32350.88
677.51	32126.19
677.65	32369.61
677.79	32109.81
677.93	32355.57
678.07	31702.56
678.21	31763.41
678.34	32091.09
678.48	31868.73
678.62	31311.69
678.76	31587.87
678.90	31330.41
679.04	31412.33
679.18	31463.82
679.31	30916.14
679.45	30672.72
679.59	30988.69
679.73	31243.81
679.87	30515.90
680.00	30480.80
680.14	30686.76
680.28	31159.55
680.42	30529.95
680.56	30724.21
680.70	30291.21
680.83	29898.00
680.97	29652.25
681.11	30103.97
681.25	29677.99
681.39	29006.26
681.52	29692.04
681.66	28971.15
681.80	28914.98
681.94	28936.04
682.07	29020.30
682.21	28823.70
682.35	28943.06
682.49	28776.89
682.62	28334.53
682.76	28800.29
682.90	28673.90
683.04	28402.40
683.17	28329.84
683.31	28212.82
683.45	27943.66
683.59	27850.03
683.72	27702.58
683.86	27707.26
684.00	27571.51
684.13	28105.15
684.27	27213.41
684.41	27358.52
684.55	27370.22
684.68	27337.46
684.82	26941.91
684.96	27068.30
685.09	27260.22
685.23	27072.98
685.37	27035.53
685.50	27105.74
685.64	26827.22
685.78	26754.66
685.91	26370.82
686.05	26129.74
686.19	25736.53
686.32	26211.66
686.46	25792.70
686.60	25575.03
686.73	25771.64
686.87	25729.51
687.01	25675.68
687.14	25944.84
687.28	25568.01
687.42	25425.24
687.55	25362.04
687.69	25671.00
687.82	24851.81
687.96	24945.43
688.10	25149.06
688.23	24982.88
688.37	25064.80
688.50	24907.98
688.64	24697.33
688.78	24477.32
688.91	24575.62
689.05	24264.33
689.18	24109.86
689.32	23690.90
689.46	23843.04
689.59	23864.10
689.73	23817.29
689.86	24329.87
690.00	23587.92
690.13	23475.57
690.27	23487.28
690.41	23707.29
690.54	23396.00
690.68	23470.89
690.81	23016.83
690.95	22808.52
691.08	22958.31
691.22	23103.43
691.35	22455.10
691.49	23094.07
691.62	22597.87
691.76	22508.93
691.89	22312.33
692.03	22242.11
692.16	21827.84
692.30	22001.04
692.43	21921.46
692.57	21741.24
692.70	21790.39
692.84	21659.32
692.97	21532.93
693.11	21200.57
693.24	21284.83
693.38	21163.12
693.51	20919.71
693.65	20856.51
693.78	20776.94
693.92	20837.79
694.05	21319.94
694.19	20631.82
694.32	20767.57
694.45	20886.94
694.59	20849.49
694.72	20702.04
694.86	20243.29
694.99	20266.70
695.13	19934.34
695.26	19915.62
695.39	19957.75
695.53	20074.77
695.66	19683.91
695.80	19513.05
695.93	19702.63
696.07	19660.50
696.20	19194.73
696.33	18761.73
696.47	19051.96
696.60	18932.59
696.73	19229.84
696.87	19140.90
697.00	19147.92
697.14	18890.46
697.27	18466.83
697.40	18359.16
697.54	18747.69
697.67	18579.17
697.80	18665.77
697.94	18431.72
698.07	18263.20
698.21	18164.90
698.34	18230.43
698.47	18040.85
698.61	17752.96
698.74	17500.19
698.87	17525.93
699.01	17462.74
699.14	17748.28
699.27	17511.89
699.40	17483.80
699.54	17355.07
699.67	17170.17
699.80	17287.20
699.94	17076.55
700.07	17280.18
700.20	16821.43
700.34	16634.19
700.47	16828.45
700.60	17092.93
700.73	16905.69
700.87	16465.67
701.00	16140.33
701.13	16240.98
701.26	16245.66
701.40	16395.45
701.53	15892.24
701.66	15852.45
701.79	16161.40
701.93	15494.35
702.06	15585.63
702.19	15772.87
702.32	15578.61
702.46	15597.33
702.59	15662.86
702.72	15702.65
702.85	15594.99
702.99	15396.04
703.12	15328.17
703.25	15204.12
703.38	14930.28
703.51	15110.50
703.65	14934.96
703.78	14789.85
703.91	14501.96
704.04	14420.04
704.17	14677.50
704.31	14534.73
704.44	14520.68
704.57	14424.72
704.70	14295.99
704.83	14237.48
704.96	14090.02
705.10	13989.38
705.23	14031.51
>>>>>End Processed Spectral Data<<<<<
