SpectraSuite Data File
++++++++++++++++++++++++++++++++++++
Date: Fri Oct 25 10:44:27 EDT 2013
User: price-jones
Dark Spectrum Present: No
Reference Spectrum Present: No
Number of Sampled Component Spectra: 1
Spectrometers: USB2+H05261
Integration Time (usec): 100000 (USB2+H05261)
Spectra Averaged: 1 (USB2+H05261)
Boxcar Smoothing: 0 (USB2+H05261)
Correct for Electrical Dark: No (USB2+H05261)
Strobe/Lamp Enabled: No (USB2+H05261)
Correct for Detector Non-linearity: No (USB2+H05261)
Correct for Stray Light: No (USB2+H05261)
Number of Pixels in Processed Spectrum: 2048
>>>>>Begin Processed Spectral Data<<<<<
365.73	180.22
365.92	180.22
366.12	180.22
366.32	21.06
366.52	32.77
366.72	63.19
366.91	0.00
367.11	0.00
367.31	63.19
367.51	0.00
367.70	0.00
367.90	32.77
368.10	0.00
368.30	65.54
368.49	9.36
368.69	7.02
368.89	7.02
369.09	37.45
369.28	117.03
369.48	72.56
369.68	25.75
369.87	133.41
370.07	46.81
370.27	49.15
370.47	138.09
370.66	395.55
370.86	479.81
371.06	393.21
371.25	484.49
371.45	425.98
371.65	444.70
371.84	465.77
372.04	456.40
372.24	531.30
372.44	500.87
372.63	475.13
372.83	505.56
373.03	594.50
373.22	454.06
373.42	512.58
373.62	559.39
373.81	580.45
374.01	564.07
374.21	470.45
374.40	566.41
374.60	585.13
374.79	557.05
374.99	580.45
375.19	650.67
375.38	601.52
375.58	557.05
375.78	596.84
375.97	622.58
376.17	589.82
376.37	636.63
376.56	660.03
376.76	631.94
376.95	575.77
377.15	660.03
377.35	727.91
377.54	702.16
377.74	706.84
377.93	629.60
378.13	704.50
378.33	629.60
378.52	573.43
378.72	681.10
378.91	720.88
379.11	674.07
379.31	697.48
379.50	685.78
379.70	741.95
379.89	664.71
380.09	718.54
380.28	667.05
380.48	627.26
380.68	711.52
380.87	753.65
381.07	655.35
381.26	699.82
381.46	725.57
381.65	648.33
381.85	678.76
382.04	690.46
382.24	711.52
382.43	683.44
382.63	795.78
382.83	718.54
383.02	812.17
383.22	774.72
383.41	744.29
383.61	734.93
383.80	718.54
384.00	751.31
384.19	760.67
384.39	697.48
384.58	793.44
384.78	805.14
384.97	805.14
385.17	856.64
385.36	786.42
385.56	858.98
385.75	823.87
385.95	854.30
386.14	847.27
386.34	812.17
386.53	748.97
386.72	898.77
386.92	952.60
387.11	861.32
387.31	844.93
387.50	894.08
387.70	882.38
387.89	933.87
388.09	866.00
388.28	945.58
388.48	1006.43
388.67	968.98
388.86	896.43
389.06	978.34
389.25	961.96
389.45	992.39
389.64	1036.86
389.84	1062.60
390.03	1013.45
390.22	1013.45
390.42	1029.84
390.61	1006.43
390.81	1116.44
391.00	1025.15
391.19	1076.65
391.39	1032.18
391.58	1137.50
391.78	1062.60
391.97	1064.94
392.16	1011.11
392.36	1006.43
392.55	1048.56
392.75	898.77
392.94	1043.88
393.13	1022.81
393.33	1008.77
393.52	1039.20
393.71	1121.12
393.91	1123.46
394.10	1104.73
394.29	1100.05
394.49	1170.27
394.68	1219.42
394.88	1238.14
395.07	1301.34
395.26	1252.19
395.46	1289.64
395.65	1224.10
395.84	1282.61
396.04	1219.42
396.23	1181.97
396.42	1043.88
396.62	1247.51
396.81	1306.02
397.00	1254.53
397.19	1310.70
397.39	1308.36
397.58	1233.46
397.77	1373.89
397.97	1409.00
398.16	1413.68
398.35	1465.18
398.55	1521.35
398.74	1563.48
398.93	1624.33
399.12	1530.71
399.32	1495.60
399.51	1598.59
399.70	1703.91
399.90	1568.16
400.09	1661.78
400.28	1633.69
400.47	1572.84
400.67	1727.32
400.86	1699.23
401.05	1788.17
401.24	1746.04
401.44	1605.61
401.63	1790.51
401.82	1804.55
402.01	1692.21
402.21	1802.21
402.40	1774.13
402.59	1692.21
402.78	1881.79
402.97	1792.85
403.17	1839.66
403.36	1832.64
403.55	1851.36
403.74	1914.56
403.93	1884.13
404.13	1895.83
404.32	1961.37
404.51	1888.81
404.70	2052.65
404.89	2024.56
405.09	1933.28
405.28	1959.03
405.47	1898.17
405.66	1893.49
405.85	2024.56
406.05	1984.77
406.24	2076.06
406.43	1959.03
406.62	2087.76
406.81	2303.09
407.00	2069.03
407.20	2022.22
407.39	2127.55
407.58	2286.70
407.77	2216.49
407.96	2251.60
408.15	2296.07
408.34	2326.49
408.54	2300.75
408.73	2265.64
408.92	2394.37
409.11	2450.54
409.30	2282.02
409.49	2333.51
409.68	2312.45
409.87	2296.07
410.07	2326.49
410.26	2459.90
410.45	2401.39
410.64	2492.67
410.83	2462.24
411.02	2490.33
411.21	2614.38
411.40	2602.68
411.59	2663.53
411.78	2684.59
411.98	2656.51
412.17	2616.72
412.36	2672.89
412.55	2820.35
412.74	2778.22
412.93	2871.84
413.12	2761.83
413.31	2895.24
413.50	2909.29
413.69	2930.35
413.88	2930.35
414.07	2902.26
414.26	3014.61
414.45	2944.39
414.64	3089.51
414.83	3059.08
415.02	3206.53
415.22	3234.62
415.41	3236.96
415.60	3239.30
415.79	3201.85
415.98	3332.92
416.17	3384.41
416.36	3283.77
416.55	3236.96
416.74	3346.97
416.93	3382.07
417.12	3379.73
417.31	3435.91
417.50	3309.52
417.69	3515.48
417.88	3447.61
418.07	3510.80
418.26	3489.74
418.45	3545.91
418.64	3763.58
418.83	3644.21
419.02	3637.19
419.21	3599.74
419.39	3669.96
419.58	3592.72
419.77	3480.38
419.96	3695.71
420.15	3716.77
420.34	3665.28
420.53	3838.48
420.72	3859.54
420.91	3798.69
421.10	3906.35
421.29	3946.14
421.48	3829.12
421.67	3801.03
421.86	3911.04
422.05	3833.80
422.24	3822.09
422.43	4098.28
422.61	4053.81
422.80	3997.64
422.99	3838.48
423.18	4007.00
423.37	4039.76
423.56	4091.26
423.75	4095.94
423.94	3946.14
424.13	3737.84
424.32	3735.50
424.50	3948.48
424.69	4007.00
424.88	4070.19
425.07	3999.98
425.26	3925.08
425.45	4142.75
425.64	4102.96
425.83	4030.40
426.01	4011.68
426.20	3974.23
426.39	3999.98
426.58	3873.59
426.77	3936.78
426.96	4056.15
427.15	4053.81
427.33	4152.11
427.52	4091.26
427.71	4283.18
427.90	4217.65
428.09	4341.69
428.28	4217.65
428.46	4266.80
428.65	4194.24
428.84	4224.67
429.03	4418.93
429.22	4205.94
429.40	4346.37
429.59	4248.07
429.78	3974.23
429.97	3878.27
430.16	3934.44
430.34	4180.20
430.53	4231.69
430.72	4273.82
430.91	4301.90
431.10	4360.42
431.28	4500.85
431.47	4748.95
431.66	4788.74
431.85	4606.17
432.03	4681.07
432.22	4844.91
432.41	4685.75
432.60	4802.78
432.79	4812.14
432.97	4905.76
433.16	4898.74
433.35	4739.58
433.54	4678.73
433.72	4725.54
433.91	4732.56
434.10	4912.78
434.28	4856.61
434.47	4901.08
434.66	4947.89
434.85	5074.28
435.03	5029.81
435.22	4983.00
435.41	5118.75
435.59	5153.86
435.78	5195.99
435.97	5327.06
436.16	5139.82
436.34	5179.61
436.53	5104.71
436.72	5270.89
436.90	5057.90
437.09	5291.95
437.28	5242.80
437.46	5401.96
437.65	5254.50
437.84	5228.76
438.02	5123.43
438.21	5305.99
438.40	5256.84
438.58	5376.21
438.77	5518.98
438.96	5341.10
439.14	5603.24
439.33	5699.20
439.52	5888.79
439.70	5654.73
439.89	5720.27
440.08	5860.70
440.26	5874.74
440.45	5799.85
440.63	5797.51
440.82	6104.12
441.01	6050.28
441.19	6141.57
441.38	6176.67
441.57	6193.06
441.75	6359.24
441.94	6420.09
442.12	6389.66
442.31	6464.56
442.50	6551.16
442.68	6305.40
442.87	6497.33
443.05	6459.88
443.24	6562.86
443.43	6670.53
443.61	6707.98
443.80	6771.17
443.98	6448.18
444.17	6274.98
444.35	6665.85
444.54	6731.38
444.73	6698.61
444.91	6452.86
445.10	6534.78
445.28	6532.44
445.47	6492.65
445.65	6609.67
445.84	6750.10
446.02	6724.36
446.21	6644.78
446.39	6729.04
446.58	6658.82
446.77	6707.98
446.95	6707.98
447.14	6839.05
447.32	6836.70
447.51	6801.60
447.69	6754.79
447.88	6766.49
448.06	6677.55
448.25	6942.03
448.43	7005.22
448.62	6899.90
448.80	6836.70
448.99	7021.61
449.17	7054.37
449.36	7119.91
449.54	7115.23
449.73	7169.06
449.91	7276.73
450.10	7353.96
450.28	7349.28
450.46	7140.97
450.65	7328.22
450.83	7414.82
451.02	7192.47
451.20	7585.68
451.39	7620.78
451.57	7428.86
451.76	7300.13
451.94	7527.16
452.13	7522.48
452.31	7370.35
452.49	7265.02
452.68	7220.55
452.86	7133.95
453.05	7569.29
453.23	7602.06
453.42	7407.80
453.60	7520.14
453.78	7609.08
453.97	7391.41
454.15	7508.44
454.34	7632.49
454.52	7639.51
454.70	7515.46
454.89	7852.50
455.07	7716.75
455.26	7843.14
455.44	7852.50
455.62	7850.16
455.81	7740.15
455.99	7831.43
456.17	7847.82
456.36	8114.64
456.54	7946.12
456.73	8191.88
456.91	8243.37
457.09	8351.03
457.28	8526.57
457.46	8210.60
457.64	8287.84
457.83	8327.63
458.01	8217.62
458.19	8449.33
458.38	8294.86
458.56	8351.03
458.74	8477.42
458.93	8493.80
459.11	8381.46
459.29	8547.64
459.48	8507.85
459.66	8379.12
459.84	8435.29
460.03	8580.40
460.21	8599.13
460.39	8671.68
460.57	8573.38
460.76	8664.66
460.94	8760.63
461.12	8706.79
461.31	8814.46
461.49	8882.33
461.67	8781.69
461.85	9090.64
462.04	8901.06
462.22	9172.56
462.40	9081.28
462.59	9111.71
462.77	8945.53
462.95	9001.70
463.13	9064.89
463.32	8997.02
463.50	8973.61
463.68	9320.01
463.86	9181.92
464.05	8940.85
464.23	9095.32
464.41	9287.25
464.59	8994.68
464.78	9394.91
464.96	9291.93
465.14	9364.48
465.32	9343.42
465.50	9338.74
465.69	9437.04
465.87	9406.61
466.05	9509.60
466.23	9205.33
466.41	9224.05
466.60	9614.92
466.78	9497.89
466.96	9298.95
467.14	9525.98
467.32	9685.14
467.51	9818.55
467.69	9390.23
467.87	9579.81
468.05	9692.16
468.23	9724.93
468.41	9556.41
468.60	9596.20
468.78	9844.29
468.96	9582.15
469.14	9980.04
469.32	9844.29
469.50	9724.93
469.69	9942.60
469.87	10050.26
470.05	10113.45
470.23	9996.43
470.41	10235.16
470.59	9956.64
470.77	9898.13
470.95	10139.20
471.14	10359.21
471.32	10307.72
471.50	10373.25
471.68	10375.59
471.86	10693.91
472.04	10553.48
472.22	10527.73
472.40	10363.89
472.58	10642.42
472.77	10607.31
472.95	10506.66
473.13	11103.50
473.31	10698.59
473.49	10705.61
473.67	10649.44
473.85	10768.80
474.03	11138.61
474.21	11180.74
474.39	11382.03
474.57	11164.36
474.75	11213.51
474.93	11295.43
475.12	11456.92
475.30	11190.10
475.48	11384.37
475.66	11314.15
475.84	11477.99
476.02	11660.55
476.20	11716.72
476.38	11749.49
476.56	12072.48
476.74	12102.91
476.92	11971.84
477.10	12112.27
477.28	12196.53
477.46	12400.16
477.64	12676.34
477.82	12699.75
478.00	12737.20
478.18	12641.23
478.36	12856.56
478.54	12718.47
478.72	12938.48
478.90	13114.02
479.08	13385.52
479.26	13322.33
479.44	13170.19
479.62	13397.23
479.80	13483.83
479.98	13954.27
480.16	13811.50
480.34	13692.13
480.52	14003.43
480.70	14087.68
480.88	13858.31
481.06	14092.37
481.24	14356.85
481.41	14256.20
481.59	14686.86
481.77	14555.79
481.95	14647.07
482.13	14640.05
482.31	14885.81
482.49	14979.43
482.67	15056.67
482.85	15236.89
483.03	15524.77
483.21	15468.60
483.39	15742.44
483.57	15541.16
483.74	15669.89
483.92	15721.38
484.10	15777.55
484.28	16435.24
484.46	16446.94
484.64	16615.46
484.82	16563.97
485.00	16528.86
485.18	16933.78
485.35	16512.48
485.53	16226.93
485.71	16395.45
485.89	16659.93
486.07	16725.47
486.25	16901.01
486.43	17238.05
486.61	16989.95
486.78	17355.07
486.96	17596.15
487.14	17963.61
487.32	18111.07
487.50	18331.08
487.68	18534.70
487.85	18508.96
488.03	18707.90
488.21	18752.37
488.39	18958.34
488.57	19260.27
488.75	18979.40
488.92	19580.92
489.10	19833.70
489.28	19719.01
489.46	20086.48
489.64	19779.87
489.81	20503.09
489.99	20760.55
490.17	20727.78
490.35	20671.61
490.53	20788.64
490.70	20720.76
490.88	20856.51
491.06	21097.59
491.24	20779.28
491.41	21036.74
491.59	21018.01
491.77	21036.74
491.95	21612.51
492.13	21404.20
492.30	22225.73
492.48	21926.14
492.66	22106.36
492.84	22237.43
493.01	22389.56
493.19	22328.71
493.37	22476.16
493.54	22476.16
493.72	22738.30
493.90	23105.77
494.08	23255.56
494.25	23370.25
494.43	23398.34
494.61	23707.29
494.79	23950.70
494.96	23906.23
495.14	23964.75
495.32	24278.38
495.49	24212.84
495.67	24023.26
495.85	24505.41
496.02	24500.73
496.20	24608.39
496.38	24835.42
496.55	25083.52
496.73	25635.89
496.91	25090.54
497.09	25195.87
497.26	25869.94
497.44	25722.49
497.62	25465.03
497.79	25993.99
497.97	25855.90
498.14	25912.07
498.32	26019.74
498.50	26202.30
498.67	26536.99
498.85	26373.16
499.03	26476.14
499.20	26810.84
499.38	26710.19
499.56	26817.86
499.73	27077.66
499.91	26951.27
500.08	26864.67
500.26	26817.86
500.44	27056.59
500.61	27087.02
500.79	26962.97
500.97	27459.16
501.14	27618.32
501.32	27880.46
501.49	27248.52
501.67	27435.76
501.84	27875.78
502.02	27693.22
502.20	27868.76
502.37	28374.31
502.55	27946.00
502.72	28301.76
502.90	28966.47
503.07	28411.76
503.25	28505.38
503.43	28451.55
503.60	28865.83
503.78	28547.51
503.95	28713.69
504.13	28802.63
504.30	29034.35
504.48	28889.23
504.65	29593.73
504.83	29607.78
505.01	29783.32
505.18	29696.72
505.36	30284.19
505.53	30239.72
505.71	30237.38
505.88	30284.19
506.06	29986.94
506.23	30071.20
506.41	29830.13
506.58	29912.05
506.76	30298.23
506.93	30511.22
507.11	30314.62
507.28	30433.99
507.46	30211.64
507.63	30223.34
507.81	30611.87
507.98	30333.34
508.16	30834.22
508.33	31103.38
508.50	31316.37
508.68	31321.05
508.85	31775.11
509.03	31784.48
509.20	31847.67
509.38	31541.06
509.55	31791.50
509.73	31405.31
509.90	31854.69
510.08	31658.09
510.25	31826.60
510.42	32191.73
510.60	32332.16
510.77	32292.37
510.95	32350.88
511.12	32332.16
511.30	32390.67
511.47	32903.25
511.64	32540.47
511.82	33088.15
511.99	32673.88
512.17	32755.80
512.34	32634.09
512.51	33205.18
512.69	33050.70
512.86	32877.51
513.04	33291.78
513.21	33528.17
513.38	33275.40
513.56	33422.85
513.73	32931.34
513.90	33308.16
514.08	33387.74
514.25	33446.26
514.43	33418.17
514.60	34181.18
514.77	33722.44
514.95	34216.29
515.12	34286.51
515.29	34546.31
515.47	34501.84
515.64	34965.26
515.81	34312.25
515.99	34230.33
516.16	34141.39
516.33	34312.25
516.51	34440.98
516.68	33567.96
516.85	34075.86
517.03	33769.25
517.20	34333.32
517.37	35098.67
517.54	34955.90
517.72	35152.51
517.89	34279.49
518.06	34405.88
518.24	34792.06
518.41	34831.85
518.58	34836.53
518.75	35051.86
518.93	35494.22
519.10	35248.47
519.27	35627.63
519.45	35461.46
519.62	36018.50
519.79	35871.05
519.96	35779.77
520.14	36521.72
520.31	35927.22
520.48	36025.53
520.65	35894.46
520.83	36699.60
521.00	36517.04
521.17	36137.87
521.34	36589.59
521.52	36613.00
521.69	36664.49
521.86	36952.38
522.03	37104.51
522.20	36491.29
522.38	37022.59
522.55	36964.08
522.72	37216.86
522.89	36498.31
523.07	37312.82
523.24	37177.07
523.41	37123.24
523.58	37148.98
523.75	38218.61
523.92	37727.10
524.10	37895.61
524.27	37963.49
524.44	37680.28
524.61	37958.81
524.78	38244.35
524.96	38242.01
525.13	38103.92
525.30	37982.21
525.47	38242.01
525.64	37848.80
525.81	38298.19
525.98	38000.94
526.16	37865.19
526.33	37663.90
526.50	37846.46
526.67	37963.49
526.84	38096.90
527.01	37638.15
527.18	38230.31
527.36	38469.04
527.53	38710.12
527.70	39077.58
527.87	38916.09
528.04	38749.91
528.21	38749.91
528.38	39548.03
528.55	39482.50
528.72	39498.88
528.89	39496.54
529.07	39344.41
529.24	39292.91
529.41	39112.69
529.58	39365.47
529.75	39330.36
529.92	40093.38
530.09	39683.78
530.26	39683.78
530.43	40027.84
530.60	39744.64
530.77	39669.74
530.94	40233.81
531.11	39761.02
531.28	39981.03
531.46	40287.64
531.63	40161.25
531.80	40137.85
531.97	39868.69
532.14	39966.99
532.31	39737.62
532.48	39718.89
532.65	40297.00
532.82	40381.26
532.99	40453.82
533.16	40074.65
533.33	40634.04
533.50	40437.44
533.67	40830.65
533.84	40479.57
534.01	40584.89
534.18	40582.55
534.35	40577.87
534.52	40961.72
534.69	40926.61
534.86	41071.72
535.03	40840.01
535.20	41301.09
535.37	41897.93
535.54	41504.72
535.71	41329.18
535.88	41251.94
536.05	41235.56
536.22	41411.10
536.38	41354.93
536.55	40992.14
536.72	41373.65
536.89	41317.48
537.06	41610.04
537.23	41570.25
537.40	41249.60
537.57	41703.67
537.74	41841.76
537.91	42007.94
538.08	41900.27
538.25	41563.23
538.42	41720.05
538.59	42092.19
538.75	41495.36
538.92	41787.92
539.09	42059.43
539.26	42045.38
539.43	42328.59
539.60	41818.35
539.77	41656.85
539.94	41614.72
540.11	41574.94
540.28	42277.10
540.44	42003.25
540.61	41881.55
540.78	42050.06
540.95	42319.23
541.12	42300.50
541.29	42272.42
541.46	42361.36
541.62	42389.44
541.79	42691.37
541.96	42354.33
542.13	42190.50
542.30	42480.72
542.47	42452.64
542.63	43061.18
542.80	42588.39
542.97	43220.33
543.14	43138.41
543.31	43569.07
543.48	43309.27
543.64	43763.34
543.81	43461.41
543.98	43679.08
544.15	43028.41
544.32	43257.78
544.48	43955.26
544.65	43569.07
544.82	43187.56
544.99	42845.85
545.16	43782.06
545.32	43505.88
545.49	43920.15
545.66	43772.70
545.83	44020.80
546.00	43821.85
546.16	43573.75
546.33	43709.50
546.50	43613.54
546.67	43768.02
546.83	43945.90
547.00	44065.27
547.17	43871.00
547.34	43580.78
547.50	44266.55
547.67	44552.10
547.84	44147.18
548.00	44360.17
548.17	44495.92
548.34	43861.64
548.51	44198.68
548.67	44378.90
548.84	44156.55
549.01	44168.25
549.18	44215.06
549.34	44304.00
549.51	44561.46
549.68	44531.03
549.84	44563.80
550.01	44842.32
550.18	44191.65
550.34	44949.99
550.51	44428.05
550.68	44650.40
550.84	44079.31
551.01	44392.94
551.18	44474.86
551.34	44559.12
551.51	44854.03
551.68	44697.21
551.84	44678.49
552.01	44795.51
552.18	45315.11
552.34	44603.59
552.51	45062.33
552.68	44713.59
552.84	45577.25
553.01	45155.96
553.18	45097.44
553.34	44554.44
553.51	44711.25
553.67	44961.69
553.84	45287.03
554.01	45317.45
554.17	45689.60
554.34	45275.32
554.51	45331.50
554.67	45354.90
554.84	45177.02
555.00	44729.98
555.17	44781.47
555.33	45109.14
555.50	45282.34
555.67	45514.06
555.83	45146.59
556.00	45457.88
556.16	46012.59
556.33	45492.99
556.50	45474.27
556.66	45748.11
556.83	45357.24
556.99	45464.91
557.16	45453.20
557.32	45553.85
557.49	45521.08
557.65	45188.72
557.82	45500.01
557.98	45371.28
558.15	45525.76
558.32	45741.09
558.48	45291.71
558.65	45752.79
558.81	45464.91
558.98	45624.06
559.14	45226.17
559.31	45626.40
559.47	45818.33
559.64	45757.47
559.80	46382.40
559.97	45794.92
560.13	45844.07
560.30	45764.49
560.46	46211.54
560.63	45958.76
560.79	46174.09
560.96	46281.75
561.12	45918.97
561.29	45830.03
561.45	45682.58
561.61	46284.09
561.78	45521.08
561.94	45729.39
562.11	46115.58
562.27	46005.57
562.44	46220.90
562.60	46286.43
562.77	46202.18
562.93	46000.89
563.10	46291.12
563.26	45860.46
563.42	46391.76
563.59	46094.51
563.75	45844.07
563.92	46480.70
564.08	46078.13
564.24	46321.54
564.41	46476.02
564.57	46216.22
564.74	46054.72
564.90	46110.89
565.07	46007.91
565.23	46356.65
565.39	46244.30
565.56	46347.29
565.72	46026.63
565.88	46581.34
566.05	46323.88
566.21	46349.63
566.38	46293.46
566.54	46305.16
566.70	46974.55
566.87	46777.95
567.03	46146.00
567.19	46948.81
567.36	46628.15
567.52	45874.50
567.68	46815.40
567.85	46059.40
568.01	46564.96
568.17	46309.84
568.34	46944.12
568.50	46141.32
568.66	46555.60
568.83	46583.68
568.99	46036.00
569.15	46150.68
569.32	45975.14
569.48	46192.81
569.64	46747.52
569.81	46422.19
569.97	46628.15
570.13	46291.12
570.30	46335.59
570.46	46286.43
570.62	46394.10
570.78	46108.55
570.95	46307.50
571.11	46794.33
571.27	46272.39
571.43	47040.09
571.60	46234.94
571.76	46155.36
571.92	46684.33
572.09	46206.86
572.25	46251.33
572.41	46408.14
572.57	46431.55
572.74	46939.44
572.90	46595.38
573.06	46536.87
573.22	46857.52
573.38	46588.36
573.55	46424.53
573.71	46707.73
573.87	46553.26
574.03	46848.16
574.20	46513.47
574.36	46988.60
574.52	46277.07
574.68	46827.10
574.84	46604.75
575.01	46473.68
575.17	46485.38
575.33	46211.54
575.49	46351.97
575.65	46806.03
575.82	46632.83
575.98	46616.45
576.14	46609.43
576.30	46703.05
576.46	46782.63
576.62	46438.57
576.79	46639.86
576.95	46309.84
577.11	46574.32
577.27	46588.36
577.43	46614.11
577.59	46316.86
577.75	46412.82
577.92	46260.69
578.08	46178.77
578.24	46295.80
578.40	46124.94
578.56	46279.41
578.72	46768.58
578.88	46944.12
579.04	46791.99
579.21	46354.31
579.37	46436.23
579.53	46621.13
579.69	46155.36
579.85	46579.00
580.01	47042.43
580.17	46667.94
580.33	46553.26
580.49	46656.24
580.65	46745.18
580.82	46913.70
580.98	46377.72
581.14	46539.21
581.30	47049.45
581.46	46642.20
581.62	46850.50
581.78	46461.97
581.94	46890.29
582.10	46590.70
582.26	46604.75
582.42	46752.20
582.58	46539.21
582.74	46471.34
582.90	46562.62
583.06	46550.91
583.22	46909.02
583.38	47365.42
583.54	46803.69
583.70	46644.54
583.86	46712.41
584.02	46260.69
584.18	46581.34
584.34	46974.55
584.50	46614.11
584.66	46965.19
584.82	46672.62
584.98	46649.22
585.14	46923.06
585.30	46920.72
585.46	46611.77
585.62	46855.18
585.78	46600.07
585.94	46459.63
586.10	46728.80
586.26	46967.53
586.42	47082.22
586.58	46803.69
586.74	46951.15
586.90	46361.33
587.06	46553.26
587.22	46471.34
587.38	46181.11
587.54	46829.44
587.70	47203.92
587.86	46637.51
588.02	46834.12
588.18	46918.38
588.34	46838.80
588.49	46487.72
588.65	45940.04
588.81	45874.50
588.97	46607.09
589.13	46431.55
589.29	46349.63
589.45	46534.53
589.61	46251.33
589.77	46529.85
589.93	46248.99
590.08	46857.52
590.24	46831.78
590.40	46862.21
590.56	47033.07
590.72	46932.42
590.88	46911.36
591.04	47093.92
591.20	46976.89
591.35	47023.70
591.51	47019.02
591.67	46887.95
591.83	46684.33
591.99	46557.94
592.15	46777.95
592.31	46960.51
592.46	46529.85
592.62	46777.95
592.78	46974.55
592.94	47187.54
593.10	46953.49
593.26	47187.54
593.41	46946.47
593.57	46693.69
593.73	46857.52
593.89	47313.93
594.05	46590.70
594.20	46789.65
594.36	46607.09
594.52	46499.42
594.68	47009.66
594.84	46773.27
594.99	46930.08
595.15	46768.58
595.31	46803.69
595.47	47047.11
595.62	47171.16
595.78	47004.98
595.94	47159.45
596.10	47051.79
596.25	46614.11
596.41	47206.26
596.57	46808.37
596.73	47129.03
596.88	47143.07
597.04	46550.91
597.20	46735.82
597.36	47372.44
597.51	47316.27
597.67	47136.05
597.83	47349.04
597.99	47037.75
598.14	47206.26
598.30	47007.32
598.46	47063.49
598.61	46429.21
598.77	46703.05
598.93	46941.78
599.09	46550.91
599.24	47503.51
599.40	47292.86
599.56	47262.44
599.71	46834.12
599.87	47129.03
600.03	47129.03
600.18	46768.58
600.34	46681.98
600.50	47224.99
600.65	46548.57
600.81	47227.33
600.97	47138.39
601.12	47089.24
601.28	46932.42
601.44	46822.42
601.59	46490.06
601.75	46412.82
601.91	46621.13
602.06	46681.98
602.22	47185.20
602.37	46756.88
602.53	46733.48
602.69	47112.64
602.84	46731.14
603.00	46607.09
603.16	47007.32
603.31	47079.88
603.47	46707.73
603.62	46876.25
603.78	47091.58
603.94	46967.53
604.09	46960.51
604.25	46808.37
604.40	47192.22
604.56	46887.95
604.71	47012.00
604.87	46700.71
605.03	46803.69
605.18	46616.45
605.34	46946.47
605.49	46653.90
605.65	46939.44
605.80	46820.08
605.96	46789.65
606.12	46728.80
606.27	47166.48
606.43	46705.39
606.58	46939.44
606.74	46190.47
606.89	46581.34
607.05	47126.69
607.20	46628.15
607.36	46131.96
607.51	46511.13
607.67	46335.59
607.82	46752.20
607.98	46415.16
608.13	46213.88
608.29	46410.48
608.44	46412.82
608.60	46150.68
608.75	46358.99
608.91	46342.61
609.06	46064.08
609.22	46199.83
609.37	46239.62
609.53	46487.72
609.68	46387.08
609.84	46543.89
609.99	46487.72
610.15	45947.06
610.30	45619.38
610.46	45879.18
610.61	45933.01
610.76	46291.12
610.92	46234.94
611.07	46375.37
611.23	46335.59
611.38	46237.28
611.54	46265.37
611.69	46190.47
611.84	45762.15
612.00	46031.32
612.15	45783.22
612.31	46321.54
612.46	45989.19
612.62	45874.50
612.77	46340.27
612.92	46342.61
613.08	45853.44
613.23	46363.67
613.39	46260.69
613.54	45579.59
613.69	45907.27
613.85	45940.04
614.00	45698.96
614.15	46153.02
614.31	46075.79
614.46	45818.33
614.62	45595.98
614.77	45387.67
614.92	45593.64
615.08	45818.33
615.23	45956.42
615.38	45413.41
615.54	45174.68
615.69	45251.92
615.84	45038.93
616.00	45067.02
616.15	45237.87
616.30	45523.42
616.46	45219.15
616.61	45364.26
616.76	44912.54
616.92	44612.95
617.07	45076.38
617.22	45148.93
617.37	45132.55
617.53	45031.91
617.68	45516.40
617.83	45422.78
617.99	45361.92
618.14	45193.40
618.29	45441.50
618.45	45191.06
618.60	45144.25
618.75	44891.48
618.90	44917.22
619.06	45469.59
619.21	45516.40
619.36	45752.79
619.51	45441.50
619.67	45272.98
619.82	45071.70
619.97	45081.06
620.12	44767.43
620.28	45045.95
620.43	44814.24
620.58	44783.81
620.73	44638.70
620.89	44645.72
621.04	44568.48
621.19	44910.20
621.34	44793.17
621.49	44971.05
621.65	44451.45
621.80	44629.34
621.95	44177.61
622.10	44142.50
622.25	44191.65
622.41	43910.79
622.56	44151.87
622.71	44463.16
622.86	44439.75
623.01	44477.20
623.16	44289.96
623.32	44460.82
623.47	44542.74
623.62	43978.67
623.77	44374.22
623.92	44357.83
624.07	44411.67
624.23	43861.64
624.38	43845.26
624.53	43793.76
624.68	44002.07
624.83	43814.83
624.98	44238.47
625.13	43384.17
625.29	43812.49
625.44	43817.17
625.59	44030.16
625.74	42799.04
625.89	43571.41
626.04	43386.51
626.19	43690.78
626.34	43409.92
626.49	43576.09
626.65	43796.10
626.80	43454.39
626.95	43426.30
627.10	43438.00
627.25	43283.53
627.40	43168.84
627.55	43236.72
627.70	43000.32
627.85	42993.30
628.00	42850.53
628.15	43501.20
628.30	43068.20
628.45	42958.19
628.60	43325.66
628.76	42993.30
628.91	43430.98
629.06	43007.34
629.21	43330.34
629.36	42604.77
629.51	42920.74
629.66	42902.02
629.81	42899.68
629.96	42906.70
630.11	43107.99
630.26	43423.96
630.41	43166.50
630.56	43126.71
630.71	42752.23
630.86	42550.94
631.01	42618.81
631.16	42773.29
631.31	42698.39
631.46	42438.59
631.61	42440.93
631.76	42340.29
631.91	42969.90
632.06	42258.37
632.21	43065.86
632.36	42473.70
632.51	42452.64
632.66	42405.83
632.81	42064.11
632.96	42307.52
633.10	42010.28
633.25	42895.00
633.40	41900.27
633.55	42522.85
633.70	42096.88
633.85	42368.38
634.00	42230.29
634.15	42080.49
634.30	41947.08
634.45	42197.52
634.60	42108.58
634.75	41970.49
634.90	41797.29
635.05	41933.04
635.19	41198.11
635.34	42263.05
635.49	42295.82
635.64	41816.01
635.79	41666.22
635.94	41804.31
636.09	42047.72
636.24	41783.24
636.39	41710.69
636.53	42052.41
636.68	41675.58
636.83	41872.18
636.98	41563.23
637.13	41413.44
637.28	41869.84
637.43	41682.60
637.57	41462.59
637.72	41354.93
637.87	41497.70
638.02	42026.66
638.17	42094.53
638.32	41586.64
638.46	41270.67
638.61	41205.13
638.76	41270.67
638.91	41340.88
639.06	41677.92
639.20	41404.08
639.35	41361.95
639.50	41333.86
639.65	41483.66
639.80	41214.49
639.94	40914.90
640.09	40968.74
640.24	41102.15
640.39	40807.24
640.54	40868.09
640.68	40982.78
640.83	41256.62
640.98	40645.74
641.13	40339.13
641.27	41155.98
641.42	40825.96
641.57	40732.34
641.72	40877.46
641.86	40800.22
642.01	40140.19
642.16	40671.49
642.31	40215.08
642.45	40938.31
642.60	40545.10
642.75	40566.16
642.90	40657.45
643.04	40842.35
643.19	40308.71
643.34	40442.12
643.48	40664.47
643.63	40074.65
643.78	40144.87
643.93	40114.44
644.07	39983.37
644.22	40325.09
644.37	40149.55
644.51	40172.96
644.66	40072.31
644.81	40196.36
644.95	40297.00
645.10	40428.07
645.25	39976.35
645.39	40053.59
645.54	40306.37
645.69	40217.43
645.83	39917.84
645.98	40252.53
646.13	40219.77
646.27	40521.69
646.42	40091.04
646.57	40098.06
646.71	40231.47
646.86	40114.44
647.00	40039.54
647.15	40236.15
647.30	39997.41
647.44	39910.82
647.59	39878.05
647.74	39658.04
647.88	39515.26
648.03	39913.16
648.17	39592.50
648.32	39262.49
648.47	39861.66
648.61	39335.04
648.76	39882.73
648.90	39814.85
649.05	39768.04
649.20	39402.92
649.34	39791.45
649.49	39569.10
649.63	39337.38
649.78	39040.14
649.92	38658.63
650.07	39894.43
650.21	39159.50
650.36	39234.40
650.51	39840.60
650.65	39578.46
650.80	39772.72
650.94	39438.03
651.09	39222.70
651.23	39484.84
651.38	39246.10
651.52	38440.96
651.67	39133.76
651.81	38878.64
651.96	38749.91
652.10	38457.34
652.25	38682.03
652.39	39016.73
652.54	39119.71
652.68	39105.67
652.83	38976.94
652.97	39501.22
653.12	38941.83
653.26	38462.02
653.41	39047.16
653.55	38534.58
653.70	38124.99
653.84	38572.03
653.99	38625.86
654.13	38560.33
654.27	38436.28
654.42	38071.15
654.56	38139.03
654.71	38415.21
654.85	38263.08
655.00	38288.82
655.14	37993.92
655.29	38150.73
655.43	37970.51
655.57	37895.61
655.72	37970.51
655.86	37750.50
656.01	37329.20
656.15	37586.66
656.30	37811.35
656.44	38457.34
656.58	37883.91
656.73	37757.52
656.87	37757.52
657.01	37902.64
657.16	37897.95
657.30	37797.31
657.45	37153.66
657.59	37748.16
657.73	37607.73
657.88	38043.07
658.02	37890.93
658.16	38352.02
658.31	38281.80
658.45	37963.49
658.60	37134.94
658.74	37940.08
658.88	38148.39
659.03	37691.99
659.17	37483.68
659.31	37209.84
659.46	37284.73
659.60	37420.48
659.74	37373.67
659.89	37223.88
660.03	37092.81
660.17	37083.45
660.32	37301.12
660.46	37151.32
660.60	37071.75
660.74	37069.40
660.89	37188.77
661.03	37010.89
661.17	36531.08
661.32	36556.83
661.46	36601.30
661.60	36765.14
661.74	36790.88
661.89	37137.28
662.03	36701.94
662.17	36690.24
662.31	36629.38
662.46	36182.34
662.60	36325.11
662.74	36409.37
662.88	36297.03
663.03	35917.86
663.17	36390.65
663.31	36004.46
663.45	36264.26
663.60	36032.55
663.74	36278.30
663.88	36081.70
664.02	35480.18
664.17	36041.91
664.31	35569.12
664.45	35777.43
664.59	36217.45
664.73	35545.72
664.88	35852.33
665.02	35196.98
665.16	36161.28
665.30	35728.28
665.44	34974.63
665.59	35236.77
665.73	35311.66
665.87	35232.08
666.01	35276.55
666.15	35405.28
666.29	35009.73
666.44	35611.25
666.58	35086.97
666.72	35105.70
666.86	34740.57
667.00	34759.30
667.14	34859.94
667.28	34714.83
667.43	34377.79
667.57	35138.46
667.71	34490.13
667.85	34602.48
667.99	34316.93
668.13	34265.44
668.27	34576.73
668.41	34333.32
668.56	34253.74
668.70	34527.58
668.84	34600.14
668.98	33699.03
669.12	34164.80
669.26	33965.85
669.40	33783.29
669.54	33631.16
669.68	33827.76
669.82	33830.10
669.96	33689.67
670.10	33195.82
670.25	33479.02
670.39	33525.83
670.53	33832.44
670.67	33275.40
670.81	33610.09
670.95	33275.40
671.09	33202.84
671.23	33132.62
671.37	33134.96
671.51	33305.82
671.65	32926.66
671.79	32765.16
671.93	32811.97
672.07	32800.27
672.21	32460.89
672.35	32566.21
672.49	32910.27
672.63	32847.08
672.77	32486.64
672.91	32739.41
673.05	32889.21
673.19	32259.60
673.33	32077.04
673.47	31981.08
673.61	32212.79
673.75	31962.36
673.89	31138.49
674.03	31531.70
674.17	31374.88
674.31	32041.93
674.45	31637.02
674.59	31835.97
674.73	31737.66
674.87	31442.76
675.01	31704.90
675.15	31342.11
675.29	31667.45
675.43	31342.11
675.56	31051.89
675.70	31105.72
675.84	30965.29
675.98	30527.61
676.12	30883.37
676.26	30827.20
676.40	30539.31
676.54	30665.70
676.68	30955.93
676.82	30010.35
676.96	30433.99
677.10	30572.08
677.23	30012.69
677.37	30295.89
677.51	29970.56
677.65	29542.24
677.79	29804.38
677.93	29795.02
678.07	29560.97
678.21	29490.75
678.34	29338.62
678.48	28982.85
678.62	29060.09
678.76	28669.22
678.90	28872.85
679.04	28716.03
679.18	28673.90
679.31	28489.00
679.45	28776.89
679.59	28374.31
679.73	28231.54
679.87	28056.00
680.00	28203.46
680.14	28346.23
680.28	28266.65
680.42	27847.69
680.56	28203.46
680.70	27955.36
680.83	28006.85
680.97	27910.89
681.11	28060.68
681.25	27384.27
681.39	27325.75
681.52	27812.59
681.66	27623.00
681.80	27424.06
681.94	27491.93
682.07	27269.58
682.21	27419.38
682.35	26897.44
682.49	26843.60
682.62	27091.70
682.76	27028.51
682.90	26572.10
683.04	26572.10
683.17	26361.45
683.31	26485.50
683.45	26143.78
683.59	26061.87
683.72	25928.45
683.86	25872.28
684.00	25640.57
684.13	25764.62
684.27	25633.55
684.41	25661.63
684.55	25589.08
684.68	25469.71
684.82	25390.13
684.96	25223.95
685.09	25230.98
685.23	25427.58
685.37	25025.01
685.50	24835.42
685.64	25130.33
685.78	24259.65
685.91	24533.50
686.05	24587.33
686.19	24339.23
686.32	24149.65
686.46	23681.54
686.60	23658.14
686.73	23515.36
686.87	23625.37
687.01	23625.37
687.14	23269.61
687.28	23110.45
687.42	23318.76
687.55	23721.33
687.69	23536.43
687.82	23463.87
687.96	23452.17
688.10	22955.97
688.23	23190.03
688.37	22696.17
688.50	22754.69
688.64	22611.92
688.78	22597.87
688.91	22878.74
689.05	22677.45
689.18	22490.21
689.32	22347.44
689.46	22345.09
689.59	22068.91
689.73	22361.48
689.86	22434.03
690.00	22038.48
690.13	21942.52
690.27	21837.20
690.41	21900.39
690.54	21853.58
690.68	21771.66
690.81	21331.64
690.95	21399.52
691.08	21715.49
691.22	21163.12
691.35	21160.78
691.49	21111.63
691.62	21076.52
691.76	21263.77
691.89	20957.16
692.03	21010.99
692.16	20809.70
692.30	20636.50
692.43	20313.51
692.57	20212.87
692.70	20357.98
692.84	20451.60
692.97	20386.07
693.11	20198.82
693.24	19955.41
693.38	20013.92
693.51	19920.30
693.65	19754.12
693.78	20142.65
693.92	19927.32
694.05	19688.59
694.19	19779.87
694.32	19349.21
694.45	19269.63
694.59	19119.84
694.72	18925.57
694.86	19115.16
694.99	18930.25
695.13	19021.53
695.26	19049.62
695.39	18689.18
695.53	18862.38
695.66	18906.85
695.80	18672.79
695.93	18415.34
696.07	18628.32
696.20	18384.91
696.33	18415.34
696.47	18321.71
696.60	18305.33
696.73	17795.09
696.87	18221.07
697.00	17881.69
697.14	17963.61
697.27	18022.12
697.40	18106.38
697.54	17811.48
697.67	17493.16
697.80	17221.66
697.94	17018.04
698.07	17125.70
698.21	17055.48
698.34	17177.19
698.47	17118.68
698.61	16833.13
698.74	16690.36
698.87	16807.39
699.01	16383.75
699.14	16435.24
699.27	16620.14
699.40	16638.87
699.54	16348.64
699.67	16327.58
699.80	16257.36
699.94	16329.92
700.07	16383.75
700.20	16170.76
700.34	15878.19
700.47	16088.84
700.60	16140.33
700.73	16278.43
700.87	15983.52
701.00	15728.40
701.13	15936.71
701.26	15573.92
701.40	15602.01
701.53	15344.55
701.66	15459.24
701.79	15229.87
701.93	15307.10
702.06	15290.72
702.19	15288.38
702.32	15131.56
702.46	15164.33
702.59	14981.77
702.72	15178.37
702.85	14904.53
702.99	14848.36
703.12	14888.15
703.25	14684.52
703.38	14621.33
703.51	14597.92
703.65	14466.85
703.78	14534.73
703.91	14530.05
704.04	14413.02
704.17	14207.05
704.31	14232.80
704.44	14012.79
704.57	14141.52
704.70	13909.80
704.83	13916.83
704.96	13928.53
705.10	13912.14
705.23	13813.84
>>>>>End Processed Spectral Data<<<<<
