SpectraSuite Data File
++++++++++++++++++++++++++++++++++++
Date: Fri Oct 25 10:43:53 EDT 2013
User: price-jones
Dark Spectrum Present: No
Reference Spectrum Present: No
Number of Sampled Component Spectra: 1
Spectrometers: USB2+H05261
Integration Time (usec): 100000 (USB2+H05261)
Spectra Averaged: 1 (USB2+H05261)
Boxcar Smoothing: 0 (USB2+H05261)
Correct for Electrical Dark: No (USB2+H05261)
Strobe/Lamp Enabled: No (USB2+H05261)
Correct for Detector Non-linearity: No (USB2+H05261)
Correct for Stray Light: No (USB2+H05261)
Number of Pixels in Processed Spectrum: 2048
>>>>>Begin Processed Spectral Data<<<<<
365.73	161.50
365.92	161.50
366.12	161.50
366.32	25.75
366.52	4.68
366.72	0.00
366.91	49.15
367.11	18.72
367.31	81.92
367.51	23.41
367.70	9.36
367.90	28.09
368.10	0.00
368.30	51.49
368.49	0.00
368.69	21.06
368.89	58.51
369.09	0.00
369.28	65.54
369.48	37.45
369.68	107.66
369.87	60.85
370.07	93.62
370.27	107.66
370.47	187.24
370.66	355.76
370.86	411.93
371.06	463.43
371.25	423.64
371.45	425.98
371.65	601.52
371.84	451.72
372.04	463.43
372.24	510.24
372.44	442.36
372.63	559.39
372.83	641.31
373.03	521.94
373.22	543.00
373.42	533.64
373.62	461.09
373.81	603.86
374.01	564.07
374.21	564.07
374.40	477.47
374.60	596.84
374.79	641.31
374.99	561.73
375.19	638.97
375.38	575.77
375.58	629.60
375.78	580.45
375.97	601.52
376.17	638.97
376.37	573.43
376.56	671.73
376.76	636.63
376.95	636.63
377.15	627.26
377.35	645.99
377.54	660.03
377.74	720.88
377.93	610.88
378.13	650.67
378.33	709.18
378.52	592.16
378.72	688.12
378.91	678.76
379.11	653.01
379.31	755.99
379.50	713.86
379.70	702.16
379.89	727.91
380.09	655.35
380.28	737.27
380.48	720.88
380.68	718.54
380.87	711.52
381.07	772.38
381.26	713.86
381.46	723.23
381.65	767.70
381.85	662.37
382.04	678.76
382.24	760.67
382.43	784.08
382.63	802.80
382.83	711.52
383.02	777.06
383.22	763.01
383.41	676.41
383.61	767.70
383.80	777.06
384.00	826.21
384.19	734.93
384.39	840.25
384.58	807.48
384.78	741.95
384.97	812.17
385.17	791.10
385.36	767.70
385.56	837.91
385.75	793.44
385.95	905.79
386.14	854.30
386.34	868.34
386.53	894.08
386.72	795.78
386.92	875.36
387.11	837.91
387.31	891.74
387.50	924.51
387.70	777.06
387.89	905.79
388.09	856.64
388.28	922.17
388.48	947.92
388.67	1027.50
388.86	952.60
389.06	966.64
389.25	1029.84
389.45	1036.86
389.64	952.60
389.84	964.30
390.03	1123.46
390.22	1055.58
390.42	1039.20
390.61	1083.67
390.81	1055.58
391.00	1057.92
391.19	1102.39
391.39	1139.84
391.58	1039.20
391.78	1100.05
391.97	1170.27
392.16	1062.60
392.36	1095.37
392.55	1095.37
392.75	1004.09
392.94	976.00
393.13	1053.24
393.33	1020.47
393.52	1067.28
393.71	1088.35
393.91	1132.82
394.10	1142.18
394.29	1299.00
394.49	1217.08
394.68	1343.47
394.88	1214.74
395.07	1338.79
395.26	1350.49
395.46	1233.46
395.65	1299.00
395.84	1282.61
396.04	1198.35
396.23	1287.29
396.42	1144.52
396.62	1156.22
396.81	1268.57
397.00	1287.29
397.19	1401.98
397.39	1338.79
397.58	1432.41
397.77	1486.24
397.97	1643.06
398.16	1427.73
398.35	1423.05
398.55	1579.86
398.74	1490.92
398.93	1650.08
399.12	1643.06
399.32	1507.30
399.51	1645.40
399.70	1671.14
399.90	1636.03
400.09	1596.25
400.28	1652.42
400.47	1659.44
400.67	1643.06
400.86	1849.02
401.05	1650.08
401.24	1713.27
401.44	1781.15
401.63	1797.53
401.82	1844.34
402.01	1764.76
402.21	1781.15
402.40	1856.04
402.59	1816.26
402.78	1937.96
402.97	1823.28
403.17	1846.68
403.36	1914.56
403.55	2047.97
403.74	1975.41
403.93	1949.67
404.13	1912.22
404.32	1959.03
404.51	1907.54
404.70	2022.22
404.89	1905.20
405.09	2120.53
405.28	2050.31
405.47	2073.71
405.66	2083.08
405.85	2174.36
406.05	2092.44
406.24	2169.68
406.43	2024.56
406.62	2197.76
406.81	2249.25
407.00	2104.14
407.20	2214.15
407.39	2214.15
407.58	2253.94
407.77	2232.87
407.96	2490.33
408.15	2370.96
408.34	2354.58
408.54	2401.39
408.73	2380.32
408.92	2429.48
409.11	2399.05
409.30	2436.50
409.49	2303.09
409.68	2345.22
409.87	2363.94
410.07	2462.24
410.26	2408.41
410.45	2527.78
410.64	2539.48
410.83	2635.44
411.02	2649.49
411.21	2684.59
411.40	2705.66
411.59	2771.19
411.78	2665.87
411.98	2820.35
412.17	2825.03
412.36	2860.13
412.55	2806.30
412.74	2935.03
412.93	2813.32
413.12	2827.37
413.31	2998.23
413.50	2918.65
413.69	3014.61
413.88	3021.63
414.07	2953.76
414.26	3190.15
414.45	3112.91
414.64	3080.14
414.83	3124.62
415.02	3129.30
415.22	3206.53
415.41	3227.60
415.60	3222.92
415.79	3342.28
415.98	3454.63
416.17	3293.13
416.36	3438.25
416.55	3363.35
416.74	3424.20
416.93	3274.41
417.12	3454.63
417.31	3468.67
417.50	3557.61
417.69	3536.55
417.88	3613.79
418.07	3529.53
418.26	3555.27
418.45	3613.79
418.64	3576.34
418.83	3756.56
419.02	3695.71
419.21	3826.78
419.39	3742.52
419.58	3691.02
419.77	3698.05
419.96	3859.54
420.15	3817.41
420.34	3810.39
420.53	3861.88
420.72	4046.79
420.91	3985.93
421.10	4037.42
421.29	4102.96
421.48	3943.80
421.67	3981.25
421.86	3904.01
422.05	3908.69
422.24	3983.59
422.43	4067.85
422.61	3981.25
422.80	4037.42
422.99	4072.53
423.18	4152.11
423.37	4060.83
423.56	4074.87
423.75	3913.38
423.94	4072.53
424.13	3857.20
424.32	3796.35
424.50	3997.64
424.69	4231.69
424.88	4161.47
425.07	4205.94
425.26	4063.17
425.45	4117.00
425.64	4011.68
425.83	4133.39
426.01	4182.54
426.20	4201.26
426.39	4152.11
426.58	3955.51
426.77	4133.39
426.96	4105.30
427.15	4182.54
427.33	4198.92
427.52	4147.43
427.71	4208.28
427.90	4297.22
428.09	4266.80
428.28	4381.48
428.46	4351.06
428.65	4229.35
428.84	4479.79
429.03	4454.04
429.22	4243.39
429.40	4201.26
429.59	4299.56
429.78	4121.68
429.97	4025.72
430.16	4112.32
430.34	4229.35
430.53	4280.84
430.72	4273.82
430.91	4301.90
431.10	4470.42
431.28	4648.30
431.47	4877.68
431.66	4903.42
431.85	4678.73
432.03	4758.31
432.22	4805.12
432.41	4770.01
432.60	4945.55
432.79	4786.40
432.97	4959.60
433.16	4873.00
433.35	4830.87
433.54	4758.31
433.72	4840.23
433.91	4856.61
434.10	4994.70
434.28	5032.15
434.47	4999.38
434.66	5151.52
434.85	5097.69
435.03	5224.08
435.22	4983.00
435.41	5411.32
435.59	5214.71
435.78	5369.19
435.97	5313.02
436.16	5437.06
436.34	5240.46
436.53	5401.96
436.72	5561.11
436.90	5177.26
437.09	5390.25
437.28	5273.23
437.46	5378.55
437.65	5324.72
437.84	5401.96
438.02	5263.86
438.21	5469.83
438.40	5275.57
438.58	5455.79
438.77	5502.60
438.96	5771.76
439.14	5699.20
439.33	5998.79
439.52	5827.93
439.70	6008.16
439.89	5877.09
440.08	5916.87
440.26	5987.09
440.45	6005.81
440.63	6078.37
440.82	6160.29
441.01	6118.16
441.19	6232.85
441.38	6296.04
441.57	6291.36
441.75	6356.90
441.94	6487.96
442.12	6832.02
442.31	6806.28
442.50	6640.10
442.68	6658.82
442.87	6523.07
443.05	6775.85
443.24	6572.22
443.43	6574.56
443.61	6658.82
443.80	6834.36
443.98	6588.61
444.17	6443.49
444.35	6806.28
444.54	6984.16
444.73	6881.18
444.91	6654.14
445.10	6747.76
445.28	6530.09
445.47	6651.80
445.65	6607.33
445.84	6832.02
446.02	7049.69
446.21	6808.62
446.39	6925.65
446.58	6871.81
446.77	6750.10
446.95	6820.32
447.14	6794.58
447.32	7005.22
447.51	6705.63
447.69	6916.28
447.88	6935.01
448.06	6878.83
448.25	6974.80
448.43	6986.50
448.62	6897.56
448.80	6853.09
448.99	7002.88
449.17	7112.89
449.36	7082.46
449.54	7215.87
449.73	7494.40
449.91	7508.44
450.10	7447.58
450.28	7501.42
450.46	7470.99
450.65	7648.87
450.83	7667.60
451.02	7466.31
451.20	7559.93
451.39	7433.54
451.57	7545.89
451.76	7435.88
451.94	7396.09
452.13	7550.57
452.31	7604.40
452.49	7506.10
452.68	7389.07
452.86	7557.59
453.05	7529.50
453.23	7744.83
453.42	7693.34
453.60	7705.04
453.78	7768.24
453.97	7569.29
454.15	7691.00
454.34	7620.78
454.52	7693.34
454.70	7901.65
454.89	7861.86
455.07	7882.92
455.26	8074.85
455.44	8135.70
455.62	8161.45
455.81	8121.66
455.99	8180.17
456.17	8116.98
456.36	8266.77
456.54	8435.29
456.73	8381.46
456.91	8524.23
457.09	8484.44
457.28	8608.49
457.46	8472.74
457.64	8418.91
457.83	8439.97
458.01	8287.84
458.19	8606.15
458.38	8374.44
458.56	8692.75
458.74	8655.30
458.93	8559.34
459.11	8606.15
459.29	8727.86
459.48	8681.05
459.66	8690.41
459.84	8704.45
460.03	8929.14
460.21	8650.62
460.39	8854.25
460.57	8917.44
460.76	8952.55
460.94	8877.65
461.12	9092.98
461.31	9013.40
461.49	9039.15
461.67	8973.61
461.85	9390.23
462.04	9247.46
462.22	9434.70
462.40	9317.67
462.59	9444.06
462.77	9188.94
462.95	9308.31
463.13	9270.86
463.32	9305.97
463.50	9219.37
463.68	9596.20
463.86	9399.59
464.05	9268.52
464.23	9184.26
464.41	9394.91
464.59	9329.38
464.78	9561.09
464.96	9652.37
465.14	9460.45
465.32	9488.53
465.50	9654.71
465.69	9734.29
465.87	9493.21
466.05	9671.09
466.23	9509.60
466.41	9643.01
466.60	9694.50
466.78	9540.02
466.96	9788.12
467.14	9518.96
467.32	9902.81
467.51	9879.40
467.69	9680.46
467.87	9834.93
468.05	9816.21
468.23	9645.35
468.41	9806.84
468.60	9834.93
468.78	10008.13
468.96	9902.81
469.14	10120.48
469.32	10211.76
469.50	9685.14
469.69	9980.04
469.87	10263.25
470.05	10300.70
470.23	10068.98
470.41	10190.69
470.59	10541.77
470.77	10314.74
470.95	10422.41
471.14	10609.65
471.32	10438.79
471.50	10747.74
471.68	10600.29
471.86	10888.17
472.04	10927.96
472.22	11021.58
472.40	10607.31
472.58	10813.28
472.77	10733.70
472.95	10937.32
473.13	11248.61
473.31	10785.19
473.49	11169.04
473.67	11152.65
473.85	10972.43
474.03	11335.21
474.21	11639.48
474.39	11503.73
474.57	11442.88
474.75	11585.65
474.93	11562.25
475.12	11707.36
475.30	11698.00
475.48	11800.98
475.66	11929.71
475.84	11672.25
476.02	11765.87
476.20	11953.12
476.38	12215.26
476.56	12421.22
476.74	12173.13
476.92	12329.94
477.10	12315.90
477.28	12730.17
477.46	12580.38
477.64	12622.51
477.82	12809.75
478.00	13092.96
478.18	13020.40
478.36	12952.52
478.54	13139.77
478.72	13160.83
478.90	13301.26
479.08	13635.96
479.26	13703.84
479.44	13818.52
479.62	13900.44
479.80	13755.33
479.98	13989.38
480.16	14427.06
480.34	14099.39
480.52	14143.86
480.70	14448.13
480.88	13942.57
481.06	14429.40
481.24	14441.11
481.41	14581.54
481.59	14864.74
481.77	14668.14
481.95	14925.60
482.13	15030.92
482.31	15124.54
482.49	15358.60
482.67	15379.66
482.85	15592.65
483.03	15559.88
483.21	15784.57
483.39	16025.65
483.57	15854.79
483.74	16287.79
483.92	16407.16
484.10	16030.33
484.28	16496.10
484.46	16734.83
484.64	16678.66
484.82	16592.06
485.00	16585.04
485.18	16835.47
485.35	17060.16
485.53	16704.40
485.71	16449.28
485.89	17118.68
486.07	17088.25
486.25	17467.42
486.43	17544.66
486.61	17582.10
486.78	17781.05
486.96	17987.02
487.14	18279.58
487.32	18412.99
487.50	18618.96
487.68	18855.36
487.85	19295.38
488.03	19124.52
488.21	19012.17
488.39	19257.93
488.57	19035.58
488.75	19103.45
488.92	19817.32
489.10	20208.19
489.28	20058.39
489.46	20594.37
489.64	20573.31
489.81	20788.64
489.99	20737.15
490.17	20952.48
490.35	21034.39
490.53	21097.59
490.70	21404.20
490.88	21083.55
491.06	21570.38
491.24	21612.51
491.41	21671.02
491.59	21788.05
491.77	21523.57
491.95	22026.78
492.13	22214.02
492.30	22361.48
492.48	22235.09
492.66	22436.38
492.84	22808.52
493.01	22979.38
493.19	22604.89
493.37	23005.13
493.54	23288.33
493.72	23112.79
493.90	23206.41
494.08	23669.84
494.25	24243.27
494.43	23871.12
494.61	24219.86
494.79	24395.40
494.96	24074.75
495.14	24283.06
495.32	24631.80
495.49	24842.45
495.67	24812.02
495.85	25062.46
496.02	24952.45
496.20	25104.59
496.38	25476.73
496.55	25259.06
496.73	25937.82
496.91	25500.14
497.09	25893.35
497.26	25965.90
497.44	25898.03
497.62	26211.66
497.79	26239.75
497.97	26052.50
498.14	26052.50
498.32	26827.22
498.50	26649.34
498.67	26991.06
498.85	26871.69
499.03	27290.65
499.20	27239.15
499.38	27274.26
499.56	27295.33
499.73	27356.18
499.91	27704.92
500.08	27414.69
500.26	27229.79
500.44	27288.31
500.61	27756.41
500.79	27639.39
500.97	27473.21
501.14	27843.01
501.32	28252.61
501.49	28072.39
501.67	27683.86
501.84	28432.83
502.02	28158.99
502.20	28208.14
502.37	28748.80
502.55	28753.48
502.72	29132.65
502.90	28926.68
503.07	28751.14
503.25	28907.96
503.43	29104.56
503.60	28776.89
503.78	28989.88
503.95	29163.08
504.13	29390.11
504.30	29490.75
504.48	29802.04
504.65	29722.46
504.83	29907.37
505.01	29975.24
505.18	30033.75
505.36	30054.82
505.53	30211.64
505.71	30473.78
505.88	30628.25
506.06	30284.19
506.23	30565.06
506.41	30586.12
506.58	30445.69
506.76	30602.50
506.93	30607.19
507.11	31061.25
507.28	30953.58
507.46	30951.24
507.63	31012.10
507.81	31014.44
507.98	31094.02
508.16	31178.28
508.33	31564.46
508.50	31835.97
508.68	31690.85
508.85	32233.86
509.03	32191.73
509.20	32170.66
509.38	31899.16
509.55	32561.53
509.73	32301.73
509.90	32400.04
510.08	32327.48
510.25	32273.65
510.42	32797.93
510.60	32498.34
510.77	32608.34
510.95	32987.51
511.12	32800.27
511.30	33413.49
511.47	33247.31
511.64	33216.88
511.82	33331.57
511.99	32790.91
512.17	33357.32
512.34	33397.10
512.51	33579.67
512.69	33680.31
512.86	33457.96
513.04	33893.30
513.21	33570.30
513.38	33677.97
513.56	33972.88
513.73	33776.27
513.90	33837.12
514.08	34132.03
514.25	34347.36
514.43	33947.13
514.60	34174.16
514.77	34309.91
514.95	34771.00
515.12	34396.51
515.29	34653.97
515.47	35477.84
515.64	35063.57
515.81	34827.17
515.99	35103.35
516.16	34735.89
516.33	34448.00
516.51	34834.19
516.68	34139.05
516.85	33986.92
517.03	34338.00
517.20	34969.94
517.37	35204.00
517.54	35377.20
517.72	35122.08
517.89	35349.11
518.06	34925.47
518.24	35061.22
518.41	35271.87
518.58	35880.41
518.75	35208.68
518.93	35758.70
519.10	35978.72
519.27	35924.88
519.45	36250.22
519.62	36177.66
519.79	36451.50
519.96	35990.42
520.14	36048.93
520.31	36383.63
520.48	36383.63
520.65	36823.65
520.83	36603.64
521.00	37432.19
521.17	36739.39
521.34	36872.80
521.52	37303.46
521.69	37273.03
521.86	37148.98
522.03	37179.41
522.20	37401.76
522.38	37053.02
522.55	37572.62
522.72	37544.53
522.89	37001.53
523.07	37642.84
523.24	37706.03
523.41	38230.31
523.58	37813.70
523.75	38267.76
523.92	37984.55
524.10	37832.42
524.27	38415.21
524.44	38567.35
524.61	38319.25
524.78	38363.72
524.96	38096.90
525.13	38632.88
525.30	38527.56
525.47	38960.56
525.64	38595.43
525.81	38557.99
525.98	38770.97
526.16	38213.93
526.33	38251.38
526.50	38321.59
526.67	38099.24
526.84	38422.23
527.01	38349.68
527.18	38579.05
527.36	39082.27
527.53	39234.40
527.70	39772.72
527.87	39473.13
528.04	39299.94
528.21	39662.72
528.38	39697.83
528.55	40025.50
528.72	39765.70
528.89	40093.38
529.07	39775.06
529.24	39655.70
529.41	39971.67
529.58	39880.39
529.75	40004.44
529.92	40165.93
530.09	40142.53
530.26	40151.89
530.43	40884.48
530.60	40091.04
530.77	40554.46
530.94	40779.15
531.11	40502.97
531.28	40465.52
531.46	40669.15
531.63	40900.86
531.80	40360.20
531.97	40203.38
532.14	40746.39
532.31	39943.58
532.48	40594.25
532.65	40517.01
532.82	40444.46
532.99	40882.14
533.16	40779.15
533.33	40945.33
533.50	41493.02
533.67	40898.52
533.84	40776.81
534.01	40903.20
534.18	40959.38
534.35	41659.20
534.52	40861.07
534.69	41542.17
534.86	41656.85
535.03	41581.96
535.20	41888.57
535.37	41991.55
535.54	42043.04
535.71	41879.21
535.88	41507.06
536.05	41588.98
536.22	42005.59
536.38	41879.21
536.55	41691.96
536.72	41872.18
536.89	41820.69
537.06	41596.00
537.23	42024.32
537.40	42108.58
537.57	42361.36
537.74	42239.65
537.91	42696.05
538.08	41787.92
538.25	42417.53
538.42	41909.63
538.59	42480.72
538.75	42429.23
538.92	42075.81
539.09	42415.19
539.26	42026.66
539.43	42134.32
539.60	42211.56
539.77	42321.57
539.94	42490.09
540.11	42326.25
540.28	42553.28
540.44	42326.25
540.61	42588.39
540.78	42398.80
540.95	42990.96
541.12	42422.21
541.29	42656.26
541.46	42850.53
541.62	42990.96
541.79	43473.11
541.96	42539.24
542.13	42614.13
542.30	42784.99
542.47	42866.91
542.63	42752.23
542.80	43414.60
542.97	43351.40
543.14	43407.58
543.31	43487.15
543.48	43676.74
543.64	44006.75
543.81	43906.11
543.98	43763.34
544.15	43948.24
544.32	43433.32
544.48	44472.52
544.65	43964.62
544.82	43934.20
544.99	43992.71
545.16	43555.03
545.32	44128.46
545.49	44229.10
545.66	44062.93
545.83	44030.16
546.00	43962.28
546.16	44233.78
546.33	44250.17
546.50	44044.20
546.67	44168.25
546.83	44018.46
547.00	44601.25
547.17	43742.27
547.34	43948.24
547.50	43959.94
547.67	44304.00
547.84	44577.84
548.00	44851.69
548.17	45024.89
548.34	44760.40
548.51	44762.75
548.67	45071.70
548.84	44706.57
549.01	44264.21
549.18	44643.38
549.34	44500.61
549.51	45221.49
549.68	45453.20
549.84	45198.09
550.01	45141.91
550.18	44926.58
550.34	44832.96
550.51	45244.90
550.68	45137.23
550.84	44556.78
551.01	45310.43
551.18	44961.69
551.34	45034.25
551.51	45525.76
551.68	45184.04
551.84	45565.55
552.01	45034.25
552.18	45207.45
552.34	45249.58
552.51	45027.23
552.68	45172.34
552.84	45301.07
553.01	45722.37
553.18	45567.89
553.34	45228.51
553.51	45392.35
553.67	45172.34
553.84	45820.67
554.01	45680.24
554.17	45867.48
554.34	45773.86
554.51	45839.39
554.67	45841.73
554.84	45628.74
555.00	45537.46
555.17	45497.67
555.33	45743.43
555.50	45996.21
555.67	46206.86
555.83	45455.54
556.00	45827.69
556.16	46078.13
556.33	45610.02
556.50	45610.02
556.66	45771.52
556.83	45607.68
556.99	45907.27
557.16	46330.90
557.32	46019.61
557.49	46335.59
557.65	45811.31
557.82	45907.27
557.98	46066.42
558.15	45858.12
558.32	46078.13
558.48	45462.57
558.65	45823.01
558.81	45825.35
558.98	46010.25
559.14	45907.27
559.31	45851.09
559.47	46078.13
559.64	46520.49
559.80	46092.17
559.97	45958.76
560.13	46138.98
560.30	46272.39
560.46	46330.90
560.63	46520.49
560.79	46607.09
560.96	46548.57
561.12	46281.75
561.29	45956.42
561.45	46160.05
561.61	46131.96
561.78	46436.23
561.94	45827.69
562.11	46314.52
562.27	46239.62
562.44	46387.08
562.60	46426.87
562.77	46366.01
562.93	46209.20
563.10	46714.75
563.26	46241.96
563.42	46454.95
563.59	46438.57
563.75	46447.93
563.92	46258.35
564.08	46394.10
564.24	47056.47
564.41	46571.98
564.57	46609.43
564.74	46618.79
564.90	46822.42
565.07	46342.61
565.23	46218.56
565.39	46663.26
565.56	46436.23
565.72	45963.44
565.88	46380.06
566.05	46677.30
566.21	46581.34
566.38	46211.54
566.54	46656.24
566.70	46560.28
566.87	46658.58
567.03	46948.81
567.19	47072.85
567.36	47124.35
567.52	46532.19
567.68	46923.06
567.85	46515.81
568.01	46801.35
568.17	46834.12
568.34	46986.25
568.50	46403.46
568.66	46567.30
568.83	46920.72
568.99	46583.68
569.15	46232.60
569.32	47306.91
569.48	46885.61
569.64	46445.59
569.81	46555.60
569.97	46670.28
570.13	46663.26
570.30	46689.01
570.46	46916.04
570.62	46155.36
570.78	46412.82
570.95	46181.11
571.11	46686.67
571.27	46841.14
571.43	46494.74
571.60	46614.11
571.76	46887.95
571.92	46813.05
572.09	46855.18
572.25	46649.22
572.41	46756.88
572.57	47051.79
572.74	47215.63
572.90	46733.48
573.06	46557.94
573.22	46557.94
573.38	46714.75
573.55	46871.57
573.71	46813.05
573.87	47019.02
574.03	47047.11
574.20	46960.51
574.36	47004.98
574.52	46855.18
574.68	46511.13
574.84	46726.46
575.01	47042.43
575.17	46663.26
575.33	46756.88
575.49	46707.73
575.65	47044.77
575.82	47173.50
575.98	46557.94
576.14	46689.01
576.30	47100.94
576.46	46953.49
576.62	46838.80
576.79	46546.23
576.95	46522.83
577.11	47133.71
577.27	47370.10
577.43	46738.16
577.59	46796.67
577.75	46562.62
577.92	46417.50
578.08	46866.89
578.24	46522.83
578.40	46820.08
578.56	46857.52
578.72	46548.57
578.88	47206.26
579.04	47257.76
579.21	46761.56
579.37	46904.34
579.53	47033.07
579.69	47044.77
579.85	46759.22
580.01	46960.51
580.17	47377.12
580.33	46831.78
580.49	46960.51
580.65	47232.01
580.82	46925.40
580.98	46827.10
581.14	47037.75
581.30	47133.71
581.46	46878.59
581.62	47150.09
581.78	46747.52
581.94	47210.95
582.10	47049.45
582.26	46890.29
582.42	47217.97
582.58	47028.38
582.74	46784.97
582.90	47283.50
583.06	47646.29
583.22	47168.82
583.38	47229.67
583.54	47522.24
583.70	47643.94
583.86	47136.05
584.02	46731.14
584.18	47122.01
584.34	47243.71
584.50	46674.96
584.66	46834.12
584.82	46773.27
584.98	47400.53
585.14	46820.08
585.30	47049.45
585.46	46836.46
585.62	46796.67
585.78	46976.89
585.94	46768.58
586.10	47000.30
586.26	47021.36
586.42	46674.96
586.58	47234.35
586.74	47449.68
586.90	47131.37
587.06	47234.35
587.22	47145.41
587.38	46677.30
587.54	47224.99
587.70	47248.39
587.86	47318.61
588.02	47061.15
588.18	47175.84
588.34	46625.81
588.49	46487.72
588.65	46211.54
588.81	46279.41
588.97	46497.08
589.13	46443.25
589.29	46721.77
589.45	46724.11
589.61	46773.27
589.77	47110.30
589.93	47330.31
590.08	47239.03
590.24	47452.02
590.40	47349.04
590.56	47264.78
590.72	47152.43
590.88	46820.08
591.04	47166.48
591.20	47533.94
591.35	47538.62
591.51	47440.32
591.67	46857.52
591.83	47206.26
591.99	46784.97
592.15	47136.05
592.31	47393.51
592.46	47449.68
592.62	46763.90
592.78	47367.76
592.94	47248.39
593.10	47433.30
593.26	47054.13
593.41	47037.75
593.57	47122.01
593.73	46897.31
593.89	47143.07
594.05	47119.66
594.20	47220.31
594.36	46997.96
594.52	47140.73
594.68	47009.66
594.84	47012.00
594.99	47454.36
595.15	46789.65
595.31	47306.91
595.47	46993.28
595.62	46965.19
595.78	47353.72
595.94	47351.38
596.10	47047.11
596.25	47124.35
596.41	47517.56
596.57	47056.47
596.73	47208.61
596.88	47220.31
597.04	46955.83
597.20	47461.38
597.36	47154.77
597.51	47767.99
597.67	47133.71
597.83	47295.21
597.99	47676.71
598.14	47051.79
598.30	47138.39
598.46	47028.38
598.61	46993.28
598.77	46789.65
598.93	47379.46
599.09	47447.34
599.24	47601.82
599.40	47484.79
599.56	46923.06
599.71	47040.09
599.87	47306.91
600.03	47192.22
600.18	47091.58
600.34	47138.39
600.50	47063.49
600.65	47393.51
600.81	47313.93
600.97	47800.76
601.12	47220.31
601.28	47232.01
601.44	47016.68
601.59	46604.75
601.75	46632.83
601.91	46789.65
602.06	46965.19
602.22	46948.81
602.37	47061.15
602.53	47033.07
602.69	47419.25
602.84	46810.71
603.00	46822.42
603.16	46887.95
603.31	47086.90
603.47	46972.21
603.62	47126.69
603.78	47122.01
603.94	47278.82
604.09	47440.32
604.25	46967.53
604.40	46794.33
604.56	46958.17
604.71	47299.89
604.87	47168.82
605.03	46878.59
605.18	47164.14
605.34	46843.48
605.49	46873.91
605.65	47086.90
605.80	46576.66
605.96	47199.24
606.12	46941.78
606.27	47185.20
606.43	46871.57
606.58	46794.33
606.74	46906.68
606.89	46939.44
607.05	47002.64
607.20	46684.33
607.36	46857.52
607.51	47016.68
607.67	46351.97
607.82	46684.33
607.98	46810.71
608.13	46511.13
608.29	46824.76
608.44	46260.69
608.60	46082.81
608.75	46700.71
608.91	47119.66
609.06	46883.27
609.22	47021.36
609.37	46394.10
609.53	46742.84
609.68	46429.21
609.84	46471.34
609.99	46480.70
610.15	46642.20
610.30	46459.63
610.46	46124.94
610.61	46639.86
610.76	46387.08
610.92	46780.29
611.07	46497.08
611.23	46124.94
611.38	46492.40
611.54	46302.82
611.69	45928.33
611.84	46064.08
612.00	46239.62
612.15	46256.01
612.31	45979.82
612.46	46146.00
612.62	46333.24
612.77	46770.93
612.92	46192.81
613.08	45832.37
613.23	45879.18
613.39	46141.32
613.54	45420.44
613.69	46204.52
613.85	45904.93
614.00	46375.37
614.15	46492.40
614.31	45867.48
614.46	46454.95
614.62	46349.63
614.77	45982.16
614.92	45890.88
615.08	45916.63
615.23	45443.84
615.38	45607.68
615.54	45663.85
615.69	45591.30
615.84	45483.63
616.00	45972.80
616.15	45904.93
616.30	45755.13
616.46	45485.97
616.61	45198.09
616.76	45272.98
616.92	44971.05
617.07	45530.44
617.22	45120.85
617.37	45928.33
617.53	45867.48
617.68	45750.45
617.83	45518.74
617.99	45235.53
618.14	45153.62
618.29	45179.36
618.45	44900.84
618.60	44816.58
618.75	44851.69
618.90	44669.12
619.06	44800.19
619.21	44683.17
619.36	45584.27
619.51	45146.59
619.67	44732.32
619.82	45453.20
619.97	45076.38
620.12	44680.83
620.28	44339.11
620.43	45207.45
620.58	45083.40
620.73	45022.54
620.89	44844.66
621.04	44999.14
621.19	45235.53
621.34	44650.40
621.49	44219.74
621.65	44718.28
621.80	45305.75
621.95	44425.71
622.10	45038.93
622.25	44350.81
622.41	44416.35
622.56	44442.09
622.71	44584.86
622.86	44835.30
623.01	44196.34
623.16	44753.38
623.32	44495.92
623.47	44332.09
623.62	44744.02
623.77	44790.83
623.92	44491.24
624.07	44306.34
624.23	43962.28
624.38	44816.58
624.53	44083.99
624.68	44509.97
624.83	44566.14
624.98	44463.16
625.13	44062.93
625.29	44212.72
625.44	43835.89
625.59	43393.53
625.74	44121.44
625.89	43800.79
626.04	43667.37
626.19	44034.84
626.34	43962.28
626.49	43761.00
626.65	43775.04
626.80	43753.97
626.95	43662.69
627.10	43732.91
627.25	43372.47
627.40	43194.59
627.55	43393.53
627.70	43515.24
627.85	43526.94
628.00	43519.92
628.15	43608.86
628.30	43470.77
628.45	43592.48
628.60	43407.58
628.76	43253.10
628.91	43239.06
629.06	43409.92
629.21	42955.85
629.36	42930.11
629.51	43161.82
629.66	43367.79
629.81	42817.76
629.96	43185.22
630.11	43217.99
630.26	43435.66
630.41	43145.44
630.56	43246.08
630.71	43112.67
630.86	43096.28
631.01	42834.14
631.16	42768.61
631.31	42948.83
631.46	42768.61
631.61	42885.64
631.76	43002.66
631.91	42997.98
632.06	43047.13
632.21	42457.32
632.36	42920.74
632.51	42380.08
632.66	42838.83
632.81	42253.69
632.96	42651.58
633.10	42478.38
633.25	42536.90
633.40	42541.58
633.55	42827.12
633.70	42436.25
633.85	42361.36
634.00	42167.09
634.15	42841.17
634.30	42291.14
634.45	42412.85
634.60	42312.20
634.75	41947.08
634.90	42110.92
635.05	42295.82
635.19	42916.06
635.34	42270.08
635.49	42387.10
635.64	42178.79
635.79	42204.54
635.94	42103.90
636.09	41813.67
636.24	41640.47
636.39	41596.00
636.53	41661.54
636.68	41996.23
636.83	41872.18
636.98	41783.24
637.13	41476.63
637.28	42099.22
637.43	42148.37
637.57	41528.13
637.72	41577.28
637.87	41930.70
638.02	42005.59
638.17	42153.05
638.32	41799.63
638.46	41757.50
638.61	41790.27
638.76	41425.14
638.91	41413.44
639.06	41429.82
639.20	41837.08
639.35	41331.52
639.50	41656.85
639.65	41806.65
639.80	41172.36
639.94	40886.82
640.09	41443.87
640.24	41404.08
640.39	40863.41
640.54	41078.74
640.68	41200.45
640.83	40912.56
640.98	41216.83
641.13	40673.83
641.27	41450.89
641.42	41151.30
641.57	40870.43
641.72	41095.13
641.86	40760.43
642.01	40690.21
642.16	40870.43
642.31	40554.46
642.45	40664.47
642.60	40254.87
642.75	40605.95
642.90	40910.22
643.04	40919.59
643.19	40399.99
643.34	40680.85
643.48	40938.31
643.63	40727.66
643.78	40470.20
643.93	40732.34
644.07	40334.45
644.22	40219.77
644.37	40219.77
644.51	40411.69
644.66	40535.74
644.81	40666.81
644.95	40549.78
645.10	40502.97
645.25	40533.40
645.39	40226.79
645.54	40062.95
645.69	40224.45
645.83	40442.12
645.98	40079.33
646.13	39999.76
646.27	39920.18
646.42	40189.34
646.57	39945.92
646.71	39784.43
646.86	39775.06
647.00	40268.92
647.15	39894.43
647.30	39768.04
647.44	40142.53
647.59	40201.04
647.74	39283.55
647.88	40053.59
648.03	39669.74
648.17	39585.48
648.32	39887.41
648.47	40084.01
648.61	39323.34
648.76	39969.33
648.90	39686.12
649.05	39744.64
649.20	39445.05
649.34	39306.96
649.49	39173.55
649.63	39349.09
649.78	39510.58
649.92	39559.73
650.07	39873.37
650.21	39445.05
650.36	39290.57
650.51	39889.75
650.65	39695.49
650.80	39922.52
650.94	39791.45
651.09	39342.06
651.23	39302.28
651.38	39342.06
651.52	38927.79
651.67	39229.72
651.81	39122.05
651.96	38939.49
652.10	39044.82
652.25	39203.97
652.39	38948.85
652.54	39199.29
652.68	39309.30
652.83	38892.68
652.97	39311.64
653.12	39072.90
653.26	38803.74
653.41	38796.72
653.55	38536.92
653.70	38766.29
653.84	38667.99
653.99	38766.29
654.13	38817.78
654.27	38651.61
654.42	38391.81
654.56	38778.00
654.71	38803.74
654.85	38735.87
655.00	38754.59
655.14	38705.44
655.29	38469.04
655.43	38162.43
655.57	38132.01
655.72	38174.14
655.86	38115.62
656.01	37921.36
656.15	37804.33
656.30	37809.01
656.44	37640.50
656.58	37799.65
656.73	38202.22
656.87	37668.58
657.01	37914.34
657.16	37820.72
657.30	37457.93
657.45	37668.58
657.59	37471.98
657.73	37586.66
657.88	38242.01
658.02	38298.19
658.16	37771.57
658.31	38199.88
658.45	38068.81
658.60	37914.34
658.74	37947.11
658.88	37968.17
659.03	37420.48
659.17	37258.99
659.31	37408.78
659.46	37493.04
659.60	37184.09
659.74	37694.33
659.89	37256.65
660.03	37113.87
660.17	37237.92
660.32	36982.80
660.46	37392.40
660.60	37057.70
660.74	37029.62
660.89	37029.62
661.03	36708.96
661.17	36875.14
661.32	36938.33
661.46	36734.71
661.60	37020.25
661.74	36891.52
661.89	36357.88
662.03	37031.96
662.17	36432.78
662.31	36554.49
662.46	36940.68
662.60	36643.43
662.74	36573.21
662.88	36730.03
663.03	36268.94
663.17	36425.76
663.31	35718.92
663.45	35981.06
663.60	36231.49
663.74	36282.98
663.88	35751.68
664.02	35957.65
664.17	35981.06
664.31	35887.43
664.45	35934.24
664.59	35489.54
664.73	35737.64
664.88	36177.66
665.02	35182.93
665.16	35461.46
665.30	35164.21
665.44	35218.04
665.59	35372.52
665.73	35285.92
665.87	35084.63
666.01	35283.58
666.15	35421.67
666.29	35559.76
666.44	35171.23
666.58	35381.88
666.72	34913.77
666.86	34962.92
667.00	34932.50
667.14	35101.01
667.28	34719.51
667.43	34623.54
667.57	35030.80
667.71	35007.39
667.85	34609.50
667.99	34471.41
668.13	34628.23
668.27	34485.45
668.41	34745.25
668.56	34389.49
668.70	34639.93
668.84	34260.76
668.98	33970.54
669.12	33919.04
669.26	34253.74
669.40	33919.04
669.54	33722.44
669.68	33731.80
669.82	33130.28
669.96	33493.07
670.10	33247.31
670.25	33481.36
670.39	33579.67
670.53	33495.41
670.67	33626.48
670.81	33401.79
670.95	33446.26
671.09	33354.97
671.23	32975.81
671.37	32966.45
671.51	32648.13
671.65	33425.19
671.79	32786.22
671.93	33289.44
672.07	33123.26
672.21	32826.01
672.35	32835.38
672.49	32645.79
672.63	32659.84
672.77	32598.98
672.91	32533.45
673.05	32587.28
673.19	32180.03
673.33	32119.17
673.47	31889.80
673.61	32053.64
673.75	32044.27
673.89	31981.08
674.03	31569.15
674.17	31950.65
674.31	31718.94
674.45	32046.62
674.59	31742.35
674.73	31803.20
674.87	31796.18
675.01	31185.30
675.15	31246.15
675.29	31377.22
675.43	31339.77
675.56	31505.95
675.70	31140.83
675.84	31077.63
675.98	30267.81
676.12	31182.96
676.26	31037.84
676.40	31079.97
676.54	31140.83
676.68	30836.56
676.82	30211.64
676.96	30349.73
677.10	30242.06
677.23	30082.91
677.37	30033.75
677.51	30176.53
677.65	29956.52
677.79	29502.45
677.93	29617.14
678.07	29254.36
678.21	29029.66
678.34	28959.45
678.48	29305.85
678.62	29027.32
678.76	28779.23
678.90	28755.82
679.04	29017.96
679.18	28755.82
679.31	28816.68
679.45	28449.21
679.59	28400.06
679.73	28421.13
679.87	28493.68
680.00	28474.96
680.14	28641.14
680.28	28432.83
680.42	28198.77
680.56	28135.58
680.70	28011.53
680.83	28339.21
680.97	27754.07
681.11	27632.36
681.25	27412.35
681.39	27498.95
681.52	27880.46
681.66	27482.57
681.80	27538.74
681.94	27445.12
682.07	27274.26
682.21	27101.06
682.35	27077.66
682.49	26878.71
682.62	26874.03
682.76	26874.03
682.90	26279.54
683.04	26560.40
683.17	26284.22
683.31	26181.23
683.45	26080.59
683.59	25839.51
683.72	26314.64
683.86	25720.15
684.00	26115.70
684.13	25818.45
684.27	25802.07
684.41	25773.98
684.55	25537.59
684.68	25572.69
684.82	25228.63
684.96	25406.52
685.09	25156.08
685.23	25003.94
685.37	25118.63
685.50	25198.21
685.64	25102.25
685.78	24769.89
685.91	24517.11
686.05	24570.94
686.19	24463.28
686.32	24297.10
686.46	23592.60
686.60	23419.40
686.73	23583.24
686.87	23396.00
687.01	23372.59
687.14	23232.16
687.28	23405.36
687.42	23192.37
687.55	23543.45
687.69	23211.09
687.82	23138.54
687.96	22991.08
688.10	22998.10
688.23	22925.55
688.37	22785.12
688.50	23110.45
688.64	22661.07
688.78	22768.73
688.91	22387.22
689.05	22682.13
689.18	22171.89
689.32	22068.91
689.46	22085.30
689.59	22504.25
689.73	22480.85
689.86	22335.73
690.00	21965.93
690.13	21933.16
690.27	21558.67
690.41	21958.91
690.54	21621.87
690.68	21179.51
690.81	21628.89
690.95	21664.00
691.08	21647.61
691.22	21476.76
691.35	21420.58
691.49	21186.53
691.62	21392.50
691.76	21511.86
691.89	21345.69
692.03	20851.83
692.16	20926.73
692.30	20688.00
692.43	20482.03
692.57	20432.88
692.70	20414.15
692.84	20271.38
692.97	20137.97
693.11	20002.22
693.24	19887.53
693.38	19997.54
693.51	20088.82
693.65	20175.42
693.78	19814.98
693.92	19901.58
694.05	19843.06
694.19	19625.39
694.32	19323.46
694.45	19468.58
694.59	19527.09
694.72	19391.34
694.86	19124.52
694.99	18792.16
695.13	19314.10
695.26	18764.07
695.39	18726.63
695.53	18932.59
695.66	18686.84
695.80	19047.28
695.93	18677.48
696.07	18448.10
696.20	18401.29
696.33	18427.04
696.47	18338.10
696.60	18090.00
696.73	18396.61
696.87	18005.74
697.00	18190.64
697.14	17921.48
697.27	17806.80
697.40	17472.10
697.54	17694.45
697.67	17745.94
697.80	17453.37
697.94	17399.54
698.07	17085.91
698.21	17322.30
698.34	17186.55
698.47	17310.60
698.61	17062.51
698.74	17188.89
698.87	16844.84
699.01	16802.71
699.14	16650.57
699.27	16498.44
699.40	16463.33
699.54	16479.71
699.67	16737.17
699.80	16409.50
699.94	16327.58
700.07	16292.47
700.20	16348.64
700.34	15990.54
700.47	16332.26
700.60	16411.84
700.73	16243.32
700.87	15903.94
701.00	15655.84
701.13	15882.88
701.26	15445.20
701.40	15824.36
701.53	15417.11
701.66	15604.35
701.79	15288.38
701.93	15157.31
702.06	15054.33
702.19	15157.31
702.32	15159.65
702.46	14836.66
702.59	15051.99
702.72	14991.13
702.85	14757.08
702.99	14876.44
703.12	14714.95
703.25	14635.37
703.38	14382.59
703.51	14429.40
703.65	14644.73
703.78	14490.26
703.91	13989.38
704.04	14239.82
704.17	14277.27
704.31	14281.95
704.44	13965.98
704.57	14129.81
704.70	13909.80
704.83	13783.41
704.96	13813.84
705.10	13671.07
705.23	13823.20
>>>>>End Processed Spectral Data<<<<<
