SpectraSuite Data File
++++++++++++++++++++++++++++++++++++
Date: Fri Oct 25 10:46:56 EDT 2013
User: price-jones
Dark Spectrum Present: No
Reference Spectrum Present: No
Number of Sampled Component Spectra: 1
Spectrometers: USB2+H05261
Integration Time (usec): 100000 (USB2+H05261)
Spectra Averaged: 1 (USB2+H05261)
Boxcar Smoothing: 0 (USB2+H05261)
Correct for Electrical Dark: No (USB2+H05261)
Strobe/Lamp Enabled: No (USB2+H05261)
Correct for Detector Non-linearity: No (USB2+H05261)
Correct for Stray Light: No (USB2+H05261)
Number of Pixels in Processed Spectrum: 2048
>>>>>Begin Processed Spectral Data<<<<<
365.73	177.88
365.92	177.88
366.12	177.88
366.32	25.75
366.52	100.64
366.72	58.51
366.91	0.00
367.11	35.11
367.31	21.06
367.51	0.00
367.70	56.17
367.90	93.62
368.10	81.92
368.30	77.24
368.49	14.04
368.69	110.01
368.89	79.58
369.09	0.00
369.28	51.49
369.48	30.43
369.68	105.32
369.87	135.75
370.07	131.07
370.27	173.20
370.47	170.86
370.66	447.04
370.86	374.49
371.06	503.22
371.25	472.79
371.45	423.64
371.65	442.36
371.84	407.25
372.04	449.38
372.24	573.43
372.44	498.53
372.63	510.24
372.83	514.92
373.03	624.92
373.22	521.94
373.42	543.00
373.62	594.50
373.81	547.69
374.01	613.22
374.21	587.47
374.40	552.37
374.60	671.73
374.79	589.82
374.99	674.07
375.19	557.05
375.38	692.80
375.58	627.26
375.78	601.52
375.97	634.29
376.17	671.73
376.37	660.03
376.56	641.31
376.76	589.82
376.95	603.86
377.15	657.69
377.35	657.69
377.54	685.78
377.74	643.65
377.93	608.54
378.13	650.67
378.33	704.50
378.52	667.05
378.72	706.84
378.91	645.99
379.11	645.99
379.31	643.65
379.50	638.97
379.70	671.73
379.89	667.05
380.09	786.42
380.28	650.67
380.48	767.70
380.68	702.16
380.87	638.97
381.07	791.10
381.26	692.80
381.46	741.95
381.65	784.08
381.85	748.97
382.04	704.50
382.24	688.12
382.43	744.29
382.63	709.18
382.83	676.41
383.02	713.86
383.22	755.99
383.41	760.67
383.61	737.27
383.80	819.19
384.00	699.82
384.19	718.54
384.39	798.12
384.58	800.46
384.78	774.72
384.97	828.55
385.17	805.14
385.36	835.57
385.56	786.42
385.75	699.82
385.95	793.44
386.14	917.49
386.34	861.32
386.53	868.34
386.72	854.30
386.92	873.02
387.11	858.98
387.31	833.23
387.50	889.40
387.70	819.19
387.89	851.96
388.09	868.34
388.28	882.38
388.48	812.17
388.67	912.81
388.86	894.08
389.06	898.77
389.25	877.70
389.45	952.60
389.64	922.17
389.84	1088.35
390.03	1074.31
390.22	1039.20
390.42	971.32
390.61	1034.52
390.81	954.94
391.00	905.79
391.19	1076.65
391.39	1025.15
391.58	1046.22
391.78	978.34
391.97	1043.88
392.16	1057.92
392.36	1100.05
392.55	1057.92
392.75	987.71
392.94	1036.86
393.13	1111.75
393.33	1025.15
393.52	1071.97
393.71	1100.05
393.91	1025.15
394.10	1074.31
394.29	1137.50
394.49	1170.27
394.68	1151.54
394.88	1277.93
395.07	1224.10
395.26	1172.61
395.46	1196.01
395.65	1324.74
395.84	1188.99
396.04	1359.85
396.23	1226.44
396.42	1146.86
396.62	1170.27
396.81	1233.46
397.00	1160.91
397.19	1306.02
397.39	1282.61
397.58	1345.81
397.77	1345.81
397.97	1385.60
398.16	1390.28
398.35	1488.58
398.55	1481.56
398.74	1486.24
398.93	1462.83
399.12	1502.62
399.32	1474.54
399.51	1535.39
399.70	1607.95
399.90	1488.58
400.09	1554.12
400.28	1629.01
400.47	1591.56
400.67	1643.06
400.86	1621.99
401.05	1605.61
401.24	1708.59
401.44	1629.01
401.63	1657.10
401.82	1771.79
402.01	1708.59
402.21	1748.38
402.40	1858.39
402.59	1692.21
402.78	1727.32
402.97	1734.34
403.17	1682.85
403.36	1846.68
403.55	1739.02
403.74	1900.52
403.93	1834.98
404.13	1888.81
404.32	1790.51
404.51	1760.08
404.70	1954.35
404.89	1989.46
405.09	1970.73
405.28	1991.80
405.47	1956.69
405.66	2054.99
405.85	2008.18
406.05	2012.86
406.24	1921.58
406.43	2022.22
406.62	1961.37
406.81	2043.29
407.00	1930.94
407.20	1991.80
407.39	2097.12
407.58	2087.76
407.77	2115.84
407.96	2218.83
408.15	2211.81
408.34	2181.38
408.54	2312.45
408.73	2305.43
408.92	2263.30
409.11	2354.58
409.30	2157.97
409.49	2260.96
409.68	2230.53
409.87	2314.79
410.07	2249.25
410.26	2303.09
410.45	2389.69
410.64	2310.11
410.83	2483.31
411.02	2478.63
411.21	2513.74
411.40	2609.70
411.59	2574.59
411.78	2480.97
411.98	2569.91
412.17	2605.02
412.36	2686.94
412.55	2614.38
412.74	2731.41
412.93	2705.66
413.12	2658.85
413.31	2853.11
413.50	2820.35
413.69	2663.53
413.88	2752.47
414.07	2899.92
414.26	2970.14
414.45	2920.99
414.64	2963.12
414.83	3012.27
415.02	3049.72
415.22	3061.42
415.41	3169.09
415.60	3054.40
415.79	3218.24
415.98	3213.56
416.17	3141.00
416.36	3272.07
416.55	3215.90
416.74	3166.74
416.93	3187.81
417.12	3227.60
417.31	3349.31
417.50	3346.97
417.69	3485.06
417.88	3342.28
418.07	3396.12
418.26	3396.12
418.45	3314.20
418.64	3592.72
418.83	3515.48
419.02	3407.82
419.21	3506.12
419.39	3513.14
419.58	3566.98
419.77	3552.93
419.96	3702.73
420.15	3672.30
420.34	3672.30
420.53	3676.98
420.72	3768.26
420.91	3784.65
421.10	3779.97
421.29	3798.69
421.48	3726.13
421.67	3850.18
421.86	3803.37
422.05	3733.15
422.24	3588.04
422.43	3733.15
422.61	3801.03
422.80	3723.79
422.99	3929.76
423.18	3911.04
423.37	3992.95
423.56	3843.16
423.75	3913.38
423.94	3920.40
424.13	3669.96
424.32	3653.58
424.50	3899.33
424.69	3889.97
424.88	3964.87
425.07	3861.88
425.26	3882.95
425.45	3817.41
425.64	3885.29
425.83	3796.35
426.01	4056.15
426.20	3983.59
426.39	4002.32
426.58	3817.41
426.77	3995.29
426.96	3908.69
427.15	3875.93
427.33	3983.59
427.52	4091.26
427.71	4128.70
427.90	4046.79
428.09	4259.78
428.28	4175.52
428.46	4161.47
428.65	4177.86
428.84	4175.52
429.03	4264.46
429.22	4102.96
429.40	4114.66
429.59	4168.49
429.78	3901.67
429.97	3852.52
430.16	3976.57
430.34	4095.94
430.53	4159.13
430.72	4095.94
430.91	4262.12
431.10	4271.48
431.28	4496.17
431.47	4526.60
431.66	4526.60
431.85	4479.79
432.03	4667.03
432.22	4660.01
432.41	4519.57
432.60	4641.28
432.79	4674.05
432.97	4706.82
433.16	4580.43
433.35	4629.58
433.54	4624.90
433.72	4690.43
433.91	4575.75
434.10	4662.35
434.28	4795.76
434.47	4762.99
434.66	4814.48
434.85	4819.16
435.03	4891.72
435.22	4903.42
435.41	4929.17
435.59	4961.94
435.78	4917.47
435.97	5029.81
436.16	5036.83
436.34	5181.95
436.53	5167.90
436.72	5317.70
436.90	5109.39
437.09	5062.58
437.28	4968.96
437.46	5135.14
437.65	5149.18
437.84	5186.63
438.02	5036.83
438.21	5203.01
438.40	5352.81
438.58	5341.10
438.77	5259.18
438.96	5479.19
439.14	5469.83
439.33	5423.02
439.52	5675.80
439.70	5533.03
439.89	5563.45
440.08	5654.73
440.26	5682.82
440.45	5774.10
440.63	5689.84
440.82	5998.79
441.01	5748.36
441.19	5928.58
441.38	5996.45
441.57	5881.77
441.75	6083.05
441.94	6087.73
442.12	6223.48
442.31	6230.51
442.50	6317.11
442.68	6129.86
442.87	6216.46
443.05	6431.79
443.24	6298.38
443.43	6340.51
443.61	6408.39
443.80	6492.65
443.98	6424.77
444.17	6169.65
444.35	6518.39
444.54	6473.92
444.73	6408.39
444.91	6359.24
445.10	6509.03
445.28	6293.70
445.47	6258.59
445.65	6305.40
445.84	6354.55
446.02	6469.24
446.21	6434.13
446.39	6492.65
446.58	6633.08
446.77	6686.91
446.95	6312.42
447.14	6509.03
447.32	6609.67
447.51	6630.74
447.69	6532.44
447.88	6619.04
448.06	6686.91
448.25	6609.67
448.43	6569.88
448.62	6628.40
448.80	6731.38
448.99	6853.09
449.17	6970.12
449.36	6661.16
449.54	6850.75
449.73	7033.31
449.91	7084.80
450.10	7014.59
450.28	7148.00
450.46	6913.94
450.65	7019.27
450.83	6958.41
451.02	7075.44
451.20	7183.10
451.39	7337.58
451.57	7047.35
451.76	7030.97
451.94	7213.53
452.13	7253.32
452.31	7267.36
452.49	7009.90
452.68	7218.21
452.86	7236.94
453.05	7351.62
453.23	7304.81
453.42	7283.75
453.60	7194.81
453.78	7456.95
453.97	7236.94
454.15	7297.79
454.34	7239.28
454.52	7307.15
454.70	7468.65
454.89	7489.71
455.07	7332.90
455.26	7578.65
455.44	7653.55
455.62	7667.60
455.81	7590.36
455.99	7527.16
456.17	7943.78
456.36	7513.12
456.54	7950.80
456.73	7838.45
456.91	8095.91
457.09	7882.92
457.28	8128.68
457.46	7913.35
457.64	8053.78
457.83	8222.30
458.01	7889.95
458.19	7992.93
458.38	8037.40
458.56	8152.09
458.74	7995.27
458.93	8058.46
459.11	8063.15
459.29	8400.18
459.48	8124.00
459.66	8262.09
459.84	8423.59
460.03	8407.20
460.21	8299.54
460.39	8449.33
460.57	8280.82
460.76	8479.76
460.94	8521.89
461.12	8528.91
461.31	8526.57
461.49	8500.83
461.67	8580.40
461.85	8585.08
462.04	8711.47
462.22	9050.85
462.40	8697.43
462.59	8744.24
462.77	8814.46
462.95	8769.99
463.13	8671.68
463.32	8879.99
463.50	8781.69
463.68	8891.70
463.86	8980.64
464.05	8727.86
464.23	8875.31
464.41	8966.59
464.59	8938.51
464.78	8961.91
464.96	9018.08
465.14	8863.61
465.32	9202.99
465.50	9050.85
465.69	9186.60
465.87	9231.07
466.05	8968.93
466.23	9193.62
466.41	8992.34
466.60	9329.38
466.78	9043.83
466.96	9156.18
467.14	9224.05
467.32	9088.30
467.51	9481.51
467.69	9116.39
467.87	9298.95
468.05	9362.14
468.23	9352.78
468.41	9387.89
468.60	9474.49
468.78	9635.99
468.96	9544.70
469.14	9781.10
469.32	9701.52
469.50	9465.13
469.69	9556.41
469.87	9916.85
470.05	9788.12
470.23	9706.20
470.41	9748.33
470.59	9771.74
470.77	9996.43
470.95	10092.39
471.14	10106.43
471.32	9895.78
471.50	9790.46
471.68	10090.05
471.86	10284.31
472.04	10314.74
472.22	10497.30
472.40	10345.17
472.58	10296.02
472.77	10347.51
472.95	10326.44
473.13	10752.42
473.31	10558.16
473.49	10443.47
473.67	10424.75
473.85	10623.69
474.03	10881.15
474.21	10862.43
474.39	10855.40
474.57	10885.83
474.75	11126.91
474.93	11035.63
475.12	11220.53
475.30	11030.94
475.48	10991.16
475.66	11246.27
475.84	11229.89
476.02	11211.17
476.20	11190.10
476.38	11616.08
476.56	11800.98
476.74	11927.37
476.92	11749.49
477.10	12018.65
477.28	11831.41
477.46	12023.33
477.64	11995.25
477.82	12250.36
478.00	12547.61
478.18	12318.24
478.36	12547.61
478.54	12638.89
478.72	12748.90
478.90	12950.18
479.08	12987.63
479.26	12999.34
479.44	12891.67
479.62	13048.49
479.80	13170.19
479.98	13219.35
480.16	13448.72
480.34	13364.46
480.52	13460.42
480.70	13638.30
480.88	13432.33
481.06	13767.03
481.24	13785.76
481.41	13975.34
481.59	14305.35
481.77	14188.33
481.95	14253.86
482.13	14368.55
482.31	14382.59
482.49	14860.06
482.67	14626.01
482.85	14820.27
483.03	15119.86
483.21	15054.33
483.39	15213.48
483.57	15311.78
483.74	15573.92
483.92	15566.90
484.10	15403.07
484.28	15754.15
484.46	15772.87
484.64	16175.44
484.82	15873.51
485.00	15971.82
485.18	16482.05
485.35	16248.00
485.53	15880.53
485.71	16250.34
485.89	16102.89
486.07	16360.34
486.25	16594.40
486.43	16695.04
486.61	17128.04
486.78	17118.68
486.96	17149.11
487.14	17537.63
487.32	17397.20
487.50	17607.85
487.68	18143.83
487.85	18448.10
488.03	18104.04
488.21	18607.26
488.39	18256.18
488.57	18483.21
488.75	18948.98
488.92	19105.79
489.10	19105.79
489.28	19370.27
489.46	19749.44
489.64	19440.49
489.81	19831.36
489.99	19920.30
490.17	20407.13
490.35	20496.07
490.53	20077.12
490.70	20027.96
490.88	20311.17
491.06	20484.37
491.24	20908.01
491.41	20599.05
491.59	20793.32
491.77	20585.01
491.95	20886.94
492.13	21032.05
492.30	21621.87
492.48	21612.51
492.66	21755.28
492.84	21649.96
493.01	22225.73
493.19	21617.19
493.37	22141.47
493.54	22139.13
493.72	22513.61
493.90	22546.38
494.08	22789.80
494.25	23056.62
494.43	23384.29
494.61	22995.76
494.79	23143.22
494.96	23126.83
495.14	23456.85
495.32	23351.52
495.49	23372.59
495.67	23391.31
495.85	23590.26
496.02	24109.86
496.20	24222.20
496.38	24407.11
496.55	24498.39
496.73	24608.39
496.91	24362.64
497.09	24854.15
497.26	24814.36
497.44	24554.56
497.62	24844.79
497.79	25448.64
497.97	25027.35
498.14	25371.41
498.32	25586.74
498.50	25429.92
498.67	25582.06
498.85	25832.49
499.03	26225.70
499.20	25916.75
499.38	25979.95
499.56	26188.25
499.73	26073.57
499.91	26436.35
500.08	26335.71
500.26	26071.23
500.44	26410.60
500.61	26780.41
500.79	26600.19
500.97	26583.80
501.14	27351.50
501.32	26991.06
501.49	27154.90
501.67	27063.61
501.84	27370.22
502.02	27138.51
502.20	27445.12
502.37	27557.47
502.55	27365.54
502.72	27711.94
502.90	28121.54
503.07	27725.99
503.25	28198.77
503.43	27742.37
503.60	28044.30
503.78	27950.68
503.95	28030.26
504.13	28348.57
504.30	28086.43
504.48	28470.28
504.65	28655.18
504.83	28809.65
505.01	29125.63
505.18	28952.43
505.36	29406.49
505.53	29064.77
505.71	29696.72
505.88	29685.01
506.06	29507.13
506.23	29446.28
506.41	29317.55
506.58	29738.85
506.76	29455.64
506.93	29717.78
507.11	29809.06
507.28	29954.18
507.46	29647.57
507.63	29560.97
507.81	30319.30
507.98	30038.44
508.16	30548.67
508.33	30651.66
508.50	30295.89
508.68	30654.00
508.85	31215.72
509.03	30991.03
509.20	31307.01
509.38	31290.62
509.55	31372.54
509.73	31187.64
509.90	31239.13
510.08	31239.13
510.25	31087.00
510.42	31435.74
510.60	31665.11
510.77	31950.65
510.95	31688.51
511.12	31812.56
511.30	32018.53
511.47	32505.36
511.64	32268.97
511.82	32102.79
511.99	31917.89
512.17	32266.63
512.34	32048.96
512.51	32563.87
512.69	32730.05
512.86	32662.18
513.04	33039.00
513.21	32535.79
513.38	32804.95
513.56	32666.86
513.73	32051.30
513.90	32716.01
514.08	32830.69
514.25	33184.12
514.43	33134.96
514.60	33055.39
514.77	33324.55
514.95	33586.69
515.12	33434.55
515.29	33682.65
515.47	33677.97
515.64	33928.41
515.81	34022.03
515.99	33736.48
516.16	33535.20
516.33	33556.26
516.51	33607.75
516.68	33359.66
516.85	33495.41
517.03	33755.21
517.20	33809.04
517.37	33993.94
517.54	34452.69
517.72	34227.99
517.89	34005.64
518.06	33837.12
518.24	34162.46
518.41	34087.56
518.58	34464.39
518.75	34768.66
518.93	34176.50
519.10	34567.37
519.27	34845.90
519.45	34881.00
519.62	35133.78
519.79	35005.05
519.96	35346.77
520.14	35491.88
520.31	35225.06
520.48	35526.99
520.65	35480.18
520.83	35667.42
521.00	35845.30
521.17	35651.04
521.34	36446.82
521.52	36217.45
521.69	36605.98
521.86	36385.97
522.03	36254.90
522.20	36760.45
522.38	36357.88
522.55	36334.48
522.72	36201.07
522.89	36240.86
523.07	36938.33
523.24	36505.34
523.41	37228.56
523.58	36524.06
523.75	37525.81
523.92	37462.61
524.10	37008.55
524.27	37284.73
524.44	37312.82
524.61	37188.77
524.78	37469.64
524.96	37240.26
525.13	37497.72
525.30	38031.36
525.47	37876.89
525.64	37694.33
525.81	37734.12
525.98	37544.53
526.16	37535.17
526.33	37483.68
526.50	37809.01
526.67	37006.21
526.84	37574.96
527.01	37151.32
527.18	37940.08
527.36	38085.20
527.53	38298.19
527.70	38192.86
527.87	38146.05
528.04	38103.92
528.21	38602.46
528.38	38398.83
528.55	38204.56
528.72	38429.26
528.89	38939.49
529.07	38827.15
529.24	38691.40
529.41	38827.15
529.58	38866.94
529.75	38705.44
529.92	38920.77
530.09	38831.83
530.26	39285.89
530.43	39297.59
530.60	39084.61
530.77	39063.54
530.94	39126.74
531.11	39232.06
531.28	39559.73
531.46	39522.29
531.63	39398.24
531.80	39306.96
531.97	39220.36
532.14	39426.32
532.31	39145.46
532.48	39374.83
532.65	39810.17
532.82	39456.75
532.99	39943.58
533.16	39744.64
533.33	40020.82
533.50	39955.29
533.67	40320.41
533.84	40348.50
534.01	39814.85
534.18	39824.22
534.35	40540.42
534.52	40140.19
534.69	40549.78
534.86	40776.81
535.03	39920.18
535.20	40891.50
535.37	40664.47
535.54	41085.76
535.71	40584.89
535.88	40271.26
536.05	40275.94
536.22	40748.73
536.38	40690.21
536.55	40755.75
536.72	40786.18
536.89	40924.27
537.06	41015.55
537.23	40835.33
537.40	40783.83
537.57	41139.60
537.74	40580.21
537.91	41516.42
538.08	41085.76
538.25	40980.44
538.42	41102.15
538.59	41443.87
538.75	41053.00
538.92	41347.90
539.09	41631.11
539.26	41343.22
539.43	41045.97
539.60	41736.43
539.77	41539.83
539.94	41500.04
540.11	41188.75
540.28	41422.80
540.44	41858.14
540.61	41350.24
540.78	41493.02
540.95	41862.82
541.12	41759.84
541.29	41570.25
541.46	41806.65
541.62	42017.30
541.79	42279.44
541.96	41820.69
542.13	41862.82
542.30	42040.70
542.47	41998.57
542.63	42328.59
542.80	42059.43
542.97	42394.12
543.14	43103.31
543.31	42515.83
543.48	42789.67
543.64	43098.62
543.81	42857.55
543.98	42700.73
544.15	42630.52
544.32	43215.65
544.48	43147.78
544.65	42995.64
544.82	43154.80
544.99	42670.31
545.16	42845.85
545.32	43040.11
545.49	43555.03
545.66	43299.91
545.83	43393.53
546.00	43470.77
546.16	43379.49
546.33	43161.82
546.50	42714.78
546.67	43215.65
546.83	42754.57
547.00	43505.88
547.17	43248.42
547.34	43192.25
547.50	43178.20
547.67	43775.04
547.84	43812.49
548.00	43480.13
548.17	43716.53
548.34	43686.10
548.51	44067.61
548.67	43833.55
548.84	43739.93
549.01	43831.21
549.18	44158.89
549.34	43510.56
549.51	43559.71
549.68	44381.24
549.84	44027.82
550.01	44257.19
550.18	44100.37
550.34	43873.34
550.51	43693.12
550.68	43587.80
550.84	43959.94
551.01	44076.97
551.18	43948.24
551.34	44318.04
551.51	44306.34
551.68	45031.91
551.84	44048.88
552.01	44250.17
552.18	44119.10
552.34	44289.96
552.51	44437.41
552.68	44114.42
552.84	44563.80
553.01	44744.02
553.18	44587.21
553.34	44437.41
553.51	44664.44
553.67	44301.66
553.84	44390.60
554.01	44577.84
554.17	45111.49
554.34	44964.03
554.51	44896.16
554.67	44811.90
554.84	44807.22
555.00	44418.69
555.17	44816.58
555.33	45270.64
555.50	45132.55
555.67	44900.84
555.83	44816.58
556.00	44601.25
556.16	45251.92
556.33	44751.04
556.50	44634.02
556.66	45258.94
556.83	45214.47
556.99	45317.45
557.16	45059.99
557.32	45219.15
557.49	45385.33
557.65	44975.73
557.82	45251.92
557.98	44662.10
558.15	44996.80
558.32	45188.72
558.48	45031.91
558.65	44952.33
558.81	45083.40
558.98	45333.84
559.14	45469.59
559.31	45296.39
559.47	45184.04
559.64	45390.01
559.80	45439.16
559.97	45790.24
560.13	45085.74
560.30	45420.44
560.46	45563.21
560.63	45455.54
560.79	45455.54
560.96	46036.00
561.12	45539.80
561.29	45464.91
561.45	45546.82
561.61	45584.27
561.78	45567.89
561.94	45537.46
562.11	45366.60
562.27	45975.14
562.44	45827.69
562.60	45715.34
562.77	45949.40
562.93	45797.26
563.10	45745.77
563.26	45556.19
563.42	46099.19
563.59	45574.91
563.75	45811.31
563.92	46017.27
564.08	45951.74
564.24	46101.53
564.41	45649.81
564.57	45771.52
564.74	45722.37
564.90	45462.57
565.07	45933.01
565.23	45895.56
565.39	45766.84
565.56	46270.05
565.72	45406.39
565.88	45654.49
566.05	45687.26
566.21	45689.60
566.38	45968.12
566.54	46223.24
566.70	45881.52
566.87	46183.45
567.03	45907.27
567.19	46408.14
567.36	46073.45
567.52	46146.00
567.68	46557.94
567.85	46038.34
568.01	46232.60
568.17	45876.84
568.34	46157.70
568.50	46190.47
568.66	46536.87
568.83	46138.98
568.99	45928.33
569.15	45682.58
569.32	46007.91
569.48	46057.06
569.64	46424.53
569.81	46326.22
569.97	46160.05
570.13	46040.68
570.30	45963.44
570.46	46003.23
570.62	45717.68
570.78	46005.57
570.95	45474.27
571.11	46174.09
571.27	45801.94
571.43	46124.94
571.60	46539.21
571.76	46354.31
571.92	45918.97
572.09	45886.20
572.25	46321.54
572.41	45755.13
572.57	46295.80
572.74	46234.94
572.90	46265.37
573.06	46314.52
573.22	46068.76
573.38	46436.23
573.55	45876.84
573.71	46288.77
573.87	46389.42
574.03	45984.51
574.20	46050.04
574.36	45652.15
574.52	46284.09
574.68	46078.13
574.84	46693.69
575.01	46469.00
575.17	46017.27
575.33	46291.12
575.49	46033.66
575.65	46424.53
575.82	46508.79
575.98	46131.96
576.14	46623.47
576.30	46775.61
576.46	46155.36
576.62	46216.22
576.79	46295.80
576.95	46143.66
577.11	46239.62
577.27	46347.29
577.43	46272.39
577.59	45979.82
577.75	46298.14
577.92	45865.14
578.08	45808.96
578.24	46089.83
578.40	46150.68
578.56	46328.56
578.72	46199.83
578.88	46588.36
579.04	46733.48
579.21	46284.09
579.37	46188.13
579.53	46438.57
579.69	46167.07
579.85	46204.52
580.01	46487.72
580.17	46103.87
580.33	46483.04
580.49	46216.22
580.65	46230.26
580.82	46373.03
580.98	46216.22
581.14	46515.81
581.30	46738.16
581.46	46300.48
581.62	46579.00
581.78	46513.47
581.94	46955.83
582.10	46174.09
582.26	46892.63
582.42	46471.34
582.58	46195.15
582.74	46206.86
582.90	46176.43
583.06	46569.64
583.22	46541.55
583.38	46387.08
583.54	46314.52
583.70	46602.41
583.86	46389.42
584.02	46204.52
584.18	46087.49
584.34	46850.50
584.50	46433.89
584.66	46506.44
584.82	46286.43
584.98	46775.61
585.14	46391.76
585.30	46485.38
585.46	46312.18
585.62	46195.15
585.78	46504.10
585.94	45883.86
586.10	46593.04
586.26	46508.79
586.42	46412.82
586.58	46887.95
586.74	46326.22
586.90	46263.03
587.06	46543.89
587.22	46370.69
587.38	46511.13
587.54	46337.93
587.70	46721.77
587.86	46543.89
588.02	46384.74
588.18	46590.70
588.34	46513.47
588.49	46335.59
588.65	45956.42
588.81	46026.63
588.97	46092.17
589.13	45776.20
589.29	45991.53
589.45	46356.65
589.61	46403.46
589.77	46429.21
589.93	46480.70
590.08	46593.04
590.24	46302.82
590.40	46696.03
590.56	46995.62
590.72	46604.75
590.88	46361.33
591.04	46724.11
591.20	46738.16
591.35	47009.66
591.51	47192.22
591.67	46579.00
591.83	46974.55
591.99	46691.35
592.15	46447.93
592.31	47014.34
592.46	46490.06
592.62	46623.47
592.78	46787.31
592.94	46492.40
593.10	46464.32
593.26	46892.63
593.41	46586.02
593.57	46155.36
593.73	46485.38
593.89	46696.03
594.05	46403.46
594.20	46443.25
594.36	46934.76
594.52	46621.13
594.68	46490.06
594.84	46260.69
594.99	47248.39
595.15	46684.33
595.31	46843.48
595.47	46667.94
595.62	46525.17
595.78	46546.23
595.94	47007.32
596.10	46796.67
596.25	47084.56
596.41	46958.17
596.57	46892.63
596.73	46848.16
596.88	46199.83
597.04	46869.23
597.20	46508.79
597.36	46419.84
597.51	47327.97
597.67	46581.34
597.83	47199.24
597.99	46880.93
598.14	46394.10
598.30	46990.94
598.46	46784.97
598.61	46803.69
598.77	46473.68
598.93	46693.69
599.09	46869.23
599.24	47318.61
599.40	46972.21
599.56	47224.99
599.71	46873.91
599.87	46759.22
600.03	47297.55
600.18	46656.24
600.34	46616.45
600.50	46639.86
600.65	46543.89
600.81	46796.67
600.97	46813.05
601.12	47143.07
601.28	46902.00
601.44	46740.50
601.59	46948.81
601.75	46677.30
601.91	46651.56
602.06	46728.80
602.22	46522.83
602.37	46618.79
602.53	46749.86
602.69	47004.98
602.84	46440.91
603.00	46637.51
603.16	46749.86
603.31	46501.76
603.47	46721.77
603.62	46721.77
603.78	46237.28
603.94	46415.16
604.09	46473.68
604.25	46527.51
604.40	46866.89
604.56	46431.55
604.71	46876.25
604.87	46972.21
605.03	46621.13
605.18	46424.53
605.34	46934.76
605.49	46593.04
605.65	46754.54
605.80	46550.91
605.96	46965.19
606.12	46717.09
606.27	47023.70
606.43	46504.10
606.58	46518.15
606.74	45965.78
606.89	46127.28
607.05	46642.20
607.20	46993.28
607.36	46347.29
607.51	46939.44
607.67	46946.47
607.82	46043.02
607.98	46258.35
608.13	46347.29
608.29	46616.45
608.44	45982.16
608.60	45783.22
608.75	45832.37
608.91	45872.16
609.06	45886.20
609.22	46550.91
609.37	45860.46
609.53	46316.86
609.68	46569.64
609.84	45925.99
609.99	46209.20
610.15	46202.18
610.30	46202.18
610.46	45654.49
610.61	46164.73
610.76	46134.30
610.92	46356.65
611.07	45890.88
611.23	45837.05
611.38	46007.91
611.54	46050.04
611.69	45525.76
611.84	45579.59
612.00	45797.26
612.15	45600.66
612.31	46010.25
612.46	45500.01
612.62	46101.53
612.77	46108.55
612.92	46000.89
613.08	46117.92
613.23	45949.40
613.39	45502.35
613.54	45668.53
613.69	45734.07
613.85	45724.71
614.00	45815.99
614.15	45918.97
614.31	46033.66
614.46	46401.12
614.62	45839.39
614.77	45537.46
614.92	45631.08
615.08	45310.43
615.23	45291.71
615.38	45703.64
615.54	44928.92
615.69	45553.85
615.84	44978.07
616.00	45205.11
616.15	45411.07
616.30	45649.81
616.46	45305.75
616.61	44889.13
616.76	45170.00
616.92	45413.41
617.07	44851.69
617.22	44704.23
617.37	44542.74
617.53	45305.75
617.68	45155.96
617.83	45408.73
617.99	45148.93
618.14	45158.30
618.29	45134.89
618.45	44451.45
618.60	45258.94
618.75	45478.95
618.90	44828.28
619.06	45034.25
619.21	44973.39
619.36	44886.79
619.51	45102.12
619.67	44849.35
619.82	44947.65
619.97	45352.56
620.12	44788.49
620.28	44727.64
620.43	44814.24
620.58	44619.97
620.73	44971.05
620.89	44636.36
621.04	44907.86
621.19	44657.42
621.34	44708.91
621.49	44587.21
621.65	44421.03
621.80	44278.25
621.95	44250.17
622.10	44399.96
622.25	44271.23
622.41	44589.55
622.56	44294.64
622.71	44135.48
622.86	44364.85
623.01	44203.36
623.16	44484.22
623.32	44240.81
623.47	44325.07
623.62	44725.30
623.77	44556.78
623.92	44030.16
624.07	44027.82
624.23	43419.28
624.38	43950.58
624.53	44091.01
624.68	43941.22
624.83	44072.29
624.98	43903.77
625.13	43803.13
625.29	44137.82
625.44	44261.87
625.59	43496.52
625.74	43313.95
625.89	43136.07
626.04	43758.66
626.19	43414.60
626.34	44016.11
626.49	43941.22
626.65	43522.26
626.80	43873.34
626.95	43400.55
627.10	43496.52
627.25	43115.01
627.40	43302.25
627.55	42838.83
627.70	42780.31
627.85	42784.99
628.00	43065.86
628.15	43068.20
628.30	43103.31
628.45	43232.04
628.60	43084.58
628.76	43363.11
628.91	43800.79
629.06	43274.16
629.21	43182.88
629.36	43234.38
629.51	42787.33
629.66	42820.10
629.81	42775.63
629.96	43103.31
630.11	42927.77
630.26	43173.52
630.41	43367.79
630.56	43014.37
630.71	43428.64
630.86	43070.54
631.01	42873.93
631.16	42789.67
631.31	42520.51
631.46	42368.38
631.61	42796.70
631.76	42445.62
631.91	42735.84
632.06	42595.41
632.21	42499.45
632.36	42492.43
632.51	42518.17
632.66	42525.19
632.81	42096.88
632.96	42660.94
633.10	42253.69
633.25	42520.51
633.40	41933.04
633.55	42543.92
633.70	42295.82
633.85	42218.58
634.00	42195.18
634.15	42347.31
634.30	42164.75
634.45	42579.03
634.60	42052.41
634.75	42476.04
634.90	41720.05
635.05	42124.96
635.19	41860.48
635.34	42291.14
635.49	42340.29
635.64	42092.19
635.79	42047.72
635.94	41729.41
636.09	41659.20
636.24	41617.07
636.39	41565.57
636.53	41209.81
636.68	41368.97
636.83	41521.10
636.98	41532.81
637.13	41237.90
637.28	41467.27
637.43	41979.85
637.57	41991.55
637.72	41413.44
637.87	41881.55
638.02	41837.08
638.17	41991.55
638.32	41160.66
638.46	41280.03
638.61	41123.21
638.76	40821.28
638.91	41427.48
639.06	41588.98
639.20	41584.30
639.35	41787.92
639.50	41123.21
639.65	41497.70
639.80	41375.99
639.94	41319.82
640.09	40793.20
640.24	40793.20
640.39	41097.47
640.54	41048.32
640.68	41127.89
640.83	41081.08
640.98	40804.90
641.13	40835.33
641.27	41324.50
641.42	40788.52
641.57	41287.05
641.72	41062.36
641.86	40327.43
642.01	40219.77
642.16	40797.88
642.31	40594.25
642.45	40657.45
642.60	40114.44
642.75	40390.62
642.90	40495.95
643.04	40446.80
643.19	40615.32
643.34	40163.59
643.48	40327.43
643.63	40479.57
643.78	40423.39
643.93	40109.76
644.07	40329.77
644.22	40629.36
644.37	40294.66
644.51	40781.49
644.66	40535.74
644.81	40397.65
644.95	40421.05
645.10	40095.72
645.25	40605.95
645.39	40603.61
645.54	40086.36
645.69	40088.70
645.83	40306.37
645.98	39798.47
646.13	40147.21
646.27	40023.16
646.42	39849.96
646.57	39885.07
646.71	40531.06
646.86	39634.63
647.00	40011.46
647.15	40051.25
647.30	40084.01
647.44	40095.72
647.59	39700.17
647.74	39651.02
647.88	39871.03
648.03	39988.05
648.17	39810.17
648.32	39475.48
648.47	39777.40
648.61	39707.19
648.76	39952.94
648.90	39768.04
649.05	39622.93
649.20	39622.93
649.34	39590.16
649.49	39318.66
649.63	39611.23
649.78	39281.21
649.92	39353.77
650.07	39777.40
650.21	39625.27
650.36	39187.59
650.51	39274.19
650.65	39861.66
650.80	39950.60
650.94	39484.84
651.09	39503.56
651.23	39487.18
651.38	39068.22
651.52	39119.71
651.67	39229.72
651.81	38946.51
651.96	39049.50
652.10	39023.75
652.25	38885.66
652.39	39117.37
652.54	38742.89
652.68	38920.77
652.83	38820.13
652.97	39655.70
653.12	38693.74
653.26	38724.16
653.41	39271.85
653.55	38880.98
653.70	38644.59
653.84	39161.84
653.99	38525.22
654.13	38562.67
654.27	38735.87
654.42	38146.05
654.56	38314.57
654.71	38274.78
654.85	38471.39
655.00	38092.22
655.14	38094.56
655.29	38099.24
655.43	38471.39
655.57	38487.77
655.72	37741.14
655.86	37895.61
656.01	37825.40
656.15	37900.29
656.30	37603.05
656.44	38141.37
656.58	37949.45
656.73	37846.46
656.87	37392.40
657.01	37853.48
657.16	37947.11
657.30	37727.10
657.45	37677.94
657.59	37743.48
657.73	37361.97
657.88	37872.21
658.02	37511.77
658.16	37759.86
658.31	38061.79
658.45	38396.49
658.60	37415.80
658.74	38078.18
658.88	37902.64
659.03	37244.94
659.17	37322.18
659.31	37745.82
659.46	36945.36
659.60	37188.77
659.74	37532.83
659.89	36961.74
660.03	37132.60
660.17	37291.76
660.32	37031.96
660.46	37347.93
660.60	37069.40
660.74	37027.28
660.89	37357.29
661.03	37088.13
661.17	36903.23
661.32	36582.57
661.46	36964.08
661.60	36648.11
661.74	36914.93
661.89	36608.32
662.03	36531.08
662.17	36556.83
662.31	36498.31
662.46	36975.78
662.60	36615.34
662.74	36755.77
662.88	36666.83
663.03	36273.62
663.17	36219.79
663.31	35887.43
663.45	36273.62
663.60	35934.24
663.74	36060.63
663.88	36285.33
664.02	35278.89
664.17	35817.22
664.31	35613.59
664.45	35594.87
664.59	35716.58
664.73	35412.31
664.88	35878.07
665.02	35222.72
665.16	35360.81
665.30	35452.09
665.44	35349.11
665.59	35131.44
665.73	35505.93
665.87	35374.86
666.01	35569.12
666.15	35014.41
666.29	34895.05
666.44	35463.80
666.58	35065.91
666.72	34988.67
666.86	35292.94
667.00	35339.75
667.14	35124.42
667.28	34937.18
667.43	34249.06
667.57	34902.07
667.71	34607.16
667.85	34604.82
667.99	34808.45
668.13	34672.70
668.27	34127.35
668.41	34169.48
668.56	34132.03
668.70	34342.68
668.84	34361.40
668.98	34059.48
669.12	33872.23
669.26	34326.30
669.40	34153.10
669.54	34003.30
669.68	33783.29
669.82	33958.83
669.96	33996.28
670.10	33783.29
670.25	34178.84
670.39	33792.65
670.53	33610.09
670.67	32978.15
670.81	33558.60
670.95	33612.43
671.09	33298.80
671.23	33319.87
671.37	33574.98
671.51	33043.68
671.65	32980.49
671.79	32872.82
671.93	32917.29
672.07	33141.99
672.21	33022.62
672.35	32947.72
672.49	32484.30
672.63	32912.61
672.77	32587.28
672.91	32484.30
673.05	32367.27
673.19	32170.66
673.33	32327.48
673.47	32180.03
673.61	32123.85
673.75	32140.24
673.89	31845.33
674.03	31992.78
674.17	31534.04
674.31	31552.76
674.45	31695.53
674.59	31564.46
674.73	32081.72
674.87	31850.01
675.01	31480.21
675.15	31838.31
675.29	31662.77
675.43	31297.64
675.56	31667.45
675.70	31033.16
675.84	31527.02
675.98	30143.76
676.12	30831.88
676.26	30742.94
676.40	30881.03
676.54	30794.43
676.68	30487.82
676.82	29926.09
676.96	30443.35
677.10	29951.84
677.23	30459.73
677.37	30003.33
677.51	30450.37
677.65	30202.27
677.79	29448.62
677.93	29731.83
678.07	29912.05
678.21	29366.70
678.34	29439.26
678.48	29338.62
678.62	28762.84
678.76	29305.85
678.90	28826.04
679.04	28945.41
679.18	29308.19
679.31	28823.70
679.45	28765.18
679.59	28638.80
679.73	28587.30
679.87	28573.26
680.00	28533.47
680.14	28437.51
680.28	27824.29
680.42	27784.50
680.56	28252.61
680.70	27992.81
680.83	27651.09
680.97	28116.86
681.11	27903.87
681.25	27658.11
681.39	27934.29
681.52	27906.21
681.66	27709.60
681.80	27459.16
681.94	27442.78
682.07	27138.51
682.21	27007.44
682.35	26808.50
682.49	26979.36
682.62	26993.40
682.76	27016.80
682.90	26836.58
683.04	26480.82
683.17	26572.10
683.31	26387.20
683.45	26321.66
683.59	26658.70
683.72	26246.77
683.86	25968.24
684.00	25928.45
684.13	25752.91
684.27	25956.54
684.41	25607.80
684.55	25544.61
684.68	25317.57
684.82	25458.01
684.96	25383.11
685.09	25109.27
685.23	25083.52
685.37	24863.51
685.50	25170.12
685.64	24936.07
685.78	25130.33
685.91	25081.18
686.05	24479.66
686.19	24247.95
686.32	24755.85
686.46	24297.10
686.60	23988.15
686.73	24004.53
686.87	24250.29
687.01	23847.72
687.14	23449.83
687.28	23316.42
687.42	23503.66
687.55	23241.52
687.69	23445.15
687.82	23573.88
687.96	23229.82
688.10	23274.29
688.23	23269.61
688.37	23147.90
688.50	22766.39
688.64	23140.88
688.78	22682.13
688.91	22661.07
689.05	22855.33
689.18	22728.94
689.32	22153.17
689.46	22295.94
689.59	22431.69
689.73	22340.41
689.86	22436.38
690.00	22218.71
690.13	22104.02
690.27	22047.85
690.41	21961.25
690.54	21598.46
690.68	21469.73
690.81	21633.57
690.95	21446.33
691.08	21235.68
691.22	21263.77
691.35	21397.18
691.49	21493.14
691.62	21427.60
691.76	21284.83
691.89	21088.23
692.03	20671.61
692.16	20762.89
692.30	20615.44
692.43	20641.18
692.57	20702.04
692.70	20795.66
692.84	20348.62
692.97	20271.38
693.11	20549.90
693.24	20217.55
693.38	20336.91
693.51	19887.53
693.65	19943.70
693.78	20086.48
693.92	20128.61
694.05	20032.65
694.19	19578.58
694.32	19878.17
694.45	19571.56
694.59	19344.53
694.72	19323.46
694.86	19147.92
694.99	19377.30
695.13	19066.00
695.26	18836.63
695.39	18972.38
695.53	18953.66
695.66	18698.54
695.80	18822.59
695.93	18597.90
696.07	18845.99
696.20	18331.08
696.33	18354.48
696.47	18459.81
696.60	18347.46
696.73	18499.59
696.87	18422.36
697.00	18331.08
697.14	18272.56
697.27	18113.41
697.40	18050.21
697.54	17827.86
697.67	17745.94
697.80	17577.42
697.94	17715.51
698.07	17376.14
698.21	17151.45
698.34	17479.12
698.47	17310.60
698.61	16943.14
698.74	16875.26
698.87	17025.06
699.01	16884.62
699.14	17046.12
699.27	16975.91
699.40	16510.14
699.54	16641.21
699.67	16393.11
699.80	16327.58
699.94	16451.63
700.07	16416.52
700.20	16273.74
700.34	16011.60
700.47	16395.45
700.60	16498.44
700.73	16322.90
700.87	15955.43
701.00	15770.53
701.13	15854.79
701.26	15885.22
701.40	15665.21
701.53	15272.00
701.66	15274.34
701.79	15454.56
701.93	15356.25
702.06	15243.91
702.19	15206.46
702.32	15279.02
702.46	15314.13
702.59	14946.66
702.72	15047.30
702.85	14949.00
702.99	15009.86
703.12	14953.68
703.25	14946.66
703.38	14686.86
703.51	14487.92
703.65	14480.89
703.78	14544.09
703.91	14251.52
704.04	14574.52
704.17	14616.65
704.31	14068.96
704.44	13860.65
704.57	14108.75
704.70	14122.79
704.83	13930.87
704.96	14127.47
705.10	14204.71
705.23	14122.79
>>>>>End Processed Spectral Data<<<<<
