SpectraSuite Data File
++++++++++++++++++++++++++++++++++++
Date: Fri Oct 25 10:47:27 EDT 2013
User: price-jones
Dark Spectrum Present: No
Reference Spectrum Present: No
Number of Sampled Component Spectra: 1
Spectrometers: USB2+H05261
Integration Time (usec): 100000 (USB2+H05261)
Spectra Averaged: 1 (USB2+H05261)
Boxcar Smoothing: 0 (USB2+H05261)
Correct for Electrical Dark: No (USB2+H05261)
Strobe/Lamp Enabled: No (USB2+H05261)
Correct for Detector Non-linearity: No (USB2+H05261)
Correct for Stray Light: No (USB2+H05261)
Number of Pixels in Processed Spectrum: 2048
>>>>>Begin Processed Spectral Data<<<<<
365.73	168.52
365.92	168.52
366.12	168.52
366.32	39.79
366.52	18.72
366.72	63.19
366.91	0.00
367.11	46.81
367.31	28.09
367.51	2.34
367.70	53.83
367.90	42.13
368.10	18.72
368.30	42.13
368.49	37.45
368.69	7.02
368.89	60.85
369.09	23.41
369.28	84.26
369.48	49.15
369.68	16.38
369.87	51.49
370.07	177.88
370.27	173.20
370.47	142.77
370.66	306.61
370.86	414.27
371.06	444.70
371.25	533.64
371.45	463.43
371.65	437.68
371.84	414.27
372.04	454.06
372.24	489.17
372.44	475.13
372.63	484.49
372.83	550.03
373.03	491.51
373.22	528.96
373.42	538.32
373.62	559.39
373.81	575.77
374.01	543.00
374.21	512.58
374.40	470.45
374.60	585.13
374.79	482.15
374.99	594.50
375.19	547.69
375.38	500.87
375.58	578.11
375.78	573.43
375.97	517.26
376.17	622.58
376.37	578.11
376.56	573.43
376.76	550.03
376.95	634.29
377.15	587.47
377.35	622.58
377.54	613.22
377.74	620.24
377.93	667.05
378.13	540.66
378.33	629.60
378.52	615.56
378.72	664.71
378.91	599.18
379.11	592.16
379.31	655.35
379.50	580.45
379.70	662.37
379.89	617.90
380.09	645.99
380.28	669.39
380.48	610.88
380.68	599.18
380.87	617.90
381.07	702.16
381.26	667.05
381.46	685.78
381.65	648.33
381.85	676.41
382.04	645.99
382.24	699.82
382.43	648.33
382.63	664.71
382.83	704.50
383.02	737.27
383.22	819.19
383.41	678.76
383.61	732.59
383.80	814.51
384.00	744.29
384.19	716.20
384.39	755.99
384.58	718.54
384.78	786.42
384.97	777.06
385.17	727.91
385.36	725.57
385.56	791.10
385.75	795.78
385.95	837.91
386.14	884.72
386.34	767.70
386.53	802.80
386.72	800.46
386.92	821.53
387.11	798.12
387.31	809.83
387.50	802.80
387.70	896.43
387.89	798.12
388.09	793.44
388.28	821.53
388.48	786.42
388.67	807.48
388.86	908.13
389.06	819.19
389.25	798.12
389.45	840.25
389.64	884.72
389.84	1048.56
390.03	887.06
390.22	868.34
390.42	847.27
390.61	856.64
390.81	976.00
391.00	987.71
391.19	929.19
391.39	910.47
391.58	966.64
391.78	978.34
391.97	957.28
392.16	980.68
392.36	980.68
392.55	952.60
392.75	896.43
392.94	1041.54
393.13	999.41
393.33	903.45
393.52	936.21
393.71	945.58
393.91	1121.12
394.10	1064.94
394.29	997.07
394.49	1090.69
394.68	1083.67
394.88	1109.41
395.07	1135.16
395.26	1163.25
395.46	1088.35
395.65	1078.99
395.84	1097.71
396.04	1170.27
396.23	1118.78
396.42	1165.59
396.62	1121.12
396.81	1114.10
397.00	1174.95
397.19	1160.91
397.39	1256.87
397.58	1238.14
397.77	1153.88
397.97	1186.65
398.16	1263.89
398.35	1373.89
398.55	1224.10
398.74	1306.02
398.93	1350.49
399.12	1371.55
399.32	1268.57
399.51	1238.14
399.70	1383.26
399.90	1336.45
400.09	1254.53
400.28	1378.58
400.47	1472.20
400.67	1401.98
400.86	1472.20
401.05	1357.51
401.24	1465.18
401.44	1483.90
401.63	1514.33
401.82	1519.01
402.01	1488.58
402.21	1486.24
402.40	1418.36
402.59	1511.99
402.78	1586.88
402.97	1523.69
403.17	1551.78
403.36	1453.47
403.55	1636.03
403.74	1514.33
403.93	1589.22
404.13	1692.21
404.32	1624.33
404.51	1572.84
404.70	1685.19
404.89	1643.06
405.09	1739.02
405.28	1694.55
405.47	1673.48
405.66	1685.19
405.85	1703.91
406.05	1715.61
406.24	1666.46
406.43	1802.21
406.62	1743.70
406.81	1888.81
407.00	1694.55
407.20	1778.81
407.39	1788.17
407.58	1863.07
407.77	1813.92
407.96	1923.92
408.15	2033.93
408.34	1956.69
408.54	1949.67
408.73	1980.09
408.92	1982.43
409.11	1989.46
409.30	1982.43
409.49	2010.52
409.68	1994.14
409.87	2001.16
410.07	2069.03
410.26	2104.14
410.45	2064.35
410.64	2108.82
410.83	2132.23
411.02	2143.93
411.21	2195.42
411.40	2176.70
411.59	2267.98
411.78	2244.57
411.98	2310.11
412.17	2277.34
412.36	2239.89
412.55	2385.01
412.74	2408.41
412.93	2389.69
413.12	2380.32
413.31	2480.97
413.50	2382.67
413.69	2413.09
413.88	2647.15
414.07	2523.10
414.26	2462.24
414.45	2466.92
414.64	2616.72
414.83	2700.98
415.02	2731.41
415.22	2719.70
415.41	2672.89
415.60	2752.47
415.79	2670.55
415.98	2799.28
416.17	2761.83
416.36	2665.87
416.55	2829.71
416.74	2846.09
416.93	2913.97
417.12	2942.05
417.31	2836.73
417.50	2909.29
417.69	2951.42
417.88	2979.50
418.07	3000.57
418.26	3136.32
418.45	3002.91
418.64	3110.57
418.83	3075.46
419.02	3119.93
419.21	3187.81
419.39	3246.32
419.58	3084.83
419.77	3080.14
419.96	3243.98
420.15	3304.84
420.34	3185.47
420.53	3370.37
420.72	3335.26
420.91	3300.16
421.10	3346.97
421.29	3445.27
421.48	3276.75
421.67	3468.67
421.86	3405.48
422.05	3478.04
422.24	3384.41
422.43	3206.53
422.61	3290.79
422.80	3379.73
422.99	3438.25
423.18	3524.85
423.37	3468.67
423.56	3475.70
423.75	3461.65
423.94	3342.28
424.13	3199.51
424.32	3386.76
424.50	3492.08
424.69	3651.24
424.88	3433.57
425.07	3543.57
425.26	3463.99
425.45	3424.20
425.64	3351.65
425.83	3393.78
426.01	3611.45
426.20	3569.32
426.39	3611.45
426.58	3454.63
426.77	3566.98
426.96	3543.57
427.15	3658.26
427.33	3632.51
427.52	3503.78
427.71	3676.98
427.90	3599.74
428.09	3768.26
428.28	3662.94
428.46	3583.36
428.65	3611.45
428.84	3815.07
429.03	3803.37
429.22	3791.67
429.40	3779.97
429.59	3667.62
429.78	3735.50
429.97	3506.12
430.16	3620.81
430.34	3782.31
430.53	3810.39
430.72	3644.21
430.91	3847.84
431.10	3833.80
431.28	3946.14
431.47	4098.28
431.66	4128.70
431.85	3929.76
432.03	4147.43
432.22	4147.43
432.41	4121.68
432.60	4131.05
432.79	4210.62
432.97	4140.41
433.16	4222.33
433.35	4191.90
433.54	4250.41
433.72	4149.77
433.91	4191.90
434.10	4219.99
434.28	4201.26
434.47	4425.95
434.66	4341.69
434.85	4367.44
435.03	4404.89
435.22	4458.72
435.41	4603.83
435.59	4552.34
435.78	4465.74
435.97	4456.38
436.16	4606.17
436.34	4428.29
436.53	4554.68
436.72	4760.65
436.90	4512.55
437.09	4500.85
437.28	4531.28
437.46	4751.29
437.65	4608.51
437.84	4711.50
438.02	4603.83
438.21	4636.60
438.40	4608.51
438.58	4875.34
438.77	4774.69
438.96	4781.71
439.14	4779.37
439.33	4865.97
439.52	5090.67
439.70	4952.57
439.89	5039.17
440.08	4947.89
440.26	5013.43
440.45	5057.90
440.63	5214.71
440.82	5320.04
441.01	5352.81
441.19	5172.58
441.38	5193.65
441.57	5291.95
441.75	5406.64
441.94	5572.82
442.12	5586.86
442.31	5544.73
442.50	5479.19
442.68	5455.79
442.87	5472.17
443.05	5537.71
443.24	5547.07
443.43	5619.63
443.61	5767.08
443.80	5802.19
443.98	5488.56
444.17	5465.15
444.35	5610.26
444.54	5830.27
444.73	5841.98
444.91	5584.52
445.10	5647.71
445.28	5762.40
445.47	5593.88
445.65	5593.88
445.84	5900.49
446.02	5881.77
446.21	5853.68
446.39	5858.36
446.58	5813.89
446.77	5933.26
446.95	5870.06
447.14	5916.87
447.32	5902.83
447.51	5837.30
447.69	5856.02
447.88	5818.57
448.06	5884.11
448.25	5839.64
448.43	6052.63
448.62	5991.77
448.80	5844.32
448.99	6150.93
449.17	6092.41
449.36	6061.99
449.54	6108.80
449.73	6274.98
449.91	6221.14
450.10	6167.31
450.28	6303.06
450.46	6373.28
450.65	6291.36
450.83	6312.42
451.02	6267.95
451.20	6448.18
451.39	6380.30
451.57	6338.17
451.76	6314.77
451.94	6321.79
452.13	6415.41
452.31	6408.39
452.49	6186.04
452.68	6516.05
452.86	6340.51
453.05	6345.19
453.23	6658.82
453.42	6452.86
453.60	6455.20
453.78	6532.44
453.97	6476.26
454.15	6640.10
454.34	6562.86
454.52	6682.23
454.70	6530.09
454.89	6719.68
455.07	6663.51
455.26	6745.42
455.44	6836.70
455.62	6731.38
455.81	6923.30
455.99	6935.01
456.17	6913.94
456.36	6930.33
456.54	6951.39
456.73	7023.95
456.91	7290.77
457.09	7101.19
457.28	7213.53
457.46	7126.93
457.64	7016.93
457.83	7208.85
458.01	7045.01
458.19	7176.08
458.38	7187.79
458.56	7494.40
458.74	7330.56
458.93	7377.37
459.11	7332.90
459.29	7349.28
459.48	7417.16
459.66	7218.21
459.84	7281.41
460.03	7377.37
460.21	7389.07
460.39	7616.10
460.57	7599.72
460.76	7442.90
460.94	7412.48
461.12	7749.51
461.31	7597.38
461.49	7513.12
461.67	7531.84
461.85	7836.11
462.04	7625.47
462.22	8025.70
462.40	7866.54
462.59	7768.24
462.77	7864.20
462.95	7925.05
463.13	7730.79
463.32	7756.54
463.50	7906.33
463.68	8095.91
463.86	8049.10
464.05	7946.12
464.23	8042.08
464.41	8229.32
464.59	7808.03
464.78	8238.69
464.96	7789.30
465.14	8056.12
465.32	8119.32
465.50	8341.67
465.69	8276.13
465.87	8049.10
466.05	8236.35
466.23	8175.49
466.41	8140.38
466.60	8524.23
466.78	8325.29
466.96	8306.56
467.14	8241.03
467.32	8276.13
467.51	8425.93
467.69	8226.98
467.87	8409.54
468.05	8692.75
468.23	8362.73
468.41	8531.25
468.60	8503.17
468.78	8638.92
468.96	8514.87
469.14	8643.60
469.32	8692.75
469.50	8608.49
469.69	8788.71
469.87	8830.84
470.05	8795.73
470.23	8774.67
470.41	8769.99
470.59	8891.70
470.77	8779.35
470.95	9078.94
471.14	9102.34
471.32	8798.07
471.50	9376.19
471.68	9179.58
471.86	8973.61
472.04	9158.52
472.22	9366.82
472.40	9380.87
472.58	9060.21
472.77	9303.63
472.95	9525.98
473.13	9643.01
473.31	9481.51
473.49	9516.62
473.67	9502.58
473.85	9692.16
474.03	9666.41
474.21	9851.31
474.39	9888.76
474.57	9727.27
474.75	9888.76
474.93	9980.04
475.12	9996.43
475.30	10068.98
475.48	10174.31
475.66	10209.42
475.84	10164.95
476.02	10314.74
476.20	10162.61
476.38	10399.00
476.56	10761.78
476.74	10572.20
476.92	10607.31
477.10	10626.03
477.28	10780.51
477.46	10717.31
477.64	10857.75
477.82	11061.37
478.00	11171.38
478.18	11447.56
478.36	11066.05
478.54	11309.47
478.72	11351.60
478.90	11665.23
479.08	11681.61
479.26	11613.74
479.44	11747.15
479.62	11836.09
479.80	11978.86
479.98	12063.12
480.16	12166.10
480.34	12170.79
480.52	12325.26
480.70	12444.63
480.88	12194.19
481.06	12568.68
481.24	12435.27
481.41	12917.42
481.59	12758.26
481.77	12982.95
481.95	13238.07
482.13	13055.51
482.31	12786.35
482.49	13235.73
482.67	13437.02
482.85	13427.65
483.03	13816.18
483.21	13769.37
483.39	13710.86
483.57	13797.46
483.74	13736.60
483.92	14146.20
484.10	14101.73
484.28	14129.81
484.46	14604.94
484.64	14581.54
484.82	14335.78
485.00	14654.09
485.18	14965.39
485.35	15030.92
485.53	15023.90
485.71	14794.53
485.89	15138.58
486.07	15211.14
486.25	15218.16
486.43	15180.71
486.61	15508.39
486.78	15637.12
486.96	15957.77
487.14	15953.09
487.32	15988.20
487.50	16203.53
487.68	16624.83
487.85	16711.42
488.03	16826.11
488.21	16968.88
488.39	16886.97
488.57	16964.20
488.75	17121.02
488.92	17153.79
489.10	17603.17
489.28	17380.82
489.46	17900.42
489.64	17549.34
489.81	18267.88
489.99	17965.95
490.17	18342.78
490.35	18387.25
490.53	18258.52
490.70	18553.43
490.88	18288.95
491.06	18995.79
491.24	18649.39
491.41	18700.88
491.59	18656.41
491.77	18700.88
491.95	19276.65
492.13	19297.72
492.30	19524.75
492.48	19604.33
492.66	19814.98
492.84	19632.41
493.01	20020.94
493.19	20058.39
493.37	20402.45
493.54	20205.84
493.72	20432.88
493.90	20257.34
494.08	20379.04
494.25	20718.42
494.43	20905.66
494.61	21163.12
494.79	20926.73
494.96	21209.93
495.14	21097.59
495.32	21486.12
495.49	21596.12
495.67	21664.00
495.85	21727.19
496.02	22024.44
496.20	22235.09
496.38	22223.39
496.55	22431.69
496.73	22581.49
496.91	22658.73
497.09	22445.74
497.26	22714.90
497.44	22754.69
497.62	22742.99
497.79	23445.15
497.97	23035.55
498.14	23068.32
498.32	23503.66
498.50	23396.00
498.67	23613.66
498.85	23608.98
499.03	23754.10
499.20	24034.96
499.38	24269.01
499.56	24194.12
499.73	23747.08
499.91	24463.28
500.08	24311.14
500.26	24273.70
500.44	24624.78
500.61	24287.74
500.79	24364.98
500.97	24570.94
501.14	24957.13
501.32	24952.45
501.49	24849.47
501.67	25102.25
501.84	25071.82
502.02	25055.43
502.20	25123.31
502.37	25816.11
502.55	25174.80
502.72	25502.48
502.90	25694.40
503.07	25689.72
503.25	25724.83
503.43	25862.92
503.60	25837.17
503.78	25809.09
503.95	26078.25
504.13	26239.75
504.30	26129.74
504.48	26068.89
504.65	26672.74
504.83	26450.39
505.01	26714.87
505.18	26801.47
505.36	26881.05
505.53	27087.02
505.71	27112.77
505.88	27164.26
506.06	26806.16
506.23	27082.34
506.41	27122.13
506.58	26930.20
506.76	27311.71
506.93	27325.75
507.11	27466.19
507.28	27997.49
507.46	27882.80
507.63	27623.00
507.81	28252.61
507.98	28032.60
508.16	27976.42
508.33	27803.22
508.50	27983.44
508.68	27899.19
508.85	28081.75
509.03	28027.92
509.20	28311.12
509.38	28636.45
509.55	29090.52
509.73	28591.98
509.90	28968.81
510.08	28959.45
510.25	28753.48
510.42	29226.27
510.60	28996.90
510.77	29446.28
510.95	29514.16
511.12	29277.76
511.30	29525.86
511.47	29846.51
511.64	29827.79
511.82	29488.41
511.99	29670.97
512.17	29802.04
512.34	29757.57
512.51	29979.92
512.69	30242.06
512.86	30038.44
513.04	30415.26
513.21	30054.82
513.38	30401.22
513.56	30188.23
513.73	30302.92
513.90	30738.26
514.08	30408.24
514.25	31180.62
514.43	30871.67
514.60	30934.86
514.77	30572.08
514.95	31204.02
515.12	31180.62
515.29	30965.29
515.47	31250.83
515.64	31236.79
515.81	31225.09
515.99	31342.11
516.16	31669.79
516.33	31314.03
516.51	31728.30
516.68	31290.62
516.85	31644.04
517.03	31548.08
517.20	31814.90
517.37	31613.62
517.54	32063.00
517.72	31800.86
517.89	31770.43
518.06	32198.75
518.24	31901.50
518.41	31784.48
518.58	32013.85
518.75	32053.64
518.93	32549.83
519.10	32577.92
519.27	32912.61
519.45	32851.76
519.62	32804.95
519.79	32924.32
519.96	32978.15
520.14	33256.67
520.31	32629.41
520.48	32943.04
520.65	33378.38
520.83	33633.50
521.00	33305.82
521.17	32807.29
521.34	33163.05
521.52	33802.02
521.69	33490.73
521.86	33844.15
522.03	33472.00
522.20	33722.44
522.38	33771.59
522.55	33883.94
522.72	33996.28
522.89	33811.38
523.07	34052.45
523.24	33872.23
523.41	33921.38
523.58	33757.55
523.75	34457.37
523.92	34270.12
524.10	34590.78
524.27	34569.71
524.44	34726.53
524.61	34433.96
524.78	34721.85
524.96	35040.16
525.13	34969.94
525.30	35206.34
525.47	34981.65
525.64	35194.64
525.81	35047.18
525.98	35180.59
526.16	35323.36
526.33	34932.50
526.50	35065.91
526.67	35023.78
526.84	35211.02
527.01	35246.13
527.18	35246.13
527.36	35386.56
527.53	35440.39
527.70	36023.19
527.87	36070.00
528.04	35871.05
528.21	36175.32
528.38	36191.70
528.55	36130.85
528.72	36130.85
528.89	36470.23
529.07	35971.69
529.24	35653.38
529.41	36135.53
529.58	36311.07
529.75	36161.28
529.92	36737.05
530.09	36222.13
530.26	36514.70
530.43	36816.63
530.60	36119.15
530.77	36065.31
530.94	36872.80
531.11	36610.66
531.28	37097.49
531.46	36982.80
531.63	36741.73
531.80	37144.30
531.97	36971.10
532.14	36781.52
532.31	36842.37
532.48	37212.18
532.65	37237.92
532.82	37392.40
532.99	37427.51
533.16	37008.55
533.33	37268.35
533.50	37411.12
533.67	37816.04
533.84	37738.80
534.01	37429.85
534.18	37415.80
534.35	38003.28
534.52	37383.04
534.69	37427.51
534.86	37844.12
535.03	37469.64
535.20	37755.18
535.37	38204.56
535.54	38288.82
535.71	37684.97
535.88	37900.29
536.05	38455.00
536.22	38660.97
536.38	38328.61
536.55	38560.33
536.72	38007.96
536.89	38323.93
537.06	38141.37
537.23	38157.75
537.40	38382.45
537.57	38567.35
537.74	38637.56
537.91	38778.00
538.08	38635.22
538.25	38632.88
538.42	38913.75
538.59	38850.55
538.75	38595.43
538.92	39098.65
539.09	38974.60
539.26	38909.07
539.43	38749.91
539.60	39239.08
539.77	39129.08
539.94	39365.47
540.11	38899.70
540.28	39028.43
540.44	39019.07
540.61	39110.35
540.78	38946.51
540.95	39206.31
541.12	39175.89
541.29	39845.28
541.46	39037.80
541.62	39606.55
541.79	39524.63
541.96	39267.17
542.13	39583.14
542.30	39899.11
542.47	39599.52
542.63	39997.41
542.80	39510.58
542.97	40362.54
543.14	40205.72
543.31	40463.18
543.48	40128.48
543.64	40161.25
543.81	40285.30
543.98	40086.36
544.15	40428.07
544.32	40130.83
544.48	40825.96
544.65	40156.57
544.82	40364.88
544.99	40414.03
545.16	40334.45
545.32	40589.57
545.49	40954.69
545.66	40730.00
545.83	40816.60
546.00	40914.90
546.16	40720.64
546.33	40563.82
546.50	40493.61
546.67	41055.34
546.83	40460.84
547.00	40921.93
547.17	41095.13
547.34	40720.64
547.50	41375.99
547.67	41223.86
547.84	40842.35
548.00	41179.39
548.17	41696.64
548.34	41528.13
548.51	41296.41
548.67	41783.24
548.84	41387.69
549.01	41504.72
549.18	41469.61
549.34	41670.90
549.51	41600.68
549.68	41167.68
549.84	41572.60
550.01	42033.68
550.18	41691.96
550.34	41778.56
550.51	41670.90
550.68	41635.79
550.84	41689.62
551.01	41385.35
551.18	41596.00
551.34	41947.08
551.51	41361.95
551.68	41935.38
551.84	42274.76
552.01	42117.94
552.18	42438.59
552.34	41586.64
552.51	42361.36
552.68	42054.75
552.84	41888.57
553.01	42223.26
553.18	41860.48
553.34	42190.50
553.51	41958.78
553.67	42204.54
553.84	42696.05
554.01	42869.25
554.17	42958.19
554.34	42920.74
554.51	42600.09
554.67	42892.66
554.84	42230.29
555.00	42314.55
555.17	42192.84
555.33	42920.74
555.50	42766.27
555.67	42333.27
555.83	42932.45
556.00	42752.23
556.16	43044.79
556.33	42979.26
556.50	42153.05
556.66	42993.30
556.83	42824.78
556.99	42899.68
557.16	42852.87
557.32	42876.27
557.49	43185.22
557.65	42745.20
557.82	42806.06
557.98	43051.81
558.15	42986.28
558.32	42789.67
558.48	43356.08
558.65	42944.15
558.81	43217.99
558.98	42724.14
559.14	42920.74
559.31	43199.27
559.47	42939.47
559.64	43625.25
559.80	43597.16
559.97	43225.01
560.13	42976.92
560.30	43370.13
560.46	43510.56
560.63	43103.31
560.79	43026.07
560.96	43323.32
561.12	43917.81
561.29	43473.11
561.45	43175.86
561.61	43447.36
561.78	43386.51
561.94	43452.05
562.11	43695.46
562.27	42946.49
562.44	43650.99
562.60	43145.44
562.77	43681.42
562.93	43461.41
563.10	43934.20
563.26	43234.38
563.42	43608.86
563.59	43412.26
563.75	43910.79
563.92	43849.94
564.08	43384.17
564.24	43737.59
564.41	43824.19
564.57	43386.51
564.74	43700.14
564.90	43868.66
565.07	44154.21
565.23	43531.62
565.39	43538.65
565.56	43318.64
565.72	43508.22
565.88	43550.35
566.05	43796.10
566.21	43749.29
566.38	43606.52
566.54	43515.24
566.70	44027.82
566.87	43999.73
567.03	43842.92
567.19	44397.62
567.36	44004.41
567.52	43517.58
567.68	43882.70
567.85	43697.80
568.01	44130.80
568.17	44186.97
568.34	44287.62
568.50	43519.92
568.66	44048.88
568.83	43824.19
568.99	43903.77
569.15	43896.75
569.32	43597.16
569.48	43950.58
569.64	44196.34
569.81	44353.15
569.97	43831.21
570.13	43927.17
570.30	43871.00
570.46	43697.80
570.62	43882.70
570.78	43536.30
570.95	44252.51
571.11	43938.88
571.27	44399.96
571.43	43882.70
571.60	44261.87
571.76	43604.18
571.92	44165.91
572.09	44041.86
572.25	44027.82
572.41	44205.70
572.57	44130.80
572.74	44399.96
572.90	44680.83
573.06	44304.00
573.22	43966.96
573.38	44083.99
573.55	43922.49
573.71	43718.87
573.87	43950.58
574.03	43906.11
574.20	44285.28
574.36	43936.54
574.52	44044.20
574.68	44128.46
574.84	44170.59
575.01	44123.78
575.17	44746.36
575.33	44095.69
575.49	44137.82
575.65	44371.88
575.82	44746.36
575.98	44023.14
576.14	44673.81
576.30	44172.93
576.46	43966.96
576.62	44072.29
576.79	44458.48
576.95	43957.60
577.11	43950.58
577.27	44772.11
577.43	44322.72
577.59	44105.06
577.75	44285.28
577.92	44392.94
578.08	44247.83
578.24	44046.54
578.40	43908.45
578.56	44151.87
578.72	44374.22
578.88	44811.90
579.04	44694.87
579.21	44168.25
579.37	44360.17
579.53	44699.55
579.69	44444.43
579.85	43887.39
580.01	44587.21
580.17	44294.64
580.33	44744.02
580.49	44397.62
580.65	44622.31
580.82	44334.43
580.98	44470.18
581.14	44252.51
581.30	44521.67
581.46	44404.64
581.62	44163.57
581.78	44357.83
581.94	44641.04
582.10	44666.78
582.26	44945.31
582.42	44060.58
582.58	44425.71
582.74	44566.14
582.90	44357.83
583.06	44856.37
583.22	44634.02
583.38	44512.31
583.54	44189.31
583.70	44318.04
583.86	44105.06
584.02	43985.69
584.18	44472.52
584.34	44224.42
584.50	44418.69
584.66	44940.63
584.82	44296.98
584.98	44809.56
585.14	44568.48
585.30	44306.34
585.46	44765.09
585.62	44559.12
585.78	44587.21
585.94	44306.34
586.10	44051.22
586.26	43927.17
586.42	44465.50
586.58	44706.57
586.74	44561.46
586.90	44444.43
587.06	44264.21
587.22	44622.31
587.38	44292.30
587.54	44907.86
587.70	44776.79
587.86	44849.35
588.02	44715.93
588.18	45017.86
588.34	44376.56
588.49	44374.22
588.65	44184.63
588.81	44182.29
588.97	44500.61
589.13	44254.85
589.29	44355.49
589.45	44641.04
589.61	44727.64
589.77	44776.79
589.93	44449.11
590.08	44713.59
590.24	44811.90
590.40	44947.65
590.56	44641.04
590.72	44603.59
590.88	44629.34
591.04	44790.83
591.20	44978.07
591.35	45127.87
591.51	45006.16
591.67	45088.08
591.83	44814.24
591.99	45029.57
592.15	44568.48
592.31	44584.86
592.46	44538.05
592.62	44673.81
592.78	44676.15
592.94	44608.27
593.10	44818.92
593.26	44865.73
593.41	44626.99
593.57	44776.79
593.73	44339.11
593.89	44563.80
594.05	44865.73
594.20	45132.55
594.36	45085.74
594.52	44774.45
594.68	44545.08
594.84	44526.35
594.99	45308.09
595.15	44849.35
595.31	44811.90
595.47	44975.73
595.62	45345.54
595.78	44470.18
595.94	44903.18
596.10	44837.64
596.25	45020.20
596.41	45132.55
596.57	44891.48
596.73	45015.52
596.88	44650.40
597.04	44985.10
597.20	44626.99
597.36	44912.54
597.51	45228.51
597.67	45078.72
597.83	44814.24
597.99	44746.36
598.14	44793.17
598.30	44673.81
598.46	44917.22
598.61	44648.06
598.77	44531.03
598.93	45092.76
599.09	45017.86
599.24	45139.57
599.40	45294.05
599.56	45111.49
599.71	44905.52
599.87	45357.24
600.03	45062.33
600.18	44828.28
600.34	44811.90
600.50	44783.81
600.65	44694.87
600.81	45497.67
600.97	45090.42
601.12	45514.06
601.28	45088.08
601.44	44800.19
601.59	44973.39
601.75	44538.05
601.91	44961.69
602.06	44830.62
602.22	45031.91
602.37	44748.70
602.53	45043.61
602.69	45078.72
602.84	44720.62
603.00	44914.88
603.16	45076.38
603.31	44545.08
603.47	44636.36
603.62	44641.04
603.78	44795.51
603.94	45024.89
604.09	45371.28
604.25	45174.68
604.40	44737.00
604.56	44603.59
604.71	45422.78
604.87	44566.14
605.03	44821.26
605.18	45151.27
605.34	44914.88
605.49	44580.18
605.65	44919.56
605.80	44690.19
605.96	44612.95
606.12	45034.25
606.27	45006.16
606.43	44964.03
606.58	44868.07
606.74	44615.29
606.89	44765.09
607.05	45097.44
607.20	44582.52
607.36	44931.26
607.51	45134.89
607.67	44889.13
607.82	44945.31
607.98	44488.90
608.13	44662.10
608.29	44769.77
608.44	44540.39
608.60	44186.97
608.75	44435.07
608.91	44334.43
609.06	44341.45
609.22	44767.43
609.37	44428.05
609.53	44027.82
609.68	44306.34
609.84	44428.05
609.99	45123.19
610.15	44474.86
610.30	44458.48
610.46	44254.85
610.61	44182.29
610.76	44594.23
610.92	44292.30
611.07	44425.71
611.23	44311.02
611.38	44203.36
611.54	43943.56
611.69	43913.13
611.84	44018.46
612.00	44231.44
612.15	44261.87
612.31	44559.12
612.46	44381.24
612.62	44423.37
612.77	44313.36
612.92	44437.41
613.08	44474.86
613.23	44156.55
613.39	43735.25
613.54	43688.44
613.69	43676.74
613.85	44093.35
614.00	44189.31
614.15	44390.60
614.31	44374.22
614.46	44081.65
614.62	44074.63
614.77	43894.41
614.92	44184.63
615.08	43442.68
615.23	44060.58
615.38	43859.30
615.54	43650.99
615.69	43503.54
615.84	43700.14
616.00	43915.47
616.15	43732.91
616.30	44076.97
616.46	43716.53
616.61	43452.05
616.76	43643.97
616.92	43587.80
617.07	43442.68
617.22	43356.08
617.37	43498.86
617.53	43409.92
617.68	43662.69
617.83	43594.82
617.99	43761.00
618.14	43344.38
618.29	43655.67
618.45	43203.95
618.60	43192.25
618.75	43367.79
618.90	43192.25
619.06	43536.30
619.21	43295.23
619.36	43777.38
619.51	42988.62
619.67	43459.07
619.82	43611.20
619.97	43494.18
620.12	42845.85
620.28	42988.62
620.43	43325.66
620.58	43393.53
620.73	42969.90
620.89	43065.86
621.04	43054.15
621.19	43374.81
621.34	42887.98
621.49	42916.06
621.65	42314.55
621.80	43393.53
621.95	43005.00
622.10	42637.54
622.25	42642.22
622.41	42777.97
622.56	42609.45
622.71	42703.07
622.86	42962.87
623.01	42740.52
623.16	43178.20
623.32	42930.11
623.47	42696.05
623.62	42948.83
623.77	42431.57
623.92	42382.42
624.07	42576.69
624.23	42588.39
624.38	42359.02
624.53	42759.25
624.68	42429.23
624.83	42518.17
624.98	42422.21
625.13	42302.84
625.29	42780.31
625.44	42438.59
625.59	42241.99
625.74	41984.53
625.89	41972.83
626.04	41890.91
626.19	42024.32
626.34	42078.15
626.49	42335.61
626.65	41865.16
626.80	42335.61
626.95	41404.08
627.10	42087.51
627.25	41895.59
627.40	41963.46
627.55	41563.23
627.70	41591.32
627.85	41633.45
628.00	41703.67
628.15	42064.11
628.30	41940.06
628.45	42211.56
628.60	41860.48
628.76	41989.21
628.91	41935.38
629.06	41797.29
629.21	41544.51
629.36	41413.44
629.51	41294.07
629.66	41476.63
629.81	41319.82
629.96	41434.50
630.11	41645.15
630.26	41703.67
630.41	41684.94
630.56	41443.87
630.71	41354.93
630.86	41111.51
631.01	41137.26
631.16	41684.94
631.31	40928.95
631.46	40797.88
631.61	41294.07
631.76	41380.67
631.91	41273.01
632.06	41350.24
632.21	41488.34
632.36	41127.89
632.51	41354.93
632.66	41165.34
632.81	41106.83
632.96	41034.27
633.10	41226.20
633.25	40741.71
633.40	40596.59
633.55	41333.86
633.70	40959.38
633.85	41069.38
634.00	40596.59
634.15	40779.15
634.30	40570.85
634.45	40807.24
634.60	40891.50
634.75	40971.08
634.90	40933.63
635.05	40603.61
635.19	40610.64
635.34	40877.46
635.49	40336.79
635.64	40236.15
635.79	40034.86
635.94	40222.11
636.09	40722.98
636.24	40449.14
636.39	40224.45
636.53	40154.23
636.68	40179.98
636.83	40425.73
636.98	40069.97
637.13	40261.90
637.28	40339.13
637.43	40488.93
637.57	40236.15
637.72	39924.86
637.87	40399.99
638.02	40245.51
638.17	40053.59
638.32	39854.64
638.46	39971.67
638.61	39828.90
638.76	39772.72
638.91	39889.75
639.06	39969.33
639.20	40313.39
639.35	40177.64
639.50	39971.67
639.65	39950.60
639.80	39976.35
639.94	39831.24
640.09	39728.25
640.24	39536.33
640.39	39667.40
640.54	39068.22
640.68	39445.05
640.83	39452.07
640.98	39674.42
641.13	39494.20
641.27	39789.11
641.42	39276.53
641.57	39784.43
641.72	39927.20
641.86	39597.18
642.01	39571.44
642.16	39498.88
642.31	39222.70
642.45	39388.88
642.60	39161.84
642.75	39519.95
642.90	39276.53
643.04	39075.24
643.19	38967.58
643.34	39239.08
643.48	38953.54
643.63	39651.02
643.78	39225.04
643.93	39030.77
644.07	38459.68
644.22	38939.49
644.37	38581.39
644.51	38581.39
644.66	39026.09
644.81	38808.42
644.95	38827.15
645.10	39054.18
645.25	38890.34
645.39	39475.48
645.54	38948.85
645.69	38916.09
645.83	38632.88
645.98	38586.07
646.13	38880.98
646.27	38756.93
646.42	38541.60
646.57	38855.23
646.71	38483.09
646.86	38223.29
647.00	38960.56
647.15	38719.48
647.30	38995.67
647.44	38979.28
647.59	38438.62
647.74	38391.81
647.88	38602.46
648.03	38321.59
648.17	38543.94
648.32	38555.64
648.47	38129.67
648.61	38440.96
648.76	38223.29
648.90	38506.49
649.05	38394.15
649.20	38611.82
649.34	38469.04
649.49	38043.07
649.63	38155.41
649.78	38045.41
649.92	38113.28
650.07	38410.53
650.21	37839.44
650.36	38384.79
650.51	38092.22
650.65	38014.98
650.80	38202.22
650.94	38281.80
651.09	37961.15
651.23	38139.03
651.38	37907.32
651.52	38007.96
651.67	37706.03
651.81	37895.61
651.96	37661.56
652.10	37418.14
652.25	37338.57
652.39	37626.45
652.54	38265.42
652.68	38007.96
652.83	37710.71
652.97	37844.12
653.12	38066.47
653.26	37574.96
653.41	37708.37
653.55	37123.24
653.70	37645.18
653.84	37640.50
653.99	38007.96
654.13	37872.21
654.27	37212.18
654.42	37380.70
654.56	37530.49
654.71	37312.82
654.85	37368.99
655.00	36924.29
655.14	37151.32
655.29	36795.56
655.43	37174.73
655.57	37120.90
655.72	37205.16
655.86	36458.52
656.01	36971.10
656.15	36699.60
656.30	36992.17
656.44	37137.28
656.58	36912.59
656.73	37104.51
656.87	36521.72
657.01	36643.43
657.16	36615.34
657.30	36472.57
657.45	36500.65
657.59	36224.47
657.73	36907.91
657.88	37104.51
658.02	37024.93
658.16	36481.93
658.31	36669.17
658.45	36605.98
658.60	36446.82
658.74	36657.47
658.88	36825.99
659.03	36318.09
659.17	36477.25
659.31	36280.64
659.46	36353.20
659.60	36332.14
659.74	35889.77
659.89	35927.22
660.03	35920.20
660.17	36088.72
660.32	36135.53
660.46	36404.69
660.60	36142.55
660.74	36058.29
660.89	36533.42
661.03	35349.11
661.17	35517.63
661.32	35358.47
661.46	35218.04
661.60	35477.84
661.74	35716.58
661.89	35969.35
662.03	36006.80
662.17	35262.51
662.31	35594.87
662.46	35690.83
662.60	35489.54
662.74	35267.19
662.88	35037.82
663.03	35288.26
663.17	35232.08
663.31	34888.03
663.45	35290.60
663.60	34998.03
663.74	35079.95
663.88	34976.97
664.02	34445.66
664.17	34969.94
664.31	34780.36
664.45	34501.84
664.59	35007.39
664.73	34785.04
664.88	34920.79
665.02	34136.71
665.16	34555.67
665.30	34478.43
665.44	34700.78
665.59	33802.02
665.73	34242.04
665.87	34024.37
666.01	33881.60
666.15	34415.24
666.29	34213.95
666.44	34703.12
666.58	34010.32
666.72	34099.26
666.86	34335.66
667.00	33956.49
667.14	34033.73
667.28	33926.07
667.43	33626.48
667.57	33397.10
667.71	33268.37
667.85	33483.70
667.99	33619.46
668.13	33301.14
668.27	33275.40
668.41	33553.92
668.56	32814.31
668.70	33376.04
668.84	33619.46
668.98	33151.35
669.12	33422.85
669.26	33322.21
669.40	33088.15
669.54	32706.65
669.68	33280.08
669.82	33010.92
669.96	32439.82
670.10	32474.93
670.25	32891.55
670.39	32694.94
670.53	32561.53
670.67	32505.36
670.81	32783.88
670.95	32339.18
671.09	32367.27
671.23	32327.48
671.37	32453.87
671.51	32240.88
671.65	32151.94
671.79	31824.26
671.93	31948.31
672.07	32652.81
672.21	32381.31
672.35	31700.22
672.49	31587.87
672.63	31864.05
672.77	31487.23
672.91	31552.76
673.05	31751.71
673.19	31321.05
673.33	31667.45
673.47	31208.70
673.61	31098.70
673.75	30923.16
673.89	30534.63
674.03	31094.02
674.17	30941.88
674.31	30904.43
674.45	30597.82
674.59	31005.08
674.73	31192.32
674.87	30897.41
675.01	30410.58
675.15	30916.14
675.29	30848.26
675.43	30644.63
675.56	30558.03
675.70	30635.27
675.84	30225.68
675.98	29139.67
676.12	29963.54
676.26	30024.39
676.40	29584.37
676.54	29935.45
676.68	29497.77
676.82	28957.11
676.96	29455.64
677.10	29249.67
677.23	29092.86
677.37	29041.37
677.51	29228.61
677.65	28952.43
677.79	28680.92
677.93	28776.89
678.07	28816.68
678.21	28713.69
678.34	28751.14
678.48	28596.67
678.62	28655.18
678.76	28386.02
678.90	28074.73
679.04	28133.24
679.18	28173.03
679.31	28128.56
679.45	28002.17
679.59	27438.10
679.73	27442.78
679.87	27793.86
680.00	27412.35
680.14	27627.68
680.28	27690.88
680.42	27414.69
680.56	27204.05
680.70	27274.26
680.83	27292.99
680.97	27051.91
681.11	26913.82
681.25	26630.62
681.39	26632.96
681.52	27016.80
681.66	26602.53
681.80	26831.90
681.94	26354.43
682.07	26508.91
682.21	26455.08
682.35	26637.64
682.49	26497.20
682.62	26279.54
682.76	25930.80
682.90	25671.00
683.04	25893.35
683.17	25968.24
683.31	25708.44
683.45	25593.76
683.59	25390.13
683.72	25179.48
683.86	25256.72
684.00	25331.62
684.13	25205.23
684.27	24943.09
684.41	25163.10
684.55	24957.13
684.68	24755.85
684.82	24627.12
684.96	24737.12
685.09	24517.11
685.23	24472.64
685.37	24814.36
685.50	24479.66
685.64	24219.86
685.78	24177.73
685.91	24105.18
686.05	24049.00
686.19	23793.89
686.32	23800.91
686.46	23571.54
686.60	23475.57
686.73	23721.33
686.87	23185.35
687.01	23325.78
687.14	23098.75
687.28	22974.70
687.42	22953.63
687.55	23077.68
687.69	22635.32
687.82	22991.08
687.96	22932.57
688.10	22602.55
688.23	22890.44
688.37	22281.90
688.50	22057.21
688.64	22539.36
688.78	22075.93
688.91	22157.85
689.05	22281.90
689.18	21851.24
689.32	21537.61
689.46	21965.93
689.59	21834.86
689.73	22171.89
689.86	21518.89
690.00	21359.73
690.13	21790.39
690.27	21546.97
690.41	21254.40
690.54	21036.74
690.68	21266.11
690.81	20875.24
690.95	21165.46
691.08	21010.99
691.22	20957.16
691.35	20748.85
691.49	20673.95
691.62	20577.99
691.76	20966.52
691.89	20657.57
692.03	20334.57
692.16	20217.55
692.30	20105.20
692.43	20168.40
692.57	19964.77
692.70	20116.90
692.84	19871.15
692.97	19871.15
693.11	19683.91
693.24	19585.60
693.38	19641.78
693.51	19412.40
693.65	19822.00
693.78	19473.26
693.92	19323.46
694.05	19253.25
694.19	19534.11
694.32	19082.39
694.45	19246.23
694.59	18981.74
694.72	18911.53
694.86	19063.66
694.99	18883.44
695.13	18523.00
695.26	18317.03
695.39	18478.53
695.53	18558.11
695.66	18412.99
695.80	18073.62
695.93	18148.51
696.07	18061.91
696.20	18066.60
696.33	17710.83
696.47	17965.95
696.60	17834.88
696.73	17919.14
696.87	17685.09
697.00	17535.29
697.14	17769.35
697.27	17586.79
697.40	17411.25
697.54	17387.84
697.67	17090.59
697.80	17090.59
697.94	16999.31
698.07	16954.84
698.21	17036.76
698.34	16992.29
698.47	16748.87
698.61	16613.12
698.74	16671.64
698.87	16751.21
699.01	16383.75
699.14	16336.94
699.27	16283.11
699.40	16107.57
699.54	16004.58
699.67	15747.12
699.80	15929.69
699.94	15983.52
700.07	15892.24
700.20	15847.77
700.34	15620.74
700.47	15826.70
700.60	15875.85
700.73	15859.47
700.87	15646.48
701.00	15332.85
701.13	15335.19
701.26	15279.02
701.40	15068.37
701.53	15173.69
701.66	15075.39
701.79	14937.30
701.93	14911.55
702.06	14684.52
702.19	14768.78
702.32	14738.35
702.46	14501.96
702.59	14815.59
702.72	14483.24
702.85	14558.13
702.99	14422.38
703.12	14520.68
703.25	14806.23
703.38	14370.89
703.51	14274.93
703.65	14193.01
703.78	13884.06
703.91	13827.88
704.04	13947.25
704.17	14050.24
704.31	13783.41
704.44	13518.93
704.57	13680.43
704.70	13493.19
704.83	13626.60
704.96	13596.17
705.10	13657.03
705.23	13692.13
>>>>>End Processed Spectral Data<<<<<
