SpectraSuite Data File
++++++++++++++++++++++++++++++++++++
Date: Fri Oct 25 11:34:07 EDT 2013
User: price-jones
Dark Spectrum Present: No
Reference Spectrum Present: No
Number of Sampled Component Spectra: 1
Spectrometers: USB2+H05261
Integration Time (usec): 100000 (USB2+H05261)
Spectra Averaged: 1 (USB2+H05261)
Boxcar Smoothing: 0 (USB2+H05261)
Correct for Electrical Dark: No (USB2+H05261)
Strobe/Lamp Enabled: No (USB2+H05261)
Correct for Detector Non-linearity: No (USB2+H05261)
Correct for Stray Light: No (USB2+H05261)
Number of Pixels in Processed Spectrum: 2048
>>>>>Begin Processed Spectral Data<<<<<
365.73	250.44
365.92	250.44
366.12	250.44
366.32	180.22
366.52	184.90
366.72	194.26
366.91	184.90
367.11	241.08
367.31	145.11
367.51	133.41
367.70	175.54
367.90	154.48
368.10	229.37
368.30	203.63
368.49	201.29
368.69	250.44
368.89	159.16
369.09	107.66
369.28	173.20
369.48	163.84
369.68	236.39
369.87	297.25
370.07	220.01
370.27	215.33
370.47	334.70
370.66	482.15
370.86	486.83
371.06	519.60
371.25	601.52
371.45	493.85
371.65	510.24
371.84	538.32
372.04	575.77
372.24	566.41
372.44	552.37
372.63	601.52
372.83	617.90
373.03	596.84
373.22	573.43
373.42	603.86
373.62	645.99
373.81	643.65
374.01	653.01
374.21	622.58
374.40	645.99
374.60	650.67
374.79	627.26
374.99	596.84
375.19	641.31
375.38	688.12
375.58	653.01
375.78	674.07
375.97	631.94
376.17	704.50
376.37	699.82
376.56	741.95
376.76	718.54
376.95	664.71
377.15	599.18
377.35	662.37
377.54	683.44
377.74	727.91
377.93	636.63
378.13	695.14
378.33	667.05
378.52	629.60
378.72	725.57
378.91	692.80
379.11	678.76
379.31	723.23
379.50	688.12
379.70	711.52
379.89	730.25
380.09	692.80
380.28	751.31
380.48	730.25
380.68	709.18
380.87	678.76
381.07	678.76
381.26	727.91
381.46	772.38
381.65	814.51
381.85	741.95
382.04	739.61
382.24	793.44
382.43	791.10
382.63	758.33
382.83	753.65
383.02	809.83
383.22	826.21
383.41	748.97
383.61	786.42
383.80	910.47
384.00	784.08
384.19	725.57
384.39	805.14
384.58	772.38
384.78	837.91
384.97	819.19
385.17	800.46
385.36	826.21
385.56	847.27
385.75	908.13
385.95	809.83
386.14	894.08
386.34	819.19
386.53	826.21
386.72	842.59
386.92	849.61
387.11	830.89
387.31	880.04
387.50	816.85
387.70	943.24
387.89	814.51
388.09	851.96
388.28	837.91
388.48	828.55
388.67	938.55
388.86	884.72
389.06	978.34
389.25	896.43
389.45	819.19
389.64	828.55
389.84	985.37
390.03	1053.24
390.22	929.19
390.42	968.98
390.61	950.26
390.81	983.02
391.00	924.51
391.19	985.37
391.39	931.53
391.58	1015.79
391.78	952.60
391.97	1015.79
392.16	978.34
392.36	1050.90
392.55	1011.11
392.75	1039.20
392.94	1057.92
393.13	1083.67
393.33	1011.11
393.52	1114.10
393.71	1139.84
393.91	1032.18
394.10	1069.62
394.29	1118.78
394.49	999.41
394.68	1179.63
394.88	1111.75
395.07	1116.44
395.26	1128.14
395.46	1165.59
395.65	1111.75
395.84	1203.04
396.04	1249.85
396.23	1146.86
396.42	1174.95
396.62	1167.93
396.81	1156.22
397.00	1200.69
397.19	1212.40
397.39	1210.06
397.58	1306.02
397.77	1210.06
397.97	1294.32
398.16	1200.69
398.35	1282.61
398.55	1289.64
398.74	1252.19
398.93	1242.82
399.12	1338.79
399.32	1303.68
399.51	1214.74
399.70	1334.11
399.90	1303.68
400.09	1334.11
400.28	1350.49
400.47	1371.55
400.67	1336.45
400.86	1348.15
401.05	1331.76
401.24	1455.81
401.44	1479.22
401.63	1371.55
401.82	1401.98
402.01	1425.39
402.21	1317.72
402.40	1476.88
402.59	1502.62
402.78	1444.11
402.97	1528.37
403.17	1474.54
403.36	1465.18
403.55	1575.18
403.74	1626.67
403.93	1554.12
404.13	1540.07
404.32	1586.88
404.51	1514.33
404.70	1607.95
404.89	1621.99
405.09	1659.44
405.28	1591.56
405.47	1605.61
405.66	1680.50
405.85	1645.40
406.05	1614.97
406.24	1678.16
406.43	1741.36
406.62	1778.81
406.81	1802.21
407.00	1778.81
407.20	1696.89
407.39	1788.17
407.58	1762.42
407.77	1746.04
407.96	1832.64
408.15	1888.81
408.34	1823.28
408.54	1900.52
408.73	1909.88
408.92	1851.36
409.11	1919.24
409.30	1937.96
409.49	1952.01
409.68	2010.52
409.87	1996.48
410.07	2059.67
410.26	1966.05
410.45	1987.11
410.64	1947.33
410.83	2120.53
411.02	2085.42
411.21	2064.35
411.40	2066.69
411.59	2209.47
411.78	2012.86
411.98	2129.89
412.17	2176.70
412.36	2253.94
412.55	2272.66
412.74	2319.47
412.93	2370.96
413.12	2216.49
413.31	2401.39
413.50	2345.22
413.69	2324.15
413.88	2417.77
414.07	2438.84
414.26	2471.61
414.45	2345.22
414.64	2466.92
414.83	2485.65
415.02	2502.03
415.22	2647.15
415.41	2502.03
415.60	2612.04
415.79	2661.19
415.98	2581.61
416.17	2787.58
416.36	2605.02
416.55	2855.45
416.74	2752.47
416.93	2729.06
417.12	2768.85
417.31	2787.58
417.50	2841.41
417.69	2881.20
417.88	2869.50
418.07	2876.52
418.26	2892.90
418.45	2932.69
418.64	3014.61
418.83	2953.76
419.02	3080.14
419.21	3047.38
419.39	2958.44
419.58	2925.67
419.77	3026.31
419.96	3145.68
420.15	3066.10
420.34	2946.73
420.53	3265.05
420.72	3293.13
420.91	3262.71
421.10	3199.51
421.29	3220.58
421.48	3185.47
421.67	3265.05
421.86	3143.34
422.05	3262.71
422.24	3194.83
422.43	3229.94
422.61	3283.77
422.80	3325.90
422.99	3356.33
423.18	3351.65
423.37	3391.44
423.56	3255.69
423.75	3337.60
423.94	3281.43
424.13	3152.70
424.32	3269.73
424.50	3314.20
424.69	3314.20
424.88	3552.93
425.07	3363.35
425.26	3461.65
425.45	3391.44
425.64	3225.26
425.83	3407.82
426.01	3463.99
426.20	3485.06
426.39	3335.26
426.58	3426.54
426.77	3449.95
426.96	3496.76
427.15	3440.59
427.33	3508.46
427.52	3524.85
427.71	3576.34
427.90	3513.14
428.09	3602.08
428.28	3588.04
428.46	3578.68
428.65	3571.66
428.84	3906.35
429.03	3686.34
429.22	3562.30
429.40	3623.15
429.59	3751.88
429.78	3499.10
429.97	3590.38
430.16	3712.09
430.34	3733.15
430.53	3679.32
430.72	4016.36
430.91	3742.52
431.10	3829.12
431.28	3908.69
431.47	3758.90
431.66	4039.76
431.85	3913.38
432.03	3866.56
432.22	4004.66
432.41	3861.88
432.60	4011.68
432.79	3971.89
432.97	3969.55
433.16	4067.85
433.35	3964.87
433.54	4002.32
433.72	4002.32
433.91	4098.28
434.10	4159.13
434.28	4021.04
434.47	4147.43
434.66	4217.65
434.85	4072.53
435.03	4241.05
435.22	4285.52
435.41	4344.03
435.59	4273.82
435.78	4285.52
435.97	4306.59
436.16	4362.76
436.34	4248.07
436.53	4236.37
436.72	4432.97
436.90	4311.27
437.09	4477.44
437.28	4294.88
437.46	4517.23
437.65	4585.11
437.84	4725.54
438.02	4552.34
438.21	4519.57
438.40	4355.74
438.58	4552.34
438.77	4676.39
438.96	4758.31
439.14	4716.18
439.33	4730.22
439.52	4842.57
439.70	4793.42
439.89	4854.27
440.08	4957.25
440.26	5027.47
440.45	4943.21
440.63	4968.96
440.82	5135.14
441.01	5142.16
441.19	5109.39
441.38	5165.56
441.57	5043.85
441.75	5146.84
441.94	5313.02
442.12	5378.55
442.31	5411.32
442.50	5291.95
442.68	5350.46
442.87	5390.25
443.05	5430.04
443.24	5343.44
443.43	5231.10
443.61	5406.64
443.80	5579.84
443.98	5500.26
444.17	5228.76
444.35	5430.04
444.54	5528.35
444.73	5507.28
444.91	5502.60
445.10	5406.64
445.28	5437.06
445.47	5542.39
445.65	5659.42
445.84	5647.71
446.02	5526.00
446.21	5701.54
446.39	5551.75
446.58	5746.02
446.77	5657.07
446.95	5535.37
447.14	5558.77
447.32	5624.31
447.51	5549.41
447.69	5600.90
447.88	5792.83
448.06	5643.03
448.25	5554.09
448.43	5710.91
448.62	5664.10
448.80	5699.20
448.99	5846.66
449.17	5806.87
449.36	5694.52
449.54	5790.49
449.73	5888.79
449.91	5907.51
450.10	5909.85
450.28	5970.71
450.46	6050.28
450.65	5961.34
450.83	5933.26
451.02	5851.34
451.20	6230.51
451.39	6078.37
451.57	5982.41
451.76	6267.95
451.94	6115.82
452.13	6193.06
452.31	5984.75
452.49	6092.41
452.68	6160.29
452.86	6188.38
453.05	6232.85
453.23	6263.27
453.42	6270.30
453.60	6132.20
453.78	6352.21
453.97	6104.12
454.15	6289.02
454.34	6190.72
454.52	6420.09
454.70	6420.09
454.89	6464.56
455.07	6551.16
455.26	6455.20
455.44	6373.28
455.62	6539.46
455.81	6445.84
455.99	6640.10
456.17	6612.01
456.36	6600.31
456.54	6633.08
456.73	6780.53
456.91	6696.27
457.09	6956.07
457.28	6988.84
457.46	6722.02
457.64	6864.79
457.83	6817.98
458.01	6944.37
458.19	7089.48
458.38	7096.50
458.56	7082.46
458.74	7059.06
458.93	7211.19
459.11	7164.38
459.29	7042.67
459.48	7052.03
459.66	7199.49
459.84	7136.29
460.03	7199.49
460.21	7501.42
460.39	7283.75
460.57	7180.76
460.76	7279.07
460.94	7260.34
461.12	7428.86
461.31	7412.48
461.49	7218.21
461.67	7246.30
461.85	7480.35
462.04	7438.22
462.22	7992.93
462.40	7573.97
462.59	7555.25
462.77	7475.67
462.95	7772.92
463.13	7522.48
463.32	7541.21
463.50	7709.72
463.68	7702.70
463.86	7833.77
464.05	7744.83
464.23	7779.94
464.41	7756.54
464.59	7702.70
464.78	8004.63
464.96	7777.60
465.14	7737.81
465.32	7845.48
465.50	8004.63
465.69	7992.93
465.87	7819.73
466.05	7974.21
466.23	7836.11
466.41	7934.42
466.60	8028.04
466.78	7892.29
466.96	7929.74
467.14	8042.08
467.32	8161.45
467.51	8280.82
467.69	8023.36
467.87	7983.57
468.05	8229.32
468.23	8175.49
468.41	8023.36
468.60	8219.96
468.78	8362.73
468.96	8226.98
469.14	8442.31
469.32	8428.27
469.50	8166.13
469.69	8435.29
469.87	8493.80
470.05	8650.62
470.23	8683.39
470.41	8704.45
470.59	8617.85
470.77	8500.83
470.95	8786.37
471.14	8875.31
471.32	8624.87
471.50	8671.68
471.68	8823.82
471.86	8692.75
472.04	8765.31
472.22	9149.15
472.40	8997.02
472.58	9128.09
472.77	9102.34
472.95	9245.12
473.13	9692.16
473.31	9289.59
473.49	9158.52
473.67	9172.56
473.85	9341.08
474.03	9558.75
474.21	9525.98
474.39	9687.48
474.57	9699.18
474.75	9589.17
474.93	9767.06
475.12	9832.59
475.30	9703.86
475.48	9767.06
475.66	9937.91
475.84	9753.01
476.02	9729.61
476.20	10036.22
476.38	10068.98
476.56	10492.62
476.74	10431.77
476.92	10242.18
477.10	10038.56
477.28	10457.51
477.46	10406.02
477.64	10684.55
477.82	10806.25
478.00	10876.47
478.18	10806.25
478.36	10890.51
478.54	11077.76
478.72	11122.23
478.90	11227.55
479.08	11344.58
479.26	11363.30
479.44	11515.44
479.62	11510.75
479.80	11646.51
479.98	11587.99
480.16	12079.50
480.34	11864.18
480.52	12283.13
480.70	12044.40
480.88	11559.91
481.06	12116.95
481.24	12161.42
481.41	12140.36
481.59	12638.89
481.77	12351.01
481.95	12592.08
482.13	12631.87
482.31	12664.64
482.49	12910.40
482.67	12999.34
482.85	13202.96
483.03	13219.35
483.21	13451.06
483.39	13500.21
483.57	13558.72
483.74	13441.70
483.92	13862.99
484.10	13673.41
484.28	13877.04
484.46	13982.36
484.64	14354.51
484.82	14265.57
485.00	14202.37
485.18	14600.26
485.35	14853.04
485.53	14637.71
485.71	14792.19
485.89	14923.26
486.07	15059.01
486.25	15201.78
486.43	15103.48
486.61	15365.62
486.78	15616.05
486.96	15536.48
487.14	15506.05
487.32	15824.36
487.50	16135.65
487.68	16210.55
487.85	16376.73
488.03	16250.34
488.21	16739.51
488.39	16828.45
488.57	16645.89
488.75	17099.95
488.92	16837.81
489.10	17207.62
489.28	17055.48
489.46	17191.23
489.64	17453.37
489.81	17825.52
489.99	17816.16
490.17	17699.13
490.35	17968.29
490.53	18038.51
490.70	18211.71
490.88	17991.70
491.06	18359.16
491.24	18328.74
491.41	18630.66
491.59	18878.76
491.77	18845.99
491.95	19166.65
492.13	18937.27
492.30	18885.78
492.48	19138.56
492.66	19517.73
492.84	19262.61
493.01	19576.24
493.19	19728.38
493.37	19744.76
493.54	19922.64
493.72	19948.39
493.90	19779.87
494.08	20233.93
494.25	20379.04
494.43	20379.04
494.61	21069.50
494.79	20842.47
494.96	20521.82
495.14	21022.69
495.32	21324.62
495.49	21177.17
495.67	21252.06
495.85	21659.32
496.02	21668.68
496.20	21593.78
496.38	21834.86
496.55	21699.11
496.73	22492.55
496.91	22031.46
497.09	22480.85
497.26	22319.35
497.44	22370.84
497.62	22506.59
497.79	22895.12
497.97	22815.54
498.14	23321.10
498.32	22991.08
498.50	22972.36
498.67	23641.75
498.85	23080.02
499.03	23445.15
499.20	23662.82
499.38	23646.43
499.56	23482.59
499.73	24109.86
499.91	24114.54
500.08	24046.66
500.26	24065.39
500.44	24107.52
500.61	24283.06
500.79	24201.14
500.97	24238.59
501.14	24711.38
501.32	24783.93
501.49	24704.35
501.67	24751.17
501.84	24987.56
502.02	24634.14
502.20	24893.94
502.37	24840.11
502.55	25336.30
502.72	25242.68
502.90	25465.03
503.07	25312.89
503.25	25481.41
503.43	25064.80
503.60	25539.93
503.78	25778.66
503.95	25626.53
504.13	25757.60
504.30	26448.05
504.48	26199.96
504.65	26429.33
504.83	26862.33
505.01	26691.47
505.18	26251.45
505.36	26574.44
505.53	26450.39
505.71	26752.32
505.88	26820.20
506.06	26984.04
506.23	27063.61
506.41	26965.31
506.58	26871.69
506.76	26902.12
506.93	27143.19
507.11	27222.77
507.28	27594.92
507.46	27424.06
507.63	27536.40
507.81	27957.70
507.98	27335.12
508.16	27784.50
508.33	27950.68
508.50	27679.18
508.68	27695.56
508.85	28362.61
509.03	28107.49
509.20	28039.62
509.38	28503.04
509.55	28680.92
509.73	28617.73
509.90	28893.91
510.08	28638.80
510.25	28903.28
510.42	28790.93
510.60	29153.71
510.77	28683.27
510.95	29905.02
511.12	29326.91
511.30	29242.65
511.47	29172.44
511.64	29633.52
511.82	29661.61
511.99	29874.60
512.17	29575.01
512.34	29811.40
512.51	29797.36
512.69	30190.57
512.86	29947.15
513.04	30492.50
513.21	30354.41
513.38	30071.20
513.56	30590.80
513.73	30302.92
513.90	30164.82
514.08	30333.34
514.25	30885.71
514.43	30852.94
514.60	31246.15
514.77	31117.42
514.95	31147.85
515.12	30618.89
515.29	31101.04
515.47	31356.16
515.64	31648.72
515.81	31297.64
515.99	31358.50
516.16	31426.37
516.33	31789.16
516.51	31845.33
516.68	31599.57
516.85	31601.91
517.03	31826.60
517.20	31992.78
517.37	32006.83
517.54	32109.81
517.72	32395.35
517.89	32367.27
518.06	31929.59
518.24	32287.69
518.41	32357.91
518.58	32123.85
518.75	32294.71
518.93	32821.33
519.10	32371.95
519.27	32734.73
519.45	32561.53
519.62	32730.05
519.79	32905.59
519.96	32727.71
520.14	32783.88
520.31	32624.73
520.48	33170.07
520.65	33390.08
520.83	33787.97
521.00	33694.35
521.17	33507.11
521.34	33560.94
521.52	33830.10
521.69	33881.60
521.86	33930.75
522.03	33647.54
522.20	34361.40
522.38	34682.06
522.55	34366.09
522.72	34139.05
522.89	34199.91
523.07	34265.44
523.24	34813.13
523.41	34471.41
523.58	34738.23
523.75	35035.48
523.92	34642.27
524.10	35140.80
524.27	34747.59
524.44	35332.73
524.61	35234.42
524.78	35082.29
524.96	35175.91
525.13	35274.21
525.30	35445.07
525.47	35372.52
525.64	35510.61
525.81	35590.19
525.98	35335.07
526.16	35519.97
526.33	35344.43
526.50	35730.62
526.67	35683.81
526.84	35393.58
527.01	35765.73
527.18	35402.94
527.36	36184.68
527.53	35735.30
527.70	36311.07
527.87	36280.64
528.04	35992.76
528.21	36392.99
528.38	36404.69
528.55	36500.65
528.72	36165.96
528.89	36414.05
529.07	36243.20
529.24	36400.01
529.41	36535.76
529.58	36601.30
529.75	36580.23
529.92	36715.98
530.09	36996.85
530.26	37008.55
530.43	36715.98
530.60	36830.67
530.77	36875.14
530.94	37099.83
531.11	37249.63
531.28	36877.48
531.46	37275.37
531.63	36842.37
531.80	37441.55
531.97	37193.45
532.14	37366.65
532.31	37509.43
532.48	37371.33
532.65	37420.48
532.82	37275.37
532.99	37593.68
533.16	37205.16
533.33	37755.18
533.50	37776.25
533.67	37921.36
533.84	37869.87
534.01	38232.65
534.18	38284.14
534.35	38522.88
534.52	38251.38
534.69	38773.31
534.86	38265.42
535.03	38192.86
535.20	38567.35
535.37	38611.82
535.54	38377.76
535.71	38710.12
535.88	38658.63
536.05	38717.14
536.22	38675.01
536.38	38763.95
536.55	38946.51
536.72	38735.87
536.89	38658.63
537.06	38693.74
537.23	39367.81
537.40	39208.65
537.57	38799.06
537.74	38717.14
537.91	39124.40
538.08	39122.05
538.25	39262.49
538.42	39086.95
538.59	39721.23
538.75	39070.56
538.92	39889.75
539.09	39908.47
539.26	39313.98
539.43	39957.63
539.60	39739.96
539.77	39349.09
539.94	39622.93
540.11	39812.51
540.28	39730.59
540.44	40158.91
540.61	39526.97
540.78	40325.09
540.95	39828.90
541.12	40081.67
541.29	40105.08
541.46	40395.31
541.62	39957.63
541.79	40446.80
541.96	40348.50
542.13	40318.07
542.30	40339.13
542.47	40161.25
542.63	40388.28
542.80	40746.39
542.97	40994.48
543.14	40903.20
543.31	40528.72
543.48	40849.37
543.64	41177.04
543.81	40945.33
543.98	40886.82
544.15	40856.39
544.32	41181.73
544.48	41645.15
544.65	41429.82
544.82	41357.27
544.99	41228.54
545.16	41240.24
545.32	41230.88
545.49	41577.28
545.66	41766.86
545.83	41918.99
546.00	41698.98
546.16	41518.76
546.33	41282.37
546.50	41010.87
546.67	41656.85
546.83	41303.43
547.00	41413.44
547.17	41504.72
547.34	41743.45
547.50	42211.56
547.67	42019.64
547.84	41869.84
548.00	42192.84
548.17	42148.37
548.34	42134.32
548.51	42225.60
548.67	42246.67
548.84	42548.60
549.01	42651.58
549.18	42080.49
549.34	42611.79
549.51	42813.08
549.68	43026.07
549.84	42506.47
550.01	42923.08
550.18	42218.58
550.34	42359.02
550.51	42878.61
550.68	42885.64
550.84	42438.59
551.01	42993.30
551.18	42672.65
551.34	42885.64
551.51	43442.68
551.68	42883.30
551.84	42532.22
552.01	42726.48
552.18	42892.66
552.34	42951.17
552.51	43339.70
552.68	43199.27
552.84	43145.44
553.01	43271.82
553.18	42955.85
553.34	43126.71
553.51	42490.09
553.67	43061.18
553.84	43728.23
554.01	43725.89
554.17	43484.81
554.34	43484.81
554.51	43716.53
554.67	43728.23
554.84	44032.50
555.00	43386.51
555.17	43496.52
555.33	43496.52
555.50	43433.32
555.67	43508.22
555.83	43924.83
556.00	43735.25
556.16	44177.61
556.33	43789.08
556.50	43784.40
556.66	43660.35
556.83	43943.56
556.99	44598.91
557.16	44217.40
557.32	44081.65
557.49	44147.18
557.65	44252.51
557.82	44226.76
557.98	44100.37
558.15	44385.92
558.32	44336.77
558.48	43768.02
558.65	44282.94
558.81	44004.41
558.98	44126.12
559.14	44046.54
559.31	44140.16
559.47	43906.11
559.64	44189.31
559.80	44423.37
559.97	44327.41
560.13	44383.58
560.30	44605.93
560.46	44678.49
560.63	44402.30
560.79	44598.91
560.96	44999.14
561.12	44575.50
561.29	44849.35
561.45	44933.60
561.61	44790.83
561.78	44914.88
561.94	44381.24
562.11	44767.43
562.27	44924.24
562.44	44683.17
562.60	45177.02
562.77	44737.00
562.93	44744.02
563.10	44835.30
563.26	44825.94
563.42	44982.76
563.59	44849.35
563.75	44495.92
563.92	45024.89
564.08	45268.30
564.24	44758.06
564.41	45174.68
564.57	45081.06
564.74	44933.60
564.90	45167.66
565.07	44818.92
565.23	45148.93
565.39	44858.71
565.56	45762.15
565.72	45069.36
565.88	45198.09
566.05	45467.25
566.21	45221.49
566.38	45308.09
566.54	45537.46
566.70	45167.66
566.87	45076.38
567.03	45170.00
567.19	45256.60
567.36	45694.28
567.52	45123.19
567.68	45518.74
567.85	45368.94
568.01	45654.49
568.17	45081.06
568.34	45343.20
568.50	45593.64
568.66	45174.68
568.83	45535.12
568.99	45504.70
569.15	45502.35
569.32	45478.95
569.48	45593.64
569.64	45600.66
569.81	45446.18
569.97	45202.77
570.13	45757.47
570.30	45411.07
570.46	45830.03
570.62	45972.80
570.78	45626.40
570.95	45148.93
571.11	45900.25
571.27	45776.20
571.43	45476.61
571.60	45827.69
571.76	45406.39
571.92	45675.55
572.09	45954.08
572.25	45478.95
572.41	45511.72
572.57	45731.73
572.74	45954.08
572.90	45886.20
573.06	45565.55
573.22	45911.95
573.38	46344.95
573.55	45921.31
573.71	46344.95
573.87	46021.95
574.03	46071.10
574.20	45872.16
574.36	45652.15
574.52	46237.28
574.68	45872.16
574.84	46213.88
575.01	46099.19
575.17	45876.84
575.33	46003.23
575.49	45900.25
575.65	46052.38
575.82	45715.34
575.98	46054.72
576.14	45993.87
576.30	46412.82
576.46	46078.13
576.62	46087.49
576.79	46080.47
576.95	45928.33
577.11	46143.66
577.27	45921.31
577.43	46227.92
577.59	46260.69
577.75	45982.16
577.92	45418.10
578.08	46092.17
578.24	46113.23
578.40	46373.03
578.56	46483.04
578.72	45937.69
578.88	46356.65
579.04	46230.26
579.21	46319.20
579.37	45965.78
579.53	46450.27
579.69	46183.45
579.85	45954.08
580.01	46143.66
580.17	46204.52
580.33	46316.86
580.49	46190.47
580.65	46515.81
580.82	46167.07
580.98	46124.94
581.14	46127.28
581.30	46361.33
581.46	46270.05
581.62	46246.65
581.78	46227.92
581.94	46581.34
582.10	46328.56
582.26	46660.92
582.42	45942.38
582.58	46230.26
582.74	46403.46
582.90	46106.21
583.06	46609.43
583.22	45642.79
583.38	46396.44
583.54	46391.76
583.70	46471.34
583.86	46375.37
584.02	46522.83
584.18	46497.08
584.34	46450.27
584.50	46686.67
584.66	46642.20
584.82	46279.41
584.98	46485.38
585.14	46656.24
585.30	46387.08
585.46	46204.52
585.62	46366.01
585.78	46373.03
585.94	45928.33
586.10	46181.11
586.26	46211.54
586.42	46401.12
586.58	46309.84
586.74	46433.89
586.90	46532.19
587.06	46045.36
587.22	46494.74
587.38	45961.10
587.54	46796.67
587.70	46684.33
587.86	46604.75
588.02	46239.62
588.18	46639.86
588.34	46354.31
588.49	46384.74
588.65	46330.90
588.81	46248.99
588.97	46726.46
589.13	46335.59
589.29	46464.32
589.45	46724.11
589.61	47033.07
589.77	46766.24
589.93	46588.36
590.08	46703.05
590.24	47026.04
590.40	47327.97
590.56	46880.93
590.72	46696.03
590.88	46820.08
591.04	46813.05
591.20	46742.84
591.35	46686.67
591.51	47512.88
591.67	47292.86
591.83	47033.07
591.99	46904.34
592.15	46740.50
592.31	46852.84
592.46	46583.68
592.62	46649.22
592.78	47133.71
592.94	47360.74
593.10	47014.34
593.26	47007.32
593.41	47047.11
593.57	47370.10
593.73	46670.28
593.89	47276.48
594.05	47533.94
594.20	46983.91
594.36	47807.78
594.52	47580.75
594.68	47327.97
594.84	46955.83
594.99	47105.62
595.15	46974.55
595.31	47103.28
595.47	47049.45
595.62	46885.61
595.78	47040.09
595.94	47107.96
596.10	47480.11
596.25	47173.50
596.41	47264.78
596.57	46784.97
596.73	47505.85
596.88	47180.52
597.04	47407.55
597.20	47477.77
597.36	47112.64
597.51	47292.86
597.67	47110.30
597.83	47285.84
597.99	47253.08
598.14	47309.25
598.30	46878.59
598.46	47285.84
598.61	47526.92
598.77	47356.06
598.93	47381.80
599.09	47133.71
599.24	47906.08
599.40	47131.37
599.56	47512.88
599.71	47437.98
599.87	48133.12
600.03	47763.31
600.18	47337.33
600.34	47236.69
600.50	47334.99
600.65	47281.16
600.81	47423.93
600.97	47309.25
601.12	47477.77
601.28	47657.99
601.44	47070.51
601.59	47660.33
601.75	47276.48
601.91	47208.61
602.06	47388.83
602.22	47278.82
602.37	47126.69
602.53	47009.66
602.69	47555.00
602.84	46988.60
603.00	47292.86
603.16	47421.59
603.31	47318.61
603.47	46899.65
603.62	47358.40
603.78	47737.57
603.94	47515.22
604.09	47185.20
604.25	47269.46
604.40	47042.43
604.56	47351.38
604.71	47496.49
604.87	47356.06
605.03	47246.05
605.18	47604.16
605.34	47412.23
605.49	47246.05
605.65	47407.55
605.80	46937.10
605.96	47262.44
606.12	47061.15
606.27	47351.38
606.43	46988.60
606.58	47075.19
606.74	47349.04
606.89	47419.25
607.05	47632.24
607.20	47079.88
607.36	47009.66
607.51	46740.50
607.67	47136.05
607.82	47173.50
607.98	47070.51
608.13	46944.12
608.29	47615.86
608.44	47222.65
608.60	47269.46
608.75	47210.95
608.91	47061.15
609.06	46733.48
609.22	47412.23
609.37	46710.07
609.53	47398.19
609.68	47208.61
609.84	46791.99
609.99	46972.21
610.15	47344.36
610.30	46899.65
610.46	46885.61
610.61	47154.77
610.76	46707.73
610.92	46735.82
611.07	46740.50
611.23	46508.79
611.38	46871.57
611.54	46742.84
611.69	47044.77
611.84	46710.07
612.00	46862.21
612.15	46925.40
612.31	46918.38
612.46	46525.17
612.62	46738.16
612.77	46469.00
612.92	46665.60
613.08	46806.03
613.23	46794.33
613.39	47072.85
613.54	46983.91
613.69	46607.09
613.85	46597.73
614.00	46700.71
614.15	46469.00
614.31	46518.15
614.46	46721.77
614.62	46550.91
614.77	46920.72
614.92	46579.00
615.08	46602.41
615.23	46548.57
615.38	46555.60
615.54	46394.10
615.69	46150.68
615.84	46490.06
616.00	46799.01
616.15	46681.98
616.30	46532.19
616.46	46209.20
616.61	46204.52
616.76	46742.84
616.92	46120.26
617.07	46712.41
617.22	46176.43
617.37	46288.77
617.53	46614.11
617.68	46459.63
617.83	46377.72
617.99	46487.72
618.14	46199.83
618.29	46113.23
618.45	46005.57
618.60	46216.22
618.75	45823.01
618.90	46040.68
619.06	46433.89
619.21	46064.08
619.36	46822.42
619.51	46153.02
619.67	45776.20
619.82	46192.81
619.97	46450.27
620.12	45963.44
620.28	45687.26
620.43	46349.63
620.58	45797.26
620.73	45832.37
620.89	46120.26
621.04	46028.98
621.19	45893.22
621.34	45771.52
621.49	45448.52
621.65	45731.73
621.80	45759.81
621.95	45673.21
622.10	45993.87
622.25	46028.98
622.41	45635.77
622.56	46036.00
622.71	45352.56
622.86	46068.76
623.01	45916.63
623.16	45635.77
623.32	45551.51
623.47	45771.52
623.62	45687.26
623.77	45645.13
623.92	45329.16
624.07	45528.10
624.23	45563.21
624.38	45371.28
624.53	45476.61
624.68	45132.55
624.83	45418.10
624.98	45361.92
625.13	44858.71
625.29	45048.29
625.44	45460.23
625.59	45249.58
625.74	44973.39
625.89	44615.29
626.04	45315.11
626.19	45230.85
626.34	45059.99
626.49	44982.76
626.65	44533.37
626.80	44882.11
626.95	44570.82
627.10	44903.18
627.25	45184.04
627.40	45022.54
627.55	45174.68
627.70	44900.84
627.85	44905.52
628.00	45118.51
628.15	44861.05
628.30	44245.49
628.45	44140.16
628.60	44392.94
628.76	44128.46
628.91	44851.69
629.06	44058.24
629.21	44334.43
629.36	44664.44
629.51	44643.38
629.66	44781.47
629.81	44318.04
629.96	44809.56
630.11	44741.68
630.26	44683.17
630.41	44179.95
630.56	44266.55
630.71	44584.86
630.86	44327.41
631.01	44322.72
631.16	44194.00
631.31	44194.00
631.46	43901.43
631.61	44156.55
631.76	44341.45
631.91	44360.17
632.06	44589.55
632.21	44519.33
632.36	44634.02
632.51	44011.43
632.66	44210.38
632.81	43913.13
632.96	44182.29
633.10	43957.60
633.25	43938.88
633.40	43978.67
633.55	44392.94
633.70	43707.16
633.85	43714.19
634.00	43592.48
634.15	43608.86
634.30	43828.87
634.45	43498.86
634.60	43973.98
634.75	44453.79
634.90	43826.53
635.05	43868.66
635.19	43856.96
635.34	43531.62
635.49	43555.03
635.64	43601.84
635.79	44184.63
635.94	43665.03
636.09	43782.06
636.24	43494.18
636.39	43826.53
636.53	43751.63
636.68	43344.38
636.83	43690.78
636.98	43274.16
637.13	42759.25
637.28	43278.85
637.43	43115.01
637.57	43320.98
637.72	42981.60
637.87	43075.22
638.02	43690.78
638.17	42777.97
638.32	43157.14
638.46	42745.20
638.61	42747.54
638.76	43154.80
638.91	43255.44
639.06	43161.82
639.20	42794.36
639.35	42824.78
639.50	42438.59
639.65	43187.56
639.80	43012.02
639.94	43269.48
640.09	42995.64
640.24	42775.63
640.39	42494.77
640.54	42279.44
640.68	42506.47
640.83	42763.93
640.98	42787.33
641.13	42134.32
641.27	42827.12
641.42	42469.02
641.57	42532.22
641.72	42300.50
641.86	43161.82
642.01	42082.83
642.16	41937.72
642.31	41455.57
642.45	42656.26
642.60	42438.59
642.75	42206.88
642.90	42520.51
643.04	42291.14
643.19	42068.79
643.34	41926.02
643.48	41937.72
643.63	41841.76
643.78	41858.14
643.93	42071.13
644.07	42483.06
644.22	42600.09
644.37	42295.82
644.51	42351.99
644.66	42174.11
644.81	42230.29
644.95	42094.53
645.10	41823.03
645.25	41844.10
645.39	41649.83
645.54	41888.57
645.69	41670.90
645.83	41787.92
645.98	41497.70
646.13	42085.17
646.27	41811.33
646.42	41663.88
646.57	41673.24
646.71	42021.98
646.86	42307.52
647.00	41448.55
647.15	41813.67
647.30	41656.85
647.44	42106.24
647.59	41977.51
647.74	41778.56
647.88	41635.79
648.03	41911.97
648.17	42171.77
648.32	41785.58
648.47	41830.05
648.61	41413.44
648.76	41530.47
648.90	40921.93
649.05	41340.88
649.20	41509.40
649.34	41017.89
649.49	41289.39
649.63	41329.18
649.78	41493.02
649.92	41708.35
650.07	41867.50
650.21	41270.67
650.36	41530.47
650.51	41095.13
650.65	41563.23
650.80	41605.36
650.94	41319.82
651.09	40589.57
651.23	40779.15
651.38	40861.07
651.52	40800.22
651.67	40933.63
651.81	40531.06
651.96	41071.72
652.10	40638.72
652.25	40788.52
652.39	40718.30
652.54	40760.43
652.68	40680.85
652.83	40760.43
652.97	40816.60
653.12	40699.58
653.26	40437.44
653.41	40634.04
653.55	40875.12
653.70	40662.13
653.84	40577.87
653.99	40720.64
654.13	40746.39
654.27	40107.42
654.42	40875.12
654.56	40030.18
654.71	40758.09
654.85	40664.47
655.00	40828.30
655.14	40797.88
655.29	40638.72
655.43	40399.99
655.57	39999.76
655.72	40289.98
655.86	40304.02
656.01	40453.82
656.15	40257.21
656.30	39995.07
656.44	40634.04
656.58	40182.32
656.73	40189.34
656.87	39636.97
657.01	40311.05
657.16	40011.46
657.30	39772.72
657.45	40081.67
657.59	39849.96
657.73	39653.36
657.88	39660.38
658.02	39966.99
658.16	40292.32
658.31	39966.99
658.45	40102.74
658.60	39651.02
658.74	40034.86
658.88	39548.03
659.03	39723.57
659.17	39854.64
659.31	39349.09
659.46	39618.25
659.60	39658.04
659.74	39070.56
659.89	39019.07
660.03	39021.41
660.17	39145.46
660.32	39445.05
660.46	39138.44
660.60	38773.31
660.74	39367.81
660.89	39363.13
661.03	38892.68
661.17	38345.00
661.32	38520.54
661.46	38735.87
661.60	38593.09
661.74	38724.16
661.89	38787.36
662.03	38656.29
662.17	38462.02
662.31	38298.19
662.46	38614.16
662.60	38426.92
662.74	38183.50
662.88	38026.68
663.03	38272.44
663.17	38017.32
663.31	37750.50
663.45	38101.58
663.60	38389.47
663.74	38216.27
663.88	37818.38
664.02	37881.57
664.17	38314.57
664.31	37656.88
664.45	37722.41
664.59	37926.04
664.73	37656.88
664.88	37340.91
665.02	37284.73
665.16	36971.10
665.30	37556.24
665.44	37207.50
665.59	37008.55
665.73	37317.50
665.87	37029.62
666.01	37158.34
666.15	36891.52
666.29	37046.00
666.44	37263.67
666.58	37301.12
666.72	36879.82
666.86	36884.50
667.00	36793.22
667.14	36802.58
667.28	36739.39
667.43	36875.14
667.57	36680.88
667.71	36411.71
667.85	36643.43
667.99	36456.18
668.13	36137.87
668.27	35601.89
668.41	36339.16
668.56	35936.59
668.70	35864.03
668.84	35463.80
668.98	35674.45
669.12	35791.47
669.26	35840.62
669.40	36051.27
669.54	36353.20
669.68	35861.69
669.82	35587.85
669.96	35110.38
670.10	34738.23
670.25	35360.81
670.39	35023.78
670.53	35147.82
670.67	35276.55
670.81	35473.16
670.95	35599.55
671.09	35402.94
671.23	34955.90
671.37	35072.93
671.51	34539.29
671.65	34768.66
671.79	34878.66
671.93	34937.18
672.07	34686.74
672.21	34527.58
672.35	34433.96
672.49	34466.73
672.63	34731.21
672.77	33804.36
672.91	34611.84
673.05	34080.54
673.19	34085.22
673.33	33675.63
673.47	33750.52
673.61	33874.57
673.75	33612.43
673.89	33191.14
674.03	33418.17
674.17	33455.62
674.31	33422.85
674.45	33146.67
674.59	33315.19
674.73	33055.39
674.87	32861.12
675.01	32847.08
675.15	32870.48
675.29	32374.29
675.43	32432.80
675.56	32861.12
675.70	32685.58
675.84	32177.68
675.98	31578.51
676.12	31901.50
676.26	32519.40
676.40	32322.80
676.54	32121.51
676.68	31859.37
676.82	31246.15
676.96	32144.92
677.10	31885.12
677.23	31463.82
677.37	31786.82
677.51	31718.94
677.65	31351.48
677.79	31559.78
677.93	31559.78
678.07	30911.46
678.21	31246.15
678.34	30728.89
678.48	30445.69
678.62	30609.53
678.76	30597.82
678.90	30541.65
679.04	30604.84
679.18	30771.02
679.31	30040.78
679.45	29869.92
679.59	29937.79
679.73	29851.19
679.87	29790.34
680.00	29930.77
680.14	29792.68
680.28	29542.24
680.42	29605.44
680.56	29319.89
680.70	28823.70
680.83	29003.92
680.97	29118.60
681.11	29069.45
681.25	28821.36
681.39	28400.06
681.52	28786.25
681.66	28247.93
681.80	28056.00
681.94	27882.80
682.07	27915.57
682.21	28077.07
682.35	28051.32
682.49	27803.22
682.62	28070.04
682.76	28116.86
682.90	27896.85
683.04	28191.75
683.17	27796.20
683.31	27255.54
683.45	27527.04
683.59	27222.77
683.72	26480.82
683.86	26852.97
684.00	26764.03
684.13	26862.33
684.27	26684.45
684.41	26551.04
684.55	26616.57
684.68	26635.30
684.82	26387.20
684.96	26143.78
685.09	26113.36
685.23	25984.63
685.37	26668.06
685.50	26286.56
685.64	25958.88
685.78	25930.80
685.91	25734.19
686.05	25277.79
686.19	25020.33
686.32	25296.51
686.46	24952.45
686.60	24816.70
686.73	24943.09
686.87	24985.22
687.01	25153.74
687.14	25205.23
687.28	24973.52
687.42	24877.55
687.55	24744.14
687.69	24554.56
687.82	24198.80
687.96	24425.83
688.10	24318.17
688.23	24414.13
688.37	24343.91
688.50	24428.17
688.64	24137.94
688.78	23812.61
688.91	23702.61
689.05	23819.63
689.18	23473.23
689.32	22946.61
689.46	23152.58
689.59	23473.23
689.73	23271.95
689.86	23482.59
690.00	23246.20
690.13	23028.53
690.27	22991.08
690.41	22808.52
690.54	22267.86
690.68	22321.69
690.81	22459.78
690.95	22387.22
691.08	22068.91
691.22	21846.56
691.35	21965.93
691.49	22087.64
691.62	21956.57
691.76	21706.13
691.89	21483.78
692.03	21256.75
692.16	21240.36
692.30	21383.13
692.43	21486.12
692.57	21270.79
692.70	21195.89
692.84	20905.66
692.97	20964.18
693.11	20718.42
693.24	20776.94
693.38	20645.87
693.51	20514.80
693.65	20369.68
693.78	20547.56
693.92	20177.76
694.05	20004.56
694.19	19988.18
694.32	20170.74
694.45	20383.73
694.59	20058.39
694.72	20044.35
694.86	19735.40
694.99	19616.03
695.13	19590.28
695.26	19257.93
695.39	19349.21
695.53	19381.98
695.66	18991.11
695.80	19009.83
695.93	19157.28
696.07	18974.72
696.20	18527.68
696.33	18642.37
696.47	18382.57
696.60	18431.72
696.73	18621.30
696.87	18700.88
697.00	18633.00
697.14	18258.52
697.27	18082.98
697.40	18155.54
697.54	18125.11
697.67	17982.34
697.80	18033.83
697.94	17703.81
698.07	17537.63
698.21	17713.17
698.34	17593.81
698.47	17263.79
698.61	16973.56
698.74	16950.16
698.87	17158.47
699.01	17160.81
699.14	16971.22
699.27	17062.51
699.40	16821.43
699.54	16830.79
699.67	16982.93
699.80	16725.47
699.94	16369.71
700.07	16648.23
700.20	16367.37
700.34	16304.17
700.47	16456.31
700.60	16695.04
700.73	16271.40
700.87	16107.57
701.00	15866.49
701.13	15831.38
701.26	15857.13
701.40	15707.34
701.53	15852.45
701.66	15845.43
701.79	15683.93
701.93	15293.06
702.06	15236.89
702.19	15232.21
702.32	15248.59
702.46	15393.70
702.59	15379.66
702.72	15227.53
702.85	15075.39
702.99	14995.81
703.12	14736.01
703.25	14843.68
703.38	14600.26
703.51	14623.67
703.65	14345.14
703.78	14239.82
703.91	14169.60
704.04	14136.84
704.17	13987.04
704.31	14057.26
704.44	14026.83
704.57	14225.78
704.70	14153.22
704.83	13853.63
704.96	13741.29
705.10	13748.31
705.23	13640.64
>>>>>End Processed Spectral Data<<<<<
