SpectraSuite Data File
++++++++++++++++++++++++++++++++++++
Date: Fri Oct 25 10:47:23 EDT 2013
User: price-jones
Dark Spectrum Present: No
Reference Spectrum Present: No
Number of Sampled Component Spectra: 1
Spectrometers: USB2+H05261
Integration Time (usec): 100000 (USB2+H05261)
Spectra Averaged: 1 (USB2+H05261)
Boxcar Smoothing: 0 (USB2+H05261)
Correct for Electrical Dark: No (USB2+H05261)
Strobe/Lamp Enabled: No (USB2+H05261)
Correct for Detector Non-linearity: No (USB2+H05261)
Correct for Stray Light: No (USB2+H05261)
Number of Pixels in Processed Spectrum: 2048
>>>>>Begin Processed Spectral Data<<<<<
365.73	156.82
365.92	156.82
366.12	156.82
366.32	72.56
366.52	35.11
366.72	58.51
366.91	37.45
367.11	42.13
367.31	42.13
367.51	0.00
367.70	35.11
367.90	2.34
368.10	63.19
368.30	65.54
368.49	70.22
368.69	67.88
368.89	102.98
369.09	77.24
369.28	35.11
369.48	49.15
369.68	98.30
369.87	145.11
370.07	88.94
370.27	187.24
370.47	224.69
370.66	365.12
370.86	355.76
371.06	447.04
371.25	418.96
371.45	472.79
371.65	479.81
371.84	496.19
372.04	526.62
372.24	454.06
372.44	409.59
372.63	538.32
372.83	512.58
373.03	491.51
373.22	447.04
373.42	470.45
373.62	564.07
373.81	524.28
374.01	510.24
374.21	540.66
374.40	524.28
374.60	627.26
374.79	540.66
374.99	627.26
375.19	550.03
375.38	528.96
375.58	592.16
375.78	592.16
375.97	496.19
376.17	678.76
376.37	585.13
376.56	610.88
376.76	582.79
376.95	634.29
377.15	650.67
377.35	533.64
377.54	657.69
377.74	585.13
377.93	634.29
378.13	603.86
378.33	627.26
378.52	657.69
378.72	587.47
378.91	589.82
379.11	554.71
379.31	603.86
379.50	624.92
379.70	683.44
379.89	664.71
380.09	603.86
380.28	631.94
380.48	631.94
380.68	697.48
380.87	662.37
381.07	681.10
381.26	648.33
381.46	622.58
381.65	580.45
381.85	685.78
382.04	650.67
382.24	685.78
382.43	615.56
382.63	650.67
382.83	643.65
383.02	692.80
383.22	716.20
383.41	655.35
383.61	657.69
383.80	739.61
384.00	657.69
384.19	758.33
384.39	765.36
384.58	791.10
384.78	873.02
384.97	805.14
385.17	821.53
385.36	777.06
385.56	741.95
385.75	758.33
385.95	732.59
386.14	863.66
386.34	753.65
386.53	788.76
386.72	833.23
386.92	774.72
387.11	868.34
387.31	798.12
387.50	823.87
387.70	772.38
387.89	821.53
388.09	936.21
388.28	821.53
388.48	866.00
388.67	887.06
388.86	917.49
389.06	873.02
389.25	891.74
389.45	1018.13
389.64	922.17
389.84	943.24
390.03	976.00
390.22	994.73
390.42	898.77
390.61	943.24
390.81	840.25
391.00	936.21
391.19	959.62
391.39	985.37
391.58	936.21
391.78	950.26
391.97	940.90
392.16	987.71
392.36	978.34
392.55	992.39
392.75	976.00
392.94	1053.24
393.13	922.17
393.33	931.53
393.52	1015.79
393.71	1090.69
393.91	1083.67
394.10	1114.10
394.29	987.71
394.49	1151.54
394.68	1121.12
394.88	1093.03
395.07	1083.67
395.26	1149.20
395.46	1245.16
395.65	1205.38
395.84	1200.69
396.04	1174.95
396.23	1100.05
396.42	1156.22
396.62	1165.59
396.81	1146.86
397.00	1137.50
397.19	1252.19
397.39	1233.46
397.58	1254.53
397.77	1247.51
397.97	1357.51
398.16	1301.34
398.35	1263.89
398.55	1252.19
398.74	1268.57
398.93	1287.29
399.12	1308.36
399.32	1369.21
399.51	1287.29
399.70	1334.11
399.90	1437.09
400.09	1296.66
400.28	1352.83
400.47	1355.17
400.67	1444.11
400.86	1481.56
401.05	1434.75
401.24	1500.28
401.44	1586.88
401.63	1577.52
401.82	1561.14
402.01	1533.05
402.21	1486.24
402.40	1465.18
402.59	1469.86
402.78	1605.61
402.97	1558.80
403.17	1591.56
403.36	1640.72
403.55	1621.99
403.74	1647.74
403.93	1682.85
404.13	1549.43
404.32	1668.80
404.51	1706.25
404.70	1659.44
404.89	1762.42
405.09	1792.85
405.28	1640.72
405.47	1687.53
405.66	1853.70
405.85	1774.13
406.05	1652.42
406.24	1781.15
406.43	1891.15
406.62	1849.02
406.81	2003.50
407.00	1813.92
407.20	1785.83
407.39	1842.00
407.58	1837.32
407.77	2033.93
407.96	1877.11
408.15	1954.35
408.34	2003.50
408.54	2036.27
408.73	2033.93
408.92	2150.95
409.11	2125.21
409.30	2083.08
409.49	2040.95
409.68	2045.63
409.87	1989.46
410.07	2125.21
410.26	2153.29
410.45	2181.38
410.64	2312.45
410.83	2284.36
411.02	2239.89
411.21	2377.98
411.40	2200.10
411.59	2267.98
411.78	2342.88
411.98	2267.98
412.17	2286.70
412.36	2363.94
412.55	2424.80
412.74	2509.05
412.93	2583.95
413.12	2408.41
413.31	2665.87
413.50	2572.25
413.69	2579.27
413.88	2600.34
414.07	2590.97
414.26	2668.21
414.45	2675.23
414.64	2583.95
414.83	2670.55
415.02	2679.91
415.22	2836.73
415.41	2850.77
415.60	2663.53
415.79	2820.35
415.98	2970.14
416.17	2928.01
416.36	2897.58
416.55	2925.67
416.74	2836.73
416.93	3019.29
417.12	2986.52
417.31	3016.95
417.50	2970.14
417.69	3119.93
417.88	3042.70
418.07	2970.14
418.26	3126.96
418.45	3260.37
418.64	3229.94
418.83	3171.43
419.02	3192.49
419.21	3204.19
419.39	3274.41
419.58	3110.57
419.77	3227.60
419.96	3222.92
420.15	3375.05
420.34	3323.56
420.53	3454.63
420.72	3400.80
420.91	3489.74
421.10	3602.08
421.29	3506.12
421.48	3489.74
421.67	3557.61
421.86	3480.38
422.05	3545.91
422.24	3449.95
422.43	3522.51
422.61	3419.52
422.80	3517.83
422.99	3550.59
423.18	3550.59
423.37	3609.11
423.56	3396.12
423.75	3581.02
423.94	3393.78
424.13	3361.01
424.32	3471.01
424.50	3456.97
424.69	3630.17
424.88	3627.83
425.07	3398.46
425.26	3564.64
425.45	3559.95
425.64	3492.08
425.83	3571.66
426.01	3751.88
426.20	3501.44
426.39	3559.95
426.58	3595.06
426.77	3459.31
426.96	3751.88
427.15	3611.45
427.33	3754.22
427.52	3592.72
427.71	3873.59
427.90	3831.46
428.09	3763.58
428.28	3812.73
428.46	3770.60
428.65	3854.86
428.84	3857.20
429.03	3871.25
429.22	3852.52
429.40	3887.63
429.59	3796.35
429.78	3597.40
429.97	3557.61
430.16	3709.75
430.34	3915.72
430.53	3868.91
430.72	3960.19
430.91	3864.22
431.10	3950.82
431.28	4138.07
431.47	4095.94
431.66	4156.79
431.85	4112.32
432.03	4238.71
432.22	4177.86
432.41	4229.35
432.60	4145.09
432.79	4346.37
432.97	4250.41
433.16	4367.44
433.35	4163.81
433.54	4306.59
433.72	4383.82
433.91	4135.73
434.10	4510.21
434.28	4390.84
434.47	4365.10
434.66	4440.00
434.85	4315.95
435.03	4498.51
435.22	4500.85
435.41	4660.01
435.59	4552.34
435.78	4713.84
435.97	4557.02
436.16	4748.95
436.34	4720.86
436.53	4601.49
436.72	4585.11
436.90	4608.51
437.09	4709.16
437.28	4554.68
437.46	4582.77
437.65	4660.01
437.84	4603.83
438.02	4779.37
438.21	4793.42
438.40	4755.97
438.58	4856.61
438.77	4847.25
438.96	4915.12
439.14	5076.62
439.33	5067.26
439.52	5074.28
439.70	5144.50
439.89	5146.84
440.08	5088.32
440.26	5121.09
440.45	5266.21
440.63	5301.31
440.82	5296.63
441.01	5341.10
441.19	5322.38
441.38	5624.31
441.57	5565.79
441.75	5598.56
441.94	5668.78
442.12	5549.41
442.31	5523.66
442.50	5729.63
442.68	5636.01
442.87	5640.69
443.05	5657.07
443.24	5767.08
443.43	5748.36
443.61	5893.47
443.80	5961.34
443.98	5834.96
444.17	5647.71
444.35	5715.59
444.54	5909.85
444.73	5816.23
444.91	5884.11
445.10	5884.11
445.28	5851.34
445.47	5753.04
445.65	5860.70
445.84	5940.28
446.02	6017.52
446.21	5884.11
446.39	5881.77
446.58	6104.12
446.77	6038.58
446.95	6017.52
447.14	6207.10
447.32	6008.16
447.51	6019.86
447.69	6211.78
447.88	6083.05
448.06	6202.42
448.25	6160.29
448.43	6169.65
448.62	5959.00
448.80	6113.48
448.99	6251.57
449.17	6326.47
449.36	6167.31
449.54	6314.77
449.73	6394.34
449.91	6328.81
450.10	6473.92
450.28	6593.29
450.46	6452.86
450.65	6471.58
450.83	6478.60
451.02	6469.24
451.20	6572.22
451.39	6457.54
451.57	6459.88
451.76	6485.62
451.94	6551.16
452.13	6469.24
452.31	6647.12
452.49	6588.61
452.68	6668.19
452.86	6525.41
453.05	6693.93
453.23	6696.27
453.42	6597.97
453.60	6581.59
453.78	6619.04
453.97	6715.00
454.15	6600.31
454.34	6689.25
454.52	6857.77
454.70	6839.05
454.89	6862.45
455.07	7042.67
455.26	6874.15
455.44	6862.45
455.62	7052.03
455.81	6846.07
455.99	7201.83
456.17	7103.53
456.36	7040.33
456.54	7084.80
456.73	7290.77
456.91	7379.71
457.09	7438.22
457.28	7438.22
457.46	7061.40
457.64	7405.46
457.83	7389.07
458.01	7112.89
458.19	7653.55
458.38	7499.08
458.56	7391.41
458.74	7456.95
458.93	7405.46
459.11	7552.91
459.29	7522.48
459.48	7534.18
459.66	7510.78
459.84	7786.96
460.03	7927.39
460.21	7936.76
460.39	7754.19
460.57	7651.21
460.76	7803.35
460.94	7791.64
461.12	7918.03
461.31	7784.62
461.49	7768.24
461.67	7829.09
461.85	8053.78
462.04	8042.08
462.22	8395.50
462.40	8224.64
462.59	7999.95
462.77	8140.38
462.95	8107.62
463.13	8173.15
463.32	8121.66
463.50	8229.32
463.68	8226.98
463.86	8161.45
464.05	8025.70
464.23	8095.91
464.41	8210.60
464.59	8177.83
464.78	8386.14
464.96	8238.69
465.14	8208.26
465.32	8493.80
465.50	8491.46
465.69	8442.31
465.87	8458.70
466.05	8266.77
466.23	8449.33
466.41	8255.07
466.60	8863.61
466.78	8205.92
466.96	8446.99
467.14	8379.12
467.32	8367.42
467.51	8929.14
467.69	8449.33
467.87	8720.84
468.05	8542.96
468.23	8620.19
468.41	8629.56
468.60	8711.47
468.78	8774.67
468.96	8624.87
469.14	8788.71
469.32	8901.06
469.50	8748.92
469.69	8908.08
469.87	8865.95
470.05	8901.06
470.23	9048.51
470.41	9167.88
470.59	9160.86
470.77	9116.39
470.95	9071.92
471.14	9142.13
471.32	9193.62
471.50	9593.86
471.68	9373.85
471.86	9476.83
472.04	9528.32
472.22	9607.90
472.40	9415.98
472.58	9444.06
472.77	9577.47
472.95	9586.83
473.13	9966.00
473.31	9687.48
473.49	9666.41
473.67	9998.77
473.85	9689.82
474.03	10015.15
474.21	9968.34
474.39	10115.80
474.57	9982.38
474.75	10232.82
474.93	10092.39
475.12	10420.06
475.30	10291.34
475.48	10387.30
475.66	10487.94
475.84	10424.75
476.02	10359.21
476.20	10707.95
476.38	10455.17
476.56	10637.73
476.74	10855.40
476.92	10766.46
477.10	10813.28
477.28	11042.65
477.46	11136.27
477.64	10974.77
477.82	11557.57
478.00	11358.62
478.18	11379.68
478.36	11250.96
478.54	11463.94
478.72	11733.11
478.90	11889.92
479.08	11798.64
479.26	12037.38
479.44	12184.83
479.62	12098.23
479.80	12259.73
479.98	12250.36
480.16	12585.06
480.34	12503.14
480.52	12482.08
480.70	12465.69
480.88	12573.36
481.06	12910.40
481.24	12676.34
481.41	12952.52
481.59	13149.13
481.77	13057.85
481.95	13158.49
482.13	13308.29
482.31	13275.52
482.49	13518.93
482.67	13525.96
482.85	13682.77
483.03	14190.67
483.21	14057.26
483.39	14157.90
483.57	14139.18
483.74	14328.76
483.92	14256.20
484.10	14417.70
484.28	14527.71
484.46	14977.09
484.64	15005.17
484.82	14654.09
485.00	15157.31
485.18	14986.45
485.35	15176.03
485.53	15346.89
485.71	15208.80
485.89	15297.74
486.07	15398.38
486.25	15709.68
486.43	15407.75
486.61	15955.43
486.78	15873.51
486.96	16100.55
487.14	16255.02
487.32	16245.66
487.50	16776.96
487.68	16774.62
487.85	17067.19
488.03	17114.00
488.21	17167.83
488.39	17123.36
488.57	17467.42
488.75	17535.29
488.92	17811.48
489.10	17802.11
489.28	17825.52
489.46	18335.76
489.64	18183.62
489.81	18361.50
489.99	18595.56
490.17	18501.93
490.35	18946.64
490.53	18754.71
490.70	19028.56
490.88	18459.81
491.06	19309.42
491.24	19208.78
491.41	19080.05
491.59	19180.69
491.77	19410.06
491.95	19461.55
492.13	19892.21
492.30	19941.36
492.48	20144.99
492.66	20109.88
492.84	20290.10
493.01	20404.79
493.19	20262.02
493.37	20711.40
493.54	20589.69
493.72	20847.15
493.90	20980.56
494.08	21022.69
494.25	21357.39
494.43	21649.96
494.61	21291.85
494.79	21556.33
494.96	21568.04
495.14	21893.37
495.32	21785.71
495.49	21998.70
495.67	22068.91
495.85	22136.79
496.02	22476.16
496.20	22522.98
496.38	22672.77
496.55	22684.47
496.73	23000.44
496.91	23101.09
497.09	23232.16
497.26	23075.34
497.44	23126.83
497.62	23330.46
497.79	23737.71
497.97	23452.17
498.14	23807.93
498.32	23740.05
498.50	24072.41
498.67	24074.75
498.85	24189.44
499.03	24311.14
499.20	24704.35
499.38	24500.73
499.56	24620.10
499.73	24568.60
499.91	24486.68
500.08	24737.12
500.26	24711.38
500.44	24835.42
500.61	25256.72
500.79	25010.96
500.97	25205.23
501.14	25729.51
501.32	25277.79
501.49	25256.72
501.67	25460.35
501.84	25488.43
502.02	25717.81
502.20	25923.77
502.37	25956.54
502.55	25984.63
502.72	25986.97
502.90	25963.56
503.07	25956.54
503.25	26513.59
503.43	26223.36
503.60	26190.59
503.78	25991.65
503.95	26342.73
504.13	26473.80
504.30	26862.33
504.48	27138.51
504.65	27255.54
504.83	26855.31
505.01	27115.11
505.18	27089.36
505.36	27758.75
505.53	27288.31
505.71	27880.46
505.88	27534.06
506.06	27463.85
506.23	27601.94
506.41	27283.62
506.58	27541.08
506.76	27931.95
506.93	28290.06
507.11	27934.29
507.28	28067.70
507.46	28308.78
507.63	28020.89
507.81	28641.14
507.98	28030.26
508.16	28589.64
508.33	28472.62
508.50	28872.85
508.68	28360.27
508.85	29261.38
509.03	28725.39
509.20	28938.38
509.38	29097.54
509.55	29626.50
509.73	29244.99
509.90	29455.64
510.08	29305.85
510.25	29340.96
510.42	29619.48
510.60	29523.52
510.77	29638.20
510.95	30040.78
511.12	30047.80
511.30	29900.34
511.47	30396.54
511.64	30604.84
511.82	30197.59
511.99	30157.80
512.17	30363.77
512.34	30560.37
512.51	30424.62
512.69	30806.13
512.86	30871.67
513.04	31051.89
513.21	30927.84
513.38	30803.79
513.56	31152.53
513.73	30841.24
513.90	31456.80
514.08	31185.30
514.25	31262.54
514.43	31505.95
514.60	31505.95
514.77	31204.02
514.95	31632.34
515.12	31494.25
515.29	31468.50
515.47	31835.97
515.64	31686.17
515.81	31548.08
515.99	31955.33
516.16	31833.63
516.33	31960.02
516.51	32135.56
516.68	31819.58
516.85	31269.56
517.03	31833.63
517.20	32032.57
517.37	32554.51
517.54	32364.93
517.72	32371.95
517.89	32205.77
518.06	32484.30
518.24	32568.55
518.41	32250.24
518.58	32816.65
518.75	32407.06
518.93	32725.37
519.10	32879.85
519.27	33284.76
519.45	32734.73
519.62	33720.10
519.79	33354.97
519.96	33439.23
520.14	33727.12
520.31	33621.80
520.48	33851.17
520.65	33563.28
520.83	33736.48
521.00	33869.89
521.17	34167.14
521.34	33802.02
521.52	33970.54
521.69	34129.69
521.86	34132.03
522.03	34235.02
522.20	34384.81
522.38	34422.26
522.55	34504.18
522.72	34522.90
522.89	34789.72
523.07	34686.74
523.24	34403.53
523.41	34600.14
523.58	34668.02
523.75	34799.08
523.92	34944.20
524.10	35164.21
524.27	35232.08
524.44	35196.98
524.61	35608.91
524.78	35070.59
524.96	35281.24
525.13	35517.63
525.30	35959.99
525.47	35929.56
525.64	35491.88
525.81	35615.93
525.98	35594.87
526.16	35468.48
526.33	35466.14
526.50	35934.24
526.67	35477.84
526.84	35447.41
527.01	35592.53
527.18	35892.12
527.36	36175.32
527.53	35967.01
527.70	36362.56
527.87	36229.15
528.04	36278.30
528.21	36273.62
528.38	36655.13
528.55	36753.43
528.72	36737.05
528.89	37156.00
529.07	36804.92
529.24	36273.62
529.41	36825.99
529.58	36744.07
529.75	36858.76
529.92	36783.86
530.09	37060.04
530.26	37336.23
530.43	37099.83
530.60	37228.56
530.77	37134.94
530.94	37088.13
531.11	37352.61
531.28	37565.60
531.46	37677.94
531.63	37780.93
531.80	37652.20
531.97	37219.20
532.14	37364.31
532.31	37401.76
532.48	37921.36
532.65	37806.67
532.82	37757.52
532.99	38335.63
533.16	37818.38
533.33	37879.23
533.50	37996.26
533.67	38064.13
533.84	38232.65
534.01	38143.71
534.18	38225.63
534.35	38274.78
534.52	38534.58
534.69	38550.96
534.86	38583.73
535.03	38380.10
535.20	38721.82
535.37	38607.14
535.54	38670.33
535.71	38719.48
535.88	38773.31
536.05	38721.82
536.22	38752.25
536.38	38403.51
536.55	38611.82
536.72	38780.34
536.89	39047.16
537.06	38752.25
537.23	39175.89
537.40	38927.79
537.57	39161.84
537.74	39192.27
537.91	39512.92
538.08	39150.14
538.25	39332.70
538.42	39683.78
538.59	39590.16
538.75	38808.42
538.92	39473.13
539.09	39365.47
539.26	39943.58
539.43	39555.05
539.60	39667.40
539.77	39957.63
539.94	39772.72
540.11	39810.17
540.28	39548.03
540.44	39903.79
540.61	39405.26
540.78	39948.26
540.95	39903.79
541.12	39887.41
541.29	39856.98
541.46	40018.48
541.62	40273.60
541.79	40016.14
541.96	39955.29
542.13	40154.23
542.30	40074.65
542.47	40350.84
542.63	40549.78
542.80	40240.83
542.97	40636.38
543.14	40727.66
543.31	41214.49
543.48	40519.35
543.64	41404.08
543.81	41010.87
543.98	40584.89
544.15	40687.87
544.32	41186.41
544.48	41368.97
544.65	41242.58
544.82	41240.24
544.99	40598.93
545.16	41095.13
545.32	41364.29
545.49	41392.37
545.66	41860.48
545.83	40996.82
546.00	41759.84
546.16	41855.80
546.33	41668.56
546.50	41064.70
546.67	41240.24
546.83	41031.93
547.00	41127.89
547.17	41521.10
547.34	41235.56
547.50	41762.18
547.67	41488.34
547.84	41394.71
548.00	41769.20
548.17	41736.43
548.34	41790.27
548.51	41841.76
548.67	42038.36
548.84	42398.80
549.01	42014.96
549.18	41855.80
549.34	42174.11
549.51	42501.79
549.68	41525.78
549.84	42054.75
550.01	42265.39
550.18	42405.83
550.34	42359.02
550.51	42431.57
550.68	42256.03
550.84	41717.71
551.01	42054.75
551.18	42213.90
551.34	42239.65
551.51	42359.02
551.68	42333.27
551.84	42731.16
552.01	42759.25
552.18	42410.51
552.34	42307.52
552.51	42286.46
552.68	42705.41
552.84	42487.74
553.01	42981.60
553.18	42742.86
553.34	42761.59
553.51	42520.51
553.67	42756.91
553.84	42656.26
554.01	42920.74
554.17	43489.49
554.34	43407.58
554.51	43192.25
554.67	42974.58
554.84	42981.60
555.00	43093.94
555.17	42845.85
555.33	43075.22
555.50	43171.18
555.67	43089.26
555.83	43054.15
556.00	43178.20
556.16	43274.16
556.33	43342.04
556.50	43243.74
556.66	42895.00
556.83	43550.35
556.99	43353.74
557.16	43239.06
557.32	43318.64
557.49	43339.70
557.65	42820.10
557.82	43093.94
557.98	43515.24
558.15	43091.60
558.32	43571.41
558.48	43402.89
558.65	43824.19
558.81	43360.76
558.98	43470.77
559.14	43391.19
559.31	43206.29
559.47	43674.40
559.64	43533.96
559.80	44102.71
559.97	43718.87
560.13	43456.73
560.30	43749.29
560.46	43473.11
560.63	43756.32
560.79	43798.44
560.96	44151.87
561.12	43875.68
561.29	43892.07
561.45	43367.79
561.61	43810.15
561.78	43650.99
561.94	43655.67
562.11	44210.38
562.27	43957.60
562.44	43669.72
562.60	44514.65
562.77	44346.13
562.93	43604.18
563.10	44018.46
563.26	43866.32
563.42	44285.28
563.59	43688.44
563.75	43997.39
563.92	44240.81
564.08	43981.01
564.24	44402.30
564.41	44383.58
564.57	44292.30
564.74	44397.62
564.90	44194.00
565.07	44158.89
565.23	43859.30
565.39	44079.31
565.56	43948.24
565.72	44175.27
565.88	44172.93
566.05	44172.93
566.21	44261.87
566.38	43948.24
566.54	44479.54
566.70	44081.65
566.87	44849.35
567.03	44095.69
567.19	44713.59
567.36	44306.34
567.52	44088.67
567.68	44458.48
567.85	44463.16
568.01	44748.70
568.17	44083.99
568.34	44720.62
568.50	44509.97
568.66	44261.87
568.83	44458.48
568.99	44484.22
569.15	44198.68
569.32	44495.92
569.48	44149.53
569.64	44460.82
569.81	44296.98
569.97	44329.75
570.13	44519.33
570.30	44069.95
570.46	44079.31
570.62	44444.43
570.78	44509.97
570.95	44205.70
571.11	44751.04
571.27	44416.35
571.43	44507.63
571.60	44947.65
571.76	44243.15
571.92	44357.83
572.09	44376.56
572.25	44900.84
572.41	44093.35
572.57	44615.29
572.74	45118.51
572.90	44671.46
573.06	44556.78
573.22	44935.95
573.38	44734.66
573.55	44322.72
573.71	45010.84
573.87	44954.67
574.03	44479.54
574.20	44708.91
574.36	44362.51
574.52	44734.66
574.68	44999.14
574.84	45177.02
575.01	44769.77
575.17	44893.82
575.33	45017.86
575.49	44718.28
575.65	45249.58
575.82	45015.52
575.98	44879.77
576.14	45055.31
576.30	44669.12
576.46	44488.90
576.62	44622.31
576.79	44486.56
576.95	44725.30
577.11	44671.46
577.27	44545.08
577.43	45141.91
577.59	44650.40
577.75	44744.02
577.92	44683.17
578.08	44561.46
578.24	44458.48
578.40	44875.09
578.56	44421.03
578.72	44690.19
578.88	45230.85
579.04	45036.59
579.21	44849.35
579.37	44318.04
579.53	44685.51
579.69	44570.82
579.85	44882.11
580.01	44954.67
580.17	45186.38
580.33	45202.77
580.49	44774.45
580.65	45333.84
580.82	45361.92
580.98	44886.79
581.14	44971.05
581.30	44928.92
581.46	44877.43
581.62	45092.76
581.78	44751.04
581.94	45366.60
582.10	45052.97
582.26	45081.06
582.42	44732.32
582.58	44919.56
582.74	44472.52
582.90	45010.84
583.06	44973.39
583.22	45064.67
583.38	45198.09
583.54	44992.12
583.70	44683.17
583.86	44414.01
584.02	44727.64
584.18	44879.77
584.34	44638.70
584.50	45062.33
584.66	44966.37
584.82	44554.44
584.98	45174.68
585.14	45303.41
585.30	44776.79
585.46	44949.99
585.62	44491.24
585.78	44987.44
585.94	44238.47
586.10	44961.69
586.26	44603.59
586.42	45209.79
586.58	44966.37
586.74	44765.09
586.90	44804.88
587.06	44926.58
587.22	44903.18
587.38	45010.84
587.54	45179.36
587.70	45219.15
587.86	45109.14
588.02	44828.28
588.18	45240.21
588.34	44924.24
588.49	44858.71
588.65	44729.98
588.81	44465.50
588.97	44842.32
589.13	44919.56
589.29	44669.12
589.45	45237.87
589.61	45265.96
589.77	45773.86
589.93	44966.37
590.08	45298.73
590.24	45354.90
590.40	44980.42
590.56	45361.92
590.72	45429.80
590.88	45043.61
591.04	45364.26
591.20	45563.21
591.35	45036.59
591.51	45343.20
591.67	45354.90
591.83	45036.59
591.99	44868.07
592.15	44992.12
592.31	45240.21
592.46	45043.61
592.62	45174.68
592.78	45212.13
592.94	45165.32
593.10	45221.49
593.26	45130.21
593.41	45118.51
593.57	45338.52
593.73	45022.54
593.89	45310.43
594.05	45155.96
594.20	45188.72
594.36	45406.39
594.52	45436.82
594.68	45223.83
594.84	45174.68
594.99	45595.98
595.15	45247.24
595.31	45546.82
595.47	45324.47
595.62	45738.75
595.78	45102.12
595.94	45624.06
596.10	45485.97
596.25	45373.63
596.41	45682.58
596.57	45357.24
596.73	45804.28
596.88	45003.82
597.04	45020.20
597.20	44992.12
597.36	44982.76
597.51	45818.33
597.67	45514.06
597.83	45413.41
597.99	45621.72
598.14	45226.17
598.30	45022.54
598.46	45181.70
598.61	44985.10
598.77	45099.78
598.93	45200.43
599.09	45240.21
599.24	45787.90
599.40	45364.26
599.56	45675.55
599.71	45256.60
599.87	45514.06
600.03	45460.23
600.18	45628.74
600.34	45586.61
600.50	45591.30
600.65	44868.07
600.81	45263.62
600.97	45694.28
601.12	45951.74
601.28	45991.53
601.44	45502.35
601.59	45038.93
601.75	45364.26
601.91	45071.70
602.06	45074.04
602.22	45565.55
602.37	45043.61
602.53	45759.81
602.69	45968.12
602.84	45083.40
603.00	45551.51
603.16	45118.51
603.31	45397.03
603.47	45373.63
603.62	45104.46
603.78	45766.84
603.94	45329.16
604.09	45525.76
604.25	45521.08
604.40	45518.74
604.56	45106.80
604.71	45607.68
604.87	45642.79
605.03	45429.80
605.18	45387.67
605.34	45413.41
605.49	44825.94
605.65	44999.14
605.80	44631.68
605.96	45296.39
606.12	45296.39
606.27	45619.38
606.43	44900.84
606.58	45500.01
606.74	45188.72
606.89	45289.37
607.05	45242.56
607.20	45095.10
607.36	44818.92
607.51	45624.06
607.67	45216.81
607.82	45469.59
607.98	45270.64
608.13	45216.81
608.29	44849.35
608.44	44832.96
608.60	44765.09
608.75	44580.18
608.91	44610.61
609.06	44741.68
609.22	45600.66
609.37	44495.92
609.53	45095.10
609.68	44907.86
609.84	44554.44
609.99	45057.65
610.15	44652.74
610.30	44669.12
610.46	44942.97
610.61	44699.55
610.76	44556.78
610.92	44933.60
611.07	44610.61
611.23	44657.42
611.38	44858.71
611.54	44449.11
611.69	44538.05
611.84	44449.11
612.00	44315.70
612.15	44395.28
612.31	44563.80
612.46	44514.65
612.62	44786.15
612.77	44711.25
612.92	44868.07
613.08	44430.39
613.23	44371.88
613.39	44561.46
613.54	44170.59
613.69	44304.00
613.85	44402.30
614.00	44580.18
614.15	44502.95
614.31	44931.26
614.46	44905.52
614.62	44612.95
614.77	44311.02
614.92	43927.17
615.08	44142.50
615.23	44100.37
615.38	44634.02
615.54	43856.96
615.69	43814.83
615.84	44107.40
616.00	43817.17
616.15	43889.73
616.30	44348.47
616.46	43590.14
616.61	43782.06
616.76	43922.49
616.92	43868.66
617.07	44048.88
617.22	44013.77
617.37	43756.32
617.53	43863.98
617.68	43707.16
617.83	43779.72
617.99	44030.16
618.14	43866.32
618.29	43620.56
618.45	43447.36
618.60	43489.49
618.75	43772.70
618.90	43756.32
619.06	43985.69
619.21	44289.96
619.36	44252.51
619.51	43302.25
619.67	43629.93
619.82	43508.22
619.97	44170.59
620.12	43529.28
620.28	43019.05
620.43	43372.47
620.58	43367.79
620.73	43445.02
620.89	43372.47
621.04	43739.93
621.19	43213.31
621.34	43100.97
621.49	43353.74
621.65	43236.72
621.80	43672.06
621.95	43030.75
622.10	43618.22
622.25	43339.70
622.41	42782.65
622.56	43115.01
622.71	43365.45
622.86	43065.86
623.01	43508.22
623.16	43154.80
623.32	43110.33
623.47	43508.22
623.62	43229.69
623.77	43000.32
623.92	43159.48
624.07	42696.05
624.23	42885.64
624.38	42958.19
624.53	42143.69
624.68	42852.87
624.83	43007.34
624.98	42777.97
625.13	42738.18
625.29	42684.35
625.44	42536.90
625.59	42546.26
625.74	42307.52
625.89	42129.64
626.04	42080.49
626.19	42124.96
626.34	42817.76
626.49	42443.27
626.65	42848.19
626.80	42483.06
626.95	42302.84
627.10	42220.92
627.25	41996.23
627.40	42375.40
627.55	42061.77
627.70	41670.90
627.85	41888.57
628.00	42143.69
628.15	42424.55
628.30	42071.13
628.45	42202.20
628.60	42188.16
628.76	41977.51
628.91	42293.48
629.06	42124.96
629.21	41961.12
629.36	41808.99
629.51	41607.70
629.66	41631.11
629.81	41858.14
629.96	41848.78
630.11	41862.82
630.26	41958.78
630.41	42270.08
630.56	42021.98
630.71	41617.07
630.86	41675.58
631.01	41230.88
631.16	41516.42
631.31	41291.73
631.46	41130.23
631.61	41565.57
631.76	41457.91
631.91	41750.48
632.06	41481.31
632.21	41682.60
632.36	41743.45
632.51	41516.42
632.66	41591.32
632.81	41191.09
632.96	41495.36
633.10	41261.30
633.25	41085.76
633.40	40968.74
633.55	41532.81
633.70	41226.20
633.85	41116.19
634.00	41565.57
634.15	41261.30
634.30	40907.88
634.45	41493.02
634.60	40676.17
634.75	40914.90
634.90	41207.47
635.05	40921.93
635.19	40933.63
635.34	41202.79
635.49	40849.37
635.64	40935.97
635.79	40442.12
635.94	40781.49
636.09	40854.05
636.24	40657.45
636.39	40552.12
636.53	40659.79
636.68	40650.42
636.83	40446.80
636.98	40371.90
637.13	40149.55
637.28	40823.62
637.43	41200.45
637.57	40786.18
637.72	40914.90
637.87	40463.18
638.02	40311.05
638.17	39985.71
638.32	40285.30
638.46	40271.26
638.61	40023.16
638.76	40217.43
638.91	40163.59
639.06	40432.75
639.20	40329.77
639.35	40472.54
639.50	40425.73
639.65	40336.79
639.80	40334.45
639.94	39887.41
640.09	40332.11
640.24	39859.32
640.39	39730.59
640.54	39948.26
640.68	40278.28
640.83	39948.26
640.98	39934.22
641.13	40065.29
641.27	40072.31
641.42	40116.78
641.57	40119.12
641.72	39761.02
641.86	39842.94
642.01	39744.64
642.16	39665.06
642.31	39138.44
642.45	39723.57
642.60	39400.58
642.75	39700.17
642.90	40060.61
643.04	39290.57
643.19	39569.10
643.34	39639.31
643.48	39562.08
643.63	39566.76
643.78	39484.84
643.93	39250.78
644.07	39194.61
644.22	39154.82
644.37	39285.89
644.51	39203.97
644.66	39278.87
644.81	39161.84
644.95	39641.65
645.10	38759.27
645.25	39248.44
645.39	39438.03
645.54	38873.96
645.69	38965.24
645.83	38993.32
645.98	38590.75
646.13	38904.38
646.27	39311.64
646.42	39019.07
646.57	38682.03
646.71	39063.54
646.86	38930.13
647.00	39100.99
647.15	38876.30
647.30	38916.09
647.44	39295.25
647.59	38742.89
647.74	38462.02
647.88	38775.66
648.03	38911.41
648.17	38796.72
648.32	38335.63
648.47	38553.30
648.61	38459.68
648.76	39321.00
648.90	38417.55
649.05	38651.61
649.20	38625.86
649.34	38682.03
649.49	38967.58
649.63	38604.80
649.78	38323.93
649.92	38380.10
650.07	38906.73
650.21	38183.50
650.36	38733.53
650.51	38490.11
650.65	38724.16
650.80	38665.65
650.94	39063.54
651.09	38099.24
651.23	38579.05
651.38	38190.52
651.52	37923.70
651.67	38426.92
651.81	38335.63
651.96	37516.45
652.10	37801.99
652.25	37855.82
652.39	37848.80
652.54	37724.75
652.68	38300.53
652.83	37972.85
652.97	38197.54
653.12	37914.34
653.26	37429.85
653.41	38024.34
653.55	37720.07
653.70	38548.62
653.84	37659.22
653.99	37944.76
654.13	38014.98
654.27	37787.95
654.42	37954.13
654.56	38108.60
654.71	37457.93
654.85	37624.11
655.00	37610.07
655.14	37551.56
655.29	37097.49
655.43	37247.29
655.57	37148.98
655.72	36753.43
655.86	37116.22
656.01	36982.80
656.15	37177.07
656.30	37113.87
656.44	36926.63
656.58	37078.77
656.73	37354.95
656.87	37111.53
657.01	36940.68
657.16	36898.55
657.30	36884.50
657.45	36797.90
657.59	36994.51
657.73	36556.83
657.88	36999.19
658.02	36788.54
658.16	36954.72
658.31	36872.80
658.45	37017.91
658.60	36666.83
658.74	37198.13
658.88	36463.21
659.03	36311.07
659.17	36388.31
659.31	36212.77
659.46	36638.75
659.60	36816.63
659.74	36517.04
659.89	36027.87
660.03	36683.22
660.17	36449.16
660.32	36243.20
660.46	36638.75
660.60	36077.02
660.74	36554.49
660.89	36402.35
661.03	36154.26
661.17	36264.26
661.32	35676.79
661.46	35480.18
661.60	35695.51
661.74	35693.17
661.89	35901.48
662.03	35983.40
662.17	35768.07
662.31	35569.12
662.46	35828.92
662.60	35800.83
662.74	35508.27
662.88	35618.27
663.03	35571.46
663.17	35435.71
663.31	35445.07
663.45	35171.23
663.60	35115.06
663.74	34834.19
663.88	35058.88
664.02	35236.77
664.17	35232.08
664.31	34562.69
664.45	35360.81
664.59	35201.66
664.73	35143.14
664.88	35063.57
665.02	34448.00
665.16	34806.11
665.30	34398.85
665.44	34675.04
665.59	34448.00
665.73	34181.18
665.87	34148.42
666.01	34312.25
666.15	33834.78
666.29	33930.75
666.44	34560.35
666.58	34492.47
666.72	34532.26
666.86	34590.78
667.00	34352.04
667.14	34022.03
667.28	34015.01
667.43	33369.02
667.57	33993.94
667.71	33670.95
667.85	33937.77
667.99	33715.42
668.13	33493.07
668.27	33731.80
668.41	33986.92
668.56	33572.64
668.70	33926.07
668.84	33565.62
668.98	33376.04
669.12	33055.39
669.26	33378.38
669.40	32774.52
669.54	33223.90
669.68	33088.15
669.82	33163.05
669.96	32797.93
670.10	32760.48
670.25	33060.07
670.39	33214.54
670.53	32760.48
670.67	32524.08
670.81	32657.49
670.95	32807.29
671.09	32680.90
671.23	32788.56
671.37	32999.21
671.51	32343.86
671.65	32107.47
671.79	32524.08
671.93	32156.62
672.07	32421.10
672.21	32086.40
672.35	31941.29
672.49	31861.71
672.63	32079.38
672.77	31674.47
672.91	31852.35
673.05	31957.67
673.19	31475.52
673.33	31206.36
673.47	31136.15
673.61	31519.99
673.75	31227.43
673.89	31253.17
674.03	31342.11
674.17	30974.65
674.31	31021.46
674.45	31307.01
674.59	31110.40
674.73	30831.88
674.87	30913.80
675.01	30593.14
675.15	31079.97
675.29	30976.99
675.43	30801.45
675.56	30927.84
675.70	30675.06
675.84	30237.38
675.98	29406.49
676.12	30298.23
676.26	30260.79
676.40	29893.32
676.54	30099.29
676.68	29591.39
676.82	29125.63
676.96	29830.13
677.10	29560.97
677.23	29453.30
677.37	29345.64
677.51	29481.39
677.65	29394.79
677.79	28931.36
677.93	29355.00
678.07	28872.85
678.21	28652.84
678.34	28678.58
678.48	28620.07
678.62	28526.45
678.76	28606.03
678.90	28465.60
679.04	28540.49
679.18	28561.56
679.31	28067.70
679.45	28088.77
679.59	28196.43
679.73	28016.21
679.87	27833.65
680.00	27857.06
680.14	27948.34
680.28	27620.66
680.42	27318.73
680.56	27857.06
680.70	27697.90
680.83	27136.17
680.97	27503.64
681.11	26890.41
681.25	27094.04
681.39	26892.76
681.52	27332.78
681.66	26698.49
681.80	26871.69
681.94	26298.26
682.07	26434.01
682.21	26361.45
682.35	26263.15
682.49	26162.51
682.62	26326.35
682.76	25958.88
682.90	25745.89
683.04	26019.74
683.17	26012.71
683.31	26092.29
683.45	26237.41
683.59	25858.24
683.72	25429.92
683.86	25221.61
684.00	25298.85
684.13	25165.44
684.27	25752.91
684.41	25223.95
684.55	24931.39
684.68	24915.00
684.82	24889.26
684.96	24875.21
685.09	24744.14
685.23	24662.22
685.37	24786.27
685.50	24517.11
685.64	24341.57
685.78	24453.92
685.91	24301.78
686.05	23960.06
686.19	23828.99
686.32	24336.89
686.46	23833.68
686.60	23623.03
686.73	23393.65
686.87	23346.84
687.01	23253.22
687.14	23431.10
687.28	23353.87
687.42	22974.70
687.55	22955.97
687.69	23005.13
687.82	23091.73
687.96	23028.53
688.10	22686.81
688.23	22642.34
688.37	22356.80
688.50	22309.99
688.64	22403.61
688.78	22097.00
688.91	22176.58
689.05	22274.88
689.18	22391.91
689.32	21963.59
689.46	21881.67
689.59	22104.02
689.73	22361.48
689.86	21820.81
690.00	21642.93
690.13	21755.28
690.27	21582.08
690.41	21474.42
690.54	21399.52
690.68	21324.62
690.81	21483.78
690.95	20837.79
691.08	21326.96
691.22	21273.13
691.35	20964.18
691.49	21069.50
691.62	20982.90
691.76	20865.88
691.89	20645.87
692.03	20271.38
692.16	20201.16
692.30	20280.74
692.43	20203.50
692.57	20034.99
692.70	19955.41
692.84	20070.09
692.97	19950.73
693.11	19868.81
693.24	19763.48
693.38	19372.61
693.51	19637.09
693.65	19548.15
693.78	19522.41
693.92	19431.13
694.05	19143.24
694.19	19330.48
694.32	19187.71
694.45	19129.20
694.59	19110.47
694.72	19199.41
694.86	18806.20
694.99	18822.59
695.13	18899.83
695.26	18462.15
695.39	18335.76
695.53	18068.94
695.66	18581.51
695.80	18333.42
695.93	18298.31
696.07	18314.69
696.20	18228.09
696.33	18019.78
696.47	17972.97
696.60	17862.97
696.73	17783.39
696.87	17853.61
697.00	17855.95
697.14	17762.33
697.27	17371.46
697.40	17593.81
697.54	17659.34
697.67	17275.49
697.80	17221.66
697.94	17121.02
698.07	17160.81
698.21	17188.89
698.34	17057.82
698.47	17151.45
698.61	16601.42
698.74	16678.66
698.87	16432.90
699.01	16355.66
699.14	16446.94
699.27	16334.60
699.40	16194.17
699.54	16285.45
699.67	16280.77
699.80	16301.83
699.94	15882.88
700.07	16182.46
700.20	16105.23
700.34	15953.09
700.47	15812.66
700.60	15803.30
700.73	15763.51
700.87	15868.83
701.00	15772.87
701.13	15382.00
701.26	15473.28
701.40	15290.72
701.53	15358.60
701.66	15452.22
701.79	15009.86
701.93	15337.53
702.06	14860.06
702.19	14874.10
702.32	14902.19
702.46	14801.55
702.59	14572.18
702.72	14764.10
702.85	14635.37
702.99	14640.05
703.12	14743.03
703.25	14626.01
703.38	14546.43
703.51	14520.68
703.65	14162.58
703.78	14010.45
703.91	14019.81
704.04	14204.71
704.17	13977.68
704.31	13984.70
704.44	13792.78
704.57	13540.00
704.70	13820.86
704.83	13710.86
704.96	13647.66
705.10	13767.03
705.23	13900.44
>>>>>End Processed Spectral Data<<<<<
