SpectraSuite Data File
++++++++++++++++++++++++++++++++++++
Date: Fri Oct 25 10:43:38 EDT 2013
User: price-jones
Dark Spectrum Present: No
Reference Spectrum Present: No
Number of Sampled Component Spectra: 1
Spectrometers: USB2+H05261
Integration Time (usec): 100000 (USB2+H05261)
Spectra Averaged: 1 (USB2+H05261)
Boxcar Smoothing: 0 (USB2+H05261)
Correct for Electrical Dark: No (USB2+H05261)
Strobe/Lamp Enabled: No (USB2+H05261)
Correct for Detector Non-linearity: No (USB2+H05261)
Correct for Stray Light: No (USB2+H05261)
Number of Pixels in Processed Spectrum: 2048
>>>>>Begin Processed Spectral Data<<<<<
365.73	138.09
365.92	138.09
366.12	138.09
366.32	39.79
366.52	11.70
366.72	60.85
366.91	0.00
367.11	9.36
367.31	39.79
367.51	23.41
367.70	58.51
367.90	0.00
368.10	0.00
368.30	56.17
368.49	81.92
368.69	23.41
368.89	0.00
369.09	18.72
369.28	98.30
369.48	72.56
369.68	30.43
369.87	93.62
370.07	88.94
370.27	126.39
370.47	205.97
370.66	407.25
370.86	430.66
371.06	454.06
371.25	477.47
371.45	484.49
371.65	472.79
371.84	463.43
372.04	479.81
372.24	458.74
372.44	395.55
372.63	449.38
372.83	489.17
373.03	519.60
373.22	510.24
373.42	484.49
373.62	543.00
373.81	493.85
374.01	620.24
374.21	545.34
374.40	582.79
374.60	606.20
374.79	575.77
374.99	561.73
375.19	615.56
375.38	603.86
375.58	599.18
375.78	734.93
375.97	662.37
376.17	645.99
376.37	599.18
376.56	622.58
376.76	596.84
376.95	571.09
377.15	615.56
377.35	524.28
377.54	622.58
377.74	657.69
377.93	699.82
378.13	582.79
378.33	634.29
378.52	692.80
378.72	627.26
378.91	631.94
379.11	671.73
379.31	650.67
379.50	603.86
379.70	697.48
379.89	727.91
380.09	732.59
380.28	669.39
380.48	746.63
380.68	758.33
380.87	711.52
381.07	697.48
381.26	812.17
381.46	664.71
381.65	674.07
381.85	638.97
382.04	669.39
382.24	702.16
382.43	751.31
382.63	704.50
382.83	709.18
383.02	774.72
383.22	788.76
383.41	706.84
383.61	709.18
383.80	772.38
384.00	781.74
384.19	802.80
384.39	770.04
384.58	807.48
384.78	800.46
384.97	802.80
385.17	812.17
385.36	842.59
385.56	809.83
385.75	802.80
385.95	889.40
386.14	873.02
386.34	828.55
386.53	795.78
386.72	767.70
386.92	898.77
387.11	896.43
387.31	875.36
387.50	884.72
387.70	917.49
387.89	880.04
388.09	823.87
388.28	849.61
388.48	917.49
388.67	863.66
388.86	922.17
389.06	1008.77
389.25	978.34
389.45	973.66
389.64	990.05
389.84	1060.26
390.03	950.26
390.22	1078.99
390.42	957.28
390.61	994.73
390.81	1011.11
391.00	1067.28
391.19	973.66
391.39	1001.75
391.58	1048.56
391.78	1156.22
391.97	1121.12
392.16	985.37
392.36	1083.67
392.55	1088.35
392.75	957.28
392.94	980.68
393.13	1011.11
393.33	1104.73
393.52	1114.10
393.71	1095.37
393.91	1064.94
394.10	1107.07
394.29	1135.16
394.49	1090.69
394.68	1193.67
394.88	1256.87
395.07	1259.21
395.26	1188.99
395.46	1364.53
395.65	1350.49
395.84	1181.97
396.04	1273.25
396.23	1184.31
396.42	1247.51
396.62	1207.72
396.81	1109.41
397.00	1235.80
397.19	1266.23
397.39	1324.74
397.58	1338.79
397.77	1390.28
397.97	1441.77
398.16	1310.70
398.35	1441.77
398.55	1455.81
398.74	1495.60
398.93	1584.54
399.12	1521.35
399.32	1523.69
399.51	1495.60
399.70	1600.93
399.90	1483.90
400.09	1593.90
400.28	1650.08
400.47	1645.40
400.67	1579.86
400.86	1626.67
401.05	1657.10
401.24	1736.68
401.44	1743.70
401.63	1717.95
401.82	1680.50
402.01	1680.50
402.21	1666.46
402.40	1776.47
402.59	1734.34
402.78	1764.76
402.97	1767.10
403.17	1699.23
403.36	1816.26
403.55	1811.57
403.74	1842.00
403.93	1834.98
404.13	1926.26
404.32	1856.04
404.51	1982.43
404.70	1942.64
404.89	2003.50
405.09	1942.64
405.28	1940.30
405.47	1977.75
405.66	1970.73
405.85	2015.20
406.05	2038.61
406.24	1987.11
406.43	2122.87
406.62	2038.61
406.81	2204.78
407.00	2092.44
407.20	1975.41
407.39	2024.56
407.58	2190.74
407.77	2172.02
407.96	2139.25
408.15	2193.08
408.34	2263.30
408.54	2270.32
408.73	2319.47
408.92	2338.20
409.11	2396.71
409.30	2326.49
409.49	2293.72
409.68	2305.43
409.87	2267.98
410.07	2436.50
410.26	2340.54
410.45	2560.55
410.64	2466.92
410.83	2537.14
411.02	2504.37
411.21	2509.05
411.40	2523.10
411.59	2565.23
411.78	2656.51
411.98	2663.53
412.17	2656.51
412.36	2602.68
412.55	2717.36
412.74	2731.41
412.93	2731.41
413.12	2785.24
413.31	2897.58
413.50	2766.51
413.69	2834.39
413.88	2972.48
414.07	2960.78
414.26	3009.93
414.45	3023.97
414.64	2953.76
414.83	2920.99
415.02	3026.31
415.22	3009.93
415.41	3166.74
415.60	3129.30
415.79	3215.90
415.98	3229.94
416.17	3356.33
416.36	3272.07
416.55	3255.69
416.74	3276.75
416.93	3424.20
417.12	3428.88
417.31	3314.20
417.50	3311.86
417.69	3517.83
417.88	3590.38
418.07	3424.20
418.26	3414.84
418.45	3478.04
418.64	3651.24
418.83	3644.21
419.02	3644.21
419.21	3658.26
419.39	3660.60
419.58	3548.25
419.77	3595.06
419.96	3623.15
420.15	3822.09
420.34	3751.88
420.53	3784.65
420.72	3831.46
420.91	3861.88
421.10	3941.46
421.29	3794.01
421.48	3777.62
421.67	3908.69
421.86	3845.50
422.05	3885.29
422.24	3751.88
422.43	3822.09
422.61	3843.16
422.80	3861.88
422.99	3875.93
423.18	3974.23
423.37	3997.64
423.56	3927.42
423.75	3990.61
423.94	3892.31
424.13	3723.79
424.32	3794.01
424.50	3934.44
424.69	4201.26
424.88	3995.29
425.07	3953.16
425.26	3953.16
425.45	3950.82
425.64	3943.80
425.83	3934.44
426.01	3990.61
426.20	4088.92
426.39	4072.53
426.58	4070.19
426.77	4018.70
426.96	3946.14
427.15	3911.04
427.33	4063.17
427.52	4180.20
427.71	4198.92
427.90	4203.60
428.09	4234.03
428.28	4222.33
428.46	4177.86
428.65	4135.73
428.84	4236.37
429.03	4222.33
429.22	4060.83
429.40	4264.46
429.59	4182.54
429.78	4046.79
429.97	3920.40
430.16	3957.85
430.34	4102.96
430.53	4278.50
430.72	4283.18
430.91	4339.35
431.10	4119.34
431.28	4650.64
431.47	4840.23
431.66	4812.14
431.85	4664.69
432.03	4552.34
432.22	4648.30
432.41	4695.11
432.60	4730.22
432.79	4718.52
432.97	4774.69
433.16	4858.95
433.35	4564.04
433.54	4793.42
433.72	4830.87
433.91	4880.02
434.10	4861.29
434.28	4978.32
434.47	4973.64
434.66	4910.44
434.85	4903.42
435.03	4936.19
435.22	4873.00
435.41	5111.73
435.59	5144.50
435.78	5186.63
435.97	5273.23
436.16	5156.20
436.34	5121.09
436.53	5200.67
436.72	5298.97
436.90	4973.64
437.09	5170.24
437.28	5114.07
437.46	5069.60
437.65	5294.29
437.84	5282.59
438.02	5172.58
438.21	5331.74
438.40	5142.16
438.58	5376.21
438.77	5444.09
438.96	5446.43
439.14	5631.33
439.33	5657.07
439.52	5713.25
439.70	5628.99
439.89	5699.20
440.08	5715.59
440.26	5638.35
440.45	5636.01
440.63	5849.00
440.82	5849.00
441.01	5968.37
441.19	6106.46
441.38	6188.38
441.57	6139.23
441.75	6101.78
441.94	6274.98
442.12	6546.48
442.31	6251.57
442.50	6382.64
442.68	6319.45
442.87	6289.02
443.05	6478.60
443.24	6586.27
443.43	6438.81
443.61	6361.58
443.80	6773.51
443.98	6368.60
444.17	6258.59
444.35	6366.26
444.54	6771.17
444.73	6464.56
444.91	6504.35
445.10	6487.96
445.28	6553.50
445.47	6413.07
445.65	6593.29
445.84	6513.71
446.02	6656.48
446.21	6705.63
446.39	6551.16
446.58	6764.15
446.77	6668.19
446.95	6696.27
447.14	6757.13
447.32	6813.30
447.51	6801.60
447.69	6810.96
447.88	6567.54
448.06	6707.98
448.25	6799.26
448.43	6775.85
448.62	6691.59
448.80	6913.94
448.99	6768.83
449.17	6892.88
449.36	6834.36
449.54	6953.73
449.73	7162.04
449.91	7180.76
450.10	7389.07
450.28	7400.77
450.46	7370.35
450.65	7293.11
450.83	7159.70
451.02	7260.34
451.20	7265.02
451.39	7307.15
451.57	7180.76
451.76	7150.34
451.94	7234.60
452.13	7297.79
452.31	7084.80
452.49	7103.53
452.68	7307.15
452.86	7274.38
453.05	7492.05
453.23	7433.54
453.42	7417.16
453.60	7332.90
453.78	7473.33
453.97	7243.96
454.15	7307.15
454.34	7433.54
454.52	7721.43
454.70	7609.08
454.89	7653.55
455.07	7756.54
455.26	7819.73
455.44	7761.22
455.62	7737.81
455.81	7623.12
455.99	7786.96
456.17	7859.52
456.36	7840.79
456.54	8121.66
456.73	8121.66
456.91	8372.10
457.09	8128.68
457.28	8180.17
457.46	8028.04
457.64	8334.65
457.83	8081.87
458.01	8049.10
458.19	8196.56
458.38	8105.28
458.56	8383.80
458.74	8283.16
458.93	8266.77
459.11	8425.93
459.29	8353.37
459.48	8409.54
459.66	8428.27
459.84	8479.76
460.03	8512.53
460.21	8575.72
460.39	8648.28
460.57	8439.97
460.76	8711.47
460.94	8702.11
461.12	8702.11
461.31	8500.83
461.49	8627.21
461.67	8596.79
461.85	8875.31
462.04	8800.41
462.22	9242.78
462.40	9004.04
462.59	9011.06
462.77	8882.33
462.95	8879.99
463.13	9071.92
463.32	8821.48
463.50	9046.17
463.68	8990.00
463.86	9142.13
464.05	8990.00
464.23	9151.49
464.41	9100.00
464.59	8987.66
464.78	9195.96
464.96	9317.67
465.14	8931.48
465.32	9191.28
465.50	9411.29
465.69	9401.93
465.87	9226.39
466.05	9125.75
466.23	9135.11
466.41	9118.73
466.60	9474.49
466.78	9289.59
466.96	9324.69
467.14	9540.02
467.32	9673.43
467.51	9577.47
467.69	9228.73
467.87	9586.83
468.05	9624.28
468.23	9631.30
468.41	9504.92
468.60	9643.01
468.78	9593.86
468.96	9685.14
469.14	9764.72
469.32	9834.93
469.50	9472.15
469.69	9675.77
469.87	9830.25
470.05	9806.84
470.23	9781.10
470.41	9963.66
470.59	10064.30
470.77	9984.73
470.95	9984.73
471.14	10139.20
471.32	10097.07
471.50	10450.49
471.68	10450.49
471.86	10181.33
472.04	10335.81
472.22	10691.57
472.40	10363.89
472.58	10218.78
472.77	10567.52
472.95	10523.05
473.13	10949.03
473.31	10597.95
473.49	10595.61
473.67	10689.23
473.85	10623.69
474.03	10832.00
474.21	11265.00
474.39	11173.72
474.57	11073.07
474.75	11243.93
474.93	11265.00
475.12	11094.14
475.30	11426.50
475.48	11199.46
475.66	11248.61
475.84	11466.28
476.02	11365.64
476.20	11454.58
476.38	11822.05
476.56	11932.05
476.74	11847.79
476.92	11880.56
477.10	12255.04
477.28	12079.50
477.46	12173.13
477.64	12503.14
477.82	12215.26
478.00	12793.37
478.18	12556.97
478.36	12636.55
478.54	12786.35
478.72	12865.92
478.90	13041.46
479.08	13006.36
479.26	13319.99
479.44	13001.68
479.62	13352.76
479.80	13668.73
479.98	13853.63
480.16	13612.56
480.34	13741.29
480.52	13858.31
480.70	13818.52
480.88	13832.57
481.06	13893.42
481.24	13884.06
481.41	14448.13
481.59	14593.24
481.77	14682.18
481.95	14403.66
482.13	14857.72
482.31	14665.80
482.49	15094.11
482.67	14829.63
482.85	15119.86
483.03	15314.13
483.21	15487.32
483.39	15524.77
483.57	15393.70
483.74	15585.63
483.92	15709.68
484.10	15655.84
484.28	16046.71
484.46	16121.61
484.64	16355.66
484.82	15985.86
485.00	16327.58
485.18	16634.19
485.35	16737.17
485.53	16397.79
485.71	16093.52
485.89	16788.66
486.07	16526.52
486.25	16582.70
486.43	17121.02
486.61	17273.15
486.78	17415.93
486.96	17635.94
487.14	18059.57
487.32	17678.07
487.50	18054.89
487.68	18150.85
487.85	18370.86
488.03	18438.74
488.21	18925.57
488.39	18513.64
488.57	19058.98
488.75	18939.62
488.92	19246.23
489.10	19267.29
489.28	19719.01
489.46	19875.83
489.64	19613.69
489.81	20053.71
489.99	20252.66
490.17	20208.19
490.35	20470.33
490.53	20449.26
490.70	20891.62
490.88	20673.95
491.06	21048.44
491.24	21074.18
491.41	20875.24
491.59	21018.01
491.77	20886.94
491.95	20865.88
492.13	21465.05
492.30	21654.64
492.48	21734.21
492.66	21869.97
492.84	22094.66
493.01	22607.23
493.19	22150.83
493.37	22197.64
493.54	22354.46
493.72	22766.39
493.90	22679.79
494.08	22843.63
494.25	23218.11
494.43	23129.17
494.61	23730.69
494.79	23714.31
494.96	23468.55
495.14	23765.80
495.32	23740.05
495.49	23915.59
495.67	23950.70
495.85	24219.86
496.02	24301.78
496.20	24587.33
496.38	24599.03
496.55	24643.50
496.73	25179.48
496.91	24999.26
497.09	24912.66
497.26	25245.02
497.44	24800.32
497.62	25050.75
497.79	25289.49
497.97	25172.46
498.14	25532.90
498.32	25652.27
498.50	25614.82
498.67	26029.10
498.85	26319.32
499.03	26331.03
499.20	26492.52
499.38	26916.16
499.56	26515.93
499.73	26443.37
499.91	26845.94
500.08	26679.77
500.26	26228.04
500.44	26670.40
500.61	26778.07
500.79	26913.82
500.97	26902.12
501.14	27356.18
501.32	27318.73
501.49	26967.65
501.67	27213.41
501.84	27620.66
502.02	27632.36
502.20	28027.92
502.37	27981.10
502.55	27632.36
502.72	28526.45
502.90	28318.14
503.07	27992.81
503.25	28376.66
503.43	27978.76
503.60	28470.28
503.78	28091.11
503.95	28079.41
504.13	28451.55
504.30	28723.05
504.48	28713.69
504.65	28849.44
504.83	29441.60
505.01	29376.06
505.18	29081.16
505.36	29469.69
505.53	29549.26
505.71	29603.10
505.88	29830.13
506.06	29876.94
506.23	29778.64
506.41	29759.91
506.58	30178.87
506.76	30543.99
506.93	30242.06
507.11	29820.77
507.28	29886.30
507.46	30441.01
507.63	30101.63
507.81	30506.54
507.98	30480.80
508.16	30707.83
508.33	30965.29
508.50	31381.90
508.68	31138.49
508.85	31255.51
509.03	30946.56
509.20	31283.60
509.38	31620.64
509.55	31557.44
509.73	31653.40
509.90	31482.55
510.08	31545.74
510.25	31775.11
510.42	31775.11
510.60	31901.50
510.77	31866.39
510.95	32154.28
511.12	32175.34
511.30	32580.26
511.47	32261.94
511.64	32650.47
511.82	32545.15
511.99	32570.90
512.17	32514.72
512.34	32613.02
512.51	32758.14
512.69	32500.68
512.86	32779.20
513.04	33233.27
513.21	33291.78
513.38	33158.37
513.56	33141.99
513.73	33071.77
513.90	33392.42
514.08	33549.24
514.25	33659.24
514.43	33413.49
514.60	33427.53
514.77	33350.29
514.95	33862.87
515.12	33912.02
515.29	33926.07
515.47	34401.19
515.64	34110.97
515.81	34162.46
515.99	33965.85
516.16	33942.45
516.33	33972.88
516.51	34066.50
516.68	33085.81
516.85	33975.22
517.03	34043.09
517.20	33771.59
517.37	34272.46
517.54	35014.41
517.72	34314.59
517.89	34183.52
518.06	34298.21
518.24	34490.13
518.41	34749.93
518.58	34775.68
518.75	34583.76
518.93	35065.91
519.10	34565.03
519.27	35477.84
519.45	35407.62
519.62	35512.95
519.79	35508.27
519.96	35468.48
520.14	35679.13
520.31	35566.78
520.48	35543.38
520.65	36095.74
520.83	36149.57
521.00	35899.14
521.17	35587.85
521.34	36374.27
521.52	36297.03
521.69	36343.84
521.86	36547.47
522.03	36266.60
522.20	36519.38
522.38	35922.54
522.55	36833.01
522.72	36580.23
522.89	36114.47
523.07	36837.69
523.24	36402.35
523.41	37076.43
523.58	36657.47
523.75	37275.37
523.92	37200.47
524.10	37706.03
524.27	37584.32
524.44	37053.02
524.61	37502.40
524.78	37291.76
524.96	37497.72
525.13	37713.05
525.30	37895.61
525.47	37869.87
525.64	37998.60
525.81	37909.66
525.98	37654.54
526.16	37429.85
526.33	37460.27
526.50	37713.05
526.67	37490.70
526.84	37509.43
527.01	37867.53
527.18	37607.73
527.36	38033.71
527.53	38658.63
527.70	38436.28
527.87	38476.07
528.04	38181.16
528.21	38969.92
528.38	38705.44
528.55	39105.67
528.72	38974.60
528.89	39466.11
529.07	38934.81
529.24	38515.86
529.41	39035.45
529.58	38951.20
529.75	39210.99
529.92	39316.32
530.09	39203.97
530.26	39421.64
530.43	39297.59
530.60	39349.09
530.77	39173.55
530.94	39791.45
531.11	39690.80
531.28	39276.53
531.46	39824.22
531.63	39658.04
531.80	39508.24
531.97	39590.16
532.14	39377.17
532.31	39533.99
532.48	39349.09
532.65	39662.72
532.82	39445.05
532.99	40027.84
533.16	39737.62
533.33	40109.76
533.50	40596.59
533.67	40172.96
533.84	39917.84
534.01	40231.47
534.18	40247.85
534.35	40203.38
534.52	40236.15
534.69	40598.93
534.86	40879.80
535.03	40512.33
535.20	41153.64
535.37	40797.88
535.54	40832.99
535.71	40896.18
535.88	41060.02
536.05	40907.88
536.22	41027.25
536.38	40987.46
536.55	40905.54
536.72	40914.90
536.89	40369.56
537.06	40830.65
537.23	41539.83
537.40	40868.09
537.57	40697.24
537.74	40914.90
537.91	41801.97
538.08	41698.98
538.25	41053.00
538.42	41855.80
538.59	41537.49
538.75	41113.85
538.92	41818.35
539.09	41691.96
539.26	41560.89
539.43	41612.38
539.60	41455.57
539.77	41401.74
539.94	41518.76
540.11	41537.49
540.28	41717.71
540.44	42162.41
540.61	41848.78
540.78	41729.41
540.95	41565.57
541.12	41801.97
541.29	41883.89
541.46	42087.51
541.62	41930.70
541.79	42134.32
541.96	41839.42
542.13	42211.56
542.30	42045.38
542.47	42157.73
542.63	42256.03
542.80	42213.90
542.97	42745.20
543.14	42780.31
543.31	42733.50
543.48	42562.64
543.64	43154.80
543.81	43154.80
543.98	42852.87
544.15	43044.79
544.32	42976.92
544.48	43318.64
544.65	43377.15
544.82	42796.70
544.99	42855.21
545.16	42761.59
545.32	42583.71
545.49	43536.30
545.66	43360.76
545.83	43311.61
546.00	43643.97
546.16	43433.32
546.33	43227.35
546.50	43267.14
546.67	43526.94
546.83	43264.80
547.00	43494.18
547.17	43311.61
547.34	42925.42
547.50	43571.41
547.67	43665.03
547.84	43658.01
548.00	43831.21
548.17	43779.72
548.34	43824.19
548.51	44460.82
548.67	44397.62
548.84	44142.50
549.01	43526.94
549.18	43812.49
549.34	44135.48
549.51	44083.99
549.68	44322.72
549.84	44086.33
550.01	44069.95
550.18	43863.98
550.34	43983.35
550.51	44563.80
550.68	44334.43
550.84	43665.03
551.01	44411.67
551.18	44629.34
551.34	43718.87
551.51	44472.52
551.68	44594.23
551.84	44261.87
552.01	44533.37
552.18	44037.18
552.34	44109.74
552.51	44325.07
552.68	44619.97
552.84	44727.64
553.01	44385.92
553.18	44421.03
553.34	44449.11
553.51	44769.77
553.67	44821.26
553.84	45055.31
554.01	44886.79
554.17	44814.24
554.34	44868.07
554.51	44765.09
554.67	45111.49
554.84	45141.91
555.00	44935.95
555.17	44598.91
555.33	44931.26
555.50	45036.59
555.67	44900.84
555.83	44809.56
556.00	44992.12
556.16	45064.67
556.33	44650.40
556.50	44949.99
556.66	45202.77
556.83	44645.72
556.99	45155.96
557.16	45462.57
557.32	45280.00
557.49	45382.99
557.65	45160.64
557.82	44999.14
557.98	44973.39
558.15	45071.70
558.32	45181.70
558.48	44626.99
558.65	45162.98
558.81	45130.21
558.98	45258.94
559.14	45326.81
559.31	45170.00
559.47	45280.00
559.64	45399.37
559.80	45474.27
559.97	45546.82
560.13	45684.92
560.30	45317.45
560.46	45659.17
560.63	45518.74
560.79	45837.05
560.96	45497.67
561.12	45705.98
561.29	45003.82
561.45	45106.80
561.61	45352.56
561.78	45134.89
561.94	45530.44
562.11	45464.91
562.27	45467.25
562.44	45399.37
562.60	45598.32
562.77	45624.06
562.93	45675.55
563.10	45762.15
563.26	45455.54
563.42	45869.82
563.59	45713.00
563.75	45633.42
563.92	45963.44
564.08	45722.37
564.24	45605.34
564.41	45872.16
564.57	45902.59
564.74	45607.68
564.90	45799.60
565.07	45652.15
565.23	45371.28
565.39	45787.90
565.56	45675.55
565.72	45654.49
565.88	45598.32
566.05	45694.28
566.21	45621.72
566.38	45958.76
566.54	46040.68
566.70	46115.58
566.87	46363.67
567.03	46024.29
567.19	46078.13
567.36	46101.53
567.52	46188.13
567.68	46115.58
567.85	45940.04
568.01	46183.45
568.17	46164.73
568.34	46356.65
568.50	45804.28
568.66	46068.76
568.83	46375.37
568.99	45806.62
569.15	45762.15
569.32	45914.29
569.48	45825.35
569.64	46230.26
569.81	45815.99
569.97	45874.50
570.13	46078.13
570.30	45556.19
570.46	45359.58
570.62	45404.05
570.78	45347.88
570.95	45745.77
571.11	45844.07
571.27	46178.77
571.43	46078.13
571.60	46141.32
571.76	46043.02
571.92	45893.22
572.09	46340.27
572.25	46330.90
572.41	46115.58
572.57	46157.70
572.74	46967.53
572.90	46080.47
573.06	46256.01
573.22	46644.54
573.38	46192.81
573.55	45890.88
573.71	46681.98
573.87	46408.14
574.03	45961.10
574.20	46127.28
574.36	45855.78
574.52	46349.63
574.68	46038.34
574.84	46375.37
575.01	46178.77
575.17	46045.36
575.33	45909.61
575.49	45617.04
575.65	46492.40
575.82	46108.55
575.98	46005.57
576.14	46272.39
576.30	46394.10
576.46	46277.07
576.62	46064.08
576.79	45839.39
576.95	45785.56
577.11	46094.51
577.27	46373.03
577.43	46183.45
577.59	45909.61
577.75	46272.39
577.92	45249.58
578.08	45448.52
578.24	45883.86
578.40	45942.38
578.56	46358.99
578.72	45991.53
578.88	46377.72
579.04	46188.13
579.21	45764.49
579.37	46363.67
579.53	45907.27
579.69	46223.24
579.85	45881.52
580.01	46363.67
580.17	46066.42
580.33	45839.39
580.49	46085.15
580.65	46246.65
580.82	46464.32
580.98	46258.35
581.14	46007.91
581.30	46326.22
581.46	46253.67
581.62	46033.66
581.78	45996.21
581.94	46178.77
582.10	46536.87
582.26	46384.74
582.42	46092.17
582.58	46454.95
582.74	45776.20
582.90	46220.90
583.06	46883.27
583.22	46459.63
583.38	46248.99
583.54	46366.01
583.70	46319.20
583.86	46384.74
584.02	46183.45
584.18	46602.41
584.34	46607.09
584.50	46085.15
584.66	46103.87
584.82	46300.48
584.98	46293.46
585.14	46511.13
585.30	46113.23
585.46	46443.25
585.62	45940.04
585.78	46216.22
585.94	46033.66
586.10	46047.70
586.26	45956.42
586.42	46918.38
586.58	46944.12
586.74	45869.82
586.90	46663.26
587.06	46213.88
587.22	46138.98
587.38	45827.69
587.54	46433.89
587.70	46644.54
587.86	46344.95
588.02	46508.79
588.18	46464.32
588.34	45790.24
588.49	45773.86
588.65	45635.77
588.81	46038.34
588.97	45874.50
589.13	45911.95
589.29	46394.10
589.45	46382.40
589.61	46005.57
589.77	46380.06
589.93	46681.98
590.08	46403.46
590.24	46480.70
590.40	46433.89
590.56	46824.76
590.72	46520.49
590.88	46281.75
591.04	46244.30
591.20	46941.78
591.35	46625.81
591.51	46824.76
591.67	46773.27
591.83	46466.66
591.99	45963.44
592.15	45989.19
592.31	46724.11
592.46	46131.96
592.62	46251.33
592.78	46518.15
592.94	46710.07
593.10	46553.26
593.26	46328.56
593.41	46241.96
593.57	46190.47
593.73	46347.29
593.89	47016.68
594.05	46677.30
594.20	46272.39
594.36	46770.93
594.52	46415.16
594.68	46700.71
594.84	46036.00
594.99	46499.42
595.15	46033.66
595.31	46684.33
595.47	46457.29
595.62	46841.14
595.78	46471.34
595.94	46473.68
596.10	46646.88
596.25	46454.95
596.41	46707.73
596.57	46167.07
596.73	46670.28
596.88	46066.42
597.04	46464.32
597.20	46717.09
597.36	46560.28
597.51	46562.62
597.67	46595.38
597.83	46389.42
597.99	46920.72
598.14	46447.93
598.30	46274.73
598.46	46099.19
598.61	46569.64
598.77	46188.13
598.93	46684.33
599.09	46541.55
599.24	46967.53
599.40	46981.57
599.56	46609.43
599.71	46623.47
599.87	46660.92
600.03	46679.64
600.18	46246.65
600.34	46454.95
600.50	46405.80
600.65	46169.41
600.81	46803.69
600.97	46281.75
601.12	46672.62
601.28	46340.27
601.44	46349.63
601.59	46424.53
601.75	46344.95
601.91	46396.44
602.06	46354.31
602.22	46677.30
602.37	46419.84
602.53	46263.03
602.69	46419.84
602.84	46321.54
603.00	46445.59
603.16	46206.86
603.31	46490.06
603.47	46801.35
603.62	46373.03
603.78	46398.78
603.94	46377.72
604.09	46843.48
604.25	46543.89
604.40	46050.04
604.56	46658.58
604.71	46309.84
604.87	46279.41
605.03	46447.93
605.18	46443.25
605.34	46263.03
605.49	46078.13
605.65	46124.94
605.80	46146.00
605.96	46216.22
606.12	46478.36
606.27	46265.37
606.43	46351.97
606.58	46333.24
606.74	46122.60
606.89	46033.66
607.05	46300.48
607.20	46600.07
607.36	46103.87
607.51	46476.02
607.67	46028.98
607.82	46181.11
607.98	45837.05
608.13	46040.68
608.29	45450.86
608.44	45422.78
608.60	45801.94
608.75	46347.29
608.91	46043.02
609.06	45780.88
609.22	46033.66
609.37	45675.55
609.53	46277.07
609.68	45844.07
609.84	45670.87
609.99	45649.81
610.15	45497.67
610.30	45780.88
610.46	45453.20
610.61	45614.70
610.76	45727.05
610.92	46206.86
611.07	45853.44
611.23	45703.64
611.38	45771.52
611.54	45724.71
611.69	45244.90
611.84	45511.72
612.00	45226.17
612.15	45371.28
612.31	45727.05
612.46	45769.18
612.62	45846.41
612.77	45593.64
612.92	45806.62
613.08	45668.53
613.23	45425.12
613.39	45148.93
613.54	44966.37
613.69	45338.52
613.85	45598.32
614.00	45549.17
614.15	45467.25
614.31	45340.86
614.46	45544.48
614.62	44982.76
614.77	45523.42
614.92	45605.34
615.08	44992.12
615.23	44919.56
615.38	45209.79
615.54	45067.02
615.69	45528.10
615.84	44814.24
616.00	45144.25
616.15	45059.99
616.30	45399.37
616.46	45008.50
616.61	44453.79
616.76	45031.91
616.92	44538.05
617.07	44900.84
617.22	44662.10
617.37	45034.25
617.53	44715.93
617.68	44968.71
617.83	44713.59
617.99	44570.82
618.14	45127.87
618.29	44474.86
618.45	44318.04
618.60	44683.17
618.75	44563.80
618.90	44580.18
619.06	44165.91
619.21	44289.96
619.36	44725.30
619.51	44095.69
619.67	44175.27
619.82	44137.82
619.97	44055.90
620.12	43924.83
620.28	44196.34
620.43	44315.70
620.58	44690.19
620.73	44048.88
620.89	44535.71
621.04	44397.62
621.19	44463.16
621.34	44367.20
621.49	43990.37
621.65	43882.70
621.80	44421.03
621.95	43690.78
622.10	44479.54
622.25	44037.18
622.41	44105.06
622.56	43653.33
622.71	44191.65
622.86	43770.36
623.01	44091.01
623.16	43683.76
623.32	43852.28
623.47	43566.73
623.62	44163.57
623.77	43817.17
623.92	43725.89
624.07	43643.97
624.23	43332.68
624.38	43655.67
624.53	43409.92
624.68	44137.82
624.83	43913.13
624.98	42983.94
625.13	43475.45
625.29	43234.38
625.44	43725.89
625.59	43232.04
625.74	43093.94
625.89	43192.25
626.04	42899.68
626.19	43337.36
626.34	43236.72
626.49	43372.47
626.65	43026.07
626.80	43157.14
626.95	42904.36
627.10	42887.98
627.25	42911.38
627.40	42536.90
627.55	42972.24
627.70	42593.07
627.85	42674.99
628.00	42930.11
628.15	42937.13
628.30	42649.24
628.45	42672.65
628.60	42878.61
628.76	42890.32
628.91	42431.57
629.06	42354.33
629.21	42759.25
629.36	42501.79
629.51	42347.31
629.66	42550.94
629.81	42513.49
629.96	42363.70
630.11	42272.42
630.26	42642.22
630.41	42492.43
630.56	42501.79
630.71	42581.37
630.86	42483.06
631.01	42279.44
631.16	42103.90
631.31	41886.23
631.46	41968.15
631.61	41706.01
631.76	42012.62
631.91	42232.63
632.06	42780.31
632.21	42052.41
632.36	42330.93
632.51	42057.09
632.66	41897.93
632.81	41916.65
632.96	42113.26
633.10	41893.25
633.25	41734.09
633.40	42291.14
633.55	42134.32
633.70	41832.39
633.85	41750.48
634.00	41937.72
634.15	41497.70
634.30	41455.57
634.45	41560.89
634.60	41813.67
634.75	41214.49
634.90	41551.53
635.05	41057.68
635.19	41483.66
635.34	41706.01
635.49	41373.65
635.64	41776.22
635.79	41607.70
635.94	41184.07
636.09	41258.96
636.24	41486.00
636.39	41336.20
636.53	41525.78
636.68	40996.82
636.83	40755.75
636.98	41326.84
637.13	41462.59
637.28	41287.05
637.43	41151.30
637.57	41340.88
637.72	41200.45
637.87	41471.95
638.02	41221.52
638.17	41045.97
638.32	41202.79
638.46	41174.70
638.61	40502.97
638.76	40657.45
638.91	40996.82
639.06	40980.44
639.20	40732.34
639.35	40886.82
639.50	40748.73
639.65	41214.49
639.80	40928.95
639.94	40598.93
640.09	40594.25
640.24	40477.22
640.39	40430.41
640.54	40334.45
640.68	40673.83
640.83	40210.40
640.98	40254.87
641.13	40163.59
641.27	41006.19
641.42	40091.04
641.57	40610.64
641.72	40449.14
641.86	40381.26
642.01	40048.91
642.16	40264.24
642.31	40158.91
642.45	40320.41
642.60	40219.77
642.75	40250.19
642.90	40088.70
643.04	40257.21
643.19	40205.72
643.34	39828.90
643.48	39508.24
643.63	39871.03
643.78	39576.12
643.93	40168.27
644.07	40084.01
644.22	39997.41
644.37	39763.36
644.51	40093.38
644.66	39938.90
644.81	39728.25
644.95	40098.06
645.10	40257.21
645.25	40306.37
645.39	39847.62
645.54	39828.90
645.69	39370.15
645.83	39683.78
645.98	40058.27
646.13	39505.90
646.27	39543.35
646.42	39475.48
646.57	39580.80
646.71	39421.64
646.86	39384.19
647.00	39578.46
647.15	39255.46
647.30	39005.03
647.44	39332.70
647.59	39213.34
647.74	39105.67
647.88	39040.14
648.03	39276.53
648.17	38930.13
648.32	39131.42
648.47	39026.09
648.61	39349.09
648.76	39585.48
648.90	38953.54
649.05	39276.53
649.20	39337.38
649.34	39215.68
649.49	38478.41
649.63	38911.41
649.78	38941.83
649.92	39126.74
650.07	39227.38
650.21	38864.60
650.36	39152.48
650.51	38794.38
650.65	38827.15
650.80	39384.19
650.94	39309.30
651.09	39019.07
651.23	38408.19
651.38	38431.60
651.52	38312.23
651.67	38377.76
651.81	38836.51
651.96	38682.03
652.10	38754.59
652.25	38557.99
652.39	38660.97
652.54	38440.96
652.68	38363.72
652.83	39040.14
652.97	39122.05
653.12	38487.77
653.26	38036.05
653.41	38078.18
653.55	38251.38
653.70	38635.22
653.84	38328.61
653.99	38136.69
654.13	37947.11
654.27	38342.66
654.42	38139.03
654.56	38625.86
654.71	38204.56
654.85	37691.99
655.00	37715.39
655.14	37886.25
655.29	37340.91
655.43	37804.33
655.57	37656.88
655.72	37209.84
655.86	37397.08
656.01	37312.82
656.15	37383.04
656.30	37193.45
656.44	37357.29
656.58	37713.05
656.73	37153.66
656.87	37413.46
657.01	37003.87
657.16	37385.38
657.30	36950.04
657.45	37027.28
657.59	37659.22
657.73	37394.74
657.88	37619.43
658.02	37764.54
658.16	37909.66
658.31	37514.11
658.45	37392.40
658.60	37120.90
658.74	37642.84
658.88	37294.10
659.03	37294.10
659.17	36950.04
659.31	36645.77
659.46	36973.44
659.60	37097.49
659.74	36982.80
659.89	36385.97
660.03	36809.61
660.17	37324.52
660.32	36718.32
660.46	36807.26
660.60	36292.35
660.74	36521.72
660.89	37205.16
661.03	36273.62
661.17	36755.77
661.32	36182.34
661.46	36285.33
661.60	36126.17
661.74	35981.06
661.89	36299.37
662.03	36486.61
662.17	36055.95
662.31	36025.53
662.46	36652.79
662.60	36219.79
662.74	35971.69
662.88	35924.88
663.03	35681.47
663.17	35861.69
663.31	35929.56
663.45	35772.75
663.60	35985.74
663.74	35782.11
663.88	35311.66
664.02	35585.50
664.17	35969.35
664.31	35353.79
664.45	35250.81
664.59	35314.00
664.73	35054.20
664.88	35517.63
665.02	34941.86
665.16	35133.78
665.30	34536.94
665.44	34827.17
665.59	34291.19
665.73	35026.12
665.87	34553.33
666.01	34728.87
666.15	34756.96
666.29	34660.99
666.44	34752.27
666.58	34284.17
666.72	34529.92
666.86	34532.26
667.00	34691.42
667.14	34204.59
667.28	34185.86
667.43	34548.65
667.57	34291.19
667.71	34249.06
667.85	34539.29
667.99	34274.80
668.13	34169.48
668.27	34401.19
668.41	34258.42
668.56	33792.65
668.70	33935.43
668.84	33766.91
668.98	33099.86
669.12	33607.75
669.26	33729.46
669.40	33319.87
669.54	33413.49
669.68	33509.45
669.82	33071.77
669.96	33296.46
670.10	33523.49
670.25	33113.90
670.39	32879.85
670.53	33046.02
670.67	32797.93
670.81	32643.45
670.95	32830.69
671.09	32760.48
671.23	32524.08
671.37	32638.77
671.51	32582.60
671.65	32451.53
671.79	32334.50
671.93	32273.65
672.07	32371.95
672.21	32350.88
672.35	32624.73
672.49	32095.77
672.63	32189.39
672.77	32261.94
672.91	32116.83
673.05	31791.50
673.19	32039.59
673.33	31599.57
673.47	31786.82
673.61	31522.34
673.75	31356.16
673.89	31351.48
674.03	31508.29
674.17	31487.23
674.31	31358.50
674.45	31426.37
674.59	31264.88
674.73	31700.22
674.87	31051.89
675.01	30918.48
675.15	31096.36
675.29	31007.42
675.43	31012.10
675.56	30558.03
675.70	30792.09
675.84	30859.96
675.98	29326.91
676.12	29947.15
676.26	30476.12
676.40	30551.01
676.54	30852.94
676.68	30604.84
676.82	29692.04
676.96	29778.64
677.10	30033.75
677.23	29539.90
677.37	29888.64
677.51	29619.48
677.65	29556.28
677.79	29151.37
677.93	29195.84
678.07	28917.32
678.21	28842.42
678.34	28563.90
678.48	28713.69
678.62	28524.11
678.76	28545.17
678.90	28769.86
679.04	28496.02
679.18	28278.35
679.31	28093.45
679.45	28486.66
679.59	28121.54
679.73	28109.83
679.87	28098.13
680.00	27964.72
680.14	27803.22
680.28	27580.87
680.42	27623.00
680.56	27644.07
680.70	27754.07
680.83	27520.02
680.97	27208.73
681.11	27323.41
681.25	27290.65
681.39	26991.06
681.52	27133.83
681.66	27012.12
681.80	26689.13
681.94	26539.33
682.07	26693.81
682.21	26436.35
682.35	26593.17
682.49	26293.58
682.62	26408.26
682.76	26132.08
682.90	26015.05
683.04	25853.56
683.17	26122.72
683.31	25699.08
683.45	25940.16
683.59	25961.22
683.72	26092.29
683.86	25820.79
684.00	25495.46
684.13	25418.22
684.27	24985.22
684.41	25577.37
684.55	25034.37
684.68	25319.92
684.82	25092.88
684.96	24952.45
685.09	24919.68
685.23	24718.40
685.37	24622.44
685.50	24886.92
685.64	24641.16
685.78	24524.13
685.91	24336.89
686.05	24053.69
686.19	23571.54
686.32	23847.72
686.46	23901.55
686.60	23161.94
686.73	23300.03
686.87	23108.11
687.01	22986.40
687.14	23000.44
687.28	23138.54
687.42	22988.74
687.55	23117.47
687.69	23119.81
687.82	23089.38
687.96	23183.01
688.10	22923.21
688.23	22649.36
688.37	22684.47
688.50	22438.72
688.64	22335.73
688.78	22665.75
688.91	22085.30
689.05	22267.86
689.18	21771.66
689.32	21596.12
689.46	22431.69
689.59	22506.59
689.73	22298.28
689.86	21748.26
690.00	21675.70
690.13	21638.25
690.27	21259.09
690.41	21137.38
690.54	21228.66
690.68	21495.48
690.81	21476.76
690.95	21219.30
691.08	21008.65
691.22	21205.25
691.35	21022.69
691.49	21170.15
691.62	20886.94
691.76	20781.62
691.89	20882.26
692.03	20379.04
692.16	20695.02
692.30	20615.44
692.43	20554.58
692.57	20397.77
692.70	20086.48
692.84	19917.96
692.97	20063.07
693.11	19882.85
693.24	19688.59
693.38	19538.79
693.51	19803.27
693.65	19751.78
693.78	19566.88
693.92	19417.08
694.05	19349.21
694.19	19147.92
694.32	19531.77
694.45	19204.10
694.59	19225.16
694.72	19264.95
694.86	19005.15
694.99	18806.20
695.13	18782.80
695.26	18527.68
695.39	18799.18
695.53	18703.22
695.66	18508.96
695.80	18448.10
695.93	18256.18
696.07	18572.15
696.20	18277.24
696.33	18363.84
696.47	17942.55
696.60	17984.68
696.73	18024.47
696.87	17905.10
697.00	17996.38
697.14	17352.73
697.27	17696.79
697.40	17420.61
697.54	17212.30
697.67	17303.58
697.80	17177.19
697.94	17027.40
698.07	17209.96
698.21	17041.44
698.34	17385.50
698.47	17167.83
698.61	16847.18
698.74	16819.09
698.87	16847.18
699.01	16507.80
699.14	16285.45
699.27	16133.31
699.40	16559.29
699.54	16397.79
699.67	15974.16
699.80	16294.81
699.94	16329.92
700.07	16147.36
700.20	16240.98
700.34	16009.26
700.47	16006.92
700.60	15948.41
700.73	15721.38
700.87	15866.49
701.00	15599.67
701.13	15807.98
701.26	15218.16
701.40	15543.50
701.53	15419.45
701.66	15353.91
701.79	15033.26
701.93	15019.22
702.06	14967.73
702.19	15005.17
702.32	14934.96
702.46	14869.42
702.59	15007.52
702.72	14740.69
702.85	14951.34
702.99	14398.98
703.12	14560.47
703.25	14398.98
703.38	14698.56
703.51	14455.15
703.65	14504.30
703.78	14019.81
703.91	14059.60
704.04	13984.70
704.17	13919.17
704.31	13809.16
704.44	13621.92
704.57	14036.19
704.70	13460.42
704.83	13453.40
704.96	13734.26
705.10	13720.22
705.23	13565.74
>>>>>End Processed Spectral Data<<<<<
