SpectraSuite Data File
++++++++++++++++++++++++++++++++++++
Date: Fri Oct 25 11:34:15 EDT 2013
User: price-jones
Dark Spectrum Present: No
Reference Spectrum Present: No
Number of Sampled Component Spectra: 1
Spectrometers: USB2+H05261
Integration Time (usec): 100000 (USB2+H05261)
Spectra Averaged: 1 (USB2+H05261)
Boxcar Smoothing: 0 (USB2+H05261)
Correct for Electrical Dark: No (USB2+H05261)
Strobe/Lamp Enabled: No (USB2+H05261)
Correct for Detector Non-linearity: No (USB2+H05261)
Correct for Stray Light: No (USB2+H05261)
Number of Pixels in Processed Spectrum: 2048
>>>>>Begin Processed Spectral Data<<<<<
365.73	287.89
365.92	287.89
366.12	287.89
366.32	241.08
366.52	142.77
366.72	222.35
366.91	168.52
367.11	205.97
367.31	152.13
367.51	170.86
367.70	168.52
367.90	189.58
368.10	227.03
368.30	152.13
368.49	184.90
368.69	182.56
368.89	168.52
369.09	196.60
369.28	161.50
369.48	177.88
369.68	250.44
369.87	212.99
370.07	220.01
370.27	339.38
370.47	299.59
370.66	496.19
370.86	521.94
371.06	571.09
371.25	620.24
371.45	533.64
371.65	589.82
371.84	475.13
372.04	535.98
372.24	521.94
372.44	557.05
372.63	589.82
372.83	645.99
373.03	554.71
373.22	594.50
373.42	648.33
373.62	657.69
373.81	606.20
374.01	643.65
374.21	674.07
374.40	601.52
374.60	653.01
374.79	617.90
374.99	620.24
375.19	720.88
375.38	636.63
375.58	692.80
375.78	678.76
375.97	631.94
376.17	667.05
376.37	676.41
376.56	599.18
376.76	667.05
376.95	671.73
377.15	702.16
377.35	692.80
377.54	744.29
377.74	657.69
377.93	648.33
378.13	744.29
378.33	777.06
378.52	753.65
378.72	638.97
378.91	763.01
379.11	758.33
379.31	772.38
379.50	636.63
379.70	720.88
379.89	748.97
380.09	657.69
380.28	704.50
380.48	723.23
380.68	798.12
380.87	734.93
381.07	741.95
381.26	692.80
381.46	737.27
381.65	786.42
381.85	739.61
382.04	842.59
382.24	819.19
382.43	662.37
382.63	697.48
382.83	734.93
383.02	819.19
383.22	863.66
383.41	835.57
383.61	791.10
383.80	816.85
384.00	734.93
384.19	826.21
384.39	798.12
384.58	791.10
384.78	786.42
384.97	821.53
385.17	863.66
385.36	798.12
385.56	765.36
385.75	858.98
385.95	828.55
386.14	849.61
386.34	821.53
386.53	880.04
386.72	875.36
386.92	896.43
387.11	943.24
387.31	891.74
387.50	894.08
387.70	807.48
387.89	833.23
388.09	854.30
388.28	866.00
388.48	912.81
388.67	856.64
388.86	884.72
389.06	903.45
389.25	887.06
389.45	936.21
389.64	844.93
389.84	985.37
390.03	973.66
390.22	968.98
390.42	964.30
390.61	1004.09
390.81	954.94
391.00	1004.09
391.19	1011.11
391.39	997.07
391.58	1076.65
391.78	1029.84
391.97	987.71
392.16	1100.05
392.36	1050.90
392.55	1081.33
392.75	1095.37
392.94	1060.26
393.13	1062.60
393.33	1107.07
393.52	1029.84
393.71	1036.86
393.91	1111.75
394.10	1074.31
394.29	1163.25
394.49	1153.88
394.68	1057.92
394.88	1015.79
395.07	1111.75
395.26	1188.99
395.46	1181.97
395.65	1095.37
395.84	1153.88
396.04	1254.53
396.23	1151.54
396.42	1193.67
396.62	1167.93
396.81	1146.86
397.00	1217.08
397.19	1186.65
397.39	1107.07
397.58	1226.44
397.77	1188.99
397.97	1249.85
398.16	1217.08
398.35	1287.29
398.55	1320.06
398.74	1259.21
398.93	1315.38
399.12	1261.55
399.32	1203.04
399.51	1259.21
399.70	1418.36
399.90	1334.11
400.09	1289.64
400.28	1331.76
400.47	1350.49
400.67	1404.32
400.86	1448.79
401.05	1418.36
401.24	1430.07
401.44	1355.17
401.63	1409.00
401.82	1444.11
402.01	1521.35
402.21	1523.69
402.40	1547.09
402.59	1556.46
402.78	1607.95
402.97	1451.13
403.17	1596.25
403.36	1493.26
403.55	1495.60
403.74	1502.62
403.93	1621.99
404.13	1582.20
404.32	1549.43
404.51	1593.90
404.70	1640.72
404.89	1598.59
405.09	1647.74
405.28	1650.08
405.47	1572.84
405.66	1675.82
405.85	1675.82
406.05	1687.53
406.24	1734.34
406.43	1750.72
406.62	1799.87
406.81	1689.87
407.00	1795.19
407.20	1748.38
407.39	1774.13
407.58	1755.40
407.77	1916.90
407.96	1865.41
408.15	1944.99
408.34	1781.15
408.54	1977.75
408.73	1853.70
408.92	1813.92
409.11	1907.54
409.30	2043.29
409.49	1998.82
409.68	1982.43
409.87	1968.39
410.07	1970.73
410.26	2094.78
410.45	2001.16
410.64	1980.09
410.83	2076.06
411.02	2104.14
411.21	2183.72
411.40	2132.23
411.59	2169.68
411.78	2125.21
411.98	2085.42
412.17	2090.10
412.36	2228.19
412.55	2193.08
412.74	2162.66
412.93	2345.22
413.12	2239.89
413.31	2284.36
413.50	2340.54
413.69	2403.73
413.88	2523.10
414.07	2373.30
414.26	2422.45
414.45	2431.82
414.64	2427.14
414.83	2450.54
415.02	2485.65
415.22	2588.63
415.41	2534.80
415.60	2544.16
415.79	2630.76
415.98	2663.53
416.17	2555.86
416.36	2593.31
416.55	2686.94
416.74	2654.17
416.93	2738.43
417.12	2757.15
417.31	2850.77
417.50	2843.75
417.69	2899.92
417.88	3019.29
418.07	2970.14
418.26	2782.90
418.45	2820.35
418.64	2867.16
418.83	2920.99
419.02	2930.35
419.21	3042.70
419.39	3005.25
419.58	3026.31
419.77	2972.48
419.96	2979.50
420.15	3021.63
420.34	3180.79
420.53	3014.61
420.72	3187.81
420.91	3232.28
421.10	3227.60
421.29	3286.11
421.48	3197.17
421.67	3215.90
421.86	3169.09
422.05	3358.67
422.24	3227.60
422.43	3220.58
422.61	3265.05
422.80	3424.20
422.99	3293.13
423.18	3281.43
423.37	3349.31
423.56	3269.73
423.75	3316.54
423.94	3232.28
424.13	3180.79
424.32	3197.17
424.50	3421.86
424.69	3400.80
424.88	3440.59
425.07	3342.28
425.26	3288.45
425.45	3295.47
425.64	3260.37
425.83	3166.74
426.01	3356.33
426.20	3515.48
426.39	3407.82
426.58	3206.53
426.77	3384.41
426.96	3510.80
427.15	3372.71
427.33	3487.40
427.52	3485.06
427.71	3449.95
427.90	3440.59
428.09	3382.07
428.28	3627.83
428.46	3499.10
428.65	3548.25
428.84	3655.92
429.03	3634.85
429.22	3662.94
429.40	3583.36
429.59	3676.98
429.78	3564.64
429.97	3503.78
430.16	3726.13
430.34	3782.31
430.53	3824.44
430.72	3775.28
430.91	3817.41
431.10	3719.11
431.28	3700.39
431.47	3838.48
431.66	3810.39
431.85	4098.28
432.03	4009.34
432.22	3971.89
432.41	3887.63
432.60	3819.75
432.79	4032.74
432.97	4016.36
433.16	4039.76
433.35	3978.91
433.54	3957.85
433.72	4138.07
433.91	4063.17
434.10	4042.11
434.28	4107.64
434.47	4021.04
434.66	4250.41
434.85	4109.98
435.03	4234.03
435.22	4140.41
435.41	4301.90
435.59	4243.39
435.78	4449.36
435.97	4264.46
436.16	4243.39
436.34	4402.55
436.53	4280.84
436.72	4510.21
436.90	4353.40
437.09	4383.82
437.28	4304.25
437.46	4308.93
437.65	4535.96
437.84	4521.92
438.02	4477.44
438.21	4601.49
438.40	4430.63
438.58	4498.51
438.77	4788.74
438.96	4610.86
439.14	4720.86
439.33	4690.43
439.52	4758.31
439.70	4809.80
439.89	4784.06
440.08	4713.84
440.26	4873.00
440.45	5022.79
440.63	4840.23
440.82	5015.77
441.01	5027.47
441.19	5184.29
441.38	4980.66
441.57	5001.72
441.75	5100.03
441.94	5172.58
442.12	5200.67
442.31	5397.28
442.50	5277.91
442.68	5259.18
442.87	5455.79
443.05	5231.10
443.24	5521.32
443.43	5287.27
443.61	5305.99
443.80	5507.28
443.98	5280.25
444.17	5235.78
444.35	5350.46
444.54	5708.57
444.73	5385.57
444.91	5373.87
445.10	5502.60
445.28	5413.66
445.47	5544.73
445.65	5516.64
445.84	5483.88
446.02	5699.20
446.21	5724.95
446.39	5591.54
446.58	5731.97
446.77	5694.52
446.95	5486.22
447.14	5659.42
447.32	5720.27
447.51	5542.39
447.69	5687.50
447.88	5650.05
448.06	5549.41
448.25	5736.65
448.43	5755.38
448.62	5535.37
448.80	5673.46
448.99	5713.25
449.17	5872.40
449.36	5692.18
449.54	5776.44
449.73	5935.60
449.91	5907.51
450.10	5970.71
450.28	5970.71
450.46	6019.86
450.65	6038.58
450.83	5802.19
451.02	6043.26
451.20	6122.84
451.39	5966.03
451.57	6017.52
451.76	5954.32
451.94	6015.18
452.13	6218.80
452.31	6127.52
452.49	6010.50
452.68	6202.42
452.86	5937.94
453.05	6188.38
453.23	6394.34
453.42	6104.12
453.60	6127.52
453.78	6307.74
453.97	6167.31
454.15	6239.87
454.34	6174.33
454.52	6251.57
454.70	6436.47
454.89	6274.98
455.07	6469.24
455.26	6466.90
455.44	6464.56
455.62	6553.50
455.81	6469.24
455.99	6502.01
456.17	6801.60
456.36	6693.93
456.54	6813.30
456.73	6670.53
456.91	6773.51
457.09	6867.13
457.28	6839.05
457.46	6825.00
457.64	6923.30
457.83	6836.70
458.01	6700.95
458.19	6951.39
458.38	6960.75
458.56	6850.75
458.74	6857.77
458.93	6963.09
459.11	7080.12
459.29	7087.14
459.48	6904.58
459.66	6923.30
459.84	7171.40
460.03	7173.74
460.21	6932.67
460.39	7150.34
460.57	7328.22
460.76	7152.68
460.94	7396.09
461.12	7363.33
461.31	7176.08
461.49	7311.83
461.67	7098.84
461.85	7480.35
462.04	7524.82
462.22	7810.37
462.40	7522.48
462.59	7545.89
462.77	7508.44
462.95	7630.15
463.13	7473.33
463.32	7337.58
463.50	7583.34
463.68	7691.00
463.86	7683.98
464.05	7639.51
464.23	7716.75
464.41	7786.96
464.59	7602.06
464.78	7875.90
464.96	7831.43
465.14	7751.85
465.32	7826.75
465.50	7882.92
465.69	7782.28
465.87	8023.36
466.05	7955.48
466.23	7936.76
466.41	7988.25
466.60	8212.94
466.78	7903.99
466.96	8039.74
467.14	7946.12
467.32	8025.70
467.51	8161.45
467.69	7934.42
467.87	8065.49
468.05	8102.93
468.23	8215.28
468.41	8196.56
468.60	7941.44
468.78	8229.32
468.96	8215.28
469.14	8465.72
469.32	8332.31
469.50	7978.89
469.69	8322.94
469.87	8716.16
470.05	8500.83
470.23	8655.30
470.41	8482.10
470.59	8718.50
470.77	8748.92
470.95	8360.39
471.14	8587.43
471.32	8477.42
471.50	8676.37
471.68	8837.86
471.86	8610.83
472.04	8879.99
472.22	9139.79
472.40	8741.90
472.58	8823.82
472.77	9132.77
472.95	8990.00
473.13	9341.08
473.31	9036.81
473.49	9074.26
473.67	9011.06
473.85	9163.20
474.03	9652.37
474.21	9586.83
474.39	9549.39
474.57	9373.85
474.75	9542.36
474.93	9643.01
475.12	9579.81
475.30	9926.21
475.48	9844.29
475.66	9795.14
475.84	9895.78
476.02	9837.27
476.20	9778.76
476.38	10265.59
476.56	10195.37
476.74	10169.63
476.92	10258.57
477.10	10176.65
477.28	10459.85
477.46	10516.03
477.64	10579.22
477.82	10843.70
478.00	10913.92
478.18	10820.30
478.36	10729.02
478.54	10698.59
478.72	11023.92
478.90	11229.89
479.08	11250.96
479.26	11279.04
479.44	11386.71
479.62	11417.13
479.80	11524.80
479.98	11702.68
480.16	12037.38
480.34	11730.76
480.52	11969.50
480.70	11651.19
480.88	11648.85
481.06	12081.85
481.24	11946.09
481.41	12479.74
481.59	12496.12
481.77	12636.55
481.95	12531.23
482.13	12594.42
482.31	12774.64
482.49	13018.06
482.67	13111.68
482.85	12872.95
483.03	13294.24
483.21	13329.35
483.39	13434.68
483.57	13369.14
483.74	13298.92
483.92	13673.41
484.10	13600.85
484.28	14083.00
484.46	14071.30
484.64	14361.53
484.82	14040.87
485.00	14342.80
485.18	14590.90
485.35	14675.16
485.53	14487.92
485.71	14679.84
485.89	14927.94
486.07	14850.70
486.25	14696.22
486.43	14815.59
486.61	15463.92
486.78	15063.69
486.96	15410.09
487.14	15875.85
487.32	15932.03
487.50	15868.83
487.68	15688.61
487.85	16243.32
488.03	16395.45
488.21	16491.41
488.39	16308.85
488.57	16673.98
488.75	16510.14
488.92	16945.48
489.10	17006.33
489.28	16996.97
489.46	17193.58
489.64	17219.32
489.81	17514.23
489.99	17369.12
490.17	17844.24
490.35	17563.38
490.53	18085.32
490.70	18171.92
490.88	17872.33
491.06	18286.61
491.24	18462.15
491.41	18340.44
491.59	18508.96
491.77	18546.40
491.95	18794.50
492.13	18817.91
492.30	18981.74
492.48	19098.77
492.66	19475.60
492.84	19283.67
493.01	19363.25
493.19	19709.65
493.37	19489.64
493.54	19908.60
493.72	20128.61
493.90	19747.10
494.08	20240.95
494.25	20423.51
494.43	20311.17
494.61	20292.44
494.79	20786.30
494.96	20664.59
495.14	20671.61
495.32	20908.01
495.49	20709.06
495.67	21048.44
495.85	21083.55
496.02	21385.47
496.20	21465.05
496.38	21563.36
496.55	21776.34
496.73	22134.45
496.91	21750.60
497.09	22015.08
497.26	21841.88
497.44	22253.81
497.62	22349.78
497.79	22717.24
497.97	22398.93
498.14	22897.46
498.32	23007.47
498.50	23035.55
498.67	23489.62
498.85	23147.90
499.03	22925.55
499.20	23199.39
499.38	23400.68
499.56	23480.25
499.73	23534.09
499.91	23800.91
500.08	23931.98
500.26	24027.94
500.44	23981.13
500.61	24023.26
500.79	24081.77
500.97	24250.29
501.14	24706.70
501.32	24425.83
501.49	24608.39
501.67	24589.67
501.84	24706.70
502.02	24554.56
502.20	24929.05
502.37	24865.85
502.55	24823.72
502.72	25062.46
502.90	25067.14
503.07	25268.42
503.25	25198.21
503.43	25099.90
503.60	25467.37
503.78	25706.10
503.95	25476.73
504.13	25722.49
504.30	25935.48
504.48	25645.25
504.65	25984.63
504.83	26103.99
505.01	26127.40
505.18	26291.24
505.36	26506.57
505.53	26092.29
505.71	26747.64
505.88	26672.74
506.06	26396.56
506.23	26520.61
506.41	26778.07
506.58	26780.41
506.76	26892.76
506.93	27171.28
507.11	26993.40
507.28	27178.30
507.46	27475.55
507.63	27330.44
507.81	27557.47
507.98	27393.63
508.16	27304.69
508.33	27452.14
508.50	27379.59
508.68	27824.29
508.85	28278.35
509.03	27915.57
509.20	27896.85
509.38	28285.37
509.55	27931.95
509.73	28458.57
509.90	28264.31
510.08	28325.16
510.25	28992.22
510.42	28690.29
510.60	28900.94
510.77	28709.01
510.95	29097.54
511.12	28886.89
511.30	29247.33
511.47	29273.08
511.64	29184.14
511.82	29324.57
511.99	29252.02
512.17	29764.59
512.34	29687.36
512.51	29940.13
512.69	30235.04
512.86	29734.17
513.04	30082.91
513.21	30075.88
513.38	29883.96
513.56	30419.94
513.73	29851.19
513.90	30183.55
514.08	30141.42
514.25	30445.69
514.43	30457.39
514.60	30712.51
514.77	30223.34
514.95	30623.57
515.12	30862.30
515.29	30827.20
515.47	30995.71
515.64	30960.61
515.81	31225.09
515.99	30813.15
516.16	31482.55
516.33	31159.55
516.51	31365.52
516.68	31161.89
516.85	31747.03
517.03	31910.86
517.20	31814.90
517.37	31360.84
517.54	32044.27
517.72	31906.18
517.89	32224.50
518.06	31955.33
518.24	32020.87
518.41	32037.25
518.58	32058.32
518.75	31936.61
518.93	32245.56
519.10	32343.86
519.27	32507.70
519.45	32737.07
519.62	32924.32
519.79	32531.11
519.96	32708.99
520.14	32517.06
520.31	32795.59
520.48	33137.30
520.65	32830.69
520.83	33392.42
521.00	33205.18
521.17	33170.07
521.34	33401.79
521.52	33663.93
521.69	33619.46
521.86	33666.27
522.03	33862.87
522.20	33617.11
522.38	33909.68
522.55	34242.04
522.72	33589.03
522.89	34253.74
523.07	34373.11
523.24	34328.64
523.41	34653.97
523.58	34038.41
523.75	34162.46
523.92	34127.35
524.10	34476.09
524.27	34553.33
524.44	34712.49
524.61	34759.30
524.78	34927.81
524.96	34508.86
525.13	34829.51
525.30	35274.21
525.47	35442.73
525.64	34972.28
525.81	35601.89
525.98	35302.30
526.16	35405.28
526.33	34948.88
526.50	35248.47
526.67	35185.27
526.84	35288.26
527.01	35648.70
527.18	35564.44
527.36	35620.61
527.53	35810.20
527.70	35983.40
527.87	36247.88
528.04	35878.07
528.21	36095.74
528.38	36093.40
528.55	36194.04
528.72	36135.53
528.89	35938.93
529.07	35833.60
529.24	36093.40
529.41	36362.56
529.58	36622.36
529.75	36016.16
529.92	36872.80
530.09	36608.32
530.26	36411.71
530.43	36762.79
530.60	36428.10
530.77	36435.12
530.94	36891.52
531.11	36369.58
531.28	36603.64
531.46	36989.83
531.63	37123.24
531.80	36919.61
531.97	36957.06
532.14	37394.74
532.31	37298.78
532.48	37404.10
532.65	37486.02
532.82	37406.44
532.99	37373.67
533.16	37347.93
533.33	37099.83
533.50	37556.24
533.67	37776.25
533.84	37277.71
534.01	37811.35
534.18	37675.60
534.35	38047.75
534.52	38274.78
534.69	38204.56
534.86	37975.19
535.03	37991.58
535.20	38361.38
535.37	38398.83
535.54	38904.38
535.71	38075.84
535.88	38398.83
536.05	38476.07
536.22	38806.08
536.38	38469.04
536.55	38600.12
536.72	38625.86
536.89	38455.00
537.06	38642.24
537.23	38841.19
537.40	38443.30
537.57	38672.67
537.74	38679.69
537.91	38799.06
538.08	38953.54
538.25	38651.61
538.42	38948.85
538.59	39187.59
538.75	39138.44
538.92	39129.08
539.09	39218.02
539.26	39264.83
539.43	39342.06
539.60	39800.81
539.77	39253.12
539.94	39358.45
540.11	39332.70
540.28	39014.39
540.44	39210.99
540.61	39690.80
540.78	39377.17
540.95	39194.61
541.12	39548.03
541.29	39559.73
541.46	39594.84
541.62	39803.15
541.79	39894.43
541.96	39585.48
542.13	39971.67
542.30	39922.52
542.47	40079.33
542.63	39885.07
542.80	40486.59
542.97	40781.49
543.14	40966.40
543.31	41024.91
543.48	40444.46
543.64	40868.09
543.81	41081.08
543.98	40699.58
544.15	40715.96
544.32	41092.79
544.48	41273.01
544.65	41024.91
544.82	41144.28
544.99	40701.92
545.16	41165.34
545.32	40896.18
545.49	41546.85
545.66	41502.38
545.83	41546.85
546.00	41368.97
546.16	40950.01
546.33	41216.83
546.50	40472.54
546.67	41263.64
546.83	41078.74
547.00	41387.69
547.17	41326.84
547.34	41642.81
547.50	41890.91
547.67	41504.72
547.84	41570.25
548.00	41544.51
548.17	42146.03
548.34	41956.44
548.51	42291.14
548.67	41944.74
548.84	41926.02
549.01	41762.18
549.18	42085.17
549.34	42260.71
549.51	41710.69
549.68	42131.98
549.84	41876.86
550.01	42431.57
550.18	41928.36
550.34	42405.83
550.51	42550.94
550.68	42646.90
550.84	41603.02
551.01	42368.38
551.18	42134.32
551.34	42382.42
551.51	42424.55
551.68	42211.56
551.84	42499.45
552.01	42131.98
552.18	42478.38
552.34	42347.31
552.51	42899.68
552.68	42487.74
552.84	42600.09
553.01	42728.82
553.18	42974.58
553.34	43269.48
553.51	42897.34
553.67	43400.55
553.84	42808.40
554.01	43007.34
554.17	42859.89
554.34	43419.28
554.51	43337.36
554.67	43208.63
554.84	43035.43
555.00	43098.62
555.17	43243.74
555.33	43461.41
555.50	43564.39
555.67	43363.11
555.83	43871.00
556.00	43594.82
556.16	43845.26
556.33	43456.73
556.50	43332.68
556.66	43587.80
556.83	43702.48
556.99	43917.81
557.16	43622.90
557.32	43737.59
557.49	44058.24
557.65	43412.26
557.82	43786.74
557.98	43873.34
558.15	43786.74
558.32	44020.80
558.48	44034.84
558.65	43489.49
558.81	44081.65
558.98	43655.67
559.14	43700.14
559.31	43955.26
559.47	43779.72
559.64	43981.01
559.80	44112.08
559.97	44154.21
560.13	44421.03
560.30	43896.75
560.46	44280.60
560.63	44100.37
560.79	44215.06
560.96	44313.36
561.12	44823.60
561.29	44311.02
561.45	44542.74
561.61	44638.70
561.78	44336.77
561.94	44203.36
562.11	44320.38
562.27	44332.09
562.44	44376.56
562.60	44596.57
562.77	44828.28
562.93	44020.80
563.10	44636.36
563.26	44252.51
563.42	45158.30
563.59	44395.28
563.75	44334.43
563.92	44479.54
564.08	44484.22
564.24	44547.42
564.41	44671.46
564.57	44531.03
564.74	44430.39
564.90	44296.98
565.07	44687.85
565.23	44545.08
565.39	44837.64
565.56	44854.03
565.72	45010.84
565.88	45476.61
566.05	44919.56
566.21	44741.68
566.38	44999.14
566.54	45436.82
566.70	44856.37
566.87	44495.92
567.03	44870.41
567.19	45436.82
567.36	44971.05
567.52	45226.17
567.68	45401.71
567.85	44949.99
568.01	45235.53
568.17	44512.31
568.34	45347.88
568.50	44987.44
568.66	45193.40
568.83	45357.24
568.99	45361.92
569.15	45254.26
569.32	44751.04
569.48	45125.53
569.64	45113.83
569.81	45474.27
569.97	45069.36
570.13	45385.33
570.30	44938.29
570.46	45092.76
570.62	45127.87
570.78	45165.32
570.95	45186.38
571.11	45413.41
571.27	45617.04
571.43	45205.11
571.60	45198.09
571.76	45226.17
571.92	45614.70
572.09	45418.10
572.25	45205.11
572.41	45757.47
572.57	45277.66
572.74	45275.32
572.90	45521.08
573.06	45478.95
573.22	45495.33
573.38	45490.65
573.55	45603.00
573.71	45876.84
573.87	45537.46
574.03	45464.91
574.20	45478.95
574.36	45635.77
574.52	45635.77
574.68	45755.13
574.84	45525.76
575.01	46040.68
575.17	45991.53
575.33	45925.99
575.49	45352.56
575.65	45991.53
575.82	45677.90
575.98	45654.49
576.14	45968.12
576.30	46234.94
576.46	45605.34
576.62	45375.97
576.79	45989.19
576.95	45308.09
577.11	45619.38
577.27	45258.94
577.43	45268.30
577.59	46021.95
577.75	45439.16
577.92	45516.40
578.08	45738.75
578.24	45928.33
578.40	45958.76
578.56	45834.71
578.72	45684.92
578.88	46239.62
579.04	45404.05
579.21	45743.43
579.37	45853.44
579.53	46089.83
579.69	45663.85
579.85	45750.45
580.01	45448.52
580.17	45883.86
580.33	46176.43
580.49	45750.45
580.65	45979.82
580.82	45940.04
580.98	45818.33
581.14	45460.23
581.30	45717.68
581.46	45968.12
581.62	45780.88
581.78	45904.93
581.94	45762.15
582.10	45872.16
582.26	46031.32
582.42	45876.84
582.58	45879.18
582.74	46344.95
582.90	46527.51
583.06	46047.70
583.22	45989.19
583.38	46141.32
583.54	45808.96
583.70	46010.25
583.86	45860.46
584.02	45815.99
584.18	46225.58
584.34	45933.01
584.50	46309.84
584.66	46197.49
584.82	46190.47
584.98	46520.49
585.14	45790.24
585.30	46057.06
585.46	46040.68
585.62	45549.17
585.78	46291.12
585.94	45319.79
586.10	45837.05
586.26	45558.53
586.42	46113.23
586.58	45815.99
586.74	45851.09
586.90	46469.00
587.06	45925.99
587.22	46651.56
587.38	46024.29
587.54	46342.61
587.70	46218.56
587.86	46181.11
588.02	46082.81
588.18	46110.89
588.34	46113.23
588.49	46178.77
588.65	45881.52
588.81	46033.66
588.97	46270.05
589.13	45830.03
589.29	46190.47
589.45	46309.84
589.61	46190.47
589.77	46146.00
589.93	46555.60
590.08	46724.11
590.24	46419.84
590.40	46370.69
590.56	46679.64
590.72	46859.87
590.88	46227.92
591.04	46363.67
591.20	46450.27
591.35	46775.61
591.51	46628.15
591.67	46796.67
591.83	46670.28
591.99	46651.56
592.15	46595.38
592.31	46380.06
592.46	46330.90
592.62	46529.85
592.78	46504.10
592.94	46576.66
593.10	46850.50
593.26	46866.89
593.41	46689.01
593.57	47145.41
593.73	46480.70
593.89	47044.77
594.05	47208.61
594.20	46855.18
594.36	47337.33
594.52	47082.22
594.68	46724.11
594.84	46438.57
594.99	46579.00
595.15	46511.13
595.31	46710.07
595.47	46384.74
595.62	46824.76
595.78	46766.24
595.94	46902.00
596.10	47061.15
596.25	47189.88
596.41	46948.81
596.57	46476.02
596.73	47222.65
596.88	46824.76
597.04	46770.93
597.20	47173.50
597.36	46564.96
597.51	47051.79
597.67	46721.77
597.83	46522.83
597.99	46628.15
598.14	46663.26
598.30	46948.81
598.46	46932.42
598.61	47131.37
598.77	47009.66
598.93	46656.24
599.09	46864.55
599.24	47229.67
599.40	46588.36
599.56	46653.90
599.71	47189.88
599.87	47585.43
600.03	47384.15
600.18	46674.96
600.34	47072.85
600.50	46670.28
600.65	46571.98
600.81	46930.08
600.97	46754.54
601.12	46791.99
601.28	46899.65
601.44	46827.10
601.59	46855.18
601.75	46848.16
601.91	47004.98
602.06	46782.63
602.22	47246.05
602.37	46686.67
602.53	46569.64
602.69	46934.76
602.84	46946.47
603.00	47110.30
603.16	46969.87
603.31	46909.02
603.47	47065.83
603.62	47269.46
603.78	47297.55
603.94	47054.13
604.09	46773.27
604.25	46777.95
604.40	46827.10
604.56	46944.12
604.71	47327.97
604.87	46892.63
605.03	46759.22
605.18	47026.04
605.34	47103.28
605.49	46766.24
605.65	47124.35
605.80	47082.22
605.96	46595.38
606.12	47316.27
606.27	46909.02
606.43	46663.26
606.58	47119.66
606.74	47089.24
606.89	46677.30
607.05	46913.70
607.20	46862.21
607.36	46672.62
607.51	46850.50
607.67	46717.09
607.82	46614.11
607.98	46869.23
608.13	46712.41
608.29	46822.42
608.44	46806.03
608.60	46719.43
608.75	46770.93
608.91	46754.54
609.06	46576.66
609.22	46738.16
609.37	46335.59
609.53	47105.62
609.68	46944.12
609.84	46508.79
609.99	46616.45
610.15	46398.78
610.30	46941.78
610.46	46218.56
610.61	46553.26
610.76	46850.50
610.92	46258.35
611.07	46162.39
611.23	46548.57
611.38	46220.90
611.54	46761.56
611.69	46948.81
611.84	46738.16
612.00	46461.97
612.15	46326.22
612.31	46902.00
612.46	46017.27
612.62	46649.22
612.77	46267.71
612.92	46780.29
613.08	45659.17
613.23	46492.40
613.39	46302.82
613.54	46101.53
613.69	46539.21
613.85	46153.02
614.00	46511.13
614.15	46534.53
614.31	46183.45
614.46	46429.21
614.62	46003.23
614.77	45968.12
614.92	46419.84
615.08	46089.83
615.23	46368.35
615.38	46335.59
615.54	46045.36
615.69	46319.20
615.84	46099.19
616.00	46234.94
616.15	46080.47
616.30	46244.30
616.46	46307.50
616.61	46150.68
616.76	46181.11
616.92	46017.27
617.07	45944.72
617.22	46213.88
617.37	45408.73
617.53	45677.90
617.68	46005.57
617.83	45626.40
617.99	45858.12
618.14	46138.98
618.29	46223.24
618.45	45523.42
618.60	45752.79
618.75	45619.38
618.90	45336.18
619.06	45923.65
619.21	45703.64
619.36	45914.29
619.51	45607.68
619.67	45411.07
619.82	45446.18
619.97	45933.01
620.12	45666.19
620.28	45624.06
620.43	45450.86
620.58	45907.27
620.73	45668.53
620.89	45815.99
621.04	45675.55
621.19	45345.54
621.34	45626.40
621.49	45422.78
621.65	45226.17
621.80	45956.42
621.95	45872.16
622.10	45825.35
622.25	45186.38
622.41	45539.80
622.56	45205.11
622.71	45490.65
622.86	45429.80
623.01	45720.02
623.16	45448.52
623.32	45207.45
623.47	45317.45
623.62	45017.86
623.77	45478.95
623.92	45441.50
624.07	45368.94
624.23	45125.53
624.38	45483.63
624.53	44753.38
624.68	44935.95
624.83	45050.63
624.98	45177.02
625.13	44278.25
625.29	44657.42
625.44	45109.14
625.59	44734.66
625.74	44856.37
625.89	44739.34
626.04	44861.05
626.19	45179.36
626.34	44545.08
626.49	44222.08
626.65	44357.83
626.80	44610.61
626.95	43915.47
627.10	44240.81
627.25	44364.85
627.40	44779.13
627.55	44446.77
627.70	44444.43
627.85	44362.51
628.00	44495.92
628.15	44409.32
628.30	44074.63
628.45	43913.13
628.60	44186.97
628.76	44268.89
628.91	44322.72
629.06	43751.63
629.21	43845.26
629.36	44051.22
629.51	44271.23
629.66	44416.35
629.81	43751.63
629.96	44137.82
630.11	44018.46
630.26	44088.67
630.41	44072.29
630.56	43746.95
630.71	43817.17
630.86	44088.67
631.01	43655.67
631.16	43861.64
631.31	43370.13
631.46	43372.47
631.61	44151.87
631.76	43784.40
631.91	43826.53
632.06	43999.73
632.21	44128.46
632.36	44327.41
632.51	43519.92
632.66	44154.21
632.81	43950.58
632.96	43990.37
633.10	43510.56
633.25	43501.20
633.40	43723.55
633.55	43786.74
633.70	43789.08
633.85	43255.44
634.00	43126.71
634.15	43452.05
634.30	43269.48
634.45	43442.68
634.60	43297.57
634.75	43255.44
634.90	43288.21
635.05	43466.09
635.19	43402.89
635.34	43615.88
635.49	43292.89
635.64	43370.13
635.79	43246.08
635.94	42937.13
636.09	43508.22
636.24	43026.07
636.39	43281.19
636.53	43129.05
636.68	42534.56
636.83	43126.71
636.98	42747.54
637.13	42827.12
637.28	42693.71
637.43	42777.97
637.57	43342.04
637.72	42607.11
637.87	43075.22
638.02	42885.64
638.17	42710.10
638.32	43117.35
638.46	43124.37
638.61	42426.89
638.76	42572.00
638.91	42597.75
639.06	42597.75
639.20	42703.07
639.35	42305.18
639.50	42150.71
639.65	42696.05
639.80	42735.84
639.94	42794.36
640.09	42667.97
640.24	42850.53
640.39	42335.61
640.54	42036.02
640.68	42553.28
640.83	42534.56
640.98	42277.10
641.13	42232.63
641.27	42663.28
641.42	42417.53
641.57	42525.19
641.72	42274.76
641.86	42230.29
642.01	41942.40
642.16	42153.05
642.31	41893.25
642.45	42080.49
642.60	41659.20
642.75	41741.11
642.90	41918.99
643.04	42279.44
643.19	42225.60
643.34	41942.40
643.48	41418.12
643.63	41872.18
643.78	41825.37
643.93	41792.61
644.07	42192.84
644.22	41778.56
644.37	41228.54
644.51	41956.44
644.66	41869.84
644.81	41825.37
644.95	41741.11
645.10	41682.60
645.25	41415.78
645.39	41420.46
645.54	41539.83
645.69	41441.53
645.83	41289.39
645.98	41600.68
646.13	41221.52
646.27	41125.55
646.42	41148.96
646.57	41174.70
646.71	41177.04
646.86	41626.43
647.00	41090.44
647.15	41343.22
647.30	41219.17
647.44	41141.94
647.59	41315.14
647.74	41134.92
647.88	40854.05
648.03	41371.31
648.17	41577.28
648.32	41303.43
648.47	41326.84
648.61	41057.68
648.76	40790.86
648.90	41191.09
649.05	40898.52
649.20	40886.82
649.34	40987.46
649.49	41347.90
649.63	40896.18
649.78	41060.02
649.92	40914.90
650.07	41762.18
650.21	41085.76
650.36	40971.08
650.51	40598.93
650.65	41130.23
650.80	41099.81
650.94	40849.37
651.09	40818.94
651.23	40816.60
651.38	40381.26
651.52	40456.16
651.67	40472.54
651.81	40715.96
651.96	40451.48
652.10	40355.52
652.25	40842.35
652.39	40620.00
652.54	40697.24
652.68	40304.02
652.83	40046.57
652.97	40734.68
653.12	40474.88
653.26	39978.69
653.41	40385.94
653.55	40435.10
653.70	40105.08
653.84	40425.73
653.99	40306.37
654.13	40287.64
654.27	40109.76
654.42	40289.98
654.56	40112.10
654.71	40343.81
654.85	39936.56
655.00	40095.72
655.14	40737.02
655.29	40425.73
655.43	40657.45
655.57	40034.86
655.72	39817.19
655.86	39728.25
656.01	40102.74
656.15	40076.99
656.30	40002.10
656.44	39571.44
656.58	39922.52
656.73	39718.89
656.87	39622.93
657.01	39306.96
657.16	39903.79
657.30	39419.30
657.45	39608.89
657.59	39653.36
657.73	39246.10
657.88	39981.03
658.02	39608.89
658.16	39821.87
658.31	39388.88
658.45	40203.38
658.60	39433.35
658.74	39302.28
658.88	39089.29
659.03	38981.62
659.17	38981.62
659.31	39098.65
659.46	39016.73
659.60	39374.83
659.74	39035.45
659.89	38906.73
660.03	38712.46
660.17	38937.15
660.32	38792.04
660.46	38555.64
660.60	38227.97
660.74	38714.80
660.89	38817.78
661.03	38560.33
661.17	38499.47
661.32	38307.55
661.46	38550.96
661.60	38036.05
661.74	38298.19
661.89	38223.29
662.03	38574.37
662.17	38162.43
662.31	37776.25
662.46	38036.05
662.60	37481.34
662.74	37275.37
662.88	37900.29
663.03	37305.80
663.17	37801.99
663.31	37853.48
663.45	37479.00
663.60	38017.32
663.74	37794.97
663.88	37780.93
664.02	37235.58
664.17	37661.56
664.31	37132.60
664.45	37308.14
664.59	37598.37
664.73	37446.23
664.88	37226.22
665.02	37361.97
665.16	37329.20
665.30	37542.19
665.44	37268.35
665.59	37050.68
665.73	36701.94
665.87	36580.23
666.01	36931.31
666.15	37111.53
666.29	36828.33
666.44	36849.39
666.58	36364.90
666.72	36020.84
666.86	36629.38
667.00	36563.85
667.14	35952.97
667.28	36245.54
667.43	36734.71
667.57	36697.26
667.71	36332.14
667.85	36332.14
667.99	36259.58
668.13	36161.28
668.27	35990.42
668.41	35945.95
668.56	35690.83
668.70	35899.14
668.84	35498.91
668.98	35204.00
669.12	35569.12
669.26	35761.05
669.40	35824.24
669.54	35770.41
669.68	35669.76
669.82	35381.88
669.96	35033.14
670.10	34604.82
670.25	34876.32
670.39	35089.31
670.53	34911.43
670.67	35159.53
670.81	35166.55
670.95	34979.31
671.09	34939.52
671.23	34735.89
671.37	34658.65
671.51	34768.66
671.65	34389.49
671.79	34363.75
671.93	34745.25
672.07	34370.77
672.21	34754.61
672.35	33919.04
672.49	34614.18
672.63	34452.69
672.77	33795.00
672.91	33736.48
673.05	33495.41
673.19	33874.57
673.33	33652.22
673.47	33244.97
673.61	33706.05
673.75	33046.02
673.89	33242.63
674.03	33230.93
674.17	32980.49
674.31	32851.76
674.45	33111.56
674.59	32936.02
674.73	32734.73
674.87	32479.61
675.01	32046.62
675.15	32477.27
675.29	32467.91
675.43	32196.41
675.56	32374.29
675.70	32439.82
675.84	32290.03
675.98	31370.20
676.12	32222.16
676.26	32353.23
676.40	31908.52
676.54	31571.49
676.68	31524.68
676.82	31187.64
676.96	31969.38
677.10	31314.03
677.23	31189.98
677.37	31143.17
677.51	31276.58
677.65	31138.49
677.79	30686.76
677.93	30897.41
678.07	30754.64
678.21	30356.75
678.34	30485.48
678.48	30230.36
678.62	30003.33
678.76	29970.56
678.90	30312.28
679.04	30527.61
679.18	30338.02
679.31	30080.56
679.45	29780.98
679.59	29420.53
679.73	29652.25
679.87	29343.30
680.00	29429.90
680.14	29401.81
680.28	29457.98
680.42	29034.35
680.56	28910.30
680.70	28701.99
680.83	28973.49
680.97	29067.11
681.11	28893.91
681.25	28622.41
681.39	28683.27
681.52	28512.41
681.66	28114.52
681.80	28065.36
681.94	27871.10
682.07	27772.80
682.21	27665.13
682.35	27646.41
682.49	27843.01
682.62	27487.25
682.76	27784.50
682.90	27370.22
683.04	27779.82
683.17	27206.39
683.31	27178.30
683.45	27063.61
683.59	26962.97
683.72	26586.15
683.86	26944.25
684.00	26602.53
684.13	26796.79
684.27	26366.13
684.41	26375.50
684.55	26572.10
684.68	25902.71
684.82	26019.74
684.96	25858.24
685.09	26118.04
685.23	25982.29
685.37	25816.11
685.50	26015.05
685.64	25764.62
685.78	25713.13
685.91	25546.95
686.05	25060.12
686.19	25027.35
686.32	25102.25
686.46	24931.39
686.60	24549.88
686.73	24924.36
686.87	24926.71
687.01	25060.12
687.14	24844.79
687.28	24437.53
687.42	24570.94
687.55	24135.60
687.69	24304.12
687.82	23807.93
687.96	24290.08
688.10	24056.03
688.23	23840.70
688.37	23793.89
688.50	23974.11
688.64	23871.12
688.78	23592.60
688.91	23337.48
689.05	23281.31
689.18	23185.35
689.32	22824.90
689.46	22885.76
689.59	22663.41
689.73	23185.35
689.86	23115.13
690.00	22951.29
690.13	22911.50
690.27	22600.21
690.41	22614.26
690.54	22295.94
690.68	22604.89
690.81	22424.67
690.95	22157.85
691.08	21837.20
691.22	22258.49
691.35	21607.83
691.49	22118.06
691.62	21841.88
691.76	21525.91
691.89	21516.54
692.03	21060.14
692.16	20879.92
692.30	21092.91
692.43	21167.80
692.57	20812.04
692.70	20915.03
692.84	21013.33
692.97	20273.72
693.11	20428.20
693.24	20355.64
693.38	20367.34
693.51	20554.58
693.65	20123.93
693.78	20313.51
693.92	20184.78
694.05	19889.87
694.19	20180.10
694.32	19791.57
694.45	19995.20
694.59	19770.51
694.72	20086.48
694.86	19653.48
694.99	19234.52
695.13	19332.82
695.26	19381.98
695.39	18941.96
695.53	19152.60
695.66	19220.48
695.80	18717.26
695.93	19126.86
696.07	19005.15
696.20	18356.82
696.33	18216.39
696.47	18214.05
696.60	18349.80
696.73	18508.96
696.87	18359.16
697.00	18459.81
697.14	18401.29
697.27	17720.20
697.40	17675.73
697.54	17855.95
697.67	17678.07
697.80	17745.94
697.94	17624.23
698.07	17432.31
698.21	17390.18
698.34	17448.69
698.47	17266.13
698.61	16809.73
698.74	17200.60
698.87	17025.06
699.01	16730.15
699.14	16774.62
699.27	16973.56
699.40	16645.89
699.54	16552.27
699.67	16823.77
699.80	16549.93
699.94	16313.53
700.07	16491.41
700.20	16255.02
700.34	15889.90
700.47	16126.29
700.60	15967.13
700.73	15969.48
700.87	15957.77
701.00	15789.25
701.13	15791.59
701.26	15529.45
701.40	15630.10
701.53	15447.54
701.66	15335.19
701.79	15194.76
701.93	15103.48
702.06	15105.82
702.19	15215.82
702.32	14965.39
702.46	14967.73
702.59	15016.88
702.72	15073.05
702.85	14782.82
702.99	14965.39
703.12	14719.63
703.25	14457.49
703.38	14368.55
703.51	14841.34
703.65	14200.03
703.78	14218.75
703.91	14185.99
704.04	13996.40
704.17	13818.52
704.31	13851.29
704.44	14008.11
704.57	13926.19
704.70	13813.84
704.83	13635.96
704.96	13607.87
705.10	13446.38
705.23	13383.18
>>>>>End Processed Spectral Data<<<<<
