SpectraSuite Data File
++++++++++++++++++++++++++++++++++++
Date: Fri Oct 25 10:48:32 EDT 2013
User: price-jones
Dark Spectrum Present: No
Reference Spectrum Present: No
Number of Sampled Component Spectra: 1
Spectrometers: USB2+H05261
Integration Time (usec): 100000 (USB2+H05261)
Spectra Averaged: 1 (USB2+H05261)
Boxcar Smoothing: 0 (USB2+H05261)
Correct for Electrical Dark: No (USB2+H05261)
Strobe/Lamp Enabled: No (USB2+H05261)
Correct for Detector Non-linearity: No (USB2+H05261)
Correct for Stray Light: No (USB2+H05261)
Number of Pixels in Processed Spectrum: 2048
>>>>>Begin Processed Spectral Data<<<<<
365.73	105.32
365.92	105.32
366.12	105.32
366.32	58.51
366.52	0.00
366.72	42.13
366.91	0.00
367.11	0.00
367.31	0.00
367.51	23.41
367.70	0.00
367.90	58.51
368.10	18.72
368.30	93.62
368.49	0.00
368.69	58.51
368.89	65.54
369.09	21.06
369.28	51.49
369.48	14.04
369.68	79.58
369.87	77.24
370.07	124.05
370.27	182.56
370.47	131.07
370.66	449.38
370.86	456.40
371.06	449.38
371.25	533.64
371.45	454.06
371.65	477.47
371.84	470.45
372.04	472.79
372.24	561.73
372.44	615.56
372.63	550.03
372.83	547.69
373.03	500.87
373.22	599.18
373.42	624.92
373.62	482.15
373.81	528.96
374.01	624.92
374.21	601.52
374.40	615.56
374.60	594.50
374.79	547.69
374.99	561.73
375.19	683.44
375.38	613.22
375.58	575.77
375.78	667.05
375.97	641.31
376.17	650.67
376.37	610.88
376.56	580.45
376.76	608.54
376.95	585.13
377.15	695.14
377.35	732.59
377.54	688.12
377.74	669.39
377.93	620.24
378.13	683.44
378.33	720.88
378.52	751.31
378.72	636.63
378.91	653.01
379.11	627.26
379.31	587.47
379.50	746.63
379.70	716.20
379.89	805.14
380.09	692.80
380.28	660.03
380.48	758.33
380.68	662.37
380.87	791.10
381.07	795.78
381.26	758.33
381.46	716.20
381.65	758.33
381.85	664.71
382.04	671.73
382.24	709.18
382.43	720.88
382.63	795.78
382.83	816.85
383.02	737.27
383.22	858.98
383.41	835.57
383.61	772.38
383.80	744.29
384.00	851.96
384.19	840.25
384.39	835.57
384.58	835.57
384.78	861.32
384.97	802.80
385.17	840.25
385.36	812.17
385.56	795.78
385.75	821.53
385.95	908.13
386.14	903.45
386.34	889.40
386.53	842.59
386.72	854.30
386.92	924.51
387.11	819.19
387.31	908.13
387.50	889.40
387.70	875.36
387.89	936.21
388.09	908.13
388.28	898.77
388.48	896.43
388.67	903.45
388.86	990.05
389.06	938.55
389.25	968.98
389.45	992.39
389.64	1043.88
389.84	1048.56
390.03	1036.86
390.22	1032.18
390.42	1039.20
390.61	1210.06
390.81	1048.56
391.00	1137.50
391.19	1097.71
391.39	1057.92
391.58	1050.90
391.78	1076.65
391.97	1132.82
392.16	1022.81
392.36	1111.75
392.55	1046.22
392.75	1086.01
392.94	992.39
393.13	1036.86
393.33	1076.65
393.52	1116.44
393.71	1090.69
393.91	1184.31
394.10	1160.91
394.29	1160.91
394.49	1179.63
394.68	1186.65
394.88	1310.70
395.07	1270.91
395.26	1249.85
395.46	1270.91
395.65	1334.11
395.84	1228.78
396.04	1352.83
396.23	1291.98
396.42	1186.65
396.62	1261.55
396.81	1179.63
397.00	1228.78
397.19	1299.00
397.39	1273.25
397.58	1406.66
397.77	1331.76
397.97	1519.01
398.16	1418.36
398.35	1509.65
398.55	1409.00
398.74	1519.01
398.93	1549.43
399.12	1582.20
399.32	1572.84
399.51	1570.50
399.70	1586.88
399.90	1722.63
400.09	1563.48
400.28	1652.42
400.47	1650.08
400.67	1657.10
400.86	1593.90
401.05	1647.74
401.24	1724.97
401.44	1732.00
401.63	1685.19
401.82	1834.98
402.01	1696.89
402.21	1741.36
402.40	1830.30
402.59	1741.36
402.78	1739.02
402.97	1818.60
403.17	1851.36
403.36	1909.88
403.55	1900.52
403.74	1872.43
403.93	1837.32
404.13	1982.43
404.32	1893.49
404.51	1912.22
404.70	1968.39
404.89	1970.73
405.09	2040.95
405.28	1968.39
405.47	1893.49
405.66	2001.16
405.85	2083.08
406.05	2040.95
406.24	2008.18
406.43	2139.25
406.62	2099.46
406.81	2129.89
407.00	2073.71
407.20	2111.16
407.39	2155.63
407.58	2195.42
407.77	2284.36
407.96	2286.70
408.15	2230.53
408.34	2291.38
408.54	2296.07
408.73	2272.66
408.92	2403.73
409.11	2401.39
409.30	2305.43
409.49	2289.04
409.68	2303.09
409.87	2354.58
410.07	2307.77
410.26	2415.43
410.45	2459.90
410.64	2464.58
410.83	2597.99
411.02	2586.29
411.21	2609.70
411.40	2621.40
411.59	2595.65
411.78	2677.57
411.98	2679.91
412.17	2642.46
412.36	2743.11
412.55	2738.43
412.74	2789.92
412.93	2815.66
413.12	2686.94
413.31	2909.29
413.50	2878.86
413.69	2860.13
413.88	3028.65
414.07	2958.44
414.26	2899.92
414.45	2909.29
414.64	2951.42
414.83	3145.68
415.02	3141.00
415.22	3215.90
415.41	3094.19
415.60	3307.18
415.79	3232.28
415.98	3372.71
416.17	3302.50
416.36	3339.94
416.55	3236.96
416.74	3386.76
416.93	3251.00
417.12	3246.32
417.31	3279.09
417.50	3475.70
417.69	3562.30
417.88	3456.97
418.07	3506.12
418.26	3574.00
418.45	3597.40
418.64	3665.28
418.83	3660.60
419.02	3585.70
419.21	3676.98
419.39	3620.81
419.58	3651.24
419.77	3578.68
419.96	3679.32
420.15	3796.35
420.34	3782.31
420.53	3810.39
420.72	3864.22
420.91	3859.54
421.10	3880.61
421.29	4016.36
421.48	3871.25
421.67	3756.56
421.86	3805.71
422.05	3918.06
422.24	3861.88
422.43	3836.14
422.61	3927.42
422.80	3880.61
422.99	4086.58
423.18	4037.42
423.37	4046.79
423.56	3843.16
423.75	3978.91
423.94	3997.64
424.13	3770.60
424.32	4016.36
424.50	4014.02
424.69	4002.32
424.88	4016.36
425.07	4028.06
425.26	4004.66
425.45	3904.01
425.64	3948.48
425.83	3932.10
426.01	4100.62
426.20	4133.39
426.39	4231.69
426.58	4028.06
426.77	4030.40
426.96	4014.02
427.15	4004.66
427.33	4121.68
427.52	4023.38
427.71	4152.11
427.90	4182.54
428.09	4205.94
428.28	4236.37
428.46	4339.35
428.65	4196.58
428.84	4283.18
429.03	4212.96
429.22	4248.07
429.40	4147.43
429.59	4074.87
429.78	4138.07
429.97	4053.81
430.16	4044.45
430.34	4145.09
430.53	4308.93
430.72	4285.52
430.91	4294.88
431.10	4517.23
431.28	4692.77
431.47	4667.03
431.66	4854.27
431.85	4652.98
432.03	4657.67
432.22	4800.44
432.41	4585.11
432.60	4720.86
432.79	4760.65
432.97	4924.49
433.16	4751.29
433.35	4638.94
433.54	4795.76
433.72	4770.01
433.91	4772.35
434.10	4828.53
434.28	4985.34
434.47	4865.97
434.66	4999.38
434.85	4844.91
435.03	4926.83
435.22	5043.85
435.41	5172.58
435.59	5284.93
435.78	5130.45
435.97	5298.97
436.16	5238.12
436.34	5167.90
436.53	5116.41
436.72	5320.04
436.90	5048.54
437.09	5224.08
437.28	5163.22
437.46	5345.78
437.65	5268.55
437.84	5231.10
438.02	5298.97
438.21	5317.70
438.40	5130.45
438.58	5490.90
438.77	5540.05
438.96	5521.32
439.14	5603.24
439.33	5591.54
439.52	5626.65
439.70	5633.67
439.89	5715.59
440.08	5738.99
440.26	5715.59
440.45	5762.40
440.63	6026.88
440.82	6019.86
441.01	5996.45
441.19	6146.25
441.38	6162.63
441.57	6179.01
441.75	6298.38
441.94	6450.52
442.12	6436.47
442.31	6389.66
442.50	6375.62
442.68	6462.22
442.87	6214.12
443.05	6368.60
443.24	6710.32
443.43	6609.67
443.61	6705.63
443.80	6733.72
443.98	6494.99
444.17	6434.13
444.35	6796.92
444.54	6857.77
444.73	6651.80
444.91	6544.14
445.10	6504.35
445.28	6689.25
445.47	6679.89
445.65	6614.35
445.84	6450.52
446.02	6537.12
446.21	6736.06
446.39	6656.48
446.58	6759.47
446.77	6724.36
446.95	6574.56
447.14	6736.06
447.32	6906.92
447.51	6740.74
447.69	6815.64
447.88	6743.08
448.06	6836.70
448.25	6771.17
448.43	6700.95
448.62	6892.88
448.80	6766.49
448.99	6974.80
449.17	6960.75
449.36	6923.30
449.54	7052.03
449.73	7042.67
449.91	7098.84
450.10	7382.05
450.28	7442.90
450.46	7372.69
450.65	7307.15
450.83	7335.24
451.02	7332.90
451.20	7360.98
451.39	7321.20
451.57	7339.92
451.76	7468.65
451.94	7363.33
452.13	7485.03
452.31	7377.37
452.49	7204.17
452.68	7325.88
452.86	7222.89
453.05	7445.24
453.23	7330.56
453.42	7370.35
453.60	7473.33
453.78	7740.15
453.97	7506.10
454.15	7445.24
454.34	7543.55
454.52	7700.36
454.70	7550.57
454.89	7833.77
455.07	7693.34
455.26	7576.31
455.44	7791.64
455.62	7899.31
455.81	7625.47
455.99	7688.66
456.17	7892.29
456.36	7960.16
456.54	8180.17
456.73	8128.68
456.91	8351.03
457.09	8196.56
457.28	8329.97
457.46	8156.77
457.64	8325.29
457.83	8135.70
458.01	8194.22
458.19	8322.94
458.38	8332.31
458.56	8444.65
458.74	8362.73
458.93	8313.58
459.11	8535.93
459.29	8456.36
459.48	8510.19
459.66	8528.91
459.84	8486.78
460.03	8713.81
460.21	8650.62
460.39	8631.90
460.57	8456.36
460.76	8547.64
460.94	8819.14
461.12	8741.90
461.31	8638.92
461.49	8856.59
461.67	8702.11
461.85	8877.65
462.04	8870.63
462.22	9404.27
462.40	9224.05
462.59	8980.64
462.77	9139.79
462.95	9132.77
463.13	9013.40
463.32	8966.59
463.50	9090.64
463.68	9177.24
463.86	9228.73
464.05	9088.30
464.23	9013.40
464.41	9254.48
464.59	9046.17
464.78	9312.99
464.96	9153.84
465.14	9355.12
465.32	9327.03
465.50	9343.42
465.69	9554.07
465.87	9383.21
466.05	9287.25
466.23	9247.46
466.41	9540.02
466.60	9584.49
466.78	9310.65
466.96	9235.75
467.14	9411.29
467.32	9626.62
467.51	9675.77
467.69	9535.34
467.87	9509.60
468.05	9708.54
468.23	9540.02
468.41	9626.62
468.60	9465.13
468.78	9921.53
468.96	9628.96
469.14	9785.78
469.32	9900.47
469.50	9645.35
469.69	9921.53
469.87	9877.06
470.05	9954.30
470.23	9844.29
470.41	9909.83
470.59	10211.76
470.77	10008.13
470.95	10207.08
471.14	10452.83
471.32	10242.18
471.50	10586.24
471.68	10420.06
471.86	10480.92
472.04	10560.50
472.22	10548.79
472.40	10820.30
472.58	10630.71
472.77	10717.31
472.95	10572.20
473.13	11012.22
473.31	10698.59
473.49	10642.42
473.67	10665.82
473.85	10897.53
474.03	11082.44
474.21	11274.36
474.39	11243.93
474.57	10988.82
474.75	11370.32
474.93	11295.43
475.12	11171.38
475.30	11363.30
475.48	11485.01
475.66	11482.67
475.84	11557.57
476.02	11630.12
476.20	11634.80
476.38	12004.61
476.56	12163.76
476.74	11875.88
476.92	12025.67
477.10	11857.15
477.28	12229.30
477.46	12332.28
477.64	12493.78
477.82	12430.59
478.00	12580.38
478.18	12547.61
478.36	12636.55
478.54	12847.20
478.72	12959.55
478.90	13060.19
479.08	13198.28
479.26	13406.59
479.44	13322.33
479.62	13439.36
479.80	13706.18
479.98	13731.92
480.16	13921.51
480.34	13867.67
480.52	13888.74
480.70	14174.28
480.88	13907.46
481.06	14279.61
481.24	14368.55
481.41	14398.98
481.59	14691.54
481.77	14813.25
481.95	14710.27
482.13	14689.20
482.31	15007.52
482.49	14876.44
482.67	15229.87
482.85	15073.05
483.03	15651.16
483.21	15405.41
483.39	15880.53
483.57	15599.67
483.74	16004.58
483.92	15765.85
484.10	15948.41
484.28	16290.13
484.46	16126.29
484.64	16575.67
484.82	15784.57
485.00	16329.92
485.18	16566.31
485.35	16711.42
485.53	16276.09
485.71	16203.53
485.89	16748.87
486.07	16835.47
486.25	16805.05
486.43	17186.55
486.61	17158.47
486.78	17532.95
486.96	17996.38
487.14	17853.61
487.32	18087.66
487.50	18160.22
487.68	18225.75
487.85	18899.83
488.03	18824.93
488.21	18808.54
488.39	18883.44
488.57	19094.09
488.75	18977.06
488.92	19583.26
489.10	19700.29
489.28	19924.98
489.46	20084.14
489.64	19840.72
489.81	20470.33
489.99	20383.73
490.17	20755.87
490.35	20666.93
490.53	20648.21
490.70	20819.07
490.88	21109.29
491.06	21399.52
491.24	20943.11
491.41	20996.95
491.59	21156.10
491.77	21366.75
491.95	21226.32
492.13	21593.78
492.30	22050.19
492.48	21956.57
492.66	22223.39
492.84	22218.71
493.01	22295.94
493.19	22405.95
493.37	22642.34
493.54	22640.00
493.72	22941.93
493.90	22958.31
494.08	23077.68
494.25	23510.68
494.43	23473.23
494.61	23496.64
494.79	23777.50
494.96	23803.25
495.14	23889.85
495.32	24034.96
495.49	24322.85
495.67	24217.52
495.85	24584.99
496.02	24400.08
496.20	24907.98
496.38	25062.46
496.55	24931.39
496.73	25818.45
496.91	25238.00
497.09	25432.26
497.26	25640.57
497.44	25565.67
497.62	25549.29
497.79	25638.23
497.97	25453.33
498.14	25635.89
498.32	25956.54
498.50	25628.87
498.67	26466.78
498.85	26417.63
499.03	26574.44
499.20	26955.95
499.38	26700.83
499.56	26663.38
499.73	26944.25
499.91	26995.74
500.08	26869.35
500.26	26855.31
500.44	26993.40
500.61	27026.17
500.79	26778.07
500.97	27433.42
501.14	27847.69
501.32	27730.67
501.49	27655.77
501.67	27885.14
501.84	27725.99
502.02	28144.94
502.20	28121.54
502.37	28463.25
502.55	28044.30
502.72	28704.33
502.90	28409.42
503.07	28339.21
503.25	28765.18
503.43	28678.58
503.60	28762.84
503.78	28741.78
503.95	28779.23
504.13	29067.11
504.30	29413.51
504.48	28938.38
504.65	29649.91
504.83	29528.20
505.01	29563.31
505.18	29544.58
505.36	30036.09
505.53	29551.60
505.71	30249.08
505.88	29970.56
506.06	29797.36
506.23	30230.36
506.41	29830.13
506.58	30328.66
506.76	30401.22
506.93	30370.79
507.11	30426.96
507.28	30609.53
507.46	30792.09
507.63	30841.24
507.81	30679.74
507.98	30794.43
508.16	30824.86
508.33	30897.41
508.50	31098.70
508.68	31283.60
508.85	31512.97
509.03	31335.09
509.20	31384.24
509.38	31850.01
509.55	31660.43
509.73	31604.25
509.90	31435.74
510.08	31833.63
510.25	31817.24
510.42	32027.89
510.60	32519.40
510.77	32283.01
510.95	32631.75
511.12	32070.02
511.30	32669.20
511.47	32416.42
511.64	32308.76
511.82	33130.28
511.99	33046.02
512.17	33057.73
512.34	32751.12
512.51	33401.79
512.69	33167.73
512.86	33591.37
513.04	33858.19
513.21	33432.21
513.38	33151.35
513.56	33111.56
513.73	33263.69
513.90	33350.29
514.08	33605.41
514.25	33528.17
514.43	33865.21
514.60	33420.51
514.77	33755.21
514.95	34045.43
515.12	34614.18
515.29	34277.15
515.47	34438.64
515.64	34295.87
515.81	33944.79
515.99	34962.92
516.16	34483.11
516.33	34019.69
516.51	34705.46
516.68	34157.78
516.85	33860.53
517.03	34333.32
517.20	34272.46
517.37	34263.10
517.54	34799.08
517.72	34983.99
517.89	34387.15
518.06	35040.16
518.24	34225.65
518.41	34923.13
518.58	35068.25
518.75	35386.56
518.93	35433.37
519.10	35868.71
519.27	35824.24
519.45	36091.06
519.62	35679.13
519.79	36034.89
519.96	36077.02
520.14	36233.83
520.31	35758.70
520.48	36018.50
520.65	36009.14
520.83	36687.90
521.00	36641.09
521.17	36554.49
521.34	36643.43
521.52	36844.71
521.69	36467.89
521.86	37301.12
522.03	36882.16
522.20	36828.33
522.38	36814.29
522.55	36842.37
522.72	37312.82
522.89	36954.72
523.07	37233.24
523.24	37060.04
523.41	37694.33
523.58	37270.69
523.75	37897.95
523.92	37661.56
524.10	37968.17
524.27	37979.87
524.44	38632.88
524.61	38052.43
524.78	38061.79
524.96	38265.42
525.13	38412.87
525.30	38412.87
525.47	38595.43
525.64	38347.34
525.81	38501.81
525.98	37888.59
526.16	38471.39
526.33	37928.38
526.50	38270.10
526.67	38286.48
526.84	38199.88
527.01	38117.96
527.18	38347.34
527.36	38635.22
527.53	39164.18
527.70	39154.82
527.87	39126.74
528.04	39501.22
528.21	39143.12
528.38	39449.73
528.55	39512.92
528.72	39051.84
528.89	39625.27
529.07	39665.06
529.24	39548.03
529.41	39555.05
529.58	39210.99
529.75	39255.46
529.92	39924.86
530.09	39714.21
530.26	39545.69
530.43	39929.54
530.60	39835.92
530.77	39924.86
530.94	40346.15
531.11	39882.73
531.28	40053.59
531.46	40179.98
531.63	40027.84
531.80	40432.75
531.97	40339.13
532.14	39845.28
532.31	39826.56
532.48	40046.57
532.65	40374.24
532.82	40713.62
532.99	40781.49
533.16	40631.70
533.33	40540.42
533.50	40620.00
533.67	40797.88
533.84	40772.13
534.01	40821.28
534.18	40823.62
534.35	41226.20
534.52	41008.53
534.69	41446.21
534.86	41148.96
535.03	41268.33
535.20	41387.69
535.37	41914.31
535.54	41720.05
535.71	41607.70
535.88	41296.41
536.05	41174.70
536.22	41373.65
536.38	41235.56
536.55	41706.01
536.72	41586.64
536.89	40940.65
537.06	41500.04
537.23	41610.04
537.40	41696.64
537.57	41977.51
537.74	42005.59
537.91	42321.57
538.08	42059.43
538.25	41813.67
538.42	41603.02
538.59	42234.97
538.75	41766.86
538.92	42045.38
539.09	42026.66
539.26	41926.02
539.43	41968.15
539.60	42244.33
539.77	41738.77
539.94	41813.67
540.11	41841.76
540.28	42057.09
540.44	42169.43
540.61	42249.01
540.78	42349.65
540.95	42288.80
541.12	41710.69
541.29	42665.63
541.46	42361.36
541.62	42532.22
541.79	42986.28
541.96	42651.58
542.13	42574.34
542.30	42965.21
542.47	42689.03
542.63	42609.45
542.80	43175.86
542.97	43269.48
543.14	43316.29
543.31	43070.54
543.48	43440.34
543.64	44006.75
543.81	44168.25
543.98	43442.68
544.15	43487.15
544.32	43770.36
544.48	43730.57
544.65	43423.96
544.82	43693.12
544.99	43309.27
545.16	44009.09
545.32	43133.73
545.49	43622.90
545.66	44018.46
545.83	44018.46
546.00	44229.10
546.16	43847.60
546.33	43606.52
546.50	43501.20
546.67	43929.51
546.83	44020.80
547.00	44002.07
547.17	44072.29
547.34	43538.65
547.50	44261.87
547.67	44449.11
547.84	44114.42
548.00	44439.75
548.17	44329.75
548.34	44318.04
548.51	44390.60
548.67	44425.71
548.84	44758.06
549.01	44325.07
549.18	44189.31
549.34	44804.88
549.51	44399.96
549.68	44994.46
549.84	44767.43
550.01	44999.14
550.18	44414.01
550.34	44779.13
550.51	45045.95
550.68	44636.36
550.84	44271.23
551.01	45151.27
551.18	44973.39
551.34	44900.84
551.51	44786.15
551.68	45059.99
551.84	45228.51
552.01	45296.39
552.18	45254.26
552.34	44439.75
552.51	45228.51
552.68	45134.89
552.84	45542.14
553.01	45495.33
553.18	45289.37
553.34	45390.01
553.51	45097.44
553.67	45415.76
553.84	45684.92
554.01	46017.27
554.17	45394.69
554.34	45607.68
554.51	45432.14
554.67	46050.04
554.84	45869.82
555.00	45474.27
555.17	45558.53
555.33	45720.02
555.50	45352.56
555.67	45830.03
555.83	45633.42
556.00	45345.54
556.16	46211.54
556.33	45942.38
556.50	45727.05
556.66	45893.22
556.83	45600.66
556.99	46012.59
557.16	45610.02
557.32	46005.57
557.49	45904.93
557.65	45689.60
557.82	45804.28
557.98	45961.10
558.15	45504.70
558.32	46045.36
558.48	45881.52
558.65	45546.82
558.81	45979.82
558.98	45855.78
559.14	45895.56
559.31	45975.14
559.47	45942.38
559.64	46225.58
559.80	46117.92
559.97	45677.90
560.13	46192.81
560.30	45970.46
560.46	46227.92
560.63	46143.66
560.79	46108.55
560.96	46220.90
561.12	46059.40
561.29	46064.08
561.45	45921.31
561.61	46487.72
561.78	45757.47
561.94	45928.33
562.11	46061.74
562.27	46080.47
562.44	46447.93
562.60	46689.01
562.77	46476.02
562.93	46445.59
563.10	46618.79
563.26	46141.32
563.42	46330.90
563.59	46651.56
563.75	46621.13
563.92	46185.79
564.08	46408.14
564.24	46562.62
564.41	46602.41
564.57	46651.56
564.74	46674.96
564.90	46543.89
565.07	46616.45
565.23	46511.13
565.39	46373.03
565.56	46188.13
565.72	46466.66
565.88	46298.14
566.05	46291.12
566.21	46595.38
566.38	46115.58
566.54	47016.68
566.70	46674.96
566.87	46913.70
567.03	46562.62
567.19	47098.60
567.36	47248.39
567.52	46520.49
567.68	46639.86
567.85	46625.81
568.01	46756.88
568.17	46571.98
568.34	46621.13
568.50	46670.28
568.66	46494.74
568.83	46543.89
568.99	46590.70
569.15	46590.70
569.32	46735.82
569.48	46368.35
569.64	46817.74
569.81	46857.52
569.97	46574.32
570.13	46827.10
570.30	46541.55
570.46	46148.34
570.62	46586.02
570.78	46574.32
570.95	46845.82
571.11	46621.13
571.27	46373.03
571.43	46508.79
571.60	46944.12
571.76	46724.11
571.92	46635.17
572.09	46845.82
572.25	46490.06
572.41	46520.49
572.57	46557.94
572.74	47480.11
572.90	47136.05
573.06	46651.56
573.22	47400.53
573.38	47084.56
573.55	46721.77
573.71	46972.21
573.87	47089.24
574.03	46843.48
574.20	46714.75
574.36	47337.33
574.52	46679.64
574.68	46656.24
574.84	47063.49
575.01	46749.86
575.17	47030.72
575.33	47077.54
575.49	46635.17
575.65	46962.85
575.82	47407.55
575.98	46941.78
576.14	46946.47
576.30	46852.84
576.46	46452.61
576.62	46894.97
576.79	46948.81
576.95	46871.57
577.11	46850.50
577.27	46665.60
577.43	46747.52
577.59	46761.56
577.75	47023.70
577.92	46349.63
578.08	46548.57
578.24	46536.87
578.40	46569.64
578.56	46878.59
578.72	46806.03
578.88	46876.25
579.04	47423.93
579.21	46850.50
579.37	46892.63
579.53	46548.57
579.69	46326.22
579.85	46885.61
580.01	47089.24
580.17	47449.68
580.33	47100.94
580.49	47234.35
580.65	47068.17
580.82	47063.49
580.98	46749.86
581.14	46745.18
581.30	47129.03
581.46	46969.87
581.62	47147.75
581.78	46930.08
581.94	47194.56
582.10	47145.41
582.26	47103.28
582.42	47402.87
582.58	47491.81
582.74	46630.49
582.90	47117.32
583.06	47320.95
583.22	47187.54
583.38	47316.27
583.54	47192.22
583.70	46946.47
583.86	47007.32
584.02	46937.10
584.18	46866.89
584.34	46979.23
584.50	47042.43
584.66	46953.49
584.82	46714.75
584.98	47107.96
585.14	46974.55
585.30	47023.70
585.46	47129.03
585.62	46616.45
585.78	46653.90
585.94	46791.99
586.10	46850.50
586.26	46904.34
586.42	47377.12
586.58	47096.26
586.74	47124.35
586.90	46569.64
587.06	46756.88
587.22	47152.43
587.38	46735.82
587.54	46784.97
587.70	47028.38
587.86	47044.77
588.02	47014.34
588.18	47196.90
588.34	47442.66
588.49	46623.47
588.65	46623.47
588.81	46658.58
588.97	46263.03
589.13	45923.65
589.29	46710.07
589.45	46857.52
589.61	46890.29
589.77	47009.66
589.93	46995.62
590.08	47381.80
590.24	47517.56
590.40	47281.16
590.56	47316.27
590.72	47302.23
590.88	46600.07
591.04	47173.50
591.20	47372.44
591.35	47552.66
591.51	47725.86
591.67	47201.58
591.83	47157.11
591.99	46639.86
592.15	47351.38
592.31	47524.58
592.46	47157.11
592.62	47325.63
592.78	47320.95
592.94	47524.58
593.10	47054.13
593.26	47309.25
593.41	47033.07
593.57	46958.17
593.73	47178.18
593.89	47232.01
594.05	46817.74
594.20	46948.81
594.36	47538.62
594.52	47281.16
594.68	47232.01
594.84	47203.92
594.99	47550.32
595.15	47089.24
595.31	47037.75
595.47	47255.42
595.62	47531.60
595.78	47337.33
595.94	47707.14
596.10	47746.93
596.25	47274.14
596.41	47281.16
596.57	47325.63
596.73	47416.91
596.88	47232.01
597.04	47157.11
597.20	47114.98
597.36	47180.52
597.51	47566.71
597.67	47377.12
597.83	47489.47
597.99	47412.23
598.14	47246.05
598.30	47365.42
598.46	47178.18
598.61	47206.26
598.77	47110.30
598.93	47016.68
599.09	47264.78
599.24	47903.74
599.40	47269.46
599.56	47367.76
599.71	47192.22
599.87	47756.29
600.03	47466.06
600.18	47320.95
600.34	47012.00
600.50	47236.69
600.65	47260.10
600.81	47665.01
600.97	47512.88
601.12	47688.42
601.28	47346.70
601.44	47398.19
601.59	47437.98
601.75	46927.74
601.91	47295.21
602.06	46768.58
602.22	47084.56
602.37	47147.75
602.53	47309.25
602.69	47550.32
602.84	47178.18
603.00	47253.08
603.16	46801.35
603.31	46916.04
603.47	46958.17
603.62	47061.15
603.78	46997.96
603.94	47253.08
604.09	47482.45
604.25	47175.84
604.40	47220.31
604.56	47093.92
604.71	47224.99
604.87	47306.91
605.03	47433.30
605.18	46934.76
605.34	47065.83
605.49	46469.00
605.65	47512.88
605.80	47157.11
605.96	47051.79
606.12	47288.18
606.27	47208.61
606.43	46733.48
606.58	47299.89
606.74	47173.50
606.89	46571.98
607.05	46749.86
607.20	46838.80
607.36	47016.68
607.51	47463.72
607.67	47023.70
607.82	46794.33
607.98	47138.39
608.13	47143.07
608.29	47063.49
608.44	46866.89
608.60	46707.73
608.75	46831.78
608.91	47000.30
609.06	46508.79
609.22	47051.79
609.37	46499.42
609.53	47131.37
609.68	46775.61
609.84	46855.18
609.99	46461.97
610.15	46607.09
610.30	46464.32
610.46	46131.96
610.61	46314.52
610.76	46630.49
610.92	46557.94
611.07	46663.26
611.23	46674.96
611.38	46527.51
611.54	46527.51
611.69	46277.07
611.84	46054.72
612.00	46089.83
612.15	46295.80
612.31	46389.42
612.46	46089.83
612.62	46483.04
612.77	46316.86
612.92	46625.81
613.08	46424.53
613.23	46239.62
613.39	46174.09
613.54	46031.32
613.69	46328.56
613.85	46164.73
614.00	46473.68
614.15	46373.03
614.31	46363.67
614.46	46162.39
614.62	46061.74
614.77	46075.79
614.92	45951.74
615.08	45940.04
615.23	45935.35
615.38	46061.74
615.54	45895.56
615.69	45970.46
615.84	45537.46
616.00	45556.19
616.15	45694.28
616.30	45860.46
616.46	45207.45
616.61	45617.04
616.76	45521.08
616.92	45170.00
617.07	45607.68
617.22	45603.00
617.37	45715.34
617.53	45815.99
617.68	46260.69
617.83	45661.51
617.99	45958.76
618.14	45827.69
618.29	45722.37
618.45	45448.52
618.60	45251.92
618.75	45064.67
618.90	45109.14
619.06	45806.62
619.21	45521.08
619.36	45558.53
619.51	45565.55
619.67	45064.67
619.82	45539.80
619.97	45453.20
620.12	45198.09
620.28	45375.97
620.43	45385.33
620.58	45291.71
620.73	45324.47
620.89	44744.02
621.04	45113.83
621.19	44964.03
621.34	45312.77
621.49	45137.23
621.65	45352.56
621.80	45029.57
621.95	44559.12
622.10	44779.13
622.25	44676.15
622.41	44973.39
622.56	45207.45
622.71	44851.69
622.86	44755.72
623.01	44870.41
623.16	44952.33
623.32	45022.54
623.47	45104.46
623.62	44573.16
623.77	44706.57
623.92	44596.57
624.07	44086.33
624.23	44411.67
624.38	44545.08
624.53	44304.00
624.68	44336.77
624.83	44809.56
624.98	44456.14
625.13	44346.13
625.29	44423.37
625.44	44105.06
625.59	44194.00
625.74	43796.10
625.89	43906.11
626.04	43676.74
626.19	44488.90
626.34	44336.77
626.49	43618.22
626.65	44058.24
626.80	43817.17
626.95	43854.62
627.10	43751.63
627.25	44086.33
627.40	43704.82
627.55	43323.32
627.70	43100.97
627.85	43360.76
628.00	43615.88
628.15	44247.83
628.30	43929.51
628.45	43667.37
628.60	43381.83
628.76	43627.59
628.91	43285.87
629.06	43765.68
629.21	43606.52
629.36	43559.71
629.51	43089.26
629.66	43470.77
629.81	43379.49
629.96	43150.12
630.11	43346.72
630.26	43379.49
630.41	43107.99
630.56	42958.19
630.71	43508.22
630.86	43229.69
631.01	43304.59
631.16	43356.08
631.31	42787.33
631.46	42721.80
631.61	42763.93
631.76	43386.51
631.91	43236.72
632.06	43297.57
632.21	43093.94
632.36	42941.81
632.51	42876.27
632.66	42698.39
632.81	42614.13
632.96	42820.10
633.10	42487.74
633.25	42452.64
633.40	42756.91
633.55	42866.91
633.70	42794.36
633.85	42572.00
634.00	42714.78
634.15	42698.39
634.30	42454.98
634.45	42384.76
634.60	42579.03
634.75	42689.03
634.90	42646.90
635.05	42487.74
635.19	42902.02
635.34	42417.53
635.49	42600.09
635.64	42106.24
635.79	42075.81
635.94	42277.10
636.09	42424.55
636.24	42029.00
636.39	41677.92
636.53	41944.74
636.68	41984.53
636.83	42220.92
636.98	42583.71
637.13	41703.67
637.28	42239.65
637.43	42513.49
637.57	42485.40
637.72	42447.96
637.87	42164.75
638.02	42440.93
638.17	42494.77
638.32	41684.94
638.46	41886.23
638.61	41738.77
638.76	41738.77
638.91	41701.32
639.06	41764.52
639.20	41682.60
639.35	41956.44
639.50	41345.56
639.65	41851.12
639.80	41823.03
639.94	41942.40
640.09	41982.19
640.24	41535.15
640.39	41375.99
640.54	41141.94
640.68	41394.71
640.83	41469.61
640.98	41308.11
641.13	41270.67
641.27	41364.29
641.42	41387.69
641.57	41722.39
641.72	41184.07
641.86	40814.26
642.01	40891.50
642.16	41067.04
642.31	40783.83
642.45	41345.56
642.60	40650.42
642.75	40919.59
642.90	41092.79
643.04	40687.87
643.19	40704.26
643.34	40980.44
643.48	40989.80
643.63	40938.31
643.78	40615.32
643.93	40657.45
644.07	40687.87
644.22	40685.53
644.37	40737.02
644.51	40411.69
644.66	40765.11
644.81	40617.66
644.95	41024.91
645.10	41434.50
645.25	41017.89
645.39	40795.54
645.54	40762.77
645.69	40423.39
645.83	40554.46
645.98	40800.22
646.13	40680.85
646.27	40538.08
646.42	40589.57
646.57	40479.57
646.71	40109.76
646.86	40081.67
647.00	40126.14
647.15	40348.50
647.30	40334.45
647.44	40273.60
647.59	39964.65
647.74	39985.71
647.88	39952.94
648.03	40268.92
648.17	40184.66
648.32	39714.21
648.47	39847.62
648.61	39885.07
648.76	40409.35
648.90	40238.49
649.05	39903.79
649.20	40196.36
649.34	40229.13
649.49	39831.24
649.63	39917.84
649.78	39950.60
649.92	39552.71
650.07	40395.31
650.21	39309.30
650.36	39751.66
650.51	40168.27
650.65	40460.84
650.80	40304.02
650.94	40315.73
651.09	39533.99
651.23	39789.11
651.38	39805.49
651.52	39388.88
651.67	39728.25
651.81	39831.24
651.96	39484.84
652.10	39222.70
652.25	39173.55
652.39	39157.16
652.54	39831.24
652.68	39545.69
652.83	39601.86
652.97	39751.66
653.12	39218.02
653.26	39562.08
653.41	39129.08
653.55	39065.88
653.70	38946.51
653.84	39236.74
653.99	39241.42
654.13	39262.49
654.27	39077.58
654.42	38923.11
654.56	38981.62
654.71	39227.38
654.85	38913.75
655.00	39040.14
655.14	38352.02
655.29	38209.25
655.43	38780.34
655.57	38499.47
655.72	38499.47
655.86	38040.73
656.01	38223.29
656.15	37769.22
656.30	38132.01
656.44	38396.49
656.58	38249.03
656.73	37745.82
656.87	37921.36
657.01	38096.90
657.16	37717.73
657.30	38223.29
657.45	38012.64
657.59	38101.58
657.73	38115.62
657.88	38452.66
658.02	38176.48
658.16	38422.23
658.31	38677.35
658.45	38534.58
658.60	38078.18
658.74	37823.06
658.88	38103.92
659.03	38047.75
659.17	37729.44
659.31	37640.50
659.46	37916.68
659.60	37439.21
659.74	37717.73
659.89	37654.54
660.03	37624.11
660.17	37624.11
660.32	37425.17
660.46	37954.13
660.60	37710.71
660.74	37581.98
660.89	37219.20
661.03	37284.73
661.17	37500.06
661.32	37015.57
661.46	37015.57
661.60	37085.79
661.74	37062.38
661.89	36912.59
662.03	37130.26
662.17	37301.12
662.31	37179.41
662.46	37123.24
662.60	37109.19
662.74	36809.61
662.88	36657.47
663.03	36701.94
663.17	36863.44
663.31	36643.43
663.45	36697.26
663.60	36573.21
663.74	36322.77
663.88	36194.04
664.02	36198.73
664.17	36208.09
664.31	35674.45
664.45	35842.96
664.59	35899.14
664.73	36334.48
664.88	35915.52
665.02	35873.39
665.16	35971.69
665.30	36348.52
665.44	36002.12
665.59	35637.00
665.73	35517.63
665.87	35461.46
666.01	35438.05
666.15	35541.03
666.29	35435.71
666.44	35363.15
666.58	35625.29
666.72	35555.08
666.86	35253.15
667.00	35679.13
667.14	35346.77
667.28	35379.54
667.43	35211.02
667.57	35093.99
667.71	35047.18
667.85	35049.52
667.99	34649.29
668.13	34864.62
668.27	34862.28
668.41	34902.07
668.56	34794.40
668.70	35115.06
668.84	34852.92
668.98	34628.23
669.12	34338.00
669.26	34698.44
669.40	34403.53
669.54	34342.68
669.68	34323.96
669.82	34045.43
669.96	33848.83
670.10	33649.88
670.25	33926.07
670.39	33851.17
670.53	33476.68
670.67	33577.33
670.81	34033.73
670.95	33516.47
671.09	33369.02
671.23	33769.25
671.37	34033.73
671.51	33104.54
671.65	33516.47
671.79	33153.69
671.93	33277.74
672.07	33497.75
672.21	33205.18
672.35	33125.60
672.49	33198.16
672.63	33090.49
672.77	33259.01
672.91	33130.28
673.05	32788.56
673.19	32847.08
673.33	32374.29
673.47	32584.94
673.61	32676.22
673.75	32486.64
673.89	32222.16
674.03	32006.83
674.17	32154.28
674.31	31936.61
674.45	32287.69
674.59	32095.77
674.73	32676.22
674.87	31695.53
675.01	31948.31
675.15	32158.96
675.29	31821.92
675.43	31730.64
675.56	31728.30
675.70	31700.22
675.84	31531.70
675.98	30382.49
676.12	31082.31
676.26	31096.36
676.40	30869.33
676.54	30974.65
676.68	30925.50
676.82	30204.61
676.96	30747.62
677.10	30562.72
677.23	30436.33
677.37	30551.01
677.51	30522.93
677.65	30377.81
677.79	30010.35
677.93	30445.69
678.07	30033.75
678.21	29750.55
678.34	29921.41
678.48	29743.53
678.62	29809.06
678.76	29565.65
678.90	29792.68
679.04	29401.81
679.18	29549.26
679.31	29254.36
679.45	29118.60
679.59	28858.81
679.73	28795.61
679.87	29106.90
680.00	29029.66
680.14	28982.85
680.28	28648.16
680.42	28671.56
680.56	28606.03
680.70	28411.76
680.83	28320.48
680.97	28233.88
681.11	28037.28
681.25	28079.41
681.39	28233.88
681.52	27868.76
681.66	27885.14
681.80	27529.38
681.94	28116.86
682.07	27812.59
682.21	27398.31
682.35	27346.82
682.49	27201.71
682.62	27225.11
682.76	26576.78
682.90	26897.44
683.04	27026.17
683.17	26157.83
683.31	26436.35
683.45	26618.91
683.59	26403.58
683.72	26139.10
683.86	25998.67
684.00	25984.63
684.13	26565.08
684.27	26143.78
684.41	25811.43
684.55	25956.54
684.68	25525.88
684.82	25717.81
684.96	25771.64
685.09	25975.27
685.23	25137.35
685.37	25411.20
685.50	25420.56
685.64	25530.56
685.78	25483.75
685.91	25032.03
686.05	25034.37
686.19	24582.65
686.32	24713.72
686.46	24521.79
686.60	23899.21
686.73	24034.96
686.87	23955.38
687.01	23859.42
687.14	23843.04
687.28	23693.24
687.42	23611.32
687.55	23690.90
687.69	23819.63
687.82	23246.20
687.96	23482.59
688.10	23515.36
688.23	23335.14
688.37	23026.19
688.50	22916.19
688.64	22726.60
688.78	23021.51
688.91	22515.95
689.05	22665.75
689.18	22640.00
689.32	22265.52
689.46	22530.00
689.59	23037.89
689.73	22803.84
689.86	22534.68
690.00	22249.13
690.13	22574.47
690.27	22380.20
690.41	22321.69
690.54	21722.51
690.68	21848.90
690.81	21799.75
690.95	21467.39
691.08	21804.43
691.22	21589.10
691.35	21521.23
691.49	21525.91
691.62	21460.37
691.76	21504.84
691.89	21270.79
692.03	21525.91
692.16	21228.66
692.30	20893.96
692.43	21266.11
692.57	20617.78
692.70	20521.82
692.84	20709.06
692.97	20402.45
693.11	20617.78
693.24	20236.27
693.38	20421.17
693.51	20144.99
693.65	20154.35
693.78	19838.38
693.92	20287.76
694.05	19932.00
694.19	20037.33
694.32	19728.38
694.45	19850.08
694.59	19477.94
694.72	19590.28
694.86	19468.58
694.99	19318.78
695.13	18934.93
695.26	18923.23
695.39	18775.78
695.53	19585.60
695.66	19246.23
695.80	18888.12
695.93	18801.52
696.07	18560.45
696.20	18834.29
696.33	18679.82
696.47	18560.45
696.60	18642.37
696.73	18363.84
696.87	18019.78
697.00	18464.49
697.14	18384.91
697.27	18164.90
697.40	18045.53
697.54	18029.15
697.67	17860.63
697.80	17958.93
697.94	17635.94
698.07	17715.51
698.21	17610.19
698.34	17596.15
698.47	17326.99
698.61	17137.40
698.74	17195.92
698.87	17266.13
699.01	16875.26
699.14	16664.61
699.27	17027.40
699.40	16868.24
699.54	16793.34
699.67	16582.70
699.80	16514.82
699.94	16601.42
700.07	16346.30
700.20	16638.87
700.34	16203.53
700.47	16315.87
700.60	16327.58
700.73	16329.92
700.87	16245.66
701.00	16009.26
701.13	15915.64
701.26	15962.45
701.40	15847.77
701.53	15962.45
701.66	15882.88
701.79	15910.96
701.93	15562.22
702.06	15496.69
702.19	15353.91
702.32	15534.14
702.46	15264.97
702.59	15246.25
702.72	15248.59
702.85	14911.55
702.99	15276.68
703.12	15005.17
703.25	15126.88
703.38	15040.28
703.51	14953.68
703.65	14810.91
703.78	14373.23
703.91	14518.34
704.04	14480.89
704.17	14420.04
704.31	14338.12
704.44	14164.92
704.57	14061.94
704.70	14097.05
704.83	14244.50
704.96	13909.80
705.10	14150.88
705.23	14188.33
>>>>>End Processed Spectral Data<<<<<
