SpectraSuite Data File
++++++++++++++++++++++++++++++++++++
Date: Fri Oct 25 10:47:45 EDT 2013
User: price-jones
Dark Spectrum Present: No
Reference Spectrum Present: No
Number of Sampled Component Spectra: 1
Spectrometers: USB2+H05261
Integration Time (usec): 100000 (USB2+H05261)
Spectra Averaged: 1 (USB2+H05261)
Boxcar Smoothing: 0 (USB2+H05261)
Correct for Electrical Dark: No (USB2+H05261)
Strobe/Lamp Enabled: No (USB2+H05261)
Correct for Detector Non-linearity: No (USB2+H05261)
Correct for Stray Light: No (USB2+H05261)
Number of Pixels in Processed Spectrum: 2048
>>>>>Begin Processed Spectral Data<<<<<
365.73	154.48
365.92	154.48
366.12	154.48
366.32	79.58
366.52	0.00
366.72	105.32
366.91	60.85
367.11	0.00
367.31	72.56
367.51	46.81
367.70	100.64
367.90	81.92
368.10	14.04
368.30	4.68
368.49	86.60
368.69	79.58
368.89	84.26
369.09	37.45
369.28	23.41
369.48	35.11
369.68	100.64
369.87	102.98
370.07	65.54
370.27	156.82
370.47	166.18
370.66	416.62
370.86	379.17
371.06	423.64
371.25	442.36
371.45	456.40
371.65	435.34
371.84	433.00
372.04	491.51
372.24	449.38
372.44	500.87
372.63	545.34
372.83	451.72
373.03	538.32
373.22	493.85
373.42	458.74
373.62	566.41
373.81	535.98
374.01	540.66
374.21	531.30
374.40	470.45
374.60	526.62
374.79	421.30
374.99	580.45
375.19	514.92
375.38	624.92
375.58	561.73
375.78	552.37
375.97	547.69
376.17	601.52
376.37	521.94
376.56	601.52
376.76	613.22
376.95	620.24
377.15	535.98
377.35	526.62
377.54	634.29
377.74	636.63
377.93	622.58
378.13	580.45
378.33	599.18
378.52	624.92
378.72	594.50
378.91	634.29
379.11	557.05
379.31	571.09
379.50	599.18
379.70	650.67
379.89	688.12
380.09	662.37
380.28	669.39
380.48	624.92
380.68	657.69
380.87	713.86
381.07	664.71
381.26	788.76
381.46	690.46
381.65	610.88
381.85	716.20
382.04	784.08
382.24	704.50
382.43	709.18
382.63	620.24
382.83	746.63
383.02	669.39
383.22	727.91
383.41	772.38
383.61	676.41
383.80	774.72
384.00	734.93
384.19	674.07
384.39	725.57
384.58	716.20
384.78	786.42
384.97	795.78
385.17	779.40
385.36	800.46
385.56	798.12
385.75	772.38
385.95	805.14
386.14	842.59
386.34	751.31
386.53	840.25
386.72	807.48
386.92	837.91
387.11	840.25
387.31	812.17
387.50	868.34
387.70	844.93
387.89	844.93
388.09	807.48
388.28	805.14
388.48	788.76
388.67	823.87
388.86	844.93
389.06	856.64
389.25	880.04
389.45	919.83
389.64	887.06
389.84	950.26
390.03	915.15
390.22	910.47
390.42	833.23
390.61	933.87
390.81	945.58
391.00	910.47
391.19	1011.11
391.39	945.58
391.58	961.96
391.78	945.58
391.97	887.06
392.16	887.06
392.36	957.28
392.55	952.60
392.75	896.43
392.94	889.40
393.13	1090.69
393.33	929.19
393.52	1004.09
393.71	1078.99
393.91	964.30
394.10	1015.79
394.29	1078.99
394.49	1025.15
394.68	1055.58
394.88	1090.69
395.07	1123.46
395.26	1121.12
395.46	1090.69
395.65	1142.18
395.84	1088.35
396.04	1076.65
396.23	1163.25
396.42	1114.10
396.62	1125.80
396.81	1160.91
397.00	1179.63
397.19	1130.48
397.39	1263.89
397.58	1198.35
397.77	1252.19
397.97	1165.59
398.16	1263.89
398.35	1277.93
398.55	1348.15
398.74	1322.40
398.93	1331.76
399.12	1291.98
399.32	1247.51
399.51	1324.74
399.70	1301.34
399.90	1284.95
400.09	1387.94
400.28	1343.47
400.47	1371.55
400.67	1439.43
400.86	1411.34
401.05	1474.54
401.24	1462.83
401.44	1451.13
401.63	1458.15
401.82	1507.30
402.01	1511.99
402.21	1476.88
402.40	1399.64
402.59	1430.07
402.78	1542.41
402.97	1631.35
403.17	1542.41
403.36	1626.67
403.55	1593.90
403.74	1645.40
403.93	1710.93
404.13	1715.61
404.32	1659.44
404.51	1710.93
404.70	1696.89
404.89	1657.10
405.09	1659.44
405.28	1687.53
405.47	1689.87
405.66	1626.67
405.85	1678.16
406.05	1778.81
406.24	1788.17
406.43	1748.38
406.62	1813.92
406.81	1949.67
407.00	1781.15
407.20	1680.50
407.39	1818.60
407.58	1888.81
407.77	1865.41
407.96	1937.96
408.15	1884.13
408.34	2008.18
408.54	1870.09
408.73	1977.75
408.92	1959.03
409.11	2069.03
409.30	2066.69
409.49	2106.48
409.68	2005.84
409.87	2097.12
410.07	2054.99
410.26	2108.82
410.45	2033.93
410.64	2101.80
410.83	2265.64
411.02	2193.08
411.21	2312.45
411.40	2246.91
411.59	2361.60
411.78	2232.87
411.98	2204.78
412.17	2333.51
412.36	2258.62
412.55	2403.73
412.74	2429.48
412.93	2429.48
413.12	2260.96
413.31	2602.68
413.50	2427.14
413.69	2502.03
413.88	2661.19
414.07	2532.46
414.26	2644.81
414.45	2752.47
414.64	2621.40
414.83	2572.25
415.02	2677.57
415.22	2834.39
415.41	2874.18
415.60	2841.41
415.79	2794.60
415.98	2988.86
416.17	2846.09
416.36	2888.22
416.55	2871.84
416.74	2951.42
416.93	2965.46
417.12	2967.80
417.31	2937.37
417.50	3033.33
417.69	2960.78
417.88	3164.40
418.07	3000.57
418.26	3038.02
418.45	3038.02
418.64	3122.27
418.83	3229.94
419.02	3258.03
419.21	3098.87
419.39	3218.24
419.58	3063.76
419.77	3108.23
419.96	3176.11
420.15	3133.98
420.34	3267.39
420.53	3300.16
420.72	3304.84
420.91	3384.41
421.10	3351.65
421.29	3389.10
421.48	3169.09
421.67	3440.59
421.86	3447.61
422.05	3353.99
422.24	3466.33
422.43	3396.12
422.61	3400.80
422.80	3541.23
422.99	3433.57
423.18	3433.57
423.37	3541.23
423.56	3468.67
423.75	3386.76
423.94	3496.76
424.13	3215.90
424.32	3279.09
424.50	3496.76
424.69	3625.49
424.88	3515.48
425.07	3531.87
425.26	3515.48
425.45	3609.11
425.64	3501.44
425.83	3648.90
426.01	3709.75
426.20	3571.66
426.39	3503.78
426.58	3531.87
426.77	3550.59
426.96	3634.85
427.15	3637.19
427.33	3684.00
427.52	3672.30
427.71	3712.09
427.90	3770.60
428.09	3789.33
428.28	3854.86
428.46	3686.34
428.65	3784.65
428.84	3892.31
429.03	3894.65
429.22	3712.09
429.40	3772.94
429.59	3768.26
429.78	3583.36
429.97	3630.17
430.16	3712.09
430.34	3772.94
430.53	3896.99
430.72	3707.41
430.91	3847.84
431.10	3815.07
431.28	4037.42
431.47	4259.78
431.66	4219.99
431.85	3971.89
432.03	4070.19
432.22	4269.14
432.41	4210.62
432.60	4236.37
432.79	3981.25
432.97	4243.39
433.16	4250.41
433.35	4100.62
433.54	4234.03
433.72	4341.69
433.91	4304.25
434.10	4259.78
434.28	4149.77
434.47	4390.84
434.66	4329.99
434.85	4358.08
435.03	4454.04
435.22	4451.70
435.41	4697.46
435.59	4528.94
435.78	4411.91
435.97	4638.94
436.16	4571.07
436.34	4461.06
436.53	4458.72
436.72	4730.22
436.90	4596.81
437.09	4643.62
437.28	4564.04
437.46	4622.56
437.65	4615.54
437.84	4795.76
438.02	4755.97
438.21	4702.14
438.40	4599.15
438.58	4882.36
438.77	4720.86
438.96	4858.95
439.14	4978.32
439.33	5083.64
439.52	5097.69
439.70	5263.86
439.89	5085.98
440.08	5259.18
440.26	5273.23
440.45	5128.11
440.63	5167.90
440.82	5298.97
441.01	5228.76
441.19	5242.80
441.38	5308.34
441.57	5486.22
441.75	5472.17
441.94	5511.96
442.12	5537.71
442.31	5696.86
442.50	5483.88
442.68	5659.42
442.87	5502.60
443.05	5518.98
443.24	5741.33
443.43	5701.54
443.61	5788.14
443.80	5914.53
443.98	5523.66
444.17	5474.51
444.35	5654.73
444.54	5750.70
444.73	5921.56
444.91	5738.99
445.10	5851.34
445.28	5975.39
445.47	5872.40
445.65	5736.65
445.84	5832.62
446.02	5916.87
446.21	5844.32
446.39	5909.85
446.58	5989.43
446.77	5839.64
446.95	5937.94
447.14	6031.56
447.32	5886.45
447.51	5921.56
447.69	5832.62
447.88	5790.49
448.06	5916.87
448.25	5968.37
448.43	6010.50
448.62	5851.34
448.80	5959.00
448.99	6073.69
449.17	6136.88
449.36	6146.25
449.54	6136.88
449.73	6361.58
449.91	6291.36
450.10	6181.35
450.28	6382.64
450.46	6471.58
450.65	6333.49
450.83	6434.13
451.02	6406.05
451.20	6406.05
451.39	6363.92
451.57	6466.90
451.76	6459.88
451.94	6410.73
452.13	6581.59
452.31	6504.35
452.49	6471.58
452.68	6513.71
452.86	6413.07
453.05	6633.08
453.23	6572.22
453.42	6375.62
453.60	6485.62
453.78	6750.10
453.97	6429.45
454.15	6621.38
454.34	6710.32
454.52	6782.87
454.70	6684.57
454.89	6724.36
455.07	6817.98
455.26	7007.56
455.44	6736.06
455.62	6869.47
455.81	6864.79
455.99	6935.01
456.17	7112.89
456.36	7005.22
456.54	7087.14
456.73	7068.42
456.91	7330.56
457.09	7176.08
457.28	7426.52
457.46	7098.84
457.64	7363.33
457.83	7286.09
458.01	7190.13
458.19	7541.21
458.38	7288.43
458.56	7342.26
458.74	7396.09
458.93	7449.93
459.11	7286.09
459.29	7569.29
459.48	7461.63
459.66	7541.21
459.84	7576.31
460.03	7723.77
460.21	7723.77
460.39	7585.68
460.57	7604.40
460.76	7576.31
460.94	7674.62
461.12	7735.47
461.31	7779.94
461.49	7805.69
461.67	7772.92
461.85	7852.50
462.04	7950.80
462.22	8245.71
462.40	8032.72
462.59	7836.11
462.77	7985.91
462.95	7990.59
463.13	8102.93
463.32	8072.51
463.50	8072.51
463.68	8030.38
463.86	8217.62
464.05	7875.90
464.23	7929.74
464.41	8098.25
464.59	8100.59
464.78	8269.11
464.96	8355.71
465.14	8044.42
465.32	8149.75
465.50	8269.11
465.69	8360.39
465.87	8379.12
466.05	8243.37
466.23	8297.20
466.41	8149.75
466.60	8524.23
466.78	8224.64
466.96	8262.09
467.14	8161.45
467.32	8456.36
467.51	8552.32
467.69	8273.79
467.87	8311.24
468.05	8407.20
468.23	8526.57
468.41	8524.23
468.60	8709.13
468.78	8662.32
468.96	8643.60
469.14	8917.44
469.32	8964.25
469.50	8421.25
469.69	8793.39
469.87	8943.19
470.05	8908.08
470.23	8994.68
470.41	8879.99
470.59	8982.98
470.77	9114.05
470.95	9090.64
471.14	9289.59
471.32	9022.77
471.50	9308.31
471.68	9184.26
471.86	9181.92
472.04	9348.10
472.22	9549.39
472.40	9296.61
472.58	9511.94
472.77	9327.03
472.95	9535.34
473.13	9954.30
473.31	9523.64
473.49	9420.66
473.67	9359.80
473.85	9633.64
474.03	9989.41
474.21	9963.66
474.39	10057.28
474.57	9884.08
474.75	10204.74
474.93	10183.67
475.12	10106.43
475.30	10235.16
475.48	10104.09
475.66	10214.10
475.84	10190.69
476.02	10310.06
476.20	10141.54
476.38	10384.96
476.56	10916.26
476.74	10684.55
476.92	10656.46
477.10	10565.18
477.28	10963.07
477.46	10675.18
477.64	10949.03
477.82	11173.72
478.00	11330.53
478.18	11293.08
478.36	11452.24
478.54	11349.26
478.72	11580.97
478.90	11805.66
479.08	12004.61
479.26	11999.93
479.44	11838.43
479.62	11918.01
479.80	12046.74
479.98	12016.31
480.16	12425.90
480.34	12376.75
480.52	12512.50
480.70	12348.67
480.88	12292.49
481.06	12367.39
481.24	12964.23
481.41	12886.99
481.59	12987.63
481.77	13156.15
481.95	12987.63
482.13	12989.97
482.31	13116.36
482.49	13394.89
482.67	13413.61
482.85	13797.46
483.03	13806.82
483.21	13788.10
483.39	13951.93
483.57	13958.96
483.74	14235.14
483.92	14473.87
484.10	14314.72
484.28	14682.18
484.46	14883.47
484.64	14794.53
484.82	14520.68
485.00	14803.89
485.18	15192.42
485.35	15066.03
485.53	15197.10
485.71	14993.47
485.89	15309.44
486.07	15159.65
486.25	15520.09
486.43	15681.59
486.61	15644.14
486.78	15803.30
486.96	16128.63
487.14	16027.99
487.32	16074.80
487.50	16273.74
487.68	16755.90
487.85	16774.62
488.03	16697.38
488.21	17020.38
488.39	17006.33
488.57	17118.68
488.75	17352.73
488.92	17706.15
489.10	17848.93
489.28	17722.54
489.46	18274.90
489.64	18017.44
489.81	18270.22
489.99	18398.95
490.17	18553.43
490.35	18508.96
490.53	18352.14
490.70	18728.97
490.88	18967.70
491.06	19094.09
491.24	18876.42
491.41	19431.13
491.59	19161.97
491.77	18883.44
491.95	19704.97
492.13	19499.00
492.30	19747.10
492.48	19658.16
492.66	19873.49
492.84	19939.02
493.01	20243.29
493.19	20147.33
493.37	20755.87
493.54	20650.55
493.72	20451.60
493.90	20828.43
494.08	20823.75
494.25	21209.93
494.43	21289.51
494.61	21401.86
494.79	21209.93
494.96	21462.71
495.14	21708.47
495.32	22033.80
495.49	21631.23
495.67	21680.38
495.85	22005.72
496.02	22089.98
496.20	22443.40
496.38	22202.32
496.55	22572.13
496.73	22974.70
496.91	22497.23
497.09	22885.76
497.26	23157.26
497.44	22984.06
497.62	23098.75
497.79	23377.27
497.97	23117.47
498.14	23405.36
498.32	23704.95
498.50	23981.13
498.67	23522.38
498.85	24156.67
499.03	23969.43
499.20	24320.51
499.38	24151.99
499.56	24341.57
499.73	24252.63
499.91	24184.76
500.08	24772.23
500.26	24070.07
500.44	24622.44
500.61	24636.48
500.79	24489.03
500.97	24596.69
501.14	25149.06
501.32	25338.64
501.49	25104.59
501.67	25198.21
501.84	25404.17
502.02	25511.84
502.20	25535.24
502.37	25610.14
502.55	25619.50
502.72	25986.97
502.90	25778.66
503.07	25806.75
503.25	26052.50
503.43	26387.20
503.60	26235.06
503.78	26050.16
503.95	25902.71
504.13	26623.59
504.30	26639.98
504.48	26494.86
504.65	26792.11
504.83	26995.74
505.01	27213.41
505.18	26686.79
505.36	27346.82
505.53	26878.71
505.71	27161.92
505.88	27070.64
506.06	27061.27
506.23	27545.76
506.41	27292.99
506.58	27426.40
506.76	27494.27
506.93	27651.09
507.11	27880.46
507.28	27871.10
507.46	28081.75
507.63	27721.30
507.81	28189.41
507.98	27995.15
508.16	28133.24
508.33	28357.93
508.50	28601.35
508.68	28325.16
508.85	28933.70
509.03	28678.58
509.20	28217.50
509.38	28634.11
509.55	29249.67
509.73	29184.14
509.90	28922.00
510.08	29006.26
510.25	28982.85
510.42	29411.17
510.60	29518.84
510.77	29366.70
510.95	29371.38
511.12	29308.19
511.30	29893.32
511.47	30218.66
511.64	29909.71
511.82	30274.83
511.99	29860.55
512.17	29881.62
512.34	29706.08
512.51	30120.35
512.69	30202.27
512.86	30506.54
513.04	30543.99
513.21	30738.26
513.38	30092.27
513.56	30721.87
513.73	30249.08
513.90	30703.15
514.08	30815.49
514.25	30888.05
514.43	30913.80
514.60	31456.80
514.77	31571.49
514.95	31094.02
515.12	31400.63
515.29	31438.08
515.47	31861.71
515.64	31828.95
515.81	31566.81
515.99	31178.28
516.16	31552.76
516.33	31744.69
516.51	31920.23
516.68	31421.69
516.85	31384.24
517.03	31721.28
517.20	32109.81
517.37	31885.12
517.54	32306.41
517.72	31971.72
517.89	32165.98
518.06	31988.10
518.24	32360.25
518.41	32023.21
518.58	32519.40
518.75	32325.14
518.93	32699.62
519.10	32847.08
519.27	32329.82
519.45	33041.34
519.62	33195.82
519.79	33013.26
519.96	33151.35
520.14	33195.82
520.31	33092.83
520.48	33212.20
520.65	33333.91
520.83	33642.86
521.00	33872.23
521.17	33553.92
521.34	33682.65
521.52	33832.44
521.69	33530.51
521.86	34054.79
522.03	33895.64
522.20	34197.57
522.38	34206.93
522.55	34323.96
522.72	33921.38
522.89	34487.79
523.07	34307.57
523.24	34302.89
523.41	34251.40
523.58	34029.05
523.75	35143.14
523.92	34918.45
524.10	34656.31
524.27	35187.61
524.44	34953.56
524.61	35023.78
524.78	35356.13
524.96	35115.06
525.13	35683.81
525.30	35367.84
525.47	35229.74
525.64	35543.38
525.81	35461.46
525.98	35370.18
526.16	35407.62
526.33	35145.48
526.50	35594.87
526.67	35489.54
526.84	35501.25
527.01	35456.78
527.18	35885.09
527.36	35742.32
527.53	35903.82
527.70	36240.86
527.87	36362.56
528.04	36547.47
528.21	36140.21
528.38	36119.15
528.55	36374.27
528.72	35903.82
528.89	36603.64
529.07	36243.20
529.24	36067.66
529.41	36603.64
529.58	36395.33
529.75	36545.12
529.92	36470.23
530.09	37233.24
530.26	37038.98
530.43	36711.30
530.60	36311.07
530.77	36863.44
530.94	37186.43
531.11	36851.73
531.28	37165.37
531.46	37172.39
531.63	37399.42
531.80	37376.01
531.97	37280.05
532.14	37392.40
532.31	37361.97
532.48	37429.85
532.65	37731.78
532.82	37399.42
532.99	37579.64
533.16	37146.64
533.33	37373.67
533.50	37776.25
533.67	37581.98
533.84	37488.36
534.01	38178.82
534.18	37507.08
534.35	38064.13
534.52	38242.01
534.69	38141.37
534.86	38000.94
535.03	38022.00
535.20	38581.39
535.37	38319.25
535.54	38284.14
535.71	38199.88
535.88	38342.66
536.05	38171.80
536.22	38445.64
536.38	38588.41
536.55	38712.46
536.72	38234.99
536.89	38064.13
537.06	38539.26
537.23	38831.83
537.40	38478.41
537.57	38707.78
537.74	39100.99
537.91	39126.74
538.08	38911.41
538.25	38726.50
538.42	38649.27
538.59	38518.20
538.75	38888.00
538.92	39014.39
539.09	39583.14
539.26	39194.61
539.43	39529.31
539.60	39189.93
539.77	39281.21
539.94	39267.17
540.11	39161.84
540.28	39152.48
540.44	39267.17
540.61	39042.48
540.78	39557.39
540.95	39522.29
541.12	39566.76
541.29	39723.57
541.46	39531.65
541.62	39611.23
541.79	40144.87
541.96	39381.85
542.13	39936.56
542.30	40126.14
542.47	40170.61
542.63	40034.86
542.80	40224.45
542.97	40137.85
543.14	40444.46
543.31	40348.50
543.48	40854.05
543.64	40830.65
543.81	40507.65
543.98	40704.26
544.15	40189.34
544.32	40568.51
544.48	41088.10
544.65	40912.56
544.82	40802.56
544.99	40968.74
545.16	40739.36
545.32	40755.75
545.49	41148.96
545.66	41251.94
545.83	40903.20
546.00	40790.86
546.16	41216.83
546.33	41111.51
546.50	40959.38
546.67	40966.40
546.83	40568.51
547.00	41050.66
547.17	41331.52
547.34	40879.80
547.50	41390.03
547.67	41610.04
547.84	41397.06
548.00	41584.30
548.17	41684.94
548.34	41752.82
548.51	41570.25
548.67	41397.06
548.84	41837.08
549.01	41617.07
549.18	41706.01
549.34	41687.28
549.51	41820.69
549.68	42438.59
549.84	42155.39
550.01	41862.82
550.18	41820.69
550.34	41647.49
550.51	42052.41
550.68	41640.47
550.84	41839.42
551.01	42209.22
551.18	41521.10
551.34	42089.85
551.51	42623.50
551.68	42096.88
551.84	42628.18
552.01	42153.05
552.18	42513.49
552.34	42270.08
552.51	42188.16
552.68	42529.87
552.84	42745.20
553.01	42529.87
553.18	42518.17
553.34	42426.89
553.51	42302.84
553.67	42354.33
553.84	42852.87
554.01	42333.27
554.17	42600.09
554.34	42752.23
554.51	42504.13
554.67	42897.34
554.84	42543.92
555.00	42394.12
555.17	42485.40
555.33	42541.58
555.50	42717.12
555.67	42810.74
555.83	42539.24
556.00	43068.20
556.16	43171.18
556.33	43262.46
556.50	43227.35
556.66	42735.84
556.83	42965.21
556.99	43250.76
557.16	43182.88
557.32	43318.64
557.49	42953.51
557.65	42763.93
557.82	43049.47
557.98	42726.48
558.15	43023.73
558.32	43115.01
558.48	42876.27
558.65	43328.00
558.81	43227.35
558.98	43143.09
559.14	43374.81
559.31	43363.11
559.47	43356.08
559.64	43386.51
559.80	43676.74
559.97	43945.90
560.13	43283.53
560.30	43473.11
560.46	43276.51
560.63	43871.00
560.79	43550.35
560.96	43629.93
561.12	43917.81
561.29	43669.72
561.45	43335.02
561.61	43634.61
561.78	43746.95
561.94	43365.45
562.11	43714.19
562.27	43737.59
562.44	43964.62
562.60	43711.84
562.77	43971.64
562.93	43613.54
563.10	43842.92
563.26	43819.51
563.42	43702.48
563.59	43423.96
563.75	43878.02
563.92	44079.31
564.08	43288.21
564.24	43976.33
564.41	43896.75
564.57	44062.93
564.74	43913.13
564.90	44067.61
565.07	44179.95
565.23	43976.33
565.39	43800.79
565.56	44182.29
565.72	43899.09
565.88	44030.16
566.05	43779.72
566.21	43861.64
566.38	43459.07
566.54	43840.57
566.70	44217.40
566.87	44381.24
567.03	43997.39
567.19	44395.28
567.36	44341.45
567.52	43859.30
567.68	44109.74
567.85	44371.88
568.01	43973.98
568.17	44158.89
568.34	44273.57
568.50	44701.89
568.66	43945.90
568.83	44371.88
568.99	44011.43
569.15	44034.84
569.32	43910.79
569.48	43887.39
569.64	44088.67
569.81	44449.11
569.97	44362.51
570.13	44236.12
570.30	44069.95
570.46	43658.01
570.62	44053.56
570.78	44573.16
570.95	43833.55
571.11	44512.31
571.27	44130.80
571.43	44287.62
571.60	44210.38
571.76	44779.13
571.92	44156.55
572.09	44706.57
572.25	44491.24
572.41	43908.45
572.57	44491.24
572.74	45406.39
572.90	44547.42
573.06	44406.98
573.22	44254.85
573.38	44559.12
573.55	44222.08
573.71	44893.82
573.87	44231.44
574.03	44020.80
574.20	44135.48
574.36	44095.69
574.52	44531.03
574.68	44421.03
574.84	44975.73
575.01	44765.09
575.17	44449.11
575.33	44439.75
575.49	44570.82
575.65	44737.00
575.82	44687.85
575.98	44566.14
576.14	45057.65
576.30	44381.24
576.46	43924.83
576.62	44018.46
576.79	44751.04
576.95	44666.78
577.11	44350.81
577.27	44814.24
577.43	44374.22
577.59	44215.06
577.75	44474.86
577.92	44502.95
578.08	44168.25
578.24	44161.23
578.40	44589.55
578.56	44355.49
578.72	44512.31
578.88	44481.88
579.04	44769.77
579.21	44629.34
579.37	44208.04
579.53	44737.00
579.69	44163.57
579.85	44442.09
580.01	44741.68
580.17	44528.69
580.33	44664.44
580.49	44680.83
580.65	44657.42
580.82	44708.91
580.98	44870.41
581.14	44746.36
581.30	44879.77
581.46	44444.43
581.62	44926.58
581.78	44760.40
581.94	45062.33
582.10	44877.43
582.26	44498.26
582.42	44706.57
582.58	44619.97
582.74	44650.40
582.90	44779.13
583.06	44795.51
583.22	44996.80
583.38	44467.84
583.54	44746.36
583.70	44463.16
583.86	44891.48
584.02	44390.60
584.18	44463.16
584.34	44793.17
584.50	44896.16
584.66	44673.81
584.82	44603.59
584.98	44865.73
585.14	44786.15
585.30	44900.84
585.46	44744.02
585.62	44311.02
585.78	44491.24
585.94	44278.25
586.10	44678.49
586.26	44626.99
586.42	44935.95
586.58	44554.44
586.74	44556.78
586.90	44502.95
587.06	44837.64
587.22	44863.39
587.38	44545.08
587.54	45219.15
587.70	45024.89
587.86	45006.16
588.02	44631.68
588.18	45223.83
588.34	44921.90
588.49	44509.97
588.65	44526.35
588.81	44329.75
588.97	44495.92
589.13	44643.38
589.29	44577.84
589.45	44877.43
589.61	44971.05
589.77	44591.89
589.93	44940.63
590.08	44828.28
590.24	44861.05
590.40	45263.62
590.56	45158.30
590.72	44737.00
590.88	44626.99
591.04	44552.10
591.20	44807.22
591.35	45450.86
591.51	45270.64
591.67	44849.35
591.83	45200.43
591.99	44898.50
592.15	44495.92
592.31	44685.51
592.46	44783.81
592.62	44907.86
592.78	44907.86
592.94	45399.37
593.10	44919.56
593.26	44851.69
593.41	45200.43
593.57	44964.03
593.73	45240.21
593.89	44952.33
594.05	45048.29
594.20	45052.97
594.36	45233.19
594.52	45270.64
594.68	45525.76
594.84	45230.85
594.99	45439.16
595.15	45062.33
595.31	45553.85
595.47	45483.63
595.62	45411.07
595.78	45125.53
595.94	45361.92
596.10	45275.32
596.25	45329.16
596.41	45326.81
596.57	45137.23
596.73	44938.29
596.88	44713.59
597.04	45301.07
597.20	45195.74
597.36	45373.63
597.51	45336.18
597.67	45223.83
597.83	44872.75
597.99	45436.82
598.14	45132.55
598.30	44973.39
598.46	44921.90
598.61	45308.09
598.77	44900.84
598.93	45151.27
599.09	44935.95
599.24	45600.66
599.40	45347.88
599.56	45282.34
599.71	45350.22
599.87	45661.51
600.03	45350.22
600.18	45502.35
600.34	45457.88
600.50	45600.66
600.65	45088.08
600.81	45577.25
600.97	45090.42
601.12	45949.40
601.28	45308.09
601.44	45291.71
601.59	44832.96
601.75	44720.62
601.91	45034.25
602.06	45322.13
602.22	45373.63
602.37	45045.95
602.53	44957.01
602.69	45668.53
602.84	45277.66
603.00	45102.12
603.16	45195.74
603.31	45153.62
603.47	44737.00
603.62	45024.89
603.78	45043.61
603.94	45055.31
604.09	45460.23
604.25	45368.94
604.40	45301.07
604.56	45141.91
604.71	45488.31
604.87	45076.38
605.03	45130.21
605.18	44966.37
605.34	45074.04
605.49	44711.25
605.65	45177.02
605.80	44910.20
605.96	45310.43
606.12	45195.74
606.27	44994.46
606.43	44854.03
606.58	45359.58
606.74	44985.10
606.89	44964.03
607.05	45228.51
607.20	45191.06
607.36	44814.24
607.51	45425.12
607.67	44634.02
607.82	44938.29
607.98	45038.93
608.13	44598.91
608.29	44814.24
608.44	44488.90
608.60	44828.28
608.75	44823.60
608.91	44634.02
609.06	44617.63
609.22	44996.80
609.37	44975.73
609.53	44650.40
609.68	45146.59
609.84	45116.17
609.99	44676.15
610.15	44428.05
610.30	44587.21
610.46	44231.44
610.61	44364.85
610.76	44847.00
610.92	44507.63
611.07	44395.28
611.23	44402.30
611.38	44659.76
611.54	44313.36
611.69	44428.05
611.84	44376.56
612.00	44526.35
612.15	44535.71
612.31	44507.63
612.46	44479.54
612.62	44837.64
612.77	44603.59
612.92	44222.08
613.08	44690.19
613.23	44027.82
613.39	44378.90
613.54	43505.88
613.69	44311.02
613.85	44184.63
614.00	44552.10
614.15	44304.00
614.31	44325.07
614.46	44748.70
614.62	44428.05
614.77	44168.25
614.92	44184.63
615.08	43732.91
615.23	43957.60
615.38	43842.92
615.54	43798.44
615.69	43714.19
615.84	43648.65
616.00	43955.26
616.15	43941.22
616.30	43793.76
616.46	43835.89
616.61	44067.61
616.76	43665.03
616.92	43503.54
617.07	43981.01
617.22	43920.15
617.37	43861.64
617.53	44119.10
617.68	44030.16
617.83	44149.53
617.99	43988.03
618.14	43604.18
618.29	43786.74
618.45	43468.43
618.60	43873.34
618.75	44219.74
618.90	43323.32
619.06	44142.50
619.21	43693.12
619.36	43908.45
619.51	43550.35
619.67	43220.33
619.82	43999.73
619.97	43342.04
620.12	43543.33
620.28	43594.82
620.43	43606.52
620.58	43606.52
620.73	43292.89
620.89	43426.30
621.04	43548.01
621.19	43381.83
621.34	43005.00
621.49	43136.07
621.65	42885.64
621.80	43173.52
621.95	43030.75
622.10	43288.21
622.25	42792.01
622.41	42553.28
622.56	42593.07
622.71	42721.80
622.86	42925.42
623.01	42911.38
623.16	42990.96
623.32	42911.38
623.47	43047.13
623.62	42909.04
623.77	42773.29
623.92	42703.07
624.07	42930.11
624.23	43033.09
624.38	42667.97
624.53	42279.44
624.68	42543.92
624.83	42806.06
624.98	42873.93
625.13	42143.69
625.29	42726.48
625.44	42728.82
625.59	42464.34
625.74	42344.97
625.89	42396.46
626.04	42286.46
626.19	42293.48
626.34	42206.88
626.49	42326.25
626.65	42227.95
626.80	42700.73
626.95	42134.32
627.10	42241.99
627.25	41750.48
627.40	42174.11
627.55	41914.31
627.70	41860.48
627.85	42316.89
628.00	41916.65
628.15	42351.99
628.30	41750.48
628.45	41968.15
628.60	42237.31
628.76	42277.10
628.91	42171.77
629.06	41888.57
629.21	41874.52
629.36	41958.78
629.51	41532.81
629.66	41439.18
629.81	41338.54
629.96	41930.70
630.11	41991.55
630.26	41509.40
630.41	41390.03
630.56	41404.08
630.71	41383.01
630.86	41734.09
631.01	41546.85
631.16	41593.66
631.31	41401.74
631.46	40917.25
631.61	41504.72
631.76	41380.67
631.91	41820.69
632.06	41233.22
632.21	41647.49
632.36	41387.69
632.51	41331.52
632.66	41429.82
632.81	41202.79
632.96	41036.61
633.10	41064.70
633.25	40645.74
633.40	41050.66
633.55	41411.10
633.70	41284.71
633.85	41207.47
634.00	41148.96
634.15	41141.94
634.30	41490.68
634.45	40940.65
634.60	40776.81
634.75	40959.38
634.90	41233.22
635.05	41076.40
635.19	40722.98
635.34	40980.44
635.49	40957.03
635.64	40950.01
635.79	40378.92
635.94	40573.19
636.09	40526.38
636.24	41008.53
636.39	40039.54
636.53	40177.64
636.68	40273.60
636.83	40407.01
636.98	40390.62
637.13	40479.57
637.28	41268.33
637.43	40685.53
637.57	40278.28
637.72	40367.22
637.87	40444.46
638.02	40591.91
638.17	40371.90
638.32	39976.35
638.46	40205.72
638.61	40163.59
638.76	40060.61
638.91	39981.03
639.06	40046.57
639.20	40418.71
639.35	40378.92
639.50	40243.17
639.65	40121.46
639.80	40437.44
639.94	40044.23
640.09	39826.56
640.24	40217.43
640.39	39754.00
640.54	39627.61
640.68	39899.11
640.83	39545.69
640.98	39578.46
641.13	39892.09
641.27	40121.46
641.42	39803.15
641.57	39887.41
641.72	39655.70
641.86	39517.60
642.01	39894.43
642.16	39590.16
642.31	39119.71
642.45	39487.18
642.60	39131.42
642.75	39157.16
642.90	39503.56
643.04	39545.69
643.19	39236.74
643.34	39129.08
643.48	39393.56
643.63	39253.12
643.78	38869.28
643.93	39421.64
644.07	38719.48
644.22	38927.79
644.37	38880.98
644.51	39213.34
644.66	39285.89
644.81	38906.73
644.95	39346.75
645.10	39222.70
645.25	39304.62
645.39	39288.23
645.54	39166.52
645.69	39005.03
645.83	38756.93
645.98	38941.83
646.13	39005.03
646.27	39339.72
646.42	38675.01
646.57	38630.54
646.71	38745.23
646.86	38672.67
647.00	39047.16
647.15	38644.59
647.30	38625.86
647.44	38906.73
647.59	38813.10
647.74	38913.75
647.88	38756.93
648.03	38579.05
648.17	38410.53
648.32	38321.59
648.47	38888.00
648.61	38108.60
648.76	38660.97
648.90	38595.43
649.05	38281.80
649.20	38651.61
649.34	38785.02
649.49	38862.26
649.63	38506.49
649.78	38513.52
649.92	37909.66
650.07	38934.81
650.21	38019.66
650.36	38637.56
650.51	38284.14
650.65	38660.97
650.80	38745.23
650.94	38511.17
651.09	38527.56
651.23	38174.14
651.38	37912.00
651.52	38059.45
651.67	38260.74
651.81	37928.38
651.96	38012.64
652.10	37755.18
652.25	37813.70
652.39	37858.17
652.54	37879.23
652.68	38195.20
652.83	37764.54
652.97	38288.82
653.12	37787.95
653.26	37574.96
653.41	37792.63
653.55	37883.91
653.70	37434.53
653.84	37713.05
653.99	38087.54
654.13	37628.79
654.27	37207.50
654.42	37336.23
654.56	38059.45
654.71	37834.76
654.85	37364.31
655.00	37572.62
655.14	37195.79
655.29	37156.00
655.43	37387.72
655.57	37303.46
655.72	37277.71
655.86	37212.18
656.01	37380.70
656.15	36994.51
656.30	37088.13
656.44	37156.00
656.58	37053.02
656.73	36673.85
656.87	36872.80
657.01	36563.85
657.16	36975.78
657.30	36996.85
657.45	36643.43
657.59	37015.57
657.73	36610.66
657.88	36697.26
658.02	36603.64
658.16	36631.72
658.31	37057.70
658.45	36912.59
658.60	36350.86
658.74	36926.63
658.88	36488.95
659.03	36474.91
659.17	36376.61
659.31	36198.73
659.46	36229.15
659.60	36598.96
659.74	36573.21
659.89	36165.96
660.03	36095.74
660.17	36409.37
660.32	36023.19
660.46	36510.02
660.60	36411.71
660.74	36266.60
660.89	36353.20
661.03	35847.64
661.17	35875.73
661.32	35639.34
661.46	35658.06
661.60	35838.28
661.74	35915.52
661.89	36018.50
662.03	35302.30
662.17	35749.34
662.31	35632.32
662.46	35880.41
662.60	35538.69
662.74	35321.02
662.88	35562.10
663.03	35267.19
663.17	35278.89
663.31	34941.86
663.45	35442.73
663.60	35615.93
663.74	35049.52
663.88	34916.11
664.02	34913.77
664.17	35367.84
664.31	34761.64
664.45	35248.47
664.59	34707.80
664.73	35370.18
664.88	34981.65
665.02	34424.60
665.16	34841.21
665.30	34450.35
665.44	34490.13
665.59	33886.28
665.73	34703.12
665.87	34141.39
666.01	34382.47
666.15	34176.50
666.29	34265.44
666.44	34478.43
666.58	34094.58
666.72	34433.96
666.86	33954.15
667.00	33830.10
667.14	33961.17
667.28	33837.12
667.43	33837.12
667.57	34141.39
667.71	33539.88
667.85	34080.54
667.99	33336.25
668.13	33366.68
668.27	33577.33
668.41	33376.04
668.56	33249.65
668.70	33329.23
668.84	33317.53
668.98	33256.67
669.12	33235.61
669.26	33483.70
669.40	33083.47
669.54	33331.57
669.68	33280.08
669.82	33060.07
669.96	32708.99
670.10	32751.12
670.25	33177.09
670.39	32847.08
670.53	32697.28
670.67	32877.51
670.81	32610.68
670.95	33031.98
671.09	32804.95
671.23	32580.26
671.37	32669.20
671.51	32458.55
671.65	31824.26
671.79	32102.79
671.93	31929.59
672.07	32259.60
672.21	32367.27
672.35	31974.06
672.49	32355.57
672.63	32002.14
672.77	31838.31
672.91	31625.32
673.05	31887.46
673.19	31356.16
673.33	31154.87
673.47	30808.47
673.61	31318.71
673.75	31281.26
673.89	31515.31
674.03	30583.78
674.17	31117.42
674.31	31447.44
674.45	30981.67
674.59	30979.33
674.73	30895.07
674.87	30789.75
675.01	30555.69
675.15	30815.49
675.29	30543.99
675.43	30623.57
675.56	30562.72
675.70	30438.67
675.84	30398.88
675.98	29397.13
676.12	30265.47
676.26	29748.21
676.40	29790.34
676.54	29750.55
676.68	29692.04
676.82	29202.86
676.96	29956.52
677.10	29305.85
677.23	29369.04
677.37	29362.02
677.51	29095.20
677.65	29146.69
677.79	29142.01
677.93	28730.08
678.07	28828.38
678.21	28959.45
678.34	28503.04
678.48	28472.62
678.62	28655.18
678.76	28414.10
678.90	28313.46
679.04	28079.41
679.18	28329.84
679.31	27913.23
679.45	27873.44
679.59	27845.35
679.73	27711.94
679.87	28013.87
680.00	27653.43
680.14	27587.89
680.28	27709.60
680.42	27702.58
680.56	27250.86
680.70	27400.65
680.83	27335.12
680.97	26637.64
681.11	26920.84
681.25	26721.90
681.39	26998.08
681.52	26651.68
681.66	27026.17
681.80	26848.29
681.94	26649.34
682.07	26766.37
682.21	26345.07
682.35	26384.86
682.49	26480.82
682.62	26089.95
682.76	25855.90
682.90	26111.02
683.04	25773.98
683.17	25937.82
683.31	25759.94
683.45	25699.08
683.59	25876.96
683.72	25502.48
683.86	25158.42
684.00	25032.03
684.13	25350.34
684.27	25053.09
684.41	25057.78
684.55	25165.44
684.68	24959.47
684.82	24786.27
684.96	24966.49
685.09	24861.17
685.23	24517.11
685.37	24669.25
685.50	24538.18
685.64	24521.79
685.78	24568.60
685.91	24184.76
686.05	23985.81
686.19	23985.81
686.32	23704.95
686.46	23328.12
686.60	23506.00
686.73	23454.51
686.87	22939.59
687.01	23379.61
687.14	23379.61
687.28	23192.37
687.42	23089.38
687.55	22979.38
687.69	22742.99
687.82	22934.91
687.96	22984.06
688.10	22925.55
688.23	22691.49
688.37	22370.84
688.50	22525.32
688.64	22265.52
688.78	22015.08
688.91	21837.20
689.05	22321.69
689.18	22064.23
689.32	21977.63
689.46	21898.05
689.59	22104.02
689.73	21858.26
689.86	21600.80
690.00	21818.47
690.13	21841.88
690.27	21469.73
690.41	21319.94
690.54	21088.23
690.68	21343.35
690.81	20940.77
690.95	20872.90
691.08	21071.84
691.22	21010.99
691.35	20936.09
691.49	20760.55
691.62	21109.29
691.76	20938.43
691.89	20559.27
692.03	20575.65
692.16	20135.63
692.30	20521.82
692.43	20484.37
692.57	20046.69
692.70	20177.76
692.84	19906.26
692.97	19730.72
693.11	19894.55
693.24	19726.04
693.38	19660.50
693.51	19431.13
693.65	19545.81
693.78	19374.95
693.92	19349.21
694.05	19145.58
694.19	19145.58
694.32	19365.59
694.45	19073.03
694.59	18820.25
694.72	19056.64
694.86	18766.42
694.99	18640.03
695.13	18515.98
695.26	18518.32
695.39	18333.42
695.53	18326.39
695.66	18284.26
695.80	18019.78
695.93	18352.14
696.07	18005.74
696.20	18293.63
696.33	18108.72
696.47	17771.69
696.60	18001.06
696.73	17699.13
696.87	17589.13
697.00	17909.78
697.14	17862.97
697.27	17680.41
697.40	17664.02
697.54	17568.06
697.67	17254.43
697.80	17319.96
697.94	17207.62
698.07	16989.95
698.21	17114.00
698.34	17193.58
698.47	17057.82
698.61	16608.44
698.74	16734.83
698.87	16699.72
699.01	16489.07
699.14	16421.20
699.27	16140.33
699.40	16561.63
699.54	16137.99
699.67	16121.61
699.80	15976.50
699.94	16287.79
700.07	16114.59
700.20	15857.13
700.34	15695.63
700.47	15709.68
700.60	15730.74
700.73	16123.95
700.87	15391.36
701.00	15473.28
701.13	15522.43
701.26	15349.23
701.40	15314.13
701.53	15222.84
701.66	15087.09
701.79	15112.84
701.93	14988.79
702.06	15051.99
702.19	14537.07
702.32	15063.69
702.46	14724.31
702.59	14707.93
702.72	14787.50
702.85	14595.58
702.99	14764.10
703.12	14754.74
703.25	14738.35
703.38	14422.38
703.51	14293.65
703.65	14256.20
703.78	14141.52
703.91	14256.20
704.04	14162.58
704.17	13790.44
704.31	13975.34
704.44	13626.60
704.57	13675.75
704.70	13493.19
704.83	13591.49
704.96	13858.31
705.10	13694.47
705.23	13738.94
>>>>>End Processed Spectral Data<<<<<
