SpectraSuite Data File
++++++++++++++++++++++++++++++++++++
Date: Fri Oct 25 11:34:07 EDT 2013
User: price-jones
Dark Spectrum Present: No
Reference Spectrum Present: No
Number of Sampled Component Spectra: 1
Spectrometers: USB2+H05261
Integration Time (usec): 100000 (USB2+H05261)
Spectra Averaged: 1 (USB2+H05261)
Boxcar Smoothing: 0 (USB2+H05261)
Correct for Electrical Dark: No (USB2+H05261)
Strobe/Lamp Enabled: No (USB2+H05261)
Correct for Detector Non-linearity: No (USB2+H05261)
Correct for Stray Light: No (USB2+H05261)
Number of Pixels in Processed Spectrum: 2048
>>>>>Begin Processed Spectral Data<<<<<
365.73	322.99
365.92	322.99
366.12	322.99
366.32	196.60
366.52	194.26
366.72	220.01
366.91	166.18
367.11	205.97
367.31	177.88
367.51	149.79
367.70	124.05
367.90	154.48
368.10	248.10
368.30	98.30
368.49	194.26
368.69	201.29
368.89	175.54
369.09	177.88
369.28	196.60
369.48	196.60
369.68	245.76
369.87	266.82
370.07	184.90
370.27	229.37
370.47	266.82
370.66	444.70
370.86	559.39
371.06	564.07
371.25	638.97
371.45	528.96
371.65	653.01
371.84	540.66
372.04	596.84
372.24	606.20
372.44	603.86
372.63	573.43
372.83	643.65
373.03	601.52
373.22	580.45
373.42	634.29
373.62	587.47
373.81	589.82
374.01	601.52
374.21	629.60
374.40	641.31
374.60	596.84
374.79	631.94
374.99	669.39
375.19	669.39
375.38	657.69
375.58	674.07
375.78	709.18
375.97	734.93
376.17	678.76
376.37	683.44
376.56	692.80
376.76	657.69
376.95	655.35
377.15	634.29
377.35	688.12
377.54	739.61
377.74	615.56
377.93	653.01
378.13	676.41
378.33	713.86
378.52	748.97
378.72	772.38
378.91	711.52
379.11	706.84
379.31	716.20
379.50	657.69
379.70	805.14
379.89	723.23
380.09	695.14
380.28	711.52
380.48	741.95
380.68	809.83
380.87	702.16
381.07	718.54
381.26	763.01
381.46	788.76
381.65	737.27
381.85	746.63
382.04	770.04
382.24	737.27
382.43	706.84
382.63	676.41
382.83	751.31
383.02	856.64
383.22	814.51
383.41	697.48
383.61	873.02
383.80	779.40
384.00	821.53
384.19	844.93
384.39	788.76
384.58	748.97
384.78	739.61
384.97	840.25
385.17	812.17
385.36	882.38
385.56	812.17
385.75	819.19
385.95	887.06
386.14	844.93
386.34	786.42
386.53	882.38
386.72	849.61
386.92	868.34
387.11	840.25
387.31	880.04
387.50	891.74
387.70	868.34
387.89	833.23
388.09	875.36
388.28	973.66
388.48	940.90
388.67	947.92
388.86	887.06
389.06	940.90
389.25	978.34
389.45	908.13
389.64	973.66
389.84	1034.52
390.03	961.96
390.22	954.94
390.42	880.04
390.61	903.45
390.81	994.73
391.00	903.45
391.19	1001.75
391.39	1041.54
391.58	1053.24
391.78	987.71
391.97	978.34
392.16	954.94
392.36	1036.86
392.55	1053.24
392.75	1088.35
392.94	954.94
393.13	1053.24
393.33	1039.20
393.52	1043.88
393.71	1074.31
393.91	1100.05
394.10	1020.47
394.29	1076.65
394.49	1125.80
394.68	1069.62
394.88	1107.07
395.07	1064.94
395.26	1104.73
395.46	1053.24
395.65	1057.92
395.84	1081.33
396.04	1247.51
396.23	1165.59
396.42	1125.80
396.62	1193.67
396.81	1174.95
397.00	1125.80
397.19	1163.25
397.39	1228.78
397.58	1231.12
397.77	1233.46
397.97	1256.87
398.16	1336.45
398.35	1310.70
398.55	1221.76
398.74	1249.85
398.93	1369.21
399.12	1233.46
399.32	1259.21
399.51	1366.87
399.70	1310.70
399.90	1322.40
400.09	1294.32
400.28	1313.04
400.47	1364.53
400.67	1380.92
400.86	1371.55
401.05	1329.42
401.24	1364.53
401.44	1423.05
401.63	1465.18
401.82	1439.43
402.01	1385.60
402.21	1416.02
402.40	1483.90
402.59	1519.01
402.78	1455.81
402.97	1495.60
403.17	1483.90
403.36	1570.50
403.55	1565.82
403.74	1570.50
403.93	1493.26
404.13	1521.35
404.32	1575.18
404.51	1568.16
404.70	1687.53
404.89	1577.52
405.09	1736.68
405.28	1671.14
405.47	1666.46
405.66	1654.76
405.85	1668.80
406.05	1668.80
406.24	1708.59
406.43	1713.27
406.62	1741.36
406.81	1792.85
407.00	1804.55
407.20	1722.63
407.39	1842.00
407.58	1734.34
407.77	1781.15
407.96	1863.07
408.15	1809.23
408.34	1846.68
408.54	1849.02
408.73	1849.02
408.92	1837.32
409.11	1961.37
409.30	1970.73
409.49	2043.29
409.68	1933.28
409.87	1928.60
410.07	1944.99
410.26	2101.80
410.45	1956.69
410.64	2122.87
410.83	2146.27
411.02	2036.27
411.21	2207.13
411.40	2076.06
411.59	2195.42
411.78	2069.03
411.98	2223.51
412.17	2174.36
412.36	2143.93
412.55	2284.36
412.74	2286.70
412.93	2345.22
413.12	2214.15
413.31	2413.09
413.50	2401.39
413.69	2422.45
413.88	2354.58
414.07	2551.18
414.26	2401.39
414.45	2490.33
414.64	2504.37
414.83	2429.48
415.02	2541.82
415.22	2443.52
415.41	2574.59
415.60	2541.82
415.79	2689.28
415.98	2708.00
416.17	2612.04
416.36	2649.49
416.55	2717.36
416.74	2717.36
416.93	2722.04
417.12	2693.96
417.31	2855.45
417.50	2778.22
417.69	2892.90
417.88	2853.11
418.07	2878.86
418.26	2986.52
418.45	2925.67
418.64	3056.74
418.83	3096.53
419.02	3112.91
419.21	3063.76
419.39	2909.29
419.58	2897.58
419.77	3117.59
419.96	3061.42
420.15	3164.40
420.34	3038.02
420.53	3122.27
420.72	3126.96
420.91	3148.02
421.10	3311.86
421.29	3344.63
421.48	3187.81
421.67	3208.87
421.86	3239.30
422.05	3227.60
422.24	3269.73
422.43	3269.73
422.61	3363.35
422.80	3337.60
422.99	3433.57
423.18	3389.10
423.37	3412.50
423.56	3302.50
423.75	3323.56
423.94	3353.99
424.13	3108.23
424.32	3295.47
424.50	3447.61
424.69	3489.74
424.88	3485.06
425.07	3335.26
425.26	3375.05
425.45	3386.76
425.64	3323.56
425.83	3344.63
426.01	3375.05
426.20	3496.76
426.39	3361.01
426.58	3478.04
426.77	3426.54
426.96	3407.82
427.15	3513.14
427.33	3548.25
427.52	3550.59
427.71	3510.80
427.90	3588.04
428.09	3524.85
428.28	3485.06
428.46	3728.47
428.65	3599.74
428.84	3723.79
429.03	3733.15
429.22	3669.96
429.40	3590.38
429.59	3651.24
429.78	3559.95
429.97	3627.83
430.16	3709.75
430.34	3681.66
430.53	3833.80
430.72	3808.05
430.91	3838.48
431.10	3754.22
431.28	3728.47
431.47	3913.38
431.66	3957.85
431.85	3913.38
432.03	3964.87
432.22	3995.29
432.41	3929.76
432.60	3971.89
432.79	3997.64
432.97	4018.70
433.16	3936.78
433.35	3920.40
433.54	4039.76
433.72	4152.11
433.91	4056.15
434.10	4154.45
434.28	4035.08
434.47	4021.04
434.66	4355.74
434.85	4334.67
435.03	4248.07
435.22	4161.47
435.41	4283.18
435.59	4322.97
435.78	4273.82
435.97	4369.78
436.16	4344.03
436.34	4355.74
436.53	4526.60
436.72	4430.63
436.90	4451.70
437.09	4379.14
437.28	4409.57
437.46	4531.28
437.65	4526.60
437.84	4692.77
438.02	4657.67
438.21	4610.86
438.40	4322.97
438.58	4601.49
438.77	4919.81
438.96	4652.98
439.14	4809.80
439.33	4774.69
439.52	4746.61
439.70	4732.56
439.89	4901.08
440.08	4896.40
440.26	4786.40
440.45	4873.00
440.63	5111.73
440.82	5071.94
441.01	4957.25
441.19	5195.99
441.38	5261.52
441.57	5170.24
441.75	5233.44
441.94	5334.08
442.12	5322.38
442.31	5366.85
442.50	5418.34
442.68	5359.83
442.87	5268.55
443.05	5345.78
443.24	5392.59
443.43	5446.43
443.61	5530.69
443.80	5453.45
443.98	5397.28
444.17	5149.18
444.35	5327.06
444.54	5511.96
444.73	5570.48
444.91	5458.13
445.10	5633.67
445.28	5413.66
445.47	5521.32
445.65	5596.22
445.84	5636.01
446.02	5516.64
446.21	5540.05
446.39	5465.15
446.58	5490.90
446.77	5528.35
446.95	5584.52
447.14	5554.09
447.32	5643.03
447.51	5511.96
447.69	5708.57
447.88	5685.16
448.06	5710.91
448.25	5706.23
448.43	5774.10
448.62	5678.14
448.80	5713.25
448.99	5694.52
449.17	5607.92
449.36	5547.07
449.54	5774.10
449.73	5926.24
449.91	5940.28
450.10	5928.58
450.28	6069.01
450.46	5970.71
450.65	6136.88
450.83	6078.37
451.02	5973.05
451.20	6146.25
451.39	6197.74
451.57	5916.87
451.76	6090.07
451.94	6017.52
452.13	6078.37
452.31	6188.38
452.49	6143.91
452.68	6300.72
452.86	6186.04
453.05	6228.17
453.23	6256.25
453.42	6228.17
453.60	6181.35
453.78	6331.15
453.97	6211.78
454.15	6094.76
454.34	6115.82
454.52	6574.56
454.70	6424.77
454.89	6469.24
455.07	6670.53
455.26	6490.31
455.44	6485.62
455.62	6539.46
455.81	6478.60
455.99	6480.94
456.17	6525.41
456.36	6483.28
456.54	6649.46
456.73	6691.59
456.91	6944.37
457.09	6984.16
457.28	7021.61
457.46	6796.92
457.64	6881.18
457.83	6855.43
458.01	6871.81
458.19	7073.10
458.38	7042.67
458.56	6932.67
458.74	7045.01
458.93	6925.65
459.11	7112.89
459.29	7115.23
459.48	7215.87
459.66	6890.54
459.84	7201.83
460.03	7468.65
460.21	7288.43
460.39	7239.28
460.57	7342.26
460.76	7393.75
460.94	7351.62
461.12	7494.40
461.31	7236.94
461.49	7145.66
461.67	7499.08
461.85	7597.38
462.04	7602.06
462.22	7763.56
462.40	7644.19
462.59	7578.65
462.77	7698.02
462.95	7705.04
463.13	7602.06
463.32	7669.94
463.50	7878.24
463.68	7805.69
463.86	7714.41
464.05	7606.74
464.23	7705.04
464.41	7929.74
464.59	7709.72
464.78	8086.55
464.96	7882.92
465.14	7784.62
465.32	8002.29
465.50	8009.31
465.69	8028.04
465.87	7845.48
466.05	8004.63
466.23	7955.48
466.41	8046.76
466.60	8187.19
466.78	7875.90
466.96	7948.46
467.14	7962.50
467.32	8109.96
467.51	8224.64
467.69	8217.62
467.87	8105.28
468.05	8086.55
468.23	8046.76
468.41	8219.96
468.60	8358.05
468.78	8428.27
468.96	8198.90
469.14	8491.46
469.32	8517.21
469.50	8226.98
469.69	8446.99
469.87	8620.19
470.05	8622.53
470.23	8650.62
470.41	8620.19
470.59	8613.17
470.77	8557.00
470.95	8812.12
471.14	8919.78
471.32	8566.36
471.50	8765.31
471.68	8793.39
471.86	8980.64
472.04	8971.27
472.22	8889.35
472.40	9046.17
472.58	9004.04
472.77	8999.36
472.95	9296.61
473.13	9483.85
473.31	9151.49
473.49	9291.93
473.67	9423.00
473.85	9528.32
474.03	9308.31
474.21	9568.11
474.39	9460.45
474.57	9551.73
474.75	9640.67
474.93	9806.84
475.12	9577.47
475.30	9919.19
475.48	9790.46
475.66	9675.77
475.84	9851.31
476.02	9886.42
476.20	10029.20
476.38	10181.33
476.56	10146.22
476.74	10352.19
476.92	10349.85
477.10	10525.39
477.28	10464.54
477.46	10394.32
477.64	10387.30
477.82	10579.22
478.00	11040.31
478.18	11019.24
478.36	11136.27
478.54	10918.60
478.72	11342.24
478.90	11218.19
479.08	11353.94
479.26	11620.76
479.44	11562.25
479.62	11473.31
479.80	11606.72
479.98	11679.27
480.16	11826.73
480.34	11709.70
480.52	12086.53
480.70	12049.08
480.88	11868.86
481.06	12060.78
481.24	12236.32
481.41	12311.22
481.59	12425.90
481.77	12596.76
481.95	12872.95
482.13	12589.74
482.31	12826.14
482.49	13114.02
482.67	13151.47
482.85	13254.45
483.03	13160.83
483.21	13296.58
483.39	13551.70
483.57	13476.80
483.74	13724.90
483.92	13713.20
484.10	13750.65
484.28	13994.06
484.46	14230.46
484.64	14518.34
484.82	14216.41
485.00	14516.00
485.18	14436.42
485.35	14766.44
485.53	14787.50
485.71	14862.40
485.89	14920.92
486.07	15009.86
486.25	15431.15
486.43	15152.63
486.61	15328.17
486.78	15447.54
486.96	15435.83
487.14	15669.89
487.32	16053.73
487.50	15920.32
487.68	16004.58
487.85	16212.89
488.03	16383.75
488.21	16273.74
488.39	16645.89
488.57	16734.83
488.75	16755.90
488.92	16929.09
489.10	17167.83
489.28	17184.21
489.46	17743.60
489.64	17460.40
489.81	17563.38
489.99	17532.95
490.17	17933.18
490.35	18246.82
490.53	17748.28
490.70	18253.84
490.88	18129.79
491.06	18101.70
491.24	18473.85
491.41	18455.12
491.59	18869.40
491.77	19021.53
491.95	18862.38
492.13	19215.80
492.30	19248.57
492.48	19477.94
492.66	19475.60
492.84	19239.20
493.01	19768.16
493.19	19803.27
493.37	19873.49
493.54	19751.78
493.72	20201.16
493.90	20456.28
494.08	20414.15
494.25	20645.87
494.43	20327.55
494.61	20596.71
494.79	20936.09
494.96	20865.88
495.14	20896.30
495.32	21172.49
495.49	21378.45
495.67	21481.44
495.85	21483.78
496.02	21392.50
496.20	21722.51
496.38	22094.66
496.55	21963.59
496.73	22321.69
496.91	22155.51
497.09	22207.00
497.26	22787.46
497.44	22565.10
497.62	22249.13
497.79	22995.76
497.97	22977.04
498.14	22899.80
498.32	23073.00
498.50	22881.08
498.67	23403.02
498.85	23356.21
499.03	23630.05
499.20	23445.15
499.38	23765.80
499.56	23873.46
499.73	23948.36
499.91	24222.20
500.08	24280.72
500.26	23833.68
500.44	24238.59
500.61	24521.79
500.79	24027.94
500.97	24425.83
501.14	24849.47
501.32	24790.95
501.49	24662.22
501.67	25025.01
501.84	25172.46
502.02	25006.28
502.20	25163.10
502.37	24716.06
502.55	25179.48
502.72	25181.82
502.90	25207.57
503.07	25268.42
503.25	25902.71
503.43	25628.87
503.60	25743.55
503.78	25853.56
503.95	25816.11
504.13	25497.80
504.30	26511.25
504.48	25914.41
504.65	26242.09
504.83	26515.93
505.01	26211.66
505.18	26754.66
505.36	26686.79
505.53	26483.16
505.71	26843.60
505.88	26778.07
506.06	26649.34
506.23	27042.55
506.41	27222.77
506.58	26829.56
506.76	27030.85
506.93	27688.54
507.11	27615.98
507.28	27435.76
507.46	27419.38
507.63	27761.09
507.81	27707.26
507.98	27821.95
508.16	27679.18
508.33	27924.93
508.50	27630.02
508.68	28283.03
508.85	28360.27
509.03	27908.55
509.20	28404.74
509.38	28762.84
509.55	28622.41
509.73	28952.43
509.90	28819.02
510.08	28570.92
510.25	28748.80
510.42	29109.24
510.60	29106.90
510.77	29450.96
510.95	29596.07
511.12	29242.65
511.30	29221.59
511.47	29523.52
511.64	29326.91
511.82	29591.39
511.99	29532.88
512.17	29881.62
512.34	29968.22
512.51	29851.19
512.69	30197.59
512.86	29853.53
513.04	30696.13
513.21	30382.49
513.38	30057.16
513.56	30480.80
513.73	30569.74
513.90	30473.78
514.08	30253.76
514.25	30991.03
514.43	30380.15
514.60	31150.19
514.77	30862.30
514.95	31082.31
515.12	30728.89
515.29	31061.25
515.47	31278.92
515.64	31402.97
515.81	31185.30
515.99	31756.39
516.16	31182.96
516.33	31803.20
516.51	31606.59
516.68	31718.94
516.85	32002.14
517.03	32065.34
517.20	32067.68
517.37	32112.15
517.54	32545.15
517.72	32119.17
517.89	32566.21
518.06	32449.19
518.24	32203.43
518.41	32533.45
518.58	32065.34
518.75	32535.79
518.93	32701.96
519.10	32180.03
519.27	32816.65
519.45	32861.12
519.62	33104.54
519.79	33106.88
519.96	32800.27
520.14	32936.02
520.31	32898.57
520.48	33340.93
520.65	33392.42
520.83	33689.67
521.00	34010.32
521.17	33511.79
521.34	33694.35
521.52	33802.02
521.69	33844.15
521.86	34045.43
522.03	34188.21
522.20	34064.16
522.38	34274.80
522.55	34164.80
522.72	34298.21
522.89	34094.58
523.07	34424.60
523.24	34529.92
523.41	34387.15
523.58	34319.28
523.75	35054.20
523.92	34555.67
524.10	34876.32
524.27	34806.11
524.44	34768.66
524.61	34913.77
524.78	35026.12
524.96	35435.71
525.13	35342.09
525.30	35615.93
525.47	35526.99
525.64	35040.16
525.81	35831.26
525.98	35395.92
526.16	35782.11
526.33	35229.74
526.50	35969.35
526.67	35651.04
526.84	35393.58
527.01	35655.72
527.18	35981.06
527.36	36306.39
527.53	36191.70
527.70	36318.09
527.87	36535.76
528.04	36109.78
528.21	35971.69
528.38	36676.19
528.55	36285.33
528.72	36182.34
528.89	36697.26
529.07	36561.51
529.24	36196.38
529.41	37284.73
529.58	36652.79
529.75	36849.39
529.92	37191.11
530.09	36830.67
530.26	36732.37
530.43	37205.16
530.60	36634.06
530.77	37074.09
530.94	37088.13
531.11	36978.12
531.28	37134.94
531.46	37170.05
531.63	37191.11
531.80	37542.19
531.97	37364.31
532.14	37305.80
532.31	37710.71
532.48	37855.82
532.65	38181.16
532.82	37825.40
532.99	37968.17
533.16	37724.75
533.33	37816.04
533.50	37902.64
533.67	37661.56
533.84	37769.22
534.01	38124.99
534.18	38384.79
534.35	38080.52
534.52	38209.25
534.69	38508.83
534.86	38602.46
535.03	38139.03
535.20	38220.95
535.37	38354.36
535.54	38703.10
535.71	38485.43
535.88	38675.01
536.05	39203.97
536.22	39208.65
536.38	38934.81
536.55	38859.91
536.72	39077.58
536.89	38518.20
537.06	38995.67
537.23	39168.87
537.40	39086.95
537.57	38766.29
537.74	38754.59
537.91	39100.99
538.08	39210.99
538.25	39115.03
538.42	39423.98
538.59	40060.61
538.75	39388.88
538.92	39515.26
539.09	39316.32
539.26	39768.04
539.43	39662.72
539.60	39503.56
539.77	39594.84
539.94	39789.11
540.11	39739.96
540.28	39962.31
540.44	39590.16
540.61	39253.12
540.78	40109.76
540.95	40554.46
541.12	39929.54
541.29	40105.08
541.46	39924.86
541.62	40369.56
541.79	40603.61
541.96	40165.93
542.13	39697.83
542.30	40208.06
542.47	40435.10
542.63	40947.67
542.80	40711.28
542.97	40671.49
543.14	40966.40
543.31	40788.52
543.48	41132.57
543.64	41507.06
543.81	40992.14
543.98	41408.76
544.15	41060.02
544.32	41460.25
544.48	41668.56
544.65	40879.80
544.82	41333.86
544.99	41230.88
545.16	41546.85
545.32	41378.33
545.49	41780.90
545.66	41804.31
545.83	41872.18
546.00	41546.85
546.16	41893.25
546.33	41600.68
546.50	41514.08
546.67	41743.45
546.83	41251.94
547.00	41478.97
547.17	41436.84
547.34	41911.97
547.50	42094.53
547.67	42241.99
547.84	42218.58
548.00	42150.71
548.17	42635.20
548.34	42731.16
548.51	42188.16
548.67	42333.27
548.84	42436.25
549.01	42375.40
549.18	42160.07
549.34	42204.54
549.51	42651.58
549.68	42574.34
549.84	42529.87
550.01	42330.93
550.18	42279.44
550.34	42417.53
550.51	42775.63
550.68	42806.06
550.84	42351.99
551.01	42731.16
551.18	42471.36
551.34	42653.92
551.51	43157.14
551.68	42988.62
551.84	42986.28
552.01	43180.54
552.18	42953.51
552.34	42960.53
552.51	42883.30
552.68	42773.29
552.84	43257.78
553.01	43395.87
553.18	42913.72
553.34	43091.60
553.51	43365.45
553.67	43484.81
553.84	43494.18
554.01	43454.39
554.17	43728.23
554.34	43482.47
554.51	43629.93
554.67	43892.07
554.84	43545.67
555.00	43697.80
555.17	43576.09
555.33	43330.34
555.50	43636.95
555.67	43868.66
555.83	43812.49
556.00	43784.40
556.16	44119.10
556.33	44247.83
556.50	44259.53
556.66	43952.92
556.83	43770.36
556.99	44428.05
557.16	44205.70
557.32	44292.30
557.49	44348.47
557.65	44371.88
557.82	43730.57
557.98	44072.29
558.15	43948.24
558.32	44133.14
558.48	44172.93
558.65	43997.39
558.81	44268.89
558.98	44442.09
559.14	44526.35
559.31	44531.03
559.47	44458.48
559.64	44741.68
559.80	44603.59
559.97	44746.36
560.13	44385.92
560.30	44439.75
560.46	44547.42
560.63	44507.63
560.79	44601.25
560.96	44938.29
561.12	44992.12
561.29	44722.96
561.45	44538.05
561.61	44533.37
561.78	44968.71
561.94	44589.55
562.11	44444.43
562.27	44760.40
562.44	45034.25
562.60	45446.18
562.77	45151.27
562.93	45228.51
563.10	45160.64
563.26	45200.43
563.42	45111.49
563.59	44732.32
563.75	44439.75
563.92	45329.16
564.08	44952.33
564.24	45050.63
564.41	44914.88
564.57	45116.17
564.74	45284.68
564.90	45390.01
565.07	45450.86
565.23	45350.22
565.39	44832.96
565.56	45614.70
565.72	44973.39
565.88	45258.94
566.05	45333.84
566.21	45441.50
566.38	45464.91
566.54	45556.19
566.70	45631.08
566.87	45404.05
567.03	45280.00
567.19	45378.31
567.36	45027.23
567.52	45270.64
567.68	45689.60
567.85	46045.36
568.01	45621.72
568.17	45469.59
568.34	45457.88
568.50	45537.46
568.66	45502.35
568.83	45872.16
568.99	45415.76
569.15	45593.64
569.32	45579.59
569.48	45771.52
569.64	45921.31
569.81	45876.84
569.97	45738.75
570.13	45603.00
570.30	45380.65
570.46	45504.70
570.62	45769.18
570.78	45495.33
570.95	45542.14
571.11	46209.20
571.27	45701.30
571.43	45797.26
571.60	45677.90
571.76	45727.05
571.92	45720.02
572.09	45399.37
572.25	45263.62
572.41	45254.26
572.57	45696.62
572.74	46138.98
572.90	45893.22
573.06	45844.07
573.22	45904.93
573.38	45839.39
573.55	45965.78
573.71	46171.75
573.87	45652.15
574.03	46153.02
574.20	46361.33
574.36	46099.19
574.52	45867.48
574.68	46216.22
574.84	46532.19
575.01	46293.46
575.17	45951.74
575.33	46026.63
575.49	45862.80
575.65	45872.16
575.82	46007.91
575.98	46061.74
576.14	46005.57
576.30	46445.59
576.46	46274.73
576.62	45865.14
576.79	46220.90
576.95	46265.37
577.11	45731.73
577.27	46012.59
577.43	46124.94
577.59	46057.06
577.75	46197.49
577.92	45844.07
578.08	46298.14
578.24	45764.49
578.40	46450.27
578.56	46387.08
578.72	45944.72
578.88	46106.21
579.04	46103.87
579.21	46080.47
579.37	45986.85
579.53	46230.26
579.69	45830.03
579.85	46169.41
580.01	46309.84
580.17	46356.65
580.33	46370.69
580.49	46426.87
580.65	46270.05
580.82	46227.92
580.98	45918.97
581.14	46398.78
581.30	46279.41
581.46	46129.62
581.62	46127.28
581.78	46396.44
581.94	46660.92
582.10	46497.08
582.26	46646.88
582.42	46101.53
582.58	46415.16
582.74	46646.88
582.90	46157.70
583.06	46777.95
583.22	46220.90
583.38	46817.74
583.54	46377.72
583.70	46335.59
583.86	46557.94
584.02	46398.78
584.18	46857.52
584.34	46335.59
584.50	46157.70
584.66	46663.26
584.82	46476.02
584.98	46461.97
585.14	46651.56
585.30	46281.75
585.46	46377.72
585.62	46539.21
585.78	46653.90
585.94	46305.16
586.10	46571.98
586.26	46153.02
586.42	46258.35
586.58	46270.05
586.74	46248.99
586.90	46391.76
587.06	46485.38
587.22	46660.92
587.38	46316.86
587.54	46260.69
587.70	46550.91
587.86	46707.73
588.02	46726.46
588.18	46546.23
588.34	46021.95
588.49	46724.11
588.65	46241.96
588.81	46628.15
588.97	46272.39
589.13	46735.82
589.29	46438.57
589.45	46885.61
589.61	46803.69
589.77	46543.89
589.93	46775.61
590.08	46756.88
590.24	46763.90
590.40	46672.62
590.56	46841.14
590.72	46857.52
590.88	46541.55
591.04	46609.43
591.20	46934.76
591.35	46871.57
591.51	47508.19
591.67	46763.90
591.83	47409.89
591.99	47012.00
592.15	46878.59
592.31	46911.36
592.46	46567.30
592.62	46880.93
592.78	47157.11
592.94	47096.26
593.10	46986.25
593.26	47082.22
593.41	47206.26
593.57	47187.54
593.73	47063.49
593.89	47430.96
594.05	47098.60
594.20	47337.33
594.36	47292.86
594.52	47292.86
594.68	46960.51
594.84	47140.73
594.99	47070.51
595.15	47206.26
595.31	47597.13
595.47	47133.71
595.62	47086.90
595.78	46824.76
595.94	47009.66
596.10	46948.81
596.25	47342.02
596.41	47215.63
596.57	46967.53
596.73	47728.20
596.88	46946.47
597.04	47175.84
597.20	47416.91
597.36	47199.24
597.51	47590.11
597.67	47224.99
597.83	47447.34
597.99	47290.52
598.14	47028.38
598.30	47180.52
598.46	46993.28
598.61	47477.77
598.77	47129.03
598.93	47107.96
599.09	47213.29
599.24	47622.88
599.40	47470.75
599.56	47318.61
599.71	47552.66
599.87	47679.05
600.03	47285.84
600.18	47194.56
600.34	47122.01
600.50	47189.88
600.65	47056.47
600.81	47295.21
600.97	47456.70
601.12	47262.44
601.28	47278.82
601.44	47262.44
601.59	47477.77
601.75	47531.60
601.91	47323.29
602.06	47267.12
602.22	47517.56
602.37	47316.27
602.53	47330.31
602.69	47606.50
602.84	47400.53
603.00	47304.57
603.16	47529.26
603.31	47625.22
603.47	47339.68
603.62	47597.13
603.78	47437.98
603.94	47323.29
604.09	47447.34
604.25	47222.65
604.40	47145.41
604.56	47243.71
604.71	47274.14
604.87	47140.73
605.03	47047.11
605.18	47435.64
605.34	47377.12
605.49	47330.31
605.65	47295.21
605.80	47220.31
605.96	47054.13
606.12	47007.32
606.27	47466.06
606.43	47187.54
606.58	47625.22
606.74	47173.50
606.89	47538.62
607.05	47182.86
607.20	47248.39
607.36	46986.25
607.51	47365.42
607.67	46845.82
607.82	47154.77
607.98	46698.37
608.13	46948.81
608.29	47049.45
608.44	47157.11
608.60	47068.17
608.75	47320.95
608.91	46806.03
609.06	47026.04
609.22	47484.79
609.37	46698.37
609.53	47077.54
609.68	46955.83
609.84	47044.77
609.99	47014.34
610.15	46894.97
610.30	46614.11
610.46	46672.62
610.61	47257.76
610.76	47168.82
610.92	46614.11
611.07	46721.77
611.23	47004.98
611.38	47206.26
611.54	46995.62
611.69	47042.43
611.84	46976.89
612.00	46815.40
612.15	46649.22
612.31	46932.42
612.46	47068.17
612.62	46843.48
612.77	46906.68
612.92	47007.32
613.08	46595.38
613.23	46902.00
613.39	46480.70
613.54	46918.38
613.69	46967.53
613.85	46553.26
614.00	46546.23
614.15	46775.61
614.31	46157.70
614.46	47026.04
614.62	46361.33
614.77	46665.60
614.92	46588.36
615.08	46466.66
615.23	46543.89
615.38	46625.81
615.54	46497.08
615.69	46878.59
615.84	46555.60
616.00	46398.78
616.15	46843.48
616.30	46574.32
616.46	46370.69
616.61	46452.61
616.76	46787.31
616.92	46494.74
617.07	46333.24
617.22	46309.84
617.37	46525.17
617.53	46419.84
617.68	46293.46
617.83	46206.86
617.99	46473.68
618.14	46321.54
618.29	45968.12
618.45	45888.54
618.60	46068.76
618.75	46291.12
618.90	46099.19
619.06	46232.60
619.21	45911.95
619.36	46286.43
619.51	45827.69
619.67	45865.14
619.82	45963.44
619.97	46136.64
620.12	45680.24
620.28	45975.14
620.43	46057.06
620.58	46471.34
620.73	46054.72
620.89	46092.17
621.04	46232.60
621.19	46019.61
621.34	45867.48
621.49	45659.17
621.65	45645.13
621.80	46384.74
621.95	45675.55
622.10	45853.44
622.25	45649.81
622.41	45696.62
622.56	45343.20
622.71	45673.21
622.86	45338.52
623.01	46007.91
623.16	45422.78
623.32	45287.03
623.47	45762.15
623.62	45420.44
623.77	45666.19
623.92	45759.81
624.07	45832.37
624.23	46078.13
624.38	45544.48
624.53	45132.55
624.68	44938.29
624.83	45359.58
624.98	45462.57
625.13	45282.34
625.29	45214.47
625.44	45528.10
625.59	45390.01
625.74	45507.04
625.89	45230.85
626.04	44809.56
626.19	45549.17
626.34	45308.09
626.49	45017.86
626.65	44355.49
626.80	44933.60
626.95	44629.34
627.10	44516.99
627.25	45247.24
627.40	44994.46
627.55	44942.97
627.70	45324.47
627.85	45151.27
628.00	44634.02
628.15	45074.04
628.30	44385.92
628.45	44065.27
628.60	44512.31
628.76	44886.79
628.91	44732.32
629.06	44217.40
629.21	43920.15
629.36	44437.41
629.51	44495.92
629.66	44739.34
629.81	44547.42
629.96	44669.12
630.11	44629.34
630.26	44442.09
630.41	44601.25
630.56	44081.65
630.71	44612.95
630.86	44626.99
631.01	44051.22
631.16	44512.31
631.31	44168.25
631.46	44364.85
631.61	44751.04
631.76	44767.43
631.91	44488.90
632.06	44603.59
632.21	44371.88
632.36	44568.48
632.51	44016.11
632.66	44009.09
632.81	43828.87
632.96	44219.74
633.10	43924.83
633.25	44102.71
633.40	44348.47
633.55	44273.57
633.70	43730.57
633.85	43529.28
634.00	43473.11
634.15	43924.83
634.30	43959.94
634.45	43704.82
634.60	43683.76
634.75	44177.61
634.90	43765.68
635.05	43594.82
635.19	43749.29
635.34	44023.14
635.49	43753.97
635.64	43634.61
635.79	43487.15
635.94	43669.72
636.09	43868.66
636.24	43749.29
636.39	43540.99
636.53	43749.29
636.68	43365.45
636.83	42916.06
636.98	43054.15
637.13	43192.25
637.28	43597.16
637.43	43344.38
637.57	43505.88
637.72	43241.40
637.87	43503.54
638.02	43283.53
638.17	43363.11
638.32	43332.68
638.46	42930.11
638.61	43210.97
638.76	43196.93
638.91	42883.30
639.06	43180.54
639.20	42803.72
639.35	43049.47
639.50	42934.79
639.65	43091.60
639.80	43213.31
639.94	43426.30
640.09	43416.94
640.24	42782.65
640.39	42958.19
640.54	42452.64
640.68	42504.13
640.83	42855.21
640.98	42679.67
641.13	42197.52
641.27	43126.71
641.42	42700.73
641.57	42333.27
641.72	42733.50
641.86	42911.38
642.01	42326.25
642.16	42686.69
642.31	42131.98
642.45	42403.49
642.60	42588.39
642.75	42277.10
642.90	42667.97
643.04	42457.32
643.19	42094.53
643.34	42064.11
643.48	41860.48
643.63	41982.19
643.78	42312.20
643.93	42220.92
644.07	42244.33
644.22	42220.92
644.37	42101.56
644.51	42410.51
644.66	42302.84
644.81	41839.42
644.95	42160.07
645.10	42033.68
645.25	42113.26
645.39	41996.23
645.54	42375.40
645.69	41654.51
645.83	41556.21
645.98	41617.07
646.13	41785.58
646.27	41691.96
646.42	41563.23
646.57	41619.41
646.71	41975.17
646.86	42153.05
647.00	41591.32
647.15	41902.61
647.30	41956.44
647.44	41500.04
647.59	41539.83
647.74	41556.21
647.88	41731.75
648.03	42256.03
648.17	41825.37
648.32	41560.89
648.47	42103.90
648.61	41406.42
648.76	41790.27
648.90	41326.84
649.05	41247.26
649.20	41413.44
649.34	41359.61
649.49	41647.49
649.63	41415.78
649.78	41628.77
649.92	41558.55
650.07	41750.48
650.21	41422.80
650.36	41706.01
650.51	41223.86
650.65	41507.06
650.80	41350.24
650.94	41177.04
651.09	41038.95
651.23	40954.69
651.38	40652.76
651.52	40737.02
651.67	41408.76
651.81	41177.04
651.96	40928.95
652.10	40720.64
652.25	40451.48
652.39	40797.88
652.54	40591.91
652.68	40882.14
652.83	40596.59
652.97	41258.96
653.12	40924.27
653.26	40079.33
653.41	40456.16
653.55	40715.96
653.70	41247.26
653.84	40517.01
653.99	40924.27
654.13	40875.12
654.27	40130.83
654.42	40629.36
654.56	40371.90
654.71	41172.36
654.85	40346.15
655.00	40790.86
655.14	40842.35
655.29	40893.84
655.43	40706.60
655.57	40294.66
655.72	40051.25
655.86	40170.61
656.01	40100.40
656.15	40034.86
656.30	40069.97
656.44	40519.35
656.58	40271.26
656.73	40446.80
656.87	39868.69
657.01	39882.73
657.16	40332.11
657.30	40179.98
657.45	40135.51
657.59	39985.71
657.73	39571.44
657.88	40266.58
658.02	40287.64
658.16	40315.73
658.31	40367.22
658.45	39929.54
658.60	40004.44
658.74	40142.53
658.88	39828.90
659.03	39365.47
659.17	39103.33
659.31	39435.69
659.46	39597.18
659.60	39363.13
659.74	39283.55
659.89	39054.18
660.03	39124.40
660.17	39433.35
660.32	39173.55
660.46	39040.14
660.60	39093.97
660.74	39260.15
660.89	39199.29
661.03	39285.89
661.17	38698.42
661.32	38770.97
661.46	38892.68
661.60	38525.22
661.74	38948.85
661.89	39030.77
662.03	38522.88
662.17	38913.75
662.31	38424.57
662.46	38485.43
662.60	38132.01
662.74	38230.31
662.88	37848.80
663.03	38253.72
663.17	38005.62
663.31	38195.20
663.45	38396.49
663.60	38370.74
663.74	37975.19
663.88	37928.38
664.02	38160.09
664.17	38302.87
664.31	37720.07
664.45	37661.56
664.59	38031.36
664.73	37937.74
664.88	37596.03
665.02	37237.92
665.16	37731.78
665.30	37441.55
665.44	37691.99
665.59	37347.93
665.73	37500.06
665.87	37031.96
666.01	36837.69
666.15	37294.10
666.29	37383.04
666.44	36940.68
666.58	36989.83
666.72	36467.89
666.86	36999.19
667.00	36608.32
667.14	37249.63
667.28	36678.54
667.43	37092.81
667.57	36847.05
667.71	36900.89
667.85	36776.84
667.99	36421.08
668.13	36369.58
668.27	36428.10
668.41	36407.03
668.56	35959.99
668.70	35810.20
668.84	35913.18
668.98	35665.08
669.12	36119.15
669.26	35599.55
669.40	35805.52
669.54	35779.77
669.68	35728.28
669.82	35220.38
669.96	35189.95
670.10	35438.05
670.25	35604.23
670.39	35077.61
670.53	35674.45
670.67	35309.32
670.81	35646.36
670.95	35236.77
671.09	35164.21
671.23	35218.04
671.37	34754.61
671.51	34824.83
671.65	35023.78
671.79	35002.71
671.93	34930.16
672.07	34726.53
672.21	34703.12
672.35	34487.79
672.49	34473.75
672.63	34534.60
672.77	34349.70
672.91	34651.63
673.05	34155.44
673.19	34305.23
673.33	33692.01
673.47	33706.05
673.61	33912.02
673.75	33748.18
673.89	33443.91
674.03	33771.59
674.17	33188.80
674.31	33303.48
674.45	33228.59
674.59	33167.73
674.73	33010.92
674.87	32816.65
675.01	32765.16
675.15	32680.90
675.29	32149.60
675.43	32545.15
675.56	32708.99
675.70	32786.22
675.84	32514.72
675.98	31447.44
676.12	32404.72
676.26	32280.67
676.40	32067.68
676.54	31929.59
676.68	31805.54
676.82	31543.40
676.96	32109.81
677.10	31566.81
677.23	31372.54
677.37	31775.11
677.51	31571.49
677.65	31477.86
677.79	31206.36
677.93	31016.78
678.07	31583.19
678.21	31124.44
678.34	30551.01
678.48	30508.88
678.62	30822.51
678.76	30799.11
678.90	30742.94
679.04	30174.19
679.18	30403.56
679.31	30415.26
679.45	30251.42
679.59	30045.46
679.73	29972.90
679.87	29453.30
680.00	29923.75
680.14	29661.61
680.28	29865.24
680.42	29558.63
680.56	29326.91
680.70	29137.33
680.83	29226.27
680.97	29247.33
681.11	29151.37
681.25	28919.66
681.39	28699.65
681.52	28914.98
681.66	28266.65
681.80	28046.64
681.94	27901.53
682.07	28402.40
682.21	28177.71
682.35	28231.54
682.49	27997.49
682.62	28208.14
682.76	27901.53
682.90	27725.99
683.04	27637.05
683.17	27594.92
683.31	27307.03
683.45	27545.76
683.59	26897.44
683.72	26579.12
683.86	27005.10
684.00	26962.97
684.13	26778.07
684.27	26696.15
684.41	26539.33
684.55	26614.23
684.68	26672.74
684.82	26347.41
684.96	26171.87
685.09	26225.70
685.23	26298.26
685.37	26511.25
685.50	26298.26
685.64	26190.59
685.78	25883.98
685.91	25785.68
686.05	25191.19
686.19	25385.45
686.32	25355.02
686.46	24795.64
686.60	24961.81
686.73	25041.39
686.87	25008.62
687.01	25090.54
687.14	25001.60
687.28	24662.22
687.42	24657.54
687.55	24643.50
687.69	24531.15
687.82	24287.74
687.96	24329.87
688.10	24587.33
688.23	23992.83
688.37	24041.98
688.50	24191.78
688.64	24077.09
688.78	23931.98
688.91	23442.81
689.05	23721.33
689.18	23672.18
689.32	23005.13
689.46	23103.43
689.59	22960.66
689.73	23419.40
689.86	23426.42
690.00	23335.14
690.13	23154.92
690.27	22494.89
690.41	23019.17
690.54	22810.86
690.68	22452.76
690.81	22649.36
690.95	22319.35
691.08	22192.96
691.22	21937.84
691.35	22221.05
691.49	22352.12
691.62	22092.32
691.76	21439.31
691.89	21474.42
692.03	21584.42
692.16	21076.52
692.30	21170.15
692.43	21226.32
692.57	21310.58
692.70	21008.65
692.84	21060.14
692.97	20896.30
693.11	20828.43
693.24	20575.65
693.38	20503.09
693.51	20369.68
693.65	20217.55
693.78	20355.64
693.92	20304.15
694.05	20243.29
694.19	20449.26
694.32	20107.54
694.45	20463.30
694.59	20219.89
694.72	19744.76
694.86	19974.13
694.99	19433.47
695.13	19527.09
695.26	19466.24
695.39	19110.47
695.53	19211.12
695.66	19506.02
695.80	18925.57
695.93	19246.23
696.07	19019.19
696.20	18911.53
696.33	18679.82
696.47	18480.87
696.60	18375.55
696.73	18616.62
696.87	18417.68
697.00	18455.12
697.14	18382.57
697.27	18265.54
697.40	18223.41
697.54	17984.68
697.67	17914.46
697.80	18141.49
697.94	18118.09
698.07	17820.84
698.21	17568.06
698.34	17776.37
698.47	17081.23
698.61	17198.26
698.74	17240.39
698.87	17195.92
699.01	17181.87
699.14	17036.76
699.27	16856.54
699.40	16893.99
699.54	16798.02
699.67	16699.72
699.80	16814.41
699.94	16596.74
700.07	16652.91
700.20	16681.00
700.34	16365.03
700.47	16128.63
700.60	16166.08
700.73	16168.42
700.87	16093.52
701.00	16006.92
701.13	15892.24
701.26	15840.75
701.40	15758.83
701.53	15693.29
701.66	15599.67
701.79	15564.56
701.93	15208.80
702.06	15400.72
702.19	15330.51
702.32	15169.01
702.46	15447.54
702.59	15424.13
702.72	15353.91
702.85	15185.40
702.99	15136.24
703.12	14888.15
703.25	14637.71
703.38	14604.94
703.51	14492.60
703.65	14345.14
703.78	14338.12
703.91	14354.51
704.04	14164.92
704.17	13912.14
704.31	14115.77
704.44	14155.56
704.57	14153.22
704.70	14064.28
704.83	13727.24
704.96	13661.71
705.10	13767.03
705.23	13554.04
>>>>>End Processed Spectral Data<<<<<
