SpectraSuite Data File
++++++++++++++++++++++++++++++++++++
Date: Fri Oct 25 11:34:31 EDT 2013
User: price-jones
Dark Spectrum Present: No
Reference Spectrum Present: No
Number of Sampled Component Spectra: 1
Spectrometers: USB2+H05261
Integration Time (usec): 100000 (USB2+H05261)
Spectra Averaged: 1 (USB2+H05261)
Boxcar Smoothing: 0 (USB2+H05261)
Correct for Electrical Dark: No (USB2+H05261)
Strobe/Lamp Enabled: No (USB2+H05261)
Correct for Detector Non-linearity: No (USB2+H05261)
Correct for Stray Light: No (USB2+H05261)
Number of Pixels in Processed Spectrum: 2048
>>>>>Begin Processed Spectral Data<<<<<
365.73	271.50
365.92	271.50
366.12	271.50
366.32	177.88
366.52	177.88
366.72	241.08
366.91	156.82
367.11	238.73
367.31	175.54
367.51	175.54
367.70	299.59
367.90	187.24
368.10	152.13
368.30	88.94
368.49	159.16
368.69	229.37
368.89	194.26
369.09	203.63
369.28	248.10
369.48	224.69
369.68	224.69
369.87	245.76
370.07	222.35
370.27	304.27
370.47	334.70
370.66	538.32
370.86	517.26
371.06	601.52
371.25	557.05
371.45	545.34
371.65	510.24
371.84	528.96
372.04	472.79
372.24	573.43
372.44	543.00
372.63	566.41
372.83	557.05
373.03	559.39
373.22	603.86
373.42	608.54
373.62	571.09
373.81	622.58
374.01	664.71
374.21	634.29
374.40	587.47
374.60	664.71
374.79	631.94
374.99	648.33
375.19	629.60
375.38	580.45
375.58	669.39
375.78	631.94
375.97	641.31
376.17	655.35
376.37	645.99
376.56	709.18
376.76	620.24
376.95	674.07
377.15	711.52
377.35	636.63
377.54	685.78
377.74	617.90
377.93	706.84
378.13	716.20
378.33	720.88
378.52	713.86
378.72	690.46
378.91	697.48
379.11	667.05
379.31	660.03
379.50	678.76
379.70	692.80
379.89	699.82
380.09	716.20
380.28	723.23
380.48	711.52
380.68	674.07
380.87	760.67
381.07	713.86
381.26	737.27
381.46	732.59
381.65	685.78
381.85	676.41
382.04	727.91
382.24	774.72
382.43	767.70
382.63	702.16
382.83	772.38
383.02	777.06
383.22	781.74
383.41	723.23
383.61	875.36
383.80	770.04
384.00	821.53
384.19	819.19
384.39	835.57
384.58	770.04
384.78	760.67
384.97	777.06
385.17	767.70
385.36	748.97
385.56	746.63
385.75	842.59
385.95	821.53
386.14	814.51
386.34	854.30
386.53	791.10
386.72	765.36
386.92	854.30
387.11	847.27
387.31	798.12
387.50	873.02
387.70	826.21
387.89	866.00
388.09	901.11
388.28	870.68
388.48	882.38
388.67	971.32
388.86	891.74
389.06	917.49
389.25	901.11
389.45	931.53
389.64	875.36
389.84	915.15
390.03	908.13
390.22	898.77
390.42	882.38
390.61	910.47
390.81	1036.86
391.00	978.34
391.19	1001.75
391.39	954.94
391.58	978.34
391.78	936.21
391.97	959.62
392.16	978.34
392.36	1100.05
392.55	978.34
392.75	1064.94
392.94	1034.52
393.13	1032.18
393.33	1071.97
393.52	1050.90
393.71	1050.90
393.91	985.37
394.10	1069.62
394.29	1043.88
394.49	1107.07
394.68	1071.97
394.88	1104.73
395.07	1069.62
395.26	1116.44
395.46	1036.86
395.65	1184.31
395.84	1125.80
396.04	1174.95
396.23	1104.73
396.42	1135.16
396.62	1163.25
396.81	1156.22
397.00	1165.59
397.19	1146.86
397.39	1158.57
397.58	1196.01
397.77	1102.39
397.97	1252.19
398.16	1163.25
398.35	1247.51
398.55	1221.76
398.74	1193.67
398.93	1240.48
399.12	1252.19
399.32	1198.35
399.51	1228.78
399.70	1409.00
399.90	1282.61
400.09	1423.05
400.28	1329.42
400.47	1401.98
400.67	1411.34
400.86	1413.68
401.05	1296.66
401.24	1348.15
401.44	1315.38
401.63	1441.77
401.82	1385.60
402.01	1420.71
402.21	1390.28
402.40	1490.92
402.59	1327.08
402.78	1474.54
402.97	1500.28
403.17	1488.58
403.36	1465.18
403.55	1493.26
403.74	1507.30
403.93	1394.96
404.13	1514.33
404.32	1432.41
404.51	1502.62
404.70	1586.88
404.89	1579.86
405.09	1605.61
405.28	1607.95
405.47	1537.73
405.66	1593.90
405.85	1710.93
406.05	1633.69
406.24	1673.48
406.43	1661.78
406.62	1647.74
406.81	1778.81
407.00	1722.63
407.20	1687.53
407.39	1717.95
407.58	1755.40
407.77	1867.75
407.96	1884.13
408.15	1806.89
408.34	1778.81
408.54	1734.34
408.73	1825.62
408.92	1949.67
409.11	1827.96
409.30	1818.60
409.49	1849.02
409.68	1825.62
409.87	1884.13
410.07	2026.90
410.26	1928.60
410.45	1926.26
410.64	1994.14
410.83	1987.11
411.02	2059.67
411.21	2033.93
411.40	2010.52
411.59	2108.82
411.78	2097.12
411.98	2066.69
412.17	2172.02
412.36	2136.91
412.55	2244.57
412.74	2289.04
412.93	2275.00
413.12	2195.42
413.31	2342.88
413.50	2349.90
413.69	2296.07
413.88	2298.41
414.07	2436.50
414.26	2450.54
414.45	2317.13
414.64	2539.48
414.83	2441.18
415.02	2415.43
415.22	2471.61
415.41	2497.35
415.60	2656.51
415.79	2530.12
415.98	2665.87
416.17	2614.38
416.36	2530.12
416.55	2539.48
416.74	2558.21
416.93	2771.19
417.12	2597.99
417.31	2789.92
417.50	2761.83
417.69	2778.22
417.88	2799.28
418.07	2815.66
418.26	2825.03
418.45	2960.78
418.64	3000.57
418.83	2782.90
419.02	2906.95
419.21	3005.25
419.39	2988.86
419.58	2916.31
419.77	3059.08
419.96	2972.48
420.15	3026.31
420.34	3126.96
420.53	3101.21
420.72	3112.91
420.91	3105.89
421.10	3023.97
421.29	3229.94
421.48	3124.62
421.67	3169.09
421.86	3019.29
422.05	3148.02
422.24	3201.85
422.43	3227.60
422.61	3138.66
422.80	3293.13
422.99	3131.64
423.18	3330.58
423.37	3386.76
423.56	3169.09
423.75	3255.69
423.94	3199.51
424.13	3045.04
424.32	3171.43
424.50	3316.54
424.69	3330.58
424.88	3323.56
425.07	3248.66
425.26	3229.94
425.45	3325.90
425.64	3297.81
425.83	3288.45
426.01	3269.73
426.20	3262.71
426.39	3335.26
426.58	3220.58
426.77	3234.62
426.96	3433.57
427.15	3379.73
427.33	3386.76
427.52	3330.58
427.71	3513.14
427.90	3466.33
428.09	3522.51
428.28	3499.10
428.46	3702.73
428.65	3581.02
428.84	3667.62
429.03	3611.45
429.22	3459.31
429.40	3669.96
429.59	3555.27
429.78	3417.18
429.97	3531.87
430.16	3599.74
430.34	3749.54
430.53	3700.39
430.72	3588.04
430.91	3723.79
431.10	3604.42
431.28	3777.62
431.47	3918.06
431.66	3854.86
431.85	3817.41
432.03	3829.12
432.22	3920.40
432.41	3880.61
432.60	3978.91
432.79	3929.76
432.97	4021.04
433.16	3908.69
433.35	3943.80
433.54	4007.00
433.72	3889.97
433.91	3988.27
434.10	3896.99
434.28	4021.04
434.47	3882.95
434.66	4091.26
434.85	4070.19
435.03	4042.11
435.22	4049.13
435.41	4166.15
435.59	4227.01
435.78	4248.07
435.97	4086.58
436.16	4159.13
436.34	4098.28
436.53	4313.61
436.72	4304.25
436.90	4100.62
437.09	4404.89
437.28	4154.45
437.46	4264.46
437.65	4428.29
437.84	4374.46
438.02	4479.79
438.21	4444.68
438.40	4201.26
438.58	4484.47
438.77	4587.45
438.96	4526.60
439.14	4662.35
439.33	4744.27
439.52	4594.47
439.70	4629.58
439.89	4894.06
440.08	4791.08
440.26	4760.65
440.45	4823.84
440.63	4870.65
440.82	5125.77
441.01	4901.08
441.19	5015.77
441.38	5093.01
441.57	5001.72
441.75	5093.01
441.94	5195.99
442.12	5067.26
442.31	5282.59
442.50	5249.82
442.68	5315.36
442.87	5158.54
443.05	5364.51
443.24	5245.14
443.43	5205.35
443.61	5261.52
443.80	5352.81
443.98	5088.32
444.17	5193.65
444.35	5256.84
444.54	5357.49
444.73	5366.85
444.91	5324.72
445.10	5341.10
445.28	5313.02
445.47	5268.55
445.65	5469.83
445.84	5547.07
446.02	5467.49
446.21	5455.79
446.39	5404.30
446.58	5404.30
446.77	5404.30
446.95	5317.70
447.14	5401.96
447.32	5577.50
447.51	5378.55
447.69	5401.96
447.88	5542.39
448.06	5568.13
448.25	5621.97
448.43	5521.32
448.62	5357.49
448.80	5465.15
448.99	5760.06
449.17	5661.76
449.36	5577.50
449.54	5659.42
449.73	5678.14
449.91	5851.34
450.10	5652.39
450.28	5757.72
450.46	5856.02
450.65	5734.31
450.83	5851.34
451.02	5973.05
451.20	6036.24
451.39	6015.18
451.57	5781.12
451.76	5767.08
451.94	5907.51
452.13	5937.94
452.31	5799.85
452.49	5874.74
452.68	6040.92
452.86	5994.11
453.05	6083.05
453.23	6036.24
453.42	5912.19
453.60	5884.11
453.78	6146.25
453.97	6155.61
454.15	6108.80
454.34	6106.46
454.52	6164.97
454.70	6258.59
454.89	6352.21
455.07	6244.55
455.26	6251.57
455.44	6431.79
455.62	6392.00
455.81	6328.81
455.99	6363.92
456.17	6403.71
456.36	6572.22
456.54	6658.82
456.73	6492.65
456.91	6677.55
457.09	6665.85
457.28	6745.42
457.46	6726.70
457.64	6710.32
457.83	6717.34
458.01	6656.48
458.19	6916.28
458.38	6806.28
458.56	6747.76
458.74	6703.29
458.93	6813.30
459.11	6853.09
459.29	6867.13
459.48	7042.67
459.66	6942.03
459.84	7047.35
460.03	7220.55
460.21	6991.18
460.39	6902.24
460.57	7157.36
460.76	7042.67
460.94	7281.41
461.12	7218.21
461.31	7037.99
461.49	7077.78
461.67	7108.21
461.85	7176.08
462.04	7122.25
462.22	7812.71
462.40	7410.14
462.59	7424.18
462.77	7412.48
462.95	7407.80
463.13	7508.44
463.32	7274.38
463.50	7508.44
463.68	7522.48
463.86	7592.70
464.05	7550.57
464.23	7461.63
464.41	7606.74
464.59	7428.86
464.78	7903.99
464.96	7559.93
465.14	7564.61
465.32	7733.13
465.50	7744.83
465.69	7630.15
465.87	7609.08
466.05	7761.22
466.23	7655.89
466.41	7674.62
466.60	7735.47
466.78	7730.79
466.96	7889.95
467.14	7779.94
467.32	7934.42
467.51	8051.44
467.69	7798.66
467.87	7939.10
468.05	7964.84
468.23	8021.02
468.41	7988.25
468.60	7953.14
468.78	7901.65
468.96	8102.93
469.14	8180.17
469.32	8114.64
469.50	7967.18
469.69	8386.14
469.87	8383.80
470.05	8175.49
470.23	8266.77
470.41	8266.77
470.59	8498.49
470.77	8421.25
470.95	8292.52
471.14	8650.62
471.32	8465.72
471.50	8645.94
471.68	8741.90
471.86	8809.78
472.04	8739.56
472.22	8720.84
472.40	8730.20
472.58	8765.31
472.77	8957.23
472.95	8975.95
473.13	9273.20
473.31	9004.04
473.49	9060.21
473.67	8901.06
473.85	8999.36
474.03	9153.84
474.21	9085.96
474.39	9355.12
474.57	9383.21
474.75	9411.29
474.93	9427.68
475.12	9540.02
475.30	9554.07
475.48	9472.15
475.66	9722.59
475.84	9591.52
476.02	9781.10
476.20	9710.88
476.38	9928.55
476.56	10143.88
476.74	10012.81
476.92	10125.16
477.10	9926.21
477.28	10211.76
477.46	10167.29
477.64	10202.40
477.82	10436.45
478.00	10572.20
478.18	10490.28
478.36	10691.57
478.54	10693.91
478.72	10834.34
478.90	10855.40
479.08	10958.39
479.26	11140.95
479.44	11049.67
479.62	11154.99
479.80	11335.21
479.98	11604.38
480.16	11681.61
480.34	11716.72
480.52	11545.86
480.70	11798.64
480.88	11428.84
481.06	11693.32
481.24	11782.26
481.41	11948.43
481.59	12119.29
481.77	12416.54
481.95	12386.12
482.13	12461.01
482.31	12451.65
482.49	12599.10
482.67	12716.13
482.85	12922.10
483.03	12910.40
483.21	12982.95
483.39	13329.35
483.57	13001.68
483.74	13160.83
483.92	13261.48
484.10	13324.67
484.28	13638.30
484.46	13792.78
484.64	13755.33
484.82	13589.15
485.00	13973.00
485.18	13994.06
485.35	14394.29
485.53	14122.79
485.71	14310.04
485.89	14731.33
486.07	14520.68
486.25	14721.97
486.43	14693.88
486.61	14874.10
486.78	15019.22
486.96	15070.71
487.14	15159.65
487.32	15220.50
487.50	15421.79
487.68	15499.03
487.85	15894.58
488.03	15674.57
488.21	15978.84
488.39	16180.12
488.57	16290.13
488.75	16278.43
488.92	16622.48
489.10	16758.24
489.28	16456.31
489.46	16791.00
489.64	16528.86
489.81	17057.82
489.99	17289.54
490.17	17282.52
490.35	17621.89
490.53	17465.08
490.70	17844.24
490.88	17334.01
491.06	18005.74
491.24	17954.25
491.41	17968.29
491.59	18132.13
491.77	18267.88
491.95	18272.56
492.13	18644.71
492.30	18834.29
492.48	18703.22
492.66	18677.48
492.84	19030.90
493.01	19154.94
493.19	19047.28
493.37	19119.84
493.54	19000.47
493.72	19365.59
493.90	19318.78
494.08	19721.35
494.25	19651.14
494.43	19967.11
494.61	20255.00
494.79	20421.17
494.96	20060.73
495.14	20395.43
495.32	20702.04
495.49	20650.55
495.67	20840.13
495.85	20908.01
496.02	20933.75
496.20	21465.05
496.38	20973.54
496.55	21139.72
496.73	21682.72
496.91	21469.73
497.09	21415.90
497.26	22026.78
497.44	21994.01
497.62	21916.78
497.79	22405.95
497.97	21928.48
498.14	22331.05
498.32	22731.28
498.50	22567.45
498.67	22883.42
498.85	22527.66
499.03	22958.31
499.20	23183.01
499.38	22735.96
499.56	22944.27
499.73	23264.92
499.91	23005.13
500.08	23213.43
500.26	22911.50
500.44	23335.14
500.61	23613.66
500.79	23557.49
500.97	24002.19
501.14	24046.66
501.32	24147.31
501.49	24060.71
501.67	24280.72
501.84	24393.06
502.02	24514.77
502.20	24287.74
502.37	24430.51
502.55	24294.76
502.72	24570.94
502.90	24451.58
503.07	24716.06
503.25	24601.37
503.43	24730.10
503.60	24592.01
503.78	24634.14
503.95	24994.58
504.13	25120.97
504.30	25387.79
504.48	25373.75
504.65	25472.05
504.83	25460.35
505.01	25811.43
505.18	25628.87
505.36	26003.35
505.53	25678.02
505.71	25926.11
505.88	26094.63
506.06	26122.72
506.23	26230.38
506.41	26228.04
506.58	26129.74
506.76	26497.20
506.93	26445.71
507.11	26398.90
507.28	26579.12
507.46	26485.50
507.63	26487.84
507.81	27005.10
507.98	26705.51
508.16	26934.88
508.33	27330.44
508.50	27187.66
508.68	27344.48
508.85	27892.16
509.03	27096.38
509.20	27468.53
509.38	27711.94
509.55	27721.30
509.73	28191.75
509.90	28334.53
510.08	28177.71
510.25	28037.28
510.42	28182.39
510.60	28044.30
510.77	28332.18
510.95	28481.98
511.12	28428.15
511.30	28304.10
511.47	28411.76
511.64	28439.85
511.82	28889.23
511.99	28762.84
512.17	28868.17
512.34	28535.81
512.51	28819.02
512.69	29315.21
512.86	29149.03
513.04	29542.24
513.21	29116.26
513.38	29373.72
513.56	29755.23
513.73	29399.47
513.90	29486.07
514.08	29624.16
514.25	30103.97
514.43	29596.07
514.60	30129.72
514.77	30389.52
514.95	30162.48
515.12	29633.52
515.29	30150.78
515.47	30569.74
515.64	30295.89
515.81	30513.56
515.99	30661.02
516.16	30342.70
516.33	30689.10
516.51	30911.46
516.68	30576.76
516.85	30642.29
517.03	30796.77
517.20	30993.37
517.37	31154.87
517.54	31267.22
517.72	31487.23
517.89	31346.79
518.06	31101.04
518.24	31311.69
518.41	31218.07
518.58	31307.01
518.75	31578.51
518.93	31215.72
519.10	31470.84
519.27	31899.16
519.45	31913.20
519.62	31997.46
519.79	32306.41
519.96	31779.79
520.14	32030.23
520.31	31557.44
520.48	32201.09
520.65	32594.30
520.83	33003.89
521.00	32568.55
521.17	32591.96
521.34	32493.66
521.52	32994.53
521.69	32732.39
521.86	32968.79
522.03	32669.20
522.20	33233.27
522.38	33352.63
522.55	33748.18
522.72	32840.06
522.89	33071.77
523.07	33476.68
523.24	33453.28
523.41	33783.29
523.58	33277.74
523.75	33806.70
523.92	33610.09
524.10	33895.64
524.27	33837.12
524.44	33984.58
524.61	34302.89
524.78	34450.35
524.96	34230.33
525.13	34061.82
525.30	34190.55
525.47	34595.46
525.64	34132.03
525.81	34216.29
525.98	34291.19
526.16	34672.70
526.33	34569.71
526.50	34466.73
526.67	34338.00
526.84	34974.63
527.01	34609.50
527.18	34920.79
527.36	34899.73
527.53	34923.13
527.70	35021.44
527.87	35505.93
528.04	35105.70
528.21	35585.50
528.38	35026.12
528.55	35346.77
528.72	35421.67
528.89	35468.48
529.07	35093.99
529.24	35393.58
529.41	35510.61
529.58	35587.85
529.75	35538.69
529.92	35583.16
530.09	35903.82
530.26	35824.24
530.43	35756.36
530.60	35615.93
530.77	35852.33
530.94	36088.72
531.11	36102.76
531.28	35775.09
531.46	36278.30
531.63	36004.46
531.80	36266.60
531.97	36411.71
532.14	36456.18
532.31	36194.04
532.48	36634.06
532.65	36472.57
532.82	36336.82
532.99	36425.76
533.16	36730.03
533.33	36568.53
533.50	36919.61
533.67	36669.17
533.84	36776.84
534.01	37069.40
534.18	36648.11
534.35	37460.27
534.52	37233.24
534.69	37207.50
534.86	37237.92
535.03	37205.16
535.20	37930.72
535.37	37392.40
535.54	37453.25
535.71	37532.83
535.88	37603.05
536.05	37574.96
536.22	37813.70
536.38	37226.22
536.55	37659.22
536.72	37551.56
536.89	37776.25
537.06	37825.40
537.23	38251.38
537.40	37977.53
537.57	37757.52
537.74	38029.02
537.91	38274.78
538.08	37827.74
538.25	38321.59
538.42	38164.78
538.59	37886.25
538.75	37958.81
538.92	38604.80
539.09	38824.81
539.26	38319.25
539.43	38735.87
539.60	38639.90
539.77	38803.74
539.94	38855.23
540.11	38754.59
540.28	38763.95
540.44	38609.48
540.61	39100.99
540.78	38581.39
540.95	38621.18
541.12	38932.47
541.29	38443.30
541.46	39033.11
541.62	39021.41
541.79	39168.87
541.96	38890.34
542.13	39227.38
542.30	39131.42
542.47	39337.38
542.63	39346.75
542.80	39288.23
542.97	39800.81
543.14	40006.78
543.31	39426.32
543.48	39550.37
543.64	40175.30
543.81	40245.51
543.98	39896.77
544.15	40203.38
544.32	40048.91
544.48	40861.07
544.65	40133.17
544.82	40219.77
544.99	39962.31
545.16	40004.44
545.32	40240.83
545.49	40664.47
545.66	40584.89
545.83	40697.24
546.00	40964.06
546.16	41060.02
546.33	40423.39
546.50	40037.20
546.67	40840.01
546.83	40062.95
547.00	40708.94
547.17	40341.47
547.34	40620.00
547.50	40832.99
547.67	40814.26
547.84	40643.40
548.00	41134.92
548.17	41060.02
548.34	41024.91
548.51	41457.91
548.67	41038.95
548.84	40828.30
549.01	41390.03
549.18	40938.31
549.34	41186.41
549.51	41647.49
549.68	40786.18
549.84	41158.32
550.01	41701.32
550.18	41350.24
550.34	41450.89
550.51	41558.55
550.68	41895.59
550.84	41216.83
551.01	41574.94
551.18	41579.62
551.34	41579.62
551.51	41792.61
551.68	41750.48
551.84	41752.82
552.01	41350.24
552.18	41715.37
552.34	41710.69
552.51	41907.29
552.68	41464.93
552.84	41816.01
553.01	41607.70
553.18	42209.22
553.34	42462.00
553.51	41965.81
553.67	42579.03
553.84	42298.16
554.01	42660.94
554.17	42176.45
554.34	42211.56
554.51	42064.11
554.67	42548.60
554.84	42454.98
555.00	42153.05
555.17	42665.63
555.33	42412.85
555.50	42178.79
555.67	42890.32
555.83	42263.05
556.00	42756.91
556.16	43122.03
556.33	42431.57
556.50	42557.96
556.66	42183.48
556.83	42714.78
556.99	42714.78
557.16	42916.06
557.32	43016.71
557.49	42866.91
557.65	42382.42
557.82	42857.55
557.98	42574.34
558.15	43234.38
558.32	43115.01
558.48	42752.23
558.65	42838.83
558.81	43021.39
558.98	43140.75
559.14	42883.30
559.31	43447.36
559.47	42520.51
559.64	42880.95
559.80	43306.93
559.97	42995.64
560.13	43117.35
560.30	43278.85
560.46	43491.83
560.63	43533.96
560.79	43199.27
560.96	42983.94
561.12	43189.91
561.29	43147.78
561.45	43634.61
561.61	43316.29
561.78	43597.16
561.94	43351.40
562.11	43686.10
562.27	43414.60
562.44	43938.88
562.60	43819.51
562.77	43828.87
562.93	43498.86
563.10	43807.81
563.26	43398.21
563.42	44069.95
563.59	43658.01
563.75	43634.61
563.92	43381.83
564.08	43597.16
564.24	44126.12
564.41	43576.09
564.57	43739.93
564.74	43784.40
564.90	43583.12
565.07	43749.29
565.23	43988.03
565.39	44194.00
565.56	43803.13
565.72	44409.32
565.88	43885.04
566.05	44083.99
566.21	43985.69
566.38	44030.16
566.54	44191.65
566.70	43906.11
566.87	43990.37
567.03	44088.67
567.19	44130.80
567.36	44428.05
567.52	43913.13
567.68	44744.02
567.85	44584.86
568.01	44383.58
568.17	43959.94
568.34	44463.16
568.50	44348.47
568.66	43957.60
568.83	43929.51
568.99	43924.83
569.15	44339.11
569.32	44395.28
569.48	44172.93
569.64	44521.67
569.81	44573.16
569.97	44477.20
570.13	44509.97
570.30	43707.16
570.46	44465.50
570.62	44538.05
570.78	44163.57
570.95	44479.54
571.11	44542.74
571.27	44437.41
571.43	44392.94
571.60	44430.39
571.76	44311.02
571.92	44662.10
572.09	44315.70
572.25	44404.64
572.41	44147.18
572.57	44423.37
572.74	44678.49
572.90	44589.55
573.06	44795.51
573.22	44739.34
573.38	45001.48
573.55	44685.51
573.71	45081.06
573.87	44446.77
574.03	44797.85
574.20	44968.71
574.36	44807.22
574.52	45116.17
574.68	45127.87
574.84	44828.28
575.01	45015.52
575.17	45120.85
575.33	44790.83
575.49	44697.21
575.65	44952.33
575.82	44835.30
575.98	44664.44
576.14	44793.17
576.30	44732.32
576.46	44694.87
576.62	44594.23
576.79	44437.41
576.95	44163.57
577.11	44610.61
577.27	44622.31
577.43	44383.58
577.59	45069.36
577.75	44287.62
577.92	44680.83
578.08	44823.60
578.24	44793.17
578.40	44849.35
578.56	45027.23
578.72	45020.20
578.88	44973.39
579.04	44854.03
579.21	44964.03
579.37	44989.78
579.53	45132.55
579.69	45083.40
579.85	44598.91
580.01	44641.04
580.17	44851.69
580.33	45268.30
580.49	44837.64
580.65	45139.57
580.82	44949.99
580.98	44751.04
581.14	44336.77
581.30	45027.23
581.46	44692.53
581.62	44818.92
581.78	44718.28
581.94	44938.29
582.10	45336.18
582.26	45256.60
582.42	44835.30
582.58	45015.52
582.74	45319.79
582.90	45106.80
583.06	45064.67
583.22	44856.37
583.38	44720.62
583.54	45549.17
583.70	45420.44
583.86	45350.22
584.02	44985.10
584.18	45474.27
584.34	45008.50
584.50	45198.09
584.66	45315.11
584.82	45244.90
584.98	45247.24
585.14	45333.84
585.30	45212.13
585.46	44987.44
585.62	44720.62
585.78	45186.38
585.94	44542.74
586.10	45294.05
586.26	45275.32
586.42	44788.49
586.58	44933.60
586.74	45184.04
586.90	44945.31
587.06	45055.31
587.22	45270.64
587.38	45350.22
587.54	45120.85
587.70	45254.26
587.86	45404.05
588.02	45556.19
588.18	45130.21
588.34	45385.33
588.49	45408.73
588.65	44928.92
588.81	45324.47
588.97	45544.48
589.13	45137.23
589.29	45240.21
589.45	45572.57
589.61	45287.03
589.77	45855.78
589.93	45340.86
590.08	45471.93
590.24	45675.55
590.40	45872.16
590.56	45881.52
590.72	45977.48
590.88	45441.50
591.04	45148.93
591.20	45832.37
591.35	45539.80
591.51	45673.21
591.67	45727.05
591.83	46131.96
591.99	45268.30
592.15	45539.80
592.31	45968.12
592.46	45284.68
592.62	45771.52
592.78	45874.50
592.94	45944.72
593.10	46108.55
593.26	45963.44
593.41	45701.30
593.57	45497.67
593.73	46003.23
593.89	46197.49
594.05	46202.18
594.20	46012.59
594.36	46309.84
594.52	45823.01
594.68	45846.41
594.84	45713.00
594.99	45961.10
595.15	46092.17
595.31	46066.42
595.47	45951.74
595.62	45794.92
595.78	45481.29
595.94	46197.49
596.10	45659.17
596.25	46075.79
596.41	45998.55
596.57	45549.17
596.73	46113.23
596.88	45815.99
597.04	45883.86
597.20	45722.37
597.36	45738.75
597.51	45815.99
597.67	45895.56
597.83	45961.10
597.99	46085.15
598.14	45727.05
598.30	45895.56
598.46	45741.09
598.61	46501.76
598.77	45759.81
598.93	45734.07
599.09	45766.84
599.24	46323.88
599.40	45904.93
599.56	46263.03
599.71	46309.84
599.87	46508.79
600.03	46309.84
600.18	46375.37
600.34	46349.63
600.50	45858.12
600.65	45675.55
600.81	46241.96
600.97	46010.25
601.12	45815.99
601.28	45717.68
601.44	45935.35
601.59	46227.92
601.75	46131.96
601.91	46206.86
602.06	46326.22
602.22	45998.55
602.37	46347.29
602.53	46153.02
602.69	46251.33
602.84	45947.06
603.00	46230.26
603.16	46141.32
603.31	46216.22
603.47	46190.47
603.62	46160.05
603.78	46171.75
603.94	46183.45
604.09	46270.05
604.25	46202.18
604.40	46031.32
604.56	46375.37
604.71	46272.39
604.87	46237.28
605.03	46256.01
605.18	46110.89
605.34	46284.09
605.49	45717.68
605.65	46120.26
605.80	45951.74
605.96	45701.30
606.12	45841.73
606.27	45947.06
606.43	46078.13
606.58	46199.83
606.74	46349.63
606.89	45862.80
607.05	46026.63
607.20	45799.60
607.36	45956.42
607.51	46005.57
607.67	45916.63
607.82	45738.75
607.98	46167.07
608.13	45930.67
608.29	45537.46
608.44	45888.54
608.60	45954.08
608.75	45476.61
608.91	45408.73
609.06	45467.25
609.22	45893.22
609.37	45261.28
609.53	46066.42
609.68	46256.01
609.84	45516.40
609.99	45748.11
610.15	46146.00
610.30	46291.12
610.46	45624.06
610.61	45631.08
610.76	45492.99
610.92	45366.60
611.07	45406.39
611.23	45251.92
611.38	45853.44
611.54	45434.48
611.69	45603.00
611.84	45736.41
612.00	45457.88
612.15	45500.01
612.31	45518.74
612.46	45455.54
612.62	45144.25
612.77	45312.77
612.92	45595.98
613.08	45537.46
613.23	45530.44
613.39	45659.17
613.54	45092.76
613.69	45556.19
613.85	45380.65
614.00	45050.63
614.15	45272.98
614.31	45244.90
614.46	45202.77
614.62	45497.67
614.77	45684.92
614.92	45406.39
615.08	45368.94
615.23	45504.70
615.38	45162.98
615.54	45595.98
615.69	45457.88
615.84	45460.23
616.00	45446.18
616.15	45130.21
616.30	45310.43
616.46	44980.42
616.61	45010.84
616.76	45469.59
616.92	44748.70
617.07	45289.37
617.22	44973.39
617.37	44987.44
617.53	45170.00
617.68	44896.16
617.83	45179.36
617.99	45443.84
618.14	44966.37
618.29	45209.79
618.45	44713.59
618.60	44760.40
618.75	44584.86
618.90	44683.17
619.06	44863.39
619.21	44477.20
619.36	44964.03
619.51	44811.90
619.67	44678.49
619.82	44858.71
619.97	44528.69
620.12	44851.69
620.28	44678.49
620.43	44816.58
620.58	44959.35
620.73	44708.91
620.89	44669.12
621.04	44861.05
621.19	44245.49
621.34	44444.43
621.49	44500.61
621.65	44526.35
621.80	44907.86
621.95	44648.06
622.10	44648.06
622.25	44252.51
622.41	44378.90
622.56	44383.58
622.71	44194.00
622.86	44605.93
623.01	44486.56
623.16	43938.88
623.32	44402.30
623.47	43810.15
623.62	44222.08
623.77	44062.93
623.92	44371.88
624.07	44194.00
624.23	44240.81
624.38	44650.40
624.53	44573.16
624.68	43728.23
624.83	43913.13
624.98	44179.95
625.13	44011.43
625.29	43878.02
625.44	43615.88
625.59	43955.26
625.74	44177.61
625.89	43929.51
626.04	43782.06
626.19	43732.91
626.34	43791.42
626.49	43475.45
626.65	43426.30
626.80	43866.32
626.95	43583.12
627.10	43459.07
627.25	43693.12
627.40	43548.01
627.55	43491.83
627.70	43391.19
627.85	43936.54
628.00	43796.10
628.15	43290.55
628.30	42995.64
628.45	43215.65
628.60	43320.98
628.76	43107.99
628.91	43461.41
629.06	43061.18
629.21	43201.61
629.36	43330.34
629.51	43583.12
629.66	43515.24
629.81	43147.78
629.96	43388.85
630.11	43318.64
630.26	42614.13
630.41	43117.35
630.56	43405.23
630.71	43236.72
630.86	43215.65
631.01	42719.46
631.16	42534.56
631.31	42820.10
631.46	43035.43
631.61	43037.77
631.76	43269.48
631.91	42909.04
632.06	43440.34
632.21	43297.57
632.36	43171.18
632.51	42462.00
632.66	43290.55
632.81	42445.62
632.96	42784.99
633.10	42567.32
633.25	43187.56
633.40	42670.31
633.55	42850.53
633.70	43044.79
633.85	42188.16
634.00	42424.55
634.15	42473.70
634.30	42742.86
634.45	42452.64
634.60	42459.66
634.75	42536.90
634.90	42387.10
635.05	42396.46
635.19	42918.40
635.34	42415.19
635.49	42459.66
635.64	42883.30
635.79	42387.10
635.94	42478.38
636.09	42445.62
636.24	42454.98
636.39	42382.42
636.53	42160.07
636.68	42068.79
636.83	42328.59
636.98	42171.77
637.13	41790.27
637.28	41963.46
637.43	42113.26
637.57	42033.68
637.72	41956.44
637.87	42066.45
638.02	42059.43
638.17	41748.14
638.32	41918.99
638.46	41628.77
638.61	41918.99
638.76	41471.95
638.91	42047.72
639.06	41647.49
639.20	41572.60
639.35	41490.68
639.50	41385.35
639.65	42000.91
639.80	41668.56
639.94	41572.60
640.09	41694.30
640.24	41689.62
640.39	41600.68
640.54	41296.41
640.68	41701.32
640.83	41516.42
640.98	41263.64
641.13	41275.35
641.27	41755.16
641.42	41270.67
641.57	41715.37
641.72	41275.35
641.86	41188.75
642.01	40907.88
642.16	41298.75
642.31	40517.01
642.45	41682.60
642.60	41090.44
642.75	41240.24
642.90	41464.93
643.04	41244.92
643.19	41284.71
643.34	41155.98
643.48	40767.45
643.63	40727.66
643.78	41181.73
643.93	41635.79
644.07	41155.98
644.22	41069.38
644.37	40954.69
644.51	40758.09
644.66	40704.26
644.81	40870.43
644.95	40921.93
645.10	40858.73
645.25	40540.42
645.39	40631.70
645.54	40577.87
645.69	40449.14
645.83	40479.57
645.98	40282.96
646.13	40355.52
646.27	40744.05
646.42	40067.63
646.57	40687.87
646.71	40421.05
646.86	40973.42
647.00	40304.02
647.15	40409.35
647.30	40161.25
647.44	40484.25
647.59	40165.93
647.74	40374.24
647.88	40332.11
648.03	40552.12
648.17	41008.53
648.32	40425.73
648.47	40629.36
648.61	40502.97
648.76	40325.09
648.90	39917.84
649.05	40123.80
649.20	39819.53
649.34	40224.45
649.49	40240.83
649.63	40645.74
649.78	40355.52
649.92	39997.41
650.07	40231.47
650.21	40299.34
650.36	40048.91
650.51	39983.37
650.65	40236.15
650.80	40240.83
650.94	40062.95
651.09	39924.86
651.23	39304.62
651.38	39756.34
651.52	39763.36
651.67	39845.28
651.81	39793.79
651.96	39845.28
652.10	39487.18
652.25	39562.08
652.39	39531.65
652.54	39758.68
652.68	39423.98
652.83	39484.84
652.97	39665.06
653.12	39702.51
653.26	39208.65
653.41	39316.32
653.55	39370.15
653.70	39597.18
653.84	39796.13
653.99	39491.86
654.13	39526.97
654.27	39033.11
654.42	39367.81
654.56	39222.70
654.71	39295.25
654.85	39143.12
655.00	39384.19
655.14	39351.43
655.29	39618.25
655.43	39218.02
655.57	39466.11
655.72	38576.71
655.86	39147.80
656.01	38967.58
656.15	39021.41
656.30	39077.58
656.44	38660.97
656.58	38539.26
656.73	39248.44
656.87	38506.49
657.01	38476.07
657.16	38883.32
657.30	38792.04
657.45	38630.54
657.59	38459.68
657.73	38370.74
657.88	38663.31
658.02	38845.87
658.16	38981.62
658.31	38742.89
658.45	38391.81
658.60	38429.26
658.74	38560.33
658.88	38824.81
659.03	38651.61
659.17	38424.57
659.31	38366.06
659.46	38333.29
659.60	38499.47
659.74	38148.39
659.89	37818.38
660.03	37586.66
660.17	38178.82
660.32	37745.82
660.46	38148.39
660.60	37844.12
660.74	37642.84
660.89	38150.73
661.03	37687.31
661.17	37530.49
661.32	37858.17
661.46	37647.52
661.60	37315.16
661.74	37528.15
661.89	37628.79
662.03	37296.44
662.17	37226.22
662.31	37158.34
662.46	37195.79
662.60	37177.07
662.74	36727.69
662.88	36556.83
663.03	36994.51
663.17	37006.21
663.31	36760.45
663.45	37153.66
663.60	37144.30
663.74	36495.97
663.88	36825.99
664.02	36795.56
664.17	37062.38
664.31	36664.49
664.45	36512.36
664.59	36556.83
664.73	36357.88
664.88	36336.82
665.02	36308.73
665.16	36334.48
665.30	36285.33
665.44	36315.75
665.59	35945.95
665.73	35484.86
665.87	35641.68
666.01	36472.57
666.15	36098.08
666.29	35426.35
666.44	36156.60
666.58	35894.46
666.72	35201.66
666.86	35817.22
667.00	35826.58
667.14	35660.40
667.28	35253.15
667.43	35505.93
667.57	35952.97
667.71	35253.15
667.85	35501.25
667.99	35459.12
668.13	35526.99
668.27	34932.50
668.41	34925.47
668.56	34618.86
668.70	34831.85
668.84	34845.90
668.98	34829.51
669.12	34763.98
669.26	34698.44
669.40	34836.53
669.54	34735.89
669.68	35082.29
669.82	34618.86
669.96	33963.51
670.10	34117.99
670.25	34103.95
670.39	33893.30
670.53	34213.95
670.67	34012.66
670.81	34401.19
670.95	34197.57
671.09	34412.90
671.23	33897.98
671.37	33954.15
671.51	33762.23
671.65	33427.53
671.79	33603.07
671.93	33710.74
672.07	33771.59
672.21	33940.11
672.35	33085.81
672.49	33439.23
672.63	33090.49
672.77	33500.09
672.91	33532.86
673.05	32758.14
673.19	32954.74
673.33	32781.54
673.47	32739.41
673.61	32685.58
673.75	32561.53
673.89	32341.52
674.03	32196.41
674.17	32027.89
674.31	32217.47
674.45	32121.51
674.59	31938.95
674.73	31931.93
674.87	31950.65
675.01	31545.74
675.15	31653.40
675.29	31550.42
675.43	31791.50
675.56	31676.81
675.70	31398.29
675.84	31433.39
675.98	30806.13
676.12	31316.37
676.26	31721.28
676.40	31372.54
676.54	31070.61
676.68	30764.00
676.82	30450.37
676.96	31318.71
677.10	30881.03
677.23	30370.79
677.37	30682.08
677.51	30515.90
677.65	30646.97
677.79	30085.25
677.93	30022.05
678.07	30225.68
678.21	30218.66
678.34	29612.46
678.48	29748.21
678.62	29607.78
678.76	29647.57
678.90	29369.04
679.04	29558.63
679.18	29429.90
679.31	28978.17
679.45	28978.17
679.59	29282.44
679.73	28905.62
679.87	29013.28
680.00	28809.65
680.14	29048.39
680.28	28835.40
680.42	28596.67
680.56	28690.29
680.70	28074.73
680.83	28149.62
680.97	28418.78
681.11	28102.81
681.25	28187.07
681.39	27828.97
681.52	28180.05
681.66	27117.45
681.80	26974.67
681.94	27398.31
682.07	27201.71
682.21	26831.90
682.35	27477.89
682.49	26864.67
682.62	27037.87
682.76	27108.08
682.90	26972.33
683.04	26384.86
683.17	26801.47
683.31	26494.86
683.45	26237.41
683.59	26403.58
683.72	25919.09
683.86	26424.65
684.00	25858.24
684.13	26122.72
684.27	25668.66
684.41	25993.99
684.55	25345.66
684.68	25865.26
684.82	25434.60
684.96	25254.38
685.09	25472.05
685.23	25249.70
685.37	25523.54
685.50	25376.09
685.64	25230.98
685.78	24957.13
685.91	24922.02
686.05	24393.06
686.19	24203.48
686.32	24563.92
686.46	24348.59
686.60	24308.80
686.73	24465.62
686.87	24477.32
687.01	24067.73
687.14	24175.39
687.28	23957.72
687.42	24098.16
687.55	24177.73
687.69	23634.73
687.82	23604.30
687.96	23697.92
688.10	23721.33
688.23	23630.05
688.37	23573.88
688.50	23669.84
688.64	23168.96
688.78	23091.73
688.91	23082.36
689.05	23178.33
689.18	22663.41
689.32	22321.69
689.46	22401.27
689.59	22361.48
689.73	22558.08
689.86	22714.90
690.00	22471.48
690.13	22139.13
690.27	22265.52
690.41	22436.38
690.54	22092.32
690.68	21876.99
690.81	21867.63
690.95	21486.12
691.08	21472.07
691.22	21235.68
691.35	21404.20
691.49	21432.29
691.62	21268.45
691.76	21113.97
691.89	20900.98
692.03	20505.43
692.16	20437.56
692.30	20606.08
692.43	20936.09
692.57	20671.61
692.70	20479.69
692.84	20180.10
692.97	19845.40
693.11	20170.74
693.24	19616.03
693.38	19899.23
693.51	19770.51
693.65	19908.60
693.78	19709.65
693.92	19529.43
694.05	19433.47
694.19	19452.19
694.32	19360.91
694.45	19721.35
694.59	19452.19
694.72	19372.61
694.86	19248.57
694.99	18782.80
695.13	18616.62
695.26	18728.97
695.39	18511.30
695.53	18469.17
695.66	18845.99
695.80	18588.53
695.93	18417.68
696.07	18284.26
696.20	17886.37
696.33	18005.74
696.47	17703.81
696.60	17900.42
696.73	18040.85
696.87	18099.36
697.00	18214.05
697.14	17591.47
697.27	17509.55
697.40	17547.00
697.54	17324.65
697.67	17413.59
697.80	17329.33
697.94	17179.53
698.07	17188.89
698.21	17001.65
698.34	16884.62
698.47	16872.92
698.61	16641.21
698.74	16439.92
698.87	16669.30
699.01	16299.49
699.14	16734.83
699.27	16439.92
699.40	16315.87
699.54	16376.73
699.67	16259.70
699.80	16367.37
699.94	16252.68
700.07	15899.26
700.20	15695.63
700.34	15749.46
700.47	15534.14
700.60	16142.67
700.73	15644.14
700.87	15529.45
701.00	15480.30
701.13	15274.34
701.26	15403.07
701.40	15073.05
701.53	15091.77
701.66	15035.60
701.79	14888.15
701.93	14916.23
702.06	14895.17
702.19	14895.17
702.32	14848.36
702.46	14846.02
702.59	14696.22
702.72	14609.62
702.85	14731.33
702.99	14628.35
703.12	14160.24
703.25	14389.61
703.38	14387.27
703.51	14230.46
703.65	14026.83
703.78	13671.07
703.91	13862.99
704.04	13558.72
704.17	13530.64
704.31	13818.52
704.44	13523.62
704.57	13752.99
704.70	13542.34
704.83	13362.12
704.96	13397.23
705.10	13303.60
705.23	13142.11
>>>>>End Processed Spectral Data<<<<<
