SpectraSuite Data File
++++++++++++++++++++++++++++++++++++
Date: Fri Oct 25 10:44:26 EDT 2013
User: price-jones
Dark Spectrum Present: No
Reference Spectrum Present: No
Number of Sampled Component Spectra: 1
Spectrometers: USB2+H05261
Integration Time (usec): 100000 (USB2+H05261)
Spectra Averaged: 1 (USB2+H05261)
Boxcar Smoothing: 0 (USB2+H05261)
Correct for Electrical Dark: No (USB2+H05261)
Strobe/Lamp Enabled: No (USB2+H05261)
Correct for Detector Non-linearity: No (USB2+H05261)
Correct for Stray Light: No (USB2+H05261)
Number of Pixels in Processed Spectrum: 2048
>>>>>Begin Processed Spectral Data<<<<<
365.73	112.35
365.92	112.35
366.12	112.35
366.32	49.15
366.52	0.00
366.72	46.81
366.91	84.26
367.11	0.00
367.31	4.68
367.51	0.00
367.70	102.98
367.90	30.43
368.10	23.41
368.30	0.00
368.49	7.02
368.69	25.75
368.89	63.19
369.09	21.06
369.28	98.30
369.48	32.77
369.68	128.73
369.87	86.60
370.07	112.35
370.27	159.16
370.47	156.82
370.66	388.53
370.86	484.49
371.06	454.06
371.25	526.62
371.45	437.68
371.65	470.45
371.84	418.96
372.04	486.83
372.24	561.73
372.44	498.53
372.63	589.82
372.83	505.56
373.03	545.34
373.22	514.92
373.42	613.22
373.62	552.37
373.81	554.71
374.01	531.30
374.21	585.13
374.40	552.37
374.60	606.20
374.79	578.11
374.99	550.03
375.19	580.45
375.38	585.13
375.58	608.54
375.78	641.31
375.97	596.84
376.17	622.58
376.37	615.56
376.56	601.52
376.76	603.86
376.95	648.33
377.15	695.14
377.35	608.54
377.54	683.44
377.74	657.69
377.93	653.01
378.13	643.65
378.33	662.37
378.52	748.97
378.72	645.99
378.91	697.48
379.11	643.65
379.31	699.82
379.50	641.31
379.70	674.07
379.89	746.63
380.09	720.88
380.28	702.16
380.48	638.97
380.68	653.01
380.87	704.50
381.07	774.72
381.26	723.23
381.46	765.36
381.65	638.97
381.85	667.05
382.04	739.61
382.24	709.18
382.43	669.39
382.63	622.58
382.83	711.52
383.02	727.91
383.22	692.80
383.41	737.27
383.61	812.17
383.80	844.93
384.00	805.14
384.19	856.64
384.39	887.06
384.58	718.54
384.78	791.10
384.97	821.53
385.17	840.25
385.36	847.27
385.56	863.66
385.75	851.96
385.95	802.80
386.14	917.49
386.34	884.72
386.53	786.42
386.72	779.40
386.92	870.68
387.11	954.94
387.31	877.70
387.50	884.72
387.70	964.30
387.89	987.71
388.09	973.66
388.28	971.32
388.48	908.13
388.67	964.30
388.86	985.37
389.06	943.24
389.25	973.66
389.45	1006.43
389.64	1055.58
389.84	1060.26
390.03	1029.84
390.22	1025.15
390.42	1041.54
390.61	1036.86
390.81	1060.26
391.00	1034.52
391.19	1048.56
391.39	1116.44
391.58	1151.54
391.78	1153.88
391.97	1114.10
392.16	1128.14
392.36	1093.03
392.55	1139.84
392.75	1083.67
392.94	1057.92
393.13	1086.01
393.33	1081.33
393.52	1067.28
393.71	1135.16
393.91	1132.82
394.10	1280.27
394.29	1196.01
394.49	1196.01
394.68	1186.65
394.88	1233.46
395.07	1306.02
395.26	1280.27
395.46	1320.06
395.65	1301.34
395.84	1270.91
396.04	1301.34
396.23	1184.31
396.42	1125.80
396.62	1170.27
396.81	1320.06
397.00	1266.23
397.19	1299.00
397.39	1350.49
397.58	1324.74
397.77	1397.30
397.97	1519.01
398.16	1511.99
398.35	1390.28
398.55	1528.37
398.74	1544.75
398.93	1561.14
399.12	1673.48
399.32	1591.56
399.51	1523.69
399.70	1678.16
399.90	1647.74
400.09	1633.69
400.28	1659.44
400.47	1591.56
400.67	1657.10
400.86	1750.72
401.05	1746.04
401.24	1771.79
401.44	1706.25
401.63	1727.32
401.82	1858.39
402.01	1724.97
402.21	1872.43
402.40	1820.94
402.59	1870.09
402.78	1849.02
402.97	1781.15
403.17	1980.09
403.36	1893.49
403.55	1886.47
403.74	1849.02
403.93	1898.17
404.13	2008.18
404.32	1914.56
404.51	1984.77
404.70	2045.63
404.89	2045.63
405.09	2141.59
405.28	2092.44
405.47	2019.88
405.66	2008.18
405.85	2085.42
406.05	2104.14
406.24	2111.16
406.43	2118.18
406.62	2146.27
406.81	2225.85
407.00	2078.40
407.20	2146.27
407.39	2036.27
407.58	2230.53
407.77	2108.82
407.96	2265.64
408.15	2326.49
408.34	2331.17
408.54	2307.77
408.73	2251.60
408.92	2406.07
409.11	2333.51
409.30	2354.58
409.49	2326.49
409.68	2366.28
409.87	2328.83
410.07	2286.70
410.26	2427.14
410.45	2436.50
410.64	2455.22
410.83	2595.65
411.02	2621.40
411.21	2726.72
411.40	2724.38
411.59	2637.78
411.78	2693.96
411.98	2630.76
412.17	2752.47
412.36	2773.53
412.55	2841.41
412.74	2736.09
412.93	2761.83
413.12	2738.43
413.31	2871.84
413.50	2944.39
413.69	2911.63
413.88	2979.50
414.07	2946.73
414.26	3066.10
414.45	3080.14
414.64	3000.57
414.83	3152.70
415.02	3150.36
415.22	3119.93
415.41	3199.51
415.60	3232.28
415.79	3183.13
415.98	3314.20
416.17	3447.61
416.36	3473.36
416.55	3433.57
416.74	3288.45
416.93	3344.63
417.12	3438.25
417.31	3492.08
417.50	3438.25
417.69	3531.87
417.88	3545.91
418.07	3630.17
418.26	3611.45
418.45	3566.98
418.64	3609.11
418.83	3712.09
419.02	3625.49
419.21	3726.13
419.39	3676.98
419.58	3728.47
419.77	3684.00
419.96	3655.92
420.15	3749.54
420.34	3688.68
420.53	3859.54
420.72	3880.61
420.91	3859.54
421.10	4060.83
421.29	3974.23
421.48	3871.25
421.67	3946.14
421.86	3932.10
422.05	3955.51
422.24	3817.41
422.43	3985.93
422.61	3974.23
422.80	4058.49
422.99	4126.36
423.18	4161.47
423.37	4032.74
423.56	4091.26
423.75	3969.55
423.94	4135.73
424.13	3822.09
424.32	3969.55
424.50	4107.64
424.69	4212.96
424.88	4187.22
425.07	4156.79
425.26	4079.55
425.45	3915.72
425.64	3854.86
425.83	4100.62
426.01	4124.02
426.20	4180.20
426.39	4138.07
426.58	4028.06
426.77	4100.62
426.96	4098.28
427.15	4065.51
427.33	4035.08
427.52	4187.22
427.71	4219.99
427.90	4212.96
428.09	4400.21
428.28	4264.46
428.46	4229.35
428.65	4266.80
428.84	4374.46
429.03	4355.74
429.22	4238.71
429.40	4198.92
429.59	4210.62
429.78	4037.42
429.97	3992.95
430.16	4028.06
430.34	4203.60
430.53	4238.71
430.72	4311.27
430.91	4348.72
431.10	4486.81
431.28	4552.34
431.47	4795.76
431.66	4774.69
431.85	4617.88
432.03	4648.30
432.22	4784.06
432.41	4622.56
432.60	4798.10
432.79	4784.06
432.97	4791.08
433.16	4830.87
433.35	4784.06
433.54	4699.80
433.72	4685.75
433.91	4660.01
434.10	4980.66
434.28	4884.70
434.47	4891.72
434.66	4966.62
434.85	5111.73
435.03	5156.20
435.22	5111.73
435.41	5205.35
435.59	5165.56
435.78	5268.55
435.97	5210.03
436.16	5172.58
436.34	5336.42
436.53	5411.32
436.72	5460.47
436.90	5188.97
437.09	5329.40
437.28	5142.16
437.46	5310.68
437.65	5114.07
437.84	5383.23
438.02	5221.74
438.21	5380.89
438.40	5235.78
438.58	5413.66
438.77	5734.31
438.96	5659.42
439.14	5666.44
439.33	5879.43
439.52	5886.45
439.70	5827.93
439.89	5914.53
440.08	5909.85
440.26	5891.13
440.45	5806.87
440.63	5966.03
440.82	6090.07
441.01	6179.01
441.19	6019.86
441.38	6097.10
441.57	6429.45
441.75	6354.55
441.94	6375.62
442.12	6438.81
442.31	6633.08
442.50	6473.92
442.68	6485.62
442.87	6392.00
443.05	6567.54
443.24	6630.74
443.43	6722.02
443.61	6544.14
443.80	6829.68
443.98	6569.88
444.17	6389.66
444.35	6715.00
444.54	6712.66
444.73	6892.88
444.91	6579.25
445.10	6717.34
445.28	6651.80
445.47	6560.52
445.65	6633.08
445.84	6675.21
446.02	6654.14
446.21	6829.68
446.39	6663.51
446.58	6745.42
446.77	7000.54
446.95	6778.19
447.14	6862.45
447.32	6930.33
447.51	6782.87
447.69	6782.87
447.88	6890.54
448.06	6876.49
448.25	6883.52
448.43	6850.75
448.62	6832.02
448.80	6820.32
448.99	6998.20
449.17	7101.19
449.36	7028.63
449.54	7143.32
449.73	7246.30
449.91	7332.90
450.10	7360.98
450.28	7433.54
450.46	7478.01
450.65	7419.50
450.83	7475.67
451.02	7452.27
451.20	7414.82
451.39	7426.52
451.57	7463.97
451.76	7307.15
451.94	7330.56
452.13	7573.97
452.31	7435.88
452.49	7255.66
452.68	7426.52
452.86	7435.88
453.05	7356.30
453.23	7510.78
453.42	7606.74
453.60	7510.78
453.78	7707.38
453.97	7602.06
454.15	7456.95
454.34	7543.55
454.52	7592.70
454.70	7646.53
454.89	7754.19
455.07	7590.36
455.26	7852.50
455.44	7936.76
455.62	8056.12
455.81	7859.52
455.99	8025.70
456.17	7852.50
456.36	8009.31
456.54	8142.72
456.73	8245.71
456.91	8407.20
457.09	8327.63
457.28	8486.78
457.46	8301.88
457.64	8379.12
457.83	8477.42
458.01	8201.24
458.19	8458.70
458.38	8414.23
458.56	8657.64
458.74	8531.25
458.93	8603.81
459.11	8538.27
459.29	8486.78
459.48	8468.06
459.66	8512.53
459.84	8725.52
460.03	8882.33
460.21	8575.72
460.39	8828.50
460.57	8931.48
460.76	9092.98
460.94	8877.65
461.12	9090.64
461.31	9100.00
461.49	8807.44
461.67	8952.55
461.85	9008.72
462.04	9018.08
462.22	9338.74
462.40	9057.87
462.59	9137.45
462.77	9158.52
462.95	9200.65
463.13	9252.14
463.32	9282.56
463.50	9455.76
463.68	9437.04
463.86	9282.56
464.05	9174.90
464.23	9057.87
464.41	9341.08
464.59	9324.69
464.78	9385.55
464.96	9188.94
465.14	9240.44
465.32	9392.57
465.50	9598.54
465.69	9654.71
465.87	9547.05
466.05	9572.79
466.23	9254.48
466.41	9659.39
466.60	9607.90
466.78	9425.34
466.96	9673.43
467.14	9467.47
467.32	9544.70
467.51	9816.21
467.69	9701.52
467.87	9575.13
468.05	9720.24
468.23	9853.66
468.41	9584.49
468.60	9586.83
468.78	9872.38
468.96	9741.31
469.14	9996.43
469.32	9951.96
469.50	9579.81
469.69	10008.13
469.87	10050.26
470.05	10078.35
470.23	9963.66
470.41	10050.26
470.59	10017.49
470.77	10134.52
470.95	10363.89
471.14	10438.79
471.32	10188.35
471.50	10726.68
471.68	10333.47
471.86	10609.65
472.04	10602.63
472.22	10862.43
472.40	10483.26
472.58	10754.76
472.77	10796.89
472.95	10911.58
473.13	11253.30
473.31	10843.70
473.49	11117.54
473.67	10890.51
473.85	10991.16
474.03	11108.18
474.21	11297.77
474.39	11377.34
474.57	11386.71
474.75	11382.03
474.93	11337.56
475.12	11496.71
475.30	11667.57
475.48	11508.41
475.66	11641.82
475.84	11618.42
476.02	11676.93
476.20	11943.75
476.38	11857.15
476.56	12362.71
476.74	11957.80
476.92	12189.51
477.10	12224.62
477.28	12463.35
477.46	12290.15
477.64	12699.75
477.82	12643.57
478.00	12858.90
478.18	12973.59
478.36	13004.02
478.54	12936.14
478.72	12947.84
478.90	13195.94
479.08	13497.87
479.26	13462.76
479.44	13472.12
479.62	13465.10
479.80	13682.77
479.98	13680.43
480.16	14090.02
480.34	13951.93
480.52	14214.07
480.70	14050.24
480.88	14108.75
481.06	14040.87
481.24	14448.13
481.41	14434.08
481.59	14764.10
481.77	14710.27
481.95	14796.87
482.13	14892.83
482.31	15199.44
482.49	15260.29
482.67	15225.18
482.85	15211.14
483.03	15653.50
483.21	15807.98
483.39	15697.97
483.57	15988.20
483.74	15889.90
483.92	16166.08
484.10	16180.12
484.28	16358.00
484.46	16655.25
484.64	16858.88
484.82	16669.30
485.00	16458.65
485.18	16769.94
485.35	16758.24
485.53	16783.98
485.71	16421.20
485.89	16699.72
486.07	16669.30
486.25	17036.76
486.43	17167.83
486.61	17558.70
486.78	17451.03
486.96	17771.69
487.14	18267.88
487.32	18120.43
487.50	18401.29
487.68	18686.84
487.85	18995.79
488.03	18939.62
488.21	19033.24
488.39	18855.36
488.57	19026.21
488.75	19267.29
488.92	19431.13
489.10	20039.67
489.28	19784.55
489.46	20231.59
489.64	19971.79
489.81	20444.58
489.99	20659.91
490.17	20526.50
490.35	21003.97
490.53	20891.62
490.70	21153.76
490.88	20751.19
491.06	21315.26
491.24	21408.88
491.41	21226.32
491.59	21525.91
491.77	21502.50
491.95	21406.54
492.13	21621.87
492.30	22136.79
492.48	22211.68
492.66	22590.85
492.84	22658.73
493.01	22686.81
493.19	22555.74
493.37	22707.88
493.54	22841.29
493.72	23150.24
493.90	23281.31
494.08	23428.76
494.25	23793.89
494.43	23922.62
494.61	23791.55
494.79	24166.03
494.96	24025.60
495.14	24037.30
495.32	24077.09
495.49	24503.07
495.67	24184.76
495.85	24648.18
496.02	24776.91
496.20	25207.57
496.38	25242.68
496.55	25041.39
496.73	25514.18
496.91	25610.14
497.09	25596.10
497.26	25741.21
497.44	25439.28
497.62	25577.37
497.79	25961.22
497.97	25759.94
498.14	26309.96
498.32	26010.37
498.50	26249.11
498.67	26726.58
498.85	26513.59
499.03	26558.06
499.20	27080.00
499.38	26852.97
499.56	26820.20
499.73	27117.45
499.91	27358.52
500.08	27421.72
500.26	27061.27
500.44	27194.68
500.61	27358.52
500.79	26948.93
500.97	27473.21
501.14	27962.38
501.32	27601.94
501.49	27744.71
501.67	27733.01
501.84	27882.80
502.02	28208.14
502.20	28428.15
502.37	28641.14
502.55	28215.16
502.72	28510.07
502.90	28800.29
503.07	28503.04
503.25	28905.62
503.43	28575.60
503.60	28849.44
503.78	28788.59
503.95	28776.89
504.13	29626.50
504.30	29015.62
504.48	29064.77
504.65	29640.54
504.83	29366.70
505.01	29968.22
505.18	29579.69
505.36	30466.75
505.53	30548.67
505.71	30267.81
505.88	30272.49
506.06	29944.81
506.23	30457.39
506.41	30270.15
506.58	30150.78
506.76	30389.52
506.93	30773.36
507.11	30621.23
507.28	31278.92
507.46	30478.46
507.63	30384.83
507.81	30981.67
507.98	31075.29
508.16	31138.49
508.33	31222.75
508.50	31363.18
508.68	31634.68
508.85	31456.80
509.03	31356.16
509.20	31555.10
509.38	32046.62
509.55	32046.62
509.73	31929.59
509.90	32100.45
510.08	32287.69
510.25	32233.86
510.42	32238.54
510.60	32404.72
510.77	32393.01
510.95	32669.20
511.12	32615.37
511.30	32608.34
511.47	33130.28
511.64	33146.67
511.82	33273.06
511.99	32783.88
512.17	33151.35
512.34	32996.87
512.51	33287.10
512.69	33226.24
512.86	33195.82
513.04	33858.19
513.21	33441.57
513.38	33354.97
513.56	33937.77
513.73	33350.29
513.90	34024.37
514.08	33579.67
514.25	33780.95
514.43	33919.04
514.60	34188.21
514.77	33830.10
514.95	34176.50
515.12	34150.76
515.29	34321.62
515.47	34752.27
515.64	34558.01
515.81	34534.60
515.99	34490.13
516.16	34373.11
516.33	33696.69
516.51	34064.16
516.68	34089.90
516.85	33895.64
517.03	34082.88
517.20	34541.63
517.37	34796.74
517.54	34895.05
517.72	35168.89
517.89	34632.91
518.06	34698.44
518.24	34972.28
518.41	34565.03
518.58	35033.14
518.75	35353.79
518.93	35625.29
519.10	35580.82
519.27	35555.08
519.45	35777.43
519.62	35651.04
519.79	35957.65
519.96	36416.40
520.14	36184.68
520.31	35955.31
520.48	36180.00
520.65	36334.48
520.83	36552.15
521.00	36793.22
521.17	36884.50
521.34	36985.15
521.52	36804.92
521.69	37310.48
521.86	36973.44
522.03	36861.10
522.20	37266.01
522.38	37081.11
522.55	37441.55
522.72	37097.49
522.89	37163.03
523.07	37518.79
523.24	37230.90
523.41	37799.65
523.58	37191.11
523.75	38218.61
523.92	38270.10
524.10	37460.27
524.27	38508.83
524.44	38642.24
524.61	38316.91
524.78	38059.45
524.96	38244.35
525.13	38471.39
525.30	38455.00
525.47	38518.20
525.64	38670.33
525.81	38478.41
525.98	38082.86
526.16	38078.18
526.33	37738.80
526.50	38529.90
526.67	38082.86
526.84	38206.90
527.01	38492.45
527.18	38703.10
527.36	38703.10
527.53	38850.55
527.70	39302.28
527.87	39117.37
528.04	39042.48
528.21	39349.09
528.38	39503.56
528.55	39868.69
528.72	39384.19
528.89	39856.98
529.07	39543.35
529.24	39313.98
529.41	39941.24
529.58	39173.55
529.75	39459.09
529.92	39789.11
530.09	39491.86
530.26	39711.87
530.43	40184.66
530.60	40327.43
530.77	40058.27
530.94	40385.94
531.11	40346.15
531.28	40233.81
531.46	40620.00
531.63	40477.22
531.80	40144.87
531.97	40254.87
532.14	40339.13
532.31	40011.46
532.48	40334.45
532.65	40304.02
532.82	40287.64
532.99	40701.92
533.16	40350.84
533.33	40671.49
533.50	40648.08
533.67	40568.51
533.84	40329.77
534.01	40830.65
534.18	40825.96
534.35	41074.06
534.52	41020.23
534.69	41551.53
534.86	40971.08
535.03	41146.62
535.20	42007.94
535.37	41876.86
535.54	41645.15
535.71	41944.74
535.88	41652.17
536.05	41453.23
536.22	41656.85
536.38	41469.61
536.55	41596.00
536.72	41631.11
536.89	41579.62
537.06	41682.60
537.23	41867.50
537.40	42178.79
537.57	41654.51
537.74	41631.11
537.91	42272.42
538.08	41860.48
538.25	41706.01
538.42	41846.44
538.59	42220.92
538.75	41954.10
538.92	42199.86
539.09	42316.89
539.26	42113.26
539.43	41993.89
539.60	42232.63
539.77	42101.56
539.94	42103.90
540.11	42204.54
540.28	42115.60
540.44	42115.60
540.61	42167.09
540.78	42349.65
540.95	42199.86
541.12	42457.32
541.29	42520.51
541.46	42906.70
541.62	42784.99
541.79	42651.58
541.96	42546.26
542.13	42562.64
542.30	42550.94
542.47	42707.76
542.63	42733.50
542.80	43426.30
542.97	42927.77
543.14	43775.04
543.31	43187.56
543.48	43648.65
543.64	43835.89
543.81	43894.41
543.98	43749.29
544.15	43173.52
544.32	43817.17
544.48	43695.46
544.65	43725.89
544.82	43564.39
544.99	43564.39
545.16	43606.52
545.32	43201.61
545.49	44037.18
545.66	43676.74
545.83	44250.17
546.00	44526.35
546.16	43601.84
546.33	44414.01
546.50	43768.02
546.67	44222.08
546.83	43702.48
547.00	44383.58
547.17	43838.23
547.34	44140.16
547.50	44121.44
547.67	43978.67
547.84	44016.11
548.00	44395.28
548.17	44416.35
548.34	45141.91
548.51	45076.38
548.67	45041.27
548.84	44545.08
549.01	44414.01
549.18	44601.25
549.34	44402.30
549.51	44776.79
549.68	44975.73
549.84	44741.68
550.01	44596.57
550.18	45067.02
550.34	44605.93
550.51	44903.18
550.68	44926.58
550.84	44182.29
551.01	44556.78
551.18	44776.79
551.34	44804.88
551.51	45116.17
551.68	44751.04
551.84	45326.81
552.01	44851.69
552.18	44938.29
552.34	44692.53
552.51	45184.04
552.68	44758.06
552.84	45399.37
553.01	45329.16
553.18	45357.24
553.34	45516.40
553.51	44732.32
553.67	45184.04
553.84	45563.21
554.01	45254.26
554.17	45521.08
554.34	45804.28
554.51	44809.56
554.67	45687.26
554.84	45595.98
555.00	45504.70
555.17	45546.82
555.33	45656.83
555.50	45305.75
555.67	45277.66
555.83	45750.45
556.00	45485.97
556.16	45900.25
556.33	45144.25
556.50	45333.84
556.66	45710.66
556.83	45207.45
556.99	46309.84
557.16	46094.51
557.32	46148.34
557.49	46190.47
557.65	46115.58
557.82	45947.06
557.98	45893.22
558.15	45539.80
558.32	45565.55
558.48	45717.68
558.65	45968.12
558.81	45930.67
558.98	45677.90
559.14	45682.58
559.31	46010.25
559.47	46384.74
559.64	46230.26
559.80	46117.92
559.97	46206.86
560.13	45617.04
560.30	45942.38
560.46	45965.78
560.63	46403.46
560.79	46082.81
560.96	46202.18
561.12	45837.05
561.29	46319.20
561.45	45633.42
561.61	45738.75
561.78	46204.52
561.94	45769.18
562.11	46391.76
562.27	45902.59
562.44	46466.66
562.60	46349.63
562.77	46206.86
562.93	46485.38
563.10	46433.89
563.26	45911.95
563.42	46506.44
563.59	46036.00
563.75	46291.12
563.92	46326.22
564.08	46504.10
564.24	46639.86
564.41	46391.76
564.57	46490.06
564.74	46288.77
564.90	46246.65
565.07	46426.87
565.23	46696.03
565.39	46511.13
565.56	46309.84
565.72	46204.52
565.88	46122.60
566.05	46595.38
566.21	46256.01
566.38	46293.46
566.54	46480.70
566.70	46583.68
566.87	46740.50
567.03	46787.31
567.19	47110.30
567.36	46738.16
567.52	46461.97
567.68	46452.61
567.85	46604.75
568.01	46436.23
568.17	46052.38
568.34	46932.42
568.50	46536.87
568.66	46436.23
568.83	46216.22
568.99	46237.28
569.15	46672.62
569.32	46581.34
569.48	46305.16
569.64	47000.30
569.81	46529.85
569.97	46518.15
570.13	46579.00
570.30	46403.46
570.46	46190.47
570.62	45923.65
570.78	46838.80
570.95	46560.28
571.11	47033.07
571.27	46731.14
571.43	46293.46
571.60	46941.78
571.76	46651.56
571.92	46834.12
572.09	46691.35
572.25	46644.54
572.41	46618.79
572.57	46787.31
572.74	46986.25
572.90	46951.15
573.06	46794.33
573.22	46590.70
573.38	46923.06
573.55	46780.29
573.71	46976.89
573.87	46815.40
574.03	46471.34
574.20	46791.99
574.36	47028.38
574.52	46742.84
574.68	46813.05
574.84	46902.00
575.01	46670.28
575.17	46630.49
575.33	46766.24
575.49	46377.72
575.65	46859.87
575.82	46726.46
575.98	46817.74
576.14	46871.57
576.30	46696.03
576.46	46850.50
576.62	46656.24
576.79	46916.04
576.95	46696.03
577.11	46326.22
577.27	46864.55
577.43	46873.91
577.59	46906.68
577.75	46234.94
577.92	46181.11
578.08	46490.06
578.24	46649.22
578.40	46483.04
578.56	46932.42
578.72	46492.40
578.88	46979.23
579.04	46469.00
579.21	46979.23
579.37	46614.11
579.53	46703.05
579.69	46298.14
579.85	47021.36
580.01	46831.78
580.17	46887.95
580.33	47051.79
580.49	47166.48
580.65	47248.39
580.82	46733.48
580.98	46761.56
581.14	46927.74
581.30	47054.13
581.46	46625.81
581.62	46962.85
581.78	46550.91
581.94	46869.23
582.10	46518.15
582.26	46696.03
582.42	46946.47
582.58	46761.56
582.74	46836.46
582.90	46969.87
583.06	47033.07
583.22	46911.36
583.38	46909.02
583.54	46962.85
583.70	46920.72
583.86	46822.42
584.02	46618.79
584.18	46981.57
584.34	47072.85
584.50	46742.84
584.66	46887.95
584.82	46518.15
584.98	46717.09
585.14	47253.08
585.30	46738.16
585.46	46960.51
585.62	46581.34
585.78	46850.50
585.94	46422.19
586.10	46625.81
586.26	46625.81
586.42	47292.86
586.58	47384.15
586.74	46939.44
586.90	46845.82
587.06	46691.35
587.22	47334.99
587.38	47136.05
587.54	46995.62
587.70	46838.80
587.86	46852.84
588.02	46976.89
588.18	46763.90
588.34	46520.49
588.49	46513.47
588.65	45675.55
588.81	46178.77
588.97	46480.70
589.13	45911.95
589.29	46164.73
589.45	46513.47
589.61	46665.60
589.77	46749.86
589.93	46810.71
590.08	46838.80
590.24	46997.96
590.40	47185.20
590.56	47297.55
590.72	47131.37
590.88	46829.44
591.04	46679.64
591.20	47473.09
591.35	47089.24
591.51	47140.73
591.67	47290.52
591.83	46976.89
591.99	47143.07
592.15	46902.00
592.31	46726.46
592.46	46852.84
592.62	47171.16
592.78	46817.74
592.94	47358.40
593.10	46979.23
593.26	47091.58
593.41	47150.09
593.57	46810.71
593.73	46777.95
593.89	47215.63
594.05	46759.22
594.20	46806.03
594.36	47306.91
594.52	46880.93
594.68	47222.65
594.84	46780.29
594.99	47283.50
595.15	46937.10
595.31	47466.06
595.47	46696.03
595.62	47129.03
595.78	47367.76
595.94	47075.19
596.10	46939.44
596.25	47327.97
596.41	47672.03
596.57	47093.92
596.73	47276.48
596.88	46990.94
597.04	47187.54
597.20	47019.02
597.36	47150.09
597.51	47391.17
597.67	47304.57
597.83	47334.99
597.99	47367.76
598.14	47428.62
598.30	46731.14
598.46	46937.10
598.61	47356.06
598.77	46820.08
598.93	46944.12
599.09	47012.00
599.24	47276.48
599.40	47426.28
599.56	47480.11
599.71	47206.26
599.87	47091.58
600.03	46843.48
600.18	47103.28
600.34	47028.38
600.50	46838.80
600.65	47363.08
600.81	47192.22
600.97	47086.90
601.12	47234.35
601.28	47566.71
601.44	46677.30
601.59	46700.71
601.75	46389.42
601.91	46925.40
602.06	46742.84
602.22	46962.85
602.37	46890.29
602.53	47147.75
602.69	47210.95
602.84	47056.47
603.00	46976.89
603.16	47262.44
603.31	47395.85
603.47	47257.76
603.62	46637.51
603.78	46923.06
603.94	46899.65
604.09	47784.38
604.25	47107.96
604.40	46810.71
604.56	46890.29
604.71	46934.76
604.87	46639.86
605.03	46681.98
605.18	47054.13
605.34	46925.40
605.49	46557.94
605.65	46806.03
605.80	46808.37
605.96	47269.46
606.12	47063.49
606.27	47110.30
606.43	46859.87
606.58	46962.85
606.74	46976.89
606.89	46637.51
607.05	46574.32
607.20	46787.31
607.36	46890.29
607.51	46742.84
607.67	46791.99
607.82	46431.55
607.98	46391.76
608.13	46134.30
608.29	46513.47
608.44	46593.04
608.60	46408.14
608.75	46284.09
608.91	46408.14
609.06	46295.80
609.22	46550.91
609.37	46157.70
609.53	46623.47
609.68	46241.96
609.84	46293.46
609.99	46705.39
610.15	46321.54
610.30	46553.26
610.46	45741.09
610.61	45989.19
610.76	46536.87
610.92	46246.65
611.07	46831.78
611.23	46632.83
611.38	46529.85
611.54	45951.74
611.69	46251.33
611.84	46052.38
612.00	46457.29
612.15	46185.79
612.31	46167.07
612.46	46131.96
612.62	46293.46
612.77	46225.58
612.92	46571.98
613.08	46080.47
613.23	46408.14
613.39	46284.09
613.54	45343.20
613.69	46019.61
613.85	46003.23
614.00	45904.93
614.15	45883.86
614.31	46045.36
614.46	46129.62
614.62	46314.52
614.77	45794.92
614.92	46136.64
615.08	45874.50
615.23	45373.63
615.38	45617.04
615.54	45731.73
615.69	45652.15
615.84	45743.43
616.00	45572.57
616.15	45518.74
616.30	45422.78
616.46	44879.77
616.61	44891.48
616.76	45359.58
616.92	44891.48
617.07	44912.54
617.22	45071.70
617.37	45263.62
617.53	45485.97
617.68	45476.61
617.83	45198.09
617.99	45705.98
618.14	45654.49
618.29	45301.07
618.45	44994.46
618.60	45258.94
618.75	45195.74
618.90	44830.62
619.06	45223.83
619.21	45682.58
619.36	45368.94
619.51	45633.42
619.67	45221.49
619.82	45216.81
619.97	45062.33
620.12	44800.19
620.28	44521.67
620.43	44926.58
620.58	44577.84
620.73	44875.09
620.89	45074.04
621.04	44964.03
621.19	44900.84
621.34	45064.67
621.49	45132.55
621.65	44467.84
621.80	44538.05
621.95	44528.69
622.10	44231.44
622.25	44140.16
622.41	44332.09
622.56	44308.68
622.71	44830.62
622.86	44484.22
623.01	44334.43
623.16	44322.72
623.32	44133.14
623.47	44299.32
623.62	44336.77
623.77	44364.85
623.92	44589.55
624.07	44402.30
624.23	44399.96
624.38	44453.79
624.53	43817.17
624.68	44149.53
624.83	44432.73
624.98	44004.41
625.13	44037.18
625.29	43782.06
625.44	43765.68
625.59	43634.61
625.74	43606.52
625.89	43388.85
626.04	43636.95
626.19	44013.77
626.34	43676.74
626.49	44100.37
626.65	43477.79
626.80	43590.14
626.95	43831.21
627.10	43557.37
627.25	43662.69
627.40	43208.63
627.55	43290.55
627.70	43213.31
627.85	43065.86
628.00	42836.48
628.15	43466.09
628.30	43138.41
628.45	43391.19
628.60	43620.56
628.76	43276.51
628.91	43555.03
629.06	42988.62
629.21	43033.09
629.36	43016.71
629.51	43316.29
629.66	42820.10
629.81	42618.81
629.96	43030.75
630.11	43398.21
630.26	43370.13
630.41	43391.19
630.56	43173.52
630.71	43021.39
630.86	42955.85
631.01	42127.30
631.16	42820.10
631.31	42639.88
631.46	42464.34
631.61	43131.39
631.76	42462.00
631.91	42569.66
632.06	42834.14
632.21	42859.89
632.36	42820.10
632.51	42682.01
632.66	42705.41
632.81	42176.45
632.96	41914.31
633.10	42237.31
633.25	42576.69
633.40	42478.38
633.55	42703.07
633.70	42066.45
633.85	42227.95
634.00	42375.40
634.15	42258.37
634.30	42445.62
634.45	42330.93
634.60	42344.97
634.75	42366.04
634.90	41984.53
635.05	42536.90
635.19	42129.64
635.34	42403.49
635.49	42108.58
635.64	41743.45
635.79	41970.49
635.94	42206.88
636.09	42127.30
636.24	41853.46
636.39	41305.77
636.53	41984.53
636.68	41383.01
636.83	41507.06
636.98	41879.21
637.13	41621.75
637.28	41738.77
637.43	42267.73
637.57	42080.49
637.72	41759.84
637.87	41572.60
638.02	41570.25
638.17	41638.13
638.32	41624.09
638.46	41198.11
638.61	41813.67
638.76	41301.09
638.91	41366.63
639.06	41170.02
639.20	41050.66
639.35	41764.52
639.50	41322.16
639.65	42153.05
639.80	41429.82
639.94	41354.93
640.09	41326.84
640.24	41139.60
640.39	40701.92
640.54	40769.79
640.68	40912.56
640.83	40809.58
640.98	40870.43
641.13	41139.60
641.27	41343.22
641.42	40526.38
641.57	40802.56
641.72	40708.94
641.86	40690.21
642.01	40865.75
642.16	40875.12
642.31	40442.12
642.45	40800.22
642.60	40587.23
642.75	40362.54
642.90	40624.68
643.04	41088.10
643.19	40652.76
643.34	40409.35
643.48	40825.96
643.63	40170.61
643.78	40224.45
643.93	40144.87
644.07	40414.03
644.22	40524.04
644.37	40168.27
644.51	40208.06
644.66	40823.62
644.81	40477.22
644.95	40708.94
645.10	40807.24
645.25	40437.44
645.39	40418.71
645.54	40360.20
645.69	40149.55
645.83	39976.35
645.98	40046.57
646.13	40353.18
646.27	40215.08
646.42	40119.12
646.57	40428.07
646.71	40172.96
646.86	39772.72
647.00	40020.82
647.15	39746.98
647.30	39962.31
647.44	39288.23
647.59	40011.46
647.74	39629.95
647.88	40034.86
648.03	39817.19
648.17	39966.99
648.32	39697.83
648.47	39983.37
648.61	39562.08
648.76	39859.32
648.90	39653.36
649.05	39629.95
649.20	39714.21
649.34	39498.88
649.49	39072.90
649.63	39353.77
649.78	39203.97
649.92	39421.64
650.07	39475.48
650.21	38679.69
650.36	39613.57
650.51	39103.33
650.65	39526.97
650.80	39363.13
650.94	39679.10
651.09	39260.15
651.23	39414.62
651.38	39309.30
651.52	39356.11
651.67	38923.11
651.81	39269.51
651.96	38895.02
652.10	38373.08
652.25	38906.73
652.39	38983.96
652.54	38932.47
652.68	39129.08
652.83	39335.04
652.97	39264.83
653.12	38897.36
653.26	38754.59
653.41	39012.05
653.55	38672.67
653.70	38513.52
653.84	38476.07
653.99	38792.04
654.13	38565.01
654.27	38352.02
654.42	38572.03
654.56	38682.03
654.71	38569.69
654.85	38607.14
655.00	38663.31
655.14	38452.66
655.29	38068.81
655.43	38342.66
655.57	38363.72
655.72	38153.07
655.86	38146.05
656.01	37830.08
656.15	37804.33
656.30	37666.24
656.44	37738.80
656.58	37673.26
656.73	37628.79
656.87	37972.85
657.01	38162.43
657.16	37940.08
657.30	37773.91
657.45	38064.13
657.59	37542.19
657.73	36877.48
657.88	37516.45
658.02	38621.18
658.16	37998.60
658.31	38206.90
658.45	37357.29
658.60	37638.15
658.74	38071.15
658.88	37490.70
659.03	37668.58
659.17	37270.69
659.31	37699.01
659.46	37202.82
659.60	37528.15
659.74	37687.31
659.89	37390.06
660.03	37247.29
660.17	37095.15
660.32	37174.73
660.46	37687.31
660.60	36980.46
660.74	37034.30
660.89	37193.45
661.03	37198.13
661.17	37111.53
661.32	36341.50
661.46	36886.84
661.60	37050.68
661.74	36734.71
661.89	36886.84
662.03	36884.50
662.17	36891.52
662.31	36392.99
662.46	36802.58
662.60	36435.12
662.74	36598.96
662.88	36411.71
663.03	36271.28
663.17	36013.82
663.31	36203.41
663.45	35704.87
663.60	36091.06
663.74	36442.14
663.88	36203.41
664.02	35978.72
664.17	35878.07
664.31	35613.59
664.45	35885.09
664.59	36236.17
664.73	35707.21
664.88	35807.86
665.02	35215.70
665.16	35243.79
665.30	35655.72
665.44	35407.62
665.59	35395.92
665.73	35243.79
665.87	35424.01
666.01	35112.72
666.15	35227.40
666.29	35332.73
666.44	34944.20
666.58	35182.93
666.72	34897.39
666.86	35180.59
667.00	34983.99
667.14	34796.74
667.28	34852.92
667.43	34553.33
667.57	34831.85
667.71	34848.24
667.85	34260.76
667.99	35180.59
668.13	34508.86
668.27	34658.65
668.41	34703.12
668.56	34235.02
668.70	34932.50
668.84	34370.77
668.98	34129.69
669.12	33762.23
669.26	33783.29
669.40	33259.01
669.54	33853.51
669.68	33677.97
669.82	33893.30
669.96	33537.54
670.10	33057.73
670.25	34132.03
670.39	33738.82
670.53	33507.11
670.67	33149.01
670.81	33563.28
670.95	33457.96
671.09	33259.01
671.23	33530.51
671.37	33263.69
671.51	33127.94
671.65	32772.18
671.79	32797.93
671.93	32833.04
672.07	33193.48
672.21	33195.82
672.35	32931.34
672.49	32542.81
672.63	32744.09
672.77	32594.30
672.91	32804.95
673.05	32573.24
673.19	32545.15
673.33	32048.96
673.47	32130.87
673.61	31997.46
673.75	31878.10
673.89	31702.56
674.03	31714.26
674.17	31711.92
674.31	31859.37
674.45	32048.96
674.59	31798.52
674.73	31880.44
674.87	31718.94
675.01	31384.24
675.15	31463.82
675.29	31538.72
675.43	31491.91
675.56	31112.74
675.70	31096.36
675.84	31236.79
675.98	30092.27
676.12	30951.24
676.26	30859.96
676.40	30522.93
676.54	30672.72
676.68	30899.75
676.82	30546.33
676.96	30576.76
677.10	30384.83
677.23	29876.94
677.37	30436.33
677.51	29947.15
677.65	29820.77
677.79	29310.53
677.93	29647.57
678.07	29785.66
678.21	29387.77
678.34	29247.33
678.48	29207.55
678.62	29001.58
678.76	28652.84
678.90	28776.89
679.04	28793.27
679.18	29163.08
679.31	28856.46
679.45	28229.20
679.59	28561.56
679.73	28444.53
679.87	28467.94
680.00	28189.41
680.14	28147.28
680.28	28250.27
680.42	28091.11
680.56	28367.29
680.70	28158.99
680.83	27906.21
680.97	28208.14
681.11	27637.05
681.25	27264.90
681.39	27843.01
681.52	27344.48
681.66	27690.88
681.80	27208.73
681.94	27150.21
682.07	27484.91
682.21	27192.34
682.35	26693.81
682.49	27033.19
682.62	26757.00
682.76	26822.54
682.90	26792.11
683.04	26717.22
683.17	26609.55
683.31	26230.38
683.45	26448.05
683.59	26054.84
683.72	25764.62
683.86	25940.16
684.00	25928.45
684.13	26157.83
684.27	25598.44
684.41	25680.36
684.55	25355.02
684.68	25722.49
684.82	25039.05
684.96	25127.99
685.09	24954.79
685.23	25195.87
685.37	25078.84
685.50	25090.54
685.64	24900.96
685.78	24842.45
685.91	24503.07
686.05	24694.99
686.19	24498.39
686.32	24257.31
686.46	23838.36
686.60	23466.21
686.73	23370.25
686.87	23367.91
687.01	23527.06
687.14	23665.16
687.28	23365.57
687.42	23470.89
687.55	23365.57
687.69	23454.51
687.82	23360.89
687.96	23536.43
688.10	22946.61
688.23	23089.38
688.37	22370.84
688.50	22855.33
688.64	22405.95
688.78	22663.41
688.91	22558.08
689.05	22778.09
689.18	22501.91
689.32	22101.68
689.46	22434.03
689.59	22312.33
689.73	22522.98
689.86	22038.48
690.00	22214.02
690.13	22005.72
690.27	21998.70
690.41	21937.84
690.54	21713.15
690.68	21479.10
690.81	21472.07
690.95	21113.97
691.08	21607.83
691.22	21612.51
691.35	21404.20
691.49	21455.69
691.62	21664.00
691.76	20929.07
691.89	20957.16
692.03	20730.12
692.16	20517.14
692.30	20936.09
692.43	20856.51
692.57	20189.46
692.70	20393.09
692.84	20238.61
692.97	20519.48
693.11	20100.52
693.24	20098.18
693.38	19962.43
693.51	19985.83
693.65	20002.22
693.78	19971.79
693.92	20091.16
694.05	19704.97
694.19	19847.74
694.32	19391.34
694.45	19353.89
694.59	19260.27
694.72	19337.51
694.86	19152.60
694.99	19229.84
695.13	19110.47
695.26	18714.92
695.39	18621.30
695.53	19110.47
695.66	19234.52
695.80	18958.34
695.93	18754.71
696.07	18403.63
696.20	18698.54
696.33	18326.39
696.47	18375.55
696.60	18242.14
696.73	18251.50
696.87	18054.89
697.00	18085.32
697.14	18019.78
697.27	17839.56
697.40	17837.22
697.54	17884.03
697.67	17729.56
697.80	17500.19
697.94	17453.37
698.07	17268.47
698.21	17322.30
698.34	17399.54
698.47	16933.78
698.61	17186.55
698.74	16886.97
698.87	17050.80
699.01	16580.36
699.14	16369.71
699.27	16643.55
699.40	16650.57
699.54	16655.25
699.67	16451.63
699.80	16631.85
699.94	16418.86
700.07	16166.08
700.20	16063.10
700.34	16156.72
700.47	16126.29
700.60	16283.11
700.73	16379.07
700.87	16156.72
701.00	15840.75
701.13	15435.83
701.26	15697.97
701.40	15545.84
701.53	15616.05
701.66	15639.46
701.79	15384.34
701.93	15337.53
702.06	15269.66
702.19	14829.63
702.32	15033.26
702.46	15119.86
702.59	15136.24
702.72	15288.38
702.85	15049.64
702.99	14803.89
703.12	14750.06
703.25	14616.65
703.38	14387.27
703.51	14345.14
703.65	14506.64
703.78	14349.82
703.91	14321.74
704.04	14511.32
704.17	14253.86
704.31	14300.67
704.44	14080.66
704.57	14078.32
704.70	13987.04
704.83	14026.83
704.96	13994.06
705.10	14104.07
705.23	14043.21
>>>>>End Processed Spectral Data<<<<<
