SpectraSuite Data File
++++++++++++++++++++++++++++++++++++
Date: Fri Oct 25 10:47:43 EDT 2013
User: price-jones
Dark Spectrum Present: No
Reference Spectrum Present: No
Number of Sampled Component Spectra: 1
Spectrometers: USB2+H05261
Integration Time (usec): 100000 (USB2+H05261)
Spectra Averaged: 1 (USB2+H05261)
Boxcar Smoothing: 0 (USB2+H05261)
Correct for Electrical Dark: No (USB2+H05261)
Strobe/Lamp Enabled: No (USB2+H05261)
Correct for Detector Non-linearity: No (USB2+H05261)
Correct for Stray Light: No (USB2+H05261)
Number of Pixels in Processed Spectrum: 2048
>>>>>Begin Processed Spectral Data<<<<<
365.73	145.11
365.92	145.11
366.12	145.11
366.32	2.34
366.52	18.72
366.72	63.19
366.91	0.00
367.11	70.22
367.31	32.77
367.51	42.13
367.70	0.00
367.90	117.03
368.10	63.19
368.30	25.75
368.49	28.09
368.69	95.96
368.89	98.30
369.09	37.45
369.28	65.54
369.48	56.17
369.68	63.19
369.87	102.98
370.07	126.39
370.27	177.88
370.47	215.33
370.66	383.85
370.86	367.46
371.06	486.83
371.25	475.13
371.45	475.13
371.65	465.77
371.84	475.13
372.04	388.53
372.24	409.59
372.44	519.60
372.63	442.36
372.83	463.43
373.03	479.81
373.22	414.27
373.42	517.26
373.62	514.92
373.81	503.22
374.01	489.17
374.21	568.75
374.40	622.58
374.60	528.96
374.79	592.16
374.99	521.94
375.19	533.64
375.38	540.66
375.58	573.43
375.78	540.66
375.97	580.45
376.17	685.78
376.37	589.82
376.56	543.00
376.76	587.47
376.95	510.24
377.15	547.69
377.35	552.37
377.54	538.32
377.74	540.66
377.93	634.29
378.13	589.82
378.33	613.22
378.52	648.33
378.72	587.47
378.91	575.77
379.11	531.30
379.31	653.01
379.50	662.37
379.70	585.13
379.89	664.71
380.09	674.07
380.28	613.22
380.48	592.16
380.68	631.94
380.87	709.18
381.07	655.35
381.26	657.69
381.46	634.29
381.65	641.31
381.85	718.54
382.04	685.78
382.24	636.63
382.43	676.41
382.63	636.63
382.83	690.46
383.02	725.57
383.22	653.01
383.41	653.01
383.61	653.01
383.80	784.08
384.00	767.70
384.19	755.99
384.39	650.67
384.58	617.90
384.78	690.46
384.97	772.38
385.17	767.70
385.36	746.63
385.56	746.63
385.75	774.72
385.95	784.08
386.14	758.33
386.34	763.01
386.53	795.78
386.72	788.76
386.92	765.36
387.11	833.23
387.31	793.44
387.50	816.85
387.70	798.12
387.89	861.32
388.09	765.36
388.28	840.25
388.48	777.06
388.67	816.85
388.86	793.44
389.06	812.17
389.25	866.00
389.45	856.64
389.64	779.40
389.84	908.13
390.03	950.26
390.22	891.74
390.42	868.34
390.61	896.43
390.81	919.83
391.00	912.81
391.19	978.34
391.39	950.26
391.58	980.68
391.78	910.47
391.97	952.60
392.16	954.94
392.36	961.96
392.55	968.98
392.75	1008.77
392.94	947.92
393.13	922.17
393.33	945.58
393.52	985.37
393.71	1039.20
393.91	1034.52
394.10	1039.20
394.29	1081.33
394.49	1111.75
394.68	1137.50
394.88	1142.18
395.07	1191.33
395.26	1163.25
395.46	1125.80
395.65	1153.88
395.84	1170.27
396.04	1125.80
396.23	1132.82
396.42	1083.67
396.62	1128.14
396.81	1128.14
397.00	1158.57
397.19	1093.03
397.39	1137.50
397.58	1177.29
397.77	1270.91
397.97	1273.25
398.16	1254.53
398.35	1284.95
398.55	1336.45
398.74	1294.32
398.93	1362.19
399.12	1355.17
399.32	1287.29
399.51	1331.76
399.70	1387.94
399.90	1390.28
400.09	1385.60
400.28	1327.08
400.47	1481.56
400.67	1458.15
400.86	1352.83
401.05	1502.62
401.24	1453.47
401.44	1446.45
401.63	1511.99
401.82	1474.54
402.01	1523.69
402.21	1570.50
402.40	1582.20
402.59	1514.33
402.78	1427.73
402.97	1465.18
403.17	1572.84
403.36	1558.80
403.55	1575.18
403.74	1624.33
403.93	1617.31
404.13	1629.01
404.32	1629.01
404.51	1668.80
404.70	1645.40
404.89	1661.78
405.09	1734.34
405.28	1809.23
405.47	1680.50
405.66	1703.91
405.85	1783.49
406.05	1720.29
406.24	1741.36
406.43	1834.98
406.62	1825.62
406.81	1853.70
407.00	1710.93
407.20	1837.32
407.39	1769.44
407.58	1795.19
407.77	1834.98
407.96	1935.62
408.15	1867.75
408.34	1858.39
408.54	1970.73
408.73	1963.71
408.92	2083.08
409.11	2071.37
409.30	1933.28
409.49	2003.50
409.68	1884.13
409.87	2031.58
410.07	2090.10
410.26	2099.46
410.45	2097.12
410.64	2047.97
410.83	2195.42
411.02	2155.63
411.21	2094.78
411.40	2223.51
411.59	2200.10
411.78	2387.35
411.98	2181.38
412.17	2305.43
412.36	2349.90
412.55	2352.24
412.74	2314.79
412.93	2457.56
413.12	2314.79
413.31	2443.52
413.50	2502.03
413.69	2525.44
413.88	2466.92
414.07	2569.91
414.26	2539.48
414.45	2537.14
414.64	2462.24
414.83	2736.09
415.02	2693.96
415.22	2612.04
415.41	2621.40
415.60	2724.38
415.79	2715.02
415.98	2782.90
416.17	2841.41
416.36	2656.51
416.55	2949.08
416.74	2986.52
416.93	2803.96
417.12	2890.56
417.31	2878.86
417.50	2867.16
417.69	3007.59
417.88	3094.19
418.07	3033.33
418.26	2974.82
418.45	2937.37
418.64	3162.06
418.83	3133.98
419.02	3122.27
419.21	3288.45
419.39	3211.22
419.58	3094.19
419.77	3204.19
419.96	3251.00
420.15	3339.94
420.34	3337.60
420.53	3375.05
420.72	3236.96
420.91	3236.96
421.10	3473.36
421.29	3478.04
421.48	3290.79
421.67	3506.12
421.86	3449.95
422.05	3382.07
422.24	3550.59
422.43	3349.31
422.61	3442.93
422.80	3463.99
422.99	3494.42
423.18	3428.88
423.37	3772.94
423.56	3515.48
423.75	3485.06
423.94	3452.29
424.13	3276.75
424.32	3302.50
424.50	3461.65
424.69	3576.34
424.88	3641.87
425.07	3414.84
425.26	3461.65
425.45	3602.08
425.64	3520.17
425.83	3531.87
426.01	3611.45
426.20	3529.53
426.39	3662.94
426.58	3463.99
426.77	3595.06
426.96	3606.77
427.15	3571.66
427.33	3641.87
427.52	3672.30
427.71	3681.66
427.90	3719.11
428.09	3611.45
428.28	3812.73
428.46	3569.32
428.65	3665.28
428.84	3810.39
429.03	3845.50
429.22	3709.75
429.40	3831.46
429.59	3705.07
429.78	3503.78
429.97	3538.89
430.16	3784.65
430.34	3831.46
430.53	3852.52
430.72	3831.46
430.91	3913.38
431.10	3906.35
431.28	3981.25
431.47	3911.04
431.66	4126.36
431.85	4102.96
432.03	3990.61
432.22	4159.13
432.41	4105.30
432.60	4184.88
432.79	4152.11
432.97	4194.24
433.16	4215.30
433.35	4205.94
433.54	4210.62
433.72	4292.54
433.91	4117.00
434.10	4241.05
434.28	4243.39
434.47	4308.93
434.66	4283.18
434.85	4329.99
435.03	4381.48
435.22	4432.97
435.41	4585.11
435.59	4585.11
435.78	4622.56
435.97	4690.43
436.16	4561.70
436.34	4418.93
436.53	4564.04
436.72	4631.92
436.90	4444.68
437.09	4669.37
437.28	4472.76
437.46	4587.45
437.65	4674.05
437.84	4671.71
438.02	4596.81
438.21	4564.04
438.40	4793.42
438.58	4828.53
438.77	4716.18
438.96	4875.34
439.14	4931.51
439.33	4947.89
439.52	4915.12
439.70	5046.20
439.89	5062.58
440.08	5001.72
440.26	5233.44
440.45	4999.38
440.63	5214.71
440.82	5221.74
441.01	5212.37
441.19	5207.69
441.38	5212.37
441.57	5308.34
441.75	5549.41
441.94	5589.20
442.12	5537.71
442.31	5661.76
442.50	5612.60
442.68	5750.70
442.87	5612.60
443.05	5621.97
443.24	5722.61
443.43	5540.05
443.61	5645.37
443.80	5966.03
443.98	5528.35
444.17	5591.54
444.35	5650.05
444.54	5877.09
444.73	5701.54
444.91	5694.52
445.10	5790.49
445.28	5860.70
445.47	5760.06
445.65	5923.90
445.84	5886.45
446.02	5926.24
446.21	5867.72
446.39	5916.87
446.58	5905.17
446.77	6015.18
446.95	5792.83
447.14	5959.00
447.32	5919.21
447.51	5891.13
447.69	5806.87
447.88	5916.87
448.06	5891.13
448.25	5902.83
448.43	5961.34
448.62	6146.25
448.80	5846.66
448.99	5991.77
449.17	6230.51
449.36	6202.42
449.54	6270.30
449.73	6279.66
449.91	6223.48
450.10	6099.44
450.28	6321.79
450.46	6396.68
450.65	6174.33
450.83	6235.19
451.02	6335.83
451.20	6494.99
451.39	6445.84
451.57	6450.52
451.76	6108.80
451.94	6317.11
452.13	6417.75
452.31	6408.39
452.49	6335.83
452.68	6614.35
452.86	6312.42
453.05	6487.96
453.23	6415.41
453.42	6520.73
453.60	6314.77
453.78	6602.65
453.97	6628.40
454.15	6574.56
454.34	6455.20
454.52	6623.72
454.70	6757.13
454.89	6700.95
455.07	6607.33
455.26	6747.76
455.44	6963.09
455.62	6911.60
455.81	6918.62
455.99	6883.52
456.17	6956.07
456.36	6874.15
456.54	7061.40
456.73	7059.06
456.91	7176.08
457.09	7222.89
457.28	7087.14
457.46	7190.13
457.64	7091.82
457.83	7290.77
458.01	7007.56
458.19	7449.93
458.38	7323.54
458.56	7274.38
458.74	7180.76
458.93	7316.51
459.11	7337.58
459.29	7414.82
459.48	7520.14
459.66	7412.48
459.84	7531.84
460.03	7503.76
460.21	7534.18
460.39	7660.57
460.57	7517.80
460.76	7655.89
460.94	7548.23
461.12	7761.22
461.31	7681.64
461.49	7595.04
461.67	7625.47
461.85	7887.61
462.04	7637.17
462.22	8318.26
462.40	7829.09
462.59	7793.98
462.77	7955.48
462.95	7866.54
463.13	8053.78
463.32	7969.52
463.50	8138.04
463.68	7960.16
463.86	8011.65
464.05	8037.40
464.23	7878.24
464.41	8156.77
464.59	7957.82
464.78	8276.13
464.96	8248.05
465.14	8053.78
465.32	8283.16
465.50	8271.45
465.69	8163.79
465.87	8315.92
466.05	8184.85
466.23	8138.04
466.41	8292.52
466.60	8507.85
466.78	8170.81
466.96	8226.98
467.14	8109.96
467.32	8486.78
467.51	8365.07
467.69	8329.97
467.87	8613.17
468.05	8645.94
468.23	8329.97
468.41	8437.63
468.60	8505.51
468.78	8734.88
468.96	8760.63
469.14	8667.00
469.32	8802.75
469.50	8557.00
469.69	8800.41
469.87	8938.51
470.05	8964.25
470.23	8847.22
470.41	8690.41
470.59	8990.00
470.77	8959.57
470.95	9004.04
471.14	8992.34
471.32	8849.57
471.50	8997.02
471.68	9048.51
471.86	9320.01
472.04	9146.81
472.22	9390.23
472.40	9259.16
472.58	9401.93
472.77	9357.46
472.95	9427.68
473.13	9493.21
473.31	9638.33
473.49	9366.82
473.67	9514.28
473.85	9481.51
474.03	9804.50
474.21	9720.24
474.39	9844.29
474.57	9991.75
474.75	10022.17
474.93	10221.12
475.12	9977.70
475.30	10125.16
475.48	10043.24
475.66	10125.16
475.84	10265.59
476.02	10221.12
476.20	10139.20
476.38	10349.85
476.56	10590.92
476.74	10689.23
476.92	10736.04
477.10	10422.41
477.28	10761.78
477.46	10733.70
477.64	10930.30
477.82	11070.73
478.00	11342.24
478.18	11204.14
478.36	11335.21
478.54	11241.59
478.72	11611.40
478.90	11737.79
479.08	11812.68
479.26	11953.12
479.44	11833.75
479.62	11740.13
479.80	12053.76
479.98	11971.84
480.16	12400.16
480.34	12194.19
480.52	12442.29
480.70	12482.08
480.88	12177.81
481.06	12311.22
481.24	12545.27
481.41	12465.69
481.59	13158.49
481.77	13027.42
481.95	12809.75
482.13	12996.99
482.31	13055.51
482.49	13514.25
482.67	13561.06
482.85	13689.79
483.03	13675.75
483.21	13809.16
483.39	13940.23
483.57	14047.90
483.74	13881.72
483.92	14155.56
484.10	14052.58
484.28	14406.00
484.46	14539.41
484.64	14717.29
484.82	14490.26
485.00	14579.20
485.18	14974.75
485.35	14796.87
485.53	14771.12
485.71	14808.57
485.89	15342.21
486.07	14986.45
486.25	15117.52
486.43	15499.03
486.61	15468.60
486.78	15826.70
486.96	15871.17
487.14	16060.76
487.32	16210.55
487.50	16582.70
487.68	16482.05
487.85	16666.95
488.03	16739.51
488.21	17092.93
488.39	16922.07
488.57	16905.69
488.75	17046.12
488.92	17287.20
489.10	17474.44
489.28	17685.09
489.46	17727.22
489.64	17797.43
489.81	18185.96
489.99	18104.04
490.17	18518.32
490.35	18546.40
490.53	18607.26
490.70	18541.72
490.88	18668.11
491.06	18799.18
491.24	18506.62
491.41	18878.76
491.59	19131.54
491.77	19063.66
491.95	19147.92
492.13	19440.49
492.30	19506.02
492.48	19681.56
492.66	19840.72
492.84	19639.44
493.01	20259.68
493.19	20084.14
493.37	20229.25
493.54	20465.64
493.72	20610.76
493.90	20762.89
494.08	21102.27
494.25	20861.19
494.43	20924.39
494.61	21500.16
494.79	21130.36
494.96	21296.53
495.14	21135.04
495.32	21198.23
495.49	21743.58
495.67	21809.11
495.85	21664.00
496.02	21874.65
496.20	22188.28
496.38	22150.83
496.55	22183.60
496.73	22939.59
496.91	22593.19
497.09	22810.86
497.26	22817.88
497.44	22658.73
497.62	22827.24
497.79	23009.81
497.97	23054.28
498.14	23040.23
498.32	23183.01
498.50	23496.64
498.67	23866.44
498.85	23826.65
499.03	24063.05
499.20	24081.77
499.38	24025.60
499.56	23948.36
499.73	24233.91
499.91	24409.45
500.08	24624.78
500.26	24065.39
500.44	24723.08
500.61	24173.05
500.79	24531.15
500.97	24547.54
501.14	25350.34
501.32	25088.20
501.49	24954.79
501.67	25081.18
501.84	25296.51
502.02	25537.59
502.20	25338.64
502.37	25708.44
502.55	25619.50
502.72	25865.26
502.90	25727.17
503.07	25593.76
503.25	25799.73
503.43	25715.47
503.60	26139.10
503.78	26036.12
503.95	25755.26
504.13	26251.45
504.30	26333.37
504.48	26572.10
504.65	26684.45
504.83	26838.92
505.01	27246.18
505.18	26656.36
505.36	27445.12
505.53	26677.43
505.71	27190.00
505.88	27232.13
506.06	27157.24
506.23	26852.97
506.41	27426.40
506.58	27536.40
506.76	27742.37
506.93	27651.09
507.11	27709.60
507.28	27672.15
507.46	27704.92
507.63	27758.75
507.81	27737.69
507.98	27702.58
508.16	27878.12
508.33	28531.13
508.50	28243.24
508.68	28395.38
508.85	28889.23
509.03	28397.72
509.20	28528.79
509.38	28542.83
509.55	29055.41
509.73	28940.72
509.90	28893.91
510.08	29053.07
510.25	28954.77
510.42	29226.27
510.60	29397.13
510.77	29476.71
510.95	29710.76
511.12	29397.13
511.30	29642.88
511.47	29909.71
511.64	29783.32
511.82	29645.23
511.99	29668.63
512.17	30054.82
512.34	29635.86
512.51	29972.90
512.69	30518.25
512.86	30335.68
513.04	30553.35
513.21	30443.35
513.38	30632.93
513.56	30305.26
513.73	30370.79
513.90	30976.99
514.08	30829.54
514.25	31040.18
514.43	30934.86
514.60	30689.10
514.77	30740.60
514.95	31583.19
515.12	30822.51
515.29	31332.75
515.47	31316.37
515.64	31463.82
515.81	31222.75
515.99	31590.21
516.16	31372.54
516.33	31571.49
516.51	31686.17
516.68	31360.84
516.85	31374.88
517.03	31597.23
517.20	31552.76
517.37	32116.83
517.54	32114.49
517.72	32201.09
517.89	32173.00
518.06	32151.94
518.24	32173.00
518.41	32037.25
518.58	32173.00
518.75	32306.41
518.93	32280.67
519.10	32594.30
519.27	33259.01
519.45	32657.49
519.62	33212.20
519.79	32882.19
519.96	32828.35
520.14	32921.98
520.31	32910.27
520.48	33305.82
520.65	33329.23
520.83	33153.69
521.00	33345.61
521.17	33514.13
521.34	33771.59
521.52	33647.54
521.69	33514.13
521.86	33720.10
522.03	34284.17
522.20	33790.31
522.38	34057.14
522.55	33970.54
522.72	33914.36
522.89	33961.17
523.07	34440.98
523.24	34134.37
523.41	34384.81
523.58	34525.24
523.75	34719.51
523.92	34403.53
524.10	34668.02
524.27	34632.91
524.44	34972.28
524.61	34857.60
524.78	34677.38
524.96	35129.10
525.13	34747.59
525.30	35466.14
525.47	35304.64
525.64	34731.21
525.81	34923.13
525.98	35119.74
526.16	34965.26
526.33	35000.37
526.50	35637.00
526.67	34960.58
526.84	35470.82
527.01	35372.52
527.18	35248.47
527.36	35662.74
527.53	35475.50
527.70	36231.49
527.87	35845.30
528.04	36013.82
528.21	36070.00
528.38	35871.05
528.55	36172.98
528.72	35962.33
528.89	36432.78
529.07	36505.34
529.24	36280.64
529.41	36444.48
529.58	36170.64
529.75	36184.68
529.92	36610.66
530.09	36282.98
530.26	36472.57
530.43	36231.49
530.60	36425.76
530.77	36676.19
530.94	37188.77
531.11	36954.72
531.28	36865.78
531.46	37317.50
531.63	37408.78
531.80	36975.78
531.97	37202.82
532.14	37345.59
532.31	36800.24
532.48	36973.44
532.65	37926.04
532.82	36912.59
532.99	37689.65
533.16	37488.36
533.33	37619.43
533.50	37720.07
533.67	37371.33
533.84	37406.44
534.01	38012.64
534.18	37287.07
534.35	37982.21
534.52	37823.06
534.69	37794.97
534.86	38251.38
535.03	37523.47
535.20	38122.65
535.37	38305.21
535.54	38298.19
535.71	38038.39
535.88	38277.12
536.05	38646.93
536.22	38602.46
536.38	38375.42
536.55	38359.04
536.72	38234.99
536.89	38410.53
537.06	38616.50
537.23	38328.61
537.40	38714.80
537.57	38932.47
537.74	38801.40
537.91	38756.93
538.08	38799.06
538.25	38717.14
538.42	38536.92
538.59	38892.68
538.75	38689.06
538.92	38960.56
539.09	38712.46
539.26	38993.32
539.43	39349.09
539.60	39082.27
539.77	39271.85
539.94	38906.73
540.11	39063.54
540.28	39051.84
540.44	39468.45
540.61	39419.30
540.78	39363.13
540.95	39400.58
541.12	39246.10
541.29	39292.91
541.46	39281.21
541.62	39885.07
541.79	40058.27
541.96	39358.45
542.13	39880.39
542.30	39936.56
542.47	39866.34
542.63	39742.30
542.80	39761.02
542.97	39974.01
543.14	40732.34
543.31	40069.97
543.48	40191.68
543.64	40825.96
543.81	40603.61
543.98	40603.61
544.15	40378.92
544.32	40678.51
544.48	40708.94
544.65	40617.66
544.82	40772.13
544.99	40210.40
545.16	40795.54
545.32	40282.96
545.49	41214.49
545.66	40809.58
545.83	40374.24
546.00	41195.77
546.16	41123.21
546.33	40933.63
546.50	40374.24
546.67	40921.93
546.83	40360.20
547.00	40631.70
547.17	41525.78
547.34	41062.36
547.50	41345.56
547.67	41230.88
547.84	41280.03
548.00	41354.93
548.17	41528.13
548.34	41816.01
548.51	41780.90
548.67	41741.11
548.84	41818.35
549.01	41640.47
549.18	40870.43
549.34	41991.55
549.51	41979.85
549.68	41050.66
549.84	41907.29
550.01	41710.69
550.18	41366.63
550.34	41874.52
550.51	41701.32
550.68	41698.98
550.84	41310.46
551.01	41551.53
551.18	41961.12
551.34	41897.93
551.51	41523.44
551.68	41663.88
551.84	42078.15
552.01	41359.61
552.18	42202.20
552.34	42019.64
552.51	42466.68
552.68	42206.88
552.84	42284.12
553.01	42553.28
553.18	42209.22
553.34	42483.06
553.51	41972.83
553.67	41963.46
553.84	42351.99
554.01	42487.74
554.17	42433.91
554.34	42632.86
554.51	43005.00
554.67	42782.65
554.84	42569.66
555.00	42534.56
555.17	42330.93
555.33	42777.97
555.50	42691.37
555.67	42466.68
555.83	42834.14
556.00	43000.32
556.16	42911.38
556.33	42850.53
556.50	42389.44
556.66	43503.54
556.83	42885.64
556.99	43016.71
557.16	43086.92
557.32	42684.35
557.49	42831.80
557.65	42740.52
557.82	42822.44
557.98	42990.96
558.15	43070.54
558.32	43047.13
558.48	43187.56
558.65	43421.62
558.81	43353.74
558.98	43227.35
559.14	43100.97
559.31	43107.99
559.47	43133.73
559.64	43232.04
559.80	43110.33
559.97	43496.52
560.13	43372.47
560.30	42918.40
560.46	43402.89
560.63	43107.99
560.79	43379.49
560.96	43655.67
561.12	43210.97
561.29	43608.86
561.45	43646.31
561.61	43339.70
561.78	43688.44
561.94	43173.52
562.11	43264.80
562.27	42948.83
562.44	43442.68
562.60	43660.35
562.77	43938.88
562.93	43512.90
563.10	43917.81
563.26	43524.60
563.42	43583.12
563.59	43491.83
563.75	43875.68
563.92	43845.26
564.08	43878.02
564.24	43655.67
564.41	43739.93
564.57	43861.64
564.74	43718.87
564.90	43594.82
565.07	44032.50
565.23	43676.74
565.39	43686.10
565.56	44072.29
565.72	43899.09
565.88	43503.54
566.05	43735.25
566.21	43627.59
566.38	43704.82
566.54	44109.74
566.70	43922.49
566.87	44130.80
567.03	43964.62
567.19	44322.72
567.36	44201.02
567.52	43924.83
567.68	43995.05
567.85	43988.03
568.01	44137.82
568.17	44093.35
568.34	44498.26
568.50	43798.44
568.66	43871.00
568.83	44144.84
568.99	43775.04
569.15	43739.93
569.32	44093.35
569.48	44353.15
569.64	44369.54
569.81	44121.44
569.97	43889.73
570.13	44158.89
570.30	44079.31
570.46	43735.25
570.62	43901.43
570.78	44016.11
570.95	44065.27
571.11	44465.50
571.27	43866.32
571.43	44390.60
571.60	44299.32
571.76	43812.49
571.92	44271.23
572.09	43938.88
572.25	43871.00
572.41	43969.30
572.57	44168.25
572.74	44765.09
572.90	44570.82
573.06	44306.34
573.22	44458.48
573.38	44474.86
573.55	44563.80
573.71	44069.95
573.87	44247.83
574.03	44346.13
574.20	44196.34
574.36	44170.59
574.52	44605.93
574.68	44636.36
574.84	44435.07
575.01	44105.06
575.17	44048.88
575.33	44226.76
575.49	44608.27
575.65	44542.74
575.82	44816.58
575.98	44516.99
576.14	44858.71
576.30	44308.68
576.46	44186.97
576.62	43906.11
576.79	43583.12
576.95	44034.84
577.11	44350.81
577.27	44414.01
577.43	44673.81
577.59	44406.98
577.75	44264.21
577.92	44144.84
578.08	44449.11
578.24	43831.21
578.40	44294.64
578.56	44308.68
578.72	44423.37
578.88	44449.11
579.04	44596.57
579.21	44608.27
579.37	44493.58
579.53	44563.80
579.69	44172.93
579.85	44556.78
580.01	44514.65
580.17	44051.22
580.33	44797.85
580.49	44666.78
580.65	44444.43
580.82	44790.83
580.98	44634.02
581.14	44519.33
581.30	44449.11
581.46	44406.98
581.62	44706.57
581.78	44329.75
581.94	44631.68
582.10	44416.35
582.26	44638.70
582.42	44650.40
582.58	44502.95
582.74	44641.04
582.90	44540.39
583.06	44463.16
583.22	45272.98
583.38	44701.89
583.54	44509.97
583.70	44439.75
583.86	44428.05
584.02	43955.26
584.18	44797.85
584.34	44357.83
584.50	44760.40
584.66	44760.40
584.82	44414.01
584.98	44971.05
585.14	44186.97
585.30	44130.80
585.46	44135.48
585.62	44348.47
585.78	44203.36
585.94	44170.59
586.10	44615.29
586.26	44442.09
586.42	44659.76
586.58	44594.23
586.74	44540.39
586.90	44488.90
587.06	44601.25
587.22	44638.70
587.38	44535.71
587.54	44872.75
587.70	44961.69
587.86	44753.38
588.02	44952.33
588.18	44804.88
588.34	44973.39
588.49	44264.21
588.65	44346.13
588.81	44538.05
588.97	43997.39
589.13	44615.29
589.29	44898.50
589.45	44797.85
589.61	44758.06
589.77	44964.03
589.93	44935.95
590.08	44999.14
590.24	44877.43
590.40	44935.95
590.56	45006.16
590.72	44896.16
590.88	44449.11
591.04	44346.13
591.20	44968.71
591.35	44896.16
591.51	45034.25
591.67	44844.66
591.83	45244.90
591.99	44919.56
592.15	44446.77
592.31	44505.29
592.46	44741.68
592.62	44882.11
592.78	44818.92
592.94	44900.84
593.10	44418.69
593.26	45116.17
593.41	44488.90
593.57	44631.68
593.73	44980.42
593.89	44863.39
594.05	45160.64
594.20	44678.49
594.36	44964.03
594.52	44884.45
594.68	44924.24
594.84	44786.15
594.99	45116.17
595.15	44741.68
595.31	45008.50
595.47	44671.46
595.62	44863.39
595.78	44861.05
595.94	45137.23
596.10	45188.72
596.25	45298.73
596.41	44900.84
596.57	45041.27
596.73	45272.98
596.88	44879.77
597.04	45029.57
597.20	44959.35
597.36	45195.74
597.51	44870.41
597.67	45336.18
597.83	45059.99
597.99	45123.19
598.14	45591.30
598.30	44753.38
598.46	44809.56
598.61	45071.70
598.77	44662.10
598.93	44624.65
599.09	44547.42
599.24	45558.53
599.40	44928.92
599.56	45319.79
599.71	44800.19
599.87	45001.48
600.03	45118.51
600.18	44851.69
600.34	45228.51
600.50	45050.63
600.65	45247.24
600.81	45076.38
600.97	45113.83
601.12	45497.67
601.28	45074.04
601.44	44811.90
601.59	44619.97
601.75	44961.69
601.91	45134.89
602.06	44959.35
602.22	45221.49
602.37	45331.50
602.53	44940.63
602.69	45076.38
602.84	45120.85
603.00	45418.10
603.16	45043.61
603.31	44446.77
603.47	44992.12
603.62	44839.98
603.78	44629.34
603.94	44830.62
604.09	45411.07
604.25	45155.96
604.40	44767.43
604.56	45134.89
604.71	44800.19
604.87	45090.42
605.03	45450.86
605.18	45102.12
605.34	44947.65
605.49	44954.67
605.65	45291.71
605.80	45092.76
605.96	44612.95
606.12	45109.14
606.27	45310.43
606.43	44746.36
606.58	45411.07
606.74	44732.32
606.89	44814.24
607.05	45193.40
607.20	44715.93
607.36	44858.71
607.51	45272.98
607.67	45205.11
607.82	44748.70
607.98	44779.13
608.13	44392.94
608.29	44467.84
608.44	44357.83
608.60	43997.39
608.75	44329.75
608.91	44500.61
609.06	44683.17
609.22	44919.56
609.37	44570.82
609.53	44612.95
609.68	44472.52
609.84	44807.22
609.99	44652.74
610.15	44650.40
610.30	44336.77
610.46	44191.65
610.61	44069.95
610.76	44222.08
610.92	44692.53
611.07	44547.42
611.23	44203.36
611.38	44521.67
611.54	43952.92
611.69	44102.71
611.84	44247.83
612.00	44437.41
612.15	44409.32
612.31	44095.69
612.46	44011.43
612.62	44254.85
612.77	44217.40
612.92	44584.86
613.08	44128.46
613.23	43690.78
613.39	44360.17
613.54	43473.11
613.69	44023.14
613.85	44116.76
614.00	44500.61
614.15	44165.91
614.31	43964.62
614.46	44203.36
614.62	44240.81
614.77	44392.94
614.92	44067.61
615.08	44388.26
615.23	44025.48
615.38	44053.56
615.54	43728.23
615.69	43578.43
615.84	43676.74
616.00	43908.45
616.15	43938.88
616.30	43873.34
616.46	43636.95
616.61	43831.21
616.76	43847.60
616.92	43543.33
617.07	43253.10
617.22	43508.22
617.37	43447.36
617.53	43545.67
617.68	43861.64
617.83	44102.71
617.99	43840.57
618.14	43700.14
618.29	43271.82
618.45	43592.48
618.60	43264.80
618.75	43887.39
618.90	43440.34
619.06	43386.51
619.21	43636.95
619.36	43629.93
619.51	43386.51
619.67	43306.93
619.82	43660.35
619.97	43445.02
620.12	43201.61
620.28	42862.23
620.43	43140.75
620.58	43323.32
620.73	43119.69
620.89	43023.73
621.04	43201.61
621.19	42880.95
621.34	42986.28
621.49	43208.63
621.65	43063.52
621.80	42969.90
621.95	42859.89
622.10	42983.94
622.25	42646.90
622.41	42747.54
622.56	42827.12
622.71	43351.40
622.86	42616.47
623.01	43175.86
623.16	42951.17
623.32	42623.50
623.47	43196.93
623.62	42920.74
623.77	42611.79
623.92	42747.54
624.07	42253.69
624.23	42377.74
624.38	42651.58
624.53	42473.70
624.68	42511.15
624.83	42511.15
624.98	42440.93
625.13	42363.70
625.29	41961.12
625.44	42391.78
625.59	42419.87
625.74	42160.07
625.89	41963.46
626.04	41965.81
626.19	41998.57
626.34	42326.25
626.49	42146.03
626.65	42040.70
626.80	42007.94
626.95	42218.58
627.10	42288.80
627.25	41972.83
627.40	41659.20
627.55	42017.30
627.70	41750.48
627.85	42054.75
628.00	41404.08
628.15	42043.04
628.30	41909.63
628.45	42099.22
628.60	41881.55
628.76	41659.20
628.91	41804.31
629.06	41874.52
629.21	41663.88
629.36	41310.46
629.51	41053.00
629.66	41984.53
629.81	41474.29
629.96	41727.07
630.11	42038.36
630.26	41766.86
630.41	41736.43
630.56	41572.60
630.71	41542.17
630.86	41588.98
631.01	41467.27
631.16	41464.93
631.31	41158.32
631.46	40737.02
631.61	41287.05
631.76	41322.16
631.91	41649.83
632.06	41338.54
632.21	41661.54
632.36	41048.32
632.51	40889.16
632.66	41301.09
632.81	40816.60
632.96	40910.22
633.10	41123.21
633.25	40889.16
633.40	40734.68
633.55	40830.65
633.70	41067.04
633.85	41034.27
634.00	41029.59
634.15	40505.31
634.30	40718.30
634.45	40722.98
634.60	40800.22
634.75	40924.27
634.90	40648.08
635.05	41067.04
635.19	41043.63
635.34	40652.76
635.49	40975.76
635.64	40556.80
635.79	40240.83
635.94	40437.44
636.09	40282.96
636.24	40437.44
636.39	40196.36
636.53	40364.88
636.68	40676.17
636.83	40313.39
636.98	40713.62
637.13	40086.36
637.28	40467.86
637.43	40191.68
637.57	40243.17
637.72	40596.59
637.87	40547.44
638.02	40617.66
638.17	40297.00
638.32	39744.64
638.46	39906.13
638.61	40311.05
638.76	39948.26
638.91	40425.73
639.06	39948.26
639.20	40062.95
639.35	40289.98
639.50	40020.82
639.65	40215.08
639.80	39948.26
639.94	39908.47
640.09	39868.69
640.24	39810.17
640.39	39573.78
640.54	40112.10
640.68	39477.82
640.83	39723.57
640.98	39679.10
641.13	39164.18
641.27	40025.50
641.42	39241.42
641.57	40095.72
641.72	39742.30
641.86	39182.91
642.01	39543.35
642.16	39321.00
642.31	39192.27
642.45	39363.13
642.60	39161.84
642.75	38623.52
642.90	39349.09
643.04	39487.18
643.19	39400.58
643.34	38934.81
643.48	39220.36
643.63	39201.63
643.78	38888.00
643.93	38703.10
644.07	39061.20
644.22	38714.80
644.37	38890.34
644.51	38810.76
644.66	39096.31
644.81	39068.22
644.95	39428.66
645.10	39084.61
645.25	39122.05
645.39	39339.72
645.54	39290.57
645.69	39007.37
645.83	38646.93
645.98	38902.04
646.13	39335.04
646.27	38981.62
646.42	38696.08
646.57	38403.51
646.71	38827.15
646.86	38576.71
647.00	38703.10
647.15	38705.44
647.30	38967.58
647.44	38419.89
647.59	38646.93
647.74	38408.19
647.88	38064.13
648.03	38281.80
648.17	38794.38
648.32	38415.21
648.47	38387.13
648.61	38181.16
648.76	38801.40
648.90	38513.52
649.05	38504.15
649.20	38658.63
649.34	38543.94
649.49	38337.98
649.63	38305.21
649.78	38300.53
649.92	38160.09
650.07	38623.52
650.21	37823.06
650.36	38368.40
650.51	38242.01
650.65	38810.76
650.80	38312.23
650.94	38440.96
651.09	38087.54
651.23	38263.08
651.38	38345.00
651.52	38274.78
651.67	37977.53
651.81	38185.84
651.96	37682.62
652.10	38110.94
652.25	37233.24
652.39	37411.12
652.54	37684.97
652.68	38089.88
652.83	37699.01
652.97	38061.79
653.12	37345.59
653.26	37764.54
653.41	37673.26
653.55	37851.14
653.70	37584.32
653.84	37413.46
653.99	37830.08
654.13	37881.57
654.27	37748.16
654.42	37394.74
654.56	37605.39
654.71	37383.04
654.85	37776.25
655.00	37361.97
655.14	37502.40
655.29	36751.09
655.43	37301.12
655.57	36982.80
655.72	36856.42
655.86	37090.47
656.01	37006.21
656.15	36613.00
656.30	37361.97
656.44	36982.80
656.58	37031.96
656.73	36713.64
656.87	36650.45
657.01	36683.22
657.16	37060.04
657.30	36655.13
657.45	36708.96
657.59	36769.82
657.73	36711.30
657.88	36844.71
658.02	36339.16
658.16	36706.62
658.31	36917.27
658.45	36896.20
658.60	36713.64
658.74	36636.41
658.88	36605.98
659.03	36081.70
659.17	35765.73
659.31	35955.31
659.46	35913.18
659.60	36538.10
659.74	36034.89
659.89	36154.26
660.03	36182.34
660.17	36137.87
660.32	36563.85
660.46	36561.51
660.60	36072.34
660.74	36196.38
660.89	36245.54
661.03	35632.32
661.17	35545.72
661.32	35744.66
661.46	35501.25
661.60	35318.68
661.74	35508.27
661.89	35676.79
662.03	35541.03
662.17	35526.99
662.31	35023.78
662.46	35578.48
662.60	35491.88
662.74	35452.09
662.88	35707.21
663.03	35779.77
663.17	35463.80
663.31	34983.99
663.45	35145.48
663.60	34745.25
663.74	35278.89
663.88	35204.00
664.02	34752.27
664.17	35302.30
664.31	34487.79
664.45	34799.08
664.59	34890.37
664.73	34529.92
664.88	34785.04
665.02	34459.71
665.16	34312.25
665.30	34352.04
665.44	34162.46
665.59	34380.13
665.73	34235.02
665.87	34232.68
666.01	34068.84
666.15	34424.60
666.29	34244.38
666.44	34328.64
666.58	34181.18
666.72	34139.05
666.86	34073.52
667.00	34464.39
667.14	34066.50
667.28	33663.93
667.43	33242.63
667.57	33713.08
667.71	33411.15
667.85	33254.33
667.99	33757.55
668.13	33385.40
668.27	32987.51
668.41	33684.99
668.56	32905.59
668.70	33371.36
668.84	33385.40
668.98	33230.93
669.12	32982.83
669.26	33467.32
669.40	32975.81
669.54	32980.49
669.68	32907.93
669.82	32587.28
669.96	32701.96
670.10	32299.39
670.25	32952.40
670.39	32488.98
670.53	32708.99
670.67	32577.92
670.81	32570.90
670.95	32393.01
671.09	32535.79
671.23	32346.20
671.37	32563.87
671.51	32362.59
671.65	32203.43
671.79	31941.29
671.93	32320.46
672.07	32006.83
672.21	32084.06
672.35	31850.01
672.49	31889.80
672.63	32196.41
672.77	31878.10
672.91	31833.63
673.05	31517.65
673.19	30934.86
673.33	31391.26
673.47	31304.67
673.61	31330.41
673.75	31037.84
673.89	31199.34
674.03	30735.92
674.17	30876.35
674.31	31166.57
674.45	30876.35
674.59	31150.19
674.73	30859.96
674.87	30764.00
675.01	31009.76
675.15	30951.24
675.29	30738.26
675.43	30258.45
675.56	30621.23
675.70	30225.68
675.84	30249.08
675.98	29713.10
676.12	29848.85
676.26	29867.58
676.40	29778.64
676.54	29661.61
676.68	30071.20
676.82	29460.32
676.96	29247.33
677.10	29467.34
677.23	29261.38
677.37	29282.44
677.51	29172.44
677.65	29001.58
677.79	28870.51
677.93	28879.87
678.07	28996.90
678.21	28397.72
678.34	28692.63
678.48	28418.78
678.62	28678.58
678.76	28535.81
678.90	28243.24
679.04	28250.27
679.18	28477.30
679.31	28088.77
679.45	27702.58
679.59	28065.36
679.73	27508.32
679.87	28079.41
680.00	27789.18
680.14	27571.51
680.28	27615.98
680.42	27269.58
680.56	27318.73
680.70	27096.38
680.83	27190.00
680.97	27000.42
681.11	26792.11
681.25	26670.40
681.39	27410.01
681.52	26862.33
681.66	26998.08
681.80	26426.99
681.94	26693.81
682.07	26366.13
682.21	26494.86
682.35	26155.49
682.49	26249.11
682.62	26272.51
682.76	26040.80
682.90	25937.82
683.04	26066.55
683.17	25724.83
683.31	25717.81
683.45	25921.43
683.59	25783.34
683.72	25336.30
683.86	25296.51
684.00	25127.99
684.13	25336.30
684.27	25160.76
684.41	24987.56
684.55	24992.24
684.68	24954.79
684.82	24652.86
684.96	24584.99
685.09	24716.06
685.23	24177.73
685.37	24790.95
685.50	24229.23
685.64	24423.49
685.78	24156.67
685.91	24311.14
686.05	24245.61
686.19	23482.59
686.32	23985.81
686.46	23672.18
686.60	23569.19
686.73	23580.90
686.87	23452.17
687.01	23349.18
687.14	22920.87
687.28	23122.15
687.42	23197.05
687.55	22684.47
687.69	23005.13
687.82	22874.06
687.96	23068.32
688.10	22881.08
688.23	22572.13
688.37	22771.07
688.50	22455.10
688.64	22356.80
688.78	22611.92
688.91	22192.96
689.05	22373.18
689.18	21886.35
689.32	21539.95
689.46	21717.83
689.59	22033.80
689.73	21921.46
689.86	21507.18
690.00	21448.67
690.13	21720.17
690.27	21507.18
690.41	21270.79
690.54	21149.08
690.68	20767.57
690.81	20900.98
690.95	20980.56
691.08	20828.43
691.22	20755.87
691.35	20596.71
691.49	20952.48
691.62	21053.12
691.76	20690.34
691.89	20662.25
692.03	20510.11
692.16	20238.61
692.30	20133.29
692.43	20128.61
692.57	20259.68
692.70	20077.12
692.84	20018.60
692.97	19824.34
693.11	19735.40
693.24	19899.23
693.38	19522.41
693.51	19386.66
693.65	19522.41
693.78	19440.49
693.92	19538.79
694.05	19365.59
694.19	19538.79
694.32	19293.04
694.45	19161.97
694.59	18782.80
694.72	18810.89
694.86	18778.12
694.99	18574.49
695.13	18815.57
695.26	18436.40
695.39	18265.54
695.53	18293.63
695.66	18401.29
695.80	18391.93
695.93	18160.22
696.07	17935.53
696.20	18356.82
696.33	18036.17
696.47	17790.41
696.60	17947.23
696.73	17736.58
696.87	17589.13
697.00	17933.18
697.14	17465.08
697.27	17645.30
697.40	17598.49
697.54	17270.81
697.67	17013.35
697.80	17165.49
697.94	17039.10
698.07	17177.19
698.21	16692.70
698.34	17249.75
698.47	16872.92
698.61	16791.00
698.74	16388.43
698.87	16460.99
699.01	16383.75
699.14	16126.29
699.27	16229.27
699.40	16299.49
699.54	15976.50
699.67	16072.46
699.80	16233.96
699.94	15936.71
700.07	16194.17
700.20	15906.28
700.34	15634.78
700.47	15901.60
700.60	16177.78
700.73	15712.02
700.87	15492.01
701.00	15403.07
701.13	15396.04
701.26	15552.86
701.40	15414.77
701.53	15103.48
701.66	14958.36
701.79	14970.07
701.93	14820.27
702.06	14647.07
702.19	14616.65
702.32	14939.64
702.46	14618.99
702.59	14586.22
702.72	14733.67
702.85	14441.11
702.99	14555.79
703.12	14843.68
703.25	14518.34
703.38	14445.79
703.51	14394.29
703.65	14406.00
703.78	14368.55
703.91	14258.54
704.04	14064.28
704.17	13825.54
704.31	14012.79
704.44	13774.05
704.57	13509.57
704.70	13570.43
704.83	13589.15
704.96	13912.14
705.10	13862.99
705.23	13958.96
>>>>>End Processed Spectral Data<<<<<
