SpectraSuite Data File
++++++++++++++++++++++++++++++++++++
Date: Fri Oct 25 11:33:56 EDT 2013
User: price-jones
Dark Spectrum Present: No
Reference Spectrum Present: No
Number of Sampled Component Spectra: 1
Spectrometers: USB2+H05261
Integration Time (usec): 100000 (USB2+H05261)
Spectra Averaged: 1 (USB2+H05261)
Boxcar Smoothing: 0 (USB2+H05261)
Correct for Electrical Dark: No (USB2+H05261)
Strobe/Lamp Enabled: No (USB2+H05261)
Correct for Detector Non-linearity: No (USB2+H05261)
Correct for Stray Light: No (USB2+H05261)
Number of Pixels in Processed Spectrum: 2048
>>>>>Begin Processed Spectral Data<<<<<
365.73	276.18
365.92	276.18
366.12	276.18
366.32	227.03
366.52	276.18
366.72	194.26
366.91	236.39
367.11	194.26
367.31	236.39
367.51	142.77
367.70	189.58
367.90	149.79
368.10	140.43
368.30	161.50
368.49	180.22
368.69	154.48
368.89	220.01
369.09	166.18
369.28	177.88
369.48	215.33
369.68	166.18
369.87	252.78
370.07	255.12
370.27	278.52
370.47	397.89
370.66	503.22
370.86	456.40
371.06	564.07
371.25	566.41
371.45	533.64
371.65	510.24
371.84	526.62
372.04	505.56
372.24	620.24
372.44	533.64
372.63	601.52
372.83	564.07
373.03	566.41
373.22	648.33
373.42	545.34
373.62	601.52
373.81	669.39
374.01	573.43
374.21	634.29
374.40	636.63
374.60	685.78
374.79	608.54
374.99	653.01
375.19	692.80
375.38	638.97
375.58	678.76
375.78	688.12
375.97	690.46
376.17	688.12
376.37	681.10
376.56	636.63
376.76	713.86
376.95	720.88
377.15	746.63
377.35	706.84
377.54	641.31
377.74	671.73
377.93	669.39
378.13	678.76
378.33	725.57
378.52	653.01
378.72	723.23
378.91	627.26
379.11	739.61
379.31	671.73
379.50	692.80
379.70	739.61
379.89	814.51
380.09	718.54
380.28	692.80
380.48	734.93
380.68	753.65
380.87	671.73
381.07	706.84
381.26	746.63
381.46	788.76
381.65	795.78
381.85	720.88
382.04	779.40
382.24	716.20
382.43	823.87
382.63	751.31
382.83	734.93
383.02	856.64
383.22	861.32
383.41	763.01
383.61	779.40
383.80	826.21
384.00	758.33
384.19	884.72
384.39	875.36
384.58	812.17
384.78	823.87
384.97	847.27
385.17	812.17
385.36	833.23
385.56	833.23
385.75	847.27
385.95	826.21
386.14	910.47
386.34	833.23
386.53	849.61
386.72	875.36
386.92	830.89
387.11	898.77
387.31	922.17
387.50	966.64
387.70	924.51
387.89	919.83
388.09	798.12
388.28	926.85
388.48	945.58
388.67	917.49
388.86	931.53
389.06	929.19
389.25	891.74
389.45	968.98
389.64	901.11
389.84	912.81
390.03	973.66
390.22	976.00
390.42	973.66
390.61	926.85
390.81	905.79
391.00	971.32
391.19	1034.52
391.39	1057.92
391.58	1008.77
391.78	943.24
391.97	1081.33
392.16	1011.11
392.36	1062.60
392.55	1074.31
392.75	1203.04
392.94	1083.67
393.13	1093.03
393.33	1020.47
393.52	1153.88
393.71	1158.57
393.91	1095.37
394.10	1048.56
394.29	1118.78
394.49	1102.39
394.68	1097.71
394.88	1034.52
395.07	1158.57
395.26	1198.35
395.46	1151.54
395.65	1212.40
395.84	1193.67
396.04	1205.38
396.23	1203.04
396.42	1198.35
396.62	1188.99
396.81	1268.57
397.00	1303.68
397.19	1186.65
397.39	1130.48
397.58	1299.00
397.77	1177.29
397.97	1259.21
398.16	1317.72
398.35	1294.32
398.55	1303.68
398.74	1275.59
398.93	1273.25
399.12	1233.46
399.32	1329.42
399.51	1242.82
399.70	1380.92
399.90	1294.32
400.09	1411.34
400.28	1369.21
400.47	1322.40
400.67	1390.28
400.86	1345.81
401.05	1432.41
401.24	1490.92
401.44	1383.26
401.63	1519.01
401.82	1437.09
402.01	1465.18
402.21	1401.98
402.40	1542.41
402.59	1474.54
402.78	1486.24
402.97	1500.28
403.17	1469.86
403.36	1448.79
403.55	1556.46
403.74	1614.97
403.93	1675.82
404.13	1540.07
404.32	1575.18
404.51	1561.14
404.70	1657.10
404.89	1652.42
405.09	1675.82
405.28	1722.63
405.47	1645.40
405.66	1657.10
405.85	1657.10
406.05	1706.25
406.24	1696.89
406.43	1671.14
406.62	1771.79
406.81	1806.89
407.00	1741.36
407.20	1739.02
407.39	1832.64
407.58	1842.00
407.77	1900.52
407.96	1867.75
408.15	1816.26
408.34	1818.60
408.54	1867.75
408.73	1813.92
408.92	1933.28
409.11	1912.22
409.30	1923.92
409.49	1846.68
409.68	1933.28
409.87	1975.41
410.07	1998.82
410.26	2090.10
410.45	2071.37
410.64	2071.37
410.83	2062.01
411.02	2150.95
411.21	2090.10
411.40	2153.29
411.59	2162.66
411.78	2207.13
411.98	2104.14
412.17	2349.90
412.36	2111.16
412.55	2209.47
412.74	2356.92
412.93	2354.58
413.12	2267.98
413.31	2441.18
413.50	2277.34
413.69	2373.30
413.88	2502.03
414.07	2406.07
414.26	2555.86
414.45	2480.97
414.64	2548.84
414.83	2619.06
415.02	2520.76
415.22	2633.10
415.41	2623.74
415.60	2614.38
415.79	2574.59
415.98	2757.15
416.17	2572.25
416.36	2700.98
416.55	2740.77
416.74	2780.56
416.93	2785.24
417.12	2743.11
417.31	2745.45
417.50	2895.24
417.69	3054.40
417.88	2937.37
418.07	2897.58
418.26	2869.50
418.45	2923.33
418.64	3192.49
418.83	3012.27
419.02	3042.70
419.21	3030.99
419.39	3009.93
419.58	3115.25
419.77	2986.52
419.96	3162.06
420.15	3183.13
420.34	3208.87
420.53	3176.11
420.72	3145.68
420.91	3204.19
421.10	3150.36
421.29	3241.64
421.48	3307.18
421.67	3281.43
421.86	3126.96
422.05	3304.84
422.24	3318.88
422.43	3314.20
422.61	3293.13
422.80	3414.84
422.99	3318.88
423.18	3468.67
423.37	3599.74
423.56	3372.71
423.75	3262.71
423.94	3199.51
424.13	3138.66
424.32	3138.66
424.50	3297.81
424.69	3452.29
424.88	3534.21
425.07	3283.77
425.26	3325.90
425.45	3272.07
425.64	3421.86
425.83	3393.78
426.01	3494.42
426.20	3403.14
426.39	3510.80
426.58	3461.65
426.77	3442.93
426.96	3513.14
427.15	3489.74
427.33	3412.50
427.52	3566.98
427.71	3590.38
427.90	3522.51
428.09	3747.20
428.28	3688.68
428.46	3578.68
428.65	3707.41
428.84	3733.15
429.03	3613.79
429.22	3768.26
429.40	3723.79
429.59	3786.99
429.78	3599.74
429.97	3688.68
430.16	3695.71
430.34	3908.69
430.53	3845.50
430.72	3758.90
430.91	3866.56
431.10	3946.14
431.28	3889.97
431.47	3901.67
431.66	3885.29
431.85	3901.67
432.03	3971.89
432.22	4023.38
432.41	4037.42
432.60	4046.79
432.79	4205.94
432.97	3983.59
433.16	4002.32
433.35	4021.04
433.54	4072.53
433.72	4128.70
433.91	4163.81
434.10	4112.32
434.28	4264.46
434.47	4222.33
434.66	4315.95
434.85	4315.95
435.03	4285.52
435.22	4212.96
435.41	4477.44
435.59	4294.88
435.78	4414.25
435.97	4402.55
436.16	4245.73
436.34	4320.63
436.53	4425.95
436.72	4510.21
436.90	4484.47
437.09	4535.96
437.28	4454.04
437.46	4674.05
437.65	4411.91
437.84	4568.73
438.02	4542.98
438.21	4660.01
438.40	4704.48
438.58	4812.14
438.77	4718.52
438.96	4528.94
439.14	4720.86
439.33	4915.12
439.52	5053.22
439.70	4901.08
439.89	4978.32
440.08	5137.48
440.26	5104.71
440.45	4868.31
440.63	5060.24
440.82	5296.63
441.01	5193.65
441.19	5118.75
441.38	5137.48
441.57	5280.25
441.75	5132.79
441.94	5188.97
442.12	5383.23
442.31	5373.87
442.50	5245.14
442.68	5313.02
442.87	5397.28
443.05	5441.75
443.24	5659.42
443.43	5521.32
443.61	5399.62
443.80	5668.78
443.98	5432.38
444.17	5371.53
444.35	5703.89
444.54	5507.28
444.73	5661.76
444.91	5652.39
445.10	5610.26
445.28	5633.67
445.47	5731.97
445.65	5551.75
445.84	5703.89
446.02	5713.25
446.21	5624.31
446.39	5554.09
446.58	5783.46
446.77	5654.73
446.95	5528.35
447.14	5694.52
447.32	5767.08
447.51	5928.58
447.69	5748.36
447.88	5795.17
448.06	5776.44
448.25	5776.44
448.43	5724.95
448.62	5750.70
448.80	5856.02
448.99	5942.62
449.17	5797.51
449.36	5900.49
449.54	5944.96
449.73	5853.68
449.91	6029.22
450.10	5942.62
450.28	5963.68
450.46	6104.12
450.65	6031.56
450.83	6031.56
451.02	6125.18
451.20	6171.99
451.39	6216.46
451.57	6186.04
451.76	6122.84
451.94	6188.38
452.13	6324.13
452.31	6179.01
452.49	6214.12
452.68	6230.51
452.86	6326.47
453.05	6445.84
453.23	6469.24
453.42	6427.11
453.60	6113.48
453.78	6363.92
453.97	6354.55
454.15	6403.71
454.34	6366.26
454.52	6480.94
454.70	6256.25
454.89	6525.41
455.07	6548.82
455.26	6513.71
455.44	6682.23
455.62	6595.63
455.81	6633.08
455.99	6647.12
456.17	6677.55
456.36	6881.18
456.54	6920.96
456.73	6850.75
456.91	6935.01
457.09	6953.73
457.28	6902.24
457.46	6843.73
457.64	7159.70
457.83	7009.90
458.01	6902.24
458.19	7171.40
458.38	7136.29
458.56	7222.89
458.74	7115.23
458.93	7162.04
459.11	7119.91
459.29	7117.57
459.48	7178.42
459.66	7524.82
459.84	7129.27
460.03	7363.33
460.21	7616.10
460.39	7236.94
460.57	7445.24
460.76	7454.61
460.94	7421.84
461.12	7545.89
461.31	7290.77
461.49	7557.59
461.67	7478.01
461.85	7733.13
462.04	7527.16
462.22	7992.93
462.40	7573.97
462.59	7583.34
462.77	7758.88
462.95	7801.01
463.13	7772.92
463.32	7611.42
463.50	7733.13
463.68	8002.29
463.86	7737.81
464.05	7801.01
464.23	7648.87
464.41	7838.45
464.59	7793.98
464.78	7981.23
464.96	8028.04
465.14	8004.63
465.32	8184.85
465.50	8006.97
465.69	8191.88
465.87	8077.19
466.05	8086.55
466.23	8009.31
466.41	8189.53
466.60	8269.11
466.78	8091.23
466.96	7948.46
467.14	8170.81
467.32	7990.59
467.51	8313.58
467.69	8140.38
467.87	8243.37
468.05	8339.33
468.23	8203.58
468.41	8159.11
468.60	8131.02
468.78	8376.78
468.96	8308.90
469.14	8407.20
469.32	8692.75
469.50	8564.02
469.69	8709.13
469.87	8802.75
470.05	8622.53
470.23	8854.25
470.41	8659.98
470.59	8809.78
470.77	8884.67
470.95	8975.95
471.14	8987.66
471.32	8627.21
471.50	9207.67
471.68	8835.52
471.86	8769.99
472.04	9109.36
472.22	9137.45
472.40	9083.62
472.58	9088.30
472.77	9158.52
472.95	9329.38
473.13	9607.90
473.31	9401.93
473.49	9481.51
473.67	9327.03
473.85	9458.10
474.03	9607.90
474.21	9568.11
474.39	9561.09
474.57	9799.82
474.75	9802.16
474.93	9907.49
475.12	9713.22
475.30	9966.00
475.48	9994.09
475.66	10286.65
475.84	10003.45
476.02	10267.93
476.20	10113.45
476.38	10436.45
476.56	10413.04
476.74	10310.06
476.92	10347.51
477.10	10464.54
477.28	10836.68
477.46	10754.76
477.64	10689.23
477.82	10860.09
478.00	11152.65
478.18	10937.32
478.36	11096.48
478.54	11307.13
478.72	11283.72
478.90	11300.11
479.08	11562.25
479.26	11571.61
479.44	11506.07
479.62	11679.27
479.80	11950.78
479.98	11791.62
480.16	11913.33
480.34	12030.35
480.52	12091.21
480.70	12133.34
480.88	12145.04
481.06	12306.54
481.24	12329.94
481.41	12290.15
481.59	12746.56
481.77	12774.64
481.95	12791.03
482.13	12861.24
482.31	12889.33
482.49	12961.89
482.67	13240.41
482.85	13284.88
483.03	13422.97
483.21	13614.90
483.39	13706.18
483.57	13504.89
483.74	13577.45
483.92	14164.92
484.10	13659.37
484.28	14164.92
484.46	14338.12
484.64	14490.26
484.82	14516.00
485.00	14574.52
485.18	14792.19
485.35	14946.66
485.53	14780.48
485.71	14857.72
485.89	15218.16
486.07	15435.83
486.25	15021.56
486.43	15510.73
486.61	15651.16
486.78	15721.38
486.96	15644.14
487.14	15807.98
487.32	15976.50
487.50	16315.87
487.68	16400.13
487.85	16510.14
488.03	16491.41
488.21	17015.69
488.39	16912.71
488.57	16968.88
488.75	16978.25
488.92	17259.11
489.10	17240.39
489.28	17572.74
489.46	17586.79
489.64	17649.98
489.81	18064.25
489.99	17961.27
490.17	17989.36
490.35	18270.22
490.53	18331.08
490.70	18698.54
490.88	18361.50
491.06	18977.06
491.24	18754.71
491.41	18988.77
491.59	19253.25
491.77	19000.47
491.95	19112.81
492.13	19281.33
492.30	19496.66
492.48	19672.20
492.66	19880.51
492.84	20020.94
493.01	19824.34
493.19	20224.57
493.37	19988.18
493.54	20435.22
493.72	20556.93
493.90	20535.86
494.08	20482.03
494.25	20666.93
494.43	20599.05
494.61	21116.31
494.79	21235.68
494.96	21071.84
495.14	21546.97
495.32	21886.35
495.49	21392.50
495.67	21764.64
495.85	21596.12
496.02	21811.45
496.20	21949.54
496.38	22185.94
496.55	22417.65
496.73	22668.09
496.91	22408.29
497.09	22492.55
497.26	22363.82
497.44	22981.72
497.62	23094.07
497.79	23136.20
497.97	23264.92
498.14	23213.43
498.32	23641.75
498.50	23435.78
498.67	23910.91
498.85	23580.90
499.03	23805.59
499.20	23852.40
499.38	23992.83
499.56	24095.82
499.73	24079.43
499.91	24357.96
500.08	24456.26
500.26	24297.10
500.44	24437.53
500.61	24573.28
500.79	24613.07
500.97	24676.27
501.14	25479.07
501.32	25186.50
501.49	25135.01
501.67	25308.21
501.84	25312.89
502.02	25401.83
502.20	25474.39
502.37	25591.42
502.55	25518.86
502.72	25855.90
502.90	25535.24
503.07	25701.42
503.25	25891.01
503.43	25738.87
503.60	26188.25
503.78	26118.04
503.95	26225.70
504.13	26279.54
504.30	26726.58
504.48	26331.03
504.65	27026.17
504.83	26785.09
505.01	26911.48
505.18	27311.71
505.36	27110.43
505.53	27281.28
505.71	27449.80
505.88	27250.86
506.06	27065.96
506.23	27370.22
506.41	27152.55
506.58	27786.84
506.76	27543.42
506.93	27639.39
507.11	27707.26
507.28	28418.78
507.46	27662.79
507.63	27784.50
507.81	28673.90
507.98	28240.90
508.16	28327.50
508.33	28414.10
508.50	28428.15
508.68	28409.42
508.85	28531.13
509.03	28493.68
509.20	28725.39
509.38	28868.17
509.55	29329.25
509.73	29102.22
509.90	29303.51
510.08	29050.73
510.25	29160.73
510.42	29472.03
510.60	29317.55
510.77	29841.83
510.95	29916.73
511.12	29371.38
511.30	29759.91
511.47	29876.94
511.64	29584.37
511.82	29944.81
511.99	29467.34
512.17	30284.19
512.34	30064.18
512.51	30546.33
512.69	30340.36
512.86	30754.64
513.04	30752.30
513.21	30780.39
513.38	30703.15
513.56	31014.44
513.73	30965.29
513.90	30960.61
514.08	30972.31
514.25	31044.87
514.43	31227.43
514.60	31487.23
514.77	31393.61
514.95	32032.57
515.12	31620.64
515.29	31508.29
515.47	31665.11
515.64	32039.59
515.81	31505.95
515.99	31971.72
516.16	32025.55
516.33	31962.36
516.51	32168.32
516.68	32411.74
516.85	31761.07
517.03	32542.81
517.20	32320.46
517.37	32552.17
517.54	32301.73
517.72	32095.77
517.89	32638.77
518.06	32872.82
518.24	32545.15
518.41	32573.24
518.58	32816.65
518.75	33188.80
518.93	33223.90
519.10	33127.94
519.27	33095.18
519.45	33118.58
519.62	33584.35
519.79	33343.27
519.96	33116.24
520.14	33319.87
520.31	33483.70
520.48	33827.76
520.65	33532.86
520.83	34087.56
521.00	34031.39
521.17	33853.51
521.34	34375.45
521.52	34263.10
521.69	34164.80
521.86	34558.01
522.03	34579.07
522.20	34665.67
522.38	34850.58
522.55	35140.80
522.72	35117.40
522.89	35143.14
523.07	34766.32
523.24	34976.97
523.41	35077.61
523.58	34873.98
523.75	35204.00
523.92	35594.87
524.10	35185.27
524.27	35632.32
524.44	35388.90
524.61	35943.61
524.78	35763.39
524.96	36070.00
525.13	35861.69
525.30	35629.98
525.47	35952.97
525.64	35889.77
525.81	35938.93
525.98	36041.91
526.16	36205.75
526.33	35634.66
526.50	36102.76
526.67	35800.83
526.84	36102.76
527.01	36240.86
527.18	35985.74
527.36	36381.29
527.53	36627.04
527.70	36725.35
527.87	37338.57
528.04	36542.78
528.21	36549.81
528.38	37205.16
528.55	37172.39
528.72	36367.24
528.89	36865.78
529.07	37078.77
529.24	36793.22
529.41	36882.16
529.58	37034.30
529.75	36928.97
529.92	37275.37
530.09	37305.80
530.26	37378.36
530.43	37221.54
530.60	37092.81
530.77	37794.97
530.94	37326.86
531.11	37518.79
531.28	37542.19
531.46	37565.60
531.63	37471.98
531.80	37633.47
531.97	38054.77
532.14	37743.48
532.31	38026.68
532.48	38071.15
532.65	38492.45
532.82	37993.92
532.99	38223.29
533.16	37982.21
533.33	38157.75
533.50	38195.20
533.67	38375.42
533.84	38595.43
534.01	38721.82
534.18	38770.97
534.35	39267.17
534.52	38768.63
534.69	39035.45
534.86	38892.68
535.03	38738.21
535.20	38972.26
535.37	38958.22
535.54	39201.63
535.71	38742.89
535.88	39206.31
536.05	39093.97
536.22	39538.67
536.38	39332.70
536.55	39187.59
536.72	39578.46
536.89	39426.32
537.06	39241.42
537.23	39856.98
537.40	39180.57
537.57	39768.04
537.74	39496.54
537.91	40062.95
538.08	40105.08
538.25	39529.31
538.42	40259.55
538.59	40144.87
538.75	39526.97
538.92	40130.83
539.09	40332.11
539.26	40217.43
539.43	40051.25
539.60	40362.54
539.77	40353.18
539.94	40292.32
540.11	40580.21
540.28	40802.56
540.44	40383.60
540.61	39856.98
540.78	40243.17
540.95	40484.25
541.12	40507.65
541.29	40392.97
541.46	40861.07
541.62	40694.89
541.79	40947.67
541.96	40383.60
542.13	40772.13
542.30	40620.00
542.47	41017.89
542.63	41055.34
542.80	41273.01
542.97	41312.80
543.14	41511.74
543.31	41315.14
543.48	41357.27
543.64	41977.51
543.81	41399.40
543.98	41858.14
544.15	41357.27
544.32	41467.27
544.48	41923.68
544.65	42014.96
544.82	42026.66
544.99	41691.96
545.16	42380.08
545.32	42061.77
545.49	42625.84
545.66	42412.85
545.83	42197.52
546.00	42054.75
546.16	42270.08
546.33	41853.46
546.50	42141.35
546.67	42483.06
546.83	42040.70
547.00	42471.36
547.17	42141.35
547.34	42059.43
547.50	42588.39
547.67	42880.95
547.84	42555.62
548.00	42480.72
548.17	43215.65
548.34	42871.59
548.51	42445.62
548.67	42621.16
548.84	43105.65
549.01	42902.02
549.18	43023.73
549.34	43220.33
549.51	43166.50
549.68	43243.74
549.84	42834.14
550.01	43239.06
550.18	42993.30
550.34	43159.48
550.51	43077.56
550.68	43299.91
550.84	43098.62
551.01	43423.96
551.18	43225.01
551.34	42834.14
551.51	43325.66
551.68	43278.85
551.84	43648.65
552.01	43409.92
552.18	43384.17
552.34	43330.34
552.51	43894.41
552.68	43456.73
552.84	43711.84
553.01	43550.35
553.18	43852.28
553.34	43681.42
553.51	43646.31
553.67	43768.02
553.84	44322.72
554.01	44250.17
554.17	44170.59
554.34	44067.61
554.51	44037.18
554.67	44456.14
554.84	44041.86
555.00	43650.99
555.17	44016.11
555.33	44053.56
555.50	44137.82
555.67	44535.71
555.83	44198.68
556.00	44507.63
556.16	45116.17
556.33	44032.50
556.50	44502.95
556.66	44715.93
556.83	44435.07
556.99	44718.28
557.16	44891.48
557.32	44678.49
557.49	44474.86
557.65	44144.84
557.82	44414.01
557.98	44215.06
558.15	44886.79
558.32	45029.57
558.48	44839.98
558.65	44985.10
558.81	45247.24
558.98	44652.74
559.14	44919.56
559.31	44790.83
559.47	45052.97
559.64	45036.59
559.80	44985.10
559.97	44971.05
560.13	44814.24
560.30	45020.20
560.46	45263.62
560.63	45223.83
560.79	45457.88
560.96	45291.71
561.12	45052.97
561.29	45177.02
561.45	45488.31
561.61	45457.88
561.78	45289.37
561.94	45188.72
562.11	45076.38
562.27	45354.90
562.44	45127.87
562.60	46005.57
562.77	45514.06
562.93	45186.38
563.10	45904.93
563.26	45659.17
563.42	45900.25
563.59	45656.83
563.75	45394.69
563.92	45902.59
564.08	45134.89
564.24	45801.94
564.41	45460.23
564.57	45640.45
564.74	45584.27
564.90	45553.85
565.07	45989.19
565.23	45350.22
565.39	45598.32
565.56	45703.64
565.72	45769.18
565.88	45757.47
566.05	45846.41
566.21	45855.78
566.38	46075.79
566.54	45865.14
566.70	46101.53
566.87	45916.63
567.03	45823.01
567.19	46012.59
567.36	45785.56
567.52	45790.24
567.68	46340.27
567.85	46363.67
568.01	46417.50
568.17	45918.97
568.34	46443.25
568.50	45792.58
568.66	45851.09
568.83	45925.99
568.99	46176.43
569.15	46094.51
569.32	46150.68
569.48	46248.99
569.64	46803.69
569.81	46120.26
569.97	46333.24
570.13	45769.18
570.30	46143.66
570.46	46630.49
570.62	45996.21
570.78	46440.91
570.95	46375.37
571.11	46658.58
571.27	46363.67
571.43	46295.80
571.60	46681.98
571.76	46026.63
571.92	46377.72
572.09	46234.94
572.25	46129.62
572.41	46082.81
572.57	46351.97
572.74	46768.58
572.90	46415.16
573.06	46354.31
573.22	46536.87
573.38	46583.68
573.55	46618.79
573.71	47157.11
573.87	46461.97
574.03	46663.26
574.20	46848.16
574.36	46483.04
574.52	46614.11
574.68	46667.94
574.84	46728.80
575.01	46499.42
575.17	46791.99
575.33	46609.43
575.49	46859.87
575.65	46595.38
575.82	46752.20
575.98	46564.96
576.14	46890.29
576.30	46693.69
576.46	46085.15
576.62	46761.56
576.79	46569.64
576.95	46569.64
577.11	46195.15
577.27	46845.82
577.43	46841.14
577.59	46777.95
577.75	46241.96
577.92	46068.76
578.08	46501.76
578.24	46642.20
578.40	46930.08
578.56	46827.10
578.72	46855.18
578.88	46990.94
579.04	46705.39
579.21	46471.34
579.37	46923.06
579.53	47063.49
579.69	46859.87
579.85	46806.03
580.01	46703.05
580.17	46677.30
580.33	46794.33
580.49	46490.06
580.65	47089.24
580.82	46679.64
580.98	46749.86
581.14	46548.57
581.30	47004.98
581.46	46396.44
581.62	46202.18
581.78	46983.91
581.94	47124.35
582.10	46422.19
582.26	46923.06
582.42	46712.41
582.58	47112.64
582.74	46988.60
582.90	47054.13
583.06	47122.01
583.22	46885.61
583.38	47028.38
583.54	46827.10
583.70	46829.44
583.86	47124.35
584.02	46920.72
584.18	47339.68
584.34	47126.69
584.50	47084.56
584.66	46986.25
584.82	46920.72
584.98	47295.21
585.14	47269.46
585.30	47047.11
585.46	47220.31
585.62	46560.28
585.78	47033.07
585.94	46457.29
586.10	47014.34
586.26	46962.85
586.42	46873.91
586.58	46892.63
586.74	46742.84
586.90	47082.22
587.06	46796.67
587.22	47164.14
587.38	47232.01
587.54	47381.80
587.70	47299.89
587.86	47016.68
588.02	47033.07
588.18	47016.68
588.34	46679.64
588.49	46897.31
588.65	47311.59
588.81	46735.82
588.97	46958.17
589.13	47470.75
589.29	47533.94
589.45	47140.73
589.61	47412.23
589.77	47318.61
589.93	47210.95
590.08	47349.04
590.24	47880.34
590.40	47861.61
590.56	47529.26
590.72	47662.67
590.88	47124.35
591.04	47000.30
591.20	47730.54
591.35	48025.45
591.51	47566.71
591.67	47484.79
591.83	47538.62
591.99	47342.02
592.15	47304.57
592.31	47161.79
592.46	47508.19
592.62	47657.99
592.78	47653.31
592.94	47772.67
593.10	48114.39
593.26	47789.06
593.41	47618.20
593.57	47828.85
593.73	47735.23
593.89	47819.49
594.05	47866.30
594.20	47653.31
594.36	48224.40
594.52	48027.79
594.68	48053.54
594.84	47615.86
594.99	47566.71
595.15	47349.04
595.31	47627.56
595.47	48149.50
595.62	47807.78
595.78	47332.65
595.94	47636.92
596.10	47721.18
596.25	47676.71
596.41	47650.97
596.57	47929.49
596.73	48350.79
596.88	47856.93
597.04	47454.36
597.20	47632.24
597.36	47929.49
597.51	47791.40
597.67	47512.88
597.83	47629.90
597.99	47854.59
598.14	47545.64
598.30	47686.07
598.46	47707.14
598.61	47770.33
598.77	47990.34
598.93	47969.28
599.09	48074.60
599.24	47838.21
599.40	48193.97
599.56	48058.22
599.71	48191.63
599.87	48252.48
600.03	48474.84
600.18	48168.22
600.34	47749.27
600.50	48339.08
600.65	47704.80
600.81	47889.70
600.97	48268.87
601.12	47917.79
601.28	47522.24
601.44	48072.26
601.59	47899.06
601.75	47702.46
601.91	48222.06
602.06	47767.99
602.22	48238.44
602.37	48025.45
602.53	48430.36
602.69	47873.32
602.84	47611.18
603.00	47885.02
603.16	47880.34
603.31	47861.61
603.47	48013.75
603.62	47814.80
603.78	48083.97
603.94	47849.91
604.09	47814.80
604.25	48224.40
604.40	47388.83
604.56	47812.46
604.71	48369.51
604.87	47756.29
605.03	47707.14
605.18	47985.66
605.34	47604.16
605.49	47852.25
605.65	47964.60
605.80	47959.92
605.96	47660.33
606.12	47587.77
606.27	47835.87
606.43	47980.98
606.58	47913.11
606.74	47980.98
606.89	47870.98
607.05	48044.18
607.20	48011.41
607.36	47966.94
607.51	47779.70
607.67	47400.53
607.82	47770.33
607.98	47578.41
608.13	47440.32
608.29	47372.44
608.44	47767.99
608.60	47627.56
608.75	47587.77
608.91	47718.84
609.06	47824.17
609.22	47751.61
609.37	47531.60
609.53	48126.10
609.68	47885.02
609.84	47421.59
609.99	47583.09
610.15	47571.39
610.30	47915.45
610.46	47505.85
610.61	47384.15
610.76	47557.35
610.92	47384.15
611.07	47082.22
611.23	47100.94
611.38	47765.65
611.54	47725.86
611.69	47833.53
611.84	47676.71
612.00	47262.44
612.15	47690.76
612.31	47468.40
612.46	47421.59
612.62	47012.00
612.77	47583.09
612.92	47409.89
613.08	47313.93
613.23	47540.96
613.39	47346.70
613.54	47400.53
613.69	47634.58
613.85	47327.97
614.00	47290.52
614.15	47480.11
614.31	47206.26
614.46	47063.49
614.62	47356.06
614.77	47173.50
614.92	46983.91
615.08	47332.65
615.23	47414.57
615.38	47210.95
615.54	47189.88
615.69	47540.96
615.84	46869.23
616.00	47210.95
616.15	47079.88
616.30	47194.56
616.46	46848.16
616.61	47086.90
616.76	46653.90
616.92	47185.20
617.07	47133.71
617.22	46700.71
617.37	46698.37
617.53	47096.26
617.68	47023.70
617.83	46721.77
617.99	47414.57
618.14	47295.21
618.29	46689.01
618.45	46681.98
618.60	46689.01
618.75	46808.37
618.90	47007.32
619.06	46607.09
619.21	46672.62
619.36	47196.90
619.51	46267.71
619.67	46677.30
619.82	46604.75
619.97	47061.15
620.12	46398.78
620.28	46550.91
620.43	46717.09
620.58	46848.16
620.73	46555.60
620.89	46862.21
621.04	46469.00
621.19	47084.56
621.34	46581.34
621.49	46473.68
621.65	46380.06
621.80	46791.99
621.95	46263.03
622.10	46373.03
622.25	46389.42
622.41	46351.97
622.56	46155.36
622.71	46515.81
622.86	46401.12
623.01	46504.10
623.16	46237.28
623.32	46480.70
623.47	46227.92
623.62	46384.74
623.77	46473.68
623.92	45944.72
624.07	46370.69
624.23	46543.89
624.38	46859.87
624.53	46422.19
624.68	45710.66
624.83	45483.63
624.98	46052.38
625.13	45748.11
625.29	45361.92
625.44	46012.59
625.59	45972.80
625.74	46101.53
625.89	45511.72
626.04	45680.24
626.19	45823.01
626.34	45579.59
626.49	45397.03
626.65	45029.57
626.80	45759.81
626.95	45516.40
627.10	45399.37
627.25	45780.88
627.40	45820.67
627.55	45851.09
627.70	45518.74
627.85	45446.18
628.00	45703.64
628.15	45301.07
628.30	45471.93
628.45	44898.50
628.60	45179.36
628.76	45193.40
628.91	45588.95
629.06	44851.69
629.21	45186.38
629.36	44854.03
629.51	45177.02
629.66	44856.37
629.81	44823.60
629.96	44987.44
630.11	44729.98
630.26	44786.15
630.41	44495.92
630.56	44961.69
630.71	45113.83
630.86	44912.54
631.01	44935.95
631.16	44966.37
631.31	44790.83
631.46	44718.28
631.61	45202.77
631.76	45141.91
631.91	44882.11
632.06	45523.42
632.21	45041.27
632.36	45055.31
632.51	44556.78
632.66	44945.31
632.81	44671.46
632.96	44910.20
633.10	44561.46
633.25	44538.05
633.40	44542.74
633.55	44509.97
633.70	44610.61
633.85	44348.47
634.00	44332.09
634.15	44189.31
634.30	44250.17
634.45	44114.42
634.60	44664.44
634.75	44252.51
634.90	44210.38
635.05	44601.25
635.19	44198.68
635.34	44306.34
635.49	43976.33
635.64	44119.10
635.79	44205.70
635.94	44002.07
636.09	44680.83
636.24	44121.44
636.39	44069.95
636.53	44081.65
636.68	44114.42
636.83	44062.93
636.98	43629.93
637.13	44058.24
637.28	43580.78
637.43	43924.83
637.57	43819.51
637.72	43824.19
637.87	43866.32
638.02	43976.33
638.17	43665.03
638.32	44027.82
638.46	43217.99
638.61	43480.13
638.76	43746.95
638.91	43892.07
639.06	43356.08
639.20	42993.30
639.35	43592.48
639.50	43634.61
639.65	43779.72
639.80	43917.81
639.94	43618.22
640.09	43672.06
640.24	43466.09
640.39	42955.85
640.54	43288.21
640.68	43239.06
640.83	43828.87
640.98	43299.91
641.13	42831.80
641.27	44034.84
641.42	43426.30
641.57	43634.61
641.72	43072.88
641.86	43227.35
642.01	42808.40
642.16	43299.91
642.31	42866.91
642.45	43030.75
642.60	42333.27
642.75	43288.21
642.90	42997.98
643.04	42576.69
643.19	42408.17
643.34	42670.31
643.48	42377.74
643.63	42955.85
643.78	42667.97
643.93	43255.44
644.07	42686.69
644.22	42700.73
644.37	42768.61
644.51	42714.78
644.66	42782.65
644.81	42731.16
644.95	42651.58
645.10	42749.88
645.25	42429.23
645.39	42417.53
645.54	42190.50
645.69	42202.20
645.83	42270.08
645.98	42574.34
646.13	42586.05
646.27	41827.71
646.42	41832.39
646.57	42337.95
646.71	42714.78
646.86	42724.14
647.00	42745.20
647.15	42422.21
647.30	42410.51
647.44	42295.82
647.59	42302.84
647.74	42679.67
647.88	42550.94
648.03	42136.66
648.17	42330.93
648.32	42527.53
648.47	42387.10
648.61	42169.43
648.76	42094.53
648.90	41855.80
649.05	42019.64
649.20	42024.32
649.34	41902.61
649.49	42312.20
649.63	42054.75
649.78	42412.85
649.92	42476.04
650.07	42337.95
650.21	42295.82
650.36	42288.80
650.51	41787.92
650.65	42066.45
650.80	42330.93
650.94	41904.95
651.09	42071.13
651.23	41425.14
651.38	41696.64
651.52	40996.82
651.67	41310.46
651.81	41867.50
651.96	41240.24
652.10	41394.71
652.25	41406.42
652.39	41383.01
652.54	41380.67
652.68	41034.27
652.83	41745.80
652.97	41425.14
653.12	41137.26
653.26	40823.62
653.41	41397.06
653.55	41181.73
653.70	41628.77
653.84	41495.36
653.99	41675.58
654.13	41141.94
654.27	40802.56
654.42	41448.55
654.56	41022.57
654.71	41137.26
654.85	41113.85
655.00	41158.32
655.14	41439.18
655.29	41493.02
655.43	41375.99
655.57	41048.32
655.72	40795.54
655.86	41048.32
656.01	41202.79
656.15	40311.05
656.30	40942.99
656.44	40821.28
656.58	40727.66
656.73	40521.69
656.87	40514.67
657.01	40591.91
657.16	40334.45
657.30	40790.86
657.45	40123.80
657.59	40261.90
657.73	40456.16
657.88	40430.41
658.02	41013.21
658.16	40659.79
658.31	40350.84
658.45	40987.46
658.60	40264.24
658.74	40137.85
658.88	40037.20
659.03	39819.53
659.17	40378.92
659.31	39835.92
659.46	39988.05
659.60	40046.57
659.74	39538.67
659.89	40224.45
660.03	39346.75
660.17	39852.30
660.32	39969.33
660.46	40109.76
660.60	39215.68
660.74	39683.78
660.89	39824.22
661.03	39449.73
661.17	39026.09
661.32	39166.52
661.46	39510.58
661.60	39571.44
661.74	39372.49
661.89	39182.91
662.03	39454.41
662.17	39040.14
662.31	38909.07
662.46	39271.85
662.60	38845.87
662.74	38522.88
662.88	38705.44
663.03	38143.71
663.17	38370.74
663.31	38410.53
663.45	38904.38
663.60	38885.66
663.74	38834.17
663.88	38698.42
664.02	38171.80
664.17	38595.43
664.31	38375.42
664.45	38321.59
664.59	38480.75
664.73	38398.83
664.88	38073.49
665.02	37589.00
665.16	38337.98
665.30	38075.84
665.44	38066.47
665.59	37764.54
665.73	37652.20
665.87	37511.77
666.01	37701.35
666.15	37703.69
666.29	37471.98
666.44	37340.91
666.58	37778.59
666.72	37703.69
666.86	37256.65
667.00	37446.23
667.14	37258.99
667.28	37048.34
667.43	37034.30
667.57	37633.47
667.71	37504.74
667.85	37125.58
667.99	37055.36
668.13	36760.45
668.27	36690.24
668.41	36444.48
668.56	36521.72
668.70	36009.14
668.84	36065.31
668.98	36428.10
669.12	36566.19
669.26	36458.52
669.40	36016.16
669.54	36556.83
669.68	36374.27
669.82	36355.54
669.96	35798.49
670.10	35510.61
670.25	36006.80
670.39	35915.52
670.53	35758.70
670.67	35253.15
670.81	35831.26
670.95	35833.60
671.09	35608.91
671.23	35632.32
671.37	35440.39
671.51	35335.07
671.65	35372.52
671.79	35531.67
671.93	35440.39
672.07	35435.71
672.21	35145.48
672.35	35098.67
672.49	34953.56
672.63	35028.46
672.77	35145.48
672.91	34962.92
673.05	34590.78
673.19	34595.46
673.33	34363.75
673.47	34527.58
673.61	34429.28
673.75	33818.40
673.89	34071.18
674.03	34106.29
674.17	33869.89
674.31	33750.52
674.45	34054.79
674.59	33729.46
674.73	33535.20
674.87	33507.11
675.01	33422.85
675.15	33429.87
675.29	32676.22
675.43	33020.28
675.56	33177.09
675.70	33060.07
675.84	32947.72
675.98	32254.92
676.12	33195.82
676.26	32933.68
676.40	32753.46
676.54	31983.42
676.68	32563.87
676.82	31850.01
676.96	32130.87
677.10	32465.57
677.23	32053.64
677.37	32315.78
677.51	31903.84
677.65	32046.62
677.79	31667.45
677.93	31791.50
678.07	31512.97
678.21	31161.89
678.34	31498.93
678.48	31557.44
678.62	30852.94
678.76	30998.06
678.90	31178.28
679.04	31168.91
679.18	31290.62
679.31	30611.87
679.45	30616.55
679.59	30022.05
679.73	30705.49
679.87	30417.60
680.00	30225.68
680.14	30373.13
680.28	30115.67
680.42	30309.94
680.56	29827.79
680.70	29752.89
680.83	29589.05
680.97	29472.03
681.11	29399.47
681.25	29617.14
681.39	29404.15
681.52	29123.29
681.66	28793.27
681.80	28678.58
681.94	28500.70
682.07	28346.23
682.21	28524.11
682.35	28187.07
682.49	28470.28
682.62	28514.75
682.76	28563.90
682.90	28226.86
683.04	28030.26
683.17	28357.93
683.31	27854.72
683.45	27440.44
683.59	27601.94
683.72	27407.67
683.86	27400.65
684.00	27552.79
684.13	27234.47
684.27	26930.20
684.41	26663.38
684.55	26848.29
684.68	27072.98
684.82	26588.49
684.96	26906.80
685.09	26235.06
685.23	26977.01
685.37	26478.48
685.50	26803.82
685.64	26436.35
685.78	26071.23
685.91	25993.99
686.05	25947.18
686.19	25465.03
686.32	25460.35
686.46	25724.83
686.60	25357.36
686.73	25638.23
686.87	25465.03
687.01	25738.87
687.14	25268.42
687.28	25088.20
687.42	25109.27
687.55	25102.25
687.69	25174.80
687.82	24486.68
687.96	24645.84
688.10	24746.48
688.23	24474.98
688.37	24697.33
688.50	25022.67
688.64	24278.38
688.78	24353.27
688.91	24147.31
689.05	24121.56
689.18	24114.54
689.32	23424.08
689.46	23386.63
689.59	23749.42
689.73	23428.76
689.86	23859.42
690.00	23524.72
690.13	23396.00
690.27	22960.66
690.41	23248.54
690.54	22895.12
690.68	22909.16
690.81	22628.30
690.95	22679.79
691.08	22527.66
691.22	22319.35
691.35	22434.03
691.49	22665.75
691.62	22356.80
691.76	22099.34
691.89	21748.26
692.03	22099.34
692.16	21575.06
692.30	21387.82
692.43	21532.93
692.57	21333.98
692.70	21558.67
692.84	21277.81
692.97	21287.17
693.11	21291.85
693.24	20950.14
693.38	21104.61
693.51	20908.01
693.65	20996.95
693.78	20629.48
693.92	20336.91
694.05	20421.17
694.19	20582.67
694.32	20479.69
694.45	20601.40
694.59	20521.82
694.72	20477.35
694.86	19866.47
694.99	19908.60
695.13	19786.89
695.26	19761.14
695.39	19538.79
695.53	19590.28
695.66	19742.42
695.80	19428.79
695.93	19564.54
696.07	19197.07
696.20	18743.01
696.33	18995.79
696.47	18764.07
696.60	18876.42
696.73	18963.02
696.87	19066.00
697.00	18710.24
697.14	18544.06
697.27	18129.79
697.40	18431.72
697.54	18462.15
697.67	18312.35
697.80	18324.05
697.94	17933.18
698.07	17750.62
698.21	18132.13
698.34	18022.12
698.47	18040.85
698.61	17664.02
698.74	17493.16
698.87	17703.81
699.01	17128.04
699.14	17319.96
699.27	17326.99
699.40	17273.15
699.54	16924.41
699.67	17135.06
699.80	16922.07
699.94	16587.38
700.07	16959.52
700.20	17015.69
700.34	16592.06
700.47	16575.67
700.60	16922.07
700.73	16313.53
700.87	16292.47
701.00	16210.55
701.13	16060.76
701.26	16191.83
701.40	16243.32
701.53	15669.89
701.66	15906.28
701.79	15819.68
701.93	15632.44
702.06	15257.95
702.19	15492.01
702.32	15386.68
702.46	15613.71
702.59	15473.28
702.72	15171.35
702.85	15477.96
702.99	15311.78
703.12	14888.15
703.25	15063.69
703.38	15019.22
703.51	14904.53
703.65	14941.98
703.78	14633.03
703.91	14359.19
704.04	14375.57
704.17	14466.85
704.31	14403.66
704.44	14485.58
704.57	14033.85
704.70	14092.37
704.83	13853.63
704.96	13935.55
705.10	13902.78
705.23	13738.94
>>>>>End Processed Spectral Data<<<<<
