SpectraSuite Data File
++++++++++++++++++++++++++++++++++++
Date: Fri Oct 25 10:44:06 EDT 2013
User: price-jones
Dark Spectrum Present: No
Reference Spectrum Present: No
Number of Sampled Component Spectra: 1
Spectrometers: USB2+H05261
Integration Time (usec): 100000 (USB2+H05261)
Spectra Averaged: 1 (USB2+H05261)
Boxcar Smoothing: 0 (USB2+H05261)
Correct for Electrical Dark: No (USB2+H05261)
Strobe/Lamp Enabled: No (USB2+H05261)
Correct for Detector Non-linearity: No (USB2+H05261)
Correct for Stray Light: No (USB2+H05261)
Number of Pixels in Processed Spectrum: 2048
>>>>>Begin Processed Spectral Data<<<<<
365.73	147.45
365.92	147.45
366.12	147.45
366.32	28.09
366.52	25.75
366.72	23.41
366.91	0.00
367.11	0.00
367.31	49.15
367.51	30.43
367.70	0.00
367.90	79.58
368.10	11.70
368.30	65.54
368.49	0.00
368.69	51.49
368.89	67.88
369.09	35.11
369.28	28.09
369.48	16.38
369.68	53.83
369.87	60.85
370.07	102.98
370.27	124.05
370.47	119.37
370.66	327.68
370.86	442.36
371.06	500.87
371.25	500.87
371.45	404.91
371.65	461.09
371.84	433.00
372.04	465.77
372.24	440.02
372.44	559.39
372.63	564.07
372.83	472.79
373.03	500.87
373.22	514.92
373.42	580.45
373.62	503.22
373.81	479.81
374.01	524.28
374.21	547.69
374.40	465.77
374.60	564.07
374.79	601.52
374.99	491.51
375.19	608.54
375.38	603.86
375.58	610.88
375.78	585.13
375.97	582.79
376.17	638.97
376.37	573.43
376.56	650.67
376.76	629.60
376.95	627.26
377.15	606.20
377.35	711.52
377.54	613.22
377.74	580.45
377.93	638.97
378.13	671.73
378.33	716.20
378.52	662.37
378.72	716.20
378.91	669.39
379.11	622.58
379.31	603.86
379.50	671.73
379.70	629.60
379.89	671.73
380.09	655.35
380.28	699.82
380.48	648.33
380.68	695.14
380.87	732.59
381.07	744.29
381.26	753.65
381.46	737.27
381.65	688.12
381.85	727.91
382.04	657.69
382.24	688.12
382.43	695.14
382.63	784.08
382.83	723.23
383.02	774.72
383.22	748.97
383.41	697.48
383.61	741.95
383.80	812.17
384.00	746.63
384.19	720.88
384.39	777.06
384.58	770.04
384.78	819.19
384.97	819.19
385.17	814.51
385.36	725.57
385.56	786.42
385.75	774.72
385.95	873.02
386.14	863.66
386.34	802.80
386.53	844.93
386.72	833.23
386.92	959.62
387.11	826.21
387.31	880.04
387.50	821.53
387.70	828.55
387.89	940.90
388.09	877.70
388.28	887.06
388.48	854.30
388.67	936.21
388.86	924.51
389.06	901.11
389.25	933.87
389.45	966.64
389.64	1011.11
389.84	1004.09
390.03	1001.75
390.22	954.94
390.42	943.24
390.61	1064.94
390.81	973.66
391.00	1069.62
391.19	1076.65
391.39	1015.79
391.58	1057.92
391.78	985.37
391.97	1093.03
392.16	1020.47
392.36	1088.35
392.55	980.68
392.75	990.05
392.94	917.49
393.13	976.00
393.33	964.30
393.52	1020.47
393.71	1048.56
393.91	1015.79
394.10	1118.78
394.29	1181.97
394.49	1172.61
394.68	1266.23
394.88	1207.72
395.07	1266.23
395.26	1308.36
395.46	1273.25
395.65	1331.76
395.84	1177.29
396.04	1362.19
396.23	1186.65
396.42	1181.97
396.62	1191.33
396.81	1308.36
397.00	1261.55
397.19	1423.05
397.39	1380.92
397.58	1446.45
397.77	1380.92
397.97	1437.09
398.16	1418.36
398.35	1413.68
398.55	1397.30
398.74	1526.03
398.93	1582.20
399.12	1465.18
399.32	1469.86
399.51	1528.37
399.70	1577.52
399.90	1547.09
400.09	1591.56
400.28	1638.38
400.47	1640.72
400.67	1661.78
400.86	1664.12
401.05	1617.31
401.24	1722.63
401.44	1732.00
401.63	1671.14
401.82	1734.34
402.01	1715.61
402.21	1795.19
402.40	1715.61
402.59	1804.55
402.78	1811.57
402.97	1769.44
403.17	1792.85
403.36	1884.13
403.55	1902.86
403.74	1881.79
403.93	1956.69
404.13	1919.24
404.32	1846.68
404.51	1909.88
404.70	2005.84
404.89	1949.67
405.09	2022.22
405.28	2062.01
405.47	1966.05
405.66	1949.67
405.85	1909.88
406.05	1940.30
406.24	2062.01
406.43	2066.69
406.62	2078.40
406.81	2176.70
407.00	2054.99
407.20	1982.43
407.39	2160.31
407.58	2129.89
407.77	2239.89
407.96	2244.57
408.15	2310.11
408.34	2303.09
408.54	2289.04
408.73	2413.09
408.92	2345.22
409.11	2314.79
409.30	2141.59
409.49	2237.55
409.68	2324.15
409.87	2176.70
410.07	2317.13
410.26	2317.13
410.45	2443.52
410.64	2455.22
410.83	2569.91
411.02	2672.89
411.21	2401.39
411.40	2633.10
411.59	2616.72
411.78	2663.53
411.98	2485.65
412.17	2630.76
412.36	2710.34
412.55	2679.91
412.74	2738.43
412.93	2670.55
413.12	2820.35
413.31	2813.32
413.50	2864.82
413.69	2920.99
413.88	2892.90
414.07	2874.18
414.26	3054.40
414.45	2923.33
414.64	2923.33
414.83	2949.08
415.02	3066.10
415.22	3152.70
415.41	3169.09
415.60	3187.81
415.79	3307.18
415.98	3339.94
416.17	3197.17
416.36	3243.98
416.55	3229.94
416.74	3262.71
416.93	3335.26
417.12	3405.48
417.31	3384.41
417.50	3379.73
417.69	3485.06
417.88	3372.71
418.07	3506.12
418.26	3494.42
418.45	3522.51
418.64	3688.68
418.83	3583.36
419.02	3653.58
419.21	3693.37
419.39	3801.03
419.58	3630.17
419.77	3424.20
419.96	3669.96
420.15	3707.41
420.34	3761.24
420.53	3775.28
420.72	3819.75
420.91	3836.14
421.10	3913.38
421.29	3927.42
421.48	3873.59
421.67	3899.33
421.86	3955.51
422.05	3964.87
422.24	3882.95
422.43	3878.27
422.61	3808.05
422.80	3866.56
422.99	3948.48
423.18	3911.04
423.37	4002.32
423.56	4042.11
423.75	3985.93
423.94	3983.59
424.13	3716.77
424.32	3857.20
424.50	3927.42
424.69	4105.30
424.88	3997.64
425.07	3871.25
425.26	3812.73
425.45	3866.56
425.64	4009.34
425.83	4007.00
426.01	4248.07
426.20	4194.24
426.39	3969.55
426.58	3948.48
426.77	4042.11
426.96	3964.87
427.15	4039.76
427.33	4086.58
427.52	4004.66
427.71	4353.40
427.90	4287.86
428.09	4037.42
428.28	4264.46
428.46	4147.43
428.65	4346.37
428.84	4458.72
429.03	4273.82
429.22	4121.68
429.40	4126.36
429.59	4133.39
429.78	3871.25
429.97	3918.06
430.16	4191.90
430.34	4189.56
430.53	4210.62
430.72	4210.62
430.91	4217.65
431.10	4383.82
431.28	4524.26
431.47	4711.50
431.66	4711.50
431.85	4617.88
432.03	4645.96
432.22	4936.19
432.41	4678.73
432.60	4685.75
432.79	4760.65
432.97	4842.57
433.16	4746.61
433.35	4641.28
433.54	4709.16
433.72	4606.17
433.91	4727.88
434.10	4788.74
434.28	4915.12
434.47	4873.00
434.66	4978.32
434.85	5050.88
435.03	5055.56
435.22	4936.19
435.41	5078.96
435.59	5144.50
435.78	5322.38
435.97	5217.05
436.16	5205.35
436.34	5252.16
436.53	5256.84
436.72	5544.73
436.90	4985.34
437.09	5282.59
437.28	5221.74
437.46	5163.22
437.65	5226.42
437.84	5233.44
438.02	5174.92
438.21	5205.35
438.40	5247.48
438.58	5238.12
438.77	5427.70
438.96	5451.11
439.14	5528.35
439.33	5748.36
439.52	5746.02
439.70	5617.29
439.89	5598.56
440.08	5851.34
440.26	5664.10
440.45	5746.02
440.63	5914.53
440.82	6087.73
441.01	5973.05
441.19	6071.35
441.38	6193.06
441.57	6099.44
441.75	6176.67
441.94	6190.72
442.12	6366.26
442.31	6417.75
442.50	6497.33
442.68	6321.79
442.87	6497.33
443.05	6476.26
443.24	6562.86
443.43	6469.24
443.61	6504.35
443.80	6768.83
443.98	6633.08
444.17	6296.04
444.35	6628.40
444.54	6715.00
444.73	6684.57
444.91	6579.25
445.10	6597.97
445.28	6604.99
445.47	6413.07
445.65	6478.60
445.84	6520.73
446.02	6558.18
446.21	6628.40
446.39	6647.12
446.58	6729.04
446.77	6562.86
446.95	6766.49
447.14	6764.15
447.32	6738.40
447.51	6787.55
447.69	6911.60
447.88	6745.42
448.06	6651.80
448.25	6740.74
448.43	6892.88
448.62	6588.61
448.80	6780.53
448.99	6799.26
449.17	6780.53
449.36	6869.47
449.54	7166.72
449.73	7089.48
449.91	7136.29
450.10	7192.47
450.28	7194.81
450.46	7520.14
450.65	7136.29
450.83	7353.96
451.02	7152.68
451.20	7363.33
451.39	7496.74
451.57	7360.98
451.76	7234.60
451.94	7276.73
452.13	7440.56
452.31	7199.49
452.49	7173.74
452.68	7398.43
452.86	7232.26
453.05	7342.26
453.23	7501.42
453.42	7332.90
453.60	7382.05
453.78	7597.38
453.97	7461.63
454.15	7473.33
454.34	7468.65
454.52	7569.29
454.70	7480.35
454.89	7669.94
455.07	7564.61
455.26	7939.10
455.44	7896.97
455.62	7691.00
455.81	7681.64
455.99	7754.19
456.17	7964.84
456.36	8044.42
456.54	7925.05
456.73	8095.91
456.91	8348.69
457.09	8182.51
457.28	8341.67
457.46	8142.72
457.64	8224.64
457.83	8353.37
458.01	8126.34
458.19	8311.24
458.38	8327.63
458.56	8119.32
458.74	8217.62
458.93	8444.65
459.11	8360.39
459.29	8341.67
459.48	8297.20
459.66	8428.27
459.84	8306.56
460.03	8442.31
460.21	8580.40
460.39	8500.83
460.57	8620.19
460.76	8833.18
460.94	8732.54
461.12	8933.82
461.31	8610.83
461.49	8926.80
461.67	8762.97
461.85	8961.91
462.04	8816.80
462.22	9296.61
462.40	9085.96
462.59	8821.48
462.77	8858.93
462.95	9114.05
463.13	8936.17
463.32	9074.26
463.50	9043.83
463.68	9081.28
463.86	8954.89
464.05	8987.66
464.23	8985.32
464.41	9207.67
464.59	9179.58
464.78	9373.85
464.96	9231.07
465.14	9207.67
465.32	9397.25
465.50	9596.20
465.69	9364.48
465.87	9249.80
466.05	9235.75
466.23	9298.95
466.41	9301.29
466.60	9523.64
466.78	9252.14
466.96	9392.57
467.14	9291.93
467.32	9341.08
467.51	9596.20
467.69	9357.46
467.87	9542.36
468.05	9694.50
468.23	9610.24
468.41	9544.70
468.60	9680.46
468.78	9706.20
468.96	9708.54
469.14	9942.60
469.32	9830.25
469.50	9888.76
469.69	9919.19
469.87	9872.38
470.05	9933.23
470.23	9811.53
470.41	9928.55
470.59	10022.17
470.77	10061.96
470.95	10127.50
471.14	10024.51
471.32	10139.20
471.50	10202.40
471.68	10244.52
471.86	10450.49
472.04	10593.26
472.22	10707.95
472.40	10239.84
472.58	10459.85
472.77	10600.29
472.95	10473.90
473.13	10946.69
473.31	10593.26
473.49	10565.18
473.67	10637.73
473.85	10750.08
474.03	11077.76
474.21	10883.49
474.39	10939.66
474.57	11248.61
474.75	11047.33
474.93	11154.99
475.12	11382.03
475.30	11332.87
475.48	11435.86
475.66	11353.94
475.84	11433.52
476.02	11590.33
476.20	11665.23
476.38	11674.59
476.56	12098.23
476.74	12020.99
476.92	11899.28
477.10	11971.84
477.28	12280.79
477.46	12145.04
477.64	12320.58
477.82	12411.86
478.00	12891.67
478.18	12479.74
478.36	12634.21
478.54	12826.14
478.72	12578.04
478.90	12917.42
479.08	13057.85
479.26	13217.01
479.44	13149.13
479.62	13462.76
479.80	13549.36
479.98	13652.34
480.16	13579.79
480.34	13582.13
480.52	13858.31
480.70	13912.14
480.88	13727.24
481.06	13727.24
481.24	14183.65
481.41	14422.38
481.59	14523.02
481.77	14532.39
481.95	14483.24
482.13	14700.90
482.31	14686.86
482.49	15094.11
482.67	15002.83
482.85	15262.63
483.03	15321.15
483.21	15229.87
483.39	15431.15
483.57	15328.17
483.74	15613.71
483.92	15726.06
484.10	15672.23
484.28	16381.41
484.46	16285.45
484.64	16783.98
484.82	16313.53
485.00	16575.67
485.18	16407.16
485.35	16716.11
485.53	16496.10
485.71	16240.98
485.89	16552.27
486.07	16802.71
486.25	16566.31
486.43	16992.29
486.61	17289.54
486.78	17170.17
486.96	17507.21
487.14	18052.55
487.32	17605.51
487.50	18068.94
487.68	18281.92
487.85	18483.21
488.03	18719.60
488.21	18988.77
488.39	18469.17
488.57	18597.90
488.75	19105.79
488.92	19077.71
489.10	19704.97
489.28	19711.99
489.46	19634.75
489.64	19601.99
489.81	20339.26
489.99	20432.88
490.17	20287.76
490.35	20648.21
490.53	20489.05
490.70	20510.11
490.88	20673.95
491.06	21207.59
491.24	21027.37
491.41	20917.37
491.59	21310.58
491.77	21200.57
491.95	20992.26
492.13	21565.70
492.30	21745.92
492.48	21820.81
492.66	21944.86
492.84	21982.31
493.01	22181.26
493.19	22277.22
493.37	22581.49
493.54	22441.06
493.72	22705.54
493.90	22960.66
494.08	23082.36
494.25	23112.79
494.43	23585.58
494.61	23644.09
494.79	23655.79
494.96	23686.22
495.14	23800.91
495.32	23901.55
495.49	23824.31
495.67	24154.33
495.85	24198.80
496.02	24400.08
496.20	24711.38
496.38	24683.29
496.55	24882.24
496.73	25296.51
496.91	25146.72
497.09	25317.57
497.26	25455.67
497.44	25085.86
497.62	25467.37
497.79	25729.51
497.97	25727.17
498.14	25312.89
498.32	25832.49
498.50	25902.71
498.67	26265.49
498.85	26150.81
499.03	26616.57
499.20	26452.73
499.38	26801.47
499.56	26654.02
499.73	26714.87
499.91	26768.71
500.08	26967.65
500.26	26499.55
500.44	26810.84
500.61	26904.46
500.79	26913.82
500.97	27082.34
501.14	27337.46
501.32	27339.80
501.49	27740.03
501.67	27356.18
501.84	27601.94
502.02	27599.60
502.20	27814.93
502.37	28484.32
502.55	27922.59
502.72	28556.88
502.90	28826.04
503.07	28318.14
503.25	28360.27
503.43	28510.07
503.60	28914.98
503.78	28362.61
503.95	28790.93
504.13	28435.17
504.30	28964.13
504.48	28896.25
504.65	29319.89
504.83	29228.61
505.01	29521.18
505.18	29549.26
505.36	29954.18
505.53	29645.23
505.71	30064.18
505.88	29862.90
506.06	29685.01
506.23	29940.13
506.41	29841.83
506.58	30106.31
506.76	30132.06
506.93	30562.72
507.11	30408.24
507.28	30752.30
507.46	30064.18
507.63	30148.44
507.81	30646.97
507.98	30136.74
508.16	30466.75
508.33	30831.88
508.50	30944.22
508.68	31152.53
508.85	31522.34
509.03	31349.14
509.20	31386.58
509.38	31302.32
509.55	31543.40
509.73	32006.83
509.90	31419.35
510.08	31487.23
510.25	31468.50
510.42	32016.19
510.60	32053.64
510.77	31929.59
510.95	32402.38
511.12	32299.39
511.30	32367.27
511.47	33024.96
511.64	32748.78
511.82	33003.89
511.99	32610.68
512.17	32617.71
512.34	32542.81
512.51	32730.05
512.69	33209.86
512.86	33240.29
513.04	33312.84
513.21	33242.63
513.38	33071.77
513.56	33436.89
513.73	33041.34
513.90	33385.40
514.08	33350.29
514.25	33603.07
514.43	33158.37
514.60	33617.11
514.77	33226.24
514.95	34220.97
515.12	33916.70
515.29	34010.32
515.47	34471.41
515.64	34258.42
515.81	34206.93
515.99	34150.76
516.16	34387.15
516.33	33762.23
516.51	34024.37
516.68	33570.30
516.85	33631.16
517.03	34085.22
517.20	34469.07
517.37	34646.95
517.54	35000.37
517.72	34412.90
517.89	34256.08
518.06	34127.35
518.24	34773.34
518.41	34267.78
518.58	34787.38
518.75	34789.72
518.93	35136.12
519.10	34986.33
519.27	35543.38
519.45	35140.80
519.62	35805.52
519.79	35433.37
519.96	35674.45
520.14	35761.05
520.31	35814.88
520.48	35931.90
520.65	35922.54
520.83	36130.85
521.00	36030.21
521.17	36460.87
521.34	36353.20
521.52	36203.41
521.69	36243.20
521.86	36933.65
522.03	36868.12
522.20	36947.70
522.38	36926.63
522.55	36694.92
522.72	37010.89
522.89	36720.66
523.07	36847.05
523.24	36842.37
523.41	37221.54
523.58	37240.26
523.75	37804.33
523.92	37198.13
524.10	37699.01
524.27	37855.82
524.44	37591.34
524.61	37867.53
524.78	37668.58
524.96	37691.99
525.13	38000.94
525.30	38258.40
525.47	38117.96
525.64	37745.82
525.81	38017.32
525.98	37394.74
526.16	37680.28
526.33	37654.54
526.50	37542.19
526.67	37640.50
526.84	37574.96
527.01	37731.78
527.18	38054.77
527.36	38396.49
527.53	38459.68
527.70	38522.88
527.87	38508.83
528.04	38504.15
528.21	39093.97
528.38	38775.66
528.55	39061.20
528.72	39241.42
528.89	39402.92
529.07	38866.94
529.24	39061.20
529.41	39147.80
529.58	38965.24
529.75	39353.77
529.92	39110.35
530.09	39297.59
530.26	39552.71
530.43	39894.43
530.60	39363.13
530.77	39370.15
530.94	39765.70
531.11	39536.33
531.28	39576.12
531.46	40004.44
531.63	39604.20
531.80	39838.26
531.97	39592.50
532.14	40013.80
532.31	39861.66
532.48	39938.90
532.65	40182.32
532.82	40069.97
532.99	40392.97
533.16	39906.13
533.33	40259.55
533.50	40519.35
533.67	40435.10
533.84	40624.68
534.01	40334.45
534.18	40514.67
534.35	40577.87
534.52	40224.45
534.69	41064.70
534.86	40896.18
535.03	40825.96
535.20	41284.71
535.37	41464.93
535.54	41029.59
535.71	40992.14
535.88	41656.85
536.05	41336.20
536.22	41132.57
536.38	41273.01
536.55	41165.34
536.72	41191.09
536.89	40978.10
537.06	41486.00
537.23	41277.69
537.40	41277.69
537.57	41380.67
537.74	41607.70
537.91	41670.90
538.08	41888.57
538.25	41340.88
538.42	41322.16
538.59	42089.85
538.75	41219.17
538.92	41294.07
539.09	41811.33
539.26	41455.57
539.43	42185.82
539.60	41677.92
539.77	41879.21
539.94	41748.14
540.11	41514.08
540.28	41675.58
540.44	42019.64
540.61	41937.72
540.78	41596.00
540.95	41668.56
541.12	41364.29
541.29	42256.03
541.46	42045.38
541.62	42637.54
541.79	42506.47
541.96	41923.68
542.13	42373.06
542.30	42962.87
542.47	42735.84
542.63	42478.38
542.80	42593.07
542.97	42827.12
543.14	43021.39
543.31	42878.61
543.48	43077.56
543.64	43503.54
543.81	43215.65
543.98	43311.61
544.15	43227.35
544.32	43400.55
544.48	43463.75
544.65	43442.68
544.82	43557.37
544.99	43344.38
545.16	43201.61
545.32	43047.13
545.49	43761.00
545.66	43569.07
545.83	43744.61
546.00	43746.95
546.16	43164.16
546.33	43461.41
546.50	43107.99
546.67	43966.96
546.83	43007.34
547.00	43550.35
547.17	43641.63
547.34	43683.76
547.50	43831.21
547.67	44507.63
547.84	43770.36
548.00	44367.20
548.17	44505.29
548.34	44282.94
548.51	43889.73
548.67	44215.06
548.84	44095.69
549.01	43824.19
549.18	44208.04
549.34	44254.85
549.51	44418.69
549.68	44397.62
549.84	44208.04
550.01	44664.44
550.18	44570.82
550.34	44357.83
550.51	44329.75
550.68	44327.41
550.84	44505.29
551.01	44746.36
551.18	44430.39
551.34	44638.70
551.51	44898.50
551.68	45062.33
551.84	44715.93
552.01	44367.20
552.18	44966.37
552.34	44191.65
552.51	44591.89
552.68	44591.89
552.84	44690.19
553.01	45113.83
553.18	44610.61
553.34	44847.00
553.51	44767.43
553.67	44790.83
553.84	45158.30
554.01	44987.44
554.17	44912.54
554.34	45214.47
554.51	45202.77
554.67	45312.77
554.84	45022.54
555.00	44971.05
555.17	45104.46
555.33	45036.59
555.50	45195.74
555.67	45188.72
555.83	44877.43
556.00	45511.72
556.16	45680.24
556.33	45411.07
556.50	45457.88
556.66	45619.38
556.83	45024.89
556.99	45235.53
557.16	45654.49
557.32	45581.93
557.49	45717.68
557.65	45034.25
557.82	45801.94
557.98	45511.72
558.15	45272.98
558.32	45287.03
558.48	45312.77
558.65	45340.86
558.81	45673.21
558.98	45549.17
559.14	45619.38
559.31	45565.55
559.47	45558.53
559.64	45937.69
559.80	45755.13
559.97	45429.80
560.13	45434.48
560.30	45413.41
560.46	45823.01
560.63	45696.62
560.79	45862.80
560.96	45694.28
561.12	45757.47
561.29	45797.26
561.45	45455.54
561.61	46117.92
561.78	45865.14
561.94	45942.38
562.11	45872.16
562.27	45783.22
562.44	46183.45
562.60	46188.13
562.77	46361.33
562.93	45418.10
563.10	46192.81
563.26	45633.42
563.42	46115.58
563.59	45631.08
563.75	46085.15
563.92	45933.01
564.08	46384.74
564.24	46279.41
564.41	45860.46
564.57	45769.18
564.74	45996.21
564.90	46206.86
565.07	46263.03
565.23	46038.34
565.39	46010.25
565.56	46213.88
565.72	46021.95
565.88	45909.61
566.05	46115.58
566.21	46164.73
566.38	46129.62
566.54	46141.32
566.70	46302.82
566.87	46649.22
567.03	45998.55
567.19	46536.87
567.36	46607.09
567.52	46286.43
567.68	46543.89
567.85	46323.88
568.01	46288.77
568.17	46220.90
568.34	46356.65
568.50	46178.77
568.66	46241.96
568.83	46300.48
568.99	45853.44
569.15	46101.53
569.32	46129.62
569.48	45963.44
569.64	46476.02
569.81	46270.05
569.97	46429.21
570.13	46288.77
570.30	45827.69
570.46	46117.92
570.62	45968.12
570.78	45738.75
570.95	45949.40
571.11	46494.74
571.27	45858.12
571.43	46000.89
571.60	45982.16
571.76	46148.34
571.92	46192.81
572.09	46138.98
572.25	46354.31
572.41	46251.33
572.57	46663.26
572.74	46621.13
572.90	46408.14
573.06	46319.20
573.22	46218.56
573.38	46607.09
573.55	46312.18
573.71	46363.67
573.87	46555.60
574.03	46483.04
574.20	46618.79
574.36	46454.95
574.52	46534.53
574.68	46183.45
574.84	46469.00
575.01	46305.16
575.17	46511.13
575.33	46253.67
575.49	46490.06
575.65	46787.31
575.82	46763.90
575.98	46361.33
576.14	46602.41
576.30	46672.62
576.46	46398.78
576.62	46543.89
576.79	46358.99
576.95	46174.09
577.11	46616.45
577.27	46848.16
577.43	46272.39
577.59	46377.72
577.75	46382.40
577.92	46164.73
578.08	46092.17
578.24	45881.52
578.40	46117.92
578.56	46834.12
578.72	46644.54
578.88	46237.28
579.04	46710.07
579.21	46368.35
579.37	46328.56
579.53	46237.28
579.69	46134.30
579.85	46351.97
580.01	46681.98
580.17	46691.35
580.33	46562.62
580.49	46784.97
580.65	46337.93
580.82	46443.25
580.98	46003.23
581.14	46272.39
581.30	46904.34
581.46	46532.19
581.62	46813.05
581.78	46616.45
581.94	46986.25
582.10	46555.60
582.26	46710.07
582.42	46387.08
582.58	46443.25
582.74	46120.26
582.90	46766.24
583.06	46904.34
583.22	46749.86
583.38	46939.44
583.54	46796.67
583.70	46979.23
583.86	46609.43
584.02	46337.93
584.18	46506.44
584.34	46476.02
584.50	46604.75
584.66	46621.13
584.82	46361.33
584.98	46646.88
585.14	46644.54
585.30	46326.22
585.46	46209.20
585.62	46274.73
585.78	46192.81
585.94	46031.32
586.10	46775.61
586.26	46085.15
586.42	46504.10
586.58	46707.73
586.74	46873.91
586.90	46513.47
587.06	46370.69
587.22	46665.60
587.38	46064.08
587.54	46480.70
587.70	46478.36
587.86	46525.17
588.02	46457.29
588.18	46504.10
588.34	46349.63
588.49	46075.79
588.65	45860.46
588.81	46007.91
588.97	45780.88
589.13	46010.25
589.29	46340.27
589.45	46354.31
589.61	46138.98
589.77	46597.73
589.93	46576.66
590.08	46632.83
590.24	46733.48
590.40	47119.66
590.56	47196.90
590.72	46560.28
590.88	46354.31
591.04	46689.01
591.20	47049.45
591.35	47012.00
591.51	47079.88
591.67	46342.61
591.83	47147.75
591.99	46583.68
592.15	46586.02
592.31	46932.42
592.46	46836.46
592.62	46799.01
592.78	46553.26
592.94	47178.18
593.10	46260.69
593.26	46597.73
593.41	46829.44
593.57	46569.64
593.73	46574.32
593.89	46777.95
594.05	46497.08
594.20	46450.27
594.36	46803.69
594.52	46417.50
594.68	46019.61
594.84	46525.17
594.99	46930.08
595.15	46670.28
595.31	46918.38
595.47	47173.50
595.62	46733.48
595.78	46721.77
595.94	47051.79
596.10	46731.14
596.25	46789.65
596.41	46899.65
596.57	46696.03
596.73	46784.97
596.88	46852.84
597.04	46848.16
597.20	46267.71
597.36	47112.64
597.51	47070.51
597.67	46586.02
597.83	46522.83
597.99	47007.32
598.14	46796.67
598.30	46529.85
598.46	46571.98
598.61	46560.28
598.77	46579.00
598.93	46571.98
599.09	46885.61
599.24	47262.44
599.40	47175.84
599.56	47016.68
599.71	46738.16
599.87	47185.20
600.03	46651.56
600.18	46469.00
600.34	46373.03
600.50	46621.13
600.65	46892.63
600.81	46972.21
600.97	46799.01
601.12	47061.15
601.28	46883.27
601.44	46569.64
601.59	46752.20
601.75	46288.77
601.91	46433.89
602.06	46728.80
602.22	46473.68
602.37	46557.94
602.53	46270.05
602.69	47173.50
602.84	46595.38
603.00	46801.35
603.16	46761.56
603.31	46705.39
603.47	46653.90
603.62	46351.97
603.78	46754.54
603.94	46637.51
604.09	46831.78
604.25	46824.76
604.40	46859.87
604.56	46286.43
604.71	46806.03
604.87	46492.40
605.03	46380.06
605.18	46539.21
605.34	46906.68
605.49	45951.74
605.65	46714.75
605.80	46256.01
605.96	46756.88
606.12	46995.62
606.27	46911.36
606.43	46752.20
606.58	46562.62
606.74	46667.94
606.89	46190.47
607.05	46550.91
607.20	46925.40
607.36	46555.60
607.51	46658.58
607.67	45815.99
607.82	46153.02
607.98	46506.44
608.13	45996.21
608.29	46237.28
608.44	45853.44
608.60	45881.52
608.75	46270.05
608.91	46096.85
609.06	46197.49
609.22	46504.10
609.37	46328.56
609.53	46363.67
609.68	46162.39
609.84	46087.49
609.99	46410.48
610.15	46071.10
610.30	45621.72
610.46	46040.68
610.61	45935.35
610.76	45759.81
610.92	46417.50
611.07	46150.68
611.23	46209.20
611.38	46298.14
611.54	45776.20
611.69	45832.37
611.84	45535.12
612.00	45743.43
612.15	45897.91
612.31	45752.79
612.46	45933.01
612.62	45881.52
612.77	45619.38
612.92	45956.42
613.08	45883.86
613.23	45858.12
613.39	45364.26
613.54	45514.06
613.69	45291.71
613.85	45862.80
614.00	45982.16
614.15	45888.54
614.31	45991.53
614.46	45865.14
614.62	45682.58
614.77	45310.43
614.92	45713.00
615.08	45336.18
615.23	45509.38
615.38	45354.90
615.54	45139.57
615.69	45390.01
615.84	45027.23
616.00	45184.04
616.15	45240.21
616.30	45294.05
616.46	45006.16
616.61	45067.02
616.76	44821.26
616.92	44978.07
617.07	45296.39
617.22	44781.47
617.37	45193.40
617.53	45598.32
617.68	45434.48
617.83	45233.19
617.99	44980.42
618.14	45120.85
618.29	44966.37
618.45	44996.80
618.60	44215.06
618.75	45134.89
618.90	44570.82
619.06	44772.11
619.21	44779.13
619.36	44989.78
619.51	45235.53
619.67	44463.16
619.82	45226.17
619.97	45177.02
620.12	44636.36
620.28	44371.88
620.43	44542.74
620.58	44516.99
620.73	44577.84
620.89	44322.72
621.04	44999.14
621.19	44603.59
621.34	44563.80
621.49	44161.23
621.65	44659.76
621.80	44154.21
621.95	43906.11
622.10	44299.32
622.25	43878.02
622.41	43564.39
622.56	43845.26
622.71	44341.45
622.86	44423.37
623.01	44610.61
623.16	44083.99
623.32	43971.64
623.47	44259.53
623.62	44184.63
623.77	43885.04
623.92	44189.31
624.07	43999.73
624.23	43962.28
624.38	44023.14
624.53	43676.74
624.68	43650.99
624.83	43941.22
624.98	43990.37
625.13	43711.84
625.29	43438.00
625.44	43428.64
625.59	43030.75
625.74	43517.58
625.89	43374.81
626.04	43672.06
626.19	43704.82
626.34	43599.50
626.49	43938.88
626.65	43463.75
626.80	43796.10
626.95	43328.00
627.10	43309.27
627.25	43330.34
627.40	42784.99
627.55	43007.34
627.70	42993.30
627.85	42487.74
628.00	43325.66
628.15	42754.57
628.30	43241.40
628.45	43227.35
628.60	43330.34
628.76	43608.86
628.91	43320.98
629.06	42782.65
629.21	42983.94
629.36	42969.90
629.51	42742.86
629.66	42497.11
629.81	42532.22
629.96	42745.20
630.11	42976.92
630.26	42930.11
630.41	42866.91
630.56	42401.14
630.71	42766.27
630.86	42576.69
631.01	42539.24
631.16	42560.30
631.31	42410.51
631.46	42024.32
631.61	42639.88
631.76	42415.19
631.91	42674.99
632.06	42651.58
632.21	42454.98
632.36	42515.83
632.51	41923.68
632.66	42120.28
632.81	42026.66
632.96	42286.46
633.10	42370.72
633.25	42305.18
633.40	42232.63
633.55	42719.46
633.70	42323.91
633.85	42099.22
634.00	42506.47
634.15	42244.33
634.30	41954.10
634.45	42213.90
634.60	41888.57
634.75	41869.84
634.90	41696.64
635.05	42057.09
635.19	42424.55
635.34	42335.61
635.49	41598.34
635.64	41572.60
635.79	41619.41
635.94	41706.01
636.09	42099.22
636.24	41797.29
636.39	41375.99
636.53	41764.52
636.68	41373.65
636.83	41254.28
636.98	41900.27
637.13	41631.11
637.28	41530.47
637.43	41565.57
637.57	42054.75
637.72	41586.64
637.87	41717.71
638.02	41626.43
638.17	41383.01
638.32	41528.13
638.46	41507.06
638.61	41280.03
638.76	41001.50
638.91	40921.93
639.06	41024.91
639.20	41652.17
639.35	41642.81
639.50	41050.66
639.65	41078.74
639.80	41221.52
639.94	41394.71
640.09	40772.13
640.24	40650.42
640.39	40390.62
640.54	40657.45
640.68	40687.87
640.83	40964.06
640.98	40800.22
641.13	40636.38
641.27	41085.76
641.42	40416.37
641.57	40645.74
641.72	40804.90
641.86	40374.24
642.01	40453.82
642.16	40666.81
642.31	39964.65
642.45	40177.64
642.60	40409.35
642.75	39899.11
642.90	40268.92
643.04	40657.45
643.19	40390.62
643.34	40282.96
643.48	39995.07
643.63	40002.10
643.78	40315.73
643.93	40240.83
644.07	40449.14
644.22	40210.40
644.37	39838.26
644.51	39969.33
644.66	40062.95
644.81	39957.63
644.95	40247.85
645.10	40278.28
645.25	40561.48
645.39	40137.85
645.54	39887.41
645.69	40048.91
645.83	39735.27
645.98	40201.04
646.13	39978.69
646.27	40346.15
646.42	39810.17
646.57	39604.20
646.71	39578.46
646.86	39789.11
647.00	39533.99
647.15	39356.11
647.30	39487.18
647.44	39517.60
647.59	39768.04
647.74	39316.32
647.88	39611.23
648.03	39756.34
648.17	39335.04
648.32	39168.87
648.47	39557.39
648.61	39377.17
648.76	39852.30
648.90	39278.87
649.05	39557.39
649.20	39131.42
649.34	39288.23
649.49	39042.48
649.63	39157.16
649.78	39234.40
649.92	39051.84
650.07	39257.81
650.21	39360.79
650.36	38756.93
650.51	39229.72
650.65	39512.92
650.80	39356.11
650.94	39402.92
651.09	38972.26
651.23	39091.63
651.38	39070.56
651.52	38869.28
651.67	39108.01
651.81	38309.89
651.96	38948.85
652.10	38799.06
652.25	38754.59
652.39	38550.96
652.54	39309.30
652.68	38873.96
652.83	38967.58
652.97	38670.33
653.12	38398.83
653.26	38513.52
653.41	38373.08
653.55	38447.98
653.70	38754.59
653.84	38237.33
653.99	38738.21
654.13	38366.06
654.27	38005.62
654.42	38455.00
654.56	37984.55
654.71	38536.92
654.85	38408.19
655.00	38192.86
655.14	37801.99
655.29	38319.25
655.43	38014.98
655.57	37649.86
655.72	37811.35
655.86	37680.28
656.01	37766.88
656.15	37881.57
656.30	37385.38
656.44	37832.42
656.58	37319.84
656.73	37848.80
656.87	38038.39
657.01	37560.92
657.16	38022.00
657.30	37469.64
657.45	37326.86
657.59	37865.19
657.73	37757.52
657.88	38050.09
658.02	38040.73
658.16	37919.02
658.31	37937.74
658.45	37663.90
658.60	37977.53
658.74	37970.51
658.88	37982.21
659.03	37090.47
659.17	37270.69
659.31	37572.62
659.46	36837.69
659.60	37368.99
659.74	37017.91
659.89	37048.34
660.03	36903.23
660.17	37163.03
660.32	37146.64
660.46	37228.56
660.60	36884.50
660.74	36926.63
660.89	36989.83
661.03	36460.87
661.17	36423.42
661.32	36615.34
661.46	36868.12
661.60	36835.35
661.74	36332.14
661.89	36809.61
662.03	36596.62
662.17	36189.36
662.31	36657.47
662.46	36638.75
662.60	36325.11
662.74	36119.15
662.88	35812.54
663.03	36025.53
663.17	36163.62
663.31	36020.84
663.45	35955.31
663.60	35957.65
663.74	35747.00
663.88	35861.69
664.02	35721.26
664.17	35667.42
664.31	36100.42
664.45	35592.53
664.59	35552.74
664.73	35529.33
664.88	35459.12
665.02	35323.36
665.16	35585.50
665.30	35243.79
665.44	35452.09
665.59	34920.79
665.73	35196.98
665.87	35061.22
666.01	34958.24
666.15	35236.77
666.29	35098.67
666.44	35075.27
666.58	34909.09
666.72	34778.02
666.86	34806.11
667.00	34859.94
667.14	34485.45
667.28	34504.18
667.43	34639.93
667.57	34820.15
667.71	34637.59
667.85	34611.84
667.99	34864.62
668.13	34443.32
668.27	34223.31
668.41	34668.02
668.56	34036.07
668.70	34284.17
668.84	34026.71
668.98	33457.96
669.12	33755.21
669.26	33432.21
669.40	33586.69
669.54	33954.15
669.68	33516.47
669.82	33383.06
669.96	33371.36
670.10	33582.01
670.25	33450.94
670.39	33287.10
670.53	32898.57
670.67	33090.49
670.81	33160.71
670.95	33268.37
671.09	33221.56
671.23	33181.77
671.37	32910.27
671.51	32692.60
671.65	32685.58
671.79	32610.68
671.93	32535.79
672.07	33256.67
672.21	32954.74
672.35	32320.46
672.49	32966.45
672.63	32744.09
672.77	32037.25
672.91	32533.45
673.05	32273.65
673.19	32474.93
673.33	32112.15
673.47	32123.85
673.61	32037.25
673.75	31910.86
673.89	31948.31
674.03	31749.37
674.17	31730.64
674.31	31672.13
674.45	31288.28
674.59	31772.77
674.73	31723.62
674.87	31534.04
675.01	31578.51
675.15	31498.93
675.29	31346.79
675.43	30789.75
675.56	31112.74
675.70	30998.06
675.84	30501.86
675.98	29788.00
676.12	30859.96
676.26	30808.47
676.40	30403.56
676.54	30391.86
676.68	30831.88
676.82	30419.94
676.96	30232.70
677.10	30134.40
677.23	30017.37
677.37	29970.56
677.51	30209.29
677.65	29579.69
677.79	29457.98
677.93	29369.04
678.07	29544.58
678.21	29188.82
678.34	28748.80
678.48	28797.95
678.62	28500.70
678.76	28842.42
678.90	28751.14
679.04	28685.61
679.18	28315.80
679.31	28545.17
679.45	28301.76
679.59	28629.43
679.73	28474.96
679.87	28203.46
680.00	28004.51
680.14	28020.89
680.28	28116.86
680.42	28217.50
680.56	27765.78
680.70	27941.32
680.83	27859.40
680.97	27763.43
681.11	27620.66
681.25	27552.79
681.39	27199.37
681.52	27597.26
681.66	27152.55
681.80	27077.66
681.94	27468.53
682.07	26785.09
682.21	27068.30
682.35	26651.68
682.49	26939.57
682.62	26684.45
682.76	26590.83
682.90	26604.87
683.04	26457.42
683.17	26143.78
683.31	26195.28
683.45	26221.02
683.59	25895.69
683.72	26169.53
683.86	26190.59
684.00	25743.55
684.13	25710.78
684.27	25450.99
684.41	25528.22
684.55	25308.21
684.68	24992.24
684.82	25352.68
684.96	25153.74
685.09	25163.10
685.23	25106.93
685.37	24893.94
685.50	25095.22
685.64	24451.58
685.78	24554.56
685.91	24659.88
686.05	24879.89
686.19	23953.04
686.32	24313.48
686.46	23697.92
686.60	23613.66
686.73	23772.82
686.87	23358.55
687.01	23318.76
687.14	23168.96
687.28	23255.56
687.42	23337.48
687.55	23309.40
687.69	23101.09
687.82	23300.03
687.96	23234.50
688.10	22918.53
688.23	22820.22
688.37	22696.17
688.50	22867.03
688.64	22703.20
688.78	22766.39
688.91	22794.48
689.05	22658.73
689.18	22368.50
689.32	22183.60
689.46	22272.54
689.59	22328.71
689.73	22326.37
689.86	22221.05
690.00	21687.40
690.13	22178.92
690.27	21912.10
690.41	21823.16
690.54	21422.92
690.68	21137.38
690.81	21305.90
690.95	21495.48
691.08	21378.45
691.22	21357.39
691.35	21582.08
691.49	21343.35
691.62	20947.79
691.76	21266.11
691.89	20915.03
692.03	20891.62
692.16	21001.63
692.30	20493.73
692.43	20645.87
692.57	20435.22
692.70	20292.44
692.84	20531.18
692.97	20149.67
693.11	20196.48
693.24	20025.62
693.38	19866.47
693.51	19648.80
693.65	19744.76
693.78	19782.21
693.92	19648.80
694.05	19552.84
694.19	19365.59
694.32	19438.15
694.45	19314.10
694.59	19360.91
694.72	19197.07
694.86	19515.39
694.99	19005.15
695.13	18874.08
695.26	18876.42
695.39	18635.35
695.53	19066.00
695.66	19248.57
695.80	18806.20
695.93	18499.59
696.07	18401.29
696.20	18649.39
696.33	18443.42
696.47	18504.28
696.60	18160.22
696.73	17874.67
696.87	18043.19
697.00	17781.05
697.14	17848.93
697.27	17619.55
697.40	17647.64
697.54	17352.73
697.67	17554.02
697.80	17245.07
697.94	17324.65
698.07	17011.01
698.21	17228.68
698.34	17153.79
698.47	17212.30
698.61	16961.86
698.74	16823.77
698.87	16922.07
699.01	16631.85
699.14	16262.04
699.27	16404.81
699.40	16531.20
699.54	16336.94
699.67	16304.17
699.80	16458.65
699.94	16105.23
700.07	16002.24
700.20	16425.88
700.34	16049.05
700.47	16425.88
700.60	16126.29
700.73	16049.05
700.87	15714.36
701.00	15789.25
701.13	15548.18
701.26	15510.73
701.40	15850.11
701.53	15534.14
701.66	15648.82
701.79	15269.66
701.93	15131.56
702.06	15096.46
702.19	15115.18
702.32	15087.09
702.46	14747.72
702.59	14927.94
702.72	15073.05
702.85	14941.98
702.99	14754.74
703.12	14574.52
703.25	14595.58
703.38	14375.57
703.51	14352.16
703.65	14553.45
703.78	14483.24
703.91	14209.39
704.04	14113.43
704.17	14246.84
704.31	14164.92
704.44	14040.87
704.57	14022.15
704.70	13811.50
704.83	13935.55
704.96	14106.41
705.10	13893.42
705.23	13703.84
>>>>>End Processed Spectral Data<<<<<
