SpectraSuite Data File
++++++++++++++++++++++++++++++++++++
Date: Fri Oct 25 10:44:30 EDT 2013
User: price-jones
Dark Spectrum Present: No
Reference Spectrum Present: No
Number of Sampled Component Spectra: 1
Spectrometers: USB2+H05261
Integration Time (usec): 100000 (USB2+H05261)
Spectra Averaged: 1 (USB2+H05261)
Boxcar Smoothing: 0 (USB2+H05261)
Correct for Electrical Dark: No (USB2+H05261)
Strobe/Lamp Enabled: No (USB2+H05261)
Correct for Detector Non-linearity: No (USB2+H05261)
Correct for Stray Light: No (USB2+H05261)
Number of Pixels in Processed Spectrum: 2048
>>>>>Begin Processed Spectral Data<<<<<
365.73	152.13
365.92	152.13
366.12	152.13
366.32	74.90
366.52	21.06
366.72	98.30
366.91	95.96
367.11	11.70
367.31	4.68
367.51	18.72
367.70	0.00
367.90	28.09
368.10	0.00
368.30	25.75
368.49	0.00
368.69	37.45
368.89	77.24
369.09	0.00
369.28	0.00
369.48	25.75
369.68	77.24
369.87	121.71
370.07	81.92
370.27	117.03
370.47	210.65
370.66	339.38
370.86	395.55
371.06	411.93
371.25	496.19
371.45	470.45
371.65	421.30
371.84	383.85
372.04	463.43
372.24	449.38
372.44	461.09
372.63	521.94
372.83	524.28
373.03	557.05
373.22	500.87
373.42	479.81
373.62	479.81
373.81	533.64
374.01	620.24
374.21	491.51
374.40	482.15
374.60	540.66
374.79	510.24
374.99	566.41
375.19	608.54
375.38	608.54
375.58	580.45
375.78	535.98
375.97	617.90
376.17	636.63
376.37	538.32
376.56	526.62
376.76	498.53
376.95	540.66
377.15	655.35
377.35	582.79
377.54	573.43
377.74	582.79
377.93	596.84
378.13	620.24
378.33	643.65
378.52	594.50
378.72	578.11
378.91	566.41
379.11	629.60
379.31	540.66
379.50	592.16
379.70	706.84
379.89	678.76
380.09	671.73
380.28	596.84
380.48	678.76
380.68	643.65
380.87	648.33
381.07	608.54
381.26	634.29
381.46	636.63
381.65	688.12
381.85	692.80
382.04	657.69
382.24	678.76
382.43	723.23
382.63	716.20
382.83	732.59
383.02	734.93
383.22	676.41
383.41	711.52
383.61	695.14
383.80	812.17
384.00	737.27
384.19	800.46
384.39	662.37
384.58	723.23
384.78	779.40
384.97	734.93
385.17	772.38
385.36	767.70
385.56	821.53
385.75	734.93
385.95	791.10
386.14	833.23
386.34	821.53
386.53	819.19
386.72	854.30
386.92	814.51
387.11	870.68
387.31	889.40
387.50	821.53
387.70	770.04
387.89	809.83
388.09	833.23
388.28	835.57
388.48	828.55
388.67	898.77
388.86	870.68
389.06	835.57
389.25	851.96
389.45	966.64
389.64	952.60
389.84	919.83
390.03	1013.45
390.22	866.00
390.42	985.37
390.61	966.64
390.81	924.51
391.00	1001.75
391.19	924.51
391.39	936.21
391.58	994.73
391.78	966.64
391.97	999.41
392.16	1097.71
392.36	1041.54
392.55	980.68
392.75	992.39
392.94	915.15
393.13	968.98
393.33	924.51
393.52	997.07
393.71	959.62
393.91	1034.52
394.10	1043.88
394.29	1102.39
394.49	1055.58
394.68	1219.42
394.88	1130.48
395.07	1177.29
395.26	1273.25
395.46	1142.18
395.65	1196.01
395.84	1100.05
396.04	1179.63
396.23	1118.78
396.42	1027.50
396.62	1188.99
396.81	1203.04
397.00	1170.27
397.19	1170.27
397.39	1280.27
397.58	1336.45
397.77	1282.61
397.97	1338.79
398.16	1322.40
398.35	1348.15
398.55	1294.32
398.74	1404.32
398.93	1362.19
399.12	1413.68
399.32	1282.61
399.51	1369.21
399.70	1446.45
399.90	1383.26
400.09	1460.49
400.28	1462.83
400.47	1460.49
400.67	1446.45
400.86	1458.15
401.05	1420.71
401.24	1486.24
401.44	1542.41
401.63	1713.27
401.82	1547.09
402.01	1589.22
402.21	1516.67
402.40	1734.34
402.59	1666.46
402.78	1636.03
402.97	1584.54
403.17	1638.38
403.36	1706.25
403.55	1666.46
403.74	1762.42
403.93	1746.04
404.13	1769.44
404.32	1717.95
404.51	1692.21
404.70	1748.38
404.89	1781.15
405.09	1790.51
405.28	1755.40
405.47	1771.79
405.66	1797.53
405.85	1884.13
406.05	1757.74
406.24	1914.56
406.43	1872.43
406.62	1879.45
406.81	1977.75
407.00	1940.30
407.20	1839.66
407.39	1846.68
407.58	1944.99
407.77	1963.71
407.96	1982.43
408.15	2071.37
408.34	2005.84
408.54	2155.63
408.73	2057.33
408.92	1973.07
409.11	2125.21
409.30	2087.76
409.49	2160.31
409.68	2019.88
409.87	2150.95
410.07	2193.08
410.26	2181.38
410.45	2249.25
410.64	2150.95
410.83	2298.41
411.02	2324.15
411.21	2455.22
411.40	2275.00
411.59	2401.39
411.78	2392.03
411.98	2417.77
412.17	2347.56
412.36	2569.91
412.55	2457.56
412.74	2476.29
412.93	2602.68
413.12	2590.97
413.31	2733.75
413.50	2581.61
413.69	2649.49
413.88	2654.17
414.07	2670.55
414.26	2754.81
414.45	2771.19
414.64	2771.19
414.83	2792.26
415.02	2731.41
415.22	2775.88
415.41	2974.82
415.60	2944.39
415.79	2963.12
415.98	2967.80
416.17	2928.01
416.36	3061.42
416.55	3056.74
416.74	3000.57
416.93	2949.08
417.12	3133.98
417.31	3108.23
417.50	3056.74
417.69	3173.77
417.88	3269.73
418.07	3159.72
418.26	3304.84
418.45	3241.64
418.64	3241.64
418.83	3361.01
419.02	3328.24
419.21	3279.09
419.39	3445.27
419.58	3281.43
419.77	3300.16
419.96	3342.28
420.15	3454.63
420.34	3412.50
420.53	3527.19
420.72	3592.72
420.91	3590.38
421.10	3588.04
421.29	3672.30
421.48	3400.80
421.67	3534.21
421.86	3559.95
422.05	3595.06
422.24	3632.51
422.43	3644.21
422.61	3557.61
422.80	3665.28
422.99	3583.36
423.18	3665.28
423.37	3639.53
423.56	3772.94
423.75	3765.92
423.94	3639.53
424.13	3538.89
424.32	3538.89
424.50	3836.14
424.69	3733.15
424.88	3831.46
425.07	3754.22
425.26	3588.04
425.45	3648.90
425.64	3669.96
425.83	3726.13
426.01	3758.90
426.20	3845.50
426.39	3623.15
426.58	3698.05
426.77	3620.81
426.96	3824.44
427.15	3854.86
427.33	3829.12
427.52	3742.52
427.71	3946.14
427.90	3887.63
428.09	3838.48
428.28	3983.59
428.46	3899.33
428.65	3943.80
428.84	3967.21
429.03	3983.59
429.22	3983.59
429.40	3859.54
429.59	3929.76
429.78	3866.56
429.97	3798.69
430.16	3894.65
430.34	4032.74
430.53	4107.64
430.72	4067.85
430.91	4095.94
431.10	4105.30
431.28	4243.39
431.47	4379.14
431.66	4425.95
431.85	4219.99
432.03	4205.94
432.22	4287.86
432.41	4402.55
432.60	4325.31
432.79	4313.61
432.97	4493.83
433.16	4496.17
433.35	4301.90
433.54	4402.55
433.72	4475.10
433.91	4367.44
434.10	4526.60
434.28	4535.96
434.47	4442.34
434.66	4592.13
434.85	4667.03
435.03	4697.46
435.22	4610.86
435.41	4840.23
435.59	4762.99
435.78	4828.53
435.97	4901.08
436.16	4727.88
436.34	4880.02
436.53	4858.95
436.72	4983.00
436.90	4833.21
437.09	4865.97
437.28	4781.71
437.46	4873.00
437.65	4828.53
437.84	4919.81
438.02	4842.57
438.21	4865.97
438.40	4870.65
438.58	4922.15
438.77	5095.35
438.96	4947.89
439.14	5263.86
439.33	5317.70
439.52	5207.69
439.70	5252.16
439.89	5401.96
440.08	5493.24
440.26	5345.78
440.45	5336.42
440.63	5446.43
440.82	5558.77
441.01	5551.75
441.19	5703.89
441.38	5682.82
441.57	5666.44
441.75	5748.36
441.94	5949.64
442.12	5806.87
442.31	5963.68
442.50	5919.21
442.68	5923.90
442.87	5839.64
443.05	5802.19
443.24	6141.57
443.43	5926.24
443.61	6108.80
443.80	6251.57
443.98	5905.17
444.17	5905.17
444.35	6164.97
444.54	6162.63
444.73	6090.07
444.91	6080.71
445.10	6179.01
445.28	6179.01
445.47	5961.34
445.65	6071.35
445.84	6066.67
446.02	6218.80
446.21	6157.95
446.39	6150.93
446.58	6176.67
446.77	6183.70
446.95	6029.22
447.14	6483.28
447.32	6340.51
447.51	6139.23
447.69	6122.84
447.88	6347.53
448.06	6384.98
448.25	6169.65
448.43	6410.73
448.62	6125.18
448.80	6242.21
448.99	6333.49
449.17	6277.32
449.36	6457.54
449.54	6506.69
449.73	6518.39
449.91	6796.92
450.10	6696.27
450.28	6850.75
450.46	6640.10
450.65	6944.37
450.83	6633.08
451.02	6766.49
451.20	6651.80
451.39	6808.62
451.57	6710.32
451.76	6785.21
451.94	6670.53
452.13	6874.15
452.31	6689.25
452.49	6590.95
452.68	6832.02
452.86	6731.38
453.05	6904.58
453.23	6911.60
453.42	6719.68
453.60	6965.43
453.78	6909.26
453.97	6979.48
454.15	6848.41
454.34	6825.00
454.52	7103.53
454.70	6916.28
454.89	7126.93
455.07	7253.32
455.26	7115.23
455.44	7052.03
455.62	7248.64
455.81	7225.23
455.99	7382.05
456.17	7335.24
456.36	7222.89
456.54	7351.62
456.73	7447.58
456.91	7552.91
457.09	7468.65
457.28	7822.07
457.46	7557.59
457.64	7674.62
457.83	7751.85
458.01	7419.50
458.19	7756.54
458.38	7592.70
458.56	7840.79
458.74	7679.30
458.93	7791.64
459.11	7805.69
459.29	7597.38
459.48	7990.59
459.66	7772.92
459.84	7971.86
460.03	8039.74
460.21	7971.86
460.39	7978.89
460.57	7737.81
460.76	8091.23
460.94	7957.82
461.12	7943.78
461.31	7988.25
461.49	7878.24
461.67	8191.88
461.85	8255.07
462.04	8425.93
462.22	8444.65
462.40	8355.71
462.59	8184.85
462.77	8374.44
462.95	8306.56
463.13	8306.56
463.32	8470.40
463.50	8482.10
463.68	8629.56
463.86	8521.89
464.05	8498.49
464.23	8231.66
464.41	8451.67
464.59	8308.90
464.78	8645.94
464.96	8613.17
465.14	8355.71
465.32	8786.37
465.50	8667.00
465.69	8812.12
465.87	8683.39
466.05	8795.73
466.23	8861.27
466.41	8788.71
466.60	8889.35
466.78	8671.68
466.96	8903.40
467.14	8767.65
467.32	8842.54
467.51	8802.75
467.69	8475.08
467.87	8919.78
468.05	8999.36
468.23	8901.06
468.41	9001.70
468.60	8971.27
468.78	9294.27
468.96	9123.41
469.14	9172.56
469.32	8971.27
469.50	8990.00
469.69	9156.18
469.87	9121.07
470.05	9121.07
470.23	9247.46
470.41	9327.03
470.59	9252.14
470.77	9320.01
470.95	9437.04
471.14	9605.56
471.32	9430.02
471.50	9745.99
471.68	9643.01
471.86	9720.24
472.04	9958.98
472.22	9973.02
472.40	9802.16
472.58	9760.03
472.77	10008.13
472.95	10134.52
473.13	10354.53
473.31	9827.91
473.49	10033.88
473.67	9940.26
473.85	10043.24
474.03	10333.47
474.21	10509.01
474.39	10253.89
474.57	10480.92
474.75	10551.14
474.93	10562.84
475.12	10647.10
475.30	10630.71
475.48	10768.80
475.66	10846.04
475.84	10642.42
476.02	10731.36
476.20	10689.23
476.38	10988.82
476.56	11070.73
476.74	11236.91
476.92	11360.96
477.10	11351.60
477.28	11351.60
477.46	11295.43
477.64	11459.26
477.82	11889.92
478.00	11936.73
478.18	11754.17
478.36	11667.57
478.54	11971.84
478.72	11922.69
478.90	12194.19
479.08	12105.25
479.26	12343.99
479.44	12458.67
479.62	12418.88
479.80	12643.57
479.98	12512.50
480.16	13057.85
480.34	12798.05
480.52	12910.40
480.70	12959.55
480.88	12964.23
481.06	13153.81
481.24	13254.45
481.41	13352.76
481.59	13760.01
481.77	13830.23
481.95	13755.33
482.13	13647.66
482.31	13455.74
482.49	14181.31
482.67	13996.40
482.85	14059.60
483.03	14438.76
483.21	14539.41
483.39	14923.26
483.57	14555.79
483.74	14679.84
483.92	14925.60
484.10	14941.98
484.28	15028.58
484.46	15377.32
484.64	15328.17
484.82	15297.74
485.00	15260.29
485.18	15594.99
485.35	15587.97
485.53	15515.41
485.71	15620.74
485.89	15651.16
486.07	15932.03
486.25	15887.56
486.43	15887.56
486.61	16105.23
486.78	16594.40
486.96	16425.88
487.14	16568.65
487.32	16615.46
487.50	17212.30
487.68	17209.96
487.85	17345.71
488.03	17783.39
488.21	17933.18
488.39	17514.23
488.57	17659.34
488.75	17865.31
488.92	18211.71
489.10	18448.10
489.28	18775.78
489.46	18827.27
489.64	18590.88
489.81	19161.97
489.99	19154.94
490.17	19103.45
490.35	19124.52
490.53	19318.78
490.70	19133.88
490.88	19248.57
491.06	19613.69
491.24	19550.49
491.41	19892.21
491.59	19906.26
491.77	19988.18
491.95	20236.27
492.13	20357.98
492.30	20332.23
492.48	20521.82
492.66	20748.85
492.84	20610.76
493.01	20816.72
493.19	20814.38
493.37	21158.44
493.54	21163.12
493.72	21392.50
493.90	21717.83
494.08	21846.56
494.25	22015.08
494.43	22134.45
494.61	22359.14
494.79	22235.09
494.96	22115.72
495.14	22478.50
495.32	22752.35
495.49	22422.33
495.67	22824.90
495.85	23028.53
496.02	22843.63
496.20	23070.66
496.38	23192.37
496.55	23433.44
496.73	23775.16
496.91	23489.62
497.09	23798.57
497.26	23882.83
497.44	24032.62
497.62	24077.09
497.79	24252.63
497.97	24032.62
498.14	24599.03
498.32	24376.68
498.50	24154.33
498.67	24589.67
498.85	24889.26
499.03	24940.75
499.20	24884.58
499.38	25200.55
499.56	25294.17
499.73	25186.50
499.91	25427.58
500.08	25181.82
500.26	25289.49
500.44	25521.20
500.61	25652.27
500.79	25420.56
500.97	25951.86
501.14	26040.80
501.32	25883.98
501.49	26078.25
501.67	26319.32
501.84	26216.34
502.02	26340.39
502.20	26558.06
502.37	26775.73
502.55	26298.26
502.72	26714.87
502.90	26712.53
503.07	26925.52
503.25	26705.51
503.43	26803.82
503.60	26958.29
503.78	26869.35
503.95	27220.43
504.13	27246.18
504.30	27456.82
504.48	27466.19
504.65	27927.27
504.83	27765.78
505.01	28006.85
505.18	27690.88
505.36	28065.36
505.53	28294.74
505.71	28699.65
505.88	28493.68
506.06	28168.35
506.23	28425.81
506.41	28409.42
506.58	28233.88
506.76	28591.98
506.93	28507.72
507.11	28861.15
507.28	28573.26
507.46	28802.63
507.63	28645.82
507.81	28964.13
507.98	28837.74
508.16	28980.51
508.33	29235.63
508.50	29532.88
508.68	29277.76
508.85	29762.25
509.03	29408.83
509.20	29788.00
509.38	29916.73
509.55	29898.00
509.73	29900.34
509.90	30012.69
510.08	29766.93
510.25	30209.29
510.42	30176.53
510.60	30583.78
510.77	30291.21
510.95	30518.25
511.12	30391.86
511.30	30700.81
511.47	30866.98
511.64	30906.77
511.82	31000.40
511.99	31037.84
512.17	31016.78
512.34	31035.50
512.51	31360.84
512.69	31758.73
512.86	31229.77
513.04	31475.52
513.21	31459.14
513.38	31519.99
513.56	31861.71
513.73	31248.49
513.90	31332.75
514.08	31690.85
514.25	31847.67
514.43	32004.49
514.60	32187.05
514.77	32034.91
514.95	32222.16
515.12	32467.91
515.29	32598.98
515.47	32720.69
515.64	32954.74
515.81	32540.47
515.99	32503.02
516.16	32730.05
516.33	32472.59
516.51	32680.90
516.68	31936.61
516.85	32393.01
517.03	32844.74
517.20	32753.46
517.37	33031.98
517.54	33174.75
517.72	32833.04
517.89	32933.68
518.06	32760.48
518.24	32964.10
518.41	32844.74
518.58	33041.34
518.75	33301.14
518.93	33703.71
519.10	33729.46
519.27	33621.80
519.45	33940.11
519.62	33663.93
519.79	33944.79
519.96	33804.36
520.14	34057.14
520.31	33507.11
520.48	34384.81
520.65	33944.79
520.83	34548.65
521.00	34653.97
521.17	34499.50
521.34	34611.84
521.52	34876.32
521.69	34639.93
521.86	35068.25
522.03	34878.66
522.20	34649.29
522.38	35098.67
522.55	35182.93
522.72	34834.19
522.89	35330.39
523.07	35360.81
523.24	35070.59
523.41	35791.47
523.58	35154.85
523.75	35838.28
523.92	35892.12
524.10	35892.12
524.27	35997.44
524.44	35871.05
524.61	36055.95
524.78	36011.48
524.96	36568.53
525.13	36147.23
525.30	36568.53
525.47	36395.33
525.64	36130.85
525.81	35999.78
525.98	36339.16
526.16	36280.64
526.33	36041.91
526.50	36407.03
526.67	36222.13
526.84	36187.02
527.01	35847.64
527.18	36739.39
527.36	36685.56
527.53	36968.76
527.70	37310.48
527.87	37060.04
528.04	37123.24
528.21	37177.07
528.38	36786.20
528.55	37139.62
528.72	37528.15
528.89	37624.11
529.07	37495.38
529.24	37455.59
529.41	37619.43
529.58	37207.50
529.75	37523.47
529.92	37773.91
530.09	37493.04
530.26	37656.88
530.43	37706.03
530.60	37731.78
530.77	37998.60
530.94	38293.50
531.11	37635.81
531.28	37970.51
531.46	38181.16
531.63	38251.38
531.80	37759.86
531.97	38146.05
532.14	38012.64
532.31	37794.97
532.48	38518.20
532.65	38267.76
532.82	38717.14
532.99	38443.30
533.16	38237.33
533.33	38323.93
533.50	38621.18
533.67	38756.93
533.84	38667.99
534.01	38799.06
534.18	38934.81
534.35	39009.71
534.52	38934.81
534.69	39438.03
534.86	39178.23
535.03	39122.05
535.20	38916.09
535.37	39498.88
535.54	39686.12
535.71	39246.10
535.88	39037.80
536.05	39285.89
536.22	39590.16
536.38	39601.86
536.55	39257.81
536.72	39201.63
536.89	39098.65
537.06	39510.58
537.23	39452.07
537.40	39531.65
537.57	39337.38
537.74	39819.53
537.91	39997.41
538.08	39679.10
538.25	39988.05
538.42	39517.60
538.59	40079.33
538.75	39793.79
538.92	39889.75
539.09	40271.26
539.26	40219.77
539.43	40285.30
539.60	40046.57
539.77	40009.12
539.94	40479.57
540.11	40360.20
540.28	40292.32
540.44	40158.91
540.61	40236.15
540.78	40360.20
540.95	40643.40
541.12	40631.70
541.29	40294.66
541.46	40678.51
541.62	40491.27
541.79	40687.87
541.96	40542.76
542.13	40212.74
542.30	40458.50
542.47	41020.23
542.63	41127.89
542.80	40531.06
542.97	41340.88
543.14	41387.69
543.31	41457.91
543.48	41357.27
543.64	41757.50
543.81	41837.08
543.98	41619.41
544.15	41347.90
544.32	41801.97
544.48	41794.95
544.65	41713.03
544.82	41977.51
544.99	41457.91
545.16	41764.52
545.32	41879.21
545.49	42396.46
545.66	41975.17
545.83	41785.58
546.00	41893.25
546.16	41993.89
546.33	41701.32
546.50	41886.23
546.67	41996.23
546.83	41617.07
547.00	41605.36
547.17	42220.92
547.34	41813.67
547.50	41675.58
547.67	42319.23
547.84	42384.76
548.00	42492.43
548.17	42628.18
548.34	42457.32
548.51	43028.41
548.67	42644.56
548.84	42525.19
549.01	42426.89
549.18	42616.47
549.34	42539.24
549.51	42726.48
549.68	42852.87
549.84	42630.52
550.01	42747.54
550.18	42562.64
550.34	43051.81
550.51	43002.66
550.68	42841.17
550.84	42742.86
551.01	43065.86
551.18	42841.17
551.34	42770.95
551.51	42913.72
551.68	43133.73
551.84	43309.27
552.01	42810.74
552.18	43225.01
552.34	42993.30
552.51	42574.34
552.68	42670.31
552.84	42862.23
553.01	43463.75
553.18	43421.62
553.34	43220.33
553.51	42721.80
553.67	43372.47
553.84	43473.11
554.01	43538.65
554.17	43239.06
554.34	43660.35
554.51	43835.89
554.67	43552.69
554.84	43723.55
555.00	43449.70
555.17	43428.64
555.33	43304.59
555.50	43416.94
555.67	43466.09
555.83	43674.40
556.00	43590.14
556.16	44275.91
556.33	43278.85
556.50	43725.89
556.66	44318.04
556.83	43737.59
556.99	43655.67
557.16	44273.57
557.32	43917.81
557.49	44280.60
557.65	43475.45
557.82	43744.61
557.98	43779.72
558.15	43576.09
558.32	44238.47
558.48	43810.15
558.65	43824.19
558.81	43744.61
558.98	43519.92
559.14	44154.21
559.31	44168.25
559.47	43945.90
559.64	44411.67
559.80	44425.71
559.97	43824.19
560.13	44313.36
560.30	44074.63
560.46	43789.08
560.63	44065.27
560.79	44479.54
560.96	44418.69
561.12	44259.53
561.29	44034.84
561.45	44325.07
561.61	44374.22
561.78	44119.10
561.94	44205.70
562.11	44170.59
562.27	44147.18
562.44	44524.01
562.60	44631.68
562.77	44617.63
562.93	44493.58
563.10	44236.12
563.26	44081.65
563.42	44367.20
563.59	44425.71
563.75	44552.10
563.92	44378.90
564.08	44474.86
564.24	44353.15
564.41	44175.27
564.57	44610.61
564.74	44570.82
564.90	44987.44
565.07	44481.88
565.23	44135.48
565.39	44470.18
565.56	44828.28
565.72	44753.38
565.88	44411.67
566.05	44512.31
566.21	44837.64
566.38	44502.95
566.54	44395.28
566.70	45280.00
566.87	45085.74
567.03	45134.89
567.19	45181.70
567.36	44669.12
567.52	44289.96
567.68	44568.48
567.85	44697.21
568.01	44959.35
568.17	45031.91
568.34	44418.69
568.50	44549.76
568.66	44884.45
568.83	44884.45
568.99	44418.69
569.15	44706.57
569.32	44917.22
569.48	44231.44
569.64	45146.59
569.81	45275.32
569.97	45170.00
570.13	44807.22
570.30	45247.24
570.46	44528.69
570.62	44751.04
570.78	44594.23
570.95	44818.92
571.11	44959.35
571.27	44919.56
571.43	44830.62
571.60	44931.26
571.76	44783.81
571.92	44842.32
572.09	44711.25
572.25	44921.90
572.41	44678.49
572.57	44928.92
572.74	45268.30
572.90	45055.31
573.06	44788.49
573.22	44865.73
573.38	44872.75
573.55	44992.12
573.71	45078.72
573.87	44861.05
574.03	45006.16
574.20	44992.12
574.36	44744.02
574.52	44982.76
574.68	45240.21
574.84	45525.76
575.01	44818.92
575.17	44928.92
575.33	44971.05
575.49	44921.90
575.65	45375.97
575.82	45191.06
575.98	44837.64
576.14	45495.33
576.30	45340.86
576.46	45097.44
576.62	44933.60
576.79	45109.14
576.95	44699.55
577.11	44942.97
577.27	45357.24
577.43	45284.68
577.59	45385.33
577.75	45153.62
577.92	44542.74
578.08	44694.87
578.24	44811.90
578.40	44596.57
578.56	45439.16
578.72	45022.54
578.88	45703.64
579.04	45551.51
579.21	45287.03
579.37	45359.58
579.53	45270.64
579.69	44765.09
579.85	45170.00
580.01	45134.89
580.17	45247.24
580.33	45127.87
580.49	45338.52
580.65	45619.38
580.82	45078.72
580.98	45059.99
581.14	45415.76
581.30	45404.05
581.46	45202.77
581.62	45390.01
581.78	45099.78
581.94	45303.41
582.10	44788.49
582.26	45268.30
582.42	45223.83
582.58	44989.78
582.74	45212.13
582.90	45343.20
583.06	45703.64
583.22	45132.55
583.38	45916.63
583.54	45579.59
583.70	45385.33
583.86	45319.79
584.02	45015.52
584.18	45434.48
584.34	45319.79
584.50	45074.04
584.66	45106.80
584.82	45109.14
584.98	45448.52
585.14	45457.88
585.30	45308.09
585.46	45511.72
585.62	45102.12
585.78	45483.63
585.94	44713.59
586.10	45160.64
586.26	45106.80
586.42	45645.13
586.58	45511.72
586.74	45207.45
586.90	45209.79
587.06	45015.52
587.22	45226.17
587.38	45055.31
587.54	45301.07
587.70	45605.34
587.86	45600.66
588.02	45488.31
588.18	45251.92
588.34	45111.49
588.49	45167.66
588.65	44957.01
588.81	45057.65
588.97	44823.60
589.13	44957.01
589.29	44795.51
589.45	45249.58
589.61	44961.69
589.77	45434.48
589.93	45649.81
590.08	45375.97
590.24	45277.66
590.40	45886.20
590.56	45773.86
590.72	45516.40
590.88	45167.66
591.04	45705.98
591.20	45996.21
591.35	45968.12
591.51	45736.41
591.67	45432.14
591.83	45551.51
591.99	45322.13
592.15	45705.98
592.31	45476.61
592.46	45507.04
592.62	45450.86
592.78	45628.74
592.94	45865.14
593.10	45153.62
593.26	45661.51
593.41	45476.61
593.57	45336.18
593.73	45392.35
593.89	45301.07
594.05	45340.86
594.20	45488.31
594.36	45523.42
594.52	45563.21
594.68	45345.54
594.84	45282.34
594.99	46131.96
595.15	45610.02
595.31	45514.06
595.47	45645.13
595.62	45471.93
595.78	45530.44
595.94	45785.56
596.10	45965.78
596.25	45745.77
596.41	45928.33
596.57	45495.33
596.73	45375.97
596.88	45670.87
597.04	45549.17
597.20	45982.16
597.36	45347.88
597.51	46146.00
597.67	45979.82
597.83	45806.62
597.99	45839.39
598.14	45755.13
598.30	45663.85
598.46	45221.49
598.61	45364.26
598.77	45495.33
598.93	45741.09
599.09	45720.02
599.24	46080.47
599.40	45731.73
599.56	45963.44
599.71	45530.44
599.87	45907.27
600.03	45244.90
600.18	45525.76
600.34	45902.59
600.50	45228.51
600.65	45677.90
600.81	45427.46
600.97	45830.03
601.12	45846.41
601.28	45977.48
601.44	45380.65
601.59	45282.34
601.75	45825.35
601.91	45347.88
602.06	45205.11
602.22	45469.59
602.37	45556.19
602.53	45626.40
602.69	45930.67
602.84	45490.65
603.00	45595.98
603.16	46019.61
603.31	45368.94
603.47	45497.67
603.62	45497.67
603.78	45830.03
603.94	45298.73
604.09	45563.21
604.25	46174.09
604.40	45794.92
604.56	45390.01
604.71	45808.96
604.87	45469.59
605.03	45638.11
605.18	44987.44
605.34	45336.18
605.49	45008.50
605.65	45315.11
605.80	45738.75
605.96	45764.49
606.12	45528.10
606.27	46045.36
606.43	45160.64
606.58	45521.08
606.74	45151.27
606.89	45612.36
607.05	45476.61
607.20	45797.26
607.36	45324.47
607.51	45984.51
607.67	45312.77
607.82	45375.97
607.98	45179.36
608.13	45202.77
608.29	45106.80
608.44	44942.97
608.60	45165.32
608.75	44942.97
608.91	44884.45
609.06	45181.70
609.22	45350.22
609.37	44797.85
609.53	45272.98
609.68	45413.41
609.84	45141.91
609.99	44289.96
610.15	44879.77
610.30	44931.26
610.46	44528.69
610.61	45155.96
610.76	45003.82
610.92	45214.47
611.07	44924.24
611.23	44788.49
611.38	44917.22
611.54	44671.46
611.69	44903.18
611.84	44678.49
612.00	44577.84
612.15	44786.15
612.31	44844.66
612.46	44968.71
612.62	44449.11
612.77	44758.06
612.92	44835.30
613.08	44842.32
613.23	44652.74
613.39	44648.06
613.54	44786.15
613.69	44758.06
613.85	44758.06
614.00	44744.02
614.15	44931.26
614.31	44568.48
614.46	44687.85
614.62	44467.84
614.77	44481.88
614.92	44435.07
615.08	44765.09
615.23	44154.21
615.38	44636.36
615.54	43863.98
615.69	44158.89
615.84	43819.51
616.00	44233.78
616.15	44516.99
616.30	44336.77
616.46	43896.75
616.61	44224.42
616.76	43817.17
616.92	44140.16
617.07	43945.90
617.22	44086.33
617.37	44027.82
617.53	43957.60
617.68	44027.82
617.83	43786.74
617.99	44505.29
618.14	44495.92
618.29	44039.52
618.45	43892.07
618.60	43566.73
618.75	43484.81
618.90	43889.73
619.06	43761.00
619.21	43601.84
619.36	44140.16
619.51	43618.22
619.67	43550.35
619.82	43917.81
619.97	43899.09
620.12	44194.00
620.28	43681.42
620.43	43611.20
620.58	43667.37
620.73	43187.56
620.89	43543.33
621.04	43510.56
621.19	43225.01
621.34	43658.01
621.49	43309.27
621.65	43555.03
621.80	43793.76
621.95	43445.02
622.10	43051.81
622.25	42815.42
622.41	43019.05
622.56	42958.19
622.71	43208.63
622.86	43124.37
623.01	43332.68
623.16	43496.52
623.32	43136.07
623.47	43182.88
623.62	43152.46
623.77	43206.29
623.92	43356.08
624.07	43234.38
624.23	42859.89
624.38	42784.99
624.53	42447.96
624.68	43019.05
624.83	42810.74
624.98	42817.76
625.13	42674.99
625.29	42611.79
625.44	42990.96
625.59	42129.64
625.74	42506.47
625.89	42195.18
626.04	42555.62
626.19	42649.24
626.34	43063.52
626.49	42824.78
626.65	42869.25
626.80	42955.85
626.95	42967.55
627.10	42529.87
627.25	42375.40
627.40	42094.53
627.55	42508.81
627.70	41935.38
627.85	41893.25
628.00	42567.32
628.15	42321.57
628.30	42143.69
628.45	42656.26
628.60	42096.88
628.76	42045.38
628.91	41975.17
629.06	42101.56
629.21	41743.45
629.36	42218.58
629.51	41804.31
629.66	41855.80
629.81	41659.20
629.96	41743.45
630.11	41818.35
630.26	41940.06
630.41	41865.16
630.56	41752.82
630.71	41986.87
630.86	41902.61
631.01	41539.83
631.16	41827.71
631.31	41684.94
631.46	41371.31
631.61	41691.96
631.76	41624.09
631.91	41748.14
632.06	41469.61
632.21	41731.75
632.36	41869.84
632.51	41804.31
632.66	41380.67
632.81	41368.97
632.96	41193.43
633.10	40882.14
633.25	41371.31
633.40	41904.95
633.55	41537.49
633.70	41134.92
633.85	40947.67
634.00	40779.15
634.15	41572.60
634.30	41258.96
634.45	41139.60
634.60	40816.60
634.75	41081.08
634.90	41113.85
635.05	40598.93
635.19	40615.32
635.34	41074.06
635.49	40734.68
635.64	40535.74
635.79	40891.50
635.94	40786.18
636.09	40788.52
636.24	40297.00
636.39	40187.00
636.53	41170.02
636.68	40687.87
636.83	41057.68
636.98	40971.08
637.13	40458.50
637.28	40704.26
637.43	40748.73
637.57	40781.49
637.72	40535.74
637.87	40804.90
638.02	40575.53
638.17	40718.30
638.32	40402.33
638.46	40414.03
638.61	40147.21
638.76	40151.89
638.91	40442.12
639.06	40610.64
639.20	40191.68
639.35	40304.02
639.50	40327.43
639.65	40280.62
639.80	40236.15
639.94	40601.27
640.09	40467.86
640.24	39880.39
640.39	40051.25
640.54	40449.14
640.68	39861.66
640.83	40093.38
640.98	39814.85
641.13	39744.64
641.27	40119.12
641.42	39641.65
641.57	39859.32
641.72	39929.54
641.86	39599.52
642.01	39236.74
642.16	39885.07
642.31	39171.21
642.45	40069.97
642.60	39241.42
642.75	39559.73
642.90	39494.20
643.04	39716.55
643.19	39543.35
643.34	39702.51
643.48	39548.03
643.63	39271.85
643.78	39033.11
643.93	39082.27
644.07	38976.94
644.22	39246.10
644.37	39189.93
644.51	39461.43
644.66	39718.89
644.81	39754.00
644.95	39552.71
645.10	39763.36
645.25	39346.75
645.39	39456.75
645.54	39503.56
645.69	39084.61
645.83	39026.09
645.98	38745.23
646.13	38946.51
646.27	39445.05
646.42	39063.54
646.57	39030.77
646.71	39222.70
646.86	39318.66
647.00	39316.32
647.15	39267.17
647.30	39196.95
647.44	38899.70
647.59	38871.62
647.74	38742.89
647.88	38951.20
648.03	39105.67
648.17	39140.78
648.32	38747.57
648.47	38656.29
648.61	38391.81
648.76	38927.79
648.90	38913.75
649.05	38646.93
649.20	38520.54
649.34	38438.62
649.49	38394.15
649.63	38197.54
649.78	38312.23
649.92	38590.75
650.07	38806.08
650.21	38244.35
650.36	38363.72
650.51	38136.69
650.65	38586.07
650.80	38698.42
650.94	38288.82
651.09	38490.11
651.23	38251.38
651.38	38588.41
651.52	37961.15
651.67	38122.65
651.81	38073.49
651.96	38342.66
652.10	37872.21
652.25	37928.38
652.39	37848.80
652.54	38157.75
652.68	38143.71
652.83	38251.38
652.97	37998.60
653.12	38038.39
653.26	37895.61
653.41	37701.35
653.55	37699.01
653.70	37556.24
653.84	37759.86
653.99	38080.52
654.13	37893.27
654.27	37577.30
654.42	37446.23
654.56	37701.35
654.71	37614.75
654.85	37572.62
655.00	37598.37
655.14	37699.01
655.29	37085.79
655.43	37401.76
655.57	36842.37
655.72	36964.08
655.86	37165.37
656.01	37242.60
656.15	37191.11
656.30	37060.04
656.44	36980.46
656.58	36664.49
656.73	36926.63
656.87	37277.71
657.01	36828.33
657.16	37031.96
657.30	36568.53
657.45	36800.24
657.59	36720.66
657.73	36638.75
657.88	37296.44
658.02	37383.04
658.16	36910.25
658.31	37144.30
658.45	37413.46
658.60	36360.22
658.74	36753.43
658.88	36645.77
659.03	36659.81
659.17	36912.59
659.31	36519.38
659.46	36320.43
659.60	36311.07
659.74	36854.08
659.89	36912.59
660.03	36280.64
660.17	36566.19
660.32	35866.37
660.46	36601.30
660.60	36297.03
660.74	36383.63
660.89	36109.78
661.03	36156.60
661.17	36168.30
661.32	35639.34
661.46	35782.11
661.60	35964.67
661.74	36041.91
661.89	36126.17
662.03	36044.25
662.17	35826.58
662.31	35592.53
662.46	35838.28
662.60	35742.32
662.74	35688.49
662.88	35644.02
663.03	35424.01
663.17	35428.69
663.31	35211.02
663.45	35201.66
663.60	35379.54
663.74	35019.10
663.88	35108.04
664.02	34808.45
664.17	35365.49
664.31	34953.56
664.45	34855.26
664.59	35342.09
664.73	34679.72
664.88	34918.45
665.02	34754.61
665.16	34632.91
665.30	34756.96
665.44	34761.64
665.59	34731.21
665.73	34579.07
665.87	34487.79
666.01	34209.27
666.15	34396.51
666.29	34333.32
666.44	34513.54
666.58	34164.80
666.72	34108.63
666.86	34096.92
667.00	34195.23
667.14	33886.28
667.28	33970.54
667.43	34096.92
667.57	33750.52
667.71	33795.00
667.85	33666.27
667.99	33682.65
668.13	33614.77
668.27	33677.97
668.41	33565.62
668.56	33670.95
668.70	33692.01
668.84	33362.00
668.98	33060.07
669.12	33041.34
669.26	33425.19
669.40	32662.18
669.54	33003.89
669.68	33163.05
669.82	32793.25
669.96	33067.09
670.10	32790.91
670.25	33137.30
670.39	32622.39
670.53	32449.19
670.67	32783.88
670.81	33010.92
670.95	33097.52
671.09	32650.47
671.23	32435.14
671.37	32318.12
671.51	32818.99
671.65	31768.09
671.79	31901.50
671.93	31938.95
672.07	32170.66
672.21	32496.00
672.35	32105.13
672.49	31955.33
672.63	32561.53
672.77	31690.85
672.91	31761.07
673.05	32041.93
673.19	31569.15
673.33	31622.98
673.47	31374.88
673.61	31424.03
673.75	30979.33
673.89	31332.75
674.03	30789.75
674.17	31206.36
674.31	31182.96
674.45	30885.71
674.59	30817.83
674.73	31124.44
674.87	31026.14
675.01	30541.65
675.15	30967.63
675.29	30572.08
675.43	30590.80
675.56	30412.92
675.70	30293.55
675.84	29977.58
675.98	29406.49
676.12	30403.56
676.26	30249.08
676.40	30132.06
676.54	30125.04
676.68	30253.76
676.82	29701.40
676.96	29954.18
677.10	29656.93
677.23	29628.84
677.37	29474.37
677.51	29298.83
677.65	29043.71
677.79	29074.13
677.93	28889.23
678.07	29160.73
678.21	28687.95
678.34	28755.82
678.48	28828.38
678.62	28304.10
678.76	28290.06
678.90	28243.24
679.04	27875.78
679.18	28105.15
679.31	28355.59
679.45	28109.83
679.59	27824.29
679.73	27594.92
679.87	27800.88
680.00	27232.13
680.14	27688.54
680.28	27510.66
680.42	27316.39
680.56	27592.58
680.70	27594.92
680.83	27487.25
680.97	27482.57
681.11	27253.20
681.25	27084.68
681.39	26731.26
681.52	27000.42
681.66	27012.12
681.80	26522.95
681.94	26600.19
682.07	26637.64
682.21	26548.70
682.35	26663.38
682.49	26405.92
682.62	26452.73
682.76	26125.06
682.90	26174.21
683.04	25949.52
683.17	25610.14
683.31	25582.06
683.45	25591.42
683.59	25766.96
683.72	25366.73
683.86	25514.18
684.00	25050.75
684.13	25432.26
684.27	25078.84
684.41	24975.86
684.55	25034.37
684.68	25099.90
684.82	24952.45
684.96	24954.79
685.09	24975.86
685.23	24744.14
685.37	24732.44
685.50	24664.57
685.64	24734.78
685.78	24278.38
685.91	23934.32
686.05	24046.66
686.19	23775.16
686.32	23754.10
686.46	23323.44
686.60	23646.43
686.73	23419.40
686.87	23260.24
687.01	23487.28
687.14	23110.45
687.28	23030.87
687.42	22951.29
687.55	23073.00
687.69	23185.35
687.82	22745.33
687.96	22885.76
688.10	22813.20
688.23	22654.05
688.37	22501.91
688.50	22230.41
688.64	22321.69
688.78	22003.38
688.91	22029.12
689.05	22242.11
689.18	22120.40
689.32	21865.28
689.46	21893.37
689.59	22244.45
689.73	22162.53
689.86	21902.73
690.00	21844.22
690.13	21827.84
690.27	21556.33
690.41	21537.61
690.54	21130.36
690.68	21165.46
690.81	21027.37
690.95	20959.50
691.08	20840.13
691.22	20994.61
691.35	21113.97
691.49	21008.65
691.62	20931.41
691.76	20893.96
691.89	20568.63
692.03	20140.31
692.16	20559.27
692.30	20362.66
692.43	20140.31
692.57	19985.83
692.70	20020.94
692.84	20112.22
692.97	19737.74
693.11	19751.78
693.24	19660.50
693.38	19520.07
693.51	19255.59
693.65	19814.98
693.78	19407.72
693.92	19728.38
694.05	19641.78
694.19	19711.99
694.32	19248.57
694.45	18979.40
694.59	19094.09
694.72	18869.40
694.86	18890.46
694.99	18773.44
695.13	18567.47
695.26	18572.15
695.39	18249.16
695.53	18501.93
695.66	18455.12
695.80	18494.91
695.93	18232.77
696.07	18111.07
696.20	18328.74
696.33	18192.98
696.47	17900.42
696.60	17949.57
696.73	17776.37
696.87	17628.92
697.00	18120.43
697.14	17603.17
697.27	17668.70
697.40	17523.59
697.54	17373.80
697.67	17228.68
697.80	17020.38
697.94	16966.54
698.07	17277.83
698.21	16826.11
698.34	16966.54
698.47	16620.14
698.61	16507.80
698.74	16554.61
698.87	16631.85
699.01	16400.13
699.14	16226.93
699.27	16142.67
699.40	16208.21
699.54	16163.74
699.67	16269.06
699.80	15948.41
699.94	16081.82
700.07	16035.01
700.20	16006.92
700.34	15798.62
700.47	15925.00
700.60	16128.63
700.73	15985.86
700.87	15587.97
701.00	15396.04
701.13	15482.64
701.26	15597.33
701.40	15370.30
701.53	14965.39
701.66	15122.20
701.79	15012.20
701.93	14998.15
702.06	15049.64
702.19	15056.67
702.32	15089.43
702.46	14586.22
702.59	14700.90
702.72	14785.16
702.85	14768.78
702.99	14464.51
703.12	14499.62
703.25	14305.35
703.38	14307.69
703.51	14331.10
703.65	14155.56
703.78	14122.79
703.91	14064.28
704.04	14075.98
704.17	14078.32
704.31	14134.50
704.44	13659.37
704.57	14003.43
704.70	13872.36
704.83	13666.39
704.96	13748.31
705.10	13734.26
705.23	13783.41
>>>>>End Processed Spectral Data<<<<<
