SpectraSuite Data File
++++++++++++++++++++++++++++++++++++
Date: Fri Oct 25 10:44:46 EDT 2013
User: price-jones
Dark Spectrum Present: No
Reference Spectrum Present: No
Number of Sampled Component Spectra: 1
Spectrometers: USB2+H05261
Integration Time (usec): 100000 (USB2+H05261)
Spectra Averaged: 1 (USB2+H05261)
Boxcar Smoothing: 0 (USB2+H05261)
Correct for Electrical Dark: No (USB2+H05261)
Strobe/Lamp Enabled: No (USB2+H05261)
Correct for Detector Non-linearity: No (USB2+H05261)
Correct for Stray Light: No (USB2+H05261)
Number of Pixels in Processed Spectrum: 2048
>>>>>Begin Processed Spectral Data<<<<<
365.73	105.32
365.92	105.32
366.12	105.32
366.32	32.77
366.52	37.45
366.72	70.22
366.91	63.19
367.11	14.04
367.31	11.70
367.51	14.04
367.70	42.13
367.90	65.54
368.10	25.75
368.30	35.11
368.49	30.43
368.69	49.15
368.89	23.41
369.09	102.98
369.28	81.92
369.48	53.83
369.68	112.35
369.87	72.56
370.07	81.92
370.27	110.01
370.47	201.29
370.66	285.55
370.86	475.13
371.06	374.49
371.25	425.98
371.45	388.53
371.65	463.43
371.84	435.34
372.04	463.43
372.24	503.22
372.44	409.59
372.63	512.58
372.83	475.13
373.03	465.77
373.22	531.30
373.42	503.22
373.62	531.30
373.81	514.92
374.01	545.34
374.21	510.24
374.40	442.36
374.60	564.07
374.79	566.41
374.99	580.45
375.19	538.32
375.38	557.05
375.58	547.69
375.78	587.47
375.97	645.99
376.17	664.71
376.37	594.50
376.56	589.82
376.76	554.71
376.95	566.41
377.15	596.84
377.35	594.50
377.54	643.65
377.74	594.50
377.93	676.41
378.13	585.13
378.33	669.39
378.52	631.94
378.72	592.16
378.91	533.64
379.11	547.69
379.31	655.35
379.50	655.35
379.70	667.05
379.89	634.29
380.09	615.56
380.28	622.58
380.48	674.07
380.68	711.52
380.87	681.10
381.07	667.05
381.26	627.26
381.46	660.03
381.65	641.31
381.85	645.99
382.04	648.33
382.24	664.71
382.43	660.03
382.63	592.16
382.83	697.48
383.02	755.99
383.22	676.41
383.41	676.41
383.61	711.52
383.80	725.57
384.00	702.16
384.19	669.39
384.39	798.12
384.58	695.14
384.78	730.25
384.97	739.61
385.17	781.74
385.36	704.50
385.56	692.80
385.75	704.50
385.95	739.61
386.14	812.17
386.34	732.59
386.53	793.44
386.72	802.80
386.92	844.93
387.11	809.83
387.31	727.91
387.50	793.44
387.70	816.85
387.89	763.01
388.09	851.96
388.28	798.12
388.48	716.20
388.67	877.70
388.86	931.53
389.06	844.93
389.25	875.36
389.45	945.58
389.64	954.94
389.84	851.96
390.03	999.41
390.22	830.89
390.42	901.11
390.61	954.94
390.81	896.43
391.00	936.21
391.19	987.71
391.39	933.87
391.58	1081.33
391.78	992.39
391.97	898.77
392.16	891.74
392.36	1018.13
392.55	933.87
392.75	968.98
392.94	938.55
393.13	978.34
393.33	819.19
393.52	999.41
393.71	1043.88
393.91	1071.97
394.10	1067.28
394.29	1039.20
394.49	1057.92
394.68	1128.14
394.88	1074.31
395.07	1074.31
395.26	1179.63
395.46	1095.37
395.65	1193.67
395.84	1071.97
396.04	1203.04
396.23	1081.33
396.42	985.37
396.62	1114.10
396.81	1170.27
397.00	1151.54
397.19	1125.80
397.39	1177.29
397.58	1217.08
397.77	1261.55
397.97	1217.08
398.16	1268.57
398.35	1287.29
398.55	1308.36
398.74	1362.19
398.93	1306.02
399.12	1249.85
399.32	1221.76
399.51	1327.08
399.70	1427.73
399.90	1355.17
400.09	1378.58
400.28	1376.24
400.47	1413.68
400.67	1474.54
400.86	1572.84
401.05	1446.45
401.24	1420.71
401.44	1526.03
401.63	1650.08
401.82	1479.22
402.01	1430.07
402.21	1455.81
402.40	1556.46
402.59	1607.95
402.78	1575.18
402.97	1490.92
403.17	1570.50
403.36	1643.06
403.55	1743.70
403.74	1624.33
403.93	1750.72
404.13	1631.35
404.32	1720.29
404.51	1708.59
404.70	1668.80
404.89	1661.78
405.09	1746.04
405.28	1816.26
405.47	1715.61
405.66	1781.15
405.85	1778.81
406.05	1760.08
406.24	1706.25
406.43	1916.90
406.62	1757.74
406.81	1849.02
407.00	1846.68
407.20	1830.30
407.39	1853.70
407.58	1970.73
407.77	1966.05
407.96	1977.75
408.15	2050.31
408.34	1984.77
408.54	2033.93
408.73	1961.37
408.92	1989.46
409.11	2005.84
409.30	1980.09
409.49	2113.50
409.68	2062.01
409.87	2026.90
410.07	2043.29
410.26	2122.87
410.45	2284.36
410.64	2120.53
410.83	2179.04
411.02	2230.53
411.21	2305.43
411.40	2214.15
411.59	2312.45
411.78	2270.32
411.98	2359.26
412.17	2394.37
412.36	2389.69
412.55	2331.17
412.74	2478.63
412.93	2352.24
413.12	2511.39
413.31	2665.87
413.50	2523.10
413.69	2626.08
413.88	2572.25
414.07	2628.42
414.26	2633.10
414.45	2677.57
414.64	2689.28
414.83	2832.05
415.02	2803.96
415.22	2836.73
415.41	2778.22
415.60	2670.55
415.79	2874.18
415.98	2935.03
416.17	2928.01
416.36	2717.36
416.55	2953.76
416.74	2972.48
416.93	3019.29
417.12	2958.44
417.31	2892.90
417.50	2942.05
417.69	3190.15
417.88	3206.53
418.07	3045.04
418.26	3070.78
418.45	3026.31
418.64	3159.72
418.83	3190.15
419.02	3103.55
419.21	3300.16
419.39	3302.50
419.58	3267.39
419.77	3232.28
419.96	3204.19
420.15	3234.62
420.34	3258.03
420.53	3466.33
420.72	3452.29
420.91	3356.33
421.10	3412.50
421.29	3449.95
421.48	3396.12
421.67	3375.05
421.86	3508.46
422.05	3421.86
422.24	3344.63
422.43	3471.01
422.61	3475.70
422.80	3611.45
422.99	3630.17
423.18	3609.11
423.37	3428.88
423.56	3452.29
423.75	3513.14
423.94	3281.43
424.13	3433.57
424.32	3466.33
424.50	3660.60
424.69	3562.30
424.88	3588.04
425.07	3524.85
425.26	3569.32
425.45	3447.61
425.64	3459.31
425.83	3735.50
426.01	3653.58
426.20	3536.55
426.39	3452.29
426.58	3641.87
426.77	3686.34
426.96	3609.11
427.15	3665.28
427.33	3569.32
427.52	3693.37
427.71	3723.79
427.90	3777.62
428.09	3669.96
428.28	3779.97
428.46	3794.01
428.65	3925.08
428.84	3929.76
429.03	3840.82
429.22	3749.54
429.40	3836.14
429.59	3794.01
429.78	3506.12
429.97	3669.96
430.16	3901.67
430.34	3765.92
430.53	3840.82
430.72	4039.76
430.91	3866.56
431.10	3875.93
431.28	4140.41
431.47	4236.37
431.66	4128.70
431.85	4105.30
432.03	4238.71
432.22	4297.22
432.41	4203.60
432.60	4283.18
432.79	4278.50
432.97	4327.65
433.16	4315.95
433.35	4219.99
433.54	4353.40
433.72	4255.09
433.91	4184.88
434.10	4447.02
434.28	4315.95
434.47	4414.25
434.66	4262.12
434.85	4493.83
435.03	4528.94
435.22	4407.23
435.41	4702.14
435.59	4580.43
435.78	4629.58
435.97	4599.15
436.16	4624.90
436.34	4788.74
436.53	4732.56
436.72	4688.09
436.90	4353.40
437.09	4662.35
437.28	4526.60
437.46	4737.24
437.65	4739.58
437.84	4774.69
438.02	4524.26
438.21	4772.35
438.40	4690.43
438.58	4896.40
438.77	4898.74
438.96	4940.87
439.14	5083.64
439.33	5137.48
439.52	5179.61
439.70	5097.69
439.89	5172.58
440.08	5275.57
440.26	5254.50
440.45	5160.88
440.63	5254.50
440.82	5320.04
441.01	5434.72
441.19	5376.21
441.38	5411.32
441.57	5570.48
441.75	5504.94
441.94	5650.05
442.12	5675.80
442.31	5832.62
442.50	5792.83
442.68	5830.27
442.87	5586.86
443.05	5671.12
443.24	5834.96
443.43	5706.23
443.61	5820.91
443.80	5937.94
443.98	5741.33
444.17	5643.03
444.35	5717.93
444.54	5970.71
444.73	5795.17
444.91	5872.40
445.10	5919.21
445.28	5675.80
445.47	5802.19
445.65	5778.78
445.84	6029.22
446.02	6080.71
446.21	5849.00
446.39	5984.75
446.58	6054.97
446.77	6085.39
446.95	5891.13
447.14	5989.43
447.32	6050.28
447.51	6050.28
447.69	6050.28
447.88	6071.35
448.06	6251.57
448.25	6104.12
448.43	6047.94
448.62	6148.59
448.80	6080.71
448.99	6080.71
449.17	6146.25
449.36	6033.90
449.54	6174.33
449.73	6431.79
449.91	6457.54
450.10	6396.68
450.28	6413.07
450.46	6483.28
450.65	6420.09
450.83	6593.29
451.02	6509.03
451.20	6483.28
451.39	6466.90
451.57	6487.96
451.76	6462.22
451.94	6384.98
452.13	6443.49
452.31	6560.52
452.49	6520.73
452.68	6534.78
452.86	6626.06
453.05	6654.14
453.23	6600.31
453.42	6562.86
453.60	6712.66
453.78	6843.73
453.97	6619.04
454.15	6705.63
454.34	6485.62
454.52	7007.56
454.70	6902.24
454.89	6815.64
455.07	6885.86
455.26	6988.84
455.44	6925.65
455.62	7131.61
455.81	6899.90
455.99	7068.42
456.17	6813.30
456.36	6995.86
456.54	7180.76
456.73	7180.76
456.91	7412.48
457.09	7288.43
457.28	7541.21
457.46	7260.34
457.64	7302.47
457.83	7192.47
458.01	7459.29
458.19	7485.03
458.38	7321.20
458.56	7679.30
458.74	7683.98
458.93	7283.75
459.11	7435.88
459.29	7625.47
459.48	7506.10
459.66	7606.74
459.84	7632.49
460.03	7733.13
460.21	7620.78
460.39	7698.02
460.57	7667.60
460.76	7819.73
460.94	7810.37
461.12	7838.45
461.31	7960.16
461.49	7765.90
461.67	7857.18
461.85	7936.76
462.04	7906.33
462.22	8072.51
462.40	7948.46
462.59	8159.11
462.77	7871.22
462.95	8039.74
463.13	8175.49
463.32	8023.36
463.50	8208.26
463.68	8248.05
463.86	7999.95
464.05	8065.49
464.23	8252.73
464.41	8510.19
464.59	8086.55
464.78	8271.45
464.96	8332.31
465.14	8241.03
465.32	8292.52
465.50	8578.06
465.69	8634.24
465.87	8472.74
466.05	8248.05
466.23	8402.52
466.41	8409.54
466.60	8315.92
466.78	8369.76
466.96	8599.13
467.14	8383.80
467.32	8554.66
467.51	8624.87
467.69	8393.16
467.87	8486.78
468.05	8676.37
468.23	8692.75
468.41	8596.79
468.60	8716.16
468.78	8758.28
468.96	8758.28
469.14	8847.22
469.32	8959.57
469.50	8699.77
469.69	8830.84
469.87	9011.06
470.05	8987.66
470.23	9114.05
470.41	8898.72
470.59	8917.44
470.77	9067.24
470.95	9210.01
471.14	9177.24
471.32	9102.34
471.50	9287.25
471.68	9378.53
471.86	9437.04
472.04	9542.36
472.22	9771.74
472.40	9132.77
472.58	9458.10
472.77	9451.08
472.95	9600.88
473.13	9811.53
473.31	9476.83
473.49	9528.32
473.67	9661.73
473.85	9905.15
474.03	10059.62
474.21	10129.84
474.39	10113.45
474.57	9996.43
474.75	10242.18
474.93	10223.46
475.12	10450.49
475.30	10396.66
475.48	10127.50
475.66	10441.13
475.84	10139.20
476.02	10478.58
476.20	10623.69
476.38	10850.72
476.56	10904.56
476.74	10801.57
476.92	10558.16
477.10	10885.83
477.28	11030.94
477.46	11000.52
477.64	11154.99
477.82	11119.89
478.00	11431.18
478.18	11241.59
478.36	11265.00
478.54	11623.10
478.72	11590.33
478.90	11749.49
479.08	11974.18
479.26	11796.30
479.44	12018.65
479.62	11864.18
479.80	12109.93
479.98	12175.47
480.16	12458.67
480.34	12250.36
480.52	12819.11
480.70	12571.02
480.88	12575.70
481.06	12652.94
481.24	12765.28
481.41	13085.94
481.59	13069.55
481.77	13355.10
481.95	13352.76
482.13	13364.46
482.31	13432.33
482.49	13631.28
482.67	13635.96
482.85	13879.38
483.03	13867.67
483.21	13841.93
483.39	14317.06
483.57	13881.72
483.74	14427.06
483.92	14331.10
484.10	14265.57
484.28	14597.92
484.46	14675.16
484.64	15009.86
484.82	14785.16
485.00	14888.15
485.18	15044.96
485.35	15094.11
485.53	15286.04
485.71	15122.20
485.89	15246.25
486.07	15318.81
486.25	15634.78
486.43	15719.04
486.61	15922.66
486.78	15995.22
486.96	16088.84
487.14	16187.14
487.32	16334.60
487.50	16753.55
487.68	16608.44
487.85	16716.11
488.03	17172.51
488.21	17177.19
488.39	17106.98
488.57	17144.42
488.75	17373.80
488.92	17453.37
489.10	17649.98
489.28	17942.55
489.46	18082.98
489.64	18174.26
489.81	18438.74
489.99	18782.80
490.17	18792.16
490.35	18932.59
490.53	18604.92
490.70	18855.36
490.88	18820.25
491.06	19147.92
491.24	19557.52
491.41	19047.28
491.59	19433.47
491.77	19028.56
491.95	19536.45
492.13	19321.12
492.30	19997.54
492.48	20065.41
492.66	19939.02
492.84	20222.23
493.01	20390.75
493.19	20517.14
493.37	20491.39
493.54	20711.40
493.72	21109.29
493.90	20692.68
494.08	21116.31
494.25	21130.36
494.43	21369.09
494.61	21453.35
494.79	21436.97
494.96	21713.15
495.14	21724.85
495.32	21764.64
495.49	22136.79
495.67	22022.10
495.85	22246.79
496.02	22174.24
496.20	22104.02
496.38	22464.46
496.55	22464.46
496.73	23056.62
496.91	23009.81
497.09	23075.34
497.26	23335.14
497.44	22916.19
497.62	23140.88
497.79	23515.36
497.97	23164.28
498.14	23791.55
498.32	23726.01
498.50	23707.29
498.67	24123.90
498.85	24058.37
499.03	24130.92
499.20	23901.55
499.38	24535.84
499.56	24329.87
499.73	24460.94
499.91	24929.05
500.08	24814.36
500.26	24556.90
500.44	24790.95
500.61	24961.81
500.79	24528.81
500.97	24805.00
501.14	25326.94
501.32	25223.95
501.49	25116.29
501.67	25359.70
501.84	25495.46
502.02	25553.97
502.20	25893.35
502.37	25654.61
502.55	25680.36
502.72	25500.14
502.90	26017.40
503.07	26017.40
503.25	25982.29
503.43	26195.28
503.60	26228.04
503.78	26333.37
503.95	26178.89
504.13	26628.27
504.30	26539.33
504.48	26757.00
504.65	26656.36
504.83	27028.51
505.01	27204.05
505.18	27220.43
505.36	27480.23
505.53	27250.86
505.71	27573.85
505.88	27538.74
506.06	27318.73
506.23	27435.76
506.41	27438.10
506.58	27725.99
506.76	27840.67
506.93	27864.08
507.11	27950.68
507.28	28016.21
507.46	27695.56
507.63	28046.64
507.81	28528.79
507.98	27920.25
508.16	28535.81
508.33	28547.51
508.50	28706.67
508.68	28608.37
508.85	28737.10
509.03	28889.23
509.20	28980.51
509.38	28837.74
509.55	29242.65
509.73	28943.06
509.90	29507.13
510.08	29111.58
510.25	29301.17
510.42	29418.19
510.60	29598.41
510.77	29502.45
510.95	29834.81
511.12	29949.50
511.30	29937.79
511.47	30288.87
511.64	30092.27
511.82	30263.13
511.99	29968.22
512.17	30174.19
512.34	30558.03
512.51	30405.90
512.69	30543.99
512.86	30543.99
513.04	30766.34
513.21	30433.99
513.38	30602.50
513.56	30401.22
513.73	30742.94
513.90	30602.50
514.08	31103.38
514.25	31311.69
514.43	31206.36
514.60	31166.57
514.77	31365.52
514.95	31358.50
515.12	31402.97
515.29	31402.97
515.47	31527.02
515.64	31798.52
515.81	31473.18
515.99	31676.81
516.16	31594.89
516.33	31519.99
516.51	31948.31
516.68	31543.40
516.85	31414.67
517.03	31611.28
517.20	32194.07
517.37	32088.74
517.54	32432.80
517.72	31999.80
517.89	32126.19
518.06	31835.97
518.24	32180.03
518.41	32222.16
518.58	32510.04
518.75	32680.90
518.93	33020.28
519.10	32985.17
519.27	32418.76
519.45	33027.30
519.62	33050.70
519.79	33050.70
519.96	33574.98
520.14	33453.28
520.31	32940.70
520.48	33364.34
520.65	33331.57
520.83	33900.32
521.00	33677.97
521.17	33909.68
521.34	34029.05
521.52	33612.43
521.69	33741.16
521.86	34209.27
522.03	34607.16
522.20	34164.80
522.38	34164.80
522.55	34045.43
522.72	34085.22
522.89	33905.00
523.07	34787.38
523.24	34567.37
523.41	34469.07
523.58	34483.11
523.75	35019.10
523.92	34983.99
524.10	35009.73
524.27	35182.93
524.44	34841.21
524.61	35119.74
524.78	35225.06
524.96	35604.23
525.13	35342.09
525.30	35814.88
525.47	35847.64
525.64	35718.92
525.81	35367.84
525.98	35552.74
526.16	35377.20
526.33	35028.46
526.50	35381.88
526.67	35662.74
526.84	35498.91
527.01	35477.84
527.18	35494.22
527.36	35981.06
527.53	35941.27
527.70	36556.83
527.87	36053.61
528.04	36037.23
528.21	36112.13
528.38	36247.88
528.55	36568.53
528.72	37273.03
528.89	36692.58
529.07	36320.43
529.24	36456.18
529.41	36669.17
529.58	36247.88
529.75	36547.47
529.92	36879.82
530.09	36594.28
530.26	36790.88
530.43	37205.16
530.60	36840.03
530.77	37216.86
530.94	37305.80
531.11	37038.98
531.28	37687.31
531.46	37462.61
531.63	37624.11
531.80	37626.45
531.97	37563.26
532.14	37123.24
532.31	37160.69
532.48	37153.66
532.65	37181.75
532.82	37415.80
532.99	37734.12
533.16	37811.35
533.33	38068.81
533.50	38115.62
533.67	37715.39
533.84	37661.56
534.01	37867.53
534.18	37872.21
534.35	38607.14
534.52	37792.63
534.69	38242.01
534.86	38359.04
535.03	38096.90
535.20	38595.43
535.37	38637.56
535.54	39007.37
535.71	38567.35
535.88	38979.28
536.05	38167.12
536.22	38785.02
536.38	38761.61
536.55	38735.87
536.72	38593.09
536.89	38506.49
537.06	38724.16
537.23	38742.89
537.40	38801.40
537.57	39145.46
537.74	39147.80
537.91	39014.39
538.08	39232.06
538.25	38803.74
538.42	38742.89
538.59	39311.64
538.75	38866.94
538.92	39229.72
539.09	39449.73
539.26	39203.97
539.43	39203.97
539.60	39253.12
539.77	39110.35
539.94	39281.21
540.11	39388.88
540.28	39227.38
540.44	39810.17
540.61	39742.30
540.78	39271.85
540.95	39585.48
541.12	39321.00
541.29	39477.82
541.46	39473.13
541.62	39651.02
541.79	39725.91
541.96	39611.23
542.13	39587.82
542.30	39892.09
542.47	39962.31
542.63	39826.56
542.80	40271.26
542.97	40664.47
543.14	40645.74
543.31	40886.82
543.48	40388.28
543.64	41174.70
543.81	41050.66
543.98	40919.59
544.15	40893.84
544.32	40624.68
544.48	40662.13
544.65	41200.45
544.82	41291.73
544.99	40542.76
545.16	40868.09
545.32	40423.39
545.49	41172.36
545.66	41097.47
545.83	41312.80
546.00	41258.96
546.16	41352.58
546.33	40947.67
546.50	40746.39
546.67	41188.75
546.83	40884.48
547.00	41497.70
547.17	41191.09
547.34	40847.03
547.50	41532.81
547.67	41205.13
547.84	41270.67
548.00	41635.79
548.17	41869.84
548.34	41471.95
548.51	41834.74
548.67	41933.04
548.84	41675.58
549.01	41397.06
549.18	41553.87
549.34	41890.91
549.51	41837.08
549.68	42078.15
549.84	41937.72
550.01	41928.36
550.18	42066.45
550.34	42164.75
550.51	42213.90
550.68	42012.62
550.84	41968.15
551.01	41837.08
551.18	42167.09
551.34	41918.99
551.51	42188.16
551.68	42586.05
551.84	42085.17
552.01	42029.00
552.18	42532.22
552.34	42401.14
552.51	42745.20
552.68	42574.34
552.84	42724.14
553.01	42471.36
553.18	42096.88
553.34	42532.22
553.51	42270.08
553.67	42366.04
553.84	42646.90
554.01	42567.32
554.17	42499.45
554.34	43035.43
554.51	42944.15
554.67	42560.30
554.84	42663.28
555.00	42838.83
555.17	42752.23
555.33	42735.84
555.50	42843.51
555.67	43278.85
555.83	42487.74
556.00	42845.85
556.16	43522.26
556.33	43002.66
556.50	42630.52
556.66	43435.66
556.83	42684.35
556.99	43096.28
557.16	43442.68
557.32	43447.36
557.49	42969.90
557.65	43033.09
557.82	42635.20
557.98	43229.69
558.15	43115.01
558.32	43449.70
558.48	42787.33
558.65	43117.35
558.81	43133.73
558.98	43161.82
559.14	43164.16
559.31	43515.24
559.47	43206.29
559.64	43590.14
559.80	43269.48
559.97	43414.60
560.13	43402.89
560.30	43391.19
560.46	43281.19
560.63	43964.62
560.79	43292.89
560.96	43983.35
561.12	43796.10
561.29	43618.22
561.45	43683.76
561.61	43557.37
561.78	43548.01
561.94	43660.35
562.11	43042.45
562.27	43625.25
562.44	43899.09
562.60	43805.47
562.77	43639.29
562.93	43604.18
563.10	44353.15
563.26	43264.80
563.42	43786.74
563.59	43761.00
563.75	43894.41
563.92	43702.48
564.08	44165.91
564.24	43899.09
564.41	43852.28
564.57	43775.04
564.74	43611.20
564.90	43791.42
565.07	43753.97
565.23	43466.09
565.39	43833.55
565.56	44027.82
565.72	43718.87
565.88	44163.57
566.05	43646.31
566.21	43779.72
566.38	43742.27
566.54	43775.04
566.70	44053.56
566.87	44158.89
567.03	44238.47
567.19	44692.53
567.36	43983.35
567.52	44065.27
567.68	44477.20
567.85	43601.84
568.01	44271.23
568.17	44245.49
568.34	44076.97
568.50	43992.71
568.66	43920.15
568.83	43594.82
568.99	44149.53
569.15	43906.11
569.32	43650.99
569.48	43971.64
569.64	44135.48
569.81	44266.55
569.97	44617.63
570.13	44240.81
570.30	43969.30
570.46	44093.35
570.62	44013.77
570.78	43643.97
570.95	43917.81
571.11	43948.24
571.27	44154.21
571.43	43885.04
571.60	43784.40
571.76	43969.30
571.92	44465.50
572.09	44126.12
572.25	44425.71
572.41	44238.47
572.57	44439.75
572.74	44854.03
572.90	44357.83
573.06	44538.05
573.22	44165.91
573.38	44266.55
573.55	44645.72
573.71	44669.12
573.87	44542.74
574.03	44605.93
574.20	44217.40
574.36	44306.34
574.52	44488.90
574.68	44626.99
574.84	44531.03
575.01	44467.84
575.17	44917.22
575.33	44311.02
575.49	43938.88
575.65	44425.71
575.82	44933.60
575.98	44240.81
576.14	44809.56
576.30	44502.95
576.46	44079.31
576.62	44236.12
576.79	44746.36
576.95	44189.31
577.11	44540.39
577.27	44467.84
577.43	44488.90
577.59	44186.97
577.75	44442.09
577.92	43761.00
578.08	44119.10
578.24	44128.46
578.40	44229.10
578.56	44631.68
578.72	44512.31
578.88	44505.29
579.04	44797.85
579.21	44800.19
579.37	44189.31
579.53	44289.96
579.69	44484.22
579.85	44500.61
580.01	44446.77
580.17	44575.50
580.33	44261.87
580.49	44760.40
580.65	44711.25
580.82	44711.25
580.98	44409.32
581.14	43934.20
581.30	44662.10
581.46	44769.77
581.62	44439.75
581.78	44505.29
581.94	44680.83
582.10	44055.90
582.26	44423.37
582.42	44512.31
582.58	44535.71
582.74	44573.16
582.90	44449.11
583.06	44765.09
583.22	44957.01
583.38	45158.30
583.54	44732.32
583.70	44692.53
583.86	44662.10
584.02	44432.73
584.18	44292.30
584.34	44486.56
584.50	44737.00
584.66	44395.28
584.82	44514.65
584.98	44718.28
585.14	44458.48
585.30	44516.99
585.46	44683.17
585.62	44617.63
585.78	44226.76
585.94	44196.34
586.10	44495.92
586.26	44772.11
586.42	44318.04
586.58	44835.30
586.74	44786.15
586.90	44168.25
587.06	44250.17
587.22	44776.79
587.38	44449.11
587.54	45102.12
587.70	44795.51
587.86	44910.20
588.02	44751.04
588.18	44678.49
588.34	45200.43
588.49	44287.62
588.65	43995.05
588.81	44198.68
588.97	44470.18
589.13	44507.63
589.29	44465.50
589.45	44404.64
589.61	44608.27
589.77	44598.91
589.93	44645.72
590.08	44673.81
590.24	44711.25
590.40	45062.33
590.56	44966.37
590.72	44449.11
590.88	44638.70
591.04	45050.63
591.20	45130.21
591.35	45258.94
591.51	45249.58
591.67	44870.41
591.83	44865.73
591.99	44790.83
592.15	44931.26
592.31	45024.89
592.46	44870.41
592.62	44596.57
592.78	44486.56
592.94	44744.02
593.10	44481.88
593.26	45263.62
593.41	44762.75
593.57	44839.98
593.73	44882.11
593.89	45059.99
594.05	44992.12
594.20	45083.40
594.36	45507.04
594.52	44514.65
594.68	44989.78
594.84	44830.62
594.99	45151.27
595.15	44814.24
595.31	45270.64
595.47	45235.53
595.62	45401.71
595.78	45130.21
595.94	44940.63
596.10	44912.54
596.25	45090.42
596.41	45153.62
596.57	44842.32
596.73	45003.82
596.88	44343.79
597.04	45113.83
597.20	44570.82
597.36	45064.67
597.51	44952.33
597.67	45333.84
597.83	44917.22
597.99	44825.94
598.14	45429.80
598.30	45099.78
598.46	44985.10
598.61	44514.65
598.77	44949.99
598.93	44793.17
599.09	45139.57
599.24	45537.46
599.40	45158.30
599.56	44861.05
599.71	45284.68
599.87	45275.32
600.03	44957.01
600.18	44767.43
600.34	45397.03
600.50	44886.79
600.65	44891.48
600.81	45574.91
600.97	44945.31
601.12	45478.95
601.28	45104.46
601.44	44940.63
601.59	44790.83
601.75	44622.31
601.91	44617.63
602.06	44949.99
602.22	45167.66
602.37	44807.22
602.53	45427.46
602.69	45209.79
602.84	44636.36
603.00	44893.82
603.16	44790.83
603.31	45464.91
603.47	44708.91
603.62	44924.24
603.78	45237.87
603.94	44451.45
604.09	45106.80
604.25	45347.88
604.40	44563.80
604.56	44926.58
604.71	44739.34
604.87	44863.39
605.03	44767.43
605.18	44748.70
605.34	44900.84
605.49	44837.64
605.65	44938.29
605.80	44865.73
605.96	44844.66
606.12	44849.35
606.27	45745.77
606.43	44325.07
606.58	45153.62
606.74	44591.89
606.89	44669.12
607.05	44971.05
607.20	45059.99
607.36	44973.39
607.51	45036.59
607.67	44549.76
607.82	44931.26
607.98	45235.53
608.13	44549.76
608.29	44610.61
608.44	44421.03
608.60	44598.91
608.75	44252.51
608.91	44959.35
609.06	44296.98
609.22	44231.44
609.37	44491.24
609.53	44818.92
609.68	44442.09
609.84	44662.10
609.99	44587.21
610.15	44645.72
610.30	43990.37
610.46	44123.78
610.61	44486.56
610.76	44538.05
610.92	44631.68
611.07	44472.52
611.23	44744.02
611.38	44465.50
611.54	44034.84
611.69	43966.96
611.84	44289.96
612.00	44161.23
612.15	43920.15
612.31	44509.97
612.46	44126.12
612.62	44554.44
612.77	43833.55
612.92	44491.24
613.08	43779.72
613.23	44285.28
613.39	44353.15
613.54	43899.09
613.69	44069.95
613.85	44170.59
614.00	44458.48
614.15	44095.69
614.31	43976.33
614.46	44680.83
614.62	44095.69
614.77	43704.82
614.92	43831.21
615.08	43543.33
615.23	43828.87
615.38	43786.74
615.54	43306.93
615.69	43896.75
615.84	43594.82
616.00	43344.38
616.15	43412.26
616.30	43880.36
616.46	43068.20
616.61	43524.60
616.76	43599.50
616.92	43164.16
617.07	43311.61
617.22	43306.93
617.37	42937.13
617.53	43496.52
617.68	43725.89
617.83	43835.89
617.99	43988.03
618.14	43765.68
618.29	43751.63
618.45	42902.02
618.60	43028.41
618.75	43543.33
618.90	43157.14
619.06	43419.28
619.21	43299.91
619.36	43480.13
619.51	43351.40
619.67	43330.34
619.82	44095.69
619.97	43732.91
620.12	42988.62
620.28	42588.39
620.43	42845.85
620.58	43400.55
620.73	42869.25
620.89	43023.73
621.04	42689.03
621.19	42836.48
621.34	43192.25
621.49	43173.52
621.65	42707.76
621.80	43115.01
621.95	42820.10
622.10	42782.65
622.25	42440.93
622.41	42733.50
622.56	42291.14
622.71	43084.58
622.86	42581.37
623.01	42284.12
623.16	42937.13
623.32	42913.72
623.47	42738.18
623.62	42136.66
623.77	42719.46
623.92	42873.93
624.07	42674.99
624.23	42483.06
624.38	42417.53
624.53	42279.44
624.68	42335.61
624.83	42494.77
624.98	42415.19
625.13	42209.22
625.29	42518.17
625.44	42323.91
625.59	42440.93
625.74	41750.48
625.89	42270.08
626.04	41647.49
626.19	42003.25
626.34	41923.68
626.49	42204.54
626.65	41883.89
626.80	42279.44
626.95	42487.74
627.10	41586.64
627.25	41551.53
627.40	41853.46
627.55	41799.63
627.70	41361.95
627.85	41422.80
628.00	41532.81
628.15	41614.72
628.30	41530.47
628.45	41909.63
628.60	41820.69
628.76	42122.62
628.91	41816.01
629.06	41619.41
629.21	41467.27
629.36	41610.04
629.51	41244.92
629.66	41158.32
629.81	41120.87
629.96	41394.71
630.11	41600.68
630.26	41392.37
630.41	41680.26
630.56	41350.24
630.71	41429.82
630.86	41258.96
631.01	41071.72
631.16	41324.50
631.31	41116.19
631.46	41174.70
631.61	41020.23
631.76	40942.99
631.91	41207.47
632.06	41242.58
632.21	41205.13
632.36	41441.53
632.51	40966.40
632.66	40844.69
632.81	40458.50
632.96	40779.15
633.10	40678.51
633.25	41043.63
633.40	41151.30
633.55	41034.27
633.70	40421.05
633.85	40383.60
634.00	40739.36
634.15	41048.32
634.30	40938.31
634.45	41343.22
634.60	40828.30
634.75	40741.71
634.90	40245.51
635.05	40940.65
635.19	40397.65
635.34	40666.81
635.49	40823.62
635.64	40025.50
635.79	40802.56
635.94	40741.71
636.09	40378.92
636.24	39819.53
636.39	40102.74
636.53	39927.20
636.68	39924.86
636.83	40205.72
636.98	40428.07
637.13	39959.97
637.28	40617.66
637.43	40755.75
637.57	40467.86
637.72	40444.46
637.87	40299.34
638.02	39826.56
638.17	39978.69
638.32	40198.70
638.46	39821.87
638.61	39735.27
638.76	39842.94
638.91	40013.80
639.06	39995.07
639.20	40203.38
639.35	39807.83
639.50	39562.08
639.65	39929.54
639.80	39878.05
639.94	39580.80
640.09	39800.81
640.24	39480.16
640.39	39447.39
640.54	39398.24
640.68	39517.60
640.83	39496.54
640.98	39325.68
641.13	39262.49
641.27	39721.23
641.42	39449.73
641.57	39470.79
641.72	39288.23
641.86	39454.41
642.01	39136.10
642.16	39693.15
642.31	38731.18
642.45	39416.96
642.60	38913.75
642.75	38927.79
642.90	39117.37
643.04	39241.42
643.19	39040.14
643.34	39229.72
643.48	39070.56
643.63	39136.10
643.78	38836.51
643.93	38969.92
644.07	38733.53
644.22	39182.91
644.37	38691.40
644.51	39063.54
644.66	39042.48
644.81	39386.54
644.95	39161.84
645.10	38993.32
645.25	38714.80
645.39	38890.34
645.54	38951.20
645.69	38410.53
645.83	38831.83
645.98	38904.38
646.13	39105.67
646.27	39096.31
646.42	38618.84
646.57	38918.43
646.71	38754.59
646.86	38801.40
647.00	38567.35
647.15	38965.24
647.30	38277.12
647.44	38162.43
647.59	38529.90
647.74	38572.03
647.88	38359.04
648.03	38195.20
648.17	38890.34
648.32	38321.59
648.47	38607.14
648.61	37914.34
648.76	38220.95
648.90	38267.76
649.05	38443.30
649.20	38246.69
649.34	37811.35
649.49	37759.86
649.63	38012.64
649.78	37621.77
649.92	37745.82
650.07	38286.48
650.21	38087.54
650.36	37830.08
650.51	37928.38
650.65	38361.38
650.80	38141.37
650.94	38242.01
651.09	38382.45
651.23	37954.13
651.38	37710.71
651.52	37701.35
651.67	37549.21
651.81	37727.10
651.96	37151.32
652.10	37457.93
652.25	37617.09
652.39	37046.00
652.54	37635.81
652.68	38005.62
652.83	37708.37
652.97	37694.33
653.12	37226.22
653.26	37420.48
653.41	37354.95
653.55	37170.05
653.70	37347.93
653.84	37172.39
653.99	37275.37
654.13	37240.26
654.27	37446.23
654.42	37277.71
654.56	37282.39
654.71	37156.00
654.85	37139.62
655.00	37612.41
655.14	37076.43
655.29	37090.47
655.43	37123.24
655.57	36833.01
655.72	36662.15
655.86	36514.70
656.01	36332.14
656.15	36652.79
656.30	36910.25
656.44	36968.76
656.58	36781.52
656.73	36645.77
656.87	36596.62
657.01	36701.94
657.16	36589.59
657.30	36996.85
657.45	36507.68
657.59	36774.50
657.73	36465.55
657.88	37038.98
658.02	36652.79
658.16	36402.35
658.31	36830.67
658.45	36451.50
658.60	36505.34
658.74	36325.11
658.88	36126.17
659.03	36627.04
659.17	36168.30
659.31	35990.42
659.46	35988.08
659.60	36325.11
659.74	35688.49
659.89	35821.90
660.03	35882.75
660.17	35805.52
660.32	35938.93
660.46	36212.77
660.60	35957.65
660.74	36018.50
660.89	35913.18
661.03	35576.14
661.17	35314.00
661.32	35629.98
661.46	34780.36
661.60	35213.36
661.74	35522.31
661.89	35707.21
662.03	35842.96
662.17	35028.46
662.31	35204.00
662.46	35564.44
662.60	35311.66
662.74	35541.03
662.88	35019.10
663.03	34721.85
663.17	34881.00
663.31	34745.25
663.45	34909.09
663.60	35136.12
663.74	34740.57
663.88	34590.78
664.02	34703.12
664.17	34815.47
664.31	34864.62
664.45	34609.50
664.59	34885.68
664.73	34621.20
664.88	34632.91
665.02	34803.77
665.16	34459.71
665.30	34197.57
665.44	34265.44
665.59	34263.10
665.73	33790.31
665.87	34260.76
666.01	34106.29
666.15	33984.58
666.29	34052.45
666.44	33930.75
666.58	33975.22
666.72	33593.71
666.86	33701.37
667.00	33846.49
667.14	33261.35
667.28	33378.38
667.43	33439.23
667.57	33394.76
667.71	33504.77
667.85	33268.37
667.99	33200.50
668.13	33514.13
668.27	33326.89
668.41	33301.14
668.56	33008.58
668.70	33537.54
668.84	33111.56
668.98	33067.09
669.12	32694.94
669.26	33104.54
669.40	32140.24
669.54	32601.32
669.68	32699.62
669.82	32643.45
669.96	32858.78
670.10	32708.99
670.25	32512.38
670.39	32479.61
670.53	32273.65
670.67	32507.70
670.81	32634.09
670.95	32414.08
671.09	32582.60
671.23	32503.02
671.37	32493.66
671.51	31868.73
671.65	31765.75
671.79	31835.97
671.93	31714.26
672.07	31903.84
672.21	31817.24
672.35	32077.04
672.49	31777.45
672.63	31538.72
672.77	31452.12
672.91	31597.23
673.05	31365.52
673.19	31297.64
673.33	31211.04
673.47	30981.67
673.61	30768.68
673.75	30464.41
673.89	30646.97
674.03	30494.84
674.17	30838.90
674.31	30689.10
674.45	31040.18
674.59	30569.74
674.73	30775.70
674.87	30515.90
675.01	30824.86
675.15	30714.85
675.29	30511.22
675.43	30335.68
675.56	30391.86
675.70	30235.04
675.84	30314.62
675.98	29158.39
676.12	29806.72
676.26	29991.62
676.40	30094.61
676.54	29488.41
676.68	29575.01
676.82	29680.33
676.96	29720.12
677.10	29282.44
677.23	29263.72
677.37	29319.89
677.51	29167.76
677.65	28889.23
677.79	28584.96
677.93	28816.68
678.07	28519.43
678.21	28287.71
678.34	28250.27
678.48	27943.66
678.62	28048.98
678.76	27627.68
678.90	27873.44
679.04	28048.98
679.18	28081.75
679.31	27819.61
679.45	27772.80
679.59	27672.15
679.73	27269.58
679.87	27321.07
680.00	27150.21
680.14	27426.40
680.28	27297.67
680.42	27206.39
680.56	27482.57
680.70	26991.06
680.83	27089.36
680.97	26969.99
681.11	26745.30
681.25	26658.70
681.39	26670.40
681.52	26890.41
681.66	26497.20
681.80	26785.09
681.94	26361.45
682.07	26326.35
682.21	26389.54
682.35	25933.14
682.49	26087.61
682.62	25965.90
682.76	25720.15
682.90	26080.59
683.04	25708.44
683.17	25490.77
683.31	25254.38
683.45	25598.44
683.59	25291.83
683.72	24931.39
683.86	25076.50
684.00	25291.83
684.13	25186.50
684.27	25305.87
684.41	24774.57
684.55	24781.59
684.68	24641.16
684.82	24372.00
684.96	24531.15
685.09	24713.72
685.23	24479.66
685.37	24428.17
685.50	24163.69
685.64	24308.80
685.78	23875.80
685.91	23646.43
686.05	23503.66
686.19	23634.73
686.32	23396.00
686.46	23339.82
686.60	22857.67
686.73	23068.32
686.87	23370.25
687.01	23344.50
687.14	22946.61
687.28	22890.44
687.42	22834.27
687.55	23126.83
687.69	22965.34
687.82	22410.63
687.96	22881.08
688.10	22691.49
688.23	22796.82
688.37	22265.52
688.50	22073.59
688.64	22441.06
688.78	22401.27
688.91	21923.80
689.05	22207.00
689.18	22052.53
689.32	21575.06
689.46	21422.92
689.59	21675.70
689.73	21872.31
689.86	21928.48
690.00	21642.93
690.13	21481.44
690.27	21490.80
690.41	21577.40
690.54	21146.74
690.68	20896.30
690.81	20669.27
690.95	20924.39
691.08	20709.06
691.22	20772.25
691.35	20624.80
691.49	21116.31
691.62	20760.55
691.76	20465.64
691.89	20339.26
692.03	20266.70
692.16	20009.24
692.30	20046.69
692.43	20107.54
692.57	19915.62
692.70	19756.46
692.84	19805.61
692.97	19578.58
693.11	19735.40
693.24	19363.25
693.38	19318.78
693.51	19278.99
693.65	19672.20
693.78	19534.11
693.92	19454.53
694.05	19023.87
694.19	19110.47
694.32	18904.51
694.45	18705.56
694.59	18916.21
694.72	18602.58
694.86	18855.36
694.99	18448.10
695.13	18700.88
695.26	18176.60
695.39	18310.01
695.53	18637.69
695.66	18178.94
695.80	18185.96
695.93	17872.33
696.07	17935.53
696.20	18129.79
696.33	17970.63
696.47	17844.24
696.60	17570.40
696.73	17600.83
696.87	17422.95
697.00	17511.89
697.14	17642.96
697.27	17427.63
697.40	17460.40
697.54	17170.17
697.67	17338.69
697.80	17200.60
697.94	16732.49
698.07	16971.22
698.21	16582.70
698.34	16788.66
698.47	16526.52
698.61	16393.11
698.74	16294.81
698.87	16027.99
699.01	16372.05
699.14	16187.14
699.27	16046.71
699.40	16030.33
699.54	16203.53
699.67	15913.30
699.80	15953.09
699.94	15742.44
700.07	15957.77
700.20	15536.48
700.34	15613.71
700.47	15428.81
700.60	15559.88
700.73	16051.39
700.87	15564.56
701.00	15288.38
701.13	15435.83
701.26	15449.88
701.40	15262.63
701.53	15035.60
701.66	14906.87
701.79	14963.04
701.93	14862.40
702.06	14923.26
702.19	14551.11
702.32	14719.63
702.46	14618.99
702.59	14565.15
702.72	14518.34
702.85	14415.36
702.99	14375.57
703.12	14185.99
703.25	14267.91
703.38	14075.98
703.51	14106.41
703.65	14228.12
703.78	13970.66
703.91	13820.86
704.04	13745.97
704.17	13884.06
704.31	13867.67
704.44	13750.65
704.57	13462.76
704.70	13556.38
704.83	13696.82
704.96	13355.10
705.10	13586.81
705.23	13570.43
>>>>>End Processed Spectral Data<<<<<
