SpectraSuite Data File
++++++++++++++++++++++++++++++++++++
Date: Fri Oct 25 11:33:46 EDT 2013
User: price-jones
Dark Spectrum Present: No
Reference Spectrum Present: No
Number of Sampled Component Spectra: 1
Spectrometers: USB2+H05261
Integration Time (usec): 100000 (USB2+H05261)
Spectra Averaged: 1 (USB2+H05261)
Boxcar Smoothing: 0 (USB2+H05261)
Correct for Electrical Dark: No (USB2+H05261)
Strobe/Lamp Enabled: No (USB2+H05261)
Correct for Detector Non-linearity: No (USB2+H05261)
Correct for Stray Light: No (USB2+H05261)
Number of Pixels in Processed Spectrum: 2048
>>>>>Begin Processed Spectral Data<<<<<
365.73	318.31
365.92	318.31
366.12	318.31
366.32	210.65
366.52	184.90
366.72	180.22
366.91	161.50
367.11	262.14
367.31	154.48
367.51	252.78
367.70	182.56
367.90	166.18
368.10	182.56
368.30	241.08
368.49	163.84
368.69	236.39
368.89	189.58
369.09	196.60
369.28	191.92
369.48	215.33
369.68	245.76
369.87	220.01
370.07	236.39
370.27	379.17
370.47	341.72
370.66	512.58
370.86	486.83
371.06	519.60
371.25	603.86
371.45	514.92
371.65	538.32
371.84	477.47
372.04	526.62
372.24	547.69
372.44	559.39
372.63	573.43
372.83	547.69
373.03	559.39
373.22	571.09
373.42	643.65
373.62	641.31
373.81	566.41
374.01	617.90
374.21	622.58
374.40	578.11
374.60	692.80
374.79	587.47
374.99	685.78
375.19	580.45
375.38	613.22
375.58	755.99
375.78	655.35
375.97	653.01
376.17	725.57
376.37	624.92
376.56	648.33
376.76	699.82
376.95	634.29
377.15	645.99
377.35	697.48
377.54	699.82
377.74	638.97
377.93	657.69
378.13	711.52
378.33	746.63
378.52	674.07
378.72	709.18
378.91	695.14
379.11	706.84
379.31	746.63
379.50	730.25
379.70	767.70
379.89	692.80
380.09	741.95
380.28	779.40
380.48	692.80
380.68	725.57
380.87	695.14
381.07	662.37
381.26	763.01
381.46	772.38
381.65	713.86
381.85	737.27
382.04	866.00
382.24	795.78
382.43	706.84
382.63	800.46
382.83	823.87
383.02	777.06
383.22	910.47
383.41	760.67
383.61	772.38
383.80	828.55
384.00	870.68
384.19	807.48
384.39	842.59
384.58	849.61
384.78	863.66
384.97	835.57
385.17	774.72
385.36	777.06
385.56	791.10
385.75	830.89
385.95	901.11
386.14	887.06
386.34	826.21
386.53	851.96
386.72	835.57
386.92	851.96
387.11	877.70
387.31	835.57
387.50	854.30
387.70	908.13
387.89	882.38
388.09	973.66
388.28	938.55
388.48	905.79
388.67	823.87
388.86	945.58
389.06	901.11
389.25	973.66
389.45	912.81
389.64	884.72
389.84	957.28
390.03	1001.75
390.22	1032.18
390.42	863.66
390.61	1011.11
390.81	1027.50
391.00	929.19
391.19	1036.86
391.39	1022.81
391.58	968.98
391.78	957.28
391.97	1069.62
392.16	1039.20
392.36	1064.94
392.55	1022.81
392.75	1036.86
392.94	1123.46
393.13	1032.18
393.33	1032.18
393.52	994.73
393.71	1111.75
393.91	1118.78
394.10	1107.07
394.29	1118.78
394.49	1067.28
394.68	1137.50
394.88	1186.65
395.07	1184.31
395.26	1177.29
395.46	1217.08
395.65	1163.25
395.84	1165.59
396.04	1233.46
396.23	1193.67
396.42	1193.67
396.62	1181.97
396.81	1214.74
397.00	1294.32
397.19	1207.72
397.39	1240.48
397.58	1203.04
397.77	1247.51
397.97	1334.11
398.16	1240.48
398.35	1160.91
398.55	1296.66
398.74	1315.38
398.93	1308.36
399.12	1341.13
399.32	1296.66
399.51	1275.59
399.70	1392.62
399.90	1277.93
400.09	1369.21
400.28	1404.32
400.47	1341.13
400.67	1439.43
400.86	1362.19
401.05	1322.40
401.24	1453.47
401.44	1397.30
401.63	1423.05
401.82	1514.33
402.01	1469.86
402.21	1497.94
402.40	1469.86
402.59	1493.26
402.78	1540.07
402.97	1605.61
403.17	1537.73
403.36	1514.33
403.55	1664.12
403.74	1547.09
403.93	1624.33
404.13	1584.54
404.32	1596.25
404.51	1561.14
404.70	1703.91
404.89	1629.01
405.09	1682.85
405.28	1619.65
405.47	1612.63
405.66	1636.03
405.85	1771.79
406.05	1748.38
406.24	1795.19
406.43	1842.00
406.62	1806.89
406.81	1727.32
407.00	1675.82
407.20	1762.42
407.39	1886.47
407.58	1874.77
407.77	1816.26
407.96	1837.32
408.15	1912.22
408.34	1851.36
408.54	1893.49
408.73	1898.17
408.92	1970.73
409.11	1933.28
409.30	2050.31
409.49	1933.28
409.68	2005.84
409.87	2036.27
410.07	1994.14
410.26	2005.84
410.45	2038.61
410.64	2169.68
410.83	2078.40
411.02	2200.10
411.21	2242.23
411.40	2183.72
411.59	2069.03
411.78	2108.82
411.98	2279.68
412.17	2207.13
412.36	2097.12
412.55	2366.28
412.74	2401.39
412.93	2352.24
413.12	2291.38
413.31	2504.37
413.50	2483.31
413.69	2396.71
413.88	2560.55
414.07	2525.44
414.26	2483.31
414.45	2597.99
414.64	2424.80
414.83	2579.27
415.02	2551.18
415.22	2654.17
415.41	2740.77
415.60	2675.23
415.79	2761.83
415.98	2825.03
416.17	2822.69
416.36	2665.87
416.55	2778.22
416.74	2836.73
416.93	2855.45
417.12	2820.35
417.31	2792.26
417.50	2855.45
417.69	2958.44
417.88	2881.20
418.07	2958.44
418.26	3047.38
418.45	2946.73
418.64	3110.57
418.83	2970.14
419.02	3077.80
419.21	3035.67
419.39	3190.15
419.58	3141.00
419.77	3122.27
419.96	3194.83
420.15	3234.62
420.34	3187.81
420.53	3066.10
420.72	3325.90
420.91	3297.81
421.10	3262.71
421.29	3166.74
421.48	3321.22
421.67	3241.64
421.86	3311.86
422.05	3342.28
422.24	3447.61
422.43	3403.14
422.61	3442.93
422.80	3372.71
422.99	3456.97
423.18	3452.29
423.37	3613.79
423.56	3454.63
423.75	3314.20
423.94	3248.66
424.13	3204.19
424.32	3384.41
424.50	3346.97
424.69	3569.32
424.88	3480.38
425.07	3421.86
425.26	3339.94
425.45	3442.93
425.64	3461.65
425.83	3417.18
426.01	3485.06
426.20	3478.04
426.39	3445.27
426.58	3440.59
426.77	3407.82
426.96	3503.78
427.15	3485.06
427.33	3672.30
427.52	3590.38
427.71	3627.83
427.90	3655.92
428.09	3768.26
428.28	3737.84
428.46	3777.62
428.65	3658.26
428.84	3859.54
429.03	3894.65
429.22	3735.50
429.40	3770.60
429.59	3822.09
429.78	3665.28
429.97	3534.21
430.16	3712.09
430.34	3784.65
430.53	4042.11
430.72	3964.87
430.91	4119.34
431.10	3836.14
431.28	4046.79
431.47	3906.35
431.66	3971.89
431.85	3962.53
432.03	3985.93
432.22	4140.41
432.41	4084.23
432.60	3939.12
432.79	3999.98
432.97	4236.37
433.16	4128.70
433.35	4187.22
433.54	4133.39
433.72	4102.96
433.91	4194.24
434.10	4227.01
434.28	4219.99
434.47	4236.37
434.66	4187.22
434.85	4231.69
435.03	4180.20
435.22	4229.35
435.41	4437.66
435.59	4367.44
435.78	4421.27
435.97	4367.44
436.16	4428.29
436.34	4447.02
436.53	4468.08
436.72	4580.43
436.90	4414.25
437.09	4704.48
437.28	4568.73
437.46	4580.43
437.65	4388.50
437.84	4601.49
438.02	4531.28
438.21	4610.86
438.40	4491.49
438.58	4779.37
438.77	4870.65
438.96	4795.76
439.14	4844.91
439.33	4800.44
439.52	4903.42
439.70	4915.12
439.89	5015.77
440.08	5069.60
440.26	5029.81
440.45	5123.43
440.63	4999.38
440.82	5266.21
441.01	5048.54
441.19	5298.97
441.38	5212.37
441.57	5341.10
441.75	5275.57
441.94	5444.09
442.12	5310.68
442.31	5423.02
442.50	5476.85
442.68	5334.08
442.87	5446.43
443.05	5411.32
443.24	5502.60
443.43	5554.09
443.61	5661.76
443.80	5584.52
443.98	5516.64
444.17	5256.84
444.35	5554.09
444.54	5729.63
444.73	5631.33
444.91	5530.69
445.10	5518.98
445.28	5743.67
445.47	5647.71
445.65	5633.67
445.84	5907.51
446.02	5881.77
446.21	5753.04
446.39	5694.52
446.58	5853.68
446.77	5528.35
446.95	5582.18
447.14	5860.70
447.32	5703.89
447.51	5799.85
447.69	5657.07
447.88	6010.50
448.06	5802.19
448.25	5776.44
448.43	5809.21
448.62	5813.89
448.80	5811.55
448.99	5947.30
449.17	5891.13
449.36	5813.89
449.54	6097.10
449.73	5937.94
449.91	6108.80
450.10	6012.84
450.28	6017.52
450.46	6108.80
450.65	6101.78
450.83	6265.61
451.02	6244.55
451.20	6200.08
451.39	6092.41
451.57	6298.38
451.76	6352.21
451.94	6235.19
452.13	6256.25
452.31	6310.08
452.49	6272.64
452.68	6406.05
452.86	6218.80
453.05	6544.14
453.23	6487.96
453.42	6394.34
453.60	6270.30
453.78	6473.92
453.97	6427.11
454.15	6469.24
454.34	6321.79
454.52	6509.03
454.70	6614.35
454.89	6527.75
455.07	6567.54
455.26	6537.12
455.44	6806.28
455.62	6717.34
455.81	6602.65
455.99	6806.28
456.17	6785.21
456.36	6715.00
456.54	6895.22
456.73	6862.45
456.91	7173.74
457.09	7005.22
457.28	7056.72
457.46	6775.85
457.64	7138.63
457.83	6935.01
458.01	7098.84
458.19	7087.14
458.38	7152.68
458.56	7227.57
458.74	7126.93
458.93	7449.93
459.11	7162.04
459.29	7206.51
459.48	7267.36
459.66	7349.28
459.84	7173.74
460.03	7569.29
460.21	7466.31
460.39	7424.18
460.57	7520.14
460.76	7475.67
460.94	7562.27
461.12	7470.99
461.31	7445.24
461.49	7494.40
461.67	7506.10
461.85	7786.96
462.04	7569.29
462.22	8004.63
462.40	7927.39
462.59	7896.97
462.77	7714.41
462.95	7737.81
463.13	7922.71
463.32	7592.70
463.50	7829.09
463.68	7822.07
463.86	8058.46
464.05	7878.24
464.23	7941.44
464.41	7887.61
464.59	7805.69
464.78	8116.98
464.96	7974.21
465.14	7887.61
465.32	8063.15
465.50	8269.11
465.69	8313.58
465.87	8091.23
466.05	8142.72
466.23	8100.59
466.41	8292.52
466.60	8245.71
466.78	8105.28
466.96	8271.45
467.14	8159.11
467.32	8353.37
467.51	8454.02
467.69	8116.98
467.87	8285.50
468.05	8430.61
468.23	8262.09
468.41	8156.77
468.60	8545.30
468.78	8601.47
468.96	8423.59
469.14	8547.64
469.32	8566.36
469.50	8437.63
469.69	8622.53
469.87	8746.58
470.05	8664.66
470.23	8695.09
470.41	8793.39
470.59	8856.59
470.77	8819.14
470.95	8814.46
471.14	8997.02
471.32	8802.75
471.50	9128.09
471.68	8905.74
471.86	9132.77
472.04	9076.60
472.22	9296.61
472.40	9259.16
472.58	9224.05
472.77	9275.54
472.95	9474.49
473.13	9540.02
473.31	9327.03
473.49	9483.85
473.67	9174.90
473.85	9516.62
474.03	9881.74
474.21	9619.60
474.39	9671.09
474.57	9902.81
474.75	9900.47
474.93	9837.27
475.12	9865.36
475.30	10024.51
475.48	9996.43
475.66	10111.11
475.84	10232.82
476.02	10476.24
476.20	10221.12
476.38	10338.15
476.56	10485.60
476.74	10441.13
476.92	10366.23
477.10	10635.39
477.28	10810.93
477.46	10820.30
477.64	10775.83
477.82	10881.15
478.00	11052.01
478.18	11178.40
478.36	11183.08
478.54	11578.63
478.72	11461.60
478.90	11358.62
479.08	11314.15
479.26	11515.44
479.44	11690.98
479.62	11829.07
479.80	11728.42
479.98	11990.56
480.16	12205.89
480.34	12138.02
480.52	12355.69
480.70	12322.92
480.88	12203.55
481.06	12393.14
481.24	12308.88
481.41	12730.17
481.59	12816.77
481.77	12898.69
481.95	12891.67
482.13	12784.01
482.31	12966.57
482.49	13282.54
482.67	13104.66
482.85	13708.52
483.03	13617.24
483.21	13823.20
483.39	13694.47
483.57	13767.03
483.74	13998.74
483.92	14057.26
484.10	14085.34
484.28	14239.82
484.46	14492.60
484.64	14714.95
484.82	14370.89
485.00	14462.17
485.18	15000.49
485.35	15094.11
485.53	15049.64
485.71	15143.27
485.89	15520.09
486.07	15428.81
486.25	15557.54
486.43	15634.78
486.61	15665.21
486.78	16023.31
486.96	15740.10
487.14	16297.15
487.32	16013.95
487.50	16203.53
487.68	16512.48
487.85	16514.82
488.03	16826.11
488.21	17078.89
488.39	16978.25
488.57	17231.02
488.75	17165.49
488.92	17418.27
489.10	17708.49
489.28	17713.17
489.46	17722.54
489.64	17816.16
489.81	18242.14
489.99	18139.15
490.17	18258.52
490.35	18387.25
490.53	18803.86
490.70	18906.85
490.88	18824.93
491.06	19033.24
491.24	19007.49
491.41	18967.70
491.59	19087.07
491.77	19012.17
491.95	19290.70
492.13	19655.82
492.30	19580.92
492.48	19758.80
492.66	19754.12
492.84	19660.50
493.01	20231.59
493.19	20482.03
493.37	20252.66
493.54	20348.62
493.72	20702.04
493.90	20924.39
494.08	20968.86
494.25	20737.15
494.43	21167.80
494.61	21120.99
494.79	21568.04
494.96	21324.62
495.14	21443.99
495.32	22078.27
495.49	21874.65
495.67	21965.93
495.85	22022.10
496.02	22253.81
496.20	22462.12
496.38	22487.87
496.55	22298.28
496.73	22775.75
496.91	22548.72
497.09	22738.30
497.26	23213.43
497.44	22948.95
497.62	23047.26
497.79	23777.50
497.97	23257.90
498.14	23498.98
498.32	23452.17
498.50	23393.65
498.67	24292.42
498.85	23843.04
499.03	24093.47
499.20	24191.78
499.38	24318.17
499.56	24191.78
499.73	24180.07
499.91	24837.76
500.08	24779.25
500.26	24957.13
500.44	24919.68
500.61	24538.18
500.79	24561.58
500.97	24762.87
501.14	25399.49
501.32	25432.26
501.49	25443.96
501.67	25336.30
501.84	25663.97
502.02	25752.91
502.20	25607.80
502.37	25773.98
502.55	25865.26
502.72	26003.35
502.90	25986.97
503.07	26061.87
503.25	26101.65
503.43	26204.64
503.60	26448.05
503.78	26522.95
503.95	26504.23
504.13	26469.12
504.30	26478.48
504.48	26183.57
504.65	27002.76
504.83	26939.57
505.01	27089.36
505.18	27000.42
505.36	27175.96
505.53	27145.53
505.71	27267.24
505.88	27580.87
506.06	27274.26
506.23	27639.39
506.41	27414.69
506.58	27889.82
506.76	28184.73
506.93	28020.89
507.11	27812.59
507.28	28329.84
507.46	27852.38
507.63	28243.24
507.81	28327.50
507.98	28350.91
508.16	28250.27
508.33	28596.67
508.50	28739.44
508.68	28287.71
508.85	28900.94
509.03	28627.09
509.20	28840.08
509.38	29216.91
509.55	29668.63
509.73	29357.34
509.90	29429.90
510.08	29626.50
510.25	29535.22
510.42	29668.63
510.60	30099.29
510.77	29888.64
510.95	30071.20
511.12	30047.80
511.30	29874.60
511.47	30010.35
511.64	30192.91
511.82	30115.67
511.99	30279.51
512.17	30569.74
512.34	30595.48
512.51	30785.07
512.69	31056.57
512.86	30951.24
513.04	31468.50
513.21	30869.33
513.38	31215.72
513.56	30852.94
513.73	31161.89
513.90	31199.34
514.08	31342.11
514.25	31501.27
514.43	31681.49
514.60	31707.24
514.77	31732.98
514.95	31618.30
515.12	31833.63
515.29	31948.31
515.47	31828.95
515.64	32065.34
515.81	31599.57
515.99	32294.71
516.16	32378.97
516.33	32505.36
516.51	32816.65
516.68	32514.72
516.85	32603.66
517.03	32652.81
517.20	33120.92
517.37	32634.09
517.54	32575.58
517.72	33109.22
517.89	32496.00
518.06	33549.24
518.24	33017.94
518.41	32982.83
518.58	33060.07
518.75	32954.74
518.93	33296.46
519.10	33078.79
519.27	33202.84
519.45	33422.85
519.62	33582.01
519.79	33603.07
519.96	34057.14
520.14	33968.19
520.31	33488.38
520.48	33750.52
520.65	34316.93
520.83	34543.97
521.00	34677.38
521.17	34202.25
521.34	34204.59
521.52	34415.24
521.69	34338.00
521.86	34565.03
522.03	35009.73
522.20	34754.61
522.38	35016.75
522.55	34759.30
522.72	35070.59
522.89	34885.68
523.07	35393.58
523.24	35278.89
523.41	35122.08
523.58	35358.47
523.75	35440.39
523.92	34859.94
524.10	35627.63
524.27	35576.14
524.44	35566.78
524.61	35789.13
524.78	35962.33
524.96	35770.41
525.13	36222.13
525.30	35887.43
525.47	36554.49
525.64	35997.44
525.81	35901.48
525.98	36425.76
526.16	36474.91
526.33	36208.09
526.50	36587.25
526.67	36271.28
526.84	36503.00
527.01	36648.11
527.18	36978.12
527.36	37092.81
527.53	36755.77
527.70	37256.65
527.87	37148.98
528.04	36975.78
528.21	37067.06
528.38	37326.86
528.55	37614.75
528.72	36980.46
528.89	37177.07
529.07	36982.80
529.24	37097.49
529.41	37368.99
529.58	37556.24
529.75	37654.54
529.92	37769.22
530.09	37886.25
530.26	37834.76
530.43	37839.44
530.60	37619.43
530.77	37558.58
530.94	37991.58
531.11	37579.64
531.28	38253.72
531.46	38115.62
531.63	38309.89
531.80	38302.87
531.97	38431.60
532.14	38309.89
532.31	38391.81
532.48	38513.52
532.65	38721.82
532.82	38721.82
532.99	38499.47
533.16	38408.19
533.33	38583.73
533.50	38653.95
533.67	38457.34
533.84	38733.53
534.01	38862.26
534.18	38637.56
534.35	39346.75
534.52	39236.74
534.69	39005.03
534.86	39180.57
535.03	38918.43
535.20	39185.25
535.37	39512.92
535.54	39828.90
535.71	39533.99
535.88	39260.15
536.05	39620.59
536.22	39784.43
536.38	39592.50
536.55	39632.29
536.72	39849.96
536.89	39456.75
537.06	39840.60
537.23	40011.46
537.40	40006.78
537.57	39524.63
537.74	39660.38
537.91	39922.52
538.08	39761.02
538.25	39302.28
538.42	40383.60
538.59	40467.86
538.75	40151.89
538.92	40411.69
539.09	40758.09
539.26	40236.15
539.43	40526.38
539.60	40535.74
539.77	40587.23
539.94	40673.83
540.11	40580.21
540.28	40563.82
540.44	40795.54
540.61	40898.52
540.78	40994.48
540.95	40556.80
541.12	40575.53
541.29	40905.54
541.46	41240.24
541.62	40964.06
541.79	40999.16
541.96	40636.38
542.13	40877.46
542.30	41090.44
542.47	41067.04
542.63	41509.40
542.80	41748.14
542.97	41813.67
543.14	42117.94
543.31	42211.56
543.48	41811.33
543.64	42349.65
543.81	41902.61
543.98	41792.61
544.15	41926.02
544.32	42033.68
544.48	42134.32
544.65	42241.99
544.82	42609.45
544.99	41890.91
545.16	42171.77
545.32	42387.10
545.49	42506.47
545.66	42398.80
545.83	43042.45
546.00	42621.16
546.16	42433.91
546.33	42602.43
546.50	42377.74
546.67	42766.27
546.83	42501.79
547.00	42541.58
547.17	42534.56
547.34	42539.24
547.50	43173.52
547.67	43082.24
547.84	43159.48
548.00	43353.74
548.17	43517.58
548.34	42995.64
548.51	42707.76
548.67	43585.46
548.84	43129.05
549.01	43402.89
549.18	43030.75
549.34	43152.46
549.51	43559.71
549.68	43679.08
549.84	43330.34
550.01	43592.48
550.18	43487.15
550.34	44011.43
550.51	43009.68
550.68	43814.83
550.84	43470.77
551.01	43992.71
551.18	43608.86
551.34	43515.24
551.51	43875.68
551.68	43339.70
551.84	43768.02
552.01	43711.84
552.18	43938.88
552.34	43784.40
552.51	44189.31
552.68	43936.54
552.84	43885.04
553.01	44233.78
553.18	44060.58
553.34	44325.07
553.51	44210.38
553.67	44296.98
553.84	44210.38
554.01	44655.08
554.17	44346.13
554.34	44313.36
554.51	44631.68
554.67	44669.12
554.84	44748.70
555.00	44612.95
555.17	44425.71
555.33	44964.03
555.50	44804.88
555.67	44776.79
555.83	44507.63
556.00	44837.64
556.16	45270.64
556.33	44912.54
556.50	44942.97
556.66	45265.96
556.83	44683.17
556.99	45219.15
557.16	45397.03
557.32	45034.25
557.49	45399.37
557.65	44722.96
557.82	44720.62
557.98	44821.26
558.15	45226.17
558.32	45343.20
558.48	44910.20
558.65	45167.66
558.81	45162.98
558.98	44971.05
559.14	45272.98
559.31	45284.68
559.47	45092.76
559.64	45525.76
559.80	45338.52
559.97	45691.94
560.13	45399.37
560.30	45588.95
560.46	45837.05
560.63	45453.20
560.79	45745.77
560.96	45783.22
561.12	45736.41
561.29	45612.36
561.45	45638.11
561.61	45563.21
561.78	45668.53
561.94	45184.04
562.11	45745.77
562.27	46199.83
562.44	45745.77
562.60	46099.19
562.77	45476.61
562.93	45757.47
563.10	46003.23
563.26	45890.88
563.42	46377.72
563.59	45624.06
563.75	46124.94
563.92	46340.27
564.08	45673.21
564.24	46094.51
564.41	45888.54
564.57	46019.61
564.74	45991.53
564.90	46064.08
565.07	46028.98
565.23	45930.67
565.39	45972.80
565.56	46176.43
565.72	46150.68
565.88	46043.02
566.05	46136.64
566.21	46429.21
566.38	46202.18
566.54	46230.26
566.70	46719.43
566.87	46277.07
567.03	46155.36
567.19	46073.45
567.36	46518.15
567.52	46213.88
567.68	47000.30
567.85	46185.79
568.01	46361.33
568.17	46124.94
568.34	46513.47
568.50	46291.12
568.66	46160.05
568.83	46438.57
568.99	46349.63
569.15	46461.97
569.32	46389.42
569.48	46291.12
569.64	46712.41
569.81	46717.09
569.97	46822.42
570.13	46490.06
570.30	46230.26
570.46	46504.10
570.62	46735.82
570.78	46948.81
570.95	46447.93
571.11	47185.20
571.27	46616.45
571.43	46955.83
571.60	46733.48
571.76	46256.01
571.92	46639.86
572.09	46445.59
572.25	46438.57
572.41	46766.24
572.57	47178.18
572.74	47203.92
572.90	46646.88
573.06	47051.79
573.22	46927.74
573.38	47126.69
573.55	46918.38
573.71	47171.16
573.87	46555.60
574.03	46335.59
574.20	46993.28
574.36	46740.50
574.52	47454.36
574.68	46894.97
574.84	47126.69
575.01	47077.54
575.17	47012.00
575.33	47224.99
575.49	46890.29
575.65	47107.96
575.82	46955.83
575.98	46621.13
576.14	47028.38
576.30	47143.07
576.46	46855.18
576.62	47047.11
576.79	47194.56
576.95	46508.79
577.11	46916.04
577.27	46845.82
577.43	46902.00
577.59	47351.38
577.75	46791.99
577.92	47002.64
578.08	46775.61
578.24	47145.41
578.40	47391.17
578.56	46953.49
578.72	47033.07
578.88	46958.17
579.04	47213.29
579.21	47267.12
579.37	47400.53
579.53	47428.62
579.69	47278.82
579.85	47398.19
580.01	46696.03
580.17	47075.19
580.33	47562.03
580.49	47112.64
580.65	47147.75
580.82	46855.18
580.98	47016.68
581.14	46965.19
581.30	47334.99
581.46	47047.11
581.62	47372.44
581.78	47002.64
581.94	47096.26
582.10	47026.04
582.26	46997.96
582.42	47255.42
582.58	47374.78
582.74	47288.18
582.90	47536.28
583.06	47232.01
583.22	46918.38
583.38	47564.37
583.54	47292.86
583.70	47407.55
583.86	47089.24
584.02	47512.88
584.18	47990.34
584.34	47353.72
584.50	47704.80
584.66	47112.64
584.82	47557.35
584.98	47725.86
585.14	47718.84
585.30	47508.19
585.46	47157.11
585.62	47435.64
585.78	47524.58
585.94	47150.09
586.10	47122.01
586.26	47426.28
586.42	47468.40
586.58	47456.70
586.74	47243.71
586.90	47367.76
587.06	47421.59
587.22	47636.92
587.38	47388.83
587.54	48219.72
587.70	47824.17
587.86	47618.20
588.02	47349.04
588.18	47260.10
588.34	47632.24
588.49	47349.04
588.65	47592.45
588.81	47634.58
588.97	47672.03
589.13	47381.80
589.29	47578.41
589.45	47756.29
589.61	47639.26
589.77	47896.72
589.93	47889.70
590.08	47421.59
590.24	47990.34
590.40	48191.63
590.56	48245.46
590.72	48210.35
590.88	47524.58
591.04	47330.31
591.20	47770.33
591.35	47683.73
591.51	48247.80
591.67	47817.14
591.83	47899.06
591.99	47936.51
592.15	47910.77
592.31	47753.95
592.46	47927.15
592.62	47510.53
592.78	48385.89
592.94	47796.08
593.10	48329.72
593.26	48133.12
593.41	48369.51
593.57	47751.61
593.73	47702.46
593.89	48603.56
594.05	48453.77
594.20	48186.95
594.36	48533.35
594.52	48259.51
594.68	48126.10
594.84	47737.57
594.99	48123.75
595.15	47583.09
595.31	48369.51
595.47	48273.55
595.62	48205.67
595.78	47878.00
595.94	48229.08
596.10	48072.26
596.25	48231.42
596.41	47924.81
596.57	48341.42
596.73	48245.46
596.88	47849.91
597.04	47709.48
597.20	48367.17
597.36	47749.27
597.51	48208.01
597.67	47805.44
597.83	48020.77
597.99	48376.53
598.14	47852.25
598.30	47941.19
598.46	48100.35
598.61	48659.74
598.77	47988.00
598.93	48243.12
599.09	47999.71
599.24	48559.09
599.40	48229.08
599.56	48247.80
599.71	48554.41
599.87	48547.39
600.03	48783.79
600.18	48409.30
600.34	48413.98
600.50	48189.29
600.65	47901.40
600.81	48591.86
600.97	48245.46
601.12	48769.74
601.28	48259.51
601.44	48435.05
601.59	48318.02
601.75	48086.31
601.91	48219.72
602.06	48465.47
602.22	48409.30
602.37	48318.02
602.53	47915.45
602.69	48514.62
602.84	48240.78
603.00	48224.40
603.16	48231.42
603.31	48282.91
603.47	48257.17
603.62	47882.68
603.78	48573.14
603.94	48341.42
604.09	48341.42
604.25	48474.84
604.40	48034.81
604.56	48418.66
604.71	48519.31
604.87	47899.06
605.03	47952.90
605.18	48156.52
605.34	48474.84
605.49	48107.37
605.65	48425.68
605.80	47873.32
605.96	48315.68
606.12	48240.78
606.27	48165.88
606.43	47927.15
606.58	48315.68
606.74	47817.14
606.89	47997.37
607.05	48292.27
607.20	48343.77
607.36	48067.58
607.51	47971.62
607.67	48121.41
607.82	47852.25
607.98	47856.93
608.13	48334.40
608.29	47983.32
608.44	47718.84
608.60	48083.97
608.75	48268.87
608.91	48140.14
609.06	47915.45
609.22	48203.33
609.37	47929.49
609.53	48266.53
609.68	47941.19
609.84	48102.69
609.99	47868.64
610.15	48109.71
610.30	48175.25
610.46	47730.54
610.61	48074.60
610.76	48278.23
610.92	47885.02
611.07	47852.25
611.23	47583.09
611.38	47859.27
611.54	48233.76
611.69	48030.13
611.84	47934.17
612.00	48023.11
612.15	47915.45
612.31	48018.43
612.46	47440.32
612.62	47756.29
612.77	48004.39
612.92	48193.97
613.08	47498.83
613.23	47948.21
613.39	47746.93
613.54	47538.62
613.69	47915.45
613.85	47873.32
614.00	47592.45
614.15	47941.19
614.31	47388.83
614.46	47484.79
614.62	47339.68
614.77	47655.65
614.92	47224.99
615.08	47503.51
615.23	47283.50
615.38	47866.30
615.54	47627.56
615.69	47660.33
615.84	47700.12
616.00	48023.11
616.15	47545.64
616.30	47999.71
616.46	47232.01
616.61	47215.63
616.76	47657.99
616.92	47344.36
617.07	47817.14
617.22	47103.28
617.37	46855.18
617.53	47388.83
617.68	47126.69
617.83	47367.76
617.99	47395.85
618.14	47594.79
618.29	47442.66
618.45	46834.12
618.60	47037.75
618.75	46784.97
618.90	46920.72
619.06	47026.04
619.21	46965.19
619.36	47051.79
619.51	47103.28
619.67	46855.18
619.82	46562.62
619.97	47241.37
620.12	47089.24
620.28	46829.44
620.43	47346.70
620.58	46794.33
620.73	46836.46
620.89	47044.77
621.04	47253.08
621.19	46742.84
621.34	46962.85
621.49	46761.56
621.65	46485.38
621.80	47075.19
621.95	46969.87
622.10	46904.34
622.25	46782.63
622.41	46527.51
622.56	46394.10
622.71	46859.87
622.86	46469.00
623.01	46810.71
623.16	46705.39
623.32	46291.12
623.47	46773.27
623.62	46780.29
623.77	46862.21
623.92	46387.08
624.07	46349.63
624.23	46649.22
624.38	46583.68
624.53	46244.30
624.68	46321.54
624.83	46064.08
624.98	46344.95
625.13	46209.20
625.29	45661.51
625.44	46405.80
625.59	46263.03
625.74	46288.77
625.89	46019.61
626.04	46204.52
626.19	46136.64
626.34	45921.31
626.49	45806.62
626.65	45640.45
626.80	45790.24
626.95	45738.75
627.10	45874.50
627.25	45897.91
627.40	46078.13
627.55	46216.22
627.70	45937.69
627.85	46274.73
628.00	45874.50
628.15	45612.36
628.30	45270.64
628.45	45986.85
628.60	45144.25
628.76	45462.57
628.91	45528.10
629.06	45258.94
629.21	45116.17
629.36	45462.57
629.51	45841.73
629.66	45956.42
629.81	45551.51
629.96	45640.45
630.11	45516.40
630.26	45359.58
630.41	45603.00
630.56	45280.00
630.71	45397.03
630.86	45233.19
631.01	45155.96
631.16	45462.57
631.31	44816.58
631.46	45205.11
631.61	45530.44
631.76	45539.80
631.91	45200.43
632.06	45462.57
632.21	45464.91
632.36	45373.63
632.51	44854.03
632.66	45368.94
632.81	45223.83
632.96	45404.05
633.10	45024.89
633.25	44814.24
633.40	44882.11
633.55	45205.11
633.70	45177.02
633.85	44725.30
634.00	44542.74
634.15	44568.48
634.30	44655.08
634.45	44655.08
634.60	44917.22
634.75	44994.46
634.90	44708.91
635.05	44638.70
635.19	44491.24
635.34	44713.59
635.49	44561.46
635.64	44617.63
635.79	45078.72
635.94	45015.52
636.09	45139.57
636.24	45057.65
636.39	44610.61
636.53	44835.30
636.68	44669.12
636.83	44411.67
636.98	44472.52
637.13	44126.12
637.28	44292.30
637.43	44278.25
637.57	44114.42
637.72	44348.47
637.87	44442.09
638.02	44495.92
638.17	44376.56
638.32	43873.34
638.46	44100.37
638.61	44268.89
638.76	43863.98
638.91	44027.82
639.06	43686.10
639.20	43611.20
639.35	44018.46
639.50	43665.03
639.65	43814.83
639.80	44069.95
639.94	43873.34
640.09	43849.94
640.24	43833.55
640.39	43508.22
640.54	43456.73
640.68	43728.23
640.83	43863.98
640.98	43456.73
641.13	43650.99
641.27	44196.34
641.42	43922.49
641.57	43833.55
641.72	43746.95
641.86	43393.53
642.01	43332.68
642.16	43276.51
642.31	42885.64
642.45	43842.92
642.60	42937.13
642.75	43351.40
642.90	43515.24
643.04	43365.45
643.19	43463.75
643.34	43302.25
643.48	42974.58
643.63	43002.66
643.78	43084.58
643.93	43475.45
644.07	43540.99
644.22	43421.62
644.37	43070.54
644.51	43110.33
644.66	42876.27
644.81	42794.36
644.95	42962.87
645.10	43196.93
645.25	42588.39
645.39	42864.57
645.54	42855.21
645.69	42616.47
645.83	42838.83
645.98	42777.97
646.13	42719.46
646.27	42932.45
646.42	42501.79
646.57	43140.75
646.71	42714.78
646.86	43281.19
647.00	43239.06
647.15	42775.63
647.30	42724.14
647.44	42773.29
647.59	42581.37
647.74	42459.66
647.88	42391.78
648.03	42534.56
648.17	43138.41
648.32	42735.84
648.47	42515.83
648.61	42146.03
648.76	42403.49
648.90	42539.24
649.05	42494.77
649.20	41958.78
649.34	42220.92
649.49	42454.98
649.63	42569.66
649.78	42244.33
649.92	42408.17
650.07	42569.66
650.21	42286.46
650.36	42763.93
650.51	42628.18
650.65	42974.58
650.80	42202.20
650.94	42045.38
651.09	42148.37
651.23	41467.27
651.38	41584.30
651.52	41888.57
651.67	41748.14
651.81	41904.95
651.96	41652.17
652.10	41677.92
652.25	41371.31
652.39	41687.28
652.54	41888.57
652.68	41647.49
652.83	41771.54
652.97	41766.86
653.12	42010.28
653.26	41486.00
653.41	41612.38
653.55	41860.48
653.70	41839.42
653.84	41998.57
653.99	41808.99
654.13	41837.08
654.27	41357.27
654.42	41542.17
654.56	41572.60
654.71	41759.84
654.85	41848.78
655.00	41191.09
655.14	41343.22
655.29	41839.42
655.43	41413.44
655.57	41455.57
655.72	41223.86
655.86	41383.01
656.01	41368.97
656.15	40786.18
656.30	40847.03
656.44	41635.79
656.58	41481.31
656.73	41593.66
656.87	40861.07
657.01	40989.80
657.16	41144.28
657.30	41141.94
657.45	40931.29
657.59	40804.90
657.73	40472.54
657.88	40935.97
658.02	40760.43
658.16	40858.73
658.31	40790.86
658.45	41146.62
658.60	40395.31
658.74	40788.52
658.88	40737.02
659.03	40636.38
659.17	40517.01
659.31	40006.78
659.46	40371.90
659.60	40376.58
659.74	40196.36
659.89	39920.18
660.03	40069.97
660.17	40165.93
660.32	40175.30
660.46	40105.08
660.60	39784.43
660.74	40224.45
660.89	40243.17
661.03	39754.00
661.17	39810.17
661.32	39959.97
661.46	39969.33
661.60	39880.39
661.74	39686.12
661.89	39819.53
662.03	39845.28
662.17	39316.32
662.31	39414.62
662.46	39674.42
662.60	39454.41
662.74	38899.70
662.88	38998.01
663.03	39274.19
663.17	38660.97
663.31	38693.74
663.45	39339.72
663.60	38761.61
663.74	38822.47
663.88	38995.67
664.02	38588.41
664.17	38763.95
664.31	38857.57
664.45	38541.60
664.59	38785.02
664.73	38815.44
664.88	38581.39
665.02	38136.69
665.16	37979.87
665.30	38466.70
665.44	38239.67
665.59	38335.63
665.73	38089.88
665.87	37785.61
666.01	38017.32
666.15	38302.87
666.29	37919.02
666.44	38017.32
666.58	37888.59
666.72	37670.92
666.86	37722.41
667.00	37701.35
667.14	37780.93
667.28	37277.71
667.43	37511.77
667.57	37614.75
667.71	37638.15
667.85	37418.14
667.99	37324.52
668.13	37167.71
668.27	37057.70
668.41	36662.15
668.56	37071.75
668.70	36889.18
668.84	36737.05
668.98	36952.38
669.12	37170.05
669.26	36973.44
669.40	36926.63
669.54	37074.09
669.68	36725.35
669.82	36266.60
669.96	36294.69
670.10	36037.23
670.25	36456.18
670.39	36304.05
670.53	36011.48
670.67	36231.49
670.81	36268.94
670.95	35906.16
671.09	35793.81
671.23	35854.67
671.37	36100.42
671.51	35641.68
671.65	35751.68
671.79	35702.53
671.93	35529.33
672.07	35569.12
672.21	35257.83
672.35	34878.66
672.49	35445.07
672.63	35278.89
672.77	35047.18
672.91	35065.91
673.05	34918.45
673.19	34857.60
673.33	34485.45
673.47	34682.06
673.61	34960.58
673.75	34604.82
673.89	34609.50
674.03	34412.90
674.17	34185.86
674.31	33626.48
674.45	33844.15
674.59	33858.19
674.73	34389.49
674.87	34099.26
675.01	33275.40
675.15	33792.65
675.29	33401.79
675.43	33486.04
675.56	33645.20
675.70	32947.72
675.84	33359.66
675.98	32247.90
676.12	33177.09
676.26	33666.27
676.40	33261.35
676.54	32561.53
676.68	32938.36
676.82	32243.22
676.96	32627.07
677.10	32847.08
677.23	32617.71
677.37	32325.14
677.51	32006.83
677.65	31803.20
677.79	31868.73
677.93	32187.05
678.07	32119.17
678.21	31814.90
678.34	31248.49
678.48	31452.12
678.62	31409.99
678.76	31047.21
678.90	31166.57
679.04	31585.53
679.18	31360.84
679.31	31220.41
679.45	30586.12
679.59	31033.16
679.73	30827.20
679.87	30834.22
680.00	30913.80
680.14	30644.63
680.28	30246.74
680.42	30558.03
680.56	30169.51
680.70	30078.22
680.83	29837.15
680.97	30204.61
681.11	29961.20
681.25	29799.70
681.39	29312.87
681.52	29118.60
681.66	29174.78
681.80	28807.31
681.94	29137.33
682.07	28842.42
682.21	29095.20
682.35	28414.10
682.49	28704.33
682.62	28561.56
682.76	28437.51
682.90	28379.00
683.04	28236.22
683.17	28119.20
683.31	27852.38
683.45	27819.61
683.59	27763.43
683.72	27559.81
683.86	27967.06
684.00	27765.78
684.13	27714.28
684.27	27227.45
684.41	27253.20
684.55	27398.31
684.68	27124.47
684.82	26766.37
684.96	27168.94
685.09	27098.72
685.23	27098.72
685.37	27534.06
685.50	26991.06
685.64	26452.73
685.78	26394.22
685.91	26066.55
686.05	26331.03
686.19	25656.95
686.32	25881.64
686.46	25404.17
686.60	25219.27
686.73	25687.38
686.87	25443.96
687.01	25954.20
687.14	25673.34
687.28	25369.07
687.42	25560.99
687.55	25095.22
687.69	25123.31
687.82	24943.09
687.96	24924.36
688.10	25172.46
688.23	24809.68
688.37	25209.91
688.50	24566.26
688.64	24945.43
688.78	24594.35
688.91	24254.97
689.05	24472.64
689.18	23826.65
689.32	23922.62
689.46	23515.36
689.59	23763.46
689.73	24041.98
689.86	24093.47
690.00	23847.72
690.13	23522.38
690.27	23601.96
690.41	23517.70
690.54	23321.10
690.68	23016.83
690.81	22801.50
690.95	23098.75
691.08	22761.71
691.22	22342.75
691.35	22448.08
691.49	22838.95
691.62	22822.56
691.76	22422.33
691.89	22291.26
692.03	21876.99
692.16	21926.14
692.30	22010.40
692.43	22120.40
692.57	21696.77
692.70	21600.80
692.84	21558.67
692.97	21256.75
693.11	21266.11
693.24	21128.02
693.38	20903.32
693.51	20809.70
693.65	21055.46
693.78	20767.57
693.92	20634.16
694.05	20648.21
694.19	20425.86
694.32	20589.69
694.45	21020.35
694.59	20725.44
694.72	20678.63
694.86	20350.96
694.99	20503.09
695.13	20119.24
695.26	19819.66
695.39	19740.08
695.53	19690.93
695.66	19674.54
695.80	19527.09
695.93	19424.11
696.07	19557.52
696.20	19056.64
696.33	18794.50
696.47	18806.20
696.60	18609.60
696.73	18857.70
696.87	18906.85
697.00	19061.32
697.14	18548.75
697.27	18429.38
697.40	18532.36
697.54	18415.34
697.67	18221.07
697.80	18490.23
697.94	18134.47
698.07	18377.89
698.21	17813.82
698.34	17884.03
698.47	17851.27
698.61	17446.35
698.74	17752.96
698.87	17769.35
699.01	17469.76
699.14	17654.66
699.27	17228.68
699.40	17282.52
699.54	17266.13
699.67	17202.94
699.80	17083.57
699.94	17081.23
700.07	17259.11
700.20	17146.76
700.34	16940.80
700.47	16844.84
700.60	17050.80
700.73	16580.36
700.87	16507.80
701.00	16353.32
701.13	16170.76
701.26	16156.72
701.40	16245.66
701.53	16154.38
701.66	16025.65
701.79	15903.94
701.93	16009.26
702.06	15634.78
702.19	15494.35
702.32	15620.74
702.46	15606.69
702.59	15786.91
702.72	15274.34
702.85	15475.62
702.99	15363.28
703.12	15164.33
703.25	15290.72
703.38	14974.75
703.51	15026.24
703.65	14909.21
703.78	14574.52
703.91	14600.26
704.04	14766.44
704.17	14473.87
704.31	14382.59
704.44	14459.83
704.57	14295.99
704.70	14267.91
704.83	14080.66
704.96	14230.46
705.10	14143.86
705.23	14061.94
>>>>>End Processed Spectral Data<<<<<
