SpectraSuite Data File
++++++++++++++++++++++++++++++++++++
Date: Fri Oct 25 11:34:19 EDT 2013
User: price-jones
Dark Spectrum Present: No
Reference Spectrum Present: No
Number of Sampled Component Spectra: 1
Spectrometers: USB2+H05261
Integration Time (usec): 100000 (USB2+H05261)
Spectra Averaged: 1 (USB2+H05261)
Boxcar Smoothing: 0 (USB2+H05261)
Correct for Electrical Dark: No (USB2+H05261)
Strobe/Lamp Enabled: No (USB2+H05261)
Correct for Detector Non-linearity: No (USB2+H05261)
Correct for Stray Light: No (USB2+H05261)
Number of Pixels in Processed Spectrum: 2048
>>>>>Begin Processed Spectral Data<<<<<
365.73	255.12
365.92	255.12
366.12	255.12
366.32	170.86
366.52	212.99
366.72	191.92
366.91	154.48
367.11	184.90
367.31	177.88
367.51	205.97
367.70	217.67
367.90	124.05
368.10	138.09
368.30	121.71
368.49	173.20
368.69	215.33
368.89	227.03
369.09	224.69
369.28	205.97
369.48	241.08
369.68	234.05
369.87	304.27
370.07	236.39
370.27	280.86
370.47	318.31
370.66	491.51
370.86	517.26
371.06	458.74
371.25	601.52
371.45	503.22
371.65	533.64
371.84	566.41
372.04	512.58
372.24	599.18
372.44	545.34
372.63	547.69
372.83	627.26
373.03	589.82
373.22	587.47
373.42	571.09
373.62	643.65
373.81	645.99
374.01	599.18
374.21	631.94
374.40	566.41
374.60	683.44
374.79	638.97
374.99	627.26
375.19	657.69
375.38	636.63
375.58	606.20
375.78	674.07
375.97	603.86
376.17	734.93
376.37	645.99
376.56	648.33
376.76	678.76
376.95	624.92
377.15	676.41
377.35	713.86
377.54	723.23
377.74	599.18
377.93	653.01
378.13	697.48
378.33	704.50
378.52	681.10
378.72	706.84
378.91	739.61
379.11	784.08
379.31	702.16
379.50	699.82
379.70	678.76
379.89	653.01
380.09	706.84
380.28	739.61
380.48	746.63
380.68	753.65
380.87	725.57
381.07	753.65
381.26	734.93
381.46	725.57
381.65	772.38
381.85	746.63
382.04	734.93
382.24	760.67
382.43	713.86
382.63	744.29
382.83	688.12
383.02	718.54
383.22	795.78
383.41	781.74
383.61	802.80
383.80	798.12
384.00	727.91
384.19	692.80
384.39	788.76
384.58	812.17
384.78	800.46
384.97	767.70
385.17	800.46
385.36	798.12
385.56	837.91
385.75	844.93
385.95	816.85
386.14	856.64
386.34	866.00
386.53	882.38
386.72	842.59
386.92	898.77
387.11	922.17
387.31	894.08
387.50	854.30
387.70	875.36
387.89	812.17
388.09	870.68
388.28	847.27
388.48	912.81
388.67	863.66
388.86	873.02
389.06	966.64
389.25	943.24
389.45	940.90
389.64	966.64
389.84	875.36
390.03	961.96
390.22	1039.20
390.42	966.64
390.61	851.96
390.81	961.96
391.00	952.60
391.19	1004.09
391.39	990.05
391.58	961.96
391.78	1008.77
391.97	1008.77
392.16	980.68
392.36	1020.47
392.55	1050.90
392.75	1086.01
392.94	999.41
393.13	945.58
393.33	1001.75
393.52	992.39
393.71	1074.31
393.91	1020.47
394.10	1013.45
394.29	1011.11
394.49	1022.81
394.68	1027.50
394.88	1057.92
395.07	1132.82
395.26	1137.50
395.46	1123.46
395.65	1170.27
395.84	1210.06
396.04	1196.01
396.23	1245.16
396.42	1242.82
396.62	1214.74
396.81	1210.06
397.00	1203.04
397.19	1221.76
397.39	1172.61
397.58	1263.89
397.77	1240.48
397.97	1256.87
398.16	1224.10
398.35	1210.06
398.55	1221.76
398.74	1242.82
398.93	1334.11
399.12	1338.79
399.32	1210.06
399.51	1259.21
399.70	1327.08
399.90	1329.42
400.09	1252.19
400.28	1352.83
400.47	1373.89
400.67	1465.18
400.86	1343.47
401.05	1366.87
401.24	1362.19
401.44	1437.09
401.63	1446.45
401.82	1413.68
402.01	1345.81
402.21	1409.00
402.40	1483.90
402.59	1472.20
402.78	1455.81
402.97	1514.33
403.17	1479.22
403.36	1486.24
403.55	1540.07
403.74	1607.95
403.93	1561.14
404.13	1563.48
404.32	1572.84
404.51	1591.56
404.70	1554.12
404.89	1675.82
405.09	1589.22
405.28	1640.72
405.47	1626.67
405.66	1696.89
405.85	1685.19
406.05	1694.55
406.24	1710.93
406.43	1680.50
406.62	1860.73
406.81	1795.19
407.00	1696.89
407.20	1715.61
407.39	1715.61
407.58	1790.51
407.77	1827.96
407.96	1846.68
408.15	1844.34
408.34	1771.79
408.54	1956.69
408.73	1827.96
408.92	1891.15
409.11	1877.11
409.30	1982.43
409.49	1989.46
409.68	1963.71
409.87	1888.81
410.07	1891.15
410.26	1952.01
410.45	1919.24
410.64	2087.76
410.83	2078.40
411.02	2050.31
411.21	2057.33
411.40	2101.80
411.59	2118.18
411.78	2083.08
411.98	2155.63
412.17	2230.53
412.36	2209.47
412.55	2282.02
412.74	2321.81
412.93	2270.32
413.12	2216.49
413.31	2272.66
413.50	2279.68
413.69	2347.56
413.88	2356.92
414.07	2406.07
414.26	2377.98
414.45	2363.94
414.64	2504.37
414.83	2480.97
415.02	2504.37
415.22	2595.65
415.41	2576.93
415.60	2567.57
415.79	2569.91
415.98	2668.21
416.17	2593.31
416.36	2640.12
416.55	2588.63
416.74	2808.64
416.93	2766.51
417.12	2815.66
417.31	2785.24
417.50	2715.02
417.69	2848.43
417.88	2871.84
418.07	2892.90
418.26	2832.05
418.45	2935.03
418.64	3035.67
418.83	3103.55
419.02	2953.76
419.21	2956.10
419.39	2986.52
419.58	2993.55
419.77	2916.31
419.96	3084.83
420.15	3030.99
420.34	3148.02
420.53	3052.06
420.72	3005.25
420.91	3194.83
421.10	3112.91
421.29	3229.94
421.48	3105.89
421.67	3215.90
421.86	3220.58
422.05	3124.62
422.24	3222.92
422.43	3220.58
422.61	3391.44
422.80	3332.92
422.99	3251.00
423.18	3279.09
423.37	3442.93
423.56	3272.07
423.75	3283.77
423.94	3311.86
424.13	3094.19
424.32	3145.68
424.50	3297.81
424.69	3382.07
424.88	3414.84
425.07	3361.01
425.26	3286.11
425.45	3375.05
425.64	3243.98
425.83	3389.10
426.01	3255.69
426.20	3356.33
426.39	3309.52
426.58	3325.90
426.77	3365.69
426.96	3363.35
427.15	3379.73
427.33	3482.72
427.52	3485.06
427.71	3541.23
427.90	3459.31
428.09	3475.70
428.28	3529.53
428.46	3545.91
428.65	3463.99
428.84	3765.92
429.03	3693.37
429.22	3602.08
429.40	3599.74
429.59	3569.32
429.78	3571.66
429.97	3574.00
430.16	3686.34
430.34	3719.11
430.53	3735.50
430.72	3742.52
430.91	3681.66
431.10	3698.05
431.28	3786.99
431.47	3915.72
431.66	3915.72
431.85	3805.71
432.03	3843.16
432.22	3992.95
432.41	3955.51
432.60	3995.29
432.79	3880.61
432.97	3960.19
433.16	3992.95
433.35	4065.51
433.54	4093.60
433.72	4212.96
433.91	4028.06
434.10	4065.51
434.28	4030.40
434.47	4100.62
434.66	4133.39
434.85	4142.75
435.03	4278.50
435.22	4201.26
435.41	4257.43
435.59	4201.26
435.78	4175.52
435.97	4292.54
436.16	4203.60
436.34	4191.90
436.53	4311.27
436.72	4437.66
436.90	4212.96
437.09	4341.69
437.28	4327.65
437.46	4440.00
437.65	4517.23
437.84	4486.81
438.02	4468.08
438.21	4517.23
438.40	4461.06
438.58	4650.64
438.77	4512.55
438.96	4542.98
439.14	4617.88
439.33	4762.99
439.52	4709.16
439.70	4636.60
439.89	4812.14
440.08	4765.33
440.26	4777.03
440.45	4802.78
440.63	4917.47
440.82	5158.54
441.01	5008.75
441.19	5036.83
441.38	5043.85
441.57	4917.47
441.75	5170.24
441.94	5195.99
442.12	5144.50
442.31	5458.13
442.50	5359.83
442.68	5308.34
442.87	5226.42
443.05	5509.62
443.24	5256.84
443.43	5252.16
443.61	5427.70
443.80	5455.79
443.98	5296.63
444.17	5252.16
444.35	5406.64
444.54	5488.56
444.73	5528.35
444.91	5397.28
445.10	5483.88
445.28	5406.64
445.47	5612.60
445.65	5458.13
445.84	5495.58
446.02	5556.43
446.21	5479.19
446.39	5465.15
446.58	5633.67
446.77	5713.25
446.95	5439.40
447.14	5568.13
447.32	5771.76
447.51	5643.03
447.69	5467.49
447.88	5713.25
448.06	5490.90
448.25	5537.71
448.43	5689.84
448.62	5586.86
448.80	5619.63
448.99	5652.39
449.17	5713.25
449.36	5769.42
449.54	5860.70
449.73	5863.04
449.91	5937.94
450.10	5982.41
450.28	5916.87
450.46	6029.22
450.65	6085.39
450.83	5921.56
451.02	5956.66
451.20	6005.81
451.39	6085.39
451.57	5879.43
451.76	5776.44
451.94	5996.45
452.13	6148.59
452.31	6015.18
452.49	6015.18
452.68	6122.84
452.86	6057.31
453.05	6307.74
453.23	6251.57
453.42	6118.16
453.60	6019.86
453.78	6174.33
453.97	6087.73
454.15	6169.65
454.34	6284.34
454.52	6373.28
454.70	6326.47
454.89	6310.08
455.07	6410.73
455.26	6317.11
455.44	6534.78
455.62	6541.80
455.81	6628.40
455.99	6513.71
456.17	6499.67
456.36	6609.67
456.54	6626.06
456.73	6799.26
456.91	6703.29
457.09	6729.04
457.28	6885.86
457.46	6574.56
457.64	6864.79
457.83	6794.58
458.01	6836.70
458.19	6993.52
458.38	6981.82
458.56	6759.47
458.74	6846.07
458.93	6787.55
459.11	7028.63
459.29	6822.66
459.48	7155.02
459.66	7045.01
459.84	7194.81
460.03	7243.96
460.21	7185.44
460.39	7108.21
460.57	7122.25
460.76	7314.17
460.94	7152.68
461.12	7215.87
461.31	7293.11
461.49	7208.85
461.67	7323.54
461.85	7552.91
462.04	7197.15
462.22	7798.66
462.40	7618.44
462.59	7534.18
462.77	7482.69
462.95	7363.33
463.13	7508.44
463.32	7524.82
463.50	7543.55
463.68	7672.28
463.86	7683.98
464.05	7492.05
464.23	7536.52
464.41	7695.68
464.59	7625.47
464.78	7957.82
464.96	7641.85
465.14	7765.90
465.32	7761.22
465.50	7761.22
465.69	8002.29
465.87	7812.71
466.05	7803.35
466.23	8065.49
466.41	7686.32
466.60	7983.57
466.78	7925.05
466.96	8072.51
467.14	8203.58
467.32	8088.89
467.51	7927.39
467.69	7808.03
467.87	7878.24
468.05	8102.93
468.23	8002.29
468.41	7878.24
468.60	8138.04
468.78	8049.10
468.96	8046.76
469.14	8351.03
469.32	8418.91
469.50	8074.85
469.69	8336.99
469.87	8505.51
470.05	8442.31
470.23	8681.05
470.41	8482.10
470.59	8526.57
470.77	8566.36
470.95	8669.34
471.14	8788.71
471.32	8439.97
471.50	8664.66
471.68	8573.38
471.86	8720.84
472.04	9001.70
472.22	9064.89
472.40	8657.64
472.58	8933.82
472.77	9226.39
472.95	9083.62
473.13	9341.08
473.31	9011.06
473.49	9114.05
473.67	9074.26
473.85	8910.42
474.03	9397.25
474.21	9415.98
474.39	9533.00
474.57	9528.32
474.75	9575.13
474.93	9554.07
475.12	9380.87
475.30	9547.05
475.48	9607.90
475.66	9568.11
475.84	9708.54
476.02	9856.00
476.20	9937.91
476.38	10087.71
476.56	10071.33
476.74	10111.11
476.92	10380.28
477.10	9994.09
477.28	10289.00
477.46	10415.38
477.64	10420.06
477.82	10663.48
478.00	10714.97
478.18	10757.10
478.36	11026.26
478.54	11094.14
478.72	10808.59
478.90	11082.44
479.08	11178.40
479.26	11021.58
479.44	11157.33
479.62	11407.77
479.80	11426.50
479.98	11431.18
480.16	11789.28
480.34	11473.31
480.52	11929.71
480.70	11726.08
480.88	11925.03
481.06	11925.03
481.24	11920.35
481.41	12355.69
481.59	12383.77
481.77	12362.71
481.95	12365.05
482.13	12802.73
482.31	12615.49
482.49	12755.92
482.67	12781.67
482.85	13083.59
483.03	13348.08
483.21	13179.56
483.39	13256.79
483.57	13289.56
483.74	13441.70
483.92	13469.78
484.10	13128.06
484.28	13802.14
484.46	13755.33
484.64	14335.78
484.82	13841.93
485.00	13998.74
485.18	14183.65
485.35	14651.75
485.53	14398.98
485.71	14665.80
485.89	14998.15
486.07	14787.50
486.25	14733.67
486.43	15042.62
486.61	15023.90
486.78	14958.36
486.96	15445.20
487.14	15585.63
487.32	15545.84
487.50	15618.39
487.68	15831.38
487.85	16049.05
488.03	16016.29
488.21	16217.57
488.39	16493.76
488.57	16603.76
488.75	16905.69
488.92	16636.53
489.10	16957.18
489.28	17109.32
489.46	17057.82
489.64	17158.47
489.81	17444.01
489.99	17713.17
490.17	17404.22
490.35	17741.26
490.53	17877.01
490.70	18181.28
490.88	18054.89
491.06	18092.34
491.24	17949.57
491.41	18391.93
491.59	18492.57
491.77	18712.58
491.95	18738.33
492.13	18675.13
492.30	18965.36
492.48	19171.33
492.66	18869.40
492.84	19232.18
493.01	19407.72
493.19	19393.68
493.37	19580.92
493.54	19948.39
493.72	19922.64
493.90	20098.18
494.08	20130.95
494.25	20315.85
494.43	20294.79
494.61	20498.41
494.79	20788.64
494.96	20386.07
495.14	20507.77
495.32	21111.63
495.49	20994.61
495.67	21219.30
495.85	21404.20
496.02	21427.60
496.20	21535.27
496.38	21572.72
496.55	21577.40
496.73	22080.61
496.91	21884.01
497.09	21949.54
497.26	21926.14
497.44	22127.42
497.62	22387.22
497.79	22677.45
497.97	22452.76
498.14	22827.24
498.32	22916.19
498.50	22707.88
498.67	22778.09
498.85	22534.68
499.03	22799.16
499.20	23021.51
499.38	23630.05
499.56	23679.20
499.73	23641.75
499.91	23693.24
500.08	23807.93
500.26	23489.62
500.44	24060.71
500.61	23857.08
500.79	23821.97
500.97	24531.15
501.14	24746.48
501.32	24465.62
501.49	24460.94
501.67	24254.97
501.84	24833.08
502.02	24376.68
502.20	24833.08
502.37	24727.76
502.55	24547.54
502.72	25212.25
502.90	24982.88
503.07	24954.79
503.25	25226.29
503.43	25221.61
503.60	25301.19
503.78	25509.50
503.95	25490.77
504.13	25811.43
504.30	25441.62
504.48	25516.52
504.65	25652.27
504.83	26089.95
505.01	26010.37
505.18	26146.12
505.36	26242.09
505.53	26368.48
505.71	26445.71
505.88	26431.67
506.06	26223.36
506.23	26487.84
506.41	26431.67
506.58	26803.82
506.76	26822.54
506.93	26913.82
507.11	27075.32
507.28	26944.25
507.46	26984.04
507.63	27087.02
507.81	27597.26
507.98	27562.15
508.16	27644.07
508.33	27793.86
508.50	27571.51
508.68	27494.27
508.85	27936.63
509.03	27903.87
509.20	27620.66
509.38	28287.71
509.55	27978.76
509.73	28545.17
509.90	28477.30
510.08	28292.40
510.25	28350.91
510.42	28561.56
510.60	28835.40
510.77	28804.97
510.95	29221.59
511.12	28957.11
511.30	28730.08
511.47	28950.09
511.64	29174.78
511.82	29322.23
511.99	29364.36
512.17	29633.52
512.34	29280.10
512.51	29277.76
512.69	29804.38
512.86	29867.58
513.04	29907.37
513.21	29715.44
513.38	29820.77
513.56	30085.25
513.73	30110.99
513.90	29993.97
514.08	30246.74
514.25	30431.65
514.43	30433.99
514.60	30808.47
514.77	30541.65
514.95	30888.05
515.12	30497.18
515.29	30529.95
515.47	30871.67
515.64	30902.09
515.81	30455.05
515.99	31255.51
516.16	31285.94
516.33	31143.17
516.51	31133.81
516.68	30991.03
516.85	31061.25
517.03	31639.36
517.20	31871.07
517.37	31531.70
517.54	32182.37
517.72	31908.52
517.89	31901.50
518.06	31798.52
518.24	31990.44
518.41	31782.13
518.58	31707.24
518.75	31653.40
518.93	32556.85
519.10	31936.61
519.27	32299.39
519.45	32297.05
519.62	31988.10
519.79	32542.81
519.96	32271.31
520.14	32526.42
520.31	32746.44
520.48	32711.33
520.65	32861.12
520.83	33296.46
521.00	33188.80
521.17	33151.35
521.34	32821.33
521.52	33263.69
521.69	32933.68
521.86	33383.06
522.03	33769.25
522.20	33605.41
522.38	33380.72
522.55	33806.70
522.72	34000.96
522.89	33766.91
523.07	33869.89
523.24	33762.23
523.41	34146.08
523.58	33677.97
523.75	34338.00
523.92	34230.33
524.10	34609.50
524.27	34595.46
524.44	34225.65
524.61	34464.39
524.78	34480.77
524.96	34775.68
525.13	34747.59
525.30	34881.00
525.47	34838.87
525.64	34960.58
525.81	34937.18
525.98	35065.91
526.16	34836.53
526.33	34628.23
526.50	35419.33
526.67	35028.46
526.84	35576.14
527.01	35236.77
527.18	35152.51
527.36	35314.00
527.53	35700.19
527.70	36268.94
527.87	36261.92
528.04	35501.25
528.21	35901.48
528.38	35632.32
528.55	35990.42
528.72	35906.16
528.89	36348.52
529.07	35903.82
529.24	35807.86
529.41	35824.24
529.58	36472.57
529.75	36559.17
529.92	36184.68
530.09	36224.47
530.26	36432.78
530.43	36435.12
530.60	36495.97
530.77	36065.31
530.94	36800.24
531.11	36505.34
531.28	36765.14
531.46	36690.24
531.63	36575.55
531.80	36577.89
531.97	36364.90
532.14	36933.65
532.31	37195.79
532.48	36924.29
532.65	37317.50
532.82	37223.88
532.99	36924.29
533.16	36964.08
533.33	37841.78
533.50	37509.43
533.67	37368.99
533.84	36854.08
534.01	37359.63
534.18	37521.13
534.35	37514.11
534.52	37624.11
534.69	37907.32
534.86	37935.40
535.03	37951.79
535.20	38064.13
535.37	37954.13
535.54	38080.52
535.71	37986.89
535.88	38099.24
536.05	38153.07
536.22	38370.74
536.38	38326.27
536.55	38227.97
536.72	38080.52
536.89	37961.15
537.06	38457.34
537.23	38806.08
537.40	38045.41
537.57	38234.99
537.74	38543.94
537.91	38852.89
538.08	38904.38
538.25	38653.95
538.42	38637.56
538.59	39026.09
538.75	38733.53
538.92	38845.87
539.09	39328.02
539.26	39023.75
539.43	39227.38
539.60	39000.35
539.77	39019.07
539.94	39302.28
540.11	39580.80
540.28	39246.10
540.44	39150.14
540.61	38946.51
540.78	39222.70
540.95	39313.98
541.12	39374.83
541.29	39531.65
541.46	39693.15
541.62	39770.38
541.79	39690.80
541.96	39377.17
542.13	39981.03
542.30	39810.17
542.47	39796.13
542.63	39697.83
542.80	40044.23
542.97	40294.66
543.14	40414.03
543.31	40257.21
543.48	40062.95
543.64	40549.78
543.81	40762.77
543.98	40697.24
544.15	40598.93
544.32	40718.30
544.48	41265.99
544.65	40814.26
544.82	40950.01
544.99	40533.40
545.16	41050.66
545.32	40725.32
545.49	41354.93
545.66	41434.50
545.83	41270.67
546.00	41476.63
546.16	40954.69
546.33	41006.19
546.50	40662.13
546.67	41336.20
546.83	41055.34
547.00	41144.28
547.17	40928.95
547.34	41603.02
547.50	41003.85
547.67	41296.41
547.84	41577.28
548.00	41364.29
548.17	41841.76
548.34	42012.62
548.51	41738.77
548.67	41869.84
548.84	41900.27
549.01	41659.20
549.18	41691.96
549.34	41907.29
549.51	41944.74
549.68	42136.66
549.84	41883.89
550.01	41911.97
550.18	41537.49
550.34	42131.98
550.51	41963.46
550.68	42349.65
550.84	42024.32
551.01	42501.79
551.18	41588.98
551.34	42511.15
551.51	42249.01
551.68	42595.41
551.84	42085.17
552.01	42213.90
552.18	42644.56
552.34	42529.87
552.51	42508.81
552.68	42651.58
552.84	42330.93
553.01	42707.76
553.18	42820.10
553.34	42579.03
553.51	42588.39
553.67	43208.63
553.84	43213.31
554.01	42955.85
554.17	42483.06
554.34	42656.26
554.51	43091.60
554.67	43091.60
554.84	43175.86
555.00	43220.33
555.17	42995.64
555.33	43072.88
555.50	43028.41
555.67	43014.37
555.83	42876.27
556.00	43143.09
556.16	43536.30
556.33	43739.93
556.50	43508.22
556.66	43519.92
556.83	43257.78
556.99	43447.36
557.16	43559.71
557.32	43475.45
557.49	43899.09
557.65	43281.19
557.82	43559.71
557.98	43924.83
558.15	43641.63
558.32	43863.98
558.48	43765.68
558.65	43863.98
558.81	43863.98
558.98	43519.92
559.14	43636.95
559.31	43704.82
559.47	44025.48
559.64	43873.34
559.80	44013.77
559.97	43487.15
560.13	43761.00
560.30	43854.62
560.46	44463.16
560.63	44142.50
560.79	44076.97
560.96	44163.57
561.12	44114.42
561.29	44369.54
561.45	43999.73
561.61	43899.09
561.78	44318.04
561.94	44212.72
562.11	44322.72
562.27	44247.83
562.44	43959.94
562.60	44577.84
562.77	44399.96
562.93	44507.63
563.10	44748.70
563.26	44378.90
563.42	44694.87
563.59	44196.34
563.75	44458.48
563.92	44594.23
564.08	44264.21
564.24	44479.54
564.41	44652.74
564.57	44601.25
564.74	44442.09
564.90	44655.08
565.07	44430.39
565.23	44451.45
565.39	44350.81
565.56	44856.37
565.72	44140.16
565.88	44634.02
566.05	44292.30
566.21	44514.65
566.38	44657.42
566.54	44800.19
566.70	44610.61
566.87	44868.07
567.03	44573.16
567.19	45043.61
567.36	44486.56
567.52	44423.37
567.68	44704.23
567.85	44804.88
568.01	44547.42
568.17	44261.87
568.34	45244.90
568.50	44758.06
568.66	44755.72
568.83	44737.00
568.99	44872.75
569.15	45294.05
569.32	44921.90
569.48	45401.71
569.64	45462.57
569.81	45097.44
569.97	45160.64
570.13	45223.83
570.30	44605.93
570.46	45254.26
570.62	45052.97
570.78	45401.71
570.95	44912.54
571.11	45324.47
571.27	45308.09
571.43	44992.12
571.60	44921.90
571.76	44795.51
571.92	44816.58
572.09	45130.21
572.25	44783.81
572.41	45106.80
572.57	45315.11
572.74	45654.49
572.90	45251.92
573.06	45815.99
573.22	45460.23
573.38	45326.81
573.55	45808.96
573.71	45537.46
573.87	45415.76
574.03	45645.13
574.20	45708.32
574.36	45137.23
574.52	45308.09
574.68	45413.41
574.84	45659.17
575.01	45343.20
575.17	45525.76
575.33	45155.96
575.49	44971.05
575.65	45818.33
575.82	45918.97
575.98	45308.09
576.14	45603.00
576.30	45633.42
576.46	45446.18
576.62	45584.27
576.79	45095.10
576.95	45333.84
577.11	45205.11
577.27	45595.98
577.43	45656.83
577.59	45593.64
577.75	45731.73
577.92	45368.94
578.08	45530.44
578.24	45567.89
578.40	45703.64
578.56	45841.73
578.72	45490.65
578.88	45324.47
579.04	45507.04
579.21	45347.88
579.37	45876.84
579.53	45776.20
579.69	45439.16
579.85	45432.14
580.01	45488.31
580.17	45684.92
580.33	45743.43
580.49	45787.90
580.65	45670.87
580.82	45811.31
580.98	45439.16
581.14	45312.77
581.30	45654.49
581.46	45703.64
581.62	45675.55
581.78	45656.83
581.94	45815.99
582.10	45237.87
582.26	45553.85
582.42	45677.90
582.58	45937.69
582.74	46108.55
582.90	45944.72
583.06	45888.54
583.22	45357.24
583.38	46054.72
583.54	45773.86
583.70	46068.76
583.86	45963.44
584.02	45830.03
584.18	46295.80
584.34	45563.21
584.50	45801.94
584.66	45853.44
584.82	46075.79
584.98	45879.18
585.14	45911.95
585.30	45612.36
585.46	45916.63
585.62	45937.69
585.78	46256.01
585.94	45904.93
586.10	45773.86
586.26	45572.57
586.42	45834.71
586.58	45626.40
586.74	45696.62
586.90	45869.82
587.06	45642.79
587.22	46543.89
587.38	45839.39
587.54	45965.78
587.70	45806.62
587.86	45900.25
588.02	45972.80
588.18	46211.54
588.34	45855.78
588.49	45820.67
588.65	45902.59
588.81	45925.99
588.97	46024.29
589.13	45827.69
589.29	45909.61
589.45	46284.09
589.61	46380.06
589.77	46131.96
589.93	46298.14
590.08	46314.52
590.24	46216.22
590.40	46447.93
590.56	46199.83
590.72	46635.17
590.88	46000.89
591.04	46361.33
591.20	46604.75
591.35	46506.44
591.51	46436.23
591.67	46712.41
591.83	46763.90
591.99	46330.90
592.15	46473.68
592.31	46286.43
592.46	46129.62
592.62	46600.07
592.78	46564.96
592.94	46607.09
593.10	46553.26
593.26	46869.23
593.41	46326.22
593.57	46637.51
593.73	46445.59
593.89	46897.31
594.05	46831.78
594.20	46862.21
594.36	46621.13
594.52	46834.12
594.68	46499.42
594.84	46454.95
594.99	46564.96
595.15	46344.95
595.31	46370.69
595.47	46469.00
595.62	46731.14
595.78	46480.70
595.94	46658.58
596.10	46354.31
596.25	46728.80
596.41	46808.37
596.57	46274.73
596.73	46827.10
596.88	46616.45
597.04	46852.84
597.20	46653.90
597.36	46597.73
597.51	46571.98
597.67	46581.34
597.83	46515.81
597.99	46813.05
598.14	46321.54
598.30	46777.95
598.46	46670.28
598.61	47096.26
598.77	46759.22
598.93	46775.61
599.09	47033.07
599.24	46735.82
599.40	46838.80
599.56	46562.62
599.71	47206.26
599.87	46909.02
600.03	47147.75
600.18	46756.88
600.34	46869.23
600.50	46674.96
600.65	46951.15
600.81	46997.96
600.97	46777.95
601.12	46859.87
601.28	46995.62
601.44	46548.57
601.59	46698.37
601.75	46808.37
601.91	47122.01
602.06	46789.65
602.22	47201.58
602.37	46728.80
602.53	46845.82
602.69	46843.48
602.84	46426.87
603.00	46717.09
603.16	46951.15
603.31	47033.07
603.47	46894.97
603.62	46911.36
603.78	46658.58
603.94	47185.20
604.09	47056.47
604.25	46447.93
604.40	46550.91
604.56	46920.72
604.71	46873.91
604.87	46782.63
605.03	47084.56
605.18	46721.77
605.34	46286.43
605.49	46752.20
605.65	46579.00
605.80	46396.44
605.96	46653.90
606.12	46401.12
606.27	46677.30
606.43	46600.07
606.58	47103.28
606.74	46714.75
606.89	46506.44
607.05	46600.07
607.20	46621.13
607.36	46857.52
607.51	46862.21
607.67	46129.62
607.82	46478.36
607.98	46422.19
608.13	46618.79
608.29	46707.73
608.44	46532.19
608.60	46672.62
608.75	46564.96
608.91	46314.52
609.06	46120.26
609.22	46782.63
609.37	46410.48
609.53	46787.31
609.68	46508.79
609.84	46375.37
609.99	46546.23
610.15	46684.33
610.30	46309.84
610.46	46028.98
610.61	46752.20
610.76	46628.15
610.92	46012.59
611.07	46337.93
611.23	46199.83
611.38	46265.37
611.54	46328.56
611.69	46656.24
611.84	46232.60
612.00	45874.50
612.15	46286.43
612.31	46167.07
612.46	45652.15
612.62	46527.51
612.77	46237.28
612.92	46691.35
613.08	45996.21
613.23	46368.35
613.39	46124.94
613.54	45872.16
613.69	46162.39
613.85	46209.20
614.00	46436.23
614.15	46197.49
614.31	45984.51
614.46	46007.91
614.62	45958.76
614.77	46408.14
614.92	45984.51
615.08	46150.68
615.23	45881.52
615.38	46361.33
615.54	45996.21
615.69	45581.93
615.84	45492.99
616.00	46368.35
616.15	46036.00
616.30	46216.22
616.46	45893.22
616.61	45764.49
616.76	45815.99
616.92	45570.23
617.07	46181.11
617.22	45935.35
617.37	45713.00
617.53	45392.35
617.68	46085.15
617.83	45755.13
617.99	46057.06
618.14	45614.70
618.29	45317.45
618.45	45343.20
618.60	45270.64
618.75	45567.89
618.90	45701.30
619.06	45375.97
619.21	45443.84
619.36	45687.26
619.51	45226.17
619.67	45441.50
619.82	45759.81
619.97	45563.21
620.12	45375.97
620.28	45184.04
620.43	45184.04
620.58	45455.54
620.73	45794.92
620.89	45855.78
621.04	45750.45
621.19	45471.93
621.34	45680.24
621.49	45106.80
621.65	45937.69
621.80	45614.70
621.95	45146.59
622.10	45429.80
622.25	45221.49
622.41	45354.90
622.56	45078.72
622.71	45258.94
622.86	45132.55
623.01	45167.66
623.16	45268.30
623.32	45083.40
623.47	44842.32
623.62	45170.00
623.77	45074.04
623.92	45287.03
624.07	45209.79
624.23	44732.32
624.38	45118.51
624.53	44821.26
624.68	44788.49
624.83	44921.90
624.98	44844.66
625.13	44708.91
625.29	44500.61
625.44	44701.89
625.59	44624.65
625.74	44758.06
625.89	44336.77
626.04	44900.84
626.19	44793.17
626.34	44809.56
626.49	44612.95
626.65	43924.83
626.80	44175.27
626.95	44046.54
627.10	44203.36
627.25	44261.87
627.40	44339.11
627.55	44559.12
627.70	44144.84
627.85	44390.60
628.00	44521.67
628.15	44917.22
628.30	43798.44
628.45	43737.59
628.60	43861.64
628.76	44224.42
628.91	44130.80
629.06	44044.20
629.21	43501.20
629.36	43688.44
629.51	43763.34
629.66	44245.49
629.81	44081.65
629.96	43913.13
630.11	44236.12
630.26	43522.26
630.41	43950.58
630.56	43847.60
630.71	43676.74
630.86	43683.76
631.01	43082.24
631.16	43768.02
631.31	43337.36
631.46	43789.08
631.61	43639.29
631.76	43772.70
631.91	43449.70
632.06	43952.92
632.21	43704.82
632.36	44083.99
632.51	43313.95
632.66	43887.39
632.81	43646.31
632.96	43782.06
633.10	43274.16
633.25	43283.53
633.40	43768.02
633.55	43810.15
633.70	43665.03
633.85	43463.75
634.00	42759.25
634.15	43335.02
634.30	43297.57
634.45	43157.14
634.60	42932.45
634.75	43136.07
634.90	43461.41
635.05	43107.99
635.19	43065.86
635.34	43339.70
635.49	42880.95
635.64	42995.64
635.79	43332.68
635.94	43122.03
636.09	43297.57
636.24	43093.94
636.39	43058.84
636.53	43264.80
636.68	42649.24
636.83	42454.98
636.98	43026.07
637.13	42632.86
637.28	42979.26
637.43	42756.91
637.57	42939.47
637.72	42274.76
637.87	42759.25
638.02	42656.26
638.17	42321.57
638.32	42836.48
638.46	42309.86
638.61	42824.78
638.76	42450.30
638.91	42387.10
639.06	42148.37
639.20	42033.68
639.35	42263.05
639.50	42436.25
639.65	42611.79
639.80	42443.27
639.94	42398.80
640.09	42359.02
640.24	42775.63
640.39	41942.40
640.54	42127.30
640.68	42122.62
640.83	42223.26
640.98	42043.04
641.13	42103.90
641.27	42469.02
641.42	41872.18
641.57	41680.26
641.72	42515.83
641.86	41989.21
642.01	41701.32
642.16	41598.34
642.31	41502.38
642.45	42064.11
642.60	41624.09
642.75	41642.81
642.90	41972.83
643.04	41621.75
643.19	41825.37
643.34	42003.25
643.48	41102.15
643.63	41605.36
643.78	41738.77
643.93	42073.47
644.07	41640.47
644.22	41937.72
644.37	41439.18
644.51	41727.07
644.66	41502.38
644.81	41689.62
644.95	41511.74
645.10	41486.00
645.25	41631.11
645.39	41024.91
645.54	41523.44
645.69	41024.91
645.83	41694.30
645.98	41361.95
646.13	41165.34
646.27	41560.89
646.42	41268.33
646.57	41219.17
646.71	41244.92
646.86	41373.65
647.00	41125.55
647.15	41230.88
647.30	41254.28
647.44	40968.74
647.59	40882.14
647.74	41137.26
647.88	41177.04
648.03	41546.85
648.17	41432.16
648.32	41191.09
648.47	41041.29
648.61	40840.01
648.76	40964.06
648.90	41209.81
649.05	40692.55
649.20	41017.89
649.34	40720.64
649.49	41581.96
649.63	40666.81
649.78	40629.36
649.92	40950.01
650.07	41265.99
650.21	40823.62
650.36	41324.50
650.51	40631.70
650.65	40631.70
650.80	40507.65
650.94	40942.99
651.09	40975.76
651.23	40294.66
651.38	40233.81
651.52	40233.81
651.67	40233.81
651.81	40575.53
651.96	40673.83
652.10	40332.11
652.25	39840.60
652.39	40341.47
652.54	40318.07
652.68	40287.64
652.83	40318.07
652.97	40336.79
653.12	40231.47
653.26	40055.93
653.41	40273.60
653.55	40247.85
653.70	40098.06
653.84	40048.91
653.99	40533.40
654.13	39920.18
654.27	39959.97
654.42	40484.25
654.56	39681.44
654.71	39847.62
654.85	39871.03
655.00	40044.23
655.14	40196.36
655.29	40046.57
655.43	40533.40
655.57	40198.70
655.72	39585.48
655.86	39484.84
656.01	39564.42
656.15	39908.47
656.30	39384.19
656.44	39384.19
656.58	39901.45
656.73	39562.08
656.87	39489.52
657.01	39466.11
657.16	39379.51
657.30	39250.78
657.45	39578.46
657.59	39400.58
657.73	38955.88
657.88	39299.94
658.02	39604.20
658.16	39264.83
658.31	39543.35
658.45	39269.51
658.60	38920.77
658.74	39016.73
658.88	39562.08
659.03	39117.37
659.17	39049.50
659.31	38609.48
659.46	38567.35
659.60	38387.13
659.74	39061.20
659.89	39021.41
660.03	38265.42
660.17	38998.01
660.32	38459.68
660.46	38459.68
660.60	38265.42
660.74	38536.92
660.89	38574.37
661.03	38176.48
661.17	38553.30
661.32	38426.92
661.46	38333.29
661.60	38171.80
661.74	38223.29
661.89	38340.32
662.03	38157.75
662.17	38293.50
662.31	38073.49
662.46	38050.09
662.60	37787.95
662.74	37312.82
662.88	37750.50
663.03	37453.25
663.17	37340.91
663.31	37322.18
663.45	37542.19
663.60	37600.71
663.74	37336.23
663.88	37801.99
664.02	37237.92
664.17	37390.06
664.31	37361.97
664.45	36971.10
664.59	37198.13
664.73	37038.98
664.88	36882.16
665.02	36924.29
665.16	36999.19
665.30	36657.47
665.44	36540.44
665.59	36856.42
665.73	36524.06
665.87	36503.00
666.01	36809.61
666.15	36669.17
666.29	36505.34
666.44	36905.57
666.58	36353.20
666.72	36514.70
666.86	36287.67
667.00	36275.96
667.14	36133.19
667.28	36044.25
667.43	36271.28
667.57	36158.94
667.71	36243.20
667.85	36465.55
667.99	35875.73
668.13	36002.12
668.27	35246.13
668.41	35496.56
668.56	35019.10
668.70	35253.15
668.84	35222.72
668.98	35328.05
669.12	35276.55
669.26	35482.52
669.40	35283.58
669.54	35515.29
669.68	35264.85
669.82	34754.61
669.96	34721.85
670.10	34810.79
670.25	35211.02
670.39	34780.36
670.53	35278.89
670.67	34485.45
670.81	35306.98
670.95	34871.64
671.09	34359.06
671.23	34368.43
671.37	34560.35
671.51	34263.10
671.65	34415.24
671.79	34649.29
671.93	34026.71
672.07	34249.06
672.21	34256.08
672.35	33532.86
672.49	33989.26
672.63	34164.80
672.77	34141.39
672.91	33659.24
673.05	33553.92
673.19	33387.74
673.33	33706.05
673.47	33493.07
673.61	33177.09
673.75	33092.83
673.89	32671.54
674.03	32877.51
674.17	32884.53
674.31	32847.08
674.45	32573.24
674.59	32952.40
674.73	32603.66
674.87	32453.87
675.01	32676.22
675.15	32058.32
675.29	32084.06
675.43	32187.05
675.56	32053.64
675.70	32407.06
675.84	31952.99
675.98	31316.37
676.12	32105.13
676.26	32098.11
676.40	31630.00
676.54	31538.72
676.68	31398.29
676.82	31014.44
676.96	31302.32
677.10	31501.27
677.23	31079.97
677.37	31466.16
677.51	31239.13
677.65	30986.35
677.79	30759.32
677.93	31084.65
678.07	30508.88
678.21	30721.87
678.34	30574.42
678.48	29858.21
678.62	30148.44
678.76	30003.33
678.90	30036.09
679.04	29996.31
679.18	30288.87
679.31	29928.43
679.45	29769.27
679.59	29635.86
679.73	29567.99
679.87	29008.60
680.00	29305.85
680.14	29095.20
680.28	29177.12
680.42	29125.63
680.56	28774.55
680.70	28767.52
680.83	28334.53
680.97	28795.61
681.11	28608.37
681.25	28308.78
681.39	28507.72
681.52	28065.36
681.66	28226.86
681.80	27730.67
681.94	27737.69
682.07	27623.00
682.21	27850.03
682.35	27597.26
682.49	27611.30
682.62	27695.56
682.76	27613.64
682.90	27747.05
683.04	27569.17
683.17	27278.94
683.31	26890.41
683.45	27194.68
683.59	26590.83
683.72	26450.39
683.86	26789.77
684.00	26036.12
684.13	26677.43
684.27	26356.77
684.41	26700.83
684.55	26527.63
684.68	26089.95
684.82	26181.23
684.96	26129.74
685.09	25666.31
685.23	25827.81
685.37	26068.89
685.50	25993.99
685.64	25645.25
685.78	25565.67
685.91	25366.73
686.05	25223.95
686.19	24877.55
686.32	25027.35
686.46	24582.65
686.60	24217.52
686.73	24528.81
686.87	24879.89
687.01	24673.93
687.14	24781.59
687.28	24734.78
687.42	24430.51
687.55	24390.72
687.69	24086.45
687.82	24088.79
687.96	23910.91
688.10	23868.78
688.23	23756.44
688.37	23857.08
688.50	23611.32
688.64	23805.59
688.78	23903.89
688.91	23302.37
689.05	23297.69
689.18	23110.45
689.32	22658.73
689.46	22675.11
689.59	22740.64
689.73	23075.34
689.86	22946.61
690.00	22647.02
690.13	22829.59
690.27	22579.15
690.41	22487.87
690.54	22387.22
690.68	22125.08
690.81	22012.74
690.95	21942.52
691.08	22012.74
691.22	21472.07
691.35	21553.99
691.49	21977.63
691.62	21722.51
691.76	21341.00
691.89	21109.29
692.03	21223.98
692.16	21333.98
692.30	20858.85
692.43	20943.11
692.57	20875.24
692.70	20680.97
692.84	20650.55
692.97	20299.47
693.11	20280.74
693.24	20409.47
693.38	20093.50
693.51	20051.37
693.65	20205.84
693.78	19939.02
693.92	19885.19
694.05	20123.93
694.19	19726.04
694.32	20032.65
694.45	20034.99
694.59	19690.93
694.72	19667.52
694.86	19503.68
694.99	19381.98
695.13	19531.77
695.26	19421.77
695.39	18909.19
695.53	19047.28
695.66	19124.52
695.80	18977.06
695.93	19040.26
696.07	18555.77
696.20	18427.04
696.33	18214.05
696.47	18457.46
696.60	18174.26
696.73	18354.48
696.87	18073.62
697.00	18270.22
697.14	18012.76
697.27	17720.20
697.40	17888.71
697.54	17844.24
697.67	17792.75
697.80	17593.81
697.94	17816.16
698.07	17364.43
698.21	17565.72
698.34	17310.60
698.47	17008.67
698.61	16992.29
698.74	16868.24
698.87	16971.22
699.01	16610.78
699.14	16776.96
699.27	16791.00
699.40	16453.97
699.54	16643.55
699.67	16346.30
699.80	16374.39
699.94	16301.83
700.07	16320.56
700.20	16175.44
700.34	16023.31
700.47	15922.66
700.60	16161.40
700.73	15969.48
700.87	15939.05
701.00	15847.77
701.13	15562.22
701.26	15604.35
701.40	15307.10
701.53	15169.01
701.66	15459.24
701.79	15545.84
701.93	15187.74
702.06	15044.96
702.19	15075.39
702.32	14927.94
702.46	15161.99
702.59	15225.18
702.72	15206.46
702.85	14754.74
702.99	14850.70
703.12	14408.34
703.25	14541.75
703.38	14485.58
703.51	14537.07
703.65	14097.05
703.78	14108.75
703.91	13951.93
704.04	14083.00
704.17	14104.07
704.31	13855.97
704.44	14026.83
704.57	13935.55
704.70	13818.52
704.83	13664.05
704.96	13591.49
705.10	13493.19
705.23	13116.36
>>>>>End Processed Spectral Data<<<<<
