SpectraSuite Data File
++++++++++++++++++++++++++++++++++++
Date: Fri Oct 25 11:33:13 EDT 2013
User: price-jones
Dark Spectrum Present: No
Reference Spectrum Present: No
Number of Sampled Component Spectra: 1
Spectrometers: USB2+H05261
Integration Time (usec): 100000 (USB2+H05261)
Spectra Averaged: 1 (USB2+H05261)
Boxcar Smoothing: 0 (USB2+H05261)
Correct for Electrical Dark: No (USB2+H05261)
Strobe/Lamp Enabled: No (USB2+H05261)
Correct for Detector Non-linearity: No (USB2+H05261)
Correct for Stray Light: No (USB2+H05261)
Number of Pixels in Processed Spectrum: 2048
>>>>>Begin Processed Spectral Data<<<<<
365.73	241.08
365.92	241.08
366.12	241.08
366.32	159.16
366.52	161.50
366.72	177.88
366.91	175.54
367.11	168.52
367.31	145.11
367.51	102.98
367.70	124.05
367.90	208.31
368.10	191.92
368.30	140.43
368.49	170.86
368.69	205.97
368.89	231.71
369.09	140.43
369.28	135.75
369.48	220.01
369.68	241.08
369.87	266.82
370.07	241.08
370.27	245.76
370.47	269.16
370.66	484.49
370.86	521.94
371.06	564.07
371.25	545.34
371.45	538.32
371.65	545.34
371.84	573.43
372.04	594.50
372.24	601.52
372.44	580.45
372.63	566.41
372.83	669.39
373.03	641.31
373.22	547.69
373.42	688.12
373.62	648.33
373.81	603.86
374.01	634.29
374.21	627.26
374.40	585.13
374.60	690.46
374.79	645.99
374.99	601.52
375.19	620.24
375.38	643.65
375.58	678.76
375.78	655.35
375.97	697.48
376.17	641.31
376.37	676.41
376.56	683.44
376.76	678.76
376.95	706.84
377.15	678.76
377.35	641.31
377.54	653.01
377.74	676.41
377.93	695.14
378.13	683.44
378.33	676.41
378.52	648.33
378.72	765.36
378.91	690.46
379.11	734.93
379.31	674.07
379.50	648.33
379.70	730.25
379.89	779.40
380.09	709.18
380.28	770.04
380.48	779.40
380.68	704.50
380.87	739.61
381.07	760.67
381.26	802.80
381.46	678.76
381.65	725.57
381.85	840.25
382.04	718.54
382.24	819.19
382.43	800.46
382.63	699.82
382.83	837.91
383.02	779.40
383.22	830.89
383.41	809.83
383.61	723.23
383.80	856.64
384.00	870.68
384.19	807.48
384.39	837.91
384.58	814.51
384.78	901.11
384.97	784.08
385.17	826.21
385.36	898.77
385.56	833.23
385.75	882.38
385.95	812.17
386.14	903.45
386.34	800.46
386.53	779.40
386.72	870.68
386.92	950.26
387.11	882.38
387.31	898.77
387.50	889.40
387.70	926.85
387.89	952.60
388.09	849.61
388.28	919.83
388.48	905.79
388.67	936.21
388.86	891.74
389.06	880.04
389.25	938.55
389.45	947.92
389.64	954.94
389.84	938.55
390.03	952.60
390.22	1001.75
390.42	905.79
390.61	943.24
390.81	1006.43
391.00	959.62
391.19	1050.90
391.39	964.30
391.58	1069.62
391.78	1055.58
391.97	1008.77
392.16	1100.05
392.36	1102.39
392.55	985.37
392.75	1050.90
392.94	1102.39
393.13	1046.22
393.33	1130.48
393.52	1118.78
393.71	1121.12
393.91	1078.99
394.10	1043.88
394.29	1109.41
394.49	1172.61
394.68	1132.82
394.88	1156.22
395.07	1186.65
395.26	1156.22
395.46	1121.12
395.65	1125.80
395.84	1137.50
396.04	1142.18
396.23	1191.33
396.42	1235.80
396.62	1188.99
396.81	1320.06
397.00	1242.82
397.19	1196.01
397.39	1266.23
397.58	1200.69
397.77	1240.48
397.97	1291.98
398.16	1247.51
398.35	1273.25
398.55	1280.27
398.74	1261.55
398.93	1291.98
399.12	1327.08
399.32	1411.34
399.51	1392.62
399.70	1371.55
399.90	1437.09
400.09	1313.04
400.28	1401.98
400.47	1341.13
400.67	1413.68
400.86	1425.39
401.05	1427.73
401.24	1502.62
401.44	1519.01
401.63	1497.94
401.82	1521.35
402.01	1397.30
402.21	1413.68
402.40	1547.09
402.59	1530.71
402.78	1469.86
402.97	1568.16
403.17	1572.84
403.36	1579.86
403.55	1582.20
403.74	1591.56
403.93	1600.93
404.13	1657.10
404.32	1598.59
404.51	1657.10
404.70	1682.85
404.89	1605.61
405.09	1654.76
405.28	1666.46
405.47	1746.04
405.66	1666.46
405.85	1741.36
406.05	1736.68
406.24	1668.80
406.43	1853.70
406.62	1790.51
406.81	1877.11
407.00	1834.98
407.20	1762.42
407.39	1849.02
407.58	1912.22
407.77	1902.86
407.96	2001.16
408.15	1940.30
408.34	1893.49
408.54	1820.94
408.73	1851.36
408.92	2024.56
409.11	1980.09
409.30	1973.07
409.49	2078.40
409.68	2064.35
409.87	1952.01
410.07	2125.21
410.26	2099.46
410.45	2078.40
410.64	2052.65
410.83	2122.87
411.02	2099.46
411.21	2256.28
411.40	2143.93
411.59	2169.68
411.78	2204.78
411.98	2258.62
412.17	2289.04
412.36	2279.68
412.55	2282.02
412.74	2377.98
412.93	2345.22
413.12	2284.36
413.31	2499.69
413.50	2436.50
413.69	2434.16
413.88	2443.52
414.07	2389.69
414.26	2497.35
414.45	2558.21
414.64	2576.93
414.83	2600.34
415.02	2637.78
415.22	2609.70
415.41	2722.04
415.60	2672.89
415.79	2691.62
415.98	2684.59
416.17	2766.51
416.36	2789.92
416.55	2635.44
416.74	2818.00
416.93	2860.13
417.12	2871.84
417.31	2768.85
417.50	2848.43
417.69	2993.55
417.88	2988.86
418.07	2960.78
418.26	3112.91
418.45	2869.50
418.64	3267.39
418.83	3141.00
419.02	3054.40
419.21	3068.44
419.39	3098.87
419.58	3122.27
419.77	3047.38
419.96	3253.34
420.15	3204.19
420.34	3101.21
420.53	3145.68
420.72	3375.05
420.91	3300.16
421.10	3314.20
421.29	3328.24
421.48	3358.67
421.67	3262.71
421.86	3283.77
422.05	3375.05
422.24	3330.58
422.43	3375.05
422.61	3463.99
422.80	3370.37
422.99	3361.01
423.18	3314.20
423.37	3564.64
423.56	3405.48
423.75	3328.24
423.94	3318.88
424.13	3279.09
424.32	3356.33
424.50	3403.14
424.69	3602.08
424.88	3463.99
425.07	3375.05
425.26	3529.53
425.45	3503.78
425.64	3384.41
425.83	3510.80
426.01	3487.40
426.20	3466.33
426.39	3463.99
426.58	3398.46
426.77	3456.97
426.96	3513.14
427.15	3576.34
427.33	3655.92
427.52	3569.32
427.71	3815.07
427.90	3592.72
428.09	3779.97
428.28	3492.08
428.46	3789.33
428.65	3625.49
428.84	3810.39
429.03	3763.58
429.22	3772.94
429.40	3847.84
429.59	3749.54
429.78	3719.11
429.97	3644.21
430.16	3728.47
430.34	3950.82
430.53	3920.40
430.72	4007.00
430.91	3941.46
431.10	3896.99
431.28	3971.89
431.47	3946.14
431.66	3934.44
431.85	3901.67
432.03	4152.11
432.22	4081.89
432.41	4105.30
432.60	4086.58
432.79	4114.66
432.97	4124.02
433.16	4234.03
433.35	4159.13
433.54	4156.79
433.72	4243.39
433.91	4278.50
434.10	4290.20
434.28	4154.45
434.47	4208.28
434.66	4322.97
434.85	4353.40
435.03	4292.54
435.22	4353.40
435.41	4444.68
435.59	4521.92
435.78	4489.15
435.97	4376.80
436.16	4491.49
436.34	4470.42
436.53	4601.49
436.72	4503.19
436.90	4440.00
437.09	4542.98
437.28	4489.15
437.46	4582.77
437.65	4615.54
437.84	4840.23
438.02	4608.51
438.21	4634.26
438.40	4578.09
438.58	4809.80
438.77	4847.25
438.96	4809.80
439.14	4924.49
439.33	4858.95
439.52	5057.90
439.70	4896.40
439.89	5039.17
440.08	5116.41
440.26	5064.92
440.45	5050.88
440.63	5259.18
440.82	5128.11
441.01	5135.14
441.19	5411.32
441.38	5252.16
441.57	5294.29
441.75	5514.30
441.94	5343.44
442.12	5364.51
442.31	5493.24
442.50	5289.61
442.68	5526.00
442.87	5465.15
443.05	5659.42
443.24	5652.39
443.43	5584.52
443.61	5575.16
443.80	5579.84
443.98	5495.58
444.17	5413.66
444.35	5600.90
444.54	5748.36
444.73	5579.84
444.91	5692.18
445.10	5598.56
445.28	5722.61
445.47	5633.67
445.65	5713.25
445.84	5816.23
446.02	5898.15
446.21	5624.31
446.39	5727.29
446.58	5926.24
446.77	5935.60
446.95	5654.73
447.14	5757.72
447.32	5867.72
447.51	5816.23
447.69	5867.72
447.88	5790.49
448.06	5874.74
448.25	5942.62
448.43	5731.97
448.62	5818.57
448.80	5921.56
448.99	5982.41
449.17	6043.26
449.36	5832.62
449.54	6171.99
449.73	6122.84
449.91	6134.54
450.10	5975.39
450.28	6221.14
450.46	6176.67
450.65	6200.08
450.83	6274.98
451.02	6242.21
451.20	6300.72
451.39	6230.51
451.57	6108.80
451.76	6284.34
451.94	6183.70
452.13	6537.12
452.31	6274.98
452.49	6317.11
452.68	6331.15
452.86	6319.45
453.05	6413.07
453.23	6300.72
453.42	6370.94
453.60	6462.22
453.78	6597.97
453.97	6403.71
454.15	6534.78
454.34	6420.09
454.52	6443.49
454.70	6537.12
454.89	6752.45
455.07	6703.29
455.26	6665.85
455.44	6881.18
455.62	6630.74
455.81	6539.46
455.99	6785.21
456.17	6888.20
456.36	6778.19
456.54	6817.98
456.73	7002.88
456.91	7152.68
457.09	6960.75
457.28	7199.49
457.46	7033.31
457.64	7105.87
457.83	7094.16
458.01	7040.33
458.19	7105.87
458.38	7260.34
458.56	7419.50
458.74	7265.02
458.93	7300.13
459.11	7143.32
459.29	7447.58
459.48	7314.17
459.66	7311.83
459.84	7573.97
460.03	7588.02
460.21	7513.12
460.39	7489.71
460.57	7445.24
460.76	7541.21
460.94	7665.25
461.12	7566.95
461.31	7389.07
461.49	7529.50
461.67	7655.89
461.85	7775.26
462.04	7606.74
462.22	8184.85
462.40	7929.74
462.59	7719.09
462.77	7861.86
462.95	7878.24
463.13	7941.44
463.32	7810.37
463.50	7826.75
463.68	7964.84
463.86	7873.56
464.05	7829.09
464.23	8025.70
464.41	8023.36
464.59	7915.69
464.78	8217.62
464.96	8191.88
465.14	7995.27
465.32	8070.17
465.50	8304.22
465.69	8409.54
465.87	8278.47
466.05	8189.53
466.23	8280.82
466.41	8217.62
466.60	8559.34
466.78	8444.65
466.96	8304.22
467.14	8493.80
467.32	8304.22
467.51	8568.70
467.69	8315.92
467.87	8512.53
468.05	8631.90
468.23	8432.95
468.41	8589.77
468.60	8578.06
468.78	8671.68
468.96	8526.57
469.14	8641.26
469.32	8744.24
469.50	8681.05
469.69	8891.70
469.87	8755.94
470.05	8961.91
470.23	8936.17
470.41	8896.38
470.59	9102.34
470.77	8940.85
470.95	9088.30
471.14	8940.85
471.32	8870.63
471.50	9123.41
471.68	9291.93
471.86	9202.99
472.04	9376.19
472.22	9504.92
472.40	9163.20
472.58	9413.63
472.77	9397.25
472.95	9460.45
473.13	9755.35
473.31	9554.07
473.49	9406.61
473.67	9385.55
473.85	9624.28
474.03	9874.72
474.21	9757.69
474.39	9944.94
474.57	9788.12
474.75	9984.73
474.93	10104.09
475.12	10045.58
475.30	10204.74
475.48	10162.61
475.66	10232.82
475.84	10228.14
476.02	10523.05
476.20	10300.70
476.38	10485.60
476.56	10574.54
476.74	10565.18
476.92	10658.80
477.10	10593.26
477.28	10916.26
477.46	10771.15
477.64	11028.60
477.82	10967.75
478.00	11220.53
478.18	11016.90
478.36	11227.55
478.54	11442.88
478.72	11384.37
478.90	11555.22
479.08	11707.36
479.26	11815.02
479.44	11875.88
479.62	11667.57
479.80	12056.10
479.98	11939.07
480.16	12245.68
480.34	12453.99
480.52	12435.27
480.70	12540.59
480.88	12343.99
481.06	12652.94
481.24	12685.70
481.41	12730.17
481.59	12933.80
481.77	13008.70
481.95	13146.79
482.13	13217.01
482.31	13121.04
482.49	13528.30
482.67	13444.04
482.85	13984.70
483.03	13764.69
483.21	13799.80
483.39	14160.24
483.57	14090.02
483.74	14038.53
483.92	14162.58
484.10	13926.19
484.28	14441.11
484.46	14862.40
484.64	15033.26
484.82	14396.64
485.00	14853.04
485.18	14831.97
485.35	15215.82
485.53	15274.34
485.71	15417.11
485.89	15433.49
486.07	15857.13
486.25	15590.31
486.43	15850.11
486.61	15939.05
486.78	16285.45
486.96	15974.16
487.14	16430.56
487.32	16393.11
487.50	16482.05
487.68	16657.59
487.85	16657.59
488.03	17067.19
488.21	17348.05
488.39	17078.89
488.57	17331.67
488.75	17366.78
488.92	17535.29
489.10	17811.48
489.28	17649.98
489.46	18108.72
489.64	17994.04
489.81	18462.15
489.99	18443.42
490.17	18464.49
490.35	18597.90
490.53	18494.91
490.70	18895.14
490.88	18640.03
491.06	19157.28
491.24	19040.26
491.41	19311.76
491.59	19318.78
491.77	19239.20
491.95	19475.60
492.13	19744.76
492.30	20030.30
492.48	20084.14
492.66	19889.87
492.84	20123.93
493.01	20257.34
493.19	20311.17
493.37	20393.09
493.54	20280.74
493.72	20917.37
493.90	20971.20
494.08	20957.16
494.25	20940.77
494.43	21151.42
494.61	21460.37
494.79	21497.82
494.96	21514.20
495.14	21994.01
495.32	21965.93
495.49	22260.84
495.67	21923.80
495.85	22532.34
496.02	22441.06
496.20	22649.36
496.38	22558.08
496.55	22530.00
496.73	22876.40
496.91	22977.04
497.09	23026.19
497.26	23129.17
497.44	23073.00
497.62	23543.45
497.79	23718.99
497.97	23541.11
498.14	24091.13
498.32	23850.06
498.50	23833.68
498.67	24493.71
498.85	24159.01
499.03	24531.15
499.20	24531.15
499.38	24144.97
499.56	24624.78
499.73	24830.74
499.91	24552.22
500.08	25165.44
500.26	24765.21
500.44	25252.04
500.61	25322.26
500.79	25324.60
500.97	25446.30
501.14	25757.60
501.32	25699.08
501.49	25652.27
501.67	25673.34
501.84	26153.15
502.02	25804.41
502.20	25949.52
502.37	26047.82
502.55	25977.61
502.72	26106.34
502.90	26478.48
503.07	26316.98
503.25	26579.12
503.43	26206.98
503.60	26792.11
503.78	26925.52
503.95	26852.97
504.13	27115.11
504.30	26827.22
504.48	27070.64
504.65	27356.18
504.83	27101.06
505.01	27651.09
505.18	27613.64
505.36	27693.22
505.53	27222.77
505.71	27826.63
505.88	27878.12
506.06	27819.61
506.23	27889.82
506.41	27967.06
506.58	27995.15
506.76	27990.47
506.93	28400.06
507.11	28357.93
507.28	28313.46
507.46	28481.98
507.63	28933.70
507.81	28804.97
507.98	28425.81
508.16	28615.39
508.33	29174.78
508.50	28624.75
508.68	29240.31
508.85	29785.66
509.03	28968.81
509.20	29642.88
509.38	29783.32
509.55	29378.40
509.73	29832.47
509.90	29813.74
510.08	29654.59
510.25	29731.83
510.42	29867.58
510.60	30295.89
510.77	30263.13
510.95	30361.43
511.12	30415.26
511.30	30087.59
511.47	30668.04
511.64	30380.15
511.82	30682.08
511.99	30794.43
512.17	30911.46
512.34	30923.16
512.51	30845.92
512.69	31180.62
512.86	31042.53
513.04	31438.08
513.21	31583.19
513.38	31604.25
513.56	31517.65
513.73	31534.04
513.90	31630.00
514.08	31515.31
514.25	31835.97
514.43	31585.53
514.60	32367.27
514.77	32079.38
514.95	32037.25
515.12	32222.16
515.29	32058.32
515.47	32320.46
515.64	32584.94
515.81	32044.27
515.99	32779.20
516.16	32683.24
516.33	32800.27
516.51	32959.42
516.68	32730.05
516.85	33170.07
517.03	33256.67
517.20	33273.06
517.37	32865.80
517.54	33186.46
517.72	33214.54
517.89	33287.10
518.06	33263.69
518.24	33174.75
518.41	33460.30
518.58	33237.95
518.75	33797.34
518.93	34101.61
519.10	33642.86
519.27	33940.11
519.45	33624.14
519.62	33989.26
519.79	34120.33
519.96	34129.69
520.14	34686.74
520.31	34171.82
520.48	34466.73
520.65	34059.48
520.83	35129.10
521.00	34803.77
521.17	34466.73
521.34	35241.45
521.52	34656.31
521.69	34991.01
521.86	34836.53
522.03	35196.98
522.20	34972.28
522.38	35093.99
522.55	35182.93
522.72	35269.53
522.89	35452.09
523.07	36275.96
523.24	35648.70
523.41	35803.17
523.58	35510.61
523.75	36048.93
523.92	35899.14
524.10	35739.98
524.27	36245.54
524.44	36034.89
524.61	36421.08
524.78	36182.34
524.96	36435.12
525.13	36790.88
525.30	36704.28
525.47	36634.06
525.64	36444.48
525.81	36367.24
525.98	37031.96
526.16	36554.49
526.33	36320.43
526.50	36891.52
526.67	36727.69
526.84	37148.98
527.01	37076.43
527.18	37083.45
527.36	37221.54
527.53	37689.65
527.70	37893.27
527.87	37469.64
528.04	37383.04
528.21	37500.06
528.38	37287.07
528.55	37745.82
528.72	37453.25
528.89	37132.60
529.07	37804.33
529.24	37607.73
529.41	37640.50
529.58	38101.58
529.75	37577.30
529.92	37949.45
530.09	37745.82
530.26	38679.69
530.43	38284.14
530.60	38192.86
530.77	38504.15
530.94	38300.53
531.11	38515.86
531.28	38808.42
531.46	38330.95
531.63	38548.62
531.80	38817.78
531.97	39171.21
532.14	38567.35
532.31	39063.54
532.48	38782.68
532.65	39250.78
532.82	38838.85
532.99	38988.64
533.16	38955.88
533.33	39126.74
533.50	39002.69
533.67	38974.60
533.84	38792.04
534.01	39154.82
534.18	38979.28
534.35	39974.01
534.52	39814.85
534.69	40203.38
534.86	39990.39
535.03	39636.97
535.20	40137.85
535.37	40088.70
535.54	40011.46
535.71	39866.34
535.88	39754.00
536.05	39894.43
536.22	40533.40
536.38	40334.45
536.55	40140.19
536.72	39981.03
536.89	40257.21
537.06	40582.55
537.23	40573.19
537.40	40453.82
537.57	40552.12
537.74	40453.82
537.91	40849.37
538.08	40612.98
538.25	40275.94
538.42	40697.24
538.59	40704.26
538.75	40575.53
538.92	40788.52
539.09	41265.99
539.26	40975.76
539.43	41022.57
539.60	41024.91
539.77	41003.85
539.94	41523.44
540.11	41331.52
540.28	41345.56
540.44	41055.34
540.61	41247.26
540.78	41270.67
540.95	41357.27
541.12	41408.76
541.29	41144.28
541.46	41034.27
541.62	41123.21
541.79	41965.81
541.96	41518.76
542.13	41563.23
542.30	42068.79
542.47	41413.44
542.63	41757.50
542.80	42160.07
542.97	42396.46
543.14	42412.85
543.31	41741.11
543.48	42181.13
543.64	42698.39
543.81	42635.20
543.98	42511.15
544.15	42691.37
544.32	42436.25
544.48	43000.32
544.65	42857.55
544.82	42979.26
544.99	42553.28
545.16	42712.44
545.32	42630.52
545.49	43089.26
545.66	43145.44
545.83	43068.20
546.00	43070.54
546.16	43185.22
546.33	42927.77
546.50	42422.21
546.67	43330.34
546.83	42635.20
547.00	42813.08
547.17	42731.16
547.34	43056.50
547.50	43194.59
547.67	43840.57
547.84	43416.94
548.00	43571.41
548.17	43615.88
548.34	43459.07
548.51	44329.75
548.67	43533.96
548.84	43461.41
549.01	43966.96
549.18	43721.21
549.34	43981.01
549.51	44208.04
549.68	44161.23
549.84	44273.57
550.01	43875.68
550.18	43861.64
550.34	44016.11
550.51	44268.89
550.68	44168.25
550.84	43995.05
551.01	44236.12
551.18	44201.02
551.34	44128.46
551.51	44477.20
551.68	44332.09
551.84	43945.90
552.01	44664.44
552.18	44322.72
552.34	43901.43
552.51	44383.58
552.68	44498.26
552.84	44121.44
553.01	44250.17
553.18	44671.46
553.34	45081.06
553.51	44610.61
553.67	44521.67
553.84	44732.32
554.01	45069.36
554.17	45076.38
554.34	45088.08
554.51	44732.32
554.67	45120.85
554.84	45045.95
555.00	44762.75
555.17	44900.84
555.33	45235.53
555.50	44779.13
555.67	45177.02
555.83	45170.00
556.00	45261.28
556.16	45656.83
556.33	45361.92
556.50	45514.06
556.66	45022.54
556.83	45331.50
556.99	45605.34
557.16	45603.00
557.32	45598.32
557.49	45715.34
557.65	45558.53
557.82	45680.24
557.98	45607.68
558.15	45757.47
558.32	46064.08
558.48	45251.92
558.65	45682.58
558.81	46014.93
558.98	45598.32
559.14	45610.02
559.31	45769.18
559.47	45598.32
559.64	46038.34
559.80	45853.44
559.97	45766.84
560.13	45708.32
560.30	45911.95
560.46	45930.67
560.63	46419.84
560.79	46113.23
560.96	46373.03
561.12	46270.05
561.29	46321.54
561.45	46178.77
561.61	46120.26
561.78	46204.52
561.94	46499.42
562.11	46164.73
562.27	46160.05
562.44	46492.40
562.60	46410.48
562.77	46045.36
562.93	45874.50
563.10	46614.11
563.26	46129.62
563.42	46588.36
563.59	46480.70
563.75	46323.88
563.92	46476.02
564.08	46356.65
564.24	46637.51
564.41	46333.24
564.57	46628.15
564.74	46590.70
564.90	46124.94
565.07	46014.93
565.23	46382.40
565.39	46731.14
565.56	46656.24
565.72	46588.36
565.88	46670.28
566.05	46918.38
566.21	46714.75
566.38	46843.48
566.54	46838.80
566.70	46651.56
566.87	46443.25
567.03	46483.04
567.19	46712.41
567.36	46866.89
567.52	46733.48
567.68	47026.04
567.85	46813.05
568.01	47281.16
568.17	47117.32
568.34	47026.04
568.50	46817.74
568.66	46590.70
568.83	46864.55
568.99	47077.54
569.15	46890.29
569.32	46553.26
569.48	47143.07
569.64	47246.05
569.81	47103.28
569.97	47065.83
570.13	47021.36
570.30	46927.74
570.46	46574.32
570.62	47199.24
570.78	47274.14
570.95	47143.07
571.11	47292.86
571.27	46944.12
571.43	47304.57
571.60	47276.48
571.76	47103.28
571.92	47157.11
572.09	47168.82
572.25	46925.40
572.41	47365.42
572.57	47232.01
572.74	48065.24
572.90	47320.95
573.06	47597.13
573.22	47512.88
573.38	47442.66
573.55	47339.68
573.71	47346.70
573.87	47756.29
574.03	47299.89
574.20	47618.20
574.36	47449.68
574.52	47803.10
574.68	47468.40
574.84	47863.96
575.01	47459.04
575.17	47334.99
575.33	48025.45
575.49	47334.99
575.65	47351.38
575.82	47334.99
575.98	47454.36
576.14	47613.52
576.30	47571.39
576.46	47213.29
576.62	47374.78
576.79	47559.69
576.95	47070.51
577.11	47192.22
577.27	47634.58
577.43	47452.02
577.59	47323.29
577.75	47388.83
577.92	47550.32
578.08	47510.53
578.24	47470.75
578.40	47487.13
578.56	47718.84
578.72	47466.06
578.88	47742.25
579.04	47498.83
579.21	47704.80
579.37	47995.03
579.53	47856.93
579.69	47332.65
579.85	47302.23
580.01	47622.88
580.17	47285.84
580.33	47573.73
580.49	47585.43
580.65	47763.31
580.82	47332.65
580.98	47662.67
581.14	47166.48
581.30	48009.07
581.46	47426.28
581.62	47517.56
581.78	47122.01
581.94	47353.72
582.10	47583.09
582.26	47995.03
582.42	47828.85
582.58	47370.10
582.74	47952.90
582.90	48020.77
583.06	48041.84
583.22	47533.94
583.38	48222.06
583.54	48259.51
583.70	47915.45
583.86	48168.22
584.02	47573.73
584.18	48041.84
584.34	48069.92
584.50	47950.56
584.66	48100.35
584.82	48135.46
584.98	48133.12
585.14	48278.23
585.30	47854.59
585.46	47920.13
585.62	47962.26
585.78	47861.61
585.94	47367.76
586.10	47908.43
586.26	47976.30
586.42	48189.29
586.58	47910.77
586.74	47716.50
586.90	48074.60
587.06	47915.45
587.22	47952.90
587.38	47990.34
587.54	48154.18
587.70	48168.22
587.86	47756.29
588.02	47903.74
588.18	47550.32
588.34	47559.69
588.49	47782.04
588.65	47707.14
588.81	48362.49
588.97	47950.56
589.13	48116.73
589.29	47938.85
589.45	48144.82
589.61	48002.05
589.77	48285.25
589.93	48200.99
590.08	48231.42
590.24	47992.68
590.40	48666.76
590.56	48479.52
590.72	48594.20
590.88	48002.05
591.04	48030.13
591.20	48690.16
591.35	48252.48
591.51	48835.28
591.67	48636.33
591.83	48708.89
591.99	48552.07
592.15	48360.15
592.31	48327.38
592.46	48102.69
592.62	48484.20
592.78	48648.03
592.94	48641.01
593.10	48542.71
593.26	48311.00
593.41	48605.91
593.57	48573.14
593.73	48336.74
593.89	49092.74
594.05	48751.02
594.20	48535.69
594.36	48615.27
594.52	48561.44
594.68	48870.39
594.84	48851.66
594.99	48865.70
595.15	48402.28
595.31	48645.69
595.47	48603.56
595.62	48577.82
595.78	48409.30
595.94	49001.46
596.10	48465.47
596.25	48657.40
596.41	48704.21
596.57	48266.53
596.73	48718.25
596.88	48851.66
597.04	48734.63
597.20	48825.92
597.36	48418.66
597.51	48753.36
597.67	48582.50
597.83	48645.69
597.99	48701.87
598.14	48605.91
598.30	48870.39
598.46	48584.84
598.61	48891.45
598.77	48514.62
598.93	48608.25
599.09	48488.88
599.24	49352.54
599.40	49024.86
599.56	48858.68
599.71	48924.22
599.87	48989.75
600.03	49057.63
600.18	48844.64
600.34	48701.87
600.50	48633.99
600.65	48463.13
600.81	49148.91
600.97	48519.31
601.12	49212.10
601.28	49174.66
601.44	48741.66
601.59	49083.37
601.75	48671.44
601.91	48786.13
602.06	48622.29
602.22	49017.84
602.37	48769.74
602.53	48996.77
602.69	49003.80
602.84	48786.13
603.00	48680.80
603.16	48992.09
603.31	48896.13
603.47	48526.33
603.62	48357.81
603.78	48821.23
603.94	48954.64
604.09	48662.08
604.25	48481.86
604.40	48879.75
604.56	48149.50
604.71	48605.91
604.87	48652.72
605.03	48669.10
605.18	48655.06
605.34	48844.64
605.49	48210.35
605.65	48542.71
605.80	48467.81
605.96	48666.76
606.12	48638.67
606.27	48971.03
606.43	48416.32
606.58	48690.16
606.74	48568.46
606.89	48886.77
607.05	49162.95
607.20	48376.53
607.36	48369.51
607.51	48596.54
607.67	48421.00
607.82	48254.82
607.98	48376.53
608.13	48109.71
608.29	48566.12
608.44	48659.74
608.60	48514.62
608.75	48708.89
608.91	48540.37
609.06	48224.40
609.22	48954.64
609.37	48701.87
609.53	48547.39
609.68	48486.54
609.84	48636.33
609.99	48861.02
610.15	48645.69
610.30	48533.35
610.46	48423.34
610.61	48500.58
610.76	48671.44
610.92	48105.03
611.07	48336.74
611.23	48170.57
611.38	48095.67
611.54	48259.51
611.69	48378.87
611.84	48547.39
612.00	48083.97
612.15	48350.79
612.31	48325.04
612.46	47903.74
612.62	47962.26
612.77	48098.01
612.92	48493.56
613.08	48067.58
613.23	48495.90
613.39	48442.07
613.54	48229.08
613.69	48280.57
613.85	48128.44
614.00	48198.65
614.15	48233.76
614.31	47941.19
614.46	48311.00
614.62	47803.10
614.77	48208.01
614.92	48020.77
615.08	47723.52
615.23	48105.03
615.38	48395.26
615.54	47805.44
615.69	48282.91
615.84	48189.29
616.00	47840.55
616.15	48376.53
616.30	48030.13
616.46	48247.80
616.61	47494.15
616.76	48123.75
616.92	47915.45
617.07	48112.05
617.22	47959.92
617.37	47473.09
617.53	48210.35
617.68	47524.58
617.83	47725.86
617.99	48048.86
618.14	47697.78
618.29	47456.70
618.45	47559.69
618.60	47744.59
618.75	47168.82
618.90	47798.42
619.06	47416.91
619.21	47697.78
619.36	47742.25
619.51	47421.59
619.67	47145.41
619.82	47606.50
619.97	47349.04
620.12	47281.16
620.28	47299.89
620.43	47606.50
620.58	47360.74
620.73	47545.64
620.89	47887.36
621.04	47810.12
621.19	47058.81
621.34	47681.39
621.49	47147.75
621.65	47753.95
621.80	47821.83
621.95	47241.37
622.10	47653.31
622.25	47416.91
622.41	47091.58
622.56	47304.57
622.71	47456.70
622.86	47304.57
623.01	47262.44
623.16	47398.19
623.32	46880.93
623.47	47388.83
623.62	47063.49
623.77	47222.65
623.92	47114.98
624.07	47164.14
624.23	46562.62
624.38	47110.30
624.53	46876.25
624.68	46824.76
624.83	46651.56
624.98	46857.52
625.13	46719.43
625.29	46445.59
625.44	46791.99
625.59	46080.47
625.74	46962.85
625.89	46101.53
626.04	46667.94
626.19	46775.61
626.34	46504.10
626.49	46286.43
626.65	46316.86
626.80	46461.97
626.95	46185.79
627.10	46204.52
627.25	46314.52
627.40	46562.62
627.55	46405.80
627.70	46124.94
627.85	46890.29
628.00	46569.64
628.15	46349.63
628.30	46593.04
628.45	45834.71
628.60	46080.47
628.76	46064.08
628.91	46043.02
629.06	46036.00
629.21	45722.37
629.36	46171.75
629.51	46045.36
629.66	45998.55
629.81	45895.56
629.96	46101.53
630.11	45771.52
630.26	46026.63
630.41	45890.88
630.56	45521.08
630.71	45731.73
630.86	45125.53
631.01	45364.26
631.16	45827.69
631.31	45640.45
631.46	45801.94
631.61	46171.75
631.76	45638.11
631.91	45420.44
632.06	46546.23
632.21	45930.67
632.36	45862.80
632.51	45682.58
632.66	45645.13
632.81	45333.84
632.96	45427.46
633.10	45492.99
633.25	45469.59
633.40	45600.66
633.55	45614.70
633.70	45518.74
633.85	45244.90
634.00	45116.17
634.15	45029.57
634.30	45212.13
634.45	45230.85
634.60	45724.71
634.75	45375.97
634.90	45387.67
635.05	45680.24
635.19	45069.36
635.34	45549.17
635.49	45324.47
635.64	45027.23
635.79	45373.63
635.94	45359.58
636.09	45017.86
636.24	45130.21
636.39	44847.00
636.53	45081.06
636.68	44971.05
636.83	44863.39
636.98	44676.15
637.13	44559.12
637.28	44367.20
637.43	44636.36
637.57	44868.07
637.72	44643.38
637.87	44664.44
638.02	44477.20
638.17	44645.72
638.32	44470.18
638.46	44280.60
638.61	44949.99
638.76	44584.86
638.91	44362.51
639.06	44311.02
639.20	44182.29
639.35	43906.11
639.50	43997.39
639.65	44442.09
639.80	44957.01
639.94	44765.09
640.09	44500.61
640.24	44823.60
640.39	44208.04
640.54	43508.22
640.68	44282.94
640.83	44320.38
640.98	44004.41
641.13	43906.11
641.27	44657.42
641.42	43922.49
641.57	44039.52
641.72	44332.09
641.86	44013.77
642.01	43725.89
642.16	44102.71
642.31	43611.20
642.45	43842.92
642.60	43660.35
642.75	44147.18
642.90	43915.47
643.04	43845.26
643.19	43941.22
643.34	43650.99
643.48	43519.92
643.63	43856.96
643.78	44060.58
643.93	43999.73
644.07	43775.04
644.22	43714.19
644.37	43739.93
644.51	43557.37
644.66	43601.84
644.81	43819.51
644.95	43973.98
645.10	43669.72
645.25	43475.45
645.39	43283.53
645.54	43835.89
645.69	43297.57
645.83	43248.42
645.98	43281.19
646.13	43220.33
646.27	43430.98
646.42	43161.82
646.57	43512.90
646.71	43620.56
646.86	43531.62
647.00	43463.75
647.15	43351.40
647.30	43208.63
647.44	43178.20
647.59	42803.72
647.74	43194.59
647.88	43426.30
648.03	43573.75
648.17	43470.77
648.32	42897.34
648.47	43096.28
648.61	42880.95
648.76	43021.39
648.90	43026.07
649.05	43136.07
649.20	42866.91
649.34	43332.68
649.49	42988.62
649.63	42756.91
649.78	43232.04
649.92	43100.97
650.07	43217.99
650.21	43119.69
650.36	43164.16
650.51	42810.74
650.65	42770.95
650.80	43161.82
650.94	42995.64
651.09	42719.46
651.23	42670.31
651.38	42417.53
651.52	42185.82
651.67	42382.42
651.81	42525.19
651.96	42576.69
652.10	42368.38
652.25	42246.67
652.39	42567.32
652.54	42445.62
652.68	42405.83
652.83	41933.04
652.97	42555.62
653.12	42141.35
653.26	42075.81
653.41	42192.84
653.55	42043.04
653.70	42396.46
653.84	42497.11
653.99	42169.43
654.13	42328.59
654.27	42033.68
654.42	41794.95
654.56	41607.70
654.71	42061.77
654.85	42021.98
655.00	42113.26
655.14	42323.91
655.29	42131.98
655.43	42115.60
655.57	42099.22
655.72	41902.61
655.86	42061.77
656.01	41371.31
656.15	41462.59
656.30	41495.36
656.44	41834.74
656.58	41724.73
656.73	41832.39
656.87	41130.23
657.01	41464.93
657.16	41415.78
657.30	41535.15
657.45	41471.95
657.59	41399.40
657.73	41226.20
657.88	41137.26
658.02	41411.10
658.16	41741.11
658.31	41188.75
658.45	41818.35
658.60	40767.45
658.74	41378.33
658.88	41027.25
659.03	41170.02
659.17	40748.73
659.31	40533.40
659.46	40907.88
659.60	40987.46
659.74	40779.15
659.89	40552.12
660.03	40753.41
660.17	40952.35
660.32	40605.95
660.46	40491.27
660.60	39950.60
660.74	40657.45
660.89	40474.88
661.03	40116.78
661.17	40289.98
661.32	39798.47
661.46	39943.58
661.60	39480.16
661.74	40189.34
661.89	40243.17
662.03	40245.51
662.17	39739.96
662.31	40039.54
662.46	40055.93
662.60	39938.90
662.74	39597.18
662.88	39313.98
663.03	39700.17
663.17	39477.82
663.31	38838.85
663.45	39489.52
663.60	39702.51
663.74	39693.15
663.88	38969.92
664.02	39536.33
664.17	39536.33
664.31	39718.89
664.45	39166.52
664.59	39412.28
664.73	38714.80
664.88	38913.75
665.02	39201.63
665.16	39070.56
665.30	39051.84
665.44	38635.22
665.59	38298.19
665.73	38267.76
665.87	38457.34
666.01	38768.63
666.15	38637.56
666.29	38307.55
666.44	38892.68
666.58	38576.71
666.72	38326.27
666.86	38057.11
667.00	38106.26
667.14	38143.71
667.28	38115.62
667.43	38265.42
667.57	38150.73
667.71	38190.52
667.85	38384.79
667.99	37574.96
668.13	37589.00
668.27	37303.46
668.41	37404.10
668.56	37146.64
668.70	37088.13
668.84	37170.05
668.98	37331.54
669.12	37387.72
669.26	37186.43
669.40	37319.84
669.54	37111.53
669.68	37258.99
669.82	37172.39
669.96	36622.36
670.10	36268.94
670.25	36566.19
670.39	36528.74
670.53	36931.31
670.67	36837.69
670.81	37160.69
670.95	36858.76
671.09	36362.56
671.23	36374.27
671.37	36112.13
671.51	35854.67
671.65	36463.21
671.79	35723.60
671.93	36306.39
672.07	36072.34
672.21	36077.02
672.35	35770.41
672.49	35868.71
672.63	35852.33
672.77	35601.89
672.91	35695.51
673.05	35662.74
673.19	35201.66
673.33	35161.87
673.47	34735.89
673.61	35119.74
673.75	34827.17
673.89	34747.59
674.03	34529.92
674.17	34368.43
674.31	34768.66
674.45	34244.38
674.59	34366.09
674.73	34279.49
674.87	34244.38
675.01	33933.09
675.15	34010.32
675.29	33998.62
675.43	34078.20
675.56	34071.18
675.70	33846.49
675.84	33649.88
675.98	32713.67
676.12	33769.25
676.26	33715.42
676.40	33425.19
676.54	32957.08
676.68	33298.80
676.82	32854.10
676.96	33053.05
677.10	32966.45
677.23	32833.04
677.37	32814.31
677.51	32395.35
677.65	32381.31
677.79	32563.87
677.93	32261.94
678.07	31917.89
678.21	32374.29
678.34	31978.74
678.48	31810.22
678.62	31679.15
678.76	31667.45
678.90	31906.18
679.04	31515.31
679.18	31952.99
679.31	31215.72
679.45	31337.43
679.59	31201.68
679.73	30941.88
679.87	30733.57
680.00	30888.05
680.14	30735.92
680.28	31126.78
680.42	31040.18
680.56	30548.67
680.70	30094.61
680.83	30525.27
680.97	30270.15
681.11	30064.18
681.25	29776.30
681.39	29762.25
681.52	29921.41
681.66	29525.86
681.80	29350.32
681.94	29247.33
682.07	29081.16
682.21	29170.10
682.35	29277.76
682.49	29373.72
682.62	29069.45
682.76	28982.85
682.90	28835.40
683.04	28720.71
683.17	28755.82
683.31	28446.87
683.45	28400.06
683.59	28240.90
683.72	28058.34
683.86	28102.81
684.00	28198.77
684.13	28079.41
684.27	27845.35
684.41	27756.41
684.55	27456.82
684.68	27667.47
684.82	27454.48
684.96	27150.21
685.09	27342.14
685.23	27592.58
685.37	27627.68
685.50	27309.37
685.64	27255.54
685.78	26782.75
685.91	26668.06
686.05	26377.84
686.19	26352.09
686.32	26342.73
686.46	25909.73
686.60	26075.91
686.73	26001.01
686.87	25986.97
687.01	26012.71
687.14	26057.18
687.28	25823.13
687.42	25942.50
687.55	25570.35
687.69	25528.22
687.82	25394.81
687.96	25057.78
688.10	25226.29
688.23	25394.81
688.37	25359.70
688.50	25153.74
688.64	24891.60
688.78	25207.57
688.91	24919.68
689.05	24730.10
689.18	24226.89
689.32	23896.87
689.46	24144.97
689.59	24243.27
689.73	24364.98
689.86	24556.90
690.00	24170.71
690.13	24105.18
690.27	23501.32
690.41	23672.18
690.54	23236.84
690.68	23417.06
690.81	23311.74
690.95	23358.55
691.08	23498.98
691.22	22932.57
691.35	22845.97
691.49	23033.21
691.62	22988.74
691.76	22274.88
691.89	22441.06
692.03	22347.44
692.16	22082.95
692.30	21893.37
692.43	22209.34
692.57	22195.30
692.70	21799.75
692.84	21710.81
692.97	21429.94
693.11	21619.53
693.24	21411.22
693.38	21266.11
693.51	21291.85
693.65	21280.15
693.78	21102.27
693.92	21163.12
694.05	21200.57
694.19	20943.11
694.32	20898.64
694.45	20879.92
694.59	21287.17
694.72	20760.55
694.86	20453.94
694.99	20306.49
695.13	20400.11
695.26	20411.81
695.39	19775.19
695.53	19838.38
695.66	19955.41
695.80	19838.38
695.93	19744.76
696.07	19599.65
696.20	19257.93
696.33	18981.74
696.47	19344.53
696.60	19417.08
696.73	19302.40
696.87	19218.14
697.00	19325.80
697.14	18743.01
697.27	18761.73
697.40	18771.10
697.54	18700.88
697.67	18576.83
697.80	18675.13
697.94	18511.30
698.07	18211.71
698.21	18579.17
698.34	18164.90
698.47	18085.32
698.61	17865.31
698.74	18064.25
698.87	18185.96
699.01	17577.42
699.14	17579.76
699.27	17563.38
699.40	17631.26
699.54	17544.66
699.67	17362.09
699.80	17479.12
699.94	17336.35
700.07	17254.43
700.20	16978.25
700.34	17013.35
700.47	16978.25
700.60	17060.16
700.73	16884.62
700.87	16453.97
701.00	16299.49
701.13	16451.63
701.26	16240.98
701.40	16400.13
701.53	16130.97
701.66	16496.10
701.79	16119.27
701.93	15775.21
702.06	15857.13
702.19	15749.46
702.32	15917.98
702.46	15854.79
702.59	15983.52
702.72	15737.76
702.85	15910.96
702.99	15489.67
703.12	15768.19
703.25	15403.07
703.38	15119.86
703.51	15506.05
703.65	15019.22
703.78	14972.41
703.91	14930.28
704.04	14642.39
704.17	14885.81
704.31	14499.62
704.44	14363.87
704.57	14743.03
704.70	14665.80
704.83	14265.57
704.96	14328.76
705.10	14415.36
705.23	14260.88
>>>>>End Processed Spectral Data<<<<<
