SpectraSuite Data File
++++++++++++++++++++++++++++++++++++
Date: Fri Oct 25 10:44:20 EDT 2013
User: price-jones
Dark Spectrum Present: No
Reference Spectrum Present: No
Number of Sampled Component Spectra: 1
Spectrometers: USB2+H05261
Integration Time (usec): 100000 (USB2+H05261)
Spectra Averaged: 1 (USB2+H05261)
Boxcar Smoothing: 0 (USB2+H05261)
Correct for Electrical Dark: No (USB2+H05261)
Strobe/Lamp Enabled: No (USB2+H05261)
Correct for Detector Non-linearity: No (USB2+H05261)
Correct for Stray Light: No (USB2+H05261)
Number of Pixels in Processed Spectrum: 2048
>>>>>Begin Processed Spectral Data<<<<<
365.73	149.79
365.92	149.79
366.12	149.79
366.32	51.49
366.52	117.03
366.72	37.45
366.91	9.36
367.11	9.36
367.31	0.00
367.51	32.77
367.70	0.00
367.90	7.02
368.10	63.19
368.30	86.60
368.49	28.09
368.69	21.06
368.89	42.13
369.09	0.00
369.28	77.24
369.48	77.24
369.68	42.13
369.87	77.24
370.07	95.96
370.27	105.32
370.47	170.86
370.66	376.83
370.86	400.23
371.06	535.98
371.25	409.59
371.45	397.89
371.65	454.06
371.84	477.47
372.04	477.47
372.24	430.66
372.44	514.92
372.63	503.22
372.83	496.19
373.03	435.34
373.22	486.83
373.42	475.13
373.62	545.34
373.81	531.30
374.01	669.39
374.21	578.11
374.40	503.22
374.60	599.18
374.79	526.62
374.99	524.28
375.19	587.47
375.38	685.78
375.58	634.29
375.78	660.03
375.97	615.56
376.17	643.65
376.37	645.99
376.56	648.33
376.76	641.31
376.95	685.78
377.15	720.88
377.35	739.61
377.54	709.18
377.74	669.39
377.93	603.86
378.13	723.23
378.33	709.18
378.52	634.29
378.72	664.71
378.91	723.23
379.11	683.44
379.31	716.20
379.50	678.76
379.70	690.46
379.89	681.10
380.09	706.84
380.28	678.76
380.48	753.65
380.68	718.54
380.87	702.16
381.07	772.38
381.26	802.80
381.46	732.59
381.65	713.86
381.85	674.07
382.04	706.84
382.24	763.01
382.43	667.05
382.63	765.36
382.83	653.01
383.02	765.36
383.22	739.61
383.41	760.67
383.61	678.76
383.80	847.27
384.00	842.59
384.19	809.83
384.39	746.63
384.58	737.27
384.78	856.64
384.97	858.98
385.17	854.30
385.36	837.91
385.56	786.42
385.75	826.21
385.95	875.36
386.14	891.74
386.34	866.00
386.53	821.53
386.72	786.42
386.92	922.17
387.11	887.06
387.31	964.30
387.50	971.32
387.70	861.32
387.89	889.40
388.09	903.45
388.28	887.06
388.48	889.40
388.67	999.41
388.86	957.28
389.06	1064.94
389.25	1027.50
389.45	1025.15
389.64	964.30
389.84	952.60
390.03	1057.92
390.22	1013.45
390.42	1020.47
390.61	1032.18
390.81	1032.18
391.00	1036.86
391.19	1048.56
391.39	1151.54
391.58	1167.93
391.78	1069.62
391.97	1057.92
392.16	1102.39
392.36	1093.03
392.55	994.73
392.75	1081.33
392.94	997.07
393.13	1011.11
393.33	1060.26
393.52	1036.86
393.71	1088.35
393.91	1160.91
394.10	1231.12
394.29	1254.53
394.49	1165.59
394.68	1247.51
394.88	1350.49
395.07	1214.74
395.26	1259.21
395.46	1294.32
395.65	1338.79
395.84	1294.32
396.04	1207.72
396.23	1177.29
396.42	1146.86
396.62	1352.83
396.81	1158.57
397.00	1238.14
397.19	1249.85
397.39	1308.36
397.58	1441.77
397.77	1448.79
397.97	1460.49
398.16	1509.65
398.35	1563.48
398.55	1535.39
398.74	1533.05
398.93	1526.03
399.12	1425.39
399.32	1486.24
399.51	1565.82
399.70	1591.56
399.90	1554.12
400.09	1605.61
400.28	1720.29
400.47	1659.44
400.67	1717.95
400.86	1732.00
401.05	1699.23
401.24	1722.63
401.44	1813.92
401.63	1701.57
401.82	1877.11
402.01	1785.83
402.21	1881.79
402.40	1764.76
402.59	1900.52
402.78	1914.56
402.97	1832.64
403.17	1881.79
403.36	1844.34
403.55	1860.73
403.74	1895.83
403.93	1996.48
404.13	2015.20
404.32	1872.43
404.51	1832.64
404.70	2008.18
404.89	2022.22
405.09	2036.27
405.28	2050.31
405.47	2092.44
405.66	1982.43
405.85	2071.37
406.05	1980.09
406.24	2127.55
406.43	2134.57
406.62	2188.40
406.81	2272.66
407.00	2143.93
407.20	2155.63
407.39	2143.93
407.58	2165.00
407.77	2303.09
407.96	2218.83
408.15	2310.11
408.34	2246.91
408.54	2385.01
408.73	2445.86
408.92	2368.62
409.11	2427.14
409.30	2427.14
409.49	2394.37
409.68	2380.32
409.87	2356.92
410.07	2541.82
410.26	2408.41
410.45	2534.80
410.64	2541.82
410.83	2513.74
411.02	2562.89
411.21	2663.53
411.40	2612.04
411.59	2698.64
411.78	2628.42
411.98	2705.66
412.17	2958.44
412.36	2796.94
412.55	2803.96
412.74	2857.79
412.93	2855.45
413.12	2892.90
413.31	2953.76
413.50	2970.14
413.69	3026.31
413.88	2981.84
414.07	2998.23
414.26	2892.90
414.45	3124.62
414.64	3070.78
414.83	3105.89
415.02	2979.50
415.22	3173.77
415.41	3311.86
415.60	3323.56
415.79	3192.49
415.98	3208.87
416.17	3487.40
416.36	3346.97
416.55	3454.63
416.74	3384.41
416.93	3417.18
417.12	3442.93
417.31	3398.46
417.50	3438.25
417.69	3583.36
417.88	3424.20
418.07	3576.34
418.26	3534.21
418.45	3538.89
418.64	3723.79
418.83	3721.45
419.02	3651.24
419.21	3655.92
419.39	3819.75
419.58	3815.07
419.77	3730.81
419.96	3831.46
420.15	3953.16
420.34	3770.60
420.53	3840.82
420.72	3929.76
420.91	4063.17
421.10	3840.82
421.29	3887.63
421.48	3911.04
421.67	4058.49
421.86	3997.64
422.05	3824.44
422.24	3899.33
422.43	3845.50
422.61	3988.27
422.80	4037.42
422.99	3999.98
423.18	3995.29
423.37	4079.55
423.56	4173.18
423.75	4102.96
423.94	4067.85
424.13	3915.72
424.32	3974.23
424.50	4046.79
424.69	4107.64
424.88	4044.45
425.07	4025.72
425.26	3882.95
425.45	4028.06
425.64	4180.20
425.83	3941.46
426.01	4159.13
426.20	4215.30
426.39	4135.73
426.58	4046.79
426.77	3974.23
426.96	4046.79
427.15	4234.03
427.33	4184.88
427.52	4231.69
427.71	4379.14
427.90	4264.46
428.09	4327.65
428.28	4299.56
428.46	4168.49
428.65	4290.20
428.84	4447.02
429.03	4238.71
429.22	4299.56
429.40	4262.12
429.59	4238.71
429.78	4007.00
429.97	4016.36
430.16	4138.07
430.34	4187.22
430.53	4227.01
430.72	4304.25
430.91	4311.27
431.10	4287.86
431.28	4589.79
431.47	4798.10
431.66	4863.63
431.85	4629.58
432.03	4919.81
432.22	4816.82
432.41	4762.99
432.60	4807.46
432.79	4954.91
432.97	5074.28
433.16	4947.89
433.35	4884.70
433.54	4713.84
433.72	4798.10
433.91	4732.56
434.10	4917.47
434.28	4980.66
434.47	4947.89
434.66	5238.12
434.85	5109.39
435.03	5064.92
435.22	5170.24
435.41	5252.16
435.59	5291.95
435.78	5172.58
435.97	5324.72
436.16	5242.80
436.34	5366.85
436.53	5406.64
436.72	5455.79
436.90	5186.63
437.09	5226.42
437.28	5350.46
437.46	5329.40
437.65	5390.25
437.84	5369.19
438.02	5453.45
438.21	5373.87
438.40	5378.55
438.58	5547.07
438.77	5542.39
438.96	5584.52
439.14	5834.96
439.33	5731.97
439.52	5788.14
439.70	5830.27
439.89	5715.59
440.08	5816.23
440.26	5724.95
440.45	5720.27
440.63	6010.50
440.82	6153.27
441.01	6150.93
441.19	6181.35
441.38	6307.74
441.57	6183.70
441.75	6375.62
441.94	6396.68
442.12	6579.25
442.31	6525.41
442.50	6569.88
442.68	6518.39
442.87	6600.31
443.05	6637.76
443.24	6635.42
443.43	6691.59
443.61	6834.36
443.80	6881.18
443.98	6665.85
444.17	6562.86
444.35	6743.08
444.54	7037.99
444.73	6836.70
444.91	6726.70
445.10	6768.83
445.28	6619.04
445.47	6633.08
445.65	6672.87
445.84	6911.60
446.02	6813.30
446.21	6874.15
446.39	6736.06
446.58	6700.95
446.77	6832.02
446.95	6876.49
447.14	6958.41
447.32	6953.73
447.51	7129.27
447.69	6691.59
447.88	6944.37
448.06	6930.33
448.25	6853.09
448.43	7016.93
448.62	6904.58
448.80	6993.52
448.99	7197.15
449.17	7073.10
449.36	7033.31
449.54	7232.26
449.73	7276.73
449.91	7155.02
450.10	7302.47
450.28	7447.58
450.46	7454.61
450.65	7501.42
450.83	7566.95
451.02	7503.76
451.20	7426.52
451.39	7461.63
451.57	7445.24
451.76	7431.20
451.94	7527.16
452.13	7597.38
452.31	7524.82
452.49	7421.84
452.68	7435.88
452.86	7400.77
453.05	7501.42
453.23	7435.88
453.42	7557.59
453.60	7508.44
453.78	7733.13
453.97	7499.08
454.15	7637.17
454.34	7548.23
454.52	7903.99
454.70	7768.24
454.89	7850.16
455.07	7756.54
455.26	7840.79
455.44	8011.65
455.62	7932.08
455.81	7896.97
455.99	8065.49
456.17	8102.93
456.36	8278.47
456.54	8313.58
456.73	8404.86
456.91	8428.27
457.09	8580.40
457.28	8552.32
457.46	8336.99
457.64	8205.92
457.83	8262.09
458.01	8074.85
458.19	8643.60
458.38	8407.20
458.56	8437.63
458.74	8524.23
458.93	8547.64
459.11	8519.55
459.29	8622.53
459.48	8655.30
459.66	8730.20
459.84	8503.17
460.03	8826.16
460.21	8800.41
460.39	8781.69
460.57	8725.52
460.76	9083.62
460.94	8868.29
461.12	8933.82
461.31	9001.70
461.49	8952.55
461.67	8833.18
461.85	9067.24
462.04	9011.06
462.22	9324.69
462.40	9195.96
462.59	9315.33
462.77	9275.54
462.95	9315.33
463.13	9104.68
463.32	9263.84
463.50	9174.90
463.68	9362.14
463.86	9317.67
464.05	9324.69
464.23	9130.43
464.41	9261.50
464.59	9111.71
464.78	9621.94
464.96	9502.58
465.14	9247.46
465.32	9357.46
465.50	9593.86
465.69	9540.02
465.87	9224.05
466.05	9495.55
466.23	9336.40
466.41	9376.19
466.60	9694.50
466.78	9476.83
466.96	9664.07
467.14	9558.75
467.32	9533.00
467.51	9741.31
467.69	9535.34
467.87	9846.63
468.05	9734.29
468.23	9549.39
468.41	9753.01
468.60	9799.82
468.78	9933.23
468.96	9811.53
469.14	10047.92
469.32	9982.38
469.50	9900.47
469.69	10120.48
469.87	10073.67
470.05	10064.30
470.23	10094.73
470.41	10029.20
470.59	10284.31
470.77	10228.14
470.95	10253.89
471.14	10265.59
471.32	10396.66
471.50	10878.81
471.68	10539.43
471.86	10771.15
472.04	10885.83
472.22	11023.92
472.40	10438.79
472.58	10817.96
472.77	10696.25
472.95	10860.09
473.13	11314.15
473.31	10822.64
473.49	11042.65
473.67	10965.41
473.85	10841.36
474.03	11232.23
474.21	11370.32
474.39	11548.20
474.57	11419.47
474.75	11562.25
474.93	11721.40
475.12	11641.82
475.30	11735.45
475.48	11606.72
475.66	11812.68
475.84	11602.04
476.02	11583.31
476.20	11798.64
476.38	11796.30
476.56	12011.63
476.74	12262.07
476.92	12016.31
477.10	12339.30
477.28	12512.50
477.46	12547.61
477.64	12554.63
477.82	12737.20
478.00	12732.51
478.18	13069.55
478.36	12851.88
478.54	13092.96
478.72	13139.77
478.90	13352.76
479.08	13411.27
479.26	13434.68
479.44	13603.19
479.62	13589.15
479.80	13818.52
479.98	13610.22
480.16	14228.12
480.34	13916.83
480.52	14380.25
480.70	14267.91
480.88	14059.60
481.06	14324.08
481.24	14139.18
481.41	14604.94
481.59	14871.76
481.77	14860.06
481.95	14794.53
482.13	14993.47
482.31	15145.61
482.49	15424.13
482.67	15499.03
482.85	15557.54
483.03	15435.83
483.21	15648.82
483.39	15922.66
483.57	15906.28
483.74	16081.82
483.92	16046.71
484.10	16086.50
484.28	16308.85
484.46	16582.70
484.64	17060.16
484.82	16423.54
485.00	16524.18
485.18	17104.64
485.35	17027.40
485.53	16559.29
485.71	16519.50
485.89	16580.36
486.07	16940.80
486.25	17050.80
486.43	17326.99
486.61	17479.12
486.78	17556.36
486.96	17834.88
487.14	18008.08
487.32	18265.54
487.50	18427.04
487.68	18551.09
487.85	18871.74
488.03	18869.40
488.21	19007.49
488.39	19058.98
488.57	19168.99
488.75	19566.88
488.92	19494.32
489.10	20128.61
489.28	20130.95
489.46	20283.08
489.64	20460.96
489.81	20758.21
489.99	20961.84
490.17	20861.19
490.35	20985.24
490.53	20830.77
490.70	20980.56
490.88	21256.75
491.06	21156.10
491.24	21209.93
491.41	21223.98
491.59	21060.14
491.77	21228.66
491.95	21678.04
492.13	22015.08
492.30	22218.71
492.48	22059.55
492.66	22272.54
492.84	22424.67
493.01	22546.38
493.19	22750.01
493.37	22937.25
493.54	22806.18
493.72	23096.41
493.90	23035.55
494.08	23786.86
494.25	23550.47
494.43	23913.25
494.61	24144.97
494.79	24107.52
494.96	24304.12
495.14	23857.08
495.32	24357.96
495.49	24456.26
495.67	24716.06
495.85	25029.69
496.02	24847.13
496.20	25216.93
496.38	25207.57
496.55	25572.69
496.73	25900.37
496.91	25783.34
497.09	25916.75
497.26	26134.42
497.44	25837.17
497.62	26162.51
497.79	25989.31
497.97	25638.23
498.14	26230.38
498.32	26148.46
498.50	26309.96
498.67	26817.86
498.85	26827.22
499.03	26661.04
499.20	26838.92
499.38	26923.18
499.56	27250.86
499.73	27381.93
499.91	27126.81
500.08	27063.61
500.26	27285.97
500.44	27527.04
500.61	27342.14
500.79	27513.00
500.97	27484.91
501.14	28205.80
501.32	27747.05
501.49	27693.22
501.67	28231.54
501.84	28133.24
502.02	28313.46
502.20	28290.06
502.37	28247.93
502.55	28215.16
502.72	28821.36
502.90	28610.71
503.07	28741.78
503.25	29085.84
503.43	28854.12
503.60	28987.53
503.78	28673.90
503.95	28889.23
504.13	29413.51
504.30	29504.79
504.48	29390.11
504.65	29539.90
504.83	29670.97
505.01	29860.55
505.18	29804.38
505.36	30501.86
505.53	30309.94
505.71	30621.23
505.88	30541.65
506.06	30012.69
506.23	30213.98
506.41	30349.73
506.58	30272.49
506.76	30969.97
506.93	30948.90
507.11	30771.02
507.28	30628.25
507.46	30707.83
507.63	31042.53
507.81	30918.48
507.98	30637.61
508.16	31124.44
508.33	31297.64
508.50	31173.60
508.68	31405.31
508.85	31789.16
509.03	31728.30
509.20	31824.26
509.38	31854.69
509.55	32121.51
509.73	32339.18
509.90	31826.60
510.08	32081.72
510.25	32098.11
510.42	32393.01
510.60	32652.81
510.77	33029.64
510.95	32856.44
511.12	33060.07
511.30	33083.47
511.47	33376.04
511.64	33277.74
511.82	33476.68
511.99	33141.99
512.17	33240.29
512.34	33247.31
512.51	33682.65
512.69	33624.14
512.86	33223.90
513.04	33752.87
513.21	33532.86
513.38	33476.68
513.56	33652.22
513.73	33453.28
513.90	33804.36
514.08	34183.52
514.25	33830.10
514.43	34022.03
514.60	33703.71
514.77	34110.97
514.95	34263.10
515.12	33715.42
515.29	34747.59
515.47	34885.68
515.64	34649.29
515.81	34574.39
515.99	34525.24
516.16	34401.19
516.33	34251.40
516.51	34211.61
516.68	34239.70
516.85	34190.55
517.03	34448.00
517.20	34043.09
517.37	35056.54
517.54	35063.57
517.72	34534.60
517.89	34614.18
518.06	35023.78
518.24	35061.22
518.41	34857.60
518.58	35316.34
518.75	35400.60
518.93	35491.88
519.10	35611.25
519.27	35920.20
519.45	36224.47
519.62	36051.27
519.79	35955.31
519.96	36250.22
520.14	36641.09
520.31	36116.81
520.48	36304.05
520.65	36627.04
520.83	36774.50
521.00	37083.45
521.17	36875.14
521.34	37099.83
521.52	36943.02
521.69	37326.86
521.86	37038.98
522.03	37174.73
522.20	36835.35
522.38	37223.88
522.55	37282.39
522.72	37046.00
522.89	37476.66
523.07	37558.58
523.24	37394.74
523.41	37373.67
523.58	37577.30
523.75	38471.39
523.92	38328.61
524.10	37727.10
524.27	38263.08
524.44	38356.70
524.61	37919.02
524.78	38333.29
524.96	38513.52
525.13	38436.28
525.30	38939.49
525.47	38885.66
525.64	38635.22
525.81	38653.95
525.98	38356.70
526.16	38038.39
526.33	37991.58
526.50	38216.27
526.67	37684.97
526.84	38480.75
527.01	38490.11
527.18	38405.85
527.36	39592.50
527.53	38738.21
527.70	39145.46
527.87	38904.38
528.04	39323.34
528.21	39122.05
528.38	39484.84
528.55	39789.11
528.72	39793.79
528.89	39976.35
529.07	39480.16
529.24	39311.64
529.41	39878.05
529.58	39510.58
529.75	39739.96
529.92	40062.95
530.09	40175.30
530.26	40053.59
530.43	40044.23
530.60	39772.72
530.77	40217.43
530.94	40779.15
531.11	40357.86
531.28	40259.55
531.46	40343.81
531.63	40566.16
531.80	40325.09
531.97	40062.95
532.14	40322.75
532.31	40123.80
532.48	40037.20
532.65	39962.31
532.82	40367.22
532.99	40678.51
533.16	40528.72
533.33	40652.76
533.50	40788.52
533.67	40814.26
533.84	40968.74
534.01	41242.58
534.18	41092.79
534.35	41422.80
534.52	40966.40
534.69	41591.32
534.86	41036.61
535.03	41092.79
535.20	41701.32
535.37	41839.42
535.54	41783.24
535.71	41661.54
535.88	41794.95
536.05	41109.17
536.22	41420.46
536.38	41478.97
536.55	41539.83
536.72	41748.14
536.89	41427.48
537.06	41202.79
537.23	41949.42
537.40	41961.12
537.57	41729.41
537.74	41879.21
537.91	41907.29
538.08	41944.74
538.25	42129.64
538.42	42314.55
538.59	42466.68
538.75	41727.07
538.92	41820.69
539.09	42007.94
539.26	42073.47
539.43	42155.39
539.60	42005.59
539.77	42073.47
539.94	42312.20
540.11	41982.19
540.28	42230.29
540.44	42260.71
540.61	42213.90
540.78	42029.00
540.95	42218.58
541.12	42546.26
541.29	42328.59
541.46	42667.97
541.62	42588.39
541.79	42955.85
541.96	42546.26
542.13	42513.49
542.30	42782.65
542.47	43065.86
542.63	42838.83
542.80	43079.90
542.97	43569.07
543.14	43665.03
543.31	43391.19
543.48	43519.92
543.64	43732.91
543.81	43936.54
543.98	43529.28
544.15	43784.40
544.32	43473.11
544.48	43924.83
544.65	43494.18
544.82	43721.21
544.99	43517.58
545.16	43522.26
545.32	43693.12
545.49	44343.79
545.66	44186.97
545.83	44135.48
546.00	43686.10
546.16	44229.10
546.33	44048.88
546.50	43667.37
546.67	44341.45
546.83	43583.12
547.00	43763.34
547.17	43899.09
547.34	43833.55
547.50	44069.95
547.67	44505.29
547.84	44266.55
548.00	44648.06
548.17	44989.78
548.34	44559.12
548.51	44758.06
548.67	44701.89
548.84	44339.11
549.01	44582.52
549.18	44631.68
549.34	45001.48
549.51	44402.30
549.68	44519.33
549.84	44893.82
550.01	45439.16
550.18	44809.56
550.34	45064.67
550.51	44912.54
550.68	44861.05
550.84	44786.15
551.01	44989.78
551.18	45127.87
551.34	45106.80
551.51	44783.81
551.68	45067.02
551.84	45188.72
552.01	44362.51
552.18	45010.84
552.34	44968.71
552.51	44954.67
552.68	45202.77
552.84	45235.53
553.01	45521.08
553.18	45216.81
553.34	45123.19
553.51	45022.54
553.67	45085.74
553.84	45420.44
554.01	45427.46
554.17	45565.55
554.34	45317.45
554.51	45497.67
554.67	45820.67
554.84	45635.77
555.00	45394.69
555.17	45467.25
555.33	45284.68
555.50	45462.57
555.67	45813.65
555.83	45497.67
556.00	45553.85
556.16	46108.55
556.33	45558.53
556.50	45553.85
556.66	46103.87
556.83	45312.77
556.99	45619.38
557.16	45851.09
557.32	45900.25
557.49	45820.67
557.65	46092.17
557.82	45551.51
557.98	45834.71
558.15	45752.79
558.32	45720.02
558.48	46014.93
558.65	45876.84
558.81	45420.44
558.98	45565.55
559.14	46075.79
559.31	45546.82
559.47	46263.03
559.64	45792.58
559.80	46150.68
559.97	45750.45
560.13	45834.71
560.30	45925.99
560.46	45656.83
560.63	46178.77
560.79	46520.49
560.96	45811.31
561.12	46382.40
561.29	46361.33
561.45	46546.23
561.61	46099.19
561.78	46047.70
561.94	46115.58
562.11	45689.60
562.27	46155.36
562.44	46256.01
562.60	46277.07
562.77	46522.83
562.93	46246.65
563.10	46541.55
563.26	46326.22
563.42	46153.02
563.59	46234.94
563.75	46649.22
563.92	46251.33
564.08	46382.40
564.24	46686.67
564.41	46321.54
564.57	46295.80
564.74	46321.54
564.90	46298.14
565.07	46454.95
565.23	46176.43
565.39	46279.41
565.56	46571.98
565.72	45942.38
565.88	46504.10
566.05	46260.69
566.21	46789.65
566.38	46218.56
566.54	46312.18
566.70	46918.38
566.87	47175.84
567.03	46712.41
567.19	47110.30
567.36	46724.11
567.52	46742.84
567.68	46705.39
567.85	46667.94
568.01	46600.07
568.17	46623.47
568.34	46461.97
568.50	46581.34
568.66	46478.36
568.83	46745.18
568.99	46007.91
569.15	46499.42
569.32	46773.27
569.48	46370.69
569.64	46574.32
569.81	46836.46
569.97	46590.70
570.13	46754.54
570.30	46171.75
570.46	46314.52
570.62	46471.34
570.78	46445.59
570.95	46274.73
571.11	46539.21
571.27	46705.39
571.43	46630.49
571.60	46354.31
571.76	46604.75
571.92	46990.94
572.09	46625.81
572.25	46555.60
572.41	46604.75
572.57	46630.49
572.74	46850.50
572.90	46541.55
573.06	46813.05
573.22	46740.50
573.38	46932.42
573.55	46162.39
573.71	46941.78
573.87	46855.18
574.03	46635.17
574.20	46794.33
574.36	46768.58
574.52	46742.84
574.68	46586.02
574.84	46962.85
575.01	46689.01
575.17	46789.65
575.33	46326.22
575.49	46312.18
575.65	46665.60
575.82	46939.44
575.98	46932.42
576.14	47234.35
576.30	46866.89
576.46	46251.33
576.62	46721.77
576.79	46801.35
576.95	46326.22
577.11	46574.32
577.27	46958.17
577.43	46574.32
577.59	46808.37
577.75	46925.40
577.92	46497.08
578.08	46335.59
578.24	46747.52
578.40	46319.20
578.56	46611.77
578.72	46452.61
578.88	46857.52
579.04	46930.08
579.21	46679.64
579.37	46937.10
579.53	46600.07
579.69	46852.84
579.85	46911.36
580.01	46817.74
580.17	46869.23
580.33	47047.11
580.49	46548.57
580.65	47536.28
580.82	47201.58
580.98	46459.63
581.14	46997.96
581.30	47349.04
581.46	46789.65
581.62	46838.80
581.78	46801.35
581.94	47222.65
582.10	46986.25
582.26	46576.66
582.42	46394.10
582.58	46927.74
582.74	46869.23
582.90	47103.28
583.06	47110.30
583.22	46794.33
583.38	47344.36
583.54	47402.87
583.70	47196.90
583.86	46820.08
584.02	46752.20
584.18	46705.39
584.34	46738.16
584.50	46527.51
584.66	47122.01
584.82	46897.31
584.98	47468.40
585.14	46981.57
585.30	46724.11
585.46	47114.98
585.62	46518.15
585.78	46902.00
585.94	46351.97
586.10	47077.54
586.26	46726.46
586.42	47004.98
586.58	46948.81
586.74	46857.52
586.90	46916.04
587.06	46476.02
587.22	47042.43
587.38	47077.54
587.54	46997.96
587.70	46934.76
587.86	46906.68
588.02	46974.55
588.18	46869.23
588.34	46787.31
588.49	46892.63
588.65	46160.05
588.81	45961.10
588.97	46377.72
589.13	46497.08
589.29	46721.77
589.45	46651.56
589.61	46834.12
589.77	46993.28
589.93	46986.25
590.08	46637.51
590.24	47051.79
590.40	47098.60
590.56	47208.61
590.72	46845.82
590.88	46726.46
591.04	46817.74
591.20	47267.12
591.35	47150.09
591.51	47667.35
591.67	47086.90
591.83	46923.06
591.99	47004.98
592.15	47262.44
592.31	47035.41
592.46	47133.71
592.62	46857.52
592.78	47164.14
592.94	47290.52
593.10	47393.51
593.26	47129.03
593.41	47014.34
593.57	46820.08
593.73	46946.47
593.89	46820.08
594.05	47131.37
594.20	47334.99
594.36	47124.35
594.52	46644.54
594.68	46513.47
594.84	46834.12
594.99	47126.69
595.15	46904.34
595.31	47292.86
595.47	46890.29
595.62	47145.41
595.78	47271.80
595.94	47260.10
596.10	47442.66
596.25	47222.65
596.41	47395.85
596.57	47079.88
596.73	47459.04
596.88	46710.07
597.04	47119.66
597.20	47122.01
597.36	47210.95
597.51	47430.96
597.67	47192.22
597.83	47533.94
597.99	47224.99
598.14	46934.76
598.30	47035.41
598.46	46642.20
598.61	46705.39
598.77	46749.86
598.93	47173.50
599.09	47405.21
599.24	47608.84
599.40	47459.04
599.56	47290.52
599.71	47185.20
599.87	47313.93
600.03	47009.66
600.18	47016.68
600.34	46995.62
600.50	47278.82
600.65	47227.33
600.81	47398.19
600.97	47334.99
601.12	46948.81
601.28	47112.64
601.44	46862.21
601.59	46738.16
601.75	46586.02
601.91	46976.89
602.06	47246.05
602.22	46763.90
602.37	46796.67
602.53	46958.17
602.69	47484.79
602.84	46541.55
603.00	46913.70
603.16	46674.96
603.31	46630.49
603.47	47030.72
603.62	46909.02
603.78	47332.65
603.94	46850.50
604.09	47386.49
604.25	47082.22
604.40	46911.36
604.56	47122.01
604.71	46932.42
604.87	46927.74
605.03	46405.80
605.18	46799.01
605.34	46801.35
605.49	46586.02
605.65	46714.75
605.80	46948.81
605.96	46749.86
606.12	46658.58
606.27	47014.34
606.43	46277.07
606.58	47072.85
606.74	46328.56
606.89	46878.59
607.05	46838.80
607.20	46948.81
607.36	46515.81
607.51	46799.01
607.67	46679.64
607.82	46916.04
607.98	46712.41
608.13	46405.80
608.29	46525.17
608.44	46323.88
608.60	46410.48
608.75	46248.99
608.91	46298.14
609.06	46471.34
609.22	46621.13
609.37	46281.75
609.53	46611.77
609.68	46122.60
609.84	46394.10
609.99	46370.69
610.15	46209.20
610.30	46230.26
610.46	46164.73
610.61	46185.79
610.76	46237.28
610.92	46143.66
611.07	46438.57
611.23	46094.51
611.38	46277.07
611.54	45902.59
611.69	46351.97
611.84	45935.35
612.00	46148.34
612.15	45986.85
612.31	46150.68
612.46	46410.48
612.62	46473.68
612.77	46124.94
612.92	46766.24
613.08	45956.42
613.23	45893.22
613.39	45935.35
613.54	45668.53
613.69	46143.66
613.85	45961.10
614.00	45949.40
614.15	46281.75
614.31	46122.60
614.46	46085.15
614.62	45750.45
614.77	45698.96
614.92	46036.00
615.08	45757.47
615.23	45453.20
615.38	45413.41
615.54	45684.92
615.69	45628.74
615.84	45780.88
616.00	45911.95
616.15	45415.76
616.30	45619.38
616.46	45153.62
616.61	45205.11
616.76	45530.44
616.92	44832.96
617.07	45282.34
617.22	45198.09
617.37	44966.37
617.53	45682.58
617.68	45558.53
617.83	45455.54
617.99	45563.21
618.14	45724.71
618.29	45333.84
618.45	45392.35
618.60	45045.95
618.75	45406.39
618.90	45247.24
619.06	44734.66
619.21	45303.41
619.36	45485.97
619.51	45446.18
619.67	44954.67
619.82	45287.03
619.97	45102.12
620.12	44655.08
620.28	44652.74
620.43	44790.83
620.58	45263.62
620.73	44734.66
620.89	44961.69
621.04	44797.85
621.19	44718.28
621.34	44945.31
621.49	44376.56
621.65	44502.95
621.80	44978.07
621.95	44493.58
622.10	44591.89
622.25	44224.42
622.41	44601.25
622.56	43873.34
622.71	44306.34
622.86	44133.14
623.01	44465.50
623.16	44231.44
623.32	44346.13
623.47	44554.44
623.62	44673.81
623.77	44334.43
623.92	44257.19
624.07	44264.21
624.23	44032.50
624.38	44002.07
624.53	43784.40
624.68	43966.96
624.83	43962.28
624.98	44083.99
625.13	43543.33
625.29	43810.15
625.44	44034.84
625.59	43283.53
625.74	43791.42
625.89	43215.65
626.04	43510.56
626.19	43604.18
626.34	43718.87
626.49	43608.86
626.65	43592.48
626.80	44048.88
626.95	44037.18
627.10	43440.34
627.25	43194.59
627.40	43154.80
627.55	43122.03
627.70	42885.64
627.85	43344.38
628.00	42639.88
628.15	43667.37
628.30	43199.27
628.45	43489.49
628.60	43250.76
628.76	43470.77
628.91	43477.79
629.06	43288.21
629.21	43100.97
629.36	43208.63
629.51	43033.09
629.66	42892.66
629.81	42693.71
629.96	42974.58
630.11	43012.02
630.26	43133.73
630.41	42958.19
630.56	42679.67
630.71	42635.20
630.86	42873.93
631.01	42363.70
631.16	42628.18
631.31	42366.04
631.46	42328.59
631.61	42616.47
631.76	42328.59
631.91	42951.17
632.06	42981.60
632.21	42920.74
632.36	42600.09
632.51	42955.85
632.66	42328.59
632.81	41881.55
632.96	42216.24
633.10	42314.55
633.25	42263.05
633.40	42375.40
633.55	42431.57
633.70	42534.56
633.85	42108.58
634.00	41724.73
634.15	42082.83
634.30	41691.96
634.45	42447.96
634.60	42440.93
634.75	42632.86
634.90	41937.72
635.05	42192.84
635.19	41633.45
635.34	41984.53
635.49	42225.60
635.64	41914.31
635.79	41588.98
635.94	42031.34
636.09	41916.65
636.24	41724.73
636.39	41668.56
636.53	41509.40
636.68	41724.73
636.83	41610.04
636.98	41790.27
637.13	41535.15
637.28	41523.44
637.43	41794.95
637.57	41500.04
637.72	41982.19
637.87	41535.15
638.02	41490.68
638.17	41989.21
638.32	41851.12
638.46	41514.08
638.61	41635.79
638.76	41696.64
638.91	41340.88
639.06	41244.92
639.20	41394.71
639.35	41495.36
639.50	41464.93
639.65	41890.91
639.80	41675.58
639.94	41350.24
640.09	41038.95
640.24	40847.03
640.39	41062.36
640.54	40882.14
640.68	40905.54
640.83	41265.99
640.98	40624.68
641.13	40627.02
641.27	41127.89
641.42	40657.45
641.57	41186.41
641.72	40634.04
641.86	40376.58
642.01	40517.01
642.16	40814.26
642.31	40444.46
642.45	40847.03
642.60	40793.20
642.75	40390.62
642.90	40187.00
643.04	40704.26
643.19	40982.78
643.34	40397.65
643.48	40301.68
643.63	40285.30
643.78	40484.25
643.93	40287.64
644.07	40465.52
644.22	40472.54
644.37	39868.69
644.51	40292.32
644.66	40388.28
644.81	40531.06
644.95	40329.77
645.10	40109.76
645.25	40552.12
645.39	40243.17
645.54	40385.94
645.69	39999.76
645.83	40273.60
645.98	40072.31
646.13	40507.65
646.27	40170.61
646.42	40240.83
646.57	39817.19
646.71	40041.88
646.86	40524.04
647.00	40268.92
647.15	40025.50
647.30	39847.62
647.44	39569.10
647.59	39388.88
647.74	39840.60
647.88	39864.00
648.03	40006.78
648.17	39871.03
648.32	39480.16
648.47	40163.59
648.61	39515.26
648.76	40140.19
648.90	39700.17
649.05	39489.52
649.20	39505.90
649.34	39641.65
649.49	39648.68
649.63	39058.86
649.78	39536.33
649.92	38864.60
650.07	39442.71
650.21	39529.31
650.36	39260.15
650.51	39250.78
650.65	39983.37
650.80	39721.23
650.94	39723.57
651.09	39508.24
651.23	39370.15
651.38	39133.76
651.52	39154.82
651.67	39225.04
651.81	38906.73
651.96	38607.14
652.10	39056.52
652.25	38691.40
652.39	38983.96
652.54	39187.59
652.68	39194.61
652.83	39063.54
652.97	39243.76
653.12	38862.26
653.26	38880.98
653.41	38752.25
653.55	38672.67
653.70	38302.87
653.84	38976.94
653.99	38705.44
654.13	38822.47
654.27	38265.42
654.42	38445.64
654.56	38478.41
654.71	38623.52
654.85	38604.80
655.00	38195.20
655.14	38330.95
655.29	38120.31
655.43	38345.00
655.57	37961.15
655.72	37801.99
655.86	37132.60
656.01	37752.84
656.15	37469.64
656.30	38026.68
656.44	37825.40
656.58	37415.80
656.73	37504.74
656.87	37935.40
657.01	37479.00
657.16	37923.70
657.30	37778.59
657.45	37780.93
657.59	37778.59
657.73	37553.90
657.88	38061.79
658.02	38043.07
658.16	37944.76
658.31	38237.33
658.45	37935.40
658.60	37319.84
658.74	37904.98
658.88	37722.41
659.03	37357.29
659.17	37186.43
659.31	37151.32
659.46	37188.77
659.60	37567.94
659.74	37439.21
659.89	36931.31
660.03	37029.62
660.17	37514.11
660.32	37287.07
660.46	37172.39
660.60	37041.32
660.74	37294.10
660.89	37116.22
661.03	36484.27
661.17	37195.79
661.32	36395.33
661.46	36591.94
661.60	36744.07
661.74	37053.02
661.89	36903.23
662.03	36790.88
662.17	36861.10
662.31	36715.98
662.46	36488.95
662.60	36573.21
662.74	36128.51
662.88	36308.73
663.03	36219.79
663.17	35807.86
663.31	35959.99
663.45	35976.37
663.60	35988.08
663.74	36208.09
663.88	36128.51
664.02	36032.55
664.17	36201.07
664.31	35379.54
664.45	35655.72
664.59	36297.03
664.73	35449.75
664.88	35604.23
665.02	35690.83
665.16	35761.05
665.30	35541.03
665.44	35374.86
665.59	35007.39
665.73	35304.64
665.87	35091.65
666.01	35295.28
666.15	34979.31
666.29	34937.18
666.44	35201.66
666.58	35065.91
666.72	34883.34
666.86	35204.00
667.00	35098.67
667.14	34890.37
667.28	34653.97
667.43	34150.76
667.57	34761.64
667.71	34609.50
667.85	34581.42
667.99	34806.11
668.13	34700.78
668.27	34593.12
668.41	34256.08
668.56	33792.65
668.70	34651.63
668.84	34323.96
668.98	34019.69
669.12	33633.50
669.26	33546.90
669.40	33783.29
669.54	33802.02
669.68	34312.25
669.82	33745.84
669.96	33797.34
670.10	33787.97
670.25	33436.89
670.39	33556.26
670.53	33413.49
670.67	33432.21
670.81	33472.00
670.95	33233.27
671.09	33415.83
671.23	33200.50
671.37	33397.10
671.51	33046.02
671.65	32929.00
671.79	32627.07
671.93	32910.27
672.07	32945.38
672.21	32823.67
672.35	32940.70
672.49	32601.32
672.63	32627.07
672.77	32210.45
672.91	33031.98
673.05	32400.04
673.19	32381.31
673.33	32430.46
673.47	32170.66
673.61	32205.77
673.75	31772.77
673.89	31475.52
674.03	31381.90
674.17	31934.27
674.31	31885.12
674.45	31782.13
674.59	31648.72
674.73	32273.65
674.87	31440.42
675.01	31477.86
675.15	31491.91
675.29	31398.29
675.43	31222.75
675.56	31290.62
675.70	31332.75
675.84	31075.29
675.98	30127.38
676.12	31019.12
676.26	30518.25
676.40	30874.01
676.54	30771.02
676.68	30813.15
676.82	29956.52
676.96	30141.42
677.10	30141.42
677.23	30080.56
677.37	30235.04
677.51	29661.61
677.65	29883.96
677.79	29553.94
677.93	29542.24
678.07	29649.91
678.21	29289.46
678.34	29186.48
678.48	29193.50
678.62	29355.00
678.76	29139.67
678.90	29013.28
679.04	28755.82
679.18	28730.08
679.31	28154.30
679.45	28400.06
679.59	28603.69
679.73	28268.99
679.87	28060.68
680.00	28444.53
680.14	28402.40
680.28	28196.43
680.42	28184.73
680.56	28535.81
680.70	28175.37
680.83	28187.07
680.97	27908.55
681.11	27819.61
681.25	27470.87
681.39	27707.26
681.52	27707.26
681.66	27718.96
681.80	27080.00
681.94	27384.27
682.07	27255.54
682.21	27098.72
682.35	26923.18
682.49	26768.71
682.62	26906.80
682.76	26794.45
682.90	26583.80
683.04	26352.09
683.17	26206.98
683.31	26295.92
683.45	26380.18
683.59	25879.30
683.72	26148.46
683.86	25720.15
684.00	25816.11
684.13	26183.57
684.27	25848.88
684.41	25465.03
684.55	25348.00
684.68	25546.95
684.82	25305.87
684.96	25406.52
685.09	25184.16
685.23	24957.13
685.37	24718.40
685.50	25376.09
685.64	25282.47
685.78	24603.71
685.91	24603.71
686.05	24793.29
686.19	24491.37
686.32	24336.89
686.46	24088.79
686.60	23747.08
686.73	23597.28
686.87	23557.49
687.01	23183.01
687.14	23150.24
687.28	23159.60
687.42	23232.16
687.55	23377.27
687.69	23431.10
687.82	23000.44
687.96	23091.73
688.10	23000.44
688.23	22838.95
688.37	22684.47
688.50	22642.34
688.64	22684.47
688.78	22527.66
688.91	22656.39
689.05	22761.71
689.18	22485.53
689.32	22031.46
689.46	22530.00
689.59	22703.20
689.73	22352.12
689.86	22031.46
690.00	21661.66
690.13	22038.48
690.27	21926.14
690.41	21738.90
690.54	21685.06
690.68	21661.66
690.81	21549.31
690.95	21841.88
691.08	21345.69
691.22	21195.89
691.35	21289.51
691.49	21289.51
691.62	21387.82
691.76	20980.56
691.89	21034.39
692.03	20900.98
692.16	20725.44
692.30	20669.27
692.43	20599.05
692.57	20570.97
692.70	20512.46
692.84	20357.98
692.97	20077.12
693.11	20140.31
693.24	20044.35
693.38	20020.94
693.51	20166.06
693.65	19962.43
693.78	20154.35
693.92	19831.36
694.05	19634.75
694.19	19819.66
694.32	19557.52
694.45	19197.07
694.59	19426.45
694.72	19363.25
694.86	19094.09
694.99	18946.64
695.13	19012.17
695.26	18944.30
695.39	18799.18
695.53	19066.00
695.66	18808.54
695.80	18686.84
695.93	18981.74
696.07	18527.68
696.20	18780.46
696.33	18457.46
696.47	18525.34
696.60	18515.98
696.73	18066.60
696.87	18008.08
697.00	18045.53
697.14	17759.98
697.27	17776.37
697.40	17837.22
697.54	17635.94
697.67	17465.08
697.80	17687.43
697.94	17401.88
698.07	17458.06
698.21	17104.64
698.34	17205.28
698.47	17186.55
698.61	16922.07
698.74	16985.27
698.87	16671.64
699.01	16594.40
699.14	16449.28
699.27	16554.61
699.40	16369.71
699.54	16526.52
699.67	16428.22
699.80	16276.09
699.94	16196.51
700.07	16292.47
700.20	16238.64
700.34	16217.57
700.47	16145.02
700.60	16142.67
700.73	16053.73
700.87	16056.08
701.00	15894.58
701.13	15943.73
701.26	15704.99
701.40	15538.82
701.53	15339.87
701.66	15639.46
701.79	15328.17
701.93	15374.98
702.06	15288.38
702.19	15016.88
702.32	15194.76
702.46	14995.81
702.59	15129.22
702.72	15068.37
702.85	14944.32
702.99	14827.29
703.12	14944.32
703.25	14689.20
703.38	14361.53
703.51	14434.08
703.65	14438.76
703.78	14403.66
703.91	14314.72
704.04	14436.42
704.17	14169.60
704.31	14321.74
704.44	14162.58
704.57	14324.08
704.70	13771.71
704.83	13586.81
704.96	14024.49
705.10	13944.91
705.23	13940.23
>>>>>End Processed Spectral Data<<<<<
