SpectraSuite Data File
++++++++++++++++++++++++++++++++++++
Date: Fri Oct 25 11:33:28 EDT 2013
User: price-jones
Dark Spectrum Present: No
Reference Spectrum Present: No
Number of Sampled Component Spectra: 1
Spectrometers: USB2+H05261
Integration Time (usec): 100000 (USB2+H05261)
Spectra Averaged: 1 (USB2+H05261)
Boxcar Smoothing: 0 (USB2+H05261)
Correct for Electrical Dark: No (USB2+H05261)
Strobe/Lamp Enabled: No (USB2+H05261)
Correct for Detector Non-linearity: No (USB2+H05261)
Correct for Stray Light: No (USB2+H05261)
Number of Pixels in Processed Spectrum: 2048
>>>>>Begin Processed Spectral Data<<<<<
365.73	229.37
365.92	229.37
366.12	229.37
366.32	140.43
366.52	159.16
366.72	168.52
366.91	222.35
367.11	173.20
367.31	161.50
367.51	241.08
367.70	198.95
367.90	241.08
368.10	163.84
368.30	138.09
368.49	180.22
368.69	241.08
368.89	287.89
369.09	161.50
369.28	180.22
369.48	170.86
369.68	173.20
369.87	262.14
370.07	252.78
370.27	322.99
370.47	395.55
370.66	465.77
370.86	444.70
371.06	524.28
371.25	564.07
371.45	486.83
371.65	489.17
371.84	505.56
372.04	519.60
372.24	566.41
372.44	671.73
372.63	585.13
372.83	638.97
373.03	578.11
373.22	592.16
373.42	681.10
373.62	613.22
373.81	554.71
374.01	589.82
374.21	638.97
374.40	643.65
374.60	645.99
374.79	613.22
374.99	650.67
375.19	660.03
375.38	631.94
375.58	638.97
375.78	638.97
375.97	610.88
376.17	692.80
376.37	622.58
376.56	650.67
376.76	620.24
376.95	681.10
377.15	702.16
377.35	718.54
377.54	617.90
377.74	641.31
377.93	643.65
378.13	685.78
378.33	809.83
378.52	723.23
378.72	753.65
378.91	767.70
379.11	678.76
379.31	730.25
379.50	685.78
379.70	697.48
379.89	779.40
380.09	725.57
380.28	697.48
380.48	695.14
380.68	751.31
380.87	734.93
381.07	727.91
381.26	835.57
381.46	730.25
381.65	746.63
381.85	727.91
382.04	709.18
382.24	798.12
382.43	807.48
382.63	800.46
382.83	784.08
383.02	727.91
383.22	741.95
383.41	821.53
383.61	798.12
383.80	805.14
384.00	821.53
384.19	854.30
384.39	802.80
384.58	821.53
384.78	809.83
384.97	807.48
385.17	833.23
385.36	793.44
385.56	837.91
385.75	828.55
385.95	940.90
386.14	889.40
386.34	922.17
386.53	814.51
386.72	919.83
386.92	844.93
387.11	863.66
387.31	875.36
387.50	863.66
387.70	908.13
387.89	908.13
388.09	887.06
388.28	828.55
388.48	837.91
388.67	1008.77
388.86	917.49
389.06	849.61
389.25	924.51
389.45	903.45
389.64	917.49
389.84	919.83
390.03	1053.24
390.22	1011.11
390.42	994.73
390.61	940.90
390.81	966.64
391.00	990.05
391.19	976.00
391.39	1074.31
391.58	924.51
391.78	1130.48
391.97	1025.15
392.16	1034.52
392.36	1036.86
392.55	1018.13
392.75	1034.52
392.94	1100.05
393.13	1027.50
393.33	1078.99
393.52	1093.03
393.71	1078.99
393.91	1123.46
394.10	1123.46
394.29	1064.94
394.49	1128.14
394.68	1095.37
394.88	1114.10
395.07	1153.88
395.26	1177.29
395.46	1153.88
395.65	1191.33
395.84	1179.63
396.04	1280.27
396.23	1226.44
396.42	1207.72
396.62	1282.61
396.81	1219.42
397.00	1226.44
397.19	1259.21
397.39	1284.95
397.58	1261.55
397.77	1254.53
397.97	1245.16
398.16	1214.74
398.35	1284.95
398.55	1287.29
398.74	1245.16
398.93	1401.98
399.12	1275.59
399.32	1252.19
399.51	1343.47
399.70	1394.96
399.90	1308.36
400.09	1315.38
400.28	1432.41
400.47	1383.26
400.67	1451.13
400.86	1310.70
401.05	1423.05
401.24	1376.24
401.44	1497.94
401.63	1523.69
401.82	1448.79
402.01	1446.45
402.21	1465.18
402.40	1472.20
402.59	1528.37
402.78	1462.83
402.97	1600.93
403.17	1582.20
403.36	1504.96
403.55	1575.18
403.74	1575.18
403.93	1537.73
404.13	1732.00
404.32	1675.82
404.51	1678.16
404.70	1673.48
404.89	1619.65
405.09	1664.12
405.28	1790.51
405.47	1600.93
405.66	1722.63
405.85	1692.21
406.05	1739.02
406.24	1680.50
406.43	1685.19
406.62	1739.02
406.81	1851.36
407.00	1748.38
407.20	1764.76
407.39	1851.36
407.58	1900.52
407.77	1853.70
407.96	1926.26
408.15	1785.83
408.34	1781.15
408.54	1984.77
408.73	1891.15
408.92	1839.66
409.11	1973.07
409.30	1914.56
409.49	1907.54
409.68	2052.65
409.87	2015.20
410.07	2057.33
410.26	2125.21
410.45	2097.12
410.64	2139.25
410.83	2148.61
411.02	2108.82
411.21	2176.70
411.40	2139.25
411.59	2136.91
411.78	2260.96
411.98	2127.55
412.17	2249.25
412.36	2267.98
412.55	2244.57
412.74	2354.58
412.93	2270.32
413.12	2289.04
413.31	2406.07
413.50	2399.05
413.69	2408.41
413.88	2485.65
414.07	2502.03
414.26	2485.65
414.45	2569.91
414.64	2506.71
414.83	2609.70
415.02	2635.44
415.22	2597.99
415.41	2675.23
415.60	2832.05
415.79	2768.85
415.98	2722.04
416.17	2740.77
416.36	2712.68
416.55	2738.43
416.74	2740.77
416.93	2899.92
417.12	2754.81
417.31	2822.69
417.50	2892.90
417.69	3016.95
417.88	2906.95
418.07	2977.16
418.26	2808.64
418.45	3009.93
418.64	3180.79
418.83	3061.42
419.02	3042.70
419.21	3155.04
419.39	3225.26
419.58	3103.55
419.77	3110.57
419.96	3187.81
420.15	3241.64
420.34	3119.93
420.53	3213.56
420.72	3115.25
420.91	3431.23
421.10	3152.70
421.29	3389.10
421.48	3218.24
421.67	3253.34
421.86	3375.05
422.05	3391.44
422.24	3234.62
422.43	3332.92
422.61	3412.50
422.80	3426.54
422.99	3424.20
423.18	3396.12
423.37	3407.82
423.56	3379.73
423.75	3307.18
423.94	3361.01
424.13	3131.64
424.32	3325.90
424.50	3510.80
424.69	3499.10
424.88	3552.93
425.07	3311.86
425.26	3435.91
425.45	3433.57
425.64	3506.12
425.83	3412.50
426.01	3468.67
426.20	3431.23
426.39	3466.33
426.58	3435.91
426.77	3508.46
426.96	3534.21
427.15	3377.39
427.33	3602.08
427.52	3611.45
427.71	3571.66
427.90	3705.07
428.09	3606.77
428.28	3651.24
428.46	3599.74
428.65	3805.71
428.84	3932.10
429.03	3733.15
429.22	3698.05
429.40	3737.84
429.59	3829.12
429.78	3695.71
429.97	3669.96
430.16	3758.90
430.34	3810.39
430.53	3770.60
430.72	3962.53
430.91	3808.05
431.10	3864.22
431.28	3953.16
431.47	3871.25
431.66	4018.70
431.85	3943.80
432.03	3953.16
432.22	4081.89
432.41	4081.89
432.60	4016.36
432.79	4007.00
432.97	4102.96
433.16	4124.02
433.35	4187.22
433.54	4149.77
433.72	4203.60
433.91	4182.54
434.10	4243.39
434.28	4231.69
434.47	4224.67
434.66	4308.93
434.85	4407.23
435.03	4402.55
435.22	4486.81
435.41	4571.07
435.59	4362.76
435.78	4411.91
435.97	4573.41
436.16	4407.23
436.34	4421.27
436.53	4425.95
436.72	4622.56
436.90	4390.84
437.09	4372.12
437.28	4360.42
437.46	4568.73
437.65	4421.27
437.84	4674.05
438.02	4596.81
438.21	4573.41
438.40	4400.21
438.58	4592.13
438.77	4802.78
438.96	4723.20
439.14	4922.15
439.33	4826.18
439.52	4966.62
439.70	4828.53
439.89	4861.29
440.08	5067.26
440.26	4865.97
440.45	4947.89
440.63	5181.95
440.82	5078.96
441.01	5226.42
441.19	5165.56
441.38	5221.74
441.57	5263.86
441.75	5270.89
441.94	5493.24
442.12	5383.23
442.31	5448.77
442.50	5334.08
442.68	5411.32
442.87	5462.81
443.05	5617.29
443.24	5488.56
443.43	5565.79
443.61	5626.65
443.80	5734.31
443.98	5439.40
444.17	5298.97
444.35	5668.78
444.54	5722.61
444.73	5591.54
444.91	5755.38
445.10	5685.16
445.28	5799.85
445.47	5582.18
445.65	5778.78
445.84	5849.00
446.02	5846.66
446.21	5753.04
446.39	5645.37
446.58	5809.21
446.77	5769.42
446.95	5666.44
447.14	5731.97
447.32	5944.96
447.51	5671.12
447.69	5612.60
447.88	5809.21
448.06	5804.53
448.25	5804.53
448.43	5820.91
448.62	5792.83
448.80	5785.80
448.99	5895.81
449.17	5891.13
449.36	5783.46
449.54	5944.96
449.73	6033.90
449.91	5963.68
450.10	6040.92
450.28	6244.55
450.46	6127.52
450.65	6164.97
450.83	6043.26
451.02	6059.65
451.20	6136.88
451.39	6092.41
451.57	6104.12
451.76	6113.48
451.94	6249.23
452.13	6164.97
452.31	6274.98
452.49	6097.10
452.68	6345.19
452.86	6296.04
453.05	6368.60
453.23	6363.92
453.42	6509.03
453.60	6216.46
453.78	6478.60
453.97	6520.73
454.15	6448.18
454.34	6296.04
454.52	6448.18
454.70	6567.54
454.89	6572.22
455.07	6640.10
455.26	6520.73
455.44	6558.18
455.62	6665.85
455.81	6637.76
455.99	6771.17
456.17	6857.77
456.36	6829.68
456.54	6768.83
456.73	6874.15
456.91	6995.86
457.09	6951.39
457.28	7005.22
457.46	7059.06
457.64	6979.48
457.83	6995.86
458.01	6909.26
458.19	7173.74
458.38	7096.50
458.56	7344.60
458.74	7384.39
458.93	7370.35
459.11	7258.00
459.29	7150.34
459.48	7290.77
459.66	7330.56
459.84	7438.22
460.03	7267.36
460.21	7407.80
460.39	7382.05
460.57	7531.84
460.76	7492.05
460.94	7698.02
461.12	7473.33
461.31	7466.31
461.49	7517.80
461.67	7496.74
461.85	7658.23
462.04	7618.44
462.22	8079.53
462.40	7808.03
462.59	7623.12
462.77	7868.88
462.95	7889.95
463.13	7793.98
463.32	7751.85
463.50	7845.48
463.68	7899.31
463.86	7941.44
464.05	7801.01
464.23	7873.56
464.41	8056.12
464.59	7925.05
464.78	8028.04
464.96	7939.10
465.14	8023.36
465.32	8334.65
465.50	8166.13
465.69	8257.41
465.87	8187.19
466.05	8042.08
466.23	8219.96
466.41	8182.51
466.60	8276.13
466.78	8142.72
466.96	8355.71
467.14	8222.30
467.32	8292.52
467.51	8393.16
467.69	8056.12
467.87	8212.94
468.05	8306.56
468.23	8124.00
468.41	8329.97
468.60	8468.06
468.78	8512.53
468.96	8362.73
469.14	8578.06
469.32	8589.77
469.50	8470.40
469.69	8704.45
469.87	8767.65
470.05	8589.77
470.23	8781.69
470.41	8690.41
470.59	8856.59
470.77	8657.64
470.95	8931.48
471.14	8863.61
471.32	8835.52
471.50	9132.77
471.68	8973.61
471.86	9210.01
472.04	9200.65
472.22	9458.10
472.40	9081.28
472.58	9228.73
472.77	9160.86
472.95	9521.30
473.13	9804.50
473.31	9490.87
473.49	9544.70
473.67	9600.88
473.85	9575.13
474.03	9687.48
474.21	9650.03
474.39	9975.36
474.57	9848.97
474.75	9905.15
474.93	9989.41
475.12	9987.07
475.30	10080.69
475.48	10057.28
475.66	10099.41
475.84	10019.83
476.02	10281.97
476.20	10319.42
476.38	10347.51
476.56	10640.08
476.74	10628.37
476.92	10885.83
477.10	10382.62
477.28	10619.01
477.46	10616.67
477.64	10710.29
477.82	11077.76
478.00	11335.21
478.18	11197.12
478.36	11321.17
478.54	11403.09
478.72	11232.23
478.90	11559.91
479.08	11758.85
479.26	11676.93
479.44	11719.06
479.62	11763.53
479.80	11894.60
479.98	11922.69
480.16	12343.99
480.34	12161.42
480.52	12231.64
480.70	12472.71
480.88	12123.98
481.06	12461.01
481.24	12269.09
481.41	12559.31
481.59	12924.44
481.77	12842.52
481.95	12933.80
482.13	12901.03
482.31	12971.25
482.49	13359.78
482.67	13261.48
482.85	13561.06
483.03	13305.95
483.21	13919.17
483.39	13961.30
483.57	13853.63
483.74	14075.98
483.92	14010.45
484.10	13893.42
484.28	14469.19
484.46	14736.01
484.64	14766.44
484.82	14471.53
485.00	14951.34
485.18	14923.26
485.35	14960.70
485.53	14841.34
485.71	15157.31
485.89	15466.26
486.07	15538.82
486.25	15374.98
486.43	15676.91
486.61	15784.57
486.78	16060.76
486.96	15796.28
487.14	16018.63
487.32	16145.02
487.50	16072.46
487.68	16638.87
487.85	16500.78
488.03	16741.85
488.21	16992.29
488.39	16994.63
488.57	17228.68
488.75	17287.20
488.92	17479.12
489.10	17783.39
489.28	17610.19
489.46	18026.81
489.64	17699.13
489.81	18033.83
489.99	18038.51
490.17	18391.93
490.35	18328.74
490.53	18525.34
490.70	18651.73
490.88	18682.16
491.06	19112.81
491.24	18963.02
491.41	19112.81
491.59	19239.20
491.77	19190.05
491.95	19363.25
492.13	19770.51
492.30	19784.55
492.48	20093.50
492.66	19824.34
492.84	19887.53
493.01	20196.48
493.19	20236.27
493.37	20594.37
493.54	20144.99
493.72	20538.20
493.90	20720.76
494.08	20893.96
494.25	20842.47
494.43	20917.37
494.61	21319.94
494.79	21605.49
494.96	21123.33
495.14	21558.67
495.32	21858.26
495.49	21734.21
495.67	21898.05
495.85	22270.20
496.02	22459.78
496.20	22473.82
496.38	22211.68
496.55	22342.75
496.73	23166.62
496.91	22663.41
497.09	22892.78
497.26	22955.97
497.44	23030.87
497.62	23253.22
497.79	23241.52
497.97	23454.51
498.14	23536.43
498.32	24002.19
498.50	23894.53
498.67	24458.60
498.85	23763.46
499.03	24236.25
499.20	23981.13
499.38	24173.05
499.56	24425.83
499.73	24746.48
499.91	24648.18
500.08	24943.09
500.26	24678.61
500.44	24734.78
500.61	24842.45
500.79	24524.13
500.97	25085.86
501.14	25294.17
501.32	25479.07
501.49	25216.93
501.67	25558.65
501.84	26085.27
502.02	25371.41
502.20	25649.93
502.37	25848.88
502.55	25715.47
502.72	25972.92
502.90	26448.05
503.07	25902.71
503.25	26125.06
503.43	26382.52
503.60	26389.54
503.78	26476.14
503.95	26546.36
504.13	26478.48
504.30	26951.27
504.48	26703.17
504.65	26469.12
504.83	26757.00
505.01	27229.79
505.18	26909.14
505.36	27484.91
505.53	27314.05
505.71	27419.38
505.88	27665.13
506.06	27442.78
506.23	27630.02
506.41	27751.73
506.58	28388.36
506.76	28311.12
506.93	28140.26
507.11	27803.22
507.28	28180.05
507.46	28243.24
507.63	28264.31
507.81	28428.15
507.98	28556.88
508.16	28549.85
508.33	28636.45
508.50	28655.18
508.68	29088.18
508.85	29336.27
509.03	29109.24
509.20	29123.29
509.38	29450.96
509.55	29230.95
509.73	29500.11
509.90	29422.87
510.08	29291.80
510.25	29773.95
510.42	29755.23
510.60	29748.21
510.77	29956.52
510.95	29848.85
511.12	29979.92
511.30	30150.78
511.47	30113.33
511.64	30134.40
511.82	30321.64
511.99	30501.86
512.17	30773.36
512.34	30384.83
512.51	30768.68
512.69	31168.91
512.86	30923.16
513.04	31140.83
513.21	30993.37
513.38	31178.28
513.56	31197.00
513.73	31372.54
513.90	31227.43
514.08	30953.58
514.25	31630.00
514.43	31676.81
514.60	31653.40
514.77	31796.18
514.95	31882.78
515.12	31775.11
515.29	31632.34
515.47	32400.04
515.64	32182.37
515.81	31945.97
515.99	32336.84
516.16	32671.54
516.33	32423.44
516.51	32886.87
516.68	32231.52
516.85	32718.35
517.03	32596.64
517.20	32863.46
517.37	32891.55
517.54	32961.76
517.72	33134.96
517.89	33120.92
518.06	33270.72
518.24	32999.21
518.41	32774.52
518.58	33050.70
518.75	33010.92
518.93	33544.56
519.10	33277.74
519.27	33413.49
519.45	33844.15
519.62	33778.61
519.79	33769.25
519.96	34029.05
520.14	33921.38
520.31	33518.81
520.48	34057.14
520.65	33923.72
520.83	34759.30
521.00	34705.46
521.17	34204.59
521.34	34546.31
521.52	34330.98
521.69	34466.73
521.86	35218.04
522.03	34677.38
522.20	34951.22
522.38	35314.00
522.55	34918.45
522.72	34976.97
522.89	35126.76
523.07	35592.53
523.24	35599.55
523.41	35578.48
523.58	35206.34
523.75	35700.19
523.92	35456.78
524.10	35903.82
524.27	35969.35
524.44	35784.45
524.61	36098.08
524.78	35817.22
524.96	35999.78
525.13	36070.00
525.30	36439.80
525.47	36030.21
525.64	36474.91
525.81	36774.50
525.98	36657.47
526.16	36594.28
526.33	36631.72
526.50	36914.93
526.67	36584.91
526.84	36648.11
527.01	36669.17
527.18	36669.17
527.36	36823.65
527.53	36872.80
527.70	37109.19
527.87	37420.48
528.04	36797.90
528.21	37118.56
528.38	37724.75
528.55	37376.01
528.72	37219.20
528.89	37486.02
529.07	37502.40
529.24	37535.17
529.41	37956.47
529.58	37448.57
529.75	37511.77
529.92	37394.74
530.09	37794.97
530.26	37392.40
530.43	38204.56
530.60	37684.97
530.77	38120.31
530.94	37769.22
531.11	37912.00
531.28	38073.49
531.46	38054.77
531.63	38075.84
531.80	38253.72
531.97	38094.56
532.14	38770.97
532.31	38206.90
532.48	38476.07
532.65	38974.60
532.82	38850.55
532.99	39002.69
533.16	39002.69
533.33	38906.73
533.50	39044.82
533.67	39061.20
533.84	38806.08
534.01	38993.32
534.18	38632.88
534.35	39454.41
534.52	39435.69
534.69	39374.83
534.86	39662.72
535.03	39363.13
535.20	39648.68
535.37	39913.16
535.54	39512.92
535.71	39405.26
535.88	39866.34
536.05	39496.54
536.22	39700.17
536.38	39812.51
536.55	39817.19
536.72	39812.51
536.89	39613.57
537.06	40053.59
537.23	40151.89
537.40	39824.22
537.57	39768.04
537.74	40105.08
537.91	40201.04
538.08	40549.78
538.25	40369.56
538.42	40587.23
538.59	40519.35
538.75	40172.96
538.92	40680.85
539.09	40528.72
539.26	40673.83
539.43	40545.10
539.60	40671.49
539.77	40662.13
539.94	41233.22
540.11	40634.04
540.28	41038.95
540.44	40804.90
540.61	41385.35
540.78	40940.65
540.95	40959.38
541.12	41165.34
541.29	40746.39
541.46	41350.24
541.62	41170.02
541.79	41537.49
541.96	41193.43
542.13	40891.50
542.30	41345.56
542.47	41233.22
542.63	41481.31
542.80	41801.97
542.97	42157.73
543.14	41551.53
543.31	42321.57
543.48	41844.10
543.64	42253.69
543.81	42274.76
543.98	42471.36
544.15	41958.78
544.32	42183.48
544.48	42691.37
544.65	42700.73
544.82	42459.66
544.99	42394.12
545.16	42082.83
545.32	42541.58
545.49	43115.01
545.66	43028.41
545.83	42927.77
546.00	43133.73
546.16	42843.51
546.33	42515.83
546.50	42522.85
546.67	43028.41
546.83	42476.04
547.00	42347.31
547.17	42773.29
547.34	43152.46
547.50	42904.36
547.67	42799.04
547.84	43267.14
548.00	43239.06
548.17	43236.72
548.34	43342.04
548.51	43456.73
548.67	43304.59
548.84	43201.61
549.01	43426.30
549.18	43313.95
549.34	43335.02
549.51	43679.08
549.68	43604.18
549.84	43407.58
550.01	44114.42
550.18	43592.48
550.34	43732.91
550.51	43669.72
550.68	43828.87
550.84	44013.77
551.01	43988.03
551.18	43966.96
551.34	43655.67
551.51	44062.93
551.68	43997.39
551.84	43964.62
552.01	43648.65
552.18	44172.93
552.34	43749.29
552.51	44203.36
552.68	43992.71
552.84	44327.41
553.01	44163.57
553.18	44109.74
553.34	44516.99
553.51	44603.59
553.67	44231.44
553.84	44467.84
554.01	44538.05
554.17	44755.72
554.34	44884.45
554.51	44561.46
554.67	45031.91
554.84	44650.40
555.00	44910.20
555.17	44781.47
555.33	44861.05
555.50	44519.33
555.67	44842.32
555.83	44552.10
556.00	45109.14
556.16	45521.08
556.33	44786.15
556.50	44818.92
556.66	44538.05
556.83	44671.46
556.99	45720.02
557.16	45205.11
557.32	45343.20
557.49	45453.20
557.65	45153.62
557.82	45366.60
557.98	45155.96
558.15	45212.13
558.32	45202.77
558.48	45303.41
558.65	45331.50
558.81	45097.44
558.98	45591.30
559.14	45471.93
559.31	45368.94
559.47	45673.21
559.64	45272.98
559.80	45434.48
559.97	45734.07
560.13	45338.52
560.30	45490.65
560.46	45799.60
560.63	46068.76
560.79	46108.55
560.96	45785.56
561.12	45839.39
561.29	46206.86
561.45	45748.11
561.61	45806.62
561.78	45696.62
561.94	45460.23
562.11	45701.30
562.27	45752.79
562.44	45858.12
562.60	45874.50
562.77	46010.25
562.93	46174.09
563.10	46169.41
563.26	46174.09
563.42	46314.52
563.59	45717.68
563.75	46356.65
563.92	45727.05
564.08	45855.78
564.24	46248.99
564.41	46146.00
564.57	45975.14
564.74	45989.19
564.90	46232.60
565.07	46160.05
565.23	46272.39
565.39	46571.98
565.56	47023.70
565.72	46113.23
565.88	46347.29
566.05	46422.19
566.21	46129.62
566.38	46071.10
566.54	46398.78
566.70	46316.86
566.87	46586.02
567.03	46452.61
567.19	46464.32
567.36	46403.46
567.52	46555.60
567.68	46593.04
567.85	46548.57
568.01	46820.08
568.17	46394.10
568.34	46586.02
568.50	46740.50
568.66	46560.28
568.83	46068.76
568.99	46735.82
569.15	46679.64
569.32	46616.45
569.48	46829.44
569.64	46951.15
569.81	46766.24
569.97	47220.31
570.13	46995.62
570.30	46504.10
570.46	46438.57
570.62	46990.94
570.78	46588.36
570.95	46927.74
571.11	46906.68
571.27	46848.16
571.43	46955.83
571.60	46494.74
571.76	46438.57
571.92	46972.21
572.09	46911.36
572.25	46689.01
572.41	46621.13
572.57	47063.49
572.74	47330.31
572.90	46953.49
573.06	46916.04
573.22	47023.70
573.38	46878.59
573.55	47084.56
573.71	47084.56
573.87	47229.67
574.03	46925.40
574.20	47494.15
574.36	47103.28
574.52	47138.39
574.68	46883.27
574.84	47395.85
575.01	47576.07
575.17	47288.18
575.33	47248.39
575.49	47227.33
575.65	47323.29
575.82	47463.72
575.98	47150.09
576.14	47283.50
576.30	47358.40
576.46	47065.83
576.62	47196.90
576.79	46916.04
576.95	47185.20
577.11	47056.47
577.27	47318.61
577.43	47419.25
577.59	47402.87
577.75	46806.03
577.92	47063.49
578.08	47122.01
578.24	47636.92
578.40	47398.19
578.56	47297.55
578.72	47365.42
578.88	47271.80
579.04	47285.84
579.21	47091.58
579.37	47103.28
579.53	47100.94
579.69	46794.33
579.85	47236.69
580.01	47288.18
580.17	47313.93
580.33	47882.68
580.49	47547.98
580.65	47461.38
580.82	47262.44
580.98	47138.39
581.14	47241.37
581.30	47161.79
581.46	47112.64
581.62	46955.83
581.78	47264.78
581.94	47423.93
582.10	47063.49
582.26	47381.80
582.42	47140.73
582.58	47597.13
582.74	47456.70
582.90	47409.89
583.06	47665.01
583.22	47634.58
583.38	47742.25
583.54	48156.52
583.70	47606.50
583.86	47859.27
584.02	47229.67
584.18	47660.33
584.34	47922.47
584.50	47777.36
584.66	47732.89
584.82	47583.09
584.98	47945.87
585.14	47807.78
585.30	47618.20
585.46	47592.45
585.62	47468.40
585.78	47667.35
585.94	47508.19
586.10	47047.11
586.26	46946.47
586.42	47220.31
586.58	47618.20
586.74	47475.43
586.90	47480.11
587.06	47742.25
587.22	47461.38
587.38	47463.72
587.54	47763.31
587.70	47690.76
587.86	47908.43
588.02	47782.04
588.18	47550.32
588.34	47206.26
588.49	47480.11
588.65	47707.14
588.81	47356.06
588.97	47880.34
589.13	47601.82
589.29	47592.45
589.45	47959.92
589.61	47716.50
589.77	47870.98
589.93	47412.23
590.08	47824.17
590.24	47913.11
590.40	48098.01
590.56	48011.41
590.72	48273.55
590.88	47847.57
591.04	47557.35
591.20	48079.28
591.35	47894.38
591.51	48425.68
591.67	48090.99
591.83	48257.17
591.99	47840.55
592.15	48261.85
592.31	48060.56
592.46	47360.74
592.62	47889.70
592.78	48060.56
592.94	47962.26
593.10	48303.98
593.26	48315.68
593.41	48348.45
593.57	48451.43
593.73	48315.68
593.89	48516.96
594.05	48205.67
594.20	48580.16
594.36	48573.14
594.52	48500.58
594.68	47931.83
594.84	48046.52
594.99	48589.52
595.15	48203.33
595.31	48430.36
595.47	48123.75
595.62	48046.52
595.78	48261.85
595.94	48453.77
596.10	48044.18
596.25	48676.12
596.41	48261.85
596.57	48245.46
596.73	48343.77
596.88	48556.75
597.04	48392.92
597.20	48463.13
597.36	48259.51
597.51	48034.81
597.67	48502.92
597.83	48243.12
597.99	48432.71
598.14	48350.79
598.30	48425.68
598.46	48318.02
598.61	48622.29
598.77	48444.41
598.93	48311.00
599.09	48128.44
599.24	48844.64
599.40	48577.82
599.56	48928.90
599.71	48484.20
599.87	48804.85
600.03	48353.13
600.18	48825.92
600.34	48451.43
600.50	48479.52
600.65	48095.67
600.81	48540.37
600.97	48800.17
601.12	48566.12
601.28	48474.84
601.44	48362.49
601.59	48425.68
601.75	48486.54
601.91	48289.93
602.06	48435.05
602.22	48879.75
602.37	48470.15
602.53	48318.02
602.69	48680.80
602.84	48065.24
603.00	48390.58
603.16	48633.99
603.31	48280.57
603.47	48851.66
603.62	48357.81
603.78	48774.42
603.94	48671.44
604.09	48736.98
604.25	48411.64
604.40	48575.48
604.56	48519.31
604.71	48641.01
604.87	48198.65
605.03	48243.12
605.18	48500.58
605.34	48545.05
605.49	48114.39
605.65	48346.11
605.80	48126.10
605.96	48083.97
606.12	48406.96
606.27	48416.32
606.43	48114.39
606.58	48540.37
606.74	48233.76
606.89	48729.95
607.05	48479.52
607.20	48350.79
607.36	48062.90
607.51	48479.52
607.67	48371.85
607.82	48348.45
607.98	47924.81
608.13	48032.47
608.29	48327.38
608.44	48512.28
608.60	48144.82
608.75	48636.33
608.91	48336.74
609.06	47765.65
609.22	48318.02
609.37	48161.20
609.53	48615.27
609.68	48421.00
609.84	48034.81
609.99	48378.87
610.15	48273.55
610.30	48088.65
610.46	47777.36
610.61	48179.93
610.76	48231.42
610.92	48074.60
611.07	48105.03
611.23	47957.58
611.38	47913.11
611.54	47931.83
611.69	48516.96
611.84	48229.08
612.00	47779.70
612.15	48116.73
612.31	48039.50
612.46	47349.04
612.62	47758.63
612.77	48013.75
612.92	48299.30
613.08	47866.30
613.23	47990.34
613.39	47423.93
613.54	47922.47
613.69	47915.45
613.85	47796.08
614.00	47529.26
614.15	48055.88
614.31	47407.55
614.46	47943.53
614.62	47608.84
614.77	47320.95
614.92	47578.41
615.08	47309.25
615.23	47613.52
615.38	47819.49
615.54	47459.04
615.69	47798.42
615.84	47856.93
616.00	47580.75
616.15	48002.05
616.30	47833.53
616.46	47868.64
616.61	47372.44
616.76	47686.07
616.92	47402.87
617.07	47391.17
617.22	47468.40
617.37	47365.42
617.53	47908.43
617.68	47758.63
617.83	47414.57
617.99	47805.44
618.14	47702.46
618.29	47564.37
618.45	47171.16
618.60	47505.85
618.75	46857.52
618.90	47079.88
619.06	47007.32
619.21	47526.92
619.36	47419.25
619.51	47122.01
619.67	47012.00
619.82	47276.48
619.97	47271.80
620.12	46969.87
620.28	47021.36
620.43	47433.30
620.58	47241.37
620.73	47489.47
620.89	47430.96
621.04	46965.19
621.19	47236.69
621.34	47098.60
621.49	46904.34
621.65	46827.10
621.80	47498.83
621.95	47040.09
622.10	47215.63
622.25	46525.17
622.41	47044.77
622.56	46464.32
622.71	47180.52
622.86	46742.84
623.01	46873.91
623.16	47021.36
623.32	47112.64
623.47	46543.89
623.62	46660.92
623.77	46801.35
623.92	46696.03
624.07	46911.36
624.23	46796.67
624.38	46958.17
624.53	46618.79
624.68	46466.66
624.83	46394.10
624.98	46794.33
625.13	46064.08
625.29	45984.51
625.44	46611.77
625.59	46576.66
625.74	46344.95
625.89	46225.58
626.04	46160.05
626.19	46007.91
626.34	46176.43
626.49	45923.65
626.65	46036.00
626.80	46033.66
626.95	46220.90
627.10	45839.39
627.25	46033.66
627.40	46571.98
627.55	45890.88
627.70	45841.73
627.85	46284.09
628.00	46192.81
628.15	45989.19
628.30	45848.75
628.45	45727.05
628.60	45450.86
628.76	45581.93
628.91	45464.91
629.06	45591.30
629.21	45141.91
629.36	45769.18
629.51	45617.04
629.66	45900.25
629.81	45736.41
629.96	45626.40
630.11	45689.60
630.26	45469.59
630.41	45881.52
630.56	45172.34
630.71	45862.80
630.86	45624.06
631.01	45631.08
631.16	45361.92
631.31	45268.30
631.46	45574.91
631.61	45720.02
631.76	45282.34
631.91	45933.01
632.06	45935.35
632.21	45862.80
632.36	46136.64
632.51	45186.38
632.66	45734.07
632.81	45312.77
632.96	45914.29
633.10	45331.50
633.25	45071.70
633.40	44844.66
633.55	45881.52
633.70	45567.89
633.85	45045.95
634.00	44879.77
634.15	44949.99
634.30	45111.49
634.45	44545.08
634.60	45125.53
634.75	44914.88
634.90	45036.59
635.05	44942.97
635.19	44559.12
635.34	45261.28
635.49	44952.33
635.64	44629.34
635.79	45247.24
635.94	45059.99
636.09	45181.70
636.24	44978.07
636.39	44502.95
636.53	44884.45
636.68	44580.18
636.83	44353.15
636.98	44453.79
637.13	44350.81
637.28	44444.43
637.43	44107.40
637.57	44114.42
637.72	43976.33
637.87	44320.38
638.02	44540.39
638.17	43995.05
638.32	44376.56
638.46	43868.66
638.61	44037.18
638.76	44135.48
638.91	44123.78
639.06	44264.21
639.20	43711.84
639.35	44196.34
639.50	43501.20
639.65	44201.02
639.80	44126.12
639.94	44406.98
640.09	44451.45
640.24	44741.68
640.39	43728.23
640.54	43868.66
640.68	44245.49
640.83	44023.14
640.98	43875.68
641.13	43173.52
641.27	44285.28
641.42	44034.84
641.57	43693.12
641.72	44081.65
641.86	44299.32
642.01	43456.73
642.16	43622.90
642.31	43337.36
642.45	43772.70
642.60	43470.77
642.75	43498.86
642.90	43466.09
643.04	43700.14
643.19	43608.86
643.34	43496.52
643.48	43189.91
643.63	43323.32
643.78	43604.18
643.93	43594.82
644.07	43676.74
644.22	43367.79
644.37	43192.25
644.51	43674.40
644.66	43817.17
644.81	43201.61
644.95	43309.27
645.10	43248.42
645.25	43271.82
645.39	42904.36
645.54	43007.34
645.69	42490.09
645.83	42906.70
645.98	42848.19
646.13	43084.58
646.27	42443.27
646.42	42368.38
646.57	42625.84
646.71	42789.67
646.86	43297.57
647.00	43213.31
647.15	43192.25
647.30	43283.53
647.44	42752.23
647.59	42806.06
647.74	42422.21
647.88	42604.77
648.03	42904.36
648.17	42953.51
648.32	43016.71
648.47	43133.73
648.61	42157.73
648.76	42181.13
648.90	42520.51
649.05	42642.22
649.20	42796.70
649.34	42939.47
649.49	42426.89
649.63	42506.47
649.78	42920.74
649.92	42602.43
650.07	42880.95
650.21	42572.00
650.36	42876.27
650.51	42389.44
650.65	42534.56
650.80	42672.65
650.94	42014.96
651.09	42045.38
651.23	42012.62
651.38	42429.23
651.52	41638.13
651.67	42328.59
651.81	42302.84
651.96	41724.73
652.10	41766.86
652.25	42082.83
652.39	42260.71
652.54	42171.77
652.68	41801.97
652.83	41654.51
652.97	41977.51
653.12	42347.31
653.26	41876.86
653.41	41907.29
653.55	41682.60
653.70	42462.00
653.84	42256.03
653.99	42216.24
654.13	41808.99
654.27	41638.13
654.42	42117.94
654.56	41710.69
654.71	41851.12
654.85	41715.37
655.00	42239.65
655.14	41783.24
655.29	42038.36
655.43	41869.84
655.57	41783.24
655.72	41223.86
655.86	41411.10
656.01	41184.07
656.15	41354.93
656.30	41020.23
656.44	41502.38
656.58	41352.58
656.73	41652.17
656.87	41680.26
657.01	40849.37
657.16	41038.95
657.30	41628.77
657.45	40828.30
657.59	41055.34
657.73	40739.36
657.88	40807.24
658.02	41457.91
658.16	41160.66
658.31	41357.27
658.45	41212.15
658.60	40692.55
658.74	41359.61
658.88	41158.32
659.03	40891.50
659.17	40528.72
659.31	40486.59
659.46	40261.90
659.60	40451.48
659.74	40891.50
659.89	40355.52
660.03	40095.72
660.17	40456.16
660.32	40414.03
660.46	40013.80
660.60	40399.99
660.74	40231.47
660.89	40212.74
661.03	39559.73
661.17	39695.49
661.32	39629.95
661.46	39974.01
661.60	39866.34
661.74	39915.50
661.89	39573.78
662.03	39789.11
662.17	39529.31
662.31	39524.63
662.46	39899.11
662.60	40086.36
662.74	39264.83
662.88	39281.21
663.03	39215.68
663.17	39208.65
663.31	38888.00
663.45	39203.97
663.60	39737.62
663.74	39363.13
663.88	38998.01
664.02	39021.41
664.17	39395.90
664.31	39168.87
664.45	38660.97
664.59	38841.19
664.73	38464.36
664.88	38906.73
665.02	38337.98
665.16	39056.52
665.30	38789.70
665.44	38780.34
665.59	38253.72
665.73	38246.69
665.87	37624.11
666.01	38539.26
666.15	37900.29
666.29	38267.76
666.44	38220.95
666.58	38546.28
666.72	37942.42
666.86	37598.37
667.00	37738.80
667.14	38024.34
667.28	37581.98
667.43	37846.46
667.57	37904.98
667.71	37970.51
667.85	38188.18
667.99	37326.86
668.13	37296.44
668.27	37359.63
668.41	37095.15
668.56	36723.01
668.70	37034.30
668.84	36676.19
668.98	36854.08
669.12	37081.11
669.26	37165.37
669.40	37069.40
669.54	36905.57
669.68	36968.76
669.82	36603.64
669.96	36208.09
670.10	36151.91
670.25	36301.71
670.39	36339.16
670.53	36449.16
670.67	36430.44
670.81	36442.14
670.95	36189.36
671.09	35957.65
671.23	35576.14
671.37	36102.76
671.51	36060.63
671.65	36318.09
671.79	35531.67
671.93	36175.32
672.07	36109.78
672.21	35796.15
672.35	35026.12
672.49	35742.32
672.63	35536.35
672.77	35124.42
672.91	35386.56
673.05	35180.59
673.19	34714.83
673.33	34979.31
673.47	34911.43
673.61	34848.24
673.75	34768.66
673.89	34857.60
674.03	34340.34
674.17	34321.62
674.31	34288.85
674.45	34183.52
674.59	34206.93
674.73	34176.50
674.87	33528.17
675.01	33954.15
675.15	33373.70
675.29	33722.44
675.43	33832.44
675.56	33687.33
675.70	33287.10
675.84	33586.69
675.98	32587.28
676.12	33315.19
676.26	33574.98
676.40	32786.22
676.54	32931.34
676.68	32767.50
676.82	32575.58
676.96	32865.80
677.10	32826.01
677.23	32648.13
677.37	32924.32
677.51	32376.63
677.65	32727.71
677.79	32173.00
677.93	32105.13
678.07	31941.29
678.21	31852.35
678.34	31536.38
678.48	31845.33
678.62	31772.77
678.76	31054.23
678.90	31126.78
679.04	31426.37
679.18	31613.62
679.31	30953.58
679.45	31042.53
679.59	30600.16
679.73	30911.46
679.87	30735.92
680.00	30536.97
680.14	30803.79
680.28	30726.55
680.42	30551.01
680.56	30050.14
680.70	30272.49
680.83	29935.45
680.97	29626.50
681.11	29881.62
681.25	30012.69
681.39	29261.38
681.52	29764.59
681.66	29525.86
681.80	28683.27
681.94	29006.26
682.07	28957.11
682.21	28938.38
682.35	28701.99
682.49	28870.51
682.62	29055.41
682.76	28957.11
682.90	28325.16
683.04	28540.49
683.17	28577.94
683.31	28503.04
683.45	28308.78
683.59	28116.86
683.72	27758.75
683.86	27934.29
684.00	27896.85
684.13	27800.88
684.27	27431.08
684.41	27541.08
684.55	27316.39
684.68	27150.21
684.82	26941.91
684.96	27145.53
685.09	26899.78
685.23	27307.03
685.37	27199.37
685.50	27325.75
685.64	26436.35
685.78	26377.84
685.91	26417.63
686.05	26185.91
686.19	26148.46
686.32	26141.44
686.46	25834.83
686.60	25439.28
686.73	25940.16
686.87	25731.85
687.01	25647.59
687.14	25788.02
687.28	25607.80
687.42	25460.35
687.55	24961.81
687.69	25261.40
687.82	25200.55
687.96	25149.06
688.10	25060.12
688.23	25127.99
688.37	25003.94
688.50	25266.08
688.64	24734.78
688.78	24636.48
688.91	24812.02
689.05	24622.44
689.18	24166.03
689.32	23613.66
689.46	23744.73
689.59	23791.55
689.73	24114.54
689.86	24112.20
690.00	23700.26
690.13	23866.44
690.27	23803.25
690.41	23484.94
690.54	23264.92
690.68	23304.71
690.81	23030.87
690.95	23147.90
691.08	22984.06
691.22	22766.39
691.35	22817.88
691.49	22925.55
691.62	22864.69
691.76	22759.37
691.89	22321.69
692.03	21816.13
692.16	22043.17
692.30	21944.86
692.43	21940.18
692.57	21720.17
692.70	21687.40
692.84	21687.40
692.97	21427.60
693.11	21472.07
693.24	21425.26
693.38	21151.42
693.51	21273.13
693.65	21357.39
693.78	21083.55
693.92	20683.31
694.05	20837.79
694.19	20793.32
694.32	20699.70
694.45	20924.39
694.59	20802.68
694.72	20531.18
694.86	20603.74
694.99	20290.10
695.13	20114.56
695.26	20039.67
695.39	19772.85
695.53	19889.87
695.66	19817.32
695.80	19644.12
695.93	19847.74
696.07	19594.96
696.20	19164.31
696.33	19129.20
696.47	19012.17
696.60	19281.33
696.73	19384.32
696.87	19157.28
697.00	18953.66
697.14	18930.25
697.27	18420.02
697.40	18354.48
697.54	18663.43
697.67	18544.06
697.80	18267.88
697.94	18286.61
698.07	18408.31
698.21	18272.56
698.34	17980.00
698.47	17865.31
698.61	17750.62
698.74	17748.28
698.87	17881.69
699.01	17451.03
699.14	17642.96
699.27	17549.34
699.40	17296.56
699.54	17231.02
699.67	17125.70
699.80	17142.08
699.94	16898.67
700.07	16929.09
700.20	17170.17
700.34	16730.15
700.47	16886.97
700.60	16826.11
700.73	16737.17
700.87	16489.07
701.00	16491.41
701.13	16320.56
701.26	16468.01
701.40	16299.49
701.53	16018.63
701.66	16084.16
701.79	16175.44
701.93	15871.17
702.06	15737.76
702.19	15658.18
702.32	15695.63
702.46	15819.68
702.59	15763.51
702.72	15777.55
702.85	15702.65
702.99	15534.14
703.12	15206.46
703.25	15042.62
703.38	14979.43
703.51	15049.64
703.65	14817.93
703.78	14785.16
703.91	14647.07
704.04	14759.42
704.17	14630.69
704.31	14532.39
704.44	14539.41
704.57	14375.57
704.70	14537.07
704.83	14373.23
704.96	14061.94
705.10	14036.19
705.23	13940.23
>>>>>End Processed Spectral Data<<<<<
