SpectraSuite Data File
++++++++++++++++++++++++++++++++++++
Date: Fri Oct 25 11:33:09 EDT 2013
User: price-jones
Dark Spectrum Present: No
Reference Spectrum Present: No
Number of Sampled Component Spectra: 1
Spectrometers: USB2+H05261
Integration Time (usec): 100000 (USB2+H05261)
Spectra Averaged: 1 (USB2+H05261)
Boxcar Smoothing: 0 (USB2+H05261)
Correct for Electrical Dark: No (USB2+H05261)
Strobe/Lamp Enabled: No (USB2+H05261)
Correct for Detector Non-linearity: No (USB2+H05261)
Correct for Stray Light: No (USB2+H05261)
Number of Pixels in Processed Spectrum: 2048
>>>>>Begin Processed Spectral Data<<<<<
365.73	294.91
365.92	294.91
366.12	294.91
366.32	220.01
366.52	156.82
366.72	220.01
366.91	140.43
367.11	217.67
367.31	152.13
367.51	217.67
367.70	128.73
367.90	168.52
368.10	133.41
368.30	189.58
368.49	194.26
368.69	180.22
368.89	189.58
369.09	163.84
369.28	271.50
369.48	222.35
369.68	173.20
369.87	212.99
370.07	301.93
370.27	285.55
370.47	304.27
370.66	435.34
370.86	505.56
371.06	571.09
371.25	531.30
371.45	510.24
371.65	660.03
371.84	587.47
372.04	538.32
372.24	589.82
372.44	554.71
372.63	599.18
372.83	629.60
373.03	648.33
373.22	627.26
373.42	737.27
373.62	575.77
373.81	690.46
374.01	641.31
374.21	643.65
374.40	683.44
374.60	636.63
374.79	662.37
374.99	643.65
375.19	657.69
375.38	667.05
375.58	746.63
375.78	690.46
375.97	688.12
376.17	758.33
376.37	730.25
376.56	648.33
376.76	660.03
376.95	688.12
377.15	746.63
377.35	688.12
377.54	699.82
377.74	624.92
377.93	671.73
378.13	648.33
378.33	657.69
378.52	772.38
378.72	718.54
378.91	760.67
379.11	739.61
379.31	695.14
379.50	727.91
379.70	641.31
379.89	791.10
380.09	711.52
380.28	765.36
380.48	802.80
380.68	723.23
380.87	741.95
381.07	718.54
381.26	779.40
381.46	744.29
381.65	716.20
381.85	772.38
382.04	746.63
382.24	830.89
382.43	770.04
382.63	837.91
382.83	770.04
383.02	777.06
383.22	849.61
383.41	880.04
383.61	763.01
383.80	812.17
384.00	823.87
384.19	800.46
384.39	819.19
384.58	816.85
384.78	875.36
384.97	779.40
385.17	856.64
385.36	823.87
385.56	887.06
385.75	844.93
385.95	798.12
386.14	929.19
386.34	903.45
386.53	985.37
386.72	849.61
386.92	915.15
387.11	898.77
387.31	870.68
387.50	1013.45
387.70	917.49
387.89	877.70
388.09	870.68
388.28	870.68
388.48	889.40
388.67	980.68
388.86	994.73
389.06	966.64
389.25	966.64
389.45	961.96
389.64	917.49
389.84	961.96
390.03	1025.15
390.22	968.98
390.42	990.05
390.61	964.30
390.81	987.71
391.00	1027.50
391.19	1015.79
391.39	1039.20
391.58	1104.73
391.78	1043.88
391.97	990.05
392.16	985.37
392.36	985.37
392.55	1050.90
392.75	1102.39
392.94	959.62
393.13	1064.94
393.33	1004.09
393.52	1128.14
393.71	1060.26
393.91	1100.05
394.10	1060.26
394.29	1130.48
394.49	1125.80
394.68	1081.33
394.88	1125.80
395.07	1057.92
395.26	1123.46
395.46	1196.01
395.65	1214.74
395.84	1170.27
396.04	1273.25
396.23	1210.06
396.42	1214.74
396.62	1179.63
396.81	1282.61
397.00	1200.69
397.19	1245.16
397.39	1139.84
397.58	1252.19
397.77	1165.59
397.97	1233.46
398.16	1167.93
398.35	1404.32
398.55	1275.59
398.74	1301.34
398.93	1336.45
399.12	1336.45
399.32	1224.10
399.51	1240.48
399.70	1439.43
399.90	1308.36
400.09	1268.57
400.28	1387.94
400.47	1345.81
400.67	1420.71
400.86	1441.77
401.05	1385.60
401.24	1465.18
401.44	1507.30
401.63	1416.02
401.82	1500.28
402.01	1528.37
402.21	1416.02
402.40	1453.47
402.59	1540.07
402.78	1500.28
402.97	1521.35
403.17	1530.71
403.36	1619.65
403.55	1563.48
403.74	1668.80
403.93	1645.40
404.13	1507.30
404.32	1647.74
404.51	1664.12
404.70	1540.07
404.89	1645.40
405.09	1739.02
405.28	1624.33
405.47	1650.08
405.66	1825.62
405.85	1682.85
406.05	1741.36
406.24	1806.89
406.43	1748.38
406.62	1912.22
406.81	1891.15
407.00	1806.89
407.20	1734.34
407.39	1809.23
407.58	1884.13
407.77	1930.94
407.96	1947.33
408.15	2015.20
408.34	1928.60
408.54	1863.07
408.73	1891.15
408.92	1959.03
409.11	1949.67
409.30	2052.65
409.49	1975.41
409.68	2057.33
409.87	1970.73
410.07	2078.40
410.26	2078.40
410.45	2078.40
410.64	2045.63
410.83	2139.25
411.02	2155.63
411.21	2230.53
411.40	2183.72
411.59	2202.44
411.78	2167.34
411.98	2141.59
412.17	2251.60
412.36	2237.55
412.55	2375.64
412.74	2394.37
412.93	2422.45
413.12	2267.98
413.31	2450.54
413.50	2420.11
413.69	2410.75
413.88	2480.97
414.07	2445.86
414.26	2614.38
414.45	2551.18
414.64	2523.10
414.83	2565.23
415.02	2672.89
415.22	2773.53
415.41	2675.23
415.60	2719.70
415.79	2712.68
415.98	2595.65
416.17	2729.06
416.36	2649.49
416.55	2731.41
416.74	2801.62
416.93	2775.88
417.12	2970.14
417.31	2918.65
417.50	2892.90
417.69	2937.37
417.88	2881.20
418.07	2916.31
418.26	2857.79
418.45	3030.99
418.64	3089.51
418.83	3066.10
419.02	3033.33
419.21	3141.00
419.39	3117.59
419.58	3075.46
419.77	3117.59
419.96	3180.79
420.15	3201.85
420.34	3267.39
420.53	3150.36
420.72	3300.16
420.91	3150.36
421.10	3304.84
421.29	3243.98
421.48	3290.79
421.67	3332.92
421.86	3337.60
422.05	3344.63
422.24	3276.75
422.43	3365.69
422.61	3398.46
422.80	3407.82
422.99	3421.86
423.18	3559.95
423.37	3419.52
423.56	3386.76
423.75	3419.52
423.94	3361.01
424.13	3150.36
424.32	3370.37
424.50	3337.60
424.69	3506.12
424.88	3471.01
425.07	3492.08
425.26	3438.25
425.45	3410.16
425.64	3529.53
425.83	3459.31
426.01	3496.76
426.20	3571.66
426.39	3471.01
426.58	3461.65
426.77	3382.07
426.96	3510.80
427.15	3672.30
427.33	3595.06
427.52	3515.48
427.71	3595.06
427.90	3674.64
428.09	3606.77
428.28	3801.03
428.46	3789.33
428.65	3829.12
428.84	3798.69
429.03	3810.39
429.22	3623.15
429.40	3698.05
429.59	3791.67
429.78	3695.71
429.97	3599.74
430.16	3822.09
430.34	3904.01
430.53	3782.31
430.72	3981.25
430.91	3861.88
431.10	3836.14
431.28	4037.42
431.47	3981.25
431.66	4196.58
431.85	4039.76
432.03	4173.18
432.22	4119.34
432.41	3990.61
432.60	4093.60
432.79	4133.39
432.97	4189.56
433.16	4070.19
433.35	4138.07
433.54	3988.27
433.72	4175.52
433.91	4149.77
434.10	4236.37
434.28	4212.96
434.47	4283.18
434.66	4421.27
434.85	4241.05
435.03	4428.29
435.22	4304.25
435.41	4496.17
435.59	4407.23
435.78	4351.06
435.97	4479.79
436.16	4468.08
436.34	4308.93
436.53	4491.49
436.72	4606.17
436.90	4416.59
437.09	4468.08
437.28	4454.04
437.46	4472.76
437.65	4482.13
437.84	4685.75
438.02	4559.36
438.21	4697.46
438.40	4542.98
438.58	4711.50
438.77	4842.57
438.96	4823.84
439.14	4983.00
439.33	4922.15
439.52	4887.04
439.70	4964.28
439.89	4985.34
440.08	5008.75
440.26	5050.88
440.45	5001.72
440.63	5163.22
440.82	5114.07
441.01	5078.96
441.19	5266.21
441.38	5327.06
441.57	5296.63
441.75	5334.08
441.94	5383.23
442.12	5371.53
442.31	5568.13
442.50	5521.32
442.68	5394.93
442.87	5596.22
443.05	5439.40
443.24	5680.48
443.43	5563.45
443.61	5528.35
443.80	5645.37
443.98	5502.60
444.17	5275.57
444.35	5586.86
444.54	5673.46
444.73	5556.43
444.91	5802.19
445.10	5776.44
445.28	5612.60
445.47	5685.16
445.65	5762.40
445.84	5727.29
446.02	5813.89
446.21	5671.12
446.39	5827.93
446.58	5926.24
446.77	5579.84
446.95	5717.93
447.14	5692.18
447.32	5900.49
447.51	5551.75
447.69	5823.25
447.88	5687.50
448.06	5870.06
448.25	5724.95
448.43	5951.98
448.62	5785.80
448.80	5809.21
448.99	5891.13
449.17	5891.13
449.36	5816.23
449.54	5919.21
449.73	6125.18
449.91	6108.80
450.10	6026.88
450.28	6179.01
450.46	6164.97
450.65	6094.76
450.83	6188.38
451.02	6061.99
451.20	6207.10
451.39	6473.92
451.57	6314.77
451.76	6345.19
451.94	6228.17
452.13	6221.14
452.31	6389.66
452.49	6115.82
452.68	6382.64
452.86	6293.70
453.05	6260.93
453.23	6434.13
453.42	6415.41
453.60	6305.40
453.78	6504.35
453.97	6373.28
454.15	6539.46
454.34	6420.09
454.52	6597.97
454.70	6560.52
454.89	6551.16
455.07	6707.98
455.26	6717.34
455.44	6738.40
455.62	6740.74
455.81	6672.87
455.99	6775.85
456.17	6686.91
456.36	6773.51
456.54	6925.65
456.73	6871.81
456.91	7026.29
457.09	6916.28
457.28	7164.38
457.46	6913.94
457.64	7211.19
457.83	7192.47
458.01	7096.50
458.19	7194.81
458.38	7136.29
458.56	7262.68
458.74	7349.28
458.93	7293.11
459.11	7379.71
459.29	7276.73
459.48	7545.89
459.66	7253.32
459.84	7279.07
460.03	7358.64
460.21	7400.77
460.39	7470.99
460.57	7372.69
460.76	7522.48
460.94	7452.27
461.12	7506.10
461.31	7588.02
461.49	7585.68
461.67	7566.95
461.85	7723.77
462.04	7756.54
462.22	7812.71
462.40	7662.91
462.59	7798.66
462.77	7730.79
462.95	7747.17
463.13	7911.01
463.32	7758.88
463.50	7939.10
463.68	8058.46
463.86	8004.63
464.05	7971.86
464.23	7854.84
464.41	8009.31
464.59	7911.01
464.78	8217.62
464.96	8156.77
465.14	7918.03
465.32	8002.29
465.50	8194.22
465.69	8067.83
465.87	8224.64
466.05	8140.38
466.23	8395.50
466.41	8315.92
466.60	8351.03
466.78	8358.05
466.96	8124.00
467.14	8278.47
467.32	8393.16
467.51	8610.83
467.69	8215.28
467.87	8390.82
468.05	8465.72
468.23	8318.26
468.41	8301.88
468.60	8131.02
468.78	8634.24
468.96	8365.07
469.14	8669.34
469.32	8720.84
469.50	8517.21
469.69	8718.50
469.87	9004.04
470.05	8872.97
470.23	8887.01
470.41	8718.50
470.59	8903.40
470.77	8872.97
470.95	8819.14
471.14	9121.07
471.32	8802.75
471.50	8992.34
471.68	9060.21
471.86	9394.91
472.04	9149.15
472.22	9334.06
472.40	9207.67
472.58	9315.33
472.77	9390.23
472.95	9568.11
473.13	9724.93
473.31	9437.04
473.49	9378.53
473.67	9530.66
473.85	9472.15
474.03	9703.86
474.21	9933.23
474.39	10087.71
474.57	9870.04
474.75	9944.94
474.93	10099.41
475.12	10174.31
475.30	9961.32
475.48	10153.24
475.66	10076.01
475.84	10181.33
476.02	10249.21
476.20	10305.38
476.38	10415.38
476.56	10649.44
476.74	10607.31
476.92	10609.65
477.10	10780.51
477.28	10691.57
477.46	10757.10
477.64	10949.03
477.82	11140.95
478.00	11199.46
478.18	11239.25
478.36	11527.14
478.54	11403.09
478.72	11510.75
478.90	11356.28
479.08	11695.66
479.26	11672.25
479.44	11796.30
479.62	11840.77
479.80	12102.91
479.98	12142.70
480.16	12367.39
480.34	12250.36
480.52	12205.89
480.70	12547.61
480.88	12348.67
481.06	12585.06
481.24	12540.59
481.41	12666.98
481.59	12828.48
481.77	12877.63
481.95	13275.52
482.13	12870.61
482.31	12938.48
482.49	13509.57
482.67	13394.89
482.85	13696.82
483.03	13752.99
483.21	13951.93
483.39	13895.76
483.57	13804.48
483.74	14101.73
483.92	14029.17
484.10	13977.68
484.28	14602.60
484.46	14731.33
484.64	14857.72
484.82	14487.92
485.00	14827.29
485.18	14773.46
485.35	15351.57
485.53	15077.73
485.71	15281.36
485.89	15424.13
486.07	15548.18
486.25	15417.11
486.43	15658.18
486.61	16030.33
486.78	16027.99
486.96	16088.84
487.14	16327.58
487.32	16004.58
487.50	16589.72
487.68	16699.72
487.85	16821.43
488.03	16709.08
488.21	16915.05
488.39	16982.93
488.57	17277.83
488.75	17348.05
488.92	17671.04
489.10	17633.60
489.28	17862.97
489.46	17956.59
489.64	18066.60
489.81	18324.05
489.99	18279.58
490.17	18235.11
490.35	18740.67
490.53	18546.40
490.70	18817.91
490.88	18899.83
491.06	18930.25
491.24	19293.04
491.41	19197.07
491.59	19604.33
491.77	19454.53
491.95	19424.11
492.13	19910.94
492.30	19747.10
492.48	19711.99
492.66	19962.43
492.84	19976.47
493.01	20060.73
493.19	20531.18
493.37	20531.18
493.54	20718.42
493.72	20711.40
493.90	20879.92
494.08	20922.05
494.25	21149.08
494.43	21153.76
494.61	21333.98
494.79	21142.06
494.96	21355.05
495.14	21816.13
495.32	21891.03
495.49	21951.88
495.67	21942.52
495.85	21991.67
496.02	22457.44
496.20	22368.50
496.38	22860.01
496.55	22750.01
496.73	23112.79
496.91	22806.18
497.09	23122.15
497.26	22834.27
497.44	22803.84
497.62	23178.33
497.79	23768.14
497.97	23534.09
498.14	23908.57
498.32	24205.82
498.50	23707.29
498.67	24084.11
498.85	24039.64
499.03	24170.71
499.20	24334.55
499.38	24458.60
499.56	24629.46
499.73	24816.70
499.91	24453.92
500.08	24999.26
500.26	24971.18
500.44	24879.89
500.61	25137.35
500.79	25015.65
500.97	25181.82
501.14	25717.81
501.32	25345.66
501.49	25345.66
501.67	25769.30
501.84	25589.08
502.02	25811.43
502.20	25958.88
502.37	26029.10
502.55	25902.71
502.72	25982.29
502.90	26225.70
503.07	26232.72
503.25	26181.23
503.43	26106.34
503.60	26532.31
503.78	26656.36
503.95	26403.58
504.13	26663.38
504.30	26658.70
504.48	26824.88
504.65	27358.52
504.83	27215.75
505.01	27229.79
505.18	27662.79
505.36	27332.78
505.53	27377.25
505.71	27587.89
505.88	27859.40
506.06	27349.16
506.23	27814.93
506.41	28002.17
506.58	28182.39
506.76	27917.91
506.93	28053.66
507.11	28173.03
507.28	28297.08
507.46	28376.66
507.63	28629.43
507.81	28774.55
507.98	28786.25
508.16	29092.86
508.33	28826.04
508.50	28929.02
508.68	28879.87
508.85	29638.20
509.03	28807.31
509.20	29111.58
509.38	29666.29
509.55	29855.87
509.73	29890.98
509.90	29858.21
510.08	29502.45
510.25	29963.54
510.42	29731.83
510.60	30284.19
510.77	29844.17
510.95	30331.00
511.12	30223.34
511.30	30401.22
511.47	30024.39
511.64	30246.74
511.82	30799.11
511.99	30485.48
512.17	30469.09
512.34	30775.70
512.51	31065.93
512.69	31278.92
512.86	31372.54
513.04	31115.08
513.21	31241.47
513.38	31611.28
513.56	32135.56
513.73	31051.89
513.90	31735.32
514.08	31531.70
514.25	31796.18
514.43	31962.36
514.60	31779.79
514.77	31943.63
514.95	32283.01
515.12	31700.22
515.29	31648.72
515.47	32407.06
515.64	32374.29
515.81	32222.16
515.99	32512.38
516.16	32634.09
516.33	32669.20
516.51	32589.62
516.68	32540.47
516.85	32854.10
517.03	33104.54
517.20	33088.15
517.37	33039.00
517.54	32739.41
517.72	33097.52
517.89	33338.59
518.06	33387.74
518.24	33287.10
518.41	33345.61
518.58	33205.18
518.75	33270.72
518.93	33776.27
519.10	33881.60
519.27	33553.92
519.45	33813.72
519.62	34295.87
519.79	34036.07
519.96	33958.83
520.14	34328.64
520.31	34164.80
520.48	34513.54
520.65	34213.95
520.83	34684.40
521.00	34492.47
521.17	34649.29
521.34	35026.12
521.52	34843.56
521.69	34693.76
521.86	34986.33
522.03	34799.08
522.20	35494.22
522.38	35101.01
522.55	35388.90
522.72	35288.26
522.89	35234.42
523.07	35758.70
523.24	35208.68
523.41	35871.05
523.58	35480.18
523.75	36098.08
523.92	35739.98
524.10	35414.65
524.27	36034.89
524.44	35751.68
524.61	36006.80
524.78	36311.07
524.96	36439.80
525.13	36191.70
525.30	35901.48
525.47	36821.31
525.64	36275.96
525.81	36950.04
525.98	36760.45
526.16	36772.16
526.33	36816.63
526.50	36854.08
526.67	36680.88
526.84	36526.40
527.01	36774.50
527.18	37244.94
527.36	36891.52
527.53	37148.98
527.70	37495.38
527.87	37743.48
528.04	37287.07
528.21	37277.71
528.38	36985.15
528.55	37745.82
528.72	37738.80
528.89	37865.19
529.07	37523.47
529.24	37333.89
529.41	37858.17
529.58	37827.74
529.75	37848.80
529.92	37991.58
530.09	38419.89
530.26	37797.31
530.43	38417.55
530.60	38377.76
530.77	38216.27
530.94	37968.17
531.11	38316.91
531.28	38593.09
531.46	38099.24
531.63	38813.10
531.80	38576.71
531.97	39248.44
532.14	38700.76
532.31	38745.23
532.48	38871.62
532.65	39033.11
532.82	38665.65
532.99	38780.34
533.16	39110.35
533.33	38902.04
533.50	39332.70
533.67	39161.84
533.84	39262.49
534.01	39325.68
534.18	38974.60
534.35	39697.83
534.52	39700.17
534.69	39751.66
534.86	39445.05
535.03	39533.99
535.20	39426.32
535.37	40023.16
535.54	40128.48
535.71	39587.82
535.88	40044.23
536.05	40121.46
536.22	40355.52
536.38	39702.51
536.55	40194.02
536.72	40151.89
536.89	39938.90
537.06	40226.79
537.23	40875.12
537.40	40154.23
537.57	40002.10
537.74	40172.96
537.91	40353.18
538.08	40472.54
538.25	40292.32
538.42	40797.88
538.59	40650.42
538.75	40591.91
538.92	40598.93
539.09	41443.87
539.26	41265.99
539.43	40978.10
539.60	41074.06
539.77	40748.73
539.94	41443.87
540.11	41422.80
540.28	41324.50
540.44	41406.42
540.61	40921.93
540.78	41022.57
540.95	41383.01
541.12	41654.51
541.29	40907.88
541.46	41411.10
541.62	41130.23
541.79	41717.71
541.96	41586.64
542.13	41340.88
542.30	41336.20
542.47	41846.44
542.63	41748.14
542.80	41780.90
542.97	41855.80
543.14	42522.85
543.31	41607.70
543.48	42373.06
543.64	42710.10
543.81	42433.91
543.98	42225.60
544.15	42139.00
544.32	42335.61
544.48	42749.88
544.65	42597.75
544.82	42291.14
544.99	42225.60
545.16	42717.12
545.32	42703.07
545.49	43077.56
545.66	43419.28
545.83	42665.63
546.00	43548.01
546.16	42864.57
546.33	42904.36
546.50	42962.87
546.67	43358.42
546.83	42258.37
547.00	42932.45
547.17	42454.98
547.34	42808.40
547.50	43381.83
547.67	43393.53
547.84	43288.21
548.00	43442.68
548.17	43887.39
548.34	43697.80
548.51	43695.46
548.67	43667.37
548.84	43793.76
549.01	43545.67
549.18	43622.90
549.34	43632.27
549.51	43784.40
549.68	43758.66
549.84	43753.97
550.01	44219.74
550.18	44083.99
550.34	43863.98
550.51	44250.17
550.68	44093.35
550.84	43826.53
551.01	44044.20
551.18	43737.59
551.34	43658.01
551.51	44554.44
551.68	44247.83
551.84	44662.10
552.01	43866.32
552.18	44027.82
552.34	44069.95
552.51	44411.67
552.68	44079.31
552.84	44348.47
553.01	44285.28
553.18	44254.85
553.34	44430.39
553.51	44516.99
553.67	44762.75
553.84	44720.62
554.01	44996.80
554.17	44514.65
554.34	44835.30
554.51	44968.71
554.67	44980.42
554.84	45179.36
555.00	45209.79
555.17	45055.31
555.33	45024.89
555.50	45181.70
555.67	45092.76
555.83	44952.33
556.00	45500.01
556.16	45078.72
556.33	45429.80
556.50	45642.79
556.66	45294.05
556.83	45006.16
556.99	45631.08
557.16	45511.72
557.32	45923.65
557.49	45598.32
557.65	45235.53
557.82	45155.96
557.98	45406.39
558.15	45577.25
558.32	45886.20
558.48	45380.65
558.65	45717.68
558.81	45710.66
558.98	45876.84
559.14	45263.62
559.31	45062.33
559.47	45666.19
559.64	45523.42
559.80	45649.81
559.97	45724.71
560.13	45773.86
560.30	45425.12
560.46	45979.82
560.63	46176.43
560.79	46099.19
560.96	46199.83
561.12	46309.84
561.29	46000.89
561.45	46103.87
561.61	46302.82
561.78	46071.10
561.94	46108.55
562.11	45701.30
562.27	46284.09
562.44	46005.57
562.60	46415.16
562.77	46394.10
562.93	46328.56
563.10	46476.02
563.26	45940.04
563.42	46534.53
563.59	46178.77
563.75	46724.11
563.92	46405.80
564.08	46581.34
564.24	46405.80
564.41	46321.54
564.57	46054.72
564.74	46567.30
564.90	46122.60
565.07	46429.21
565.23	46146.00
565.39	46637.51
565.56	46773.27
565.72	46543.89
565.88	46829.44
566.05	46593.04
566.21	46263.03
566.38	46890.29
566.54	46855.18
566.70	46429.21
566.87	46873.91
567.03	46543.89
567.19	46630.49
567.36	46703.05
567.52	46424.53
567.68	47019.02
567.85	46988.60
568.01	46735.82
568.17	46796.67
568.34	46911.36
568.50	46822.42
568.66	46745.18
568.83	46714.75
568.99	46686.67
569.15	47185.20
569.32	46515.81
569.48	46712.41
569.64	47082.22
569.81	47000.30
569.97	47002.64
570.13	47164.14
570.30	46955.83
570.46	47229.67
570.62	47213.29
570.78	47480.11
570.95	47126.69
571.11	47159.45
571.27	47107.96
571.43	46993.28
571.60	47023.70
571.76	47178.18
571.92	46754.54
572.09	46731.14
572.25	46972.21
572.41	46904.34
572.57	47171.16
572.74	47702.46
572.90	47131.37
573.06	47084.56
573.22	47327.97
573.38	47508.19
573.55	47393.51
573.71	47821.83
573.87	47337.33
574.03	47119.66
574.20	47601.82
574.36	47377.12
574.52	47246.05
574.68	47384.15
574.84	47466.06
575.01	47547.98
575.17	47224.99
575.33	47419.25
575.49	47016.68
575.65	47552.66
575.82	47496.49
575.98	47503.51
576.14	47620.54
576.30	47494.15
576.46	47496.49
576.62	47107.96
576.79	47421.59
576.95	47117.32
577.11	46969.87
577.27	47629.90
577.43	47304.57
577.59	47334.99
577.75	47026.04
577.92	47227.33
578.08	47433.30
578.24	47510.53
578.40	47145.41
578.56	47831.19
578.72	47838.21
578.88	47278.82
579.04	47264.78
579.21	47257.76
579.37	47540.96
579.53	47723.52
579.69	47529.26
579.85	47473.09
580.01	47412.23
580.17	47517.56
580.33	47828.85
580.49	47386.49
580.65	47957.58
580.82	47353.72
580.98	47433.30
581.14	47276.48
581.30	47728.20
581.46	47639.26
581.62	47510.53
581.78	47515.22
581.94	47618.20
582.10	47468.40
582.26	47980.98
582.42	47573.73
582.58	47421.59
582.74	47728.20
582.90	47650.97
583.06	47973.96
583.22	47875.66
583.38	47784.38
583.54	47428.62
583.70	47885.02
583.86	47672.03
584.02	47618.20
584.18	47971.62
584.34	47807.78
584.50	47695.44
584.66	48140.14
584.82	47854.59
584.98	48098.01
585.14	48196.31
585.30	47737.57
585.46	47601.82
585.62	47599.47
585.78	47845.23
585.94	47611.18
586.10	47817.14
586.26	47559.69
586.42	47709.48
586.58	47571.39
586.74	47789.06
586.90	47983.32
587.06	47714.16
587.22	47870.98
587.38	47885.02
587.54	47894.38
587.70	48100.35
587.86	47707.14
588.02	47789.06
588.18	47704.80
588.34	47796.08
588.49	47707.14
588.65	47775.02
588.81	48126.10
588.97	48046.52
589.13	48107.37
589.29	48058.22
589.45	48273.55
589.61	47903.74
589.77	47962.26
589.93	48196.31
590.08	48521.65
590.24	48222.06
590.40	48266.53
590.56	48409.30
590.72	48154.18
590.88	47674.37
591.04	47941.19
591.20	48102.69
591.35	48435.05
591.51	48690.16
591.67	48502.92
591.83	48168.22
591.99	48346.11
592.15	48114.39
592.31	48147.16
592.46	48013.75
592.62	47826.51
592.78	48542.71
592.94	48671.44
593.10	48603.56
593.26	48591.86
593.41	48790.81
593.57	48074.60
593.73	48500.58
593.89	48746.34
594.05	48748.68
594.20	48273.55
594.36	48751.02
594.52	48566.12
594.68	48821.23
594.84	48210.35
594.99	48453.77
595.15	48306.32
595.31	48411.64
595.47	48362.49
595.62	48425.68
595.78	48343.77
595.94	48638.67
596.10	48816.55
596.25	48353.13
596.41	48430.36
596.57	48633.99
596.73	48776.76
596.88	48584.84
597.04	48617.61
597.20	48582.50
597.36	48687.82
597.51	48528.67
597.67	48336.74
597.83	48282.91
597.99	48711.23
598.14	48275.89
598.30	48346.11
598.46	48388.24
598.61	48713.57
598.77	48931.24
598.93	48264.19
599.09	48914.86
599.24	48566.12
599.40	48947.62
599.56	48444.41
599.71	49048.27
599.87	49048.27
600.03	48907.83
600.18	48891.45
600.34	48718.25
600.50	48739.32
600.65	48811.87
600.81	48783.79
600.97	48832.94
601.12	48498.24
601.28	49085.72
601.44	48800.17
601.59	48851.66
601.75	48610.59
601.91	48444.41
602.06	48641.01
602.22	48971.03
602.37	48940.60
602.53	48978.05
602.69	48933.58
602.84	48465.47
603.00	48442.07
603.16	48285.25
603.31	48706.55
603.47	48467.81
603.62	48713.57
603.78	48685.48
603.94	48474.84
604.09	48821.23
604.25	48502.92
604.40	48493.56
604.56	48491.22
604.71	48809.53
604.87	48676.12
605.03	48481.86
605.18	48645.69
605.34	48744.00
605.49	48409.30
605.65	48715.91
605.80	48678.46
605.96	48439.73
606.12	48521.65
606.27	48453.77
606.43	48371.85
606.58	48741.66
606.74	48751.02
606.89	48865.70
607.05	48795.49
607.20	48776.76
607.36	48559.09
607.51	48439.73
607.67	48086.31
607.82	48678.46
607.98	48306.32
608.13	48488.88
608.29	48322.70
608.44	48790.81
608.60	48568.46
608.75	48706.55
608.91	48442.07
609.06	48210.35
609.22	48231.42
609.37	47999.71
609.53	48624.63
609.68	48247.80
609.84	48535.69
609.99	48587.18
610.15	48477.18
610.30	48135.46
610.46	48406.96
610.61	48390.58
610.76	48673.78
610.92	48512.28
611.07	47999.71
611.23	48243.12
611.38	48294.61
611.54	48137.80
611.69	48341.42
611.84	48643.35
612.00	47889.70
612.15	48086.31
612.31	48250.14
612.46	47833.53
612.62	47892.04
612.77	47915.45
612.92	48098.01
613.08	48116.73
613.23	48236.10
613.39	47992.68
613.54	47976.30
613.69	48151.84
613.85	48282.91
614.00	48016.09
614.15	47810.12
614.31	47667.35
614.46	47957.58
614.62	48011.41
614.77	48163.54
614.92	47779.70
615.08	47840.55
615.23	47880.34
615.38	47927.15
615.54	48172.91
615.69	47838.21
615.84	47421.59
616.00	48320.36
616.15	47988.00
616.30	48191.63
616.46	47732.89
616.61	48069.92
616.76	47978.64
616.92	47594.79
617.07	47873.32
617.22	47796.08
617.37	47381.80
617.53	47676.71
617.68	47459.04
617.83	47545.64
617.99	47868.64
618.14	47681.39
618.29	47159.45
618.45	47405.21
618.60	47456.70
618.75	47065.83
618.90	47760.97
619.06	47206.26
619.21	47686.07
619.36	48175.25
619.51	47281.16
619.67	47547.98
619.82	47288.18
619.97	47983.32
620.12	47236.69
620.28	47524.58
620.43	47306.91
620.58	47433.30
620.73	47334.99
620.89	47597.13
621.04	47707.14
621.19	47466.06
621.34	47360.74
621.49	47103.28
621.65	47267.12
621.80	47625.22
621.95	46885.61
622.10	47407.55
622.25	47068.17
622.41	46817.74
622.56	47056.47
622.71	46997.96
622.86	46993.28
623.01	47119.66
623.16	46972.21
623.32	47285.84
623.47	46829.44
623.62	46794.33
623.77	46897.31
623.92	47033.07
624.07	47098.60
624.23	47234.35
624.38	47461.38
624.53	46852.84
624.68	46906.68
624.83	46712.41
624.98	46834.12
625.13	46454.95
625.29	46445.59
625.44	46770.93
625.59	46340.27
625.74	46885.61
625.89	45963.44
626.04	46181.11
626.19	46649.22
626.34	46518.15
626.49	46197.49
626.65	46012.59
626.80	46604.75
626.95	46461.97
627.10	46066.42
627.25	46050.04
627.40	46150.68
627.55	46560.28
627.70	46248.99
627.85	46272.39
628.00	46213.88
628.15	46384.74
628.30	45998.55
628.45	45528.10
628.60	45614.70
628.76	46080.47
628.91	46490.06
629.06	45935.35
629.21	45645.13
629.36	45923.65
629.51	46061.74
629.66	45935.35
629.81	45865.14
629.96	45914.29
630.11	45717.68
630.26	45869.82
630.41	46080.47
630.56	45923.65
630.71	46171.75
630.86	45827.69
631.01	45481.29
631.16	45518.74
631.31	45879.18
631.46	45523.42
631.61	45947.06
631.76	45368.94
631.91	45488.31
632.06	46143.66
632.21	45790.24
632.36	45916.63
632.51	45387.67
632.66	45724.71
632.81	45382.99
632.96	45799.60
633.10	45134.89
633.25	45289.37
633.40	45518.74
633.55	45502.35
633.70	45422.78
633.85	45436.82
634.00	45247.24
634.15	45228.51
634.30	45099.78
634.45	45127.87
634.60	45254.26
634.75	45146.59
634.90	45050.63
635.05	45359.58
635.19	45074.04
635.34	45443.84
635.49	45254.26
635.64	44964.03
635.79	44952.33
635.94	45450.86
636.09	45113.83
636.24	45354.90
636.39	45048.29
636.53	44720.62
636.68	44891.48
636.83	44893.82
636.98	44224.42
637.13	44538.05
637.28	44765.09
637.43	44463.16
637.57	44755.72
637.72	44662.10
637.87	44872.75
638.02	44893.82
638.17	44959.35
638.32	44315.70
638.46	43966.96
638.61	44591.89
638.76	44622.31
638.91	44397.62
639.06	44336.77
639.20	44182.29
639.35	44112.08
639.50	44112.08
639.65	44566.14
639.80	44458.48
639.94	44594.23
640.09	44575.50
640.24	44643.38
640.39	44240.81
640.54	43868.66
640.68	44472.52
640.83	44451.45
640.98	44217.40
641.13	43555.03
641.27	43892.07
641.42	43515.24
641.57	43819.51
641.72	44163.57
641.86	43683.76
642.01	43826.53
642.16	44416.35
642.31	43473.11
642.45	43784.40
642.60	43545.67
642.75	43515.24
642.90	44020.80
643.04	43522.26
643.19	43863.98
643.34	43716.53
643.48	43517.58
643.63	43573.75
643.78	43789.08
643.93	43906.11
644.07	43871.00
644.22	43856.96
644.37	43182.88
644.51	43463.75
644.66	43374.81
644.81	43400.55
644.95	43676.74
645.10	43742.27
645.25	43143.09
645.39	43428.64
645.54	43393.53
645.69	42813.08
645.83	42754.57
645.98	42834.14
646.13	43564.39
646.27	43281.19
646.42	42988.62
646.57	43285.87
646.71	43632.27
646.86	43388.85
647.00	43044.79
647.15	43136.07
647.30	43023.73
647.44	43203.95
647.59	42691.37
647.74	42763.93
647.88	43026.07
648.03	43295.23
648.17	43152.46
648.32	43002.66
648.47	43412.26
648.61	42859.89
648.76	42829.46
648.90	42916.06
649.05	42607.11
649.20	42855.21
649.34	42920.74
649.49	42707.76
649.63	42960.53
649.78	43393.53
649.92	42880.95
650.07	43405.23
650.21	42937.13
650.36	42953.51
650.51	42862.23
650.65	42546.26
650.80	43133.73
650.94	42569.66
651.09	43157.14
651.23	42202.20
651.38	42323.91
651.52	41963.46
651.67	42134.32
651.81	42471.36
651.96	42696.05
652.10	42323.91
652.25	41897.93
652.39	42061.77
652.54	42438.59
652.68	42183.48
652.83	41827.71
652.97	42424.55
653.12	41935.38
653.26	41970.49
653.41	42174.11
653.55	42223.26
653.70	42270.08
653.84	42436.25
653.99	42426.89
654.13	42471.36
654.27	41823.03
654.42	42363.70
654.56	41612.38
654.71	42164.75
654.85	41916.65
655.00	42000.91
655.14	42045.38
655.29	42237.31
655.43	41799.63
655.57	41759.84
655.72	41603.02
655.86	41888.57
656.01	41635.79
656.15	41483.66
656.30	41537.49
656.44	41368.97
656.58	41390.03
656.73	41773.88
656.87	41132.57
657.01	41212.15
657.16	41284.71
657.30	41691.96
657.45	41441.53
657.59	41420.46
657.73	41413.44
657.88	41212.15
658.02	41315.14
658.16	41816.01
658.31	40982.78
658.45	41141.94
658.60	40938.31
658.74	40896.18
658.88	41244.92
659.03	40800.22
659.17	40851.71
659.31	40685.53
659.46	40472.54
659.60	41074.06
659.74	41258.96
659.89	40231.47
660.03	40304.02
660.17	40825.96
660.32	40596.59
660.46	40416.37
660.60	39917.84
660.74	40425.73
660.89	40631.70
661.03	40531.06
661.17	40297.00
661.32	40261.90
661.46	40273.60
661.60	40397.65
661.74	39901.45
661.89	39915.50
662.03	40137.85
662.17	39737.62
662.31	39849.96
662.46	39990.39
662.60	39658.04
662.74	39646.33
662.88	39473.13
663.03	39337.38
663.17	39627.61
663.31	39311.64
663.45	39536.33
663.60	39604.20
663.74	39168.87
663.88	39526.97
664.02	38878.64
664.17	39449.73
664.31	39199.29
664.45	39377.17
664.59	38855.23
664.73	38941.83
664.88	39028.43
665.02	38581.39
665.16	38974.60
665.30	38698.42
665.44	39105.67
665.59	38272.44
665.73	38696.08
665.87	38019.66
666.01	38143.71
666.15	38572.03
666.29	38307.55
666.44	38440.96
666.58	38061.79
666.72	37897.95
666.86	37942.42
667.00	37998.60
667.14	37853.48
667.28	38017.32
667.43	37989.24
667.57	38265.42
667.71	37912.00
667.85	38387.13
667.99	37797.31
668.13	37635.81
668.27	37495.38
668.41	37696.67
668.56	36615.34
668.70	37088.13
668.84	36966.42
668.98	37429.85
669.12	37319.84
669.26	37368.99
669.40	37488.36
669.54	37010.89
669.68	36971.10
669.82	36912.59
669.96	36786.20
670.10	36402.35
670.25	36627.04
670.39	36734.71
670.53	36451.50
670.67	36589.59
670.81	37181.75
670.95	36261.92
671.09	36168.30
671.23	36121.49
671.37	36432.78
671.51	36308.73
671.65	36095.74
671.79	35981.06
671.93	36226.81
672.07	36336.82
672.21	36081.70
672.35	35534.01
672.49	35679.13
672.63	35426.35
672.77	35629.98
672.91	35864.03
673.05	35393.58
673.19	34883.34
673.33	35573.80
673.47	35370.18
673.61	35112.72
673.75	34747.59
673.89	34838.87
674.03	34653.97
674.17	34457.37
674.31	34424.60
674.45	34265.44
674.59	34675.04
674.73	34314.59
674.87	34045.43
675.01	33708.40
675.15	33883.94
675.29	33638.18
675.43	33670.95
675.56	33785.63
675.70	33883.94
675.84	33776.27
675.98	32779.20
676.12	33638.18
676.26	33682.65
676.40	33434.55
676.54	32978.15
676.68	33481.36
676.82	32643.45
676.96	33099.86
677.10	33340.93
677.23	32947.72
677.37	32659.84
677.51	32652.81
677.65	32526.42
677.79	32514.72
677.93	32950.06
678.07	32280.67
678.21	32023.21
678.34	32013.85
678.48	31789.16
678.62	31606.59
678.76	31529.36
678.90	31424.03
679.04	31754.05
679.18	32086.40
679.31	31098.70
679.45	31398.29
679.59	30822.51
679.73	31262.54
679.87	30946.56
680.00	31189.98
680.14	30616.55
680.28	31058.91
680.42	30415.26
680.56	30714.85
680.70	30562.72
680.83	30335.68
680.97	29935.45
681.11	29937.79
681.25	29811.40
681.39	29830.13
681.52	29745.87
681.66	29507.13
681.80	29291.80
681.94	29064.77
682.07	29001.58
682.21	29270.74
682.35	29244.99
682.49	28893.91
682.62	29048.39
682.76	28973.49
682.90	29027.32
683.04	28610.71
683.17	28673.90
683.31	28376.66
683.45	28236.22
683.59	28205.80
683.72	28072.39
683.86	28058.34
684.00	28002.17
684.13	27615.98
684.27	27742.37
684.41	27711.94
684.55	27775.14
684.68	27620.66
684.82	27529.38
684.96	27346.82
685.09	27651.09
685.23	27285.97
685.37	27644.07
685.50	27316.39
685.64	27316.39
685.78	26852.97
685.91	26892.76
686.05	26647.00
686.19	26237.41
686.32	26431.67
686.46	26061.87
686.60	26199.96
686.73	26258.47
686.87	26118.04
687.01	25937.82
687.14	25867.60
687.28	25628.87
687.42	25514.18
687.55	25392.47
687.69	25443.96
687.82	25504.82
687.96	25053.09
688.10	25245.02
688.23	25198.21
688.37	25146.72
688.50	25450.99
688.64	24968.84
688.78	24666.91
688.91	24772.23
689.05	24535.84
689.18	24388.38
689.32	23899.21
689.46	23847.72
689.59	23929.64
689.73	24163.69
689.86	24306.46
690.00	23920.28
690.13	24004.53
690.27	23468.55
690.41	23803.25
690.54	23335.14
690.68	23393.65
690.81	23044.91
690.95	23026.19
691.08	23133.86
691.22	22494.89
691.35	22904.48
691.49	23089.38
691.62	23166.62
691.76	22742.99
691.89	22611.92
692.03	22085.30
692.16	22328.71
692.30	22368.50
692.43	21926.14
692.57	21888.69
692.70	21916.78
692.84	21839.54
692.97	21523.57
693.11	21308.24
693.24	21202.91
693.38	21703.79
693.51	21092.91
693.65	21490.80
693.78	21193.55
693.92	21125.68
694.05	20795.66
694.19	20922.05
694.32	20854.17
694.45	20748.85
694.59	21001.63
694.72	20999.29
694.86	20439.90
694.99	20322.87
695.13	20250.32
695.26	19992.86
695.39	19913.28
695.53	19955.41
695.66	20032.65
695.80	19721.35
695.93	20009.24
696.07	19323.46
696.20	19262.61
696.33	19131.54
696.47	19625.39
696.60	19063.66
696.73	19325.80
696.87	19267.29
697.00	19419.42
697.14	18831.95
697.27	18745.35
697.40	18937.27
697.54	18576.83
697.67	18649.39
697.80	18623.64
697.94	18349.80
698.07	18342.78
698.21	18202.35
698.34	18125.11
698.47	17935.53
698.61	17619.55
698.74	17741.26
698.87	17905.10
699.01	17589.13
699.14	17434.65
699.27	17429.97
699.40	17731.90
699.54	17270.81
699.67	17539.97
699.80	17589.13
699.94	17303.58
700.07	17530.61
700.20	16985.27
700.34	16659.93
700.47	16678.66
700.60	16739.51
700.73	17121.02
700.87	16737.17
701.00	16542.91
701.13	16472.69
701.26	16407.16
701.40	16613.12
701.53	16013.95
701.66	16418.86
701.79	16154.38
701.93	15798.62
702.06	15623.08
702.19	15913.30
702.32	15829.04
702.46	15845.43
702.59	15901.60
702.72	15946.07
702.85	15826.70
702.99	15733.08
703.12	15424.13
703.25	15147.95
703.38	15040.28
703.51	15009.86
703.65	14885.81
703.78	14965.39
703.91	14703.25
704.04	14614.30
704.17	14459.83
704.31	14630.69
704.44	14670.48
704.57	14487.92
704.70	14501.96
704.83	14403.66
704.96	14314.72
705.10	13944.91
705.23	14001.08
>>>>>End Processed Spectral Data<<<<<
